participant,condition,date,expName,psychopyVersion,OS,frameRate,block,phase,trial,learn_mouse_2.x,learn_mouse_2.y,learn_mouse_2.leftButton,learn_mouse_2.midButton,learn_mouse_2.rightButton,learn_mouse_2.time,learn_mouse_2.clicked_name,cat,token,row,col,t_select,cat_mouse_l.x,cat_mouse_l.y,cat_mouse_l.leftButton,cat_mouse_l.midButton,cat_mouse_l.rightButton,cat_mouse_l.time,cat_mouse_l.clicked_name,resp,t_resp,corr,train_trials.thisRepN,train_trials.thisTrialN,train_trials.thisN,train_trials.thisIndex,train_trials.ran,cat_mouse_t.x,cat_mouse_t.y,cat_mouse_t.leftButton,cat_mouse_t.midButton,cat_mouse_t.rightButton,cat_mouse_t.time,cat_mouse_t.clicked_name,test_trials.thisRepN,test_trials.thisTrialN,test_trials.thisN,test_trials.thisIndex,test_trials.ran,Bonus
662bf58363a3b81948a552b3,TCN,2024-06-26_13h37.23.016,LearnStrategy,2023.2.3,Win32,60.24096386,,,,,,,,,,,,,,,,,,,,,,,,,,,,,,,,,,,,,,,,,,,
662bf58363a3b81948a552b3,TCN,2024-06-26_13h37.23.016,LearnStrategy,2023.2.3,Win32,60.24096386,1,1,1,0.026041667,-0.020833333,1,0,0,4.2108,rock_grid_rect_2,6,12,-1,-1,4.211,-0.100260417,-0.23828125,1,0,0,6.4675,Basalt_rect,2,6.467,0,0,0,0,0,1,,,,,,,,,,,,,
662bf58363a3b81948a552b3,TCN,2024-06-26_13h37.23.016,LearnStrategy,2023.2.3,Win32,60.24096386,1,1,2,0.063802083,0.005208333,1,0,0,0.924,rock_grid_rect_2,4,08,-1,-1,0.924,-0.106770833,-0.243489583,1,0,0,6.0453,Basalt_rect,2,6.045,0,1,0,1,0,1,,,,,,,,,,,,,
662bf58363a3b81948a552b3,TCN,2024-06-26_13h37.23.016,LearnStrategy,2023.2.3,Win32,60.24096386,1,1,3,0.075520833,0,1,0,0,1.3772,rock_grid_rect_2,7,08,-1,-1,1.377,-0.359375,-0.384114583,1,0,0,4.3995,Obsidian_rect,5,4.399,0,2,0,2,0,1,,,,,,,,,,,,,
662bf58363a3b81948a552b3,TCN,2024-06-26_13h37.23.016,LearnStrategy,2023.2.3,Win32,60.24096386,1,1,4,0.041666667,0.0078125,1,0,0,1.1382,rock_grid_rect_2,2,16,-1,-1,1.138,-0.369791667,-0.2421875,1,0,0,5.0264,Andesite_rect,1,5.026,0,3,0,3,0,1,,,,,,,,,,,,,
662bf58363a3b81948a552b3,TCN,2024-06-26_13h37.23.016,LearnStrategy,2023.2.3,Win32,60.24096386,1,1,5,0.106770833,-0.01953125,1,0,0,1.0616,rock_grid_rect_2,3,10,-1,-1,1.062,0.16015625,-0.415364583,1,0,0,5.4832,Peridotite_rect,7,5.483,0,4,0,4,0,1,,,,,,,,,,,,,
662bf58363a3b81948a552b3,TCN,2024-06-26_13h37.23.016,LearnStrategy,2023.2.3,Win32,60.24096386,1,1,6,0.118489583,0.00390625,1,0,0,0.9073,rock_grid_rect_2,8,08,-1,-1,0.907,0.4453125,-0.251302083,1,0,0,5.2823,Gabbro_rect,4,5.282,0,5,0,5,0,1,,,,,,,,,,,,,
662bf58363a3b81948a552b3,TCN,2024-06-26_13h37.23.016,LearnStrategy,2023.2.3,Win32,60.24096386,1,1,7,0.05078125,0.0078125,1,0,0,1.3849,rock_grid_rect_2,1,16,-1,-1,1.385,-0.34765625,-0.25,1,0,0,11.0428,Andesite_rect,1,11.043,1,6,0,6,0,1,,,,,,,,,,,,,
662bf58363a3b81948a552b3,TCN,2024-06-26_13h37.23.016,LearnStrategy,2023.2.3,Win32,60.24096386,1,1,8,0.0234375,-0.013020833,1,0,0,3.0033,rock_grid_rect_2,8,09,-1,-1,3.003,-0.35546875,-0.38671875,1,0,0,1.6119,Obsidian_rect,5,1.612,0,7,0,7,0,1,,,,,,,,,,,,,
662bf58363a3b81948a552b3,TCN,2024-06-26_13h37.23.016,LearnStrategy,2023.2.3,Win32,60.24096386,1,1,9,0.0625,0,1,0,0,0.9789,rock_grid_rect_2,1,04,-1,-1,0.979,-0.10546875,-0.411458333,1,0,0,9.9553,Pegmatite_rect,6,9.955,0,8,0,8,0,1,,,,,,,,,,,,,
662bf58363a3b81948a552b3,TCN,2024-06-26_13h37.23.016,LearnStrategy,2023.2.3,Win32,60.24096386,1,1,10,0.065104167,-0.0234375,1,0,0,24.5869,rock_grid_rect_2,4,14,-1,-1,24.587,0.165364583,-0.3984375,1,0,0,6.1861,Peridotite_rect,7,6.186,0,9,0,9,0,1,,,,,,,,,,,,,
662bf58363a3b81948a552b3,TCN,2024-06-26_13h37.23.016,LearnStrategy,2023.2.3,Win32,60.24096386,1,1,11,0.055989583,-0.013020833,1,0,0,11.9749,rock_grid_rect_2,7,06,-1,-1,11.975,-0.334635417,-0.381510417,1,0,0,6.8282,Obsidian_rect,5,6.828,0,10,0,10,0,1,,,,,,,,,,,,,
662bf58363a3b81948a552b3,TCN,2024-06-26_13h37.23.016,LearnStrategy,2023.2.3,Win32,60.24096386,1,1,12,0.122395833,-0.013020833,1,0,0,1.6229,rock_grid_rect_2,5,10,-1,-1,1.623,-0.401041667,-0.24609375,1,0,0,7.0972,Andesite_rect,1,7.097,0,11,0,11,0,1,,,,,,,,,,,,,
662bf58363a3b81948a552b3,TCN,2024-06-26_13h37.23.016,LearnStrategy,2023.2.3,Win32,60.24096386,1,1,13,0.0234375,-0.001302083,1,0,0,2.5004,rock_grid_rect_2,6,06,-1,-1,2.5,-0.098958333,-0.259114583,1,0,0,8.2751,Basalt_rect,2,8.275,0,12,0,12,0,1,,,,,,,,,,,,,
662bf58363a3b81948a552b3,TCN,2024-06-26_13h37.23.016,LearnStrategy,2023.2.3,Win32,60.24096386,1,1,14,0.059895833,-0.005208333,1,0,0,4.8132,rock_grid_rect_2,3,08,-1,-1,4.813,-0.126302083,-0.395833333,1,0,0,27.3606,Pegmatite_rect,6,27.361,0,13,0,13,0,1,,,,,,,,,,,,,
662bf58363a3b81948a552b3,TCN,2024-06-26_13h37.23.016,LearnStrategy,2023.2.3,Win32,60.24096386,1,1,15,0.08984375,-0.005208333,1,0,0,1.1426,rock_grid_rect_2,5,04,-1,-1,1.143,-0.3828125,-0.40234375,1,0,0,10.7247,Obsidian_rect,5,10.725,1,14,0,14,0,1,,,,,,,,,,,,,
662bf58363a3b81948a552b3,TCN,2024-06-26_13h37.23.016,LearnStrategy,2023.2.3,Win32,60.24096386,1,1,16,0.084635417,-0.002604167,1,0,0,0.9458,rock_grid_rect_2,2,04,-1,-1,0.946,-0.09375,-0.26953125,1,0,0,1.7161,Basalt_rect,2,1.716,1,15,0,15,0,1,,,,,,,,,,,,,
662bf58363a3b81948a552b3,TCN,2024-06-26_13h37.23.016,LearnStrategy,2023.2.3,Win32,60.24096386,1,2,1,,,,,,,,2,14,,,,,,,,,,,7,50.166,0,,,,,,0.17578125,-0.389322917,1,0,0,50.1662,Peridotite_rect,0,0,0,0,1,
662bf58363a3b81948a552b3,TCN,2024-06-26_13h37.23.016,LearnStrategy,2023.2.3,Win32,60.24096386,1,2,2,,,,,,,,2,09,,,,,,,,,,,2,11.112,1,,,,,,-0.109375,-0.252604167,1,0,0,11.1124,Basalt_rect,1,0,1,0,1,
662bf58363a3b81948a552b3,TCN,2024-06-26_13h37.23.016,LearnStrategy,2023.2.3,Win32,60.24096386,1,2,3,,,,,,,,4,11,,,,,,,,,,,1,21.546,0,,,,,,-0.350260417,-0.236979167,1,0,0,21.5459,Andesite_rect,2,0,2,0,1,
662bf58363a3b81948a552b3,TCN,2024-06-26_13h37.23.016,LearnStrategy,2023.2.3,Win32,60.24096386,1,2,4,,,,,,,,4,15,,,,,,,,,,,3,10.532,0,,,,,,0.153645833,-0.2421875,1,0,0,10.5319,Diorite_rect,3,0,3,0,1,
662bf58363a3b81948a552b3,TCN,2024-06-26_13h37.23.016,LearnStrategy,2023.2.3,Win32,60.24096386,1,2,5,,,,,,,,3,02,,,,,,,,,,,3,17.817,1,,,,,,0.158854167,-0.259114583,1,0,0,17.8165,Diorite_rect,4,0,4,0,1,
662bf58363a3b81948a552b3,TCN,2024-06-26_13h37.23.016,LearnStrategy,2023.2.3,Win32,60.24096386,1,2,6,,,,,,,,1,05,,,,,,,,,,,3,21.076,0,,,,,,0.1796875,-0.2578125,1,0,0,21.0758,Diorite_rect,5,0,5,0,1,
662bf58363a3b81948a552b3,TCN,2024-06-26_13h37.23.016,LearnStrategy,2023.2.3,Win32,60.24096386,1,2,7,,,,,,,,7,02,,,,,,,,,,,7,22.059,1,,,,,,0.17578125,-0.4140625,1,0,0,22.0595,Peridotite_rect,6,0,6,0,1,
662bf58363a3b81948a552b3,TCN,2024-06-26_13h37.23.016,LearnStrategy,2023.2.3,Win32,60.24096386,1,2,8,,,,,,,,8,02,,,,,,,,,,,6,6.58,0,,,,,,-0.09765625,-0.3984375,1,0,0,6.5799,Pegmatite_rect,7,0,7,0,1,
662bf58363a3b81948a552b3,TCN,2024-06-26_13h37.23.016,LearnStrategy,2023.2.3,Win32,60.24096386,1,2,9,,,,,,,,1,02,,,,,,,,,,,1,16.183,1,,,,,,-0.330729167,-0.2421875,1,0,0,16.1835,Andesite_rect,8,0,8,0,1,
662bf58363a3b81948a552b3,TCN,2024-06-26_13h37.23.016,LearnStrategy,2023.2.3,Win32,60.24096386,1,2,10,,,,,,,,6,05,,,,,,,,,,,6,10.583,1,,,,,,-0.087239583,-0.397135417,1,0,0,10.5832,Pegmatite_rect,9,0,9,0,1,
662bf58363a3b81948a552b3,TCN,2024-06-26_13h37.23.016,LearnStrategy,2023.2.3,Win32,60.24096386,1,2,11,,,,,,,,6,16,,,,,,,,,,,6,11.779,1,,,,,,-0.08984375,-0.419270833,1,0,0,11.7794,Pegmatite_rect,10,0,10,0,1,
662bf58363a3b81948a552b3,TCN,2024-06-26_13h37.23.016,LearnStrategy,2023.2.3,Win32,60.24096386,1,2,12,,,,,,,,8,16,,,,,,,,,,,8,9.406,1,,,,,,0.39453125,-0.3984375,1,0,0,9.406,Pumice_rect,11,0,11,0,1,
662bf58363a3b81948a552b3,TCN,2024-06-26_13h37.23.016,LearnStrategy,2023.2.3,Win32,60.24096386,1,2,13,,,,,,,,5,11,,,,,,,,,,,5,6.68,1,,,,,,-0.346354167,-0.393229167,1,0,0,6.6801,Obsidian_rect,12,0,12,0,1,
662bf58363a3b81948a552b3,TCN,2024-06-26_13h37.23.016,LearnStrategy,2023.2.3,Win32,60.24096386,1,2,14,,,,,,,,5,09,,,,,,,,,,,5,1.476,1,,,,,,-0.37109375,-0.411458333,1,0,0,1.4761,Obsidian_rect,13,0,13,0,1,
662bf58363a3b81948a552b3,TCN,2024-06-26_13h37.23.016,LearnStrategy,2023.2.3,Win32,60.24096386,1,2,15,,,,,,,,7,10,,,,,,,,,,,4,15.285,0,,,,,,0.395833333,-0.255208333,1,0,0,15.2852,Gabbro_rect,14,0,14,0,1,
662bf58363a3b81948a552b3,TCN,2024-06-26_13h37.23.016,LearnStrategy,2023.2.3,Win32,60.24096386,1,2,16,,,,,,,,3,16,,,,,,,,,,,3,5.95,1,,,,,,0.182291667,-0.236979167,1,0,0,5.9499,Diorite_rect,15,0,15,0,1,
662bf58363a3b81948a552b3,TCN,2024-06-26_13h37.23.016,LearnStrategy,2023.2.3,Win32,60.24096386,2,1,1,-0.029947917,0.005208333,1,0,0,2.1887,rock_grid_rect_2,5,16,-1,-1,2.189,-0.139322917,-0.234375,1,0,0,4.3181,Basalt_rect,2,4.318,0,0,0,0,0,1,,,,,,,,,,,,,
662bf58363a3b81948a552b3,TCN,2024-06-26_13h37.23.016,LearnStrategy,2023.2.3,Win32,60.24096386,2,1,2,0.052083333,-0.013020833,1,0,0,2.1631,rock_grid_rect_2,8,05,-1,-1,2.163,0.393229167,-0.259114583,1,0,0,13.9088,Gabbro_rect,4,13.909,0,1,0,1,0,1,,,,,,,,,,,,,
662bf58363a3b81948a552b3,TCN,2024-06-26_13h37.23.016,LearnStrategy,2023.2.3,Win32,60.24096386,2,1,3,0.048177083,0.01953125,1,0,0,1.7361,rock_grid_rect_2,8,04,-1,-1,1.736,0.436197917,-0.412760417,1,0,0,24.2942,Pumice_rect,8,24.294,1,2,0,2,0,1,,,,,,,,,,,,,
662bf58363a3b81948a552b3,TCN,2024-06-26_13h37.23.016,LearnStrategy,2023.2.3,Win32,60.24096386,2,1,4,0.122395833,0.016927083,1,0,0,0.8986,rock_grid_rect_2,5,02,-1,-1,0.899,-0.365885417,-0.404947917,1,0,0,8.8522,Obsidian_rect,5,8.852,1,3,0,3,0,1,,,,,,,,,,,,,
662bf58363a3b81948a552b3,TCN,2024-06-26_13h37.23.016,LearnStrategy,2023.2.3,Win32,60.24096386,2,1,5,0.078125,-0.002604167,1,0,0,1.5808,rock_grid_rect_2,2,10,-1,-1,1.581,-0.125,-0.240885417,1,0,0,8.4198,Basalt_rect,2,8.42,1,4,0,4,0,1,,,,,,,,,,,,,
662bf58363a3b81948a552b3,TCN,2024-06-26_13h37.23.016,LearnStrategy,2023.2.3,Win32,60.24096386,2,1,6,0.08984375,0.009114583,1,0,0,0.8907,rock_grid_rect_2,7,07,-1,-1,0.891,0.12109375,-0.381510417,1,0,0,10.8983,Peridotite_rect,7,10.898,1,5,0,5,0,1,,,,,,,,,,,,,
662bf58363a3b81948a552b3,TCN,2024-06-26_13h37.23.016,LearnStrategy,2023.2.3,Win32,60.24096386,2,1,7,0.098958333,0.009114583,1,0,0,1.0191,rock_grid_rect_2,6,10,-1,-1,1.019,0.173177083,-0.23828125,1,0,0,11.2803,Diorite_rect,3,11.28,0,6,0,6,0,1,,,,,,,,,,,,,
662bf58363a3b81948a552b3,TCN,2024-06-26_13h37.23.016,LearnStrategy,2023.2.3,Win32,60.24096386,2,1,8,0.100260417,0.006510417,1,0,0,0.7075,rock_grid_rect_2,1,07,-1,-1,0.707,-0.358072917,-0.255208333,1,0,0,13.9924,Andesite_rect,1,13.992,1,7,0,7,0,1,,,,,,,,,,,,,
662bf58363a3b81948a552b3,TCN,2024-06-26_13h37.23.016,LearnStrategy,2023.2.3,Win32,60.24096386,2,1,9,0.0859375,-0.024739583,1,0,0,1.1814,rock_grid_rect_2,1,14,-1,-1,1.181,-0.354166667,-0.243489583,1,0,0,6.4568,Andesite_rect,1,6.457,1,8,0,8,0,1,,,,,,,,,,,,,
662bf58363a3b81948a552b3,TCN,2024-06-26_13h37.23.016,LearnStrategy,2023.2.3,Win32,60.24096386,2,1,10,0.072916667,0.001302083,1,0,0,1.0189,rock_grid_rect_2,3,11,-1,-1,1.019,0.200520833,-0.234375,1,0,0,6.3567,Diorite_rect,3,6.357,1,9,0,9,0,1,,,,,,,,,,,,,
662bf58363a3b81948a552b3,TCN,2024-06-26_13h37.23.016,LearnStrategy,2023.2.3,Win32,60.24096386,2,1,11,0.032552083,-0.020833333,1,0,0,0.8525,rock_grid_rect_2,2,02,-1,-1,0.852,0.4140625,-0.2421875,1,0,0,14.8081,Gabbro_rect,4,14.808,0,10,0,10,0,1,,,,,,,,,,,,,
662bf58363a3b81948a552b3,TCN,2024-06-26_13h37.23.016,LearnStrategy,2023.2.3,Win32,60.24096386,2,1,12,0.087239583,-0.009114583,1,0,0,0.8245,rock_grid_rect_2,3,12,-1,-1,0.824,0.141927083,-0.251302083,1,0,0,28.6466,Diorite_rect,3,28.647,1,11,0,11,0,1,,,,,,,,,,,,,
662bf58363a3b81948a552b3,TCN,2024-06-26_13h37.23.016,LearnStrategy,2023.2.3,Win32,60.24096386,2,1,13,0.01171875,0.016927083,1,0,0,1.2981,rock_grid_rect_2,4,03,-1,-1,1.298,0.157552083,-0.268229167,1,0,0,26.717,Diorite_rect,3,26.717,0,12,0,12,0,1,,,,,,,,,,,,,
662bf58363a3b81948a552b3,TCN,2024-06-26_13h37.23.016,LearnStrategy,2023.2.3,Win32,60.24096386,2,1,14,0.048177083,0.002604167,1,0,0,1.3775,rock_grid_rect_2,4,09,-1,-1,1.378,0.169270833,-0.268229167,1,0,0,7.8482,Diorite_rect,3,7.848,0,13,0,13,0,1,,,,,,,,,,,,,
662bf58363a3b81948a552b3,TCN,2024-06-26_13h37.23.016,LearnStrategy,2023.2.3,Win32,60.24096386,2,1,15,0.109375,0.014322917,1,0,0,3.2034,rock_grid_rect_2,7,12,-1,-1,3.203,0.127604167,-0.260416667,1,0,0,20.951,Diorite_rect,3,20.951,0,14,0,14,0,1,,,,,,,,,,,,,
662bf58363a3b81948a552b3,TCN,2024-06-26_13h37.23.016,LearnStrategy,2023.2.3,Win32,60.24096386,2,1,16,0.01171875,-0.0078125,1,0,0,1.5901,rock_grid_rect_2,6,07,-1,-1,1.59,-0.100260417,-0.40234375,1,0,0,14.8501,Pegmatite_rect,6,14.85,1,15,0,15,0,1,,,,,,,,,,,,,
662bf58363a3b81948a552b3,TCN,2024-06-26_13h37.23.016,LearnStrategy,2023.2.3,Win32,60.24096386,2,2,1,,,,,,,,3,13,,,,,,,,,,,3,21.396,1,,,,,,0.153645833,-0.247395833,1,0,0,21.396,Diorite_rect,0,0,0,0,1,
662bf58363a3b81948a552b3,TCN,2024-06-26_13h37.23.016,LearnStrategy,2023.2.3,Win32,60.24096386,2,2,2,,,,,,,,6,11,,,,,,,,,,,6,8.155,1,,,,,,-0.102864583,-0.397135417,1,0,0,8.1551,Pegmatite_rect,1,0,1,0,1,
662bf58363a3b81948a552b3,TCN,2024-06-26_13h37.23.016,LearnStrategy,2023.2.3,Win32,60.24096386,2,2,3,,,,,,,,4,12,,,,,,,,,,,4,5.263,1,,,,,,0.3984375,-0.236979167,1,0,0,5.263,Gabbro_rect,2,0,2,0,1,
662bf58363a3b81948a552b3,TCN,2024-06-26_13h37.23.016,LearnStrategy,2023.2.3,Win32,60.24096386,2,2,4,,,,,,,,6,08,,,,,,,,,,,6,8.553,1,,,,,,-0.109375,-0.390625,1,0,0,8.5528,Pegmatite_rect,3,0,3,0,1,
662bf58363a3b81948a552b3,TCN,2024-06-26_13h37.23.016,LearnStrategy,2023.2.3,Win32,60.24096386,2,2,5,,,,,,,,7,16,,,,,,,,,,,7,17.134,1,,,,,,0.145833333,-0.407552083,1,0,0,17.1341,Peridotite_rect,4,0,4,0,1,
662bf58363a3b81948a552b3,TCN,2024-06-26_13h37.23.016,LearnStrategy,2023.2.3,Win32,60.24096386,2,2,6,,,,,,,,5,08,,,,,,,,,,,5,3.753,1,,,,,,-0.342447917,-0.38671875,1,0,0,3.753,Obsidian_rect,5,0,5,0,1,
662bf58363a3b81948a552b3,TCN,2024-06-26_13h37.23.016,LearnStrategy,2023.2.3,Win32,60.24096386,2,2,7,,,,,,,,5,12,,,,,,,,,,,5,18.208,1,,,,,,-0.348958333,-0.3984375,1,0,0,18.2076,Obsidian_rect,6,0,6,0,1,
662bf58363a3b81948a552b3,TCN,2024-06-26_13h37.23.016,LearnStrategy,2023.2.3,Win32,60.24096386,2,2,8,,,,,,,,8,15,,,,,,,,,,,8,10.781,1,,,,,,0.411458333,-0.393229167,1,0,0,10.7814,Pumice_rect,7,0,7,0,1,
662bf58363a3b81948a552b3,TCN,2024-06-26_13h37.23.016,LearnStrategy,2023.2.3,Win32,60.24096386,2,2,9,,,,,,,,1,03,,,,,,,,,,,4,48.075,0,,,,,,0.454427083,-0.251302083,1,0,0,48.0753,Gabbro_rect,8,0,8,0,1,
662bf58363a3b81948a552b3,TCN,2024-06-26_13h37.23.016,LearnStrategy,2023.2.3,Win32,60.24096386,2,2,10,,,,,,,,8,03,,,,,,,,,,,8,5.09,1,,,,,,0.38671875,-0.407552083,1,0,0,5.09,Pumice_rect,9,0,9,0,1,
662bf58363a3b81948a552b3,TCN,2024-06-26_13h37.23.016,LearnStrategy,2023.2.3,Win32,60.24096386,2,2,11,,,,,,,,4,01,,,,,,,,,,,3,6.532,0,,,,,,0.184895833,-0.2421875,1,0,0,6.5315,Diorite_rect,10,0,10,0,1,
662bf58363a3b81948a552b3,TCN,2024-06-26_13h37.23.016,LearnStrategy,2023.2.3,Win32,60.24096386,2,2,12,,,,,,,,1,11,,,,,,,,,,,7,20.643,0,,,,,,0.151041667,-0.411458333,1,0,0,20.6431,Peridotite_rect,11,0,11,0,1,
662bf58363a3b81948a552b3,TCN,2024-06-26_13h37.23.016,LearnStrategy,2023.2.3,Win32,60.24096386,2,2,13,,,,,,,,3,06,,,,,,,,,,,3,18.017,1,,,,,,0.184895833,-0.247395833,1,0,0,18.0167,Diorite_rect,12,0,12,0,1,
662bf58363a3b81948a552b3,TCN,2024-06-26_13h37.23.016,LearnStrategy,2023.2.3,Win32,60.24096386,2,2,14,,,,,,,,7,04,,,,,,,,,,,6,10.503,0,,,,,,-0.080729167,-0.40625,1,0,0,10.5026,Pegmatite_rect,13,0,13,0,1,
662bf58363a3b81948a552b3,TCN,2024-06-26_13h37.23.016,LearnStrategy,2023.2.3,Win32,60.24096386,2,2,15,,,,,,,,2,12,,,,,,,,,,,1,11.465,0,,,,,,-0.334635417,-0.25,1,0,0,11.465,Andesite_rect,14,0,14,0,1,
662bf58363a3b81948a552b3,TCN,2024-06-26_13h37.23.016,LearnStrategy,2023.2.3,Win32,60.24096386,2,2,16,,,,,,,,2,06,,,,,,,,,,,2,13.173,1,,,,,,-0.071614583,-0.239583333,1,0,0,13.1725,Basalt_rect,15,0,15,0,1,
662bf58363a3b81948a552b3,TCN,2024-06-26_13h37.23.016,LearnStrategy,2023.2.3,Win32,60.24096386,3,1,1,0.104166667,-0.005208333,1,0,0,1.4261,rock_grid_rect_2,2,01,-1,-1,1.426,-0.083333333,-0.2421875,1,0,0,3.636,Basalt_rect,2,3.636,1,0,0,0,0,1,,,,,,,,,,,,,
662bf58363a3b81948a552b3,TCN,2024-06-26_13h37.23.016,LearnStrategy,2023.2.3,Win32,60.24096386,3,1,2,0.080729167,0.01171875,1,0,0,0.7515,rock_grid_rect_2,3,07,-1,-1,0.752,0.194010417,-0.2578125,1,0,0,17.7016,Diorite_rect,3,17.702,1,1,0,1,0,1,,,,,,,,,,,,,
662bf58363a3b81948a552b3,TCN,2024-06-26_13h37.23.016,LearnStrategy,2023.2.3,Win32,60.24096386,3,1,3,0.16796875,-0.018229167,1,0,0,1.0309,rock_grid_rect_2,2,11,-1,-1,1.031,0.458333333,-0.26171875,1,0,0,14.2425,Gabbro_rect,4,14.243,0,2,0,2,0,1,,,,,,,,,,,,,
662bf58363a3b81948a552b3,TCN,2024-06-26_13h37.23.016,LearnStrategy,2023.2.3,Win32,60.24096386,3,1,4,0.096354167,-0.001302083,1,0,0,0.8722,rock_grid_rect_2,4,13,-1,-1,0.872,0.13671875,-0.404947917,1,0,0,8.9518,Peridotite_rect,7,8.952,0,3,0,3,0,1,,,,,,,,,,,,,
662bf58363a3b81948a552b3,TCN,2024-06-26_13h37.23.016,LearnStrategy,2023.2.3,Win32,60.24096386,3,1,5,0.076822917,-0.024739583,1,0,0,0.8954,rock_grid_rect_2,3,15,-1,-1,0.895,0.19140625,-0.270833333,1,0,0,19.5692,Diorite_rect,3,19.569,1,4,0,4,0,1,,,,,,,,,,,,,
662bf58363a3b81948a552b3,TCN,2024-06-26_13h37.23.016,LearnStrategy,2023.2.3,Win32,60.24096386,3,1,6,0.149739583,-0.006510417,1,0,0,2.0266,rock_grid_rect_2,8,10,-1,-1,2.027,-0.087239583,-0.270833333,1,0,0,10.0341,Basalt_rect,2,10.034,0,5,0,5,0,1,,,,,,,,,,,,,
662bf58363a3b81948a552b3,TCN,2024-06-26_13h37.23.016,LearnStrategy,2023.2.3,Win32,60.24096386,3,1,7,0.078125,0.020833333,1,0,0,0.891,rock_grid_rect_2,1,10,-1,-1,0.891,-0.096354167,-0.25390625,1,0,0,10.0334,Basalt_rect,2,10.033,0,6,0,6,0,1,,,,,,,,,,,,,
662bf58363a3b81948a552b3,TCN,2024-06-26_13h37.23.016,LearnStrategy,2023.2.3,Win32,60.24096386,3,1,8,0.106770833,-0.013020833,1,0,0,0.9081,rock_grid_rect_2,4,16,-1,-1,0.908,-0.076822917,-0.256510417,1,0,0,2.6973,Basalt_rect,2,2.697,0,7,0,7,0,1,,,,,,,,,,,,,
662bf58363a3b81948a552b3,TCN,2024-06-26_13h37.23.016,LearnStrategy,2023.2.3,Win32,60.24096386,3,1,9,0.0859375,0.001302083,1,0,0,0.7287,rock_grid_rect_2,5,06,-1,-1,0.729,-0.084635417,-0.420572917,1,0,0,4.012,Pegmatite_rect,6,4.012,0,8,0,8,0,1,,,,,,,,,,,,,
662bf58363a3b81948a552b3,TCN,2024-06-26_13h37.23.016,LearnStrategy,2023.2.3,Win32,60.24096386,3,1,10,0.139322917,-0.022135417,1,0,0,0.9278,rock_grid_rect_2,6,15,-1,-1,0.928,-0.102864583,-0.395833333,1,0,0,2.0492,Pegmatite_rect,6,2.049,1,9,0,9,0,1,,,,,,,,,,,,,
662bf58363a3b81948a552b3,TCN,2024-06-26_13h37.23.016,LearnStrategy,2023.2.3,Win32,60.24096386,3,1,11,0.076822917,0.022135417,1,0,0,0.914,rock_grid_rect_2,7,15,-1,-1,0.914,0.166666667,-0.251302083,1,0,0,7.6055,Diorite_rect,3,7.606,0,10,0,10,0,1,,,,,,,,,,,,,
662bf58363a3b81948a552b3,TCN,2024-06-26_13h37.23.016,LearnStrategy,2023.2.3,Win32,60.24096386,3,1,12,0.084635417,0.013020833,1,0,0,0.6749,rock_grid_rect_2,6,13,-1,-1,0.675,-0.358072917,-0.252604167,1,0,0,6.3904,Andesite_rect,1,6.39,0,11,0,11,0,1,,,,,,,,,,,,,
662bf58363a3b81948a552b3,TCN,2024-06-26_13h37.23.016,LearnStrategy,2023.2.3,Win32,60.24096386,3,1,13,0.067708333,0.001302083,1,0,0,0.8449,rock_grid_rect_2,1,01,-1,-1,0.845,0.416666667,-0.25390625,1,0,0,15.0488,Gabbro_rect,4,15.049,0,12,0,12,0,1,,,,,,,,,,,,,
662bf58363a3b81948a552b3,TCN,2024-06-26_13h37.23.016,LearnStrategy,2023.2.3,Win32,60.24096386,3,1,14,0.076822917,0.010416667,1,0,0,0.6632,rock_grid_rect_2,8,14,-1,-1,0.663,0.395833333,-0.395833333,1,0,0,5.5591,Pumice_rect,8,5.559,1,13,0,13,0,1,,,,,,,,,,,,,
662bf58363a3b81948a552b3,TCN,2024-06-26_13h37.23.016,LearnStrategy,2023.2.3,Win32,60.24096386,3,1,15,0.091145833,0.001302083,1,0,0,0.6302,rock_grid_rect_2,5,05,-1,-1,0.63,-0.333333333,-0.40234375,1,0,0,3.4462,Obsidian_rect,5,3.446,1,14,0,14,0,1,,,,,,,,,,,,,
662bf58363a3b81948a552b3,TCN,2024-06-26_13h37.23.016,LearnStrategy,2023.2.3,Win32,60.24096386,3,1,16,0.08984375,0.010416667,1,0,0,0.8587,rock_grid_rect_2,7,05,-1,-1,0.859,-0.087239583,-0.41796875,1,0,0,7.5549,Pegmatite_rect,6,7.555,0,15,0,15,0,1,,,,,,,,,,,,,
662bf58363a3b81948a552b3,TCN,2024-06-26_13h37.23.016,LearnStrategy,2023.2.3,Win32,60.24096386,3,2,1,,,,,,,,4,10,,,,,,,,,,,1,15.076,0,,,,,,-0.494791667,-0.265625,1,0,0,15.0759,Andesite_rect,0,0,0,0,1,
662bf58363a3b81948a552b3,TCN,2024-06-26_13h37.23.016,LearnStrategy,2023.2.3,Win32,60.24096386,3,2,2,,,,,,,,3,09,,,,,,,,,,,6,4.681,0,,,,,,-0.118489583,-0.404947917,1,0,0,4.6808,Pegmatite_rect,1,0,1,0,1,
662bf58363a3b81948a552b3,TCN,2024-06-26_13h37.23.016,LearnStrategy,2023.2.3,Win32,60.24096386,3,2,3,,,,,,,,1,06,,,,,,,,,,,1,11.146,1,,,,,,-0.36328125,-0.256510417,1,0,0,11.1463,Andesite_rect,2,0,2,0,1,
662bf58363a3b81948a552b3,TCN,2024-06-26_13h37.23.016,LearnStrategy,2023.2.3,Win32,60.24096386,3,2,4,,,,,,,,7,13,,,,,,,,,,,7,10.13,1,,,,,,0.12890625,-0.3984375,1,0,0,10.1297,Peridotite_rect,3,0,3,0,1,
662bf58363a3b81948a552b3,TCN,2024-06-26_13h37.23.016,LearnStrategy,2023.2.3,Win32,60.24096386,3,2,5,,,,,,,,8,13,,,,,,,,,,,8,10.7,1,,,,,,0.381510417,-0.404947917,1,0,0,10.7001,Pumice_rect,4,0,4,0,1,
662bf58363a3b81948a552b3,TCN,2024-06-26_13h37.23.016,LearnStrategy,2023.2.3,Win32,60.24096386,3,2,6,,,,,,,,1,09,,,,,,,,,,,1,6.716,1,,,,,,-0.3359375,-0.240885417,1,0,0,6.7165,Andesite_rect,5,0,5,0,1,
662bf58363a3b81948a552b3,TCN,2024-06-26_13h37.23.016,LearnStrategy,2023.2.3,Win32,60.24096386,3,2,7,,,,,,,,4,05,,,,,,,,,,,6,8.45,0,,,,,,-0.098958333,-0.401041667,1,0,0,8.4505,Pegmatite_rect,6,0,6,0,1,
662bf58363a3b81948a552b3,TCN,2024-06-26_13h37.23.016,LearnStrategy,2023.2.3,Win32,60.24096386,3,2,8,,,,,,,,2,08,,,,,,,,,,,2,5.776,1,,,,,,-0.087239583,-0.243489583,1,0,0,5.7765,Basalt_rect,7,0,7,0,1,
662bf58363a3b81948a552b3,TCN,2024-06-26_13h37.23.016,LearnStrategy,2023.2.3,Win32,60.24096386,3,2,9,,,,,,,,3,14,,,,,,,,,,,3,8.261,1,,,,,,0.182291667,-0.25,1,0,0,8.2605,Diorite_rect,8,0,8,0,1,
662bf58363a3b81948a552b3,TCN,2024-06-26_13h37.23.016,LearnStrategy,2023.2.3,Win32,60.24096386,3,2,10,,,,,,,,6,09,,,,,,,,,,,6,4.563,1,,,,,,-0.115885417,-0.404947917,1,0,0,4.5629,Pegmatite_rect,9,0,9,0,1,
662bf58363a3b81948a552b3,TCN,2024-06-26_13h37.23.016,LearnStrategy,2023.2.3,Win32,60.24096386,3,2,11,,,,,,,,5,07,,,,,,,,,,,5,6.028,1,,,,,,-0.368489583,-0.408854167,1,0,0,6.0276,Obsidian_rect,10,0,10,0,1,
662bf58363a3b81948a552b3,TCN,2024-06-26_13h37.23.016,LearnStrategy,2023.2.3,Win32,60.24096386,3,2,12,,,,,,,,6,03,,,,,,,,,,,6,19.824,1,,,,,,-0.061197917,-0.403645833,1,0,0,19.8241,Pegmatite_rect,11,0,11,0,1,
662bf58363a3b81948a552b3,TCN,2024-06-26_13h37.23.016,LearnStrategy,2023.2.3,Win32,60.24096386,3,2,13,,,,,,,,5,14,,,,,,,,,,,5,21.976,1,,,,,,-0.350260417,-0.395833333,1,0,0,21.9762,Obsidian_rect,12,0,12,0,1,
662bf58363a3b81948a552b3,TCN,2024-06-26_13h37.23.016,LearnStrategy,2023.2.3,Win32,60.24096386,3,2,14,,,,,,,,8,06,,,,,,,,,,,8,7.332,1,,,,,,0.389322917,-0.404947917,1,0,0,7.3318,Pumice_rect,13,0,13,0,1,
662bf58363a3b81948a552b3,TCN,2024-06-26_13h37.23.016,LearnStrategy,2023.2.3,Win32,60.24096386,3,2,15,,,,,,,,2,05,,,,,,,,,,,2,1.864,1,,,,,,-0.0703125,-0.259114583,1,0,0,1.8639,Basalt_rect,14,0,14,0,1,
662bf58363a3b81948a552b3,TCN,2024-06-26_13h37.23.016,LearnStrategy,2023.2.3,Win32,60.24096386,3,2,16,,,,,,,,7,14,,,,,,,,,,,7,6.134,1,,,,,,0.165364583,-0.404947917,1,0,0,6.1339,Peridotite_rect,15,0,15,0,1,
662bf58363a3b81948a552b3,TCN,2024-06-26_13h37.23.016,LearnStrategy,2023.2.3,Win32,60.24096386,4,1,1,0.111979167,0.013020833,1,0,0,12.6208,rock_grid_rect_2,7,05,-1,-1,12.621,0.203125,-0.41015625,1,0,0,8.9083,Peridotite_rect,7,8.908,1,0,0,0,0,1,,,,,,,,,,,,,
662bf58363a3b81948a552b3,TCN,2024-06-26_13h37.23.016,LearnStrategy,2023.2.3,Win32,60.24096386,4,1,2,0.141927083,-0.00390625,1,0,0,1.0321,rock_grid_rect_2,2,10,-1,-1,1.032,-0.12109375,-0.248697917,1,0,0,1.2565,Basalt_rect,2,1.256,1,1,0,1,0,1,,,,,,,,,,,,,
662bf58363a3b81948a552b3,TCN,2024-06-26_13h37.23.016,LearnStrategy,2023.2.3,Win32,60.24096386,4,1,3,0.084635417,0.005208333,1,0,0,0.7208,rock_grid_rect_2,3,10,-1,-1,0.721,0.17578125,-0.247395833,1,0,0,8.6694,Diorite_rect,3,8.669,1,2,0,2,0,1,,,,,,,,,,,,,
662bf58363a3b81948a552b3,TCN,2024-06-26_13h37.23.016,LearnStrategy,2023.2.3,Win32,60.24096386,4,1,4,0.115885417,-0.002604167,1,0,0,0.9181,rock_grid_rect_2,8,05,-1,-1,0.918,0.4296875,-0.40234375,1,0,0,7.3554,Pumice_rect,8,7.355,1,3,0,3,0,1,,,,,,,,,,,,,
662bf58363a3b81948a552b3,TCN,2024-06-26_13h37.23.016,LearnStrategy,2023.2.3,Win32,60.24096386,4,1,5,0.130208333,0.01171875,1,0,0,0.8154,rock_grid_rect_2,1,16,-1,-1,0.815,-0.33984375,-0.25,1,0,0,10.0173,Andesite_rect,1,10.017,1,4,0,4,0,1,,,,,,,,,,,,,
662bf58363a3b81948a552b3,TCN,2024-06-26_13h37.23.016,LearnStrategy,2023.2.3,Win32,60.24096386,4,1,6,0.123697917,0,1,0,0,0.798,rock_grid_rect_2,6,12,-1,-1,0.798,0.166666667,-0.252604167,1,0,0,9.4571,Diorite_rect,3,9.457,0,5,0,5,0,1,,,,,,,,,,,,,
662bf58363a3b81948a552b3,TCN,2024-06-26_13h37.23.016,LearnStrategy,2023.2.3,Win32,60.24096386,4,1,7,0.108072917,0.024739583,1,0,0,0.8076,rock_grid_rect_2,2,11,-1,-1,0.808,-0.09375,-0.233072917,1,0,0,6.6732,Basalt_rect,2,6.673,1,6,0,6,0,1,,,,,,,,,,,,,
662bf58363a3b81948a552b3,TCN,2024-06-26_13h37.23.016,LearnStrategy,2023.2.3,Win32,60.24096386,4,1,8,0.1640625,0.013020833,1,0,0,0.8831,rock_grid_rect_2,4,16,-1,-1,0.883,0.42578125,-0.234375,1,0,0,6.3082,Gabbro_rect,4,6.308,1,7,0,7,0,1,,,,,,,,,,,,,
662bf58363a3b81948a552b3,TCN,2024-06-26_13h37.23.016,LearnStrategy,2023.2.3,Win32,60.24096386,4,1,9,0.126302083,0.0078125,1,0,0,0.8024,rock_grid_rect_2,5,05,-1,-1,0.802,-0.346354167,-0.395833333,1,0,0,2.2824,Obsidian_rect,5,2.282,1,8,0,8,0,1,,,,,,,,,,,,,
662bf58363a3b81948a552b3,TCN,2024-06-26_13h37.23.016,LearnStrategy,2023.2.3,Win32,60.24096386,4,1,10,0.100260417,0.013020833,1,0,0,0.8183,rock_grid_rect_2,6,10,-1,-1,0.818,-0.08984375,-0.399739583,1,0,0,7.0564,Pegmatite_rect,6,7.056,1,9,0,9,0,1,,,,,,,,,,,,,
662bf58363a3b81948a552b3,TCN,2024-06-26_13h37.23.016,LearnStrategy,2023.2.3,Win32,60.24096386,4,1,11,0.12109375,0.0078125,1,0,0,1.3472,rock_grid_rect_2,4,08,-1,-1,1.347,-0.352864583,-0.25,1,0,0,12.4672,Andesite_rect,1,12.467,0,10,0,10,0,1,,,,,,,,,,,,,
662bf58363a3b81948a552b3,TCN,2024-06-26_13h37.23.016,LearnStrategy,2023.2.3,Win32,60.24096386,4,1,12,0.087239583,-0.013020833,1,0,0,0.9917,rock_grid_rect_2,7,07,-1,-1,0.992,0.169270833,-0.40625,1,0,0,18.7492,Peridotite_rect,7,18.749,1,11,0,11,0,1,,,,,,,,,,,,,
662bf58363a3b81948a552b3,TCN,2024-06-26_13h37.23.016,LearnStrategy,2023.2.3,Win32,60.24096386,4,1,13,0.098958333,0.01953125,1,0,0,0.8125,rock_grid_rect_2,1,14,-1,-1,0.813,0.1796875,-0.403645833,1,0,0,18.4439,Peridotite_rect,7,18.444,0,12,0,12,0,1,,,,,,,,,,,,,
662bf58363a3b81948a552b3,TCN,2024-06-26_13h37.23.016,LearnStrategy,2023.2.3,Win32,60.24096386,4,1,14,0.127604167,-0.002604167,1,0,0,0.795,rock_grid_rect_2,5,04,-1,-1,0.795,-0.338541667,-0.40234375,1,0,0,2.0163,Obsidian_rect,5,2.016,1,13,0,13,0,1,,,,,,,,,,,,,
662bf58363a3b81948a552b3,TCN,2024-06-26_13h37.23.016,LearnStrategy,2023.2.3,Win32,60.24096386,4,1,15,0.076822917,-0.001302083,1,0,0,0.8174,rock_grid_rect_2,3,11,-1,-1,0.817,0.1640625,-0.244791667,1,0,0,28.7735,Diorite_rect,3,28.774,1,14,0,14,0,1,,,,,,,,,,,,,
662bf58363a3b81948a552b3,TCN,2024-06-26_13h37.23.016,LearnStrategy,2023.2.3,Win32,60.24096386,4,1,16,0.1015625,0.001302083,1,0,0,0.7945,rock_grid_rect_2,8,08,-1,-1,0.794,0.4375,-0.399739583,1,0,0,1.0943,Pumice_rect,8,1.094,1,15,0,15,0,1,,,,,,,,,,,,,
662bf58363a3b81948a552b3,TCN,2024-06-26_13h37.23.016,LearnStrategy,2023.2.3,Win32,60.24096386,4,2,1,,,,,,,,5,12,,,,,,,,,,,5,2.851,1,,,,,,-0.350260417,-0.388020833,1,0,0,2.8514,Obsidian_rect,0,0,0,0,1,
662bf58363a3b81948a552b3,TCN,2024-06-26_13h37.23.016,LearnStrategy,2023.2.3,Win32,60.24096386,4,2,2,,,,,,,,2,05,,,,,,,,,,,2,2.913,1,,,,,,-0.0859375,-0.256510417,1,0,0,2.9127,Basalt_rect,1,0,1,0,1,
662bf58363a3b81948a552b3,TCN,2024-06-26_13h37.23.016,LearnStrategy,2023.2.3,Win32,60.24096386,4,2,3,,,,,,,,8,02,,,,,,,,,,,8,6.476,1,,,,,,0.428385417,-0.3984375,1,0,0,6.4764,Pumice_rect,2,0,2,0,1,
662bf58363a3b81948a552b3,TCN,2024-06-26_13h37.23.016,LearnStrategy,2023.2.3,Win32,60.24096386,4,2,4,,,,,,,,1,05,,,,,,,,,,,1,13.112,1,,,,,,-0.361979167,-0.255208333,1,0,0,13.1122,Andesite_rect,3,0,3,0,1,
662bf58363a3b81948a552b3,TCN,2024-06-26_13h37.23.016,LearnStrategy,2023.2.3,Win32,60.24096386,4,2,5,,,,,,,,2,14,,,,,,,,,,,1,37.2,0,,,,,,-0.356770833,-0.25,1,0,0,37.2001,Andesite_rect,4,0,4,0,1,
662bf58363a3b81948a552b3,TCN,2024-06-26_13h37.23.016,LearnStrategy,2023.2.3,Win32,60.24096386,4,2,6,,,,,,,,3,13,,,,,,,,,,,3,4.51,1,,,,,,0.153645833,-0.247395833,1,0,0,4.5098,Diorite_rect,5,0,5,0,1,
662bf58363a3b81948a552b3,TCN,2024-06-26_13h37.23.016,LearnStrategy,2023.2.3,Win32,60.24096386,4,2,7,,,,,,,,4,15,,,,,,,,,,,3,2.845,0,,,,,,0.135416667,-0.23828125,1,0,0,2.8447,Diorite_rect,6,0,6,0,1,
662bf58363a3b81948a552b3,TCN,2024-06-26_13h37.23.016,LearnStrategy,2023.2.3,Win32,60.24096386,4,2,8,,,,,,,,1,06,,,,,,,,,,,1,6.785,1,,,,,,-0.334635417,-0.256510417,1,0,0,6.785,Andesite_rect,7,0,7,0,1,
662bf58363a3b81948a552b3,TCN,2024-06-26_13h37.23.016,LearnStrategy,2023.2.3,Win32,60.24096386,4,2,9,,,,,,,,5,09,,,,,,,,,,,5,1.475,1,,,,,,-0.372395833,-0.399739583,1,0,0,1.475,Obsidian_rect,8,0,8,0,1,
662bf58363a3b81948a552b3,TCN,2024-06-26_13h37.23.016,LearnStrategy,2023.2.3,Win32,60.24096386,4,2,10,,,,,,,,7,02,,,,,,,,,,,7,4.437,1,,,,,,0.122395833,-0.415364583,1,0,0,4.4371,Peridotite_rect,9,0,9,0,1,
662bf58363a3b81948a552b3,TCN,2024-06-26_13h37.23.016,LearnStrategy,2023.2.3,Win32,60.24096386,4,2,11,,,,,,,,6,09,,,,,,,,,,,6,8.256,1,,,,,,-0.100260417,-0.41796875,1,0,0,8.2565,Pegmatite_rect,10,0,10,0,1,
662bf58363a3b81948a552b3,TCN,2024-06-26_13h37.23.016,LearnStrategy,2023.2.3,Win32,60.24096386,4,2,12,,,,,,,,3,09,,,,,,,,,,,3,4.714,1,,,,,,0.149739583,-0.265625,1,0,0,4.7143,Diorite_rect,11,0,11,0,1,
662bf58363a3b81948a552b3,TCN,2024-06-26_13h37.23.016,LearnStrategy,2023.2.3,Win32,60.24096386,4,2,13,,,,,,,,7,13,,,,,,,,,,,7,8.581,1,,,,,,0.122395833,-0.411458333,1,0,0,8.5805,Peridotite_rect,12,0,12,0,1,
662bf58363a3b81948a552b3,TCN,2024-06-26_13h37.23.016,LearnStrategy,2023.2.3,Win32,60.24096386,4,2,14,,,,,,,,4,12,,,,,,,,,,,4,30.275,1,,,,,,0.411458333,-0.259114583,1,0,0,30.2746,Gabbro_rect,13,0,13,0,1,
662bf58363a3b81948a552b3,TCN,2024-06-26_13h37.23.016,LearnStrategy,2023.2.3,Win32,60.24096386,4,2,15,,,,,,,,6,11,,,,,,,,,,,6,10.59,1,,,,,,-0.087239583,-0.420572917,1,0,0,10.5903,Pegmatite_rect,14,0,14,0,1,
662bf58363a3b81948a552b3,TCN,2024-06-26_13h37.23.016,LearnStrategy,2023.2.3,Win32,60.24096386,4,2,16,,,,,,,,8,15,,,,,,,,,,,8,1.353,1,,,,,,0.420572917,-0.416666667,1,0,0,1.353,Pumice_rect,15,0,15,0,1,
662bf58363a3b81948a552b3,TCN,2024-06-26_13h37.23.016,LearnStrategy,2023.2.3,Win32,60.24096386,5,1,1,0.115885417,-0.016927083,1,0,0,1.4552,rock_grid_rect_2,4,13,-1,-1,1.455,0.44140625,-0.259114583,1,0,0,14.4503,Gabbro_rect,4,14.45,1,0,0,0,0,1,,,,,,,,,,,,,
662bf58363a3b81948a552b3,TCN,2024-06-26_13h37.23.016,LearnStrategy,2023.2.3,Win32,60.24096386,5,1,2,0.13671875,0.014322917,1,0,0,0.6867,rock_grid_rect_2,1,01,-1,-1,0.687,-0.359375,-0.2578125,1,0,0,3.9618,Andesite_rect,1,3.962,1,1,0,1,0,1,,,,,,,,,,,,,
662bf58363a3b81948a552b3,TCN,2024-06-26_13h37.23.016,LearnStrategy,2023.2.3,Win32,60.24096386,5,1,3,0.125,0.0078125,1,0,0,0.749,rock_grid_rect_2,3,08,-1,-1,0.749,0.169270833,-0.26171875,1,0,0,8.4368,Diorite_rect,3,8.437,1,2,0,2,0,1,,,,,,,,,,,,,
662bf58363a3b81948a552b3,TCN,2024-06-26_13h37.23.016,LearnStrategy,2023.2.3,Win32,60.24096386,5,1,4,0.08984375,0.00390625,1,0,0,0.8192,rock_grid_rect_2,8,09,-1,-1,0.819,0.434895833,-0.419270833,1,0,0,1.7667,Pumice_rect,8,1.767,1,3,0,3,0,1,,,,,,,,,,,,,
662bf58363a3b81948a552b3,TCN,2024-06-26_13h37.23.016,LearnStrategy,2023.2.3,Win32,60.24096386,5,1,5,0.110677083,-0.01171875,1,0,0,0.7492,rock_grid_rect_2,5,06,-1,-1,0.749,-0.178385417,-0.248697917,1,0,0,1.1842,Basalt_rect,2,1.184,0,4,0,4,0,1,,,,,,,,,,,,,
662bf58363a3b81948a552b3,TCN,2024-06-26_13h37.23.016,LearnStrategy,2023.2.3,Win32,60.24096386,5,1,6,0.1328125,0.013020833,1,0,0,0.8328,rock_grid_rect_2,7,12,-1,-1,0.833,0.151041667,-0.40234375,1,0,0,5.0537,Peridotite_rect,7,5.054,1,5,0,5,0,1,,,,,,,,,,,,,
662bf58363a3b81948a552b3,TCN,2024-06-26_13h37.23.016,LearnStrategy,2023.2.3,Win32,60.24096386,5,1,7,0.126302083,0.0078125,1,0,0,0.9003,rock_grid_rect_2,8,04,-1,-1,0.9,0.434895833,-0.407552083,1,0,0,1.0409,Pumice_rect,8,1.041,1,6,0,6,0,1,,,,,,,,,,,,,
662bf58363a3b81948a552b3,TCN,2024-06-26_13h37.23.016,LearnStrategy,2023.2.3,Win32,60.24096386,5,1,8,0.1484375,0.006510417,1,0,0,0.7328,rock_grid_rect_2,4,14,-1,-1,0.733,0.446614583,-0.268229167,1,0,0,7.0562,Gabbro_rect,4,7.056,1,7,0,7,0,1,,,,,,,,,,,,,
662bf58363a3b81948a552b3,TCN,2024-06-26_13h37.23.016,LearnStrategy,2023.2.3,Win32,60.24096386,5,1,9,0.131510417,0.01953125,1,0,0,0.8192,rock_grid_rect_2,6,13,-1,-1,0.819,-0.078125,-0.40625,1,0,0,9.019,Pegmatite_rect,6,9.019,1,8,0,8,0,1,,,,,,,,,,,,,
662bf58363a3b81948a552b3,TCN,2024-06-26_13h37.23.016,LearnStrategy,2023.2.3,Win32,60.24096386,5,1,10,0.126302083,-0.0078125,1,0,0,0.8484,rock_grid_rect_2,3,15,-1,-1,0.848,0.149739583,-0.263020833,1,0,0,3.2298,Diorite_rect,3,3.23,1,9,0,9,0,1,,,,,,,,,,,,,
662bf58363a3b81948a552b3,TCN,2024-06-26_13h37.23.016,LearnStrategy,2023.2.3,Win32,60.24096386,5,1,11,0.13671875,0.015625,1,0,0,0.6652,rock_grid_rect_2,2,02,-1,-1,0.665,-0.080729167,-0.2578125,1,0,0,1.9162,Basalt_rect,2,1.916,1,10,0,10,0,1,,,,,,,,,,,,,
662bf58363a3b81948a552b3,TCN,2024-06-26_13h37.23.016,LearnStrategy,2023.2.3,Win32,60.24096386,5,1,12,0.065104167,0.01953125,1,0,0,0.7,rock_grid_rect_2,1,04,-1,-1,0.7,-0.345052083,-0.259114583,1,0,0,11.7688,Andesite_rect,1,11.769,1,11,0,11,0,1,,,,,,,,,,,,,
662bf58363a3b81948a552b3,TCN,2024-06-26_13h37.23.016,LearnStrategy,2023.2.3,Win32,60.24096386,5,1,13,0.078125,0,1,0,0,0.9018,rock_grid_rect_2,2,16,-1,-1,0.902,-0.09375,-0.2578125,1,0,0,3.4477,Basalt_rect,2,3.448,1,12,0,12,0,1,,,,,,,,,,,,,
662bf58363a3b81948a552b3,TCN,2024-06-26_13h37.23.016,LearnStrategy,2023.2.3,Win32,60.24096386,5,1,14,0.055989583,0.009114583,1,0,0,0.7325,rock_grid_rect_2,6,15,-1,-1,0.733,-0.0859375,-0.3984375,1,0,0,4.5274,Pegmatite_rect,6,4.527,1,13,0,13,0,1,,,,,,,,,,,,,
662bf58363a3b81948a552b3,TCN,2024-06-26_13h37.23.016,LearnStrategy,2023.2.3,Win32,60.24096386,5,1,15,0.111979167,-0.00390625,1,0,0,0.6854,rock_grid_rect_2,5,10,-1,-1,0.685,-0.3359375,-0.380208333,1,0,0,2.2657,Obsidian_rect,5,2.266,1,14,0,14,0,1,,,,,,,,,,,,,
662bf58363a3b81948a552b3,TCN,2024-06-26_13h37.23.016,LearnStrategy,2023.2.3,Win32,60.24096386,5,1,16,0.138020833,0.013020833,1,0,0,0.7703,rock_grid_rect_2,7,06,-1,-1,0.77,0.135416667,-0.39453125,1,0,0,15.323,Peridotite_rect,7,15.323,1,15,0,15,0,1,,,,,,,,,,,,,
662bf58363a3b81948a552b3,TCN,2024-06-26_13h37.23.016,LearnStrategy,2023.2.3,Win32,60.24096386,5,2,1,,,,,,,,8,06,,,,,,,,,,,8,6.937,1,,,,,,0.391927083,-0.393229167,1,0,0,6.9373,Pumice_rect,0,0,0,0,1,
662bf58363a3b81948a552b3,TCN,2024-06-26_13h37.23.016,LearnStrategy,2023.2.3,Win32,60.24096386,5,2,2,,,,,,,,7,10,,,,,,,,,,,7,7.649,1,,,,,,0.126302083,-0.381510417,1,0,0,7.6493,Peridotite_rect,1,0,1,0,1,
662bf58363a3b81948a552b3,TCN,2024-06-26_13h37.23.016,LearnStrategy,2023.2.3,Win32,60.24096386,5,2,3,,,,,,,,5,11,,,,,,,,,,,5,1.506,1,,,,,,-0.354166667,-0.3984375,1,0,0,1.506,Obsidian_rect,2,0,2,0,1,
662bf58363a3b81948a552b3,TCN,2024-06-26_13h37.23.016,LearnStrategy,2023.2.3,Win32,60.24096386,5,2,4,,,,,,,,6,08,,,,,,,,,,,6,7.754,1,,,,,,-0.115885417,-0.399739583,1,0,0,7.7537,Pegmatite_rect,3,0,3,0,1,
662bf58363a3b81948a552b3,TCN,2024-06-26_13h37.23.016,LearnStrategy,2023.2.3,Win32,60.24096386,5,2,5,,,,,,,,5,14,,,,,,,,,,,5,1.281,1,,,,,,-0.352864583,-0.391927083,1,0,0,1.2811,Obsidian_rect,4,0,4,0,1,
662bf58363a3b81948a552b3,TCN,2024-06-26_13h37.23.016,LearnStrategy,2023.2.3,Win32,60.24096386,5,2,6,,,,,,,,3,16,,,,,,,,,,,3,5.448,1,,,,,,0.153645833,-0.260416667,1,0,0,5.4478,Diorite_rect,5,0,5,0,1,
662bf58363a3b81948a552b3,TCN,2024-06-26_13h37.23.016,LearnStrategy,2023.2.3,Win32,60.24096386,5,2,7,,,,,,,,1,02,,,,,,,,,,,1,10.875,1,,,,,,-0.369791667,-0.265625,1,0,0,10.8748,Andesite_rect,6,0,6,0,1,
662bf58363a3b81948a552b3,TCN,2024-06-26_13h37.23.016,LearnStrategy,2023.2.3,Win32,60.24096386,5,2,8,,,,,,,,2,12,,,,,,,,,,,8,19.51,0,,,,,,0.411458333,-0.3984375,1,0,0,19.51,Pumice_rect,7,0,7,0,1,
662bf58363a3b81948a552b3,TCN,2024-06-26_13h37.23.016,LearnStrategy,2023.2.3,Win32,60.24096386,5,2,9,,,,,,,,8,16,,,,,,,,,,,8,2.614,1,,,,,,0.388020833,-0.403645833,1,0,0,2.6136,Pumice_rect,8,0,8,0,1,
662bf58363a3b81948a552b3,TCN,2024-06-26_13h37.23.016,LearnStrategy,2023.2.3,Win32,60.24096386,5,2,10,,,,,,,,4,11,,,,,,,,,,,4,21.032,1,,,,,,0.399739583,-0.248697917,1,0,0,21.0324,Gabbro_rect,9,0,9,0,1,
662bf58363a3b81948a552b3,TCN,2024-06-26_13h37.23.016,LearnStrategy,2023.2.3,Win32,60.24096386,5,2,11,,,,,,,,1,09,,,,,,,,,,,7,18.405,0,,,,,,0.1328125,-0.3984375,1,0,0,18.4053,Peridotite_rect,10,0,10,0,1,
662bf58363a3b81948a552b3,TCN,2024-06-26_13h37.23.016,LearnStrategy,2023.2.3,Win32,60.24096386,5,2,12,,,,,,,,3,06,,,,,,,,,,,3,11.629,1,,,,,,0.157552083,-0.264322917,1,0,0,11.6293,Diorite_rect,11,0,11,0,1,
662bf58363a3b81948a552b3,TCN,2024-06-26_13h37.23.016,LearnStrategy,2023.2.3,Win32,60.24096386,5,2,13,,,,,,,,4,10,,,,,,,,,,,1,8.787,0,,,,,,-0.397135417,-0.252604167,1,0,0,8.7871,Andesite_rect,12,0,12,0,1,
662bf58363a3b81948a552b3,TCN,2024-06-26_13h37.23.016,LearnStrategy,2023.2.3,Win32,60.24096386,5,2,14,,,,,,,,7,16,,,,,,,,,,,7,4.817,1,,,,,,0.092447917,-0.412760417,1,0,0,4.8172,Peridotite_rect,13,0,13,0,1,
662bf58363a3b81948a552b3,TCN,2024-06-26_13h37.23.016,LearnStrategy,2023.2.3,Win32,60.24096386,5,2,15,,,,,,,,6,03,,,,,,,,,,,6,2.646,1,,,,,,-0.098958333,-0.393229167,1,0,0,2.6464,Pegmatite_rect,14,0,14,0,1,
662bf58363a3b81948a552b3,TCN,2024-06-26_13h37.23.016,LearnStrategy,2023.2.3,Win32,60.24096386,5,2,16,,,,,,,,2,06,,,,,,,,,,,2,2.275,1,,,,,,-0.095052083,-0.247395833,1,0,0,2.2753,Basalt_rect,15,0,15,0,1,
662bf58363a3b81948a552b3,TCN,2024-06-26_13h37.23.016,LearnStrategy,2023.2.3,Win32,60.24096386,6,1,1,0.119791667,0.015625,1,0,0,1.2408,rock_grid_rect_2,2,04,-1,-1,1.241,-0.100260417,-0.244791667,1,0,0,1.2842,Basalt_rect,2,1.284,1,0,0,0,0,1,,,,,,,,,,,,,
662bf58363a3b81948a552b3,TCN,2024-06-26_13h37.23.016,LearnStrategy,2023.2.3,Win32,60.24096386,6,1,2,0.109375,0.002604167,1,0,0,0.7492,rock_grid_rect_2,4,09,-1,-1,0.749,0.372395833,-0.233072917,1,0,0,2.7309,Gabbro_rect,4,2.731,1,1,0,1,0,1,,,,,,,,,,,,,
662bf58363a3b81948a552b3,TCN,2024-06-26_13h37.23.016,LearnStrategy,2023.2.3,Win32,60.24096386,6,1,3,0.130208333,-0.001302083,1,0,0,0.8159,rock_grid_rect_2,2,01,-1,-1,0.816,-0.096354167,-0.2578125,1,0,0,1.1175,Basalt_rect,2,1.117,1,2,0,2,0,1,,,,,,,,,,,,,
662bf58363a3b81948a552b3,TCN,2024-06-26_13h37.23.016,LearnStrategy,2023.2.3,Win32,60.24096386,6,1,4,0.125,-0.020833333,1,0,0,0.7497,rock_grid_rect_2,3,12,-1,-1,0.75,-0.348958333,-0.243489583,1,0,0,4.0332,Andesite_rect,1,4.033,0,3,0,3,0,1,,,,,,,,,,,,,
662bf58363a3b81948a552b3,TCN,2024-06-26_13h37.23.016,LearnStrategy,2023.2.3,Win32,60.24096386,6,1,5,0.076822917,-0.014322917,1,0,0,0.769,rock_grid_rect_2,1,07,-1,-1,0.769,0.158854167,-0.256510417,1,0,0,12.1637,Diorite_rect,3,12.164,0,4,0,4,0,1,,,,,,,,,,,,,
662bf58363a3b81948a552b3,TCN,2024-06-26_13h37.23.016,LearnStrategy,2023.2.3,Win32,60.24096386,6,1,6,0.125,-0.001302083,1,0,0,1.4633,rock_grid_rect_2,1,10,-1,-1,1.463,-0.36328125,-0.251302083,1,0,0,5.3942,Andesite_rect,1,5.394,1,5,0,5,0,1,,,,,,,,,,,,,
662bf58363a3b81948a552b3,TCN,2024-06-26_13h37.23.016,LearnStrategy,2023.2.3,Win32,60.24096386,6,1,7,0.1171875,0.010416667,1,0,0,0.8194,rock_grid_rect_2,7,08,-1,-1,0.819,0.1796875,-0.416666667,1,0,0,18.2107,Peridotite_rect,7,18.211,1,6,0,6,0,1,,,,,,,,,,,,,
662bf58363a3b81948a552b3,TCN,2024-06-26_13h37.23.016,LearnStrategy,2023.2.3,Win32,60.24096386,6,1,8,0.126302083,0.002604167,1,0,0,1.3005,rock_grid_rect_2,4,03,-1,-1,1.301,0.432291667,-0.25390625,1,0,0,21.8266,Gabbro_rect,4,21.827,1,7,0,7,0,1,,,,,,,,,,,,,
662bf58363a3b81948a552b3,TCN,2024-06-26_13h37.23.016,LearnStrategy,2023.2.3,Win32,60.24096386,6,1,9,0.130208333,-0.002604167,1,0,0,0.7649,rock_grid_rect_2,6,06,-1,-1,0.765,-0.075520833,-0.411458333,1,0,0,6.4391,Pegmatite_rect,6,6.439,1,8,0,8,0,1,,,,,,,,,,,,,
662bf58363a3b81948a552b3,TCN,2024-06-26_13h37.23.016,LearnStrategy,2023.2.3,Win32,60.24096386,6,1,10,0.138020833,0.0234375,1,0,0,0.8853,rock_grid_rect_2,7,15,-1,-1,0.885,0.08984375,-0.40625,1,0,0,4.6641,Peridotite_rect,7,4.664,1,9,0,9,0,1,,,,,,,,,,,,,
662bf58363a3b81948a552b3,TCN,2024-06-26_13h37.23.016,LearnStrategy,2023.2.3,Win32,60.24096386,6,1,11,0.096354167,0.002604167,1,0,0,0.7323,rock_grid_rect_2,3,07,-1,-1,0.732,0.19140625,-0.264322917,1,0,0,5.4598,Diorite_rect,3,5.46,1,10,0,10,0,1,,,,,,,,,,,,,
662bf58363a3b81948a552b3,TCN,2024-06-26_13h37.23.016,LearnStrategy,2023.2.3,Win32,60.24096386,6,1,12,0.1171875,0.002604167,1,0,0,0.7146,rock_grid_rect_2,5,02,-1,-1,0.715,-0.341145833,-0.397135417,1,0,0,1.3844,Obsidian_rect,5,1.384,1,11,0,11,0,1,,,,,,,,,,,,,
662bf58363a3b81948a552b3,TCN,2024-06-26_13h37.23.016,LearnStrategy,2023.2.3,Win32,60.24096386,6,1,13,0.080729167,-0.00390625,1,0,0,0.7327,rock_grid_rect_2,6,07,-1,-1,0.733,-0.123697917,-0.41015625,1,0,0,4.3285,Pegmatite_rect,6,4.328,1,12,0,12,0,1,,,,,,,,,,,,,
662bf58363a3b81948a552b3,TCN,2024-06-26_13h37.23.016,LearnStrategy,2023.2.3,Win32,60.24096386,6,1,14,0.114583333,-0.010416667,1,0,0,0.7479,rock_grid_rect_2,8,14,-1,-1,0.748,0.365885417,-0.40625,1,0,0,2.388,Pumice_rect,8,2.388,1,13,0,13,0,1,,,,,,,,,,,,,
662bf58363a3b81948a552b3,TCN,2024-06-26_13h37.23.016,LearnStrategy,2023.2.3,Win32,60.24096386,6,1,15,0.0859375,0.005208333,1,0,0,0.8317,rock_grid_rect_2,5,16,-1,-1,0.832,-0.352864583,-0.384114583,1,0,0,1.1034,Obsidian_rect,5,1.103,1,14,0,14,0,1,,,,,,,,,,,,,
662bf58363a3b81948a552b3,TCN,2024-06-26_13h37.23.016,LearnStrategy,2023.2.3,Win32,60.24096386,6,1,16,0.12890625,0.014322917,1,0,0,0.7326,rock_grid_rect_2,8,10,-1,-1,0.733,0.364583333,-0.40234375,1,0,0,1.1511,Pumice_rect,8,1.151,1,15,0,15,0,1,,,,,,,,,,,,,
662bf58363a3b81948a552b3,TCN,2024-06-26_13h37.23.016,LearnStrategy,2023.2.3,Win32,60.24096386,6,2,1,,,,,,,,3,14,,,,,,,,,,,3,8.154,1,,,,,,0.180989583,-0.264322917,1,0,0,8.1537,Diorite_rect,0,0,0,0,1,
662bf58363a3b81948a552b3,TCN,2024-06-26_13h37.23.016,LearnStrategy,2023.2.3,Win32,60.24096386,6,2,2,,,,,,,,6,05,,,,,,,,,,,7,4.212,0,,,,,,0.161458333,-0.4140625,1,0,0,4.2122,Peridotite_rect,1,0,1,0,1,
662bf58363a3b81948a552b3,TCN,2024-06-26_13h37.23.016,LearnStrategy,2023.2.3,Win32,60.24096386,6,2,3,,,,,,,,1,03,,,,,,,,,,,4,9.181,0,,,,,,0.404947917,-0.260416667,1,0,0,9.181,Gabbro_rect,2,0,2,0,1,
662bf58363a3b81948a552b3,TCN,2024-06-26_13h37.23.016,LearnStrategy,2023.2.3,Win32,60.24096386,6,2,4,,,,,,,,2,08,,,,,,,,,,,2,3.124,1,,,,,,-0.140625,-0.252604167,1,0,0,3.1242,Basalt_rect,3,0,3,0,1,
662bf58363a3b81948a552b3,TCN,2024-06-26_13h37.23.016,LearnStrategy,2023.2.3,Win32,60.24096386,6,2,5,,,,,,,,1,11,,,,,,,,,,,1,3.654,1,,,,,,-0.356770833,-0.268229167,1,0,0,3.6543,Andesite_rect,4,0,4,0,1,
662bf58363a3b81948a552b3,TCN,2024-06-26_13h37.23.016,LearnStrategy,2023.2.3,Win32,60.24096386,6,2,6,,,,,,,,4,01,,,,,,,,,,,1,1.666,0,,,,,,-0.381510417,-0.236979167,1,0,0,1.6662,Andesite_rect,5,0,5,0,1,
662bf58363a3b81948a552b3,TCN,2024-06-26_13h37.23.016,LearnStrategy,2023.2.3,Win32,60.24096386,6,2,7,,,,,,,,5,07,,,,,,,,,,,5,1.138,1,,,,,,-0.3671875,-0.395833333,1,0,0,1.1377,Obsidian_rect,6,0,6,0,1,
662bf58363a3b81948a552b3,TCN,2024-06-26_13h37.23.016,LearnStrategy,2023.2.3,Win32,60.24096386,6,2,8,,,,,,,,3,02,,,,,,,,,,,3,3.896,1,,,,,,0.111979167,-0.25390625,1,0,0,3.8962,Diorite_rect,7,0,7,0,1,
662bf58363a3b81948a552b3,TCN,2024-06-26_13h37.23.016,LearnStrategy,2023.2.3,Win32,60.24096386,6,2,9,,,,,,,,4,05,,,,,,,,,,,6,1.27,0,,,,,,-0.12109375,-0.399739583,1,0,0,1.2696,Pegmatite_rect,8,0,8,0,1,
662bf58363a3b81948a552b3,TCN,2024-06-26_13h37.23.016,LearnStrategy,2023.2.3,Win32,60.24096386,6,2,10,,,,,,,,8,03,,,,,,,,,,,8,0.97,1,,,,,,0.397135417,-0.41015625,1,0,0,0.9703,Pumice_rect,9,0,9,0,1,
662bf58363a3b81948a552b3,TCN,2024-06-26_13h37.23.016,LearnStrategy,2023.2.3,Win32,60.24096386,6,2,11,,,,,,,,7,04,,,,,,,,,,,6,1.193,0,,,,,,-0.127604167,-0.399739583,1,0,0,1.1926,Pegmatite_rect,10,0,10,0,1,
662bf58363a3b81948a552b3,TCN,2024-06-26_13h37.23.016,LearnStrategy,2023.2.3,Win32,60.24096386,6,2,12,,,,,,,,7,14,,,,,,,,,,,7,1.607,1,,,,,,0.139322917,-0.41015625,1,0,0,1.607,Peridotite_rect,11,0,11,0,1,
662bf58363a3b81948a552b3,TCN,2024-06-26_13h37.23.016,LearnStrategy,2023.2.3,Win32,60.24096386,6,2,13,,,,,,,,2,09,,,,,,,,,,,4,2.148,0,,,,,,0.391927083,-0.239583333,1,0,0,2.1482,Gabbro_rect,12,0,12,0,1,
662bf58363a3b81948a552b3,TCN,2024-06-26_13h37.23.016,LearnStrategy,2023.2.3,Win32,60.24096386,6,2,14,,,,,,,,8,13,,,,,,,,,,,8,0.943,1,,,,,,0.391927083,-0.404947917,1,0,0,0.9433,Pumice_rect,13,0,13,0,1,
662bf58363a3b81948a552b3,TCN,2024-06-26_13h37.23.016,LearnStrategy,2023.2.3,Win32,60.24096386,6,2,15,,,,,,,,6,16,,,,,,,,,,,6,1.922,1,,,,,,-0.10546875,-0.41015625,1,0,0,1.9216,Pegmatite_rect,14,0,14,0,1,
662bf58363a3b81948a552b3,TCN,2024-06-26_13h37.23.016,LearnStrategy,2023.2.3,Win32,60.24096386,6,2,16,,,,,,,,5,08,,,,,,,,,,,5,1.076,1,,,,,,-0.361979167,-0.403645833,1,0,0,1.0763,Obsidian_rect,15,0,15,0,1,
662bf58363a3b81948a552b3,TCN,2024-06-26_13h37.23.016,LearnStrategy,2023.2.3,Win32,60.24096386,7,1,1,0.162760417,0.00390625,1,0,0,1.6974,rock_grid_rect_2,6,13,-1,-1,1.697,-0.09375,-0.40625,1,0,0,1.6169,Pegmatite_rect,6,1.617,1,0,0,0,0,1,,,,,,,,,,,,,
662bf58363a3b81948a552b3,TCN,2024-06-26_13h37.23.016,LearnStrategy,2023.2.3,Win32,60.24096386,7,1,2,0.0859375,0.002604167,1,0,0,0.8197,rock_grid_rect_2,1,16,-1,-1,0.82,0.130208333,-0.391927083,1,0,0,1.0793,Peridotite_rect,7,1.079,0,1,0,1,0,1,,,,,,,,,,,,,
662bf58363a3b81948a552b3,TCN,2024-06-26_13h37.23.016,LearnStrategy,2023.2.3,Win32,60.24096386,7,1,3,0.079427083,0.020833333,1,0,0,0.6497,rock_grid_rect_2,1,10,-1,-1,0.65,-0.377604167,-0.252604167,1,0,0,3.1471,Andesite_rect,1,3.147,1,2,0,2,0,1,,,,,,,,,,,,,
662bf58363a3b81948a552b3,TCN,2024-06-26_13h37.23.016,LearnStrategy,2023.2.3,Win32,60.24096386,7,1,4,0.09375,0.01171875,1,0,0,0.6654,rock_grid_rect_2,7,12,-1,-1,0.665,-0.087239583,-0.3984375,1,0,0,1.966,Pegmatite_rect,6,1.966,0,3,0,3,0,1,,,,,,,,,,,,,
662bf58363a3b81948a552b3,TCN,2024-06-26_13h37.23.016,LearnStrategy,2023.2.3,Win32,60.24096386,7,1,5,0.080729167,0.005208333,1,0,0,0.7178,rock_grid_rect_2,5,02,-1,-1,0.718,-0.338541667,-0.397135417,1,0,0,1.6335,Obsidian_rect,5,1.633,1,4,0,4,0,1,,,,,,,,,,,,,
662bf58363a3b81948a552b3,TCN,2024-06-26_13h37.23.016,LearnStrategy,2023.2.3,Win32,60.24096386,7,1,6,0.0625,-0.01171875,1,0,0,0.9657,rock_grid_rect_2,5,10,-1,-1,0.966,-0.356770833,-0.416666667,1,0,0,1.001,Obsidian_rect,5,1.001,1,5,0,5,0,1,,,,,,,,,,,,,
662bf58363a3b81948a552b3,TCN,2024-06-26_13h37.23.016,LearnStrategy,2023.2.3,Win32,60.24096386,7,1,7,0.118489583,0.010416667,1,0,0,0.7662,rock_grid_rect_2,2,01,-1,-1,0.766,-0.111979167,-0.24609375,1,0,0,1.1114,Basalt_rect,2,1.111,1,6,0,6,0,1,,,,,,,,,,,,,
662bf58363a3b81948a552b3,TCN,2024-06-26_13h37.23.016,LearnStrategy,2023.2.3,Win32,60.24096386,7,1,8,0.016927083,0.0078125,1,0,0,0.7823,rock_grid_rect_2,8,04,-1,-1,0.782,0.377604167,-0.380208333,1,0,0,1.6171,Pumice_rect,8,1.617,1,7,0,7,0,1,,,,,,,,,,,,,
662bf58363a3b81948a552b3,TCN,2024-06-26_13h37.23.016,LearnStrategy,2023.2.3,Win32,60.24096386,7,1,9,0.0859375,0.00390625,1,0,0,0.7165,rock_grid_rect_2,3,11,-1,-1,0.716,0.157552083,-0.263020833,1,0,0,1.251,Diorite_rect,3,1.251,1,8,0,8,0,1,,,,,,,,,,,,,
662bf58363a3b81948a552b3,TCN,2024-06-26_13h37.23.016,LearnStrategy,2023.2.3,Win32,60.24096386,7,1,10,0.102864583,-0.005208333,1,0,0,0.8319,rock_grid_rect_2,4,03,-1,-1,0.832,0.134114583,-0.2421875,1,0,0,0.869,Diorite_rect,3,0.869,0,9,0,9,0,1,,,,,,,,,,,,,
662bf58363a3b81948a552b3,TCN,2024-06-26_13h37.23.016,LearnStrategy,2023.2.3,Win32,60.24096386,7,1,11,0.095052083,-0.013020833,1,0,0,0.9009,rock_grid_rect_2,6,10,-1,-1,0.901,-0.0859375,-0.3984375,1,0,0,1.3938,Pegmatite_rect,6,1.394,1,10,0,10,0,1,,,,,,,,,,,,,
662bf58363a3b81948a552b3,TCN,2024-06-26_13h37.23.016,LearnStrategy,2023.2.3,Win32,60.24096386,7,1,12,0.106770833,-0.001302083,1,0,0,0.8155,rock_grid_rect_2,8,05,-1,-1,0.816,0.3984375,-0.401041667,1,0,0,0.879,Pumice_rect,8,0.879,1,11,0,11,0,1,,,,,,,,,,,,,
662bf58363a3b81948a552b3,TCN,2024-06-26_13h37.23.016,LearnStrategy,2023.2.3,Win32,60.24096386,7,1,13,0.102864583,-0.005208333,1,0,0,0.7165,rock_grid_rect_2,7,07,-1,-1,0.716,0.1328125,-0.243489583,1,0,0,1.4504,Diorite_rect,3,1.45,0,12,0,12,0,1,,,,,,,,,,,,,
662bf58363a3b81948a552b3,TCN,2024-06-26_13h37.23.016,LearnStrategy,2023.2.3,Win32,60.24096386,7,1,14,0.078125,-0.005208333,1,0,0,1.8301,rock_grid_rect_2,2,02,-1,-1,1.83,0.369791667,-0.248697917,1,0,0,1.8168,Gabbro_rect,4,1.817,0,13,0,13,0,1,,,,,,,,,,,,,
662bf58363a3b81948a552b3,TCN,2024-06-26_13h37.23.016,LearnStrategy,2023.2.3,Win32,60.24096386,7,1,15,0.096354167,-0.002604167,1,0,0,1.2033,rock_grid_rect_2,3,07,-1,-1,1.203,0.1484375,-0.236979167,1,0,0,1.1876,Diorite_rect,3,1.188,1,14,0,14,0,1,,,,,,,,,,,,,
662bf58363a3b81948a552b3,TCN,2024-06-26_13h37.23.016,LearnStrategy,2023.2.3,Win32,60.24096386,7,1,16,0.130208333,-0.014322917,1,0,0,0.6533,rock_grid_rect_2,4,08,-1,-1,0.653,-0.31640625,-0.229166667,1,0,0,1.9499,Andesite_rect,1,1.95,0,15,0,15,0,1,,,,,,,,,,,,,
662bf58363a3b81948a552b3,TCN,2024-06-26_13h37.23.016,LearnStrategy,2023.2.3,Win32,60.24096386,7,2,1,,,,,,,,2,12,,,,,,,,,,,4,33.452,0,,,,,,0.4296875,-0.2421875,1,0,0,33.4523,Gabbro_rect,0,0,0,0,1,
662bf58363a3b81948a552b3,TCN,2024-06-26_13h37.23.016,LearnStrategy,2023.2.3,Win32,60.24096386,7,2,2,,,,,,,,8,15,,,,,,,,,,,8,1.141,1,,,,,,0.434895833,-0.4140625,1,0,0,1.1407,Pumice_rect,1,0,1,0,1,
662bf58363a3b81948a552b3,TCN,2024-06-26_13h37.23.016,LearnStrategy,2023.2.3,Win32,60.24096386,7,2,3,,,,,,,,7,10,,,,,,,,,,,1,6.043,0,,,,,,-0.393229167,-0.248697917,1,0,0,6.0427,Andesite_rect,2,0,2,0,1,
662bf58363a3b81948a552b3,TCN,2024-06-26_13h37.23.016,LearnStrategy,2023.2.3,Win32,60.24096386,7,2,4,,,,,,,,8,16,,,,,,,,,,,8,1.036,1,,,,,,0.42578125,-0.401041667,1,0,0,1.0357,Pumice_rect,3,0,3,0,1,
662bf58363a3b81948a552b3,TCN,2024-06-26_13h37.23.016,LearnStrategy,2023.2.3,Win32,60.24096386,7,2,5,,,,,,,,5,09,,,,,,,,,,,5,1.088,1,,,,,,-0.37890625,-0.390625,1,0,0,1.0875,Obsidian_rect,4,0,4,0,1,
662bf58363a3b81948a552b3,TCN,2024-06-26_13h37.23.016,LearnStrategy,2023.2.3,Win32,60.24096386,7,2,6,,,,,,,,1,05,,,,,,,,,,,3,6.775,0,,,,,,0.143229167,-0.2578125,1,0,0,6.7751,Diorite_rect,5,0,5,0,1,
662bf58363a3b81948a552b3,TCN,2024-06-26_13h37.23.016,LearnStrategy,2023.2.3,Win32,60.24096386,7,2,7,,,,,,,,3,13,,,,,,,,,,,3,12.66,1,,,,,,0.14453125,-0.25390625,1,0,0,12.6604,Diorite_rect,6,0,6,0,1,
662bf58363a3b81948a552b3,TCN,2024-06-26_13h37.23.016,LearnStrategy,2023.2.3,Win32,60.24096386,7,2,8,,,,,,,,7,02,,,,,,,,,,,7,5.376,1,,,,,,0.151041667,-0.401041667,1,0,0,5.3759,Peridotite_rect,7,0,7,0,1,
662bf58363a3b81948a552b3,TCN,2024-06-26_13h37.23.016,LearnStrategy,2023.2.3,Win32,60.24096386,7,2,9,,,,,,,,4,10,,,,,,,,,,,1,7.903,0,,,,,,-0.3515625,-0.236979167,1,0,0,7.9033,Andesite_rect,8,0,8,0,1,
662bf58363a3b81948a552b3,TCN,2024-06-26_13h37.23.016,LearnStrategy,2023.2.3,Win32,60.24096386,7,2,10,,,,,,,,5,11,,,,,,,,,,,5,1.004,1,,,,,,-0.34765625,-0.404947917,1,0,0,1.0041,Obsidian_rect,9,0,9,0,1,
662bf58363a3b81948a552b3,TCN,2024-06-26_13h37.23.016,LearnStrategy,2023.2.3,Win32,60.24096386,7,2,11,,,,,,,,6,16,,,,,,,,,,,6,5.97,1,,,,,,-0.075520833,-0.397135417,1,0,0,5.9699,Pegmatite_rect,10,0,10,0,1,
662bf58363a3b81948a552b3,TCN,2024-06-26_13h37.23.016,LearnStrategy,2023.2.3,Win32,60.24096386,7,2,12,,,,,,,,2,14,,,,,,,,,,,8,15.692,0,,,,,,0.428385417,-0.4140625,1,0,0,15.6925,Pumice_rect,11,0,11,0,1,
662bf58363a3b81948a552b3,TCN,2024-06-26_13h37.23.016,LearnStrategy,2023.2.3,Win32,60.24096386,7,2,13,,,,,,,,1,11,,,,,,,,,,,1,6.055,1,,,,,,-0.361979167,-0.25390625,1,0,0,6.0546,Andesite_rect,12,0,12,0,1,
662bf58363a3b81948a552b3,TCN,2024-06-26_13h37.23.016,LearnStrategy,2023.2.3,Win32,60.24096386,7,2,14,,,,,,,,6,11,,,,,,,,,,,6,1.641,1,,,,,,-0.143229167,-0.397135417,1,0,0,1.6407,Pegmatite_rect,13,0,13,0,1,
662bf58363a3b81948a552b3,TCN,2024-06-26_13h37.23.016,LearnStrategy,2023.2.3,Win32,60.24096386,7,2,15,,,,,,,,3,14,,,,,,,,,,,3,1.302,1,,,,,,0.1640625,-0.264322917,1,0,0,1.3025,Diorite_rect,14,0,14,0,1,
662bf58363a3b81948a552b3,TCN,2024-06-26_13h37.23.016,LearnStrategy,2023.2.3,Win32,60.24096386,7,2,16,,,,,,,,4,11,,,,,,,,,,,4,7.204,1,,,,,,0.4140625,-0.2578125,1,0,0,7.2043,Gabbro_rect,15,0,15,0,1,
662bf58363a3b81948a552b3,TCN,2024-06-26_13h37.23.016,LearnStrategy,2023.2.3,Win32,60.24096386,8,1,1,0.125,0.002604167,1,0,0,1.0772,rock_grid_rect_2,3,15,-1,-1,1.077,0.201822917,-0.252604167,1,0,0,4.7703,Diorite_rect,3,4.77,1,0,0,0,0,1,,,,,,,,,,,,,
662bf58363a3b81948a552b3,TCN,2024-06-26_13h37.23.016,LearnStrategy,2023.2.3,Win32,60.24096386,8,1,2,0.126302083,0.009114583,1,0,0,0.6309,rock_grid_rect_2,4,09,-1,-1,0.631,0.180989583,-0.4140625,1,0,0,6.3413,Peridotite_rect,7,6.341,0,1,0,1,0,1,,,,,,,,,,,,,
662bf58363a3b81948a552b3,TCN,2024-06-26_13h37.23.016,LearnStrategy,2023.2.3,Win32,60.24096386,8,1,3,0.108072917,-0.006510417,1,0,0,2.9324,rock_grid_rect_2,6,07,-1,-1,2.932,-0.125,-0.38671875,1,0,0,2.282,Pegmatite_rect,6,2.282,1,2,0,2,0,1,,,,,,,,,,,,,
662bf58363a3b81948a552b3,TCN,2024-06-26_13h37.23.016,LearnStrategy,2023.2.3,Win32,60.24096386,8,1,4,0.17578125,0.022135417,1,0,0,0.7369,rock_grid_rect_2,7,05,-1,-1,0.737,0.17578125,-0.395833333,1,0,0,2.5657,Peridotite_rect,7,2.566,1,3,0,3,0,1,,,,,,,,,,,,,
662bf58363a3b81948a552b3,TCN,2024-06-26_13h37.23.016,LearnStrategy,2023.2.3,Win32,60.24096386,8,1,5,0.12890625,0.005208333,1,0,0,0.7656,rock_grid_rect_2,5,06,-1,-1,0.766,-0.375,-0.390625,1,0,0,1.0679,Obsidian_rect,5,1.068,1,4,0,4,0,1,,,,,,,,,,,,,
662bf58363a3b81948a552b3,TCN,2024-06-26_13h37.23.016,LearnStrategy,2023.2.3,Win32,60.24096386,8,1,6,0.139322917,0.0078125,1,0,0,0.7495,rock_grid_rect_2,7,15,-1,-1,0.749,-0.087239583,-0.419270833,1,0,0,1.3672,Pegmatite_rect,6,1.367,0,5,0,5,0,1,,,,,,,,,,,,,
662bf58363a3b81948a552b3,TCN,2024-06-26_13h37.23.016,LearnStrategy,2023.2.3,Win32,60.24096386,8,1,7,0.139322917,-0.010416667,1,0,0,1.1027,rock_grid_rect_2,8,09,-1,-1,1.103,0.381510417,-0.407552083,1,0,0,0.9957,Pumice_rect,8,0.996,1,6,0,6,0,1,,,,,,,,,,,,,
662bf58363a3b81948a552b3,TCN,2024-06-26_13h37.23.016,LearnStrategy,2023.2.3,Win32,60.24096386,8,1,8,0.166666667,-0.01171875,1,0,0,1.0697,rock_grid_rect_2,4,14,-1,-1,1.07,0.404947917,-0.23046875,1,0,0,3.8458,Gabbro_rect,4,3.846,1,7,0,7,0,1,,,,,,,,,,,,,
662bf58363a3b81948a552b3,TCN,2024-06-26_13h37.23.016,LearnStrategy,2023.2.3,Win32,60.24096386,8,1,9,0.157552083,-0.015625,1,0,0,0.7192,rock_grid_rect_2,3,08,-1,-1,0.719,0.15625,-0.264322917,1,0,0,1.6998,Diorite_rect,3,1.7,1,8,0,8,0,1,,,,,,,,,,,,,
662bf58363a3b81948a552b3,TCN,2024-06-26_13h37.23.016,LearnStrategy,2023.2.3,Win32,60.24096386,8,1,10,0.171875,-0.022135417,1,0,0,0.6875,rock_grid_rect_2,2,11,-1,-1,0.688,-0.356770833,-0.2421875,1,0,0,3.6463,Andesite_rect,1,3.646,0,9,0,9,0,1,,,,,,,,,,,,,
662bf58363a3b81948a552b3,TCN,2024-06-26_13h37.23.016,LearnStrategy,2023.2.3,Win32,60.24096386,8,1,11,0.100260417,0.001302083,1,0,0,1.4982,rock_grid_rect_2,8,08,-1,-1,1.498,0.360677083,-0.401041667,1,0,0,1.051,Pumice_rect,8,1.051,1,10,0,10,0,1,,,,,,,,,,,,,
662bf58363a3b81948a552b3,TCN,2024-06-26_13h37.23.016,LearnStrategy,2023.2.3,Win32,60.24096386,8,1,12,0.1171875,0.00390625,1,0,0,0.6864,rock_grid_rect_2,1,14,-1,-1,0.686,-0.356770833,-0.239583333,1,0,0,3.5467,Andesite_rect,1,3.547,1,11,0,11,0,1,,,,,,,,,,,,,
662bf58363a3b81948a552b3,TCN,2024-06-26_13h37.23.016,LearnStrategy,2023.2.3,Win32,60.24096386,8,1,13,0.09375,0.0078125,1,0,0,0.6654,rock_grid_rect_2,6,15,-1,-1,0.665,-0.127604167,-0.404947917,1,0,0,1.2291,Pegmatite_rect,6,1.229,1,12,0,12,0,1,,,,,,,,,,,,,
662bf58363a3b81948a552b3,TCN,2024-06-26_13h37.23.016,LearnStrategy,2023.2.3,Win32,60.24096386,8,1,14,0.100260417,0.00390625,1,0,0,0.6831,rock_grid_rect_2,1,04,-1,-1,0.683,0.364583333,-0.251302083,1,0,0,4.7772,Gabbro_rect,4,4.777,0,13,0,13,0,1,,,,,,,,,,,,,
662bf58363a3b81948a552b3,TCN,2024-06-26_13h37.23.016,LearnStrategy,2023.2.3,Win32,60.24096386,8,1,15,0.139322917,-0.013020833,1,0,0,1.1155,rock_grid_rect_2,2,10,-1,-1,1.115,-0.123697917,-0.235677083,1,0,0,1.17,Basalt_rect,2,1.17,1,14,0,14,0,1,,,,,,,,,,,,,
662bf58363a3b81948a552b3,TCN,2024-06-26_13h37.23.016,LearnStrategy,2023.2.3,Win32,60.24096386,8,1,16,0.122395833,0.015625,1,0,0,0.583,rock_grid_rect_2,5,05,-1,-1,0.583,-0.33203125,-0.401041667,1,0,0,1.0736,Obsidian_rect,5,1.074,1,15,0,15,0,1,,,,,,,,,,,,,
662bf58363a3b81948a552b3,TCN,2024-06-26_13h37.23.016,LearnStrategy,2023.2.3,Win32,60.24096386,8,2,1,,,,,,,,5,08,,,,,,,,,,,5,1.426,1,,,,,,-0.360677083,-0.40625,1,0,0,1.426,Obsidian_rect,0,0,0,0,1,
662bf58363a3b81948a552b3,TCN,2024-06-26_13h37.23.016,LearnStrategy,2023.2.3,Win32,60.24096386,8,2,2,,,,,,,,7,04,,,,,,,,,,,6,1.602,0,,,,,,-0.109375,-0.403645833,1,0,0,1.6024,Pegmatite_rect,1,0,1,0,1,
662bf58363a3b81948a552b3,TCN,2024-06-26_13h37.23.016,LearnStrategy,2023.2.3,Win32,60.24096386,8,2,3,,,,,,,,4,01,,,,,,,,,,,1,2.901,0,,,,,,-0.360677083,-0.256510417,1,0,0,2.9013,Andesite_rect,2,0,2,0,1,
662bf58363a3b81948a552b3,TCN,2024-06-26_13h37.23.016,LearnStrategy,2023.2.3,Win32,60.24096386,8,2,4,,,,,,,,3,06,,,,,,,,,,,3,10.629,1,,,,,,0.173177083,-0.247395833,1,0,0,10.6289,Diorite_rect,3,0,3,0,1,
662bf58363a3b81948a552b3,TCN,2024-06-26_13h37.23.016,LearnStrategy,2023.2.3,Win32,60.24096386,8,2,5,,,,,,,,6,03,,,,,,,,,,,6,4.821,1,,,,,,-0.080729167,-0.395833333,1,0,0,4.8206,Pegmatite_rect,4,0,4,0,1,
662bf58363a3b81948a552b3,TCN,2024-06-26_13h37.23.016,LearnStrategy,2023.2.3,Win32,60.24096386,8,2,6,,,,,,,,8,06,,,,,,,,,,,8,1.486,1,,,,,,0.375,-0.407552083,1,0,0,1.4857,Pumice_rect,5,0,5,0,1,
662bf58363a3b81948a552b3,TCN,2024-06-26_13h37.23.016,LearnStrategy,2023.2.3,Win32,60.24096386,8,2,7,,,,,,,,5,14,,,,,,,,,,,5,1.143,1,,,,,,-0.35546875,-0.40234375,1,0,0,1.1431,Obsidian_rect,6,0,6,0,1,
662bf58363a3b81948a552b3,TCN,2024-06-26_13h37.23.016,LearnStrategy,2023.2.3,Win32,60.24096386,8,2,8,,,,,,,,3,09,,,,,,,,,,,3,0.987,1,,,,,,0.157552083,-0.248697917,1,0,0,0.9871,Diorite_rect,7,0,7,0,1,
662bf58363a3b81948a552b3,TCN,2024-06-26_13h37.23.016,LearnStrategy,2023.2.3,Win32,60.24096386,8,2,9,,,,,,,,1,09,,,,,,,,,,,1,2.882,1,,,,,,-0.358072917,-0.234375,1,0,0,2.8818,Andesite_rect,8,0,8,0,1,
662bf58363a3b81948a552b3,TCN,2024-06-26_13h37.23.016,LearnStrategy,2023.2.3,Win32,60.24096386,8,2,10,,,,,,,,7,16,,,,,,,,,,,7,1.415,1,,,,,,0.12109375,-0.408854167,1,0,0,1.4146,Peridotite_rect,9,0,9,0,1,
662bf58363a3b81948a552b3,TCN,2024-06-26_13h37.23.016,LearnStrategy,2023.2.3,Win32,60.24096386,8,2,11,,,,,,,,1,06,,,,,,,,,,,7,1.565,0,,,,,,0.076822917,-0.393229167,1,0,0,1.5646,Peridotite_rect,10,0,10,0,1,
662bf58363a3b81948a552b3,TCN,2024-06-26_13h37.23.016,LearnStrategy,2023.2.3,Win32,60.24096386,8,2,12,,,,,,,,2,06,,,,,,,,,,,2,1.184,1,,,,,,-0.102864583,-0.23828125,1,0,0,1.1844,Basalt_rect,11,0,11,0,1,
662bf58363a3b81948a552b3,TCN,2024-06-26_13h37.23.016,LearnStrategy,2023.2.3,Win32,60.24096386,8,2,13,,,,,,,,6,08,,,,,,,,,,,6,1.249,1,,,,,,-0.088541667,-0.399739583,1,0,0,1.2491,Pegmatite_rect,12,0,12,0,1,
662bf58363a3b81948a552b3,TCN,2024-06-26_13h37.23.016,LearnStrategy,2023.2.3,Win32,60.24096386,8,2,14,,,,,,,,8,03,,,,,,,,,,,8,1.167,1,,,,,,0.361979167,-0.403645833,1,0,0,1.1672,Pumice_rect,13,0,13,0,1,
662bf58363a3b81948a552b3,TCN,2024-06-26_13h37.23.016,LearnStrategy,2023.2.3,Win32,60.24096386,8,2,15,,,,,,,,4,15,,,,,,,,,,,4,0.949,1,,,,,,0.381510417,-0.268229167,1,0,0,0.9494,Gabbro_rect,14,0,14,0,1,
662bf58363a3b81948a552b3,TCN,2024-06-26_13h37.23.016,LearnStrategy,2023.2.3,Win32,60.24096386,8,2,16,,,,,,,,2,08,,,,,,,,,,,2,1.745,1,,,,,,-0.087239583,-0.25390625,1,0,0,1.7446,Basalt_rect,15,0,15,0,1,
662bf58363a3b81948a552b3,TCN,2024-06-26_13h37.23.016,LearnStrategy,2023.2.3,Win32,60.24096386,9,1,1,0.110677083,0.005208333,1,0,0,0.6082,rock_grid_rect_2,5,16,-1,-1,0.608,-0.359375,-0.3984375,1,0,0,0.9412,Obsidian_rect,5,0.941,1,0,0,0,0,1,,,,,,,,,,,,,
662bf58363a3b81948a552b3,TCN,2024-06-26_13h37.23.016,LearnStrategy,2023.2.3,Win32,60.24096386,9,1,2,0.1015625,-0.005208333,1,0,0,0.5657,rock_grid_rect_2,1,01,-1,-1,0.566,0.153645833,-0.255208333,1,0,0,1.9334,Diorite_rect,3,1.933,0,1,0,1,0,1,,,,,,,,,,,,,
662bf58363a3b81948a552b3,TCN,2024-06-26_13h37.23.016,LearnStrategy,2023.2.3,Win32,60.24096386,9,1,3,0.126302083,0.005208333,1,0,0,0.6704,rock_grid_rect_2,2,04,-1,-1,0.67,-0.0625,-0.248697917,1,0,0,1.2514,Basalt_rect,2,1.251,1,2,0,2,0,1,,,,,,,,,,,,,
662bf58363a3b81948a552b3,TCN,2024-06-26_13h37.23.016,LearnStrategy,2023.2.3,Win32,60.24096386,9,1,4,0.174479167,-0.002604167,1,0,0,1.2689,rock_grid_rect_2,3,10,-1,-1,1.269,0.154947917,-0.23828125,1,0,0,2.2001,Diorite_rect,3,2.2,1,3,0,3,0,1,,,,,,,,,,,,,
662bf58363a3b81948a552b3,TCN,2024-06-26_13h37.23.016,LearnStrategy,2023.2.3,Win32,60.24096386,9,1,5,0.1015625,0.001302083,1,0,0,0.5846,rock_grid_rect_2,7,08,-1,-1,0.585,-0.0859375,-0.3984375,1,0,0,1.3016,Pegmatite_rect,6,1.302,0,4,0,4,0,1,,,,,,,,,,,,,
662bf58363a3b81948a552b3,TCN,2024-06-26_13h37.23.016,LearnStrategy,2023.2.3,Win32,60.24096386,9,1,6,0.153645833,-0.00390625,1,0,0,0.6687,rock_grid_rect_2,3,12,-1,-1,0.669,0.139322917,-0.2578125,1,0,0,1.2659,Diorite_rect,3,1.266,1,5,0,5,0,1,,,,,,,,,,,,,
662bf58363a3b81948a552b3,TCN,2024-06-26_13h37.23.016,LearnStrategy,2023.2.3,Win32,60.24096386,9,1,7,0.12109375,0.015625,1,0,0,0.6377,rock_grid_rect_2,4,13,-1,-1,0.638,0.408854167,-0.236979167,1,0,0,6.0138,Gabbro_rect,4,6.014,1,6,0,6,0,1,,,,,,,,,,,,,
662bf58363a3b81948a552b3,TCN,2024-06-26_13h37.23.016,LearnStrategy,2023.2.3,Win32,60.24096386,9,1,8,0.157552083,0.00390625,1,0,0,1.386,rock_grid_rect_2,5,04,-1,-1,1.386,-0.3359375,-0.38671875,1,0,0,0.9684,Obsidian_rect,5,0.968,1,7,0,7,0,1,,,,,,,,,,,,,
662bf58363a3b81948a552b3,TCN,2024-06-26_13h37.23.016,LearnStrategy,2023.2.3,Win32,60.24096386,9,1,9,0.104166667,0.001302083,1,0,0,0.5828,rock_grid_rect_2,8,10,-1,-1,0.583,0.385416667,-0.391927083,1,0,0,1.0346,Pumice_rect,8,1.035,1,8,0,8,0,1,,,,,,,,,,,,,
662bf58363a3b81948a552b3,TCN,2024-06-26_13h37.23.016,LearnStrategy,2023.2.3,Win32,60.24096386,9,1,10,0.158854167,0.0078125,1,0,0,0.6495,rock_grid_rect_2,8,14,-1,-1,0.649,0.3671875,-0.390625,1,0,0,1.6274,Pumice_rect,8,1.627,1,9,0,9,0,1,,,,,,,,,,,,,
662bf58363a3b81948a552b3,TCN,2024-06-26_13h37.23.016,LearnStrategy,2023.2.3,Win32,60.24096386,9,1,11,0.1328125,0.024739583,1,0,0,0.5994,rock_grid_rect_2,1,07,-1,-1,0.599,0.1484375,-0.259114583,1,0,0,1.5341,Diorite_rect,3,1.534,0,10,0,10,0,1,,,,,,,,,,,,,
662bf58363a3b81948a552b3,TCN,2024-06-26_13h37.23.016,LearnStrategy,2023.2.3,Win32,60.24096386,9,1,12,0.115885417,-0.01953125,1,0,0,0.6332,rock_grid_rect_2,6,06,-1,-1,0.633,-0.083333333,-0.40234375,1,0,0,9.9674,Pegmatite_rect,6,9.967,1,11,0,11,0,1,,,,,,,,,,,,,
662bf58363a3b81948a552b3,TCN,2024-06-26_13h37.23.016,LearnStrategy,2023.2.3,Win32,60.24096386,9,1,13,0.145833333,0.006510417,1,0,0,0.8038,rock_grid_rect_2,7,06,-1,-1,0.804,-0.084635417,-0.40625,1,0,0,1.2343,Pegmatite_rect,6,1.234,0,12,0,12,0,1,,,,,,,,,,,,,
662bf58363a3b81948a552b3,TCN,2024-06-26_13h37.23.016,LearnStrategy,2023.2.3,Win32,60.24096386,9,1,14,0.139322917,0.022135417,1,0,0,0.6331,rock_grid_rect_2,4,16,-1,-1,0.633,0.341145833,-0.26171875,1,0,0,1.7001,Gabbro_rect,4,1.7,1,13,0,13,0,1,,,,,,,,,,,,,
662bf58363a3b81948a552b3,TCN,2024-06-26_13h37.23.016,LearnStrategy,2023.2.3,Win32,60.24096386,9,1,15,0.192708333,-0.013020833,1,0,0,0.654,rock_grid_rect_2,6,12,-1,-1,0.654,-0.084635417,-0.4140625,1,0,0,8.9526,Pegmatite_rect,6,8.953,1,14,0,14,0,1,,,,,,,,,,,,,
662bf58363a3b81948a552b3,TCN,2024-06-26_13h37.23.016,LearnStrategy,2023.2.3,Win32,60.24096386,9,1,16,0.1640625,-0.001302083,1,0,0,0.7659,rock_grid_rect_2,2,16,-1,-1,0.766,-0.115885417,-0.247395833,1,0,0,1.0506,Basalt_rect,2,1.051,1,15,0,15,0,1,,,,,,,,,,,,,
662bf58363a3b81948a552b3,TCN,2024-06-26_13h37.23.016,LearnStrategy,2023.2.3,Win32,60.24096386,9,2,1,,,,,,,,5,12,,,,,,,,,,,5,1.14,1,,,,,,-0.34765625,-0.40234375,1,0,0,1.1403,Obsidian_rect,0,0,0,0,1,
662bf58363a3b81948a552b3,TCN,2024-06-26_13h37.23.016,LearnStrategy,2023.2.3,Win32,60.24096386,9,2,2,,,,,,,,4,05,,,,,,,,,,,7,6.64,0,,,,,,0.130208333,-0.420572917,1,0,0,6.6405,Peridotite_rect,1,0,1,0,1,
662bf58363a3b81948a552b3,TCN,2024-06-26_13h37.23.016,LearnStrategy,2023.2.3,Win32,60.24096386,9,2,3,,,,,,,,6,09,,,,,,,,,,,6,1.208,1,,,,,,-0.10546875,-0.393229167,1,0,0,1.2076,Pegmatite_rect,2,0,2,0,1,
662bf58363a3b81948a552b3,TCN,2024-06-26_13h37.23.016,LearnStrategy,2023.2.3,Win32,60.24096386,9,2,4,,,,,,,,4,12,,,,,,,,,,,4,2.196,1,,,,,,0.389322917,-0.256510417,1,0,0,2.196,Gabbro_rect,3,0,3,0,1,
662bf58363a3b81948a552b3,TCN,2024-06-26_13h37.23.016,LearnStrategy,2023.2.3,Win32,60.24096386,9,2,5,,,,,,,,2,09,,,,,,,,,,,2,1.122,1,,,,,,-0.09375,-0.268229167,1,0,0,1.1217,Basalt_rect,4,0,4,0,1,
662bf58363a3b81948a552b3,TCN,2024-06-26_13h37.23.016,LearnStrategy,2023.2.3,Win32,60.24096386,9,2,6,,,,,,,,7,13,,,,,,,,,,,6,1.199,0,,,,,,-0.067708333,-0.403645833,1,0,0,1.1992,Pegmatite_rect,5,0,5,0,1,
662bf58363a3b81948a552b3,TCN,2024-06-26_13h37.23.016,LearnStrategy,2023.2.3,Win32,60.24096386,9,2,7,,,,,,,,6,05,,,,,,,,,,,7,2.868,0,,,,,,0.138020833,-0.399739583,1,0,0,2.8678,Peridotite_rect,6,0,6,0,1,
662bf58363a3b81948a552b3,TCN,2024-06-26_13h37.23.016,LearnStrategy,2023.2.3,Win32,60.24096386,9,2,8,,,,,,,,7,14,,,,,,,,,,,1,5.068,0,,,,,,-0.33984375,-0.26171875,1,0,0,5.0678,Andesite_rect,7,0,7,0,1,
662bf58363a3b81948a552b3,TCN,2024-06-26_13h37.23.016,LearnStrategy,2023.2.3,Win32,60.24096386,9,2,9,,,,,,,,8,02,,,,,,,,,,,8,1.727,1,,,,,,0.408854167,-0.403645833,1,0,0,1.7268,Pumice_rect,8,0,8,0,1,
662bf58363a3b81948a552b3,TCN,2024-06-26_13h37.23.016,LearnStrategy,2023.2.3,Win32,60.24096386,9,2,10,,,,,,,,2,05,,,,,,,,,,,2,1.159,1,,,,,,-0.106770833,-0.244791667,1,0,0,1.1594,Basalt_rect,9,0,9,0,1,
662bf58363a3b81948a552b3,TCN,2024-06-26_13h37.23.016,LearnStrategy,2023.2.3,Win32,60.24096386,9,2,11,,,,,,,,3,02,,,,,,,,,,,3,1.155,1,,,,,,0.162760417,-0.26171875,1,0,0,1.1549,Diorite_rect,10,0,10,0,1,
662bf58363a3b81948a552b3,TCN,2024-06-26_13h37.23.016,LearnStrategy,2023.2.3,Win32,60.24096386,9,2,12,,,,,,,,5,07,,,,,,,,,,,5,1.024,1,,,,,,-0.333333333,-0.404947917,1,0,0,1.0238,Obsidian_rect,11,0,11,0,1,
662bf58363a3b81948a552b3,TCN,2024-06-26_13h37.23.016,LearnStrategy,2023.2.3,Win32,60.24096386,9,2,13,,,,,,,,8,13,,,,,,,,,,,8,0.938,1,,,,,,0.390625,-0.395833333,1,0,0,0.9382,Pumice_rect,12,0,12,0,1,
662bf58363a3b81948a552b3,TCN,2024-06-26_13h37.23.016,LearnStrategy,2023.2.3,Win32,60.24096386,9,2,14,,,,,,,,1,03,,,,,,,,,,,4,0.883,0,,,,,,0.384114583,-0.243489583,1,0,0,0.8833,Gabbro_rect,13,0,13,0,1,
662bf58363a3b81948a552b3,TCN,2024-06-26_13h37.23.016,LearnStrategy,2023.2.3,Win32,60.24096386,9,2,15,,,,,,,,3,16,,,,,,,,,,,1,1.07,0,,,,,,-0.364583333,-0.243489583,1,0,0,1.0699,Andesite_rect,14,0,14,0,1,
662bf58363a3b81948a552b3,TCN,2024-06-26_13h37.23.016,LearnStrategy,2023.2.3,Win32,60.24096386,9,2,16,,,,,,,,1,02,,,,,,,,,,,1,1.049,1,,,,,,-0.346354167,-0.244791667,1,0,0,1.0494,Andesite_rect,15,0,15,0,1,
662bf58363a3b81948a552b3,TCN,2024-06-26_13h37.23.016,LearnStrategy,2023.2.3,Win32,60.24096386,,,,,,,,,,,,,,,,,,,,,,,,,,,,,,,,,,,,,,,,,,,1
662bf58363a3b81948a552b3,TCN,2024-06-26_13h37.23.016,LearnStrategy,2023.2.3,Win32,60.24096386,,,,,,,,,,,,,,,,,,,,,,,,,,,,,,,,,,,,,,,,,,,
662bf58363a3b81948a552b3,TCN,2024-06-26_13h37.23.016,LearnStrategy,2023.2.3,Win32,60.24096386,,,,,,,,,,,4,03,1,1,,,,,,,,,,,,,,,,,,,,,,,,,,,,,
662bf58363a3b81948a552b3,TCN,2024-06-26_13h37.23.016,LearnStrategy,2023.2.3,Win32,60.24096386,,,,,,,,,,,5,06,1,2,,,,,,,,,,,,,,,,,,,,,,,,,,,,,
662bf58363a3b81948a552b3,TCN,2024-06-26_13h37.23.016,LearnStrategy,2023.2.3,Win32,60.24096386,,,,,,,,,,,8,08,1,3,,,,,,,,,,,,,,,,,,,,,,,,,,,,,
662bf58363a3b81948a552b3,TCN,2024-06-26_13h37.23.016,LearnStrategy,2023.2.3,Win32,60.24096386,,,,,,,,,,,5,16,1,4,,,,,,,,,,,,,,,,,,,,,,,,,,,,,
662bf58363a3b81948a552b3,TCN,2024-06-26_13h37.23.016,LearnStrategy,2023.2.3,Win32,60.24096386,,,,,,,,,,,7,06,1,5,,,,,,,,,,,,,,,,,,,,,,,,,,,,,
662bf58363a3b81948a552b3,TCN,2024-06-26_13h37.23.016,LearnStrategy,2023.2.3,Win32,60.24096386,,,,,,,,,,,3,11,1,6,,,,,,,,,,,,,,,,,,,,,,,,,,,,,
662bf58363a3b81948a552b3,TCN,2024-06-26_13h37.23.016,LearnStrategy,2023.2.3,Win32,60.24096386,,,,,,,,,,,8,14,1,7,,,,,,,,,,,,,,,,,,,,,,,,,,,,,
662bf58363a3b81948a552b3,TCN,2024-06-26_13h37.23.016,LearnStrategy,2023.2.3,Win32,60.24096386,,,,,,,,,,,7,05,1,8,,,,,,,,,,,,,,,,,,,,,,,,,,,,,
662bf58363a3b81948a552b3,TCN,2024-06-26_13h37.23.016,LearnStrategy,2023.2.3,Win32,60.24096386,,,,,,,,,,,2,10,2,1,,,,,,,,,,,,,,,,,,,,,,,,,,,,,
662bf58363a3b81948a552b3,TCN,2024-06-26_13h37.23.016,LearnStrategy,2023.2.3,Win32,60.24096386,,,,,,,,,,,1,04,2,2,,,,,,,,,,,,,,,,,,,,,,,,,,,,,
662bf58363a3b81948a552b3,TCN,2024-06-26_13h37.23.016,LearnStrategy,2023.2.3,Win32,60.24096386,,,,,,,,,,,5,05,2,3,,,,,,,,,,,,,,,,,,,,,,,,,,,,,
662bf58363a3b81948a552b3,TCN,2024-06-26_13h37.23.016,LearnStrategy,2023.2.3,Win32,60.24096386,,,,,,,,,,,2,16,2,4,,,,,,,,,,,,,,,,,,,,,,,,,,,,,
662bf58363a3b81948a552b3,TCN,2024-06-26_13h37.23.016,LearnStrategy,2023.2.3,Win32,60.24096386,,,,,,,,,,,4,16,2,5,,,,,,,,,,,,,,,,,,,,,,,,,,,,,
662bf58363a3b81948a552b3,TCN,2024-06-26_13h37.23.016,LearnStrategy,2023.2.3,Win32,60.24096386,,,,,,,,,,,2,11,2,6,,,,,,,,,,,,,,,,,,,,,,,,,,,,,
662bf58363a3b81948a552b3,TCN,2024-06-26_13h37.23.016,LearnStrategy,2023.2.3,Win32,60.24096386,,,,,,,,,,,7,15,2,7,,,,,,,,,,,,,,,,,,,,,,,,,,,,,
662bf58363a3b81948a552b3,TCN,2024-06-26_13h37.23.016,LearnStrategy,2023.2.3,Win32,60.24096386,,,,,,,,,,,1,01,2,8,,,,,,,,,,,,,,,,,,,,,,,,,,,,,
662bf58363a3b81948a552b3,TCN,2024-06-26_13h37.23.016,LearnStrategy,2023.2.3,Win32,60.24096386,,,,,,,,,,,4,09,3,1,,,,,,,,,,,,,,,,,,,,,,,,,,,,,
662bf58363a3b81948a552b3,TCN,2024-06-26_13h37.23.016,LearnStrategy,2023.2.3,Win32,60.24096386,,,,,,,,,,,8,10,3,2,,,,,,,,,,,,,,,,,,,,,,,,,,,,,
662bf58363a3b81948a552b3,TCN,2024-06-26_13h37.23.016,LearnStrategy,2023.2.3,Win32,60.24096386,,,,,,,,,,,3,15,3,3,,,,,,,,,,,,,,,,,,,,,,,,,,,,,
662bf58363a3b81948a552b3,TCN,2024-06-26_13h37.23.016,LearnStrategy,2023.2.3,Win32,60.24096386,,,,,,,,,,,7,12,3,4,,,,,,,,,,,,,,,,,,,,,,,,,,,,,
662bf58363a3b81948a552b3,TCN,2024-06-26_13h37.23.016,LearnStrategy,2023.2.3,Win32,60.24096386,,,,,,,,,,,6,15,3,5,,,,,,,,,,,,,,,,,,,,,,,,,,,,,
662bf58363a3b81948a552b3,TCN,2024-06-26_13h37.23.016,LearnStrategy,2023.2.3,Win32,60.24096386,,,,,,,,,,,7,07,3,6,,,,,,,,,,,,,,,,,,,,,,,,,,,,,
662bf58363a3b81948a552b3,TCN,2024-06-26_13h37.23.016,LearnStrategy,2023.2.3,Win32,60.24096386,,,,,,,,,,,3,08,3,7,,,,,,,,,,,,,,,,,,,,,,,,,,,,,
662bf58363a3b81948a552b3,TCN,2024-06-26_13h37.23.016,LearnStrategy,2023.2.3,Win32,60.24096386,,,,,,,,,,,6,12,3,8,,,,,,,,,,,,,,,,,,,,,,,,,,,,,
662bf58363a3b81948a552b3,TCN,2024-06-26_13h37.23.016,LearnStrategy,2023.2.3,Win32,60.24096386,,,,,,,,,,,1,16,4,1,,,,,,,,,,,,,,,,,,,,,,,,,,,,,
662bf58363a3b81948a552b3,TCN,2024-06-26_13h37.23.016,LearnStrategy,2023.2.3,Win32,60.24096386,,,,,,,,,,,8,09,4,2,,,,,,,,,,,,,,,,,,,,,,,,,,,,,
662bf58363a3b81948a552b3,TCN,2024-06-26_13h37.23.016,LearnStrategy,2023.2.3,Win32,60.24096386,,,,,,,,,,,3,10,4,3,,,,,,,,,,,,,,,,,,,,,,,,,,,,,
662bf58363a3b81948a552b3,TCN,2024-06-26_13h37.23.016,LearnStrategy,2023.2.3,Win32,60.24096386,,,,,,,,,,,1,07,4,4,,,,,,,,,,,,,,,,,,,,,,,,,,,,,
662bf58363a3b81948a552b3,TCN,2024-06-26_13h37.23.016,LearnStrategy,2023.2.3,Win32,60.24096386,,,,,,,,,,,6,13,4,5,,,,,,,,,,,,,,,,,,,,,,,,,,,,,
662bf58363a3b81948a552b3,TCN,2024-06-26_13h37.23.016,LearnStrategy,2023.2.3,Win32,60.24096386,,,,,,,,,,,6,07,4,6,,,,,,,,,,,,,,,,,,,,,,,,,,,,,
662bf58363a3b81948a552b3,TCN,2024-06-26_13h37.23.016,LearnStrategy,2023.2.3,Win32,60.24096386,,,,,,,,,,,4,08,4,7,,,,,,,,,,,,,,,,,,,,,,,,,,,,,
662bf58363a3b81948a552b3,TCN,2024-06-26_13h37.23.016,LearnStrategy,2023.2.3,Win32,60.24096386,,,,,,,,,,,4,13,4,8,,,,,,,,,,,,,,,,,,,,,,,,,,,,,
662bf58363a3b81948a552b3,TCN,2024-06-26_13h37.23.016,LearnStrategy,2023.2.3,Win32,60.24096386,,,,,,,,,,,2,01,5,1,,,,,,,,,,,,,,,,,,,,,,,,,,,,,
662bf58363a3b81948a552b3,TCN,2024-06-26_13h37.23.016,LearnStrategy,2023.2.3,Win32,60.24096386,,,,,,,,,,,8,04,5,2,,,,,,,,,,,,,,,,,,,,,,,,,,,,,
662bf58363a3b81948a552b3,TCN,2024-06-26_13h37.23.016,LearnStrategy,2023.2.3,Win32,60.24096386,,,,,,,,,,,3,07,5,3,,,,,,,,,,,,,,,,,,,,,,,,,,,,,
662bf58363a3b81948a552b3,TCN,2024-06-26_13h37.23.016,LearnStrategy,2023.2.3,Win32,60.24096386,,,,,,,,,,,5,02,5,4,,,,,,,,,,,,,,,,,,,,,,,,,,,,,
662bf58363a3b81948a552b3,TCN,2024-06-26_13h37.23.016,LearnStrategy,2023.2.3,Win32,60.24096386,,,,,,,,,,,8,05,5,5,,,,,,,,,,,,,,,,,,,,,,,,,,,,,
662bf58363a3b81948a552b3,TCN,2024-06-26_13h37.23.016,LearnStrategy,2023.2.3,Win32,60.24096386,,,,,,,,,,,2,04,5,6,,,,,,,,,,,,,,,,,,,,,,,,,,,,,
662bf58363a3b81948a552b3,TCN,2024-06-26_13h37.23.016,LearnStrategy,2023.2.3,Win32,60.24096386,,,,,,,,,,,6,10,5,7,,,,,,,,,,,,,,,,,,,,,,,,,,,,,
662bf58363a3b81948a552b3,TCN,2024-06-26_13h37.23.016,LearnStrategy,2023.2.3,Win32,60.24096386,,,,,,,,,,,7,08,5,8,,,,,,,,,,,,,,,,,,,,,,,,,,,,,
662bf58363a3b81948a552b3,TCN,2024-06-26_13h37.23.016,LearnStrategy,2023.2.3,Win32,60.24096386,,,,,,,,,,,4,14,6,1,,,,,,,,,,,,,,,,,,,,,,,,,,,,,
662bf58363a3b81948a552b3,TCN,2024-06-26_13h37.23.016,LearnStrategy,2023.2.3,Win32,60.24096386,,,,,,,,,,,1,10,6,2,,,,,,,,,,,,,,,,,,,,,,,,,,,,,
662bf58363a3b81948a552b3,TCN,2024-06-26_13h37.23.016,LearnStrategy,2023.2.3,Win32,60.24096386,,,,,,,,,,,5,10,6,3,,,,,,,,,,,,,,,,,,,,,,,,,,,,,
662bf58363a3b81948a552b3,TCN,2024-06-26_13h37.23.016,LearnStrategy,2023.2.3,Win32,60.24096386,,,,,,,,,,,6,06,6,4,,,,,,,,,,,,,,,,,,,,,,,,,,,,,
662bf58363a3b81948a552b3,TCN,2024-06-26_13h37.23.016,LearnStrategy,2023.2.3,Win32,60.24096386,,,,,,,,,,,5,04,6,5,,,,,,,,,,,,,,,,,,,,,,,,,,,,,
662bf58363a3b81948a552b3,TCN,2024-06-26_13h37.23.016,LearnStrategy,2023.2.3,Win32,60.24096386,,,,,,,,,,,1,14,6,6,,,,,,,,,,,,,,,,,,,,,,,,,,,,,
662bf58363a3b81948a552b3,TCN,2024-06-26_13h37.23.016,LearnStrategy,2023.2.3,Win32,60.24096386,,,,,,,,,,,3,12,6,7,,,,,,,,,,,,,,,,,,,,,,,,,,,,,
662bf58363a3b81948a552b3,TCN,2024-06-26_13h37.23.016,LearnStrategy,2023.2.3,Win32,60.24096386,,,,,,,,,,,2,02,6,8,,,,,,,,,,,,,,,,,,,,,,,,,,,,,