participant,condition,date,expName,psychopyVersion,OS,frameRate,block,phase,trial,learn_mouse.x,learn_mouse.y,learn_mouse.leftButton,learn_mouse.midButton,learn_mouse.rightButton,learn_mouse.time,learn_mouse.clicked_name,cat,token,row,col,t_select,cat_mouse_l.x,cat_mouse_l.y,cat_mouse_l.leftButton,cat_mouse_l.midButton,cat_mouse_l.rightButton,cat_mouse_l.time,cat_mouse_l.clicked_name,resp,t_resp,corr,train_trials.thisRepN,train_trials.thisTrialN,train_trials.thisN,train_trials.thisIndex,train_trials.ran,cat_mouse_t.x,cat_mouse_t.y,cat_mouse_t.leftButton,cat_mouse_t.midButton,cat_mouse_t.rightButton,cat_mouse_t.time,cat_mouse_t.clicked_name,test_trials.thisRepN,test_trials.thisTrialN,test_trials.thisN,test_trials.thisIndex,test_trials.ran,Bonus
662fbb4163d7a1695a748636,SCN,2024-06-24_16h16.08.352,LearnStrategy,2023.2.3,Win32,144.092219,,,,,,,,,,,,,,,,,,,,,,,,,,,,,,,,,,,,,,,,,,,
662fbb4163d7a1695a748636,SCN,2024-06-24_16h16.08.352,LearnStrategy,2023.2.3,Win32,144.092219,1,1,1,0.110185185,0.094444444,1,0,0,2.794,Obsidian_09,5,09,4,5,2.794,-0.32037037,-0.390740741,1,0,0,1.528,Obsidian_rect,5,1.528,1,0,0,0,0,1,,,,,,,,,,,,,
662fbb4163d7a1695a748636,SCN,2024-06-24_16h16.08.352,LearnStrategy,2023.2.3,Win32,144.092219,1,1,2,-0.242592593,0.057407407,1,0,0,1.919,Pumice_13,8,13,4,3,1.919,-0.336111111,-0.259259259,1,0,0,3.068,Andesite_rect,1,3.068,0,1,0,1,0,1,,,,,,,,,,,,,
662fbb4163d7a1695a748636,SCN,2024-06-24_16h16.08.352,LearnStrategy,2023.2.3,Win32,144.092219,1,1,3,0.230555556,0.081481481,1,0,0,1.628,Andesite_05,1,05,4,6,1.628,0.058333333,-0.390740741,1,0,0,3.507,Peridotite_rect,7,3.507,0,2,0,2,0,1,,,,,,,,,,,,,
662fbb4163d7a1695a748636,SCN,2024-06-24_16h16.08.352,LearnStrategy,2023.2.3,Win32,144.092219,1,1,4,-0.050925926,0.235185185,1,0,0,1.46,Andesite_02,1,02,5,4,1.46,-0.087037037,-0.269444444,1,0,0,1.308,Basalt_rect,2,1.308,0,3,0,3,0,1,,,,,,,,,,,,,
662fbb4163d7a1695a748636,SCN,2024-06-24_16h16.08.352,LearnStrategy,2023.2.3,Win32,144.092219,1,1,5,0.062962963,0.275925926,1,0,0,0.937,Obsidian_10,5,10,5,5,0.937,-0.350925926,-0.413888889,1,0,0,1.242,Obsidian_rect,5,1.242,1,4,0,4,0,1,,,,,,,,,,,,,
662fbb4163d7a1695a748636,SCN,2024-06-24_16h16.08.352,LearnStrategy,2023.2.3,Win32,144.092219,1,1,6,-0.07037037,-0.257407407,1,0,0,1.868,Diorite_14,3,14,2,4,1.868,0.053703704,-0.249074074,1,0,0,0.979,Diorite_rect,3,0.979,1,5,0,5,0,1,,,,,,,,,,,,,
662fbb4163d7a1695a748636,SCN,2024-06-24_16h16.08.352,LearnStrategy,2023.2.3,Win32,144.092219,1,1,7,0.212962963,-0.215740741,1,0,0,2.175,Pegmatite_08,6,08,2,6,2.175,-0.087037037,-0.269444444,1,0,0,1.509,Basalt_rect,2,1.509,0,6,0,6,0,1,,,,,,,,,,,,,
662fbb4163d7a1695a748636,SCN,2024-06-24_16h16.08.352,LearnStrategy,2023.2.3,Win32,144.092219,1,1,8,0.55,-0.078703704,1,0,0,2.215,Basalt_04,2,04,3,8,2.215,-0.112037037,-0.260185185,1,0,0,0.993,Basalt_rect,2,0.993,1,7,0,7,0,1,,,,,,,,,,,,,
662fbb4163d7a1695a748636,SCN,2024-06-24_16h16.08.352,LearnStrategy,2023.2.3,Win32,144.092219,1,1,9,-0.525,-0.130555556,1,0,0,2,Peridotite_13,7,13,3,1,2,0.384259259,-0.268518519,1,0,0,1.092,Gabbro_rect,4,1.092,0,8,0,8,0,1,,,,,,,,,,,,,
662fbb4163d7a1695a748636,SCN,2024-06-24_16h16.08.352,LearnStrategy,2023.2.3,Win32,144.092219,1,1,10,-0.399074074,0.268518519,1,0,0,1.124,Basalt_10,2,10,5,2,1.124,-0.203703704,-0.25,1,0,0,1.586,Basalt_rect,2,1.586,1,9,0,9,0,1,,,,,,,,,,,,,
662fbb4163d7a1695a748636,SCN,2024-06-24_16h16.08.352,LearnStrategy,2023.2.3,Win32,144.092219,1,1,11,0.043518519,-0.390740741,1,0,0,1.047,Peridotite_15,7,15,1,5,1.047,0.037962963,-0.37962963,1,0,0,2.143,Peridotite_rect,7,2.143,1,10,0,10,0,1,,,,,,,,,,,,,
662fbb4163d7a1695a748636,SCN,2024-06-24_16h16.08.352,LearnStrategy,2023.2.3,Win32,144.092219,1,1,12,0.528703704,-0.392592593,1,0,0,1.839,Pumice_09,8,09,1,8,1.839,0.390740741,-0.403703704,1,0,0,2.486,Pumice_rect,8,2.486,1,11,0,11,0,1,,,,,,,,,,,,,
662fbb4163d7a1695a748636,SCN,2024-06-24_16h16.08.352,LearnStrategy,2023.2.3,Win32,144.092219,1,1,13,-0.263888889,0.389814815,1,0,0,1.194,Peridotite_14,7,14,6,3,1.194,-0.336111111,-0.240740741,1,0,0,1.642,Andesite_rect,1,1.642,0,12,0,12,0,1,,,,,,,,,,,,,
662fbb4163d7a1695a748636,SCN,2024-06-24_16h16.08.352,LearnStrategy,2023.2.3,Win32,144.092219,1,1,14,-0.428703704,0.386111111,1,0,0,1.783,Andesite_04,1,04,6,2,1.783,0.077777778,-0.25462963,1,0,0,3.465,Diorite_rect,3,3.465,0,13,0,13,0,1,,,,,,,,,,,,,
662fbb4163d7a1695a748636,SCN,2024-06-24_16h16.08.352,LearnStrategy,2023.2.3,Win32,144.092219,1,1,15,0.225925926,0.425,1,0,0,1.384,Andesite_07,1,07,6,6,1.384,-0.128703704,-0.387037037,1,0,0,1.348,Pegmatite_rect,6,1.348,0,14,0,14,0,1,,,,,,,,,,,,,
662fbb4163d7a1695a748636,SCN,2024-06-24_16h16.08.352,LearnStrategy,2023.2.3,Win32,144.092219,1,1,16,0.544444444,0.387037037,1,0,0,1.299,Gabbro_15,4,15,6,8,1.299,-0.356481481,-0.261111111,1,0,0,1.595,Andesite_rect,1,1.595,0,15,0,15,0,1,,,,,,,,,,,,,
662fbb4163d7a1695a748636,SCN,2024-06-24_16h16.08.352,LearnStrategy,2023.2.3,Win32,144.092219,1,2,1,,,,,,,,1,11,,,,,,,,,,,1,3.175,1,,,,,,-0.309259259,-0.263888889,1,0,0,3.175,Andesite_rect,0,0,0,0,1,
662fbb4163d7a1695a748636,SCN,2024-06-24_16h16.08.352,LearnStrategy,2023.2.3,Win32,144.092219,1,2,2,,,,,,,,6,05,,,,,,,,,,,6,7.791,1,,,,,,-0.091666667,-0.387962963,1,0,0,7.791,Pegmatite_rect,1,0,1,0,1,
662fbb4163d7a1695a748636,SCN,2024-06-24_16h16.08.352,LearnStrategy,2023.2.3,Win32,144.092219,1,2,3,,,,,,,,8,14,,,,,,,,,,,1,1.892,0,,,,,,-0.352777778,-0.267592593,1,0,0,1.892,Andesite_rect,2,0,2,0,1,
662fbb4163d7a1695a748636,SCN,2024-06-24_16h16.08.352,LearnStrategy,2023.2.3,Win32,144.092219,1,2,4,,,,,,,,6,09,,,,,,,,,,,4,7.644,0,,,,,,0.344444444,-0.261111111,1,0,0,7.644,Gabbro_rect,3,0,3,0,1,
662fbb4163d7a1695a748636,SCN,2024-06-24_16h16.08.352,LearnStrategy,2023.2.3,Win32,144.092219,1,2,5,,,,,,,,4,12,,,,,,,,,,,6,2.652,0,,,,,,-0.075,-0.400925926,1,0,0,2.652,Pegmatite_rect,4,0,4,0,1,
662fbb4163d7a1695a748636,SCN,2024-06-24_16h16.08.352,LearnStrategy,2023.2.3,Win32,144.092219,1,2,6,,,,,,,,8,05,,,,,,,,,,,8,3.497,1,,,,,,0.323148148,-0.389814815,1,0,0,3.497,Pumice_rect,5,0,5,0,1,
662fbb4163d7a1695a748636,SCN,2024-06-24_16h16.08.352,LearnStrategy,2023.2.3,Win32,144.092219,1,2,7,,,,,,,,5,02,,,,,,,,,,,5,1.44,1,,,,,,-0.369444444,-0.394444444,1,0,0,1.44,Obsidian_rect,6,0,6,0,1,
662fbb4163d7a1695a748636,SCN,2024-06-24_16h16.08.352,LearnStrategy,2023.2.3,Win32,144.092219,1,2,8,,,,,,,,7,10,,,,,,,,,,,1,2.438,0,,,,,,-0.330555556,-0.265740741,1,0,0,2.438,Andesite_rect,7,0,7,0,1,
662fbb4163d7a1695a748636,SCN,2024-06-24_16h16.08.352,LearnStrategy,2023.2.3,Win32,144.092219,1,2,9,,,,,,,,7,02,,,,,,,,,,,1,1.602,0,,,,,,-0.34537037,-0.248148148,1,0,0,1.602,Andesite_rect,8,0,8,0,1,
662fbb4163d7a1695a748636,SCN,2024-06-24_16h16.08.352,LearnStrategy,2023.2.3,Win32,144.092219,1,2,10,,,,,,,,1,06,,,,,,,,,,,7,6.918,0,,,,,,0.05462963,-0.40462963,1,0,0,6.918,Peridotite_rect,9,0,9,0,1,
662fbb4163d7a1695a748636,SCN,2024-06-24_16h16.08.352,LearnStrategy,2023.2.3,Win32,144.092219,1,2,11,,,,,,,,2,08,,,,,,,,,,,5,1.361,0,,,,,,-0.334259259,-0.392592593,1,0,0,1.361,Obsidian_rect,10,0,10,0,1,
662fbb4163d7a1695a748636,SCN,2024-06-24_16h16.08.352,LearnStrategy,2023.2.3,Win32,144.092219,1,2,12,,,,,,,,3,09,,,,,,,,,,,1,1.659,0,,,,,,-0.322222222,-0.257407407,1,0,0,1.659,Andesite_rect,11,0,11,0,1,
662fbb4163d7a1695a748636,SCN,2024-06-24_16h16.08.352,LearnStrategy,2023.2.3,Win32,144.092219,1,2,13,,,,,,,,4,13,,,,,,,,,,,6,1.918,0,,,,,,-0.103703704,-0.421296296,1,0,0,1.918,Pegmatite_rect,12,0,12,0,1,
662fbb4163d7a1695a748636,SCN,2024-06-24_16h16.08.352,LearnStrategy,2023.2.3,Win32,144.092219,1,2,14,,,,,,,,5,12,,,,,,,,,,,5,1.226,1,,,,,,-0.443518519,-0.412962963,1,0,0,1.226,Obsidian_rect,13,0,13,0,1,
662fbb4163d7a1695a748636,SCN,2024-06-24_16h16.08.352,LearnStrategy,2023.2.3,Win32,144.092219,1,2,15,,,,,,,,3,10,,,,,,,,,,,1,1.057,0,,,,,,-0.344444444,-0.24537037,1,0,0,1.057,Andesite_rect,14,0,14,0,1,
662fbb4163d7a1695a748636,SCN,2024-06-24_16h16.08.352,LearnStrategy,2023.2.3,Win32,144.092219,1,2,16,,,,,,,,2,02,,,,,,,,,,,2,1.308,1,,,,,,-0.156481481,-0.253703704,1,0,0,1.308,Basalt_rect,15,0,15,0,1,
662fbb4163d7a1695a748636,SCN,2024-06-24_16h16.08.352,LearnStrategy,2023.2.3,Win32,144.092219,2,1,1,-0.413888889,0.097222222,1,0,0,2.959,Pegmatite_10,6,10,4,2,2.959,0.434259259,-0.258333333,1,0,0,1.378,Gabbro_rect,4,1.378,0,0,0,0,0,1,,,,,,,,,,,,,
662fbb4163d7a1695a748636,SCN,2024-06-24_16h16.08.352,LearnStrategy,2023.2.3,Win32,144.092219,2,1,2,-0.530555556,-0.115740741,1,0,0,1.594,Peridotite_13,7,13,3,1,1.594,0.130555556,-0.25462963,1,0,0,2.014,Diorite_rect,3,2.014,0,1,0,1,0,1,,,,,,,,,,,,,
662fbb4163d7a1695a748636,SCN,2024-06-24_16h16.08.352,LearnStrategy,2023.2.3,Win32,144.092219,2,1,3,0.125,0.400925926,1,0,0,5.048,Diorite_16,3,16,6,5,5.048,-0.394444444,-0.253703704,1,0,0,0.935,Andesite_rect,1,0.935,0,2,0,2,0,1,,,,,,,,,,,,,
662fbb4163d7a1695a748636,SCN,2024-06-24_16h16.08.352,LearnStrategy,2023.2.3,Win32,144.092219,2,1,4,0.088888889,-0.102777778,1,0,0,0.991,Diorite_07,3,07,3,5,0.991,0.105555556,-0.247222222,1,0,0,1.252,Diorite_rect,3,1.252,1,3,0,3,0,1,,,,,,,,,,,,,
662fbb4163d7a1695a748636,SCN,2024-06-24_16h16.08.352,LearnStrategy,2023.2.3,Win32,144.092219,2,1,5,-0.237037037,-0.381481481,1,0,0,2.289,Pegmatite_15,6,15,1,3,2.289,0.384259259,-0.251851852,1,0,0,2.025,Gabbro_rect,4,2.025,0,4,0,4,0,1,,,,,,,,,,,,,
662fbb4163d7a1695a748636,SCN,2024-06-24_16h16.08.352,LearnStrategy,2023.2.3,Win32,144.092219,2,1,6,0.54537037,-0.383333333,1,0,0,1.635,Pumice_09,8,09,1,8,1.635,0.403703704,-0.405555556,1,0,0,1.636,Pumice_rect,8,1.636,1,5,0,5,0,1,,,,,,,,,,,,,
662fbb4163d7a1695a748636,SCN,2024-06-24_16h16.08.352,LearnStrategy,2023.2.3,Win32,144.092219,2,1,7,0.517592593,0.222222222,1,0,0,3.355,Obsidian_07,5,07,5,8,3.355,-0.037962963,-0.413888889,1,0,0,4.633,Pegmatite_rect,6,4.633,0,6,0,6,0,1,,,,,,,,,,,,,
662fbb4163d7a1695a748636,SCN,2024-06-24_16h16.08.352,LearnStrategy,2023.2.3,Win32,144.092219,2,1,8,-0.241666667,-0.110185185,1,0,0,1.568,Pegmatite_07,6,07,3,3,1.568,-0.186111111,-0.390740741,1,0,0,1.319,Pegmatite_rect,6,1.319,1,7,0,7,0,1,,,,,,,,,,,,,
662fbb4163d7a1695a748636,SCN,2024-06-24_16h16.08.352,LearnStrategy,2023.2.3,Win32,144.092219,2,1,9,0.361111111,0.057407407,1,0,0,3.639,Pegmatite_03,6,03,4,7,3.639,-0.146296296,-0.398148148,1,0,0,1.291,Pegmatite_rect,6,1.291,1,8,0,8,0,1,,,,,,,,,,,,,
662fbb4163d7a1695a748636,SCN,2024-06-24_16h16.08.352,LearnStrategy,2023.2.3,Win32,144.092219,2,1,10,0.242592593,-0.421296296,1,0,0,1.631,Pumice_16,8,16,1,6,1.631,0.37037037,-0.406481481,1,0,0,0.727,Pumice_rect,8,0.727,1,9,0,9,0,1,,,,,,,,,,,,,
662fbb4163d7a1695a748636,SCN,2024-06-24_16h16.08.352,LearnStrategy,2023.2.3,Win32,144.092219,2,1,11,-0.512962963,-0.403703704,1,0,0,1.964,Gabbro_03,4,03,1,1,1.964,-0.411111111,-0.271296296,1,0,0,1.627,Andesite_rect,1,1.627,0,10,0,10,0,1,,,,,,,,,,,,,
662fbb4163d7a1695a748636,SCN,2024-06-24_16h16.08.352,LearnStrategy,2023.2.3,Win32,144.092219,2,1,12,-0.57037037,0.118518519,1,0,0,8.425,Gabbro_16,4,16,4,1,8.425,-0.30462963,-0.237037037,1,0,0,1.831,Andesite_rect,1,1.831,0,11,0,11,0,1,,,,,,,,,,,,,
662fbb4163d7a1695a748636,SCN,2024-06-24_16h16.08.352,LearnStrategy,2023.2.3,Win32,144.092219,2,1,13,0.59537037,0.114814815,1,0,0,10.72,Peridotite_05,7,05,4,8,10.72,-0.327777778,-0.230555556,1,0,0,1.609,Andesite_rect,1,1.609,0,12,0,12,0,1,,,,,,,,,,,,,
662fbb4163d7a1695a748636,SCN,2024-06-24_16h16.08.352,LearnStrategy,2023.2.3,Win32,144.092219,2,1,14,0.042592593,-0.096296296,1,0,0,6.788,Diorite_07,3,07,3,5,6.788,-0.030555556,-0.393518519,1,0,0,1.717,Pegmatite_rect,6,1.717,0,13,0,13,0,1,,,,,,,,,,,,,
662fbb4163d7a1695a748636,SCN,2024-06-24_16h16.08.352,LearnStrategy,2023.2.3,Win32,144.092219,2,1,15,-0.046296296,-0.125925926,1,0,0,1.63,Basalt_01,2,01,3,4,1.63,-0.158333333,-0.241666667,1,0,0,2.938,Basalt_rect,2,2.938,1,14,0,14,0,1,,,,,,,,,,,,,
662fbb4163d7a1695a748636,SCN,2024-06-24_16h16.08.352,LearnStrategy,2023.2.3,Win32,144.092219,2,1,16,-0.35462963,0.100925926,1,0,0,2.257,Pegmatite_10,6,10,4,2,2.257,-0.055555556,-0.401851852,1,0,0,1.568,Pegmatite_rect,6,1.568,1,15,0,15,0,1,,,,,,,,,,,,,
662fbb4163d7a1695a748636,SCN,2024-06-24_16h16.08.352,LearnStrategy,2023.2.3,Win32,144.092219,2,2,1,,,,,,,,6,13,,,,,,,,,,,6,2.218,1,,,,,,-0.144444444,-0.394444444,1,0,0,2.218,Pegmatite_rect,0,0,0,0,1,
662fbb4163d7a1695a748636,SCN,2024-06-24_16h16.08.352,LearnStrategy,2023.2.3,Win32,144.092219,2,2,2,,,,,,,,8,15,,,,,,,,,,,8,1.193,1,,,,,,0.422222222,-0.382407407,1,0,0,1.193,Pumice_rect,1,0,1,0,1,
662fbb4163d7a1695a748636,SCN,2024-06-24_16h16.08.352,LearnStrategy,2023.2.3,Win32,144.092219,2,2,3,,,,,,,,4,14,,,,,,,,,,,7,7.145,0,,,,,,0.075925926,-0.4,1,0,0,7.145,Peridotite_rect,2,0,2,0,1,
662fbb4163d7a1695a748636,SCN,2024-06-24_16h16.08.352,LearnStrategy,2023.2.3,Win32,144.092219,2,2,4,,,,,,,,7,06,,,,,,,,,,,3,1.995,0,,,,,,0.052777778,-0.251851852,1,0,0,1.995,Diorite_rect,3,0,3,0,1,
662fbb4163d7a1695a748636,SCN,2024-06-24_16h16.08.352,LearnStrategy,2023.2.3,Win32,144.092219,2,2,5,,,,,,,,1,03,,,,,,,,,,,3,1.991,0,,,,,,0.097222222,-0.263888889,1,0,0,1.991,Diorite_rect,4,0,4,0,1,
662fbb4163d7a1695a748636,SCN,2024-06-24_16h16.08.352,LearnStrategy,2023.2.3,Win32,144.092219,2,2,6,,,,,,,,5,08,,,,,,,,,,,5,1.303,1,,,,,,-0.415740741,-0.39537037,1,0,0,1.303,Obsidian_rect,5,0,5,0,1,
662fbb4163d7a1695a748636,SCN,2024-06-24_16h16.08.352,LearnStrategy,2023.2.3,Win32,144.092219,2,2,7,,,,,,,,7,04,,,,,,,,,,,3,1.561,0,,,,,,0.082407407,-0.230555556,1,0,0,1.561,Diorite_rect,6,0,6,0,1,
662fbb4163d7a1695a748636,SCN,2024-06-24_16h16.08.352,LearnStrategy,2023.2.3,Win32,144.092219,2,2,8,,,,,,,,4,01,,,,,,,,,,,3,2.576,0,,,,,,0.07037037,-0.238888889,1,0,0,2.576,Diorite_rect,7,0,7,0,1,
662fbb4163d7a1695a748636,SCN,2024-06-24_16h16.08.352,LearnStrategy,2023.2.3,Win32,144.092219,2,2,9,,,,,,,,3,06,,,,,,,,,,,3,1.823,1,,,,,,0.091666667,-0.249074074,1,0,0,1.823,Diorite_rect,8,0,8,0,1,
662fbb4163d7a1695a748636,SCN,2024-06-24_16h16.08.352,LearnStrategy,2023.2.3,Win32,144.092219,2,2,10,,,,,,,,8,03,,,,,,,,,,,8,1.183,1,,,,,,0.377777778,-0.394444444,1,0,0,1.183,Pumice_rect,9,0,9,0,1,
662fbb4163d7a1695a748636,SCN,2024-06-24_16h16.08.352,LearnStrategy,2023.2.3,Win32,144.092219,2,2,11,,,,,,,,3,12,,,,,,,,,,,1,1.798,0,,,,,,-0.430555556,-0.266666667,1,0,0,1.798,Andesite_rect,10,0,10,0,1,
662fbb4163d7a1695a748636,SCN,2024-06-24_16h16.08.352,LearnStrategy,2023.2.3,Win32,144.092219,2,2,12,,,,,,,,6,12,,,,,,,,,,,6,1.986,1,,,,,,-0.107407407,-0.385185185,1,0,0,1.986,Pegmatite_rect,11,0,11,0,1,
662fbb4163d7a1695a748636,SCN,2024-06-24_16h16.08.352,LearnStrategy,2023.2.3,Win32,144.092219,2,2,13,,,,,,,,2,12,,,,,,,,,,,8,1.122,0,,,,,,0.383333333,-0.393518519,1,0,0,1.122,Pumice_rect,12,0,12,0,1,
662fbb4163d7a1695a748636,SCN,2024-06-24_16h16.08.352,LearnStrategy,2023.2.3,Win32,144.092219,2,2,14,,,,,,,,5,14,,,,,,,,,,,5,1.149,1,,,,,,-0.402777778,-0.402777778,1,0,0,1.149,Obsidian_rect,13,0,13,0,1,
662fbb4163d7a1695a748636,SCN,2024-06-24_16h16.08.352,LearnStrategy,2023.2.3,Win32,144.092219,2,2,15,,,,,,,,1,09,,,,,,,,,,,1,5.516,1,,,,,,-0.374074074,-0.25,1,0,0,5.516,Andesite_rect,14,0,14,0,1,
662fbb4163d7a1695a748636,SCN,2024-06-24_16h16.08.352,LearnStrategy,2023.2.3,Win32,144.092219,2,2,16,,,,,,,,2,06,,,,,,,,,,,2,3.206,1,,,,,,-0.223148148,-0.240740741,1,0,0,3.206,Basalt_rect,15,0,15,0,1,
662fbb4163d7a1695a748636,SCN,2024-06-24_16h16.08.352,LearnStrategy,2023.2.3,Win32,144.092219,3,1,1,-0.525,-0.421296296,1,0,0,2.489,Gabbro_03,4,03,1,1,2.489,-0.402777778,-0.242592593,1,0,0,1.046,Andesite_rect,1,1.046,0,0,0,0,0,1,,,,,,,,,,,,,
662fbb4163d7a1695a748636,SCN,2024-06-24_16h16.08.352,LearnStrategy,2023.2.3,Win32,144.092219,3,1,2,-0.393518519,-0.409259259,1,0,0,0.884,Diorite_13,3,13,1,2,0.884,-0.30462963,-0.265740741,1,0,0,1.217,Andesite_rect,1,1.217,0,1,0,1,0,1,,,,,,,,,,,,,
662fbb4163d7a1695a748636,SCN,2024-06-24_16h16.08.352,LearnStrategy,2023.2.3,Win32,144.092219,3,1,3,-0.118518519,-0.402777778,1,0,0,3.261,Peridotite_08,7,08,1,4,3.261,0.076851852,-0.250925926,1,0,0,3.689,Diorite_rect,3,3.689,0,2,0,2,0,1,,,,,,,,,,,,,
662fbb4163d7a1695a748636,SCN,2024-06-24_16h16.08.352,LearnStrategy,2023.2.3,Win32,144.092219,3,1,4,0.121296296,-0.422222222,1,0,0,1.634,Peridotite_15,7,15,1,5,1.634,0.094444444,-0.396296296,1,0,0,1.132,Peridotite_rect,7,1.132,1,3,0,3,0,1,,,,,,,,,,,,,
662fbb4163d7a1695a748636,SCN,2024-06-24_16h16.08.352,LearnStrategy,2023.2.3,Win32,144.092219,3,1,5,0.572222222,0.427777778,1,0,0,2.2,Gabbro_15,4,15,6,8,2.2,0.041666667,-0.265740741,1,0,0,1.32,Diorite_rect,3,1.32,0,4,0,4,0,1,,,,,,,,,,,,,
662fbb4163d7a1695a748636,SCN,2024-06-24_16h16.08.352,LearnStrategy,2023.2.3,Win32,144.092219,3,1,6,0.563888889,0.085185185,1,0,0,1.104,Peridotite_05,7,05,4,8,1.104,0.085185185,-0.412962963,1,0,0,1.751,Peridotite_rect,7,1.751,1,5,0,5,0,1,,,,,,,,,,,,,
662fbb4163d7a1695a748636,SCN,2024-06-24_16h16.08.352,LearnStrategy,2023.2.3,Win32,144.092219,3,1,7,-0.37037037,0.07962963,1,0,0,1.058,Pegmatite_10,6,10,4,2,1.058,-0.131481481,-0.393518519,1,0,0,1.059,Pegmatite_rect,6,1.059,1,6,0,6,0,1,,,,,,,,,,,,,
662fbb4163d7a1695a748636,SCN,2024-06-24_16h16.08.352,LearnStrategy,2023.2.3,Win32,144.092219,3,1,8,-0.558333333,0.080555556,1,0,0,1.004,Gabbro_16,4,16,4,1,1.004,-0.378703704,-0.253703704,1,0,0,2.623,Andesite_rect,1,2.623,0,7,0,7,0,1,,,,,,,,,,,,,
662fbb4163d7a1695a748636,SCN,2024-06-24_16h16.08.352,LearnStrategy,2023.2.3,Win32,144.092219,3,1,9,-0.112962963,-0.265740741,1,0,0,4.098,Diorite_14,3,14,2,4,4.098,0.046296296,-0.260185185,1,0,0,0.823,Diorite_rect,3,0.823,1,8,0,8,0,1,,,,,,,,,,,,,
662fbb4163d7a1695a748636,SCN,2024-06-24_16h16.08.352,LearnStrategy,2023.2.3,Win32,144.092219,3,1,10,0.085185185,0.388888889,1,0,0,1.074,Diorite_16,3,16,6,5,1.074,0.071296296,-0.232407407,1,0,0,0.717,Diorite_rect,3,0.717,1,9,0,9,0,1,,,,,,,,,,,,,
662fbb4163d7a1695a748636,SCN,2024-06-24_16h16.08.352,LearnStrategy,2023.2.3,Win32,144.092219,3,1,11,0.241666667,0.249074074,1,0,0,1.536,Gabbro_05,4,05,5,6,1.536,-0.067592593,-0.407407407,1,0,0,1.562,Pegmatite_rect,6,1.562,0,10,0,10,0,1,,,,,,,,,,,,,
662fbb4163d7a1695a748636,SCN,2024-06-24_16h16.08.352,LearnStrategy,2023.2.3,Win32,144.092219,3,1,12,-0.235185185,0.237962963,1,0,0,2.214,Basalt_09,2,09,5,3,2.214,-0.124074074,-0.269444444,1,0,0,0.848,Basalt_rect,2,0.848,1,11,0,11,0,1,,,,,,,,,,,,,
662fbb4163d7a1695a748636,SCN,2024-06-24_16h16.08.352,LearnStrategy,2023.2.3,Win32,144.092219,3,1,13,0.212037037,-0.251851852,1,0,0,1.519,Pegmatite_08,6,08,2,6,1.519,-0.048148148,-0.415740741,1,0,0,5.514,Pegmatite_rect,6,5.514,1,12,0,12,0,1,,,,,,,,,,,,,
662fbb4163d7a1695a748636,SCN,2024-06-24_16h16.08.352,LearnStrategy,2023.2.3,Win32,144.092219,3,1,14,-0.237037037,-0.126851852,1,0,0,1.396,Pegmatite_07,6,07,3,3,1.396,0.407407407,-0.237962963,1,0,0,2.177,Gabbro_rect,4,2.177,0,13,0,13,0,1,,,,,,,,,,,,,
662fbb4163d7a1695a748636,SCN,2024-06-24_16h16.08.352,LearnStrategy,2023.2.3,Win32,144.092219,3,1,15,-0.360185185,-0.125925926,1,0,0,1.874,Andesite_16,1,16,3,2,1.874,0.084259259,-0.378703704,1,0,0,2.511,Peridotite_rect,7,2.511,0,14,0,14,0,1,,,,,,,,,,,,,
662fbb4163d7a1695a748636,SCN,2024-06-24_16h16.08.352,LearnStrategy,2023.2.3,Win32,144.092219,3,1,16,-0.537962963,-0.130555556,1,0,0,1.566,Peridotite_13,7,13,3,1,1.566,0.056481481,-0.419444444,1,0,0,1.759,Peridotite_rect,7,1.759,1,15,0,15,0,1,,,,,,,,,,,,,
662fbb4163d7a1695a748636,SCN,2024-06-24_16h16.08.352,LearnStrategy,2023.2.3,Win32,144.092219,3,2,1,,,,,,,,3,08,,,,,,,,,,,3,4.109,1,,,,,,0.096296296,-0.257407407,1,0,0,4.109,Diorite_rect,0,0,0,0,1,
662fbb4163d7a1695a748636,SCN,2024-06-24_16h16.08.352,LearnStrategy,2023.2.3,Win32,144.092219,3,2,2,,,,,,,,6,16,,,,,,,,,,,6,5.084,1,,,,,,-0.040740741,-0.416666667,1,0,0,5.084,Pegmatite_rect,1,0,1,0,1,
662fbb4163d7a1695a748636,SCN,2024-06-24_16h16.08.352,LearnStrategy,2023.2.3,Win32,144.092219,3,2,3,,,,,,,,7,16,,,,,,,,,,,4,1.26,0,,,,,,0.324074074,-0.248148148,1,0,0,1.26,Gabbro_rect,2,0,2,0,1,
662fbb4163d7a1695a748636,SCN,2024-06-24_16h16.08.352,LearnStrategy,2023.2.3,Win32,144.092219,3,2,4,,,,,,,,7,07,,,,,,,,,,,7,5.346,1,,,,,,0.123148148,-0.411111111,1,0,0,5.346,Peridotite_rect,3,0,3,0,1,
662fbb4163d7a1695a748636,SCN,2024-06-24_16h16.08.352,LearnStrategy,2023.2.3,Win32,144.092219,3,2,5,,,,,,,,8,08,,,,,,,,,,,8,1.09,1,,,,,,0.333333333,-0.396296296,1,0,0,1.09,Pumice_rect,4,0,4,0,1,
662fbb4163d7a1695a748636,SCN,2024-06-24_16h16.08.352,LearnStrategy,2023.2.3,Win32,144.092219,3,2,6,,,,,,,,5,05,,,,,,,,,,,5,1.549,1,,,,,,-0.349074074,-0.39537037,1,0,0,1.549,Obsidian_rect,5,0,5,0,1,
662fbb4163d7a1695a748636,SCN,2024-06-24_16h16.08.352,LearnStrategy,2023.2.3,Win32,144.092219,3,2,7,,,,,,,,6,11,,,,,,,,,,,6,8.291,1,,,,,,-0.056481481,-0.388888889,1,0,0,8.291,Pegmatite_rect,6,0,6,0,1,
662fbb4163d7a1695a748636,SCN,2024-06-24_16h16.08.352,LearnStrategy,2023.2.3,Win32,144.092219,3,2,8,,,,,,,,2,16,,,,,,,,,,,8,3.28,0,,,,,,0.408333333,-0.396296296,1,0,0,3.28,Pumice_rect,7,0,7,0,1,
662fbb4163d7a1695a748636,SCN,2024-06-24_16h16.08.352,LearnStrategy,2023.2.3,Win32,144.092219,3,2,9,,,,,,,,1,01,,,,,,,,,,,1,2.01,1,,,,,,-0.300925926,-0.237962963,1,0,0,2.01,Andesite_rect,8,0,8,0,1,
662fbb4163d7a1695a748636,SCN,2024-06-24_16h16.08.352,LearnStrategy,2023.2.3,Win32,144.092219,3,2,10,,,,,,,,2,11,,,,,,,,,,,8,1.587,0,,,,,,0.358333333,-0.383333333,1,0,0,1.587,Pumice_rect,9,0,9,0,1,
662fbb4163d7a1695a748636,SCN,2024-06-24_16h16.08.352,LearnStrategy,2023.2.3,Win32,144.092219,3,2,11,,,,,,,,1,10,,,,,,,,,,,6,4.979,0,,,,,,-0.073148148,-0.392592593,1,0,0,4.979,Pegmatite_rect,10,0,10,0,1,
662fbb4163d7a1695a748636,SCN,2024-06-24_16h16.08.352,LearnStrategy,2023.2.3,Win32,144.092219,3,2,12,,,,,,,,5,06,,,,,,,,,,,5,1.328,1,,,,,,-0.427777778,-0.412037037,1,0,0,1.328,Obsidian_rect,11,0,11,0,1,
662fbb4163d7a1695a748636,SCN,2024-06-24_16h16.08.352,LearnStrategy,2023.2.3,Win32,144.092219,3,2,13,,,,,,,,4,08,,,,,,,,,,,1,6.849,0,,,,,,-0.367592593,-0.247222222,1,0,0,6.849,Andesite_rect,12,0,12,0,1,
662fbb4163d7a1695a748636,SCN,2024-06-24_16h16.08.352,LearnStrategy,2023.2.3,Win32,144.092219,3,2,14,,,,,,,,3,15,,,,,,,,,,,4,3.431,0,,,,,,0.363888889,-0.248148148,1,0,0,3.431,Gabbro_rect,13,0,13,0,1,
662fbb4163d7a1695a748636,SCN,2024-06-24_16h16.08.352,LearnStrategy,2023.2.3,Win32,144.092219,3,2,15,,,,,,,,4,09,,,,,,,,,,,1,3.99,0,,,,,,-0.310185185,-0.228703704,1,0,0,3.99,Andesite_rect,14,0,14,0,1,
662fbb4163d7a1695a748636,SCN,2024-06-24_16h16.08.352,LearnStrategy,2023.2.3,Win32,144.092219,3,2,16,,,,,,,,8,02,,,,,,,,,,,8,1.755,1,,,,,,0.362962963,-0.391666667,1,0,0,1.755,Pumice_rect,15,0,15,0,1,
662fbb4163d7a1695a748636,SCN,2024-06-24_16h16.08.352,LearnStrategy,2023.2.3,Win32,144.092219,4,1,1,0.393518519,-0.253703704,1,0,0,3.539,Diorite_11,3,11,2,7,3.539,0.378703704,-0.240740741,1,0,0,1.454,Gabbro_rect,4,1.454,0,0,0,0,0,1,,,,,,,,,,,,,
662fbb4163d7a1695a748636,SCN,2024-06-24_16h16.08.352,LearnStrategy,2023.2.3,Win32,144.092219,4,1,2,0.196296296,-0.272222222,1,0,0,0.992,Pegmatite_08,6,08,2,6,0.992,0.361111111,-0.25,1,0,0,0.935,Gabbro_rect,4,0.935,0,1,0,1,0,1,,,,,,,,,,,,,
662fbb4163d7a1695a748636,SCN,2024-06-24_16h16.08.352,LearnStrategy,2023.2.3,Win32,144.092219,4,1,3,-0.073148148,-0.25462963,1,0,0,1.602,Diorite_14,3,14,2,4,1.602,-0.335185185,-0.249074074,1,0,0,0.706,Andesite_rect,1,0.706,0,2,0,2,0,1,,,,,,,,,,,,,
662fbb4163d7a1695a748636,SCN,2024-06-24_16h16.08.352,LearnStrategy,2023.2.3,Win32,144.092219,4,1,4,-0.521296296,-0.272222222,1,0,0,1.569,Gabbro_10,4,10,2,1,1.569,-0.172222222,-0.252777778,1,0,0,2.754,Basalt_rect,2,2.754,0,3,0,3,0,1,,,,,,,,,,,,,
662fbb4163d7a1695a748636,SCN,2024-06-24_16h16.08.352,LearnStrategy,2023.2.3,Win32,144.092219,4,1,5,-0.109259259,0.085185185,1,0,0,1.884,Diorite_02,3,02,4,4,1.884,0.115740741,-0.230555556,1,0,0,1.146,Diorite_rect,3,1.146,1,4,0,4,0,1,,,,,,,,,,,,,
662fbb4163d7a1695a748636,SCN,2024-06-24_16h16.08.352,LearnStrategy,2023.2.3,Win32,144.092219,4,1,6,0.24537037,0.072222222,1,0,0,1.054,Andesite_05,1,05,4,6,1.054,-0.324074074,-0.234259259,1,0,0,1.067,Andesite_rect,1,1.067,1,5,0,5,0,1,,,,,,,,,,,,,
662fbb4163d7a1695a748636,SCN,2024-06-24_16h16.08.352,LearnStrategy,2023.2.3,Win32,144.092219,4,1,7,0.396296296,0.119444444,1,0,0,0.986,Pegmatite_03,6,03,4,7,0.986,-0.05462963,-0.388888889,1,0,0,1.677,Pegmatite_rect,6,1.677,1,6,0,6,0,1,,,,,,,,,,,,,
662fbb4163d7a1695a748636,SCN,2024-06-24_16h16.08.352,LearnStrategy,2023.2.3,Win32,144.092219,4,1,8,-0.50462963,0.252777778,1,0,0,1.424,Basalt_14,2,14,5,1,1.424,0.441666667,-0.40462963,1,0,0,1.372,Pumice_rect,8,1.372,0,7,0,7,0,1,,,,,,,,,,,,,
662fbb4163d7a1695a748636,SCN,2024-06-24_16h16.08.352,LearnStrategy,2023.2.3,Win32,144.092219,4,1,9,-0.357407407,0.263888889,1,0,0,0.953,Basalt_10,2,10,5,2,0.953,-0.187962963,-0.236111111,1,0,0,2.589,Basalt_rect,2,2.589,1,8,0,8,0,1,,,,,,,,,,,,,
662fbb4163d7a1695a748636,SCN,2024-06-24_16h16.08.352,LearnStrategy,2023.2.3,Win32,144.092219,4,1,10,-0.105555556,-0.275925926,1,0,0,2.056,Diorite_14,3,14,2,4,2.056,-0.102777778,-0.262962963,1,0,0,0.474,Basalt_rect,2,0.474,0,9,0,9,0,1,,,,,,,,,,,,,
662fbb4163d7a1695a748636,SCN,2024-06-24_16h16.08.352,LearnStrategy,2023.2.3,Win32,144.092219,4,1,11,0.041666667,-0.064814815,1,0,0,1.78,Diorite_07,3,07,3,5,1.78,0.088888889,-0.234259259,1,0,0,5.176,Diorite_rect,3,5.176,1,10,0,10,0,1,,,,,,,,,,,,,
662fbb4163d7a1695a748636,SCN,2024-06-24_16h16.08.352,LearnStrategy,2023.2.3,Win32,144.092219,4,1,12,0.058333333,0.252777778,1,0,0,2.908,Obsidian_10,5,10,5,5,2.908,-0.398148148,-0.394444444,1,0,0,1,Obsidian_rect,5,1,1,11,0,11,0,1,,,,,,,,,,,,,
662fbb4163d7a1695a748636,SCN,2024-06-24_16h16.08.352,LearnStrategy,2023.2.3,Win32,144.092219,4,1,13,-0.218518519,0.225925926,1,0,0,1.298,Basalt_09,2,09,5,3,1.298,-0.197222222,-0.232407407,1,0,0,1.321,Basalt_rect,2,1.321,1,12,0,12,0,1,,,,,,,,,,,,,
662fbb4163d7a1695a748636,SCN,2024-06-24_16h16.08.352,LearnStrategy,2023.2.3,Win32,144.092219,4,1,14,0.096296296,0.411111111,1,0,0,1.099,Diorite_16,3,16,6,5,1.099,0.062962963,-0.263888889,1,0,0,0.999,Diorite_rect,3,0.999,1,13,0,13,0,1,,,,,,,,,,,,,
662fbb4163d7a1695a748636,SCN,2024-06-24_16h16.08.352,LearnStrategy,2023.2.3,Win32,144.092219,4,1,15,-0.230555556,-0.425,1,0,0,1.124,Pegmatite_15,6,15,1,3,1.124,-0.058333333,-0.394444444,1,0,0,1.009,Pegmatite_rect,6,1.009,1,14,0,14,0,1,,,,,,,,,,,,,
662fbb4163d7a1695a748636,SCN,2024-06-24_16h16.08.352,LearnStrategy,2023.2.3,Win32,144.092219,4,1,16,0.071296296,-0.092592593,1,0,0,1.573,Diorite_07,3,07,3,5,1.573,0.062037037,-0.402777778,1,0,0,1.001,Peridotite_rect,7,1.001,0,15,0,15,0,1,,,,,,,,,,,,,
662fbb4163d7a1695a748636,SCN,2024-06-24_16h16.08.352,LearnStrategy,2023.2.3,Win32,144.092219,4,2,1,,,,,,,,1,06,,,,,,,,,,,3,6.839,0,,,,,,0.12962963,-0.244444444,1,0,0,6.839,Diorite_rect,0,0,0,0,1,
662fbb4163d7a1695a748636,SCN,2024-06-24_16h16.08.352,LearnStrategy,2023.2.3,Win32,144.092219,4,2,2,,,,,,,,6,12,,,,,,,,,,,6,4.502,1,,,,,,-0.07037037,-0.380555556,1,0,0,4.502,Pegmatite_rect,1,0,1,0,1,
662fbb4163d7a1695a748636,SCN,2024-06-24_16h16.08.352,LearnStrategy,2023.2.3,Win32,144.092219,4,2,3,,,,,,,,3,15,,,,,,,,,,,1,7.055,0,,,,,,-0.389814815,-0.253703704,1,0,0,7.055,Andesite_rect,2,0,2,0,1,
662fbb4163d7a1695a748636,SCN,2024-06-24_16h16.08.352,LearnStrategy,2023.2.3,Win32,144.092219,4,2,4,,,,,,,,6,11,,,,,,,,,,,6,1.221,1,,,,,,-0.064814815,-0.383333333,1,0,0,1.221,Pegmatite_rect,3,0,3,0,1,
662fbb4163d7a1695a748636,SCN,2024-06-24_16h16.08.352,LearnStrategy,2023.2.3,Win32,144.092219,4,2,5,,,,,,,,8,08,,,,,,,,,,,8,1.063,1,,,,,,0.437037037,-0.408333333,1,0,0,1.063,Pumice_rect,4,0,4,0,1,
662fbb4163d7a1695a748636,SCN,2024-06-24_16h16.08.352,LearnStrategy,2023.2.3,Win32,144.092219,4,2,6,,,,,,,,4,14,,,,,,,,,,,2,4.034,0,,,,,,-0.164814815,-0.232407407,1,0,0,4.034,Basalt_rect,5,0,5,0,1,
662fbb4163d7a1695a748636,SCN,2024-06-24_16h16.08.352,LearnStrategy,2023.2.3,Win32,144.092219,4,2,7,,,,,,,,1,11,,,,,,,,,,,7,2.978,0,,,,,,0.169444444,-0.380555556,1,0,0,2.978,Peridotite_rect,6,0,6,0,1,
662fbb4163d7a1695a748636,SCN,2024-06-24_16h16.08.352,LearnStrategy,2023.2.3,Win32,144.092219,4,2,8,,,,,,,,2,12,,,,,,,,,,,8,1.589,0,,,,,,0.414814815,-0.403703704,1,0,0,1.589,Pumice_rect,7,0,7,0,1,
662fbb4163d7a1695a748636,SCN,2024-06-24_16h16.08.352,LearnStrategy,2023.2.3,Win32,144.092219,4,2,9,,,,,,,,4,08,,,,,,,,,,,7,1.515,0,,,,,,0.086111111,-0.412962963,1,0,0,1.515,Peridotite_rect,8,0,8,0,1,
662fbb4163d7a1695a748636,SCN,2024-06-24_16h16.08.352,LearnStrategy,2023.2.3,Win32,144.092219,4,2,10,,,,,,,,7,02,,,,,,,,,,,4,2.682,0,,,,,,0.364814815,-0.258333333,1,0,0,2.682,Gabbro_rect,9,0,9,0,1,
662fbb4163d7a1695a748636,SCN,2024-06-24_16h16.08.352,LearnStrategy,2023.2.3,Win32,144.092219,4,2,11,,,,,,,,3,10,,,,,,,,,,,1,1.153,0,,,,,,-0.391666667,-0.230555556,1,0,0,1.153,Andesite_rect,10,0,10,0,1,
662fbb4163d7a1695a748636,SCN,2024-06-24_16h16.08.352,LearnStrategy,2023.2.3,Win32,144.092219,4,2,12,,,,,,,,5,02,,,,,,,,,,,5,1.136,1,,,,,,-0.355555556,-0.383333333,1,0,0,1.136,Obsidian_rect,11,0,11,0,1,
662fbb4163d7a1695a748636,SCN,2024-06-24_16h16.08.352,LearnStrategy,2023.2.3,Win32,144.092219,4,2,13,,,,,,,,2,06,,,,,,,,,,,5,2.221,0,,,,,,-0.340740741,-0.408333333,1,0,0,2.221,Obsidian_rect,12,0,12,0,1,
662fbb4163d7a1695a748636,SCN,2024-06-24_16h16.08.352,LearnStrategy,2023.2.3,Win32,144.092219,4,2,14,,,,,,,,5,08,,,,,,,,,,,5,1.424,1,,,,,,-0.349074074,-0.393518519,1,0,0,1.424,Obsidian_rect,13,0,13,0,1,
662fbb4163d7a1695a748636,SCN,2024-06-24_16h16.08.352,LearnStrategy,2023.2.3,Win32,144.092219,4,2,15,,,,,,,,8,15,,,,,,,,,,,8,1.257,1,,,,,,0.374074074,-0.40462963,1,0,0,1.257,Pumice_rect,14,0,14,0,1,
662fbb4163d7a1695a748636,SCN,2024-06-24_16h16.08.352,LearnStrategy,2023.2.3,Win32,144.092219,4,2,16,,,,,,,,7,04,,,,,,,,,,,7,1.659,1,,,,,,0.092592593,-0.409259259,1,0,0,1.659,Peridotite_rect,15,0,15,0,1,
662fbb4163d7a1695a748636,SCN,2024-06-24_16h16.08.352,LearnStrategy,2023.2.3,Win32,144.092219,5,1,1,-0.556481481,0.422222222,1,0,0,0.964,Pumice_06,8,06,6,1,0.964,0.367592593,-0.393518519,1,0,0,1.411,Pumice_rect,8,1.411,1,0,0,0,0,1,,,,,,,,,,,,,
662fbb4163d7a1695a748636,SCN,2024-06-24_16h16.08.352,LearnStrategy,2023.2.3,Win32,144.092219,5,1,2,-0.400925926,0.432407407,1,0,0,0.798,Andesite_04,1,04,6,2,0.798,0.196296296,-0.268518519,1,0,0,1.305,Diorite_rect,3,1.305,0,1,0,1,0,1,,,,,,,,,,,,,
662fbb4163d7a1695a748636,SCN,2024-06-24_16h16.08.352,LearnStrategy,2023.2.3,Win32,144.092219,5,1,3,-0.206481481,0.375,1,0,0,1.046,Peridotite_14,7,14,6,3,1.046,0.078703704,-0.394444444,1,0,0,1.517,Peridotite_rect,7,1.517,1,2,0,2,0,1,,,,,,,,,,,,,
662fbb4163d7a1695a748636,SCN,2024-06-24_16h16.08.352,LearnStrategy,2023.2.3,Win32,144.092219,5,1,4,0.094444444,0.437962963,1,0,0,1.243,Diorite_16,3,16,6,5,1.243,-0.137037037,-0.412037037,1,0,0,2.04,Pegmatite_rect,6,2.04,0,3,0,3,0,1,,,,,,,,,,,,,
662fbb4163d7a1695a748636,SCN,2024-06-24_16h16.08.352,LearnStrategy,2023.2.3,Win32,144.092219,5,1,5,0.214814815,0.401851852,1,0,0,1.422,Andesite_07,1,07,6,6,1.422,0.111111111,-0.244444444,1,0,0,0.914,Diorite_rect,3,0.914,0,4,0,4,0,1,,,,,,,,,,,,,
662fbb4163d7a1695a748636,SCN,2024-06-24_16h16.08.352,LearnStrategy,2023.2.3,Win32,144.092219,5,1,6,0.526851852,0.391666667,1,0,0,0.752,Gabbro_15,4,15,6,8,0.752,0.067592593,-0.394444444,1,0,0,1.953,Peridotite_rect,7,1.953,0,5,0,5,0,1,,,,,,,,,,,,,
662fbb4163d7a1695a748636,SCN,2024-06-24_16h16.08.352,LearnStrategy,2023.2.3,Win32,144.092219,5,1,7,-0.503703704,0.248148148,1,0,0,1.042,Basalt_14,2,14,5,1,1.042,0.357407407,-0.410185185,1,0,0,1.366,Pumice_rect,8,1.366,0,6,0,6,0,1,,,,,,,,,,,,,
662fbb4163d7a1695a748636,SCN,2024-06-24_16h16.08.352,LearnStrategy,2023.2.3,Win32,144.092219,5,1,8,-0.415740741,0.262037037,1,0,0,0.717,Basalt_10,2,10,5,2,0.717,-0.359259259,-0.386111111,1,0,0,0.911,Obsidian_rect,5,0.911,0,7,0,7,0,1,,,,,,,,,,,,,
662fbb4163d7a1695a748636,SCN,2024-06-24_16h16.08.352,LearnStrategy,2023.2.3,Win32,144.092219,5,1,9,-0.249074074,0.262037037,1,0,0,1.146,Basalt_09,2,09,5,3,1.146,-0.185185185,-0.261111111,1,0,0,0.843,Basalt_rect,2,0.843,1,8,0,8,0,1,,,,,,,,,,,,,
662fbb4163d7a1695a748636,SCN,2024-06-24_16h16.08.352,LearnStrategy,2023.2.3,Win32,144.092219,5,1,10,-0.072222222,0.286111111,1,0,0,0.728,Andesite_02,1,02,5,4,0.728,-0.121296296,-0.386111111,1,0,0,1.694,Pegmatite_rect,6,1.694,0,9,0,9,0,1,,,,,,,,,,,,,
662fbb4163d7a1695a748636,SCN,2024-06-24_16h16.08.352,LearnStrategy,2023.2.3,Win32,144.092219,5,1,11,0.226851852,0.268518519,1,0,0,1.139,Gabbro_05,4,05,5,6,1.139,-0.089814815,-0.405555556,1,0,0,1.383,Pegmatite_rect,6,1.383,0,10,0,10,0,1,,,,,,,,,,,,,
662fbb4163d7a1695a748636,SCN,2024-06-24_16h16.08.352,LearnStrategy,2023.2.3,Win32,144.092219,5,1,12,0.422222222,0.276851852,1,0,0,0.877,Peridotite_12,7,12,5,7,0.877,0.115740741,-0.253703704,1,0,0,1.488,Diorite_rect,3,1.488,0,11,0,11,0,1,,,,,,,,,,,,,
662fbb4163d7a1695a748636,SCN,2024-06-24_16h16.08.352,LearnStrategy,2023.2.3,Win32,144.092219,5,1,13,0.388888889,0.083333333,1,0,0,2.401,Pegmatite_03,6,03,4,7,2.401,-0.086111111,-0.401851852,1,0,0,1.116,Pegmatite_rect,6,1.116,1,12,0,12,0,1,,,,,,,,,,,,,
662fbb4163d7a1695a748636,SCN,2024-06-24_16h16.08.352,LearnStrategy,2023.2.3,Win32,144.092219,5,1,14,0.373148148,0.280555556,1,0,0,0.819,Peridotite_12,7,12,5,7,0.819,0.103703704,-0.378703704,1,0,0,1.836,Peridotite_rect,7,1.836,1,13,0,13,0,1,,,,,,,,,,,,,
662fbb4163d7a1695a748636,SCN,2024-06-24_16h16.08.352,LearnStrategy,2023.2.3,Win32,144.092219,5,1,15,-0.097222222,0.425925926,1,0,0,1.374,Andesite_14,1,14,6,4,1.374,-0.357407407,-0.234259259,1,0,0,1.112,Andesite_rect,1,1.112,1,14,0,14,0,1,,,,,,,,,,,,,
662fbb4163d7a1695a748636,SCN,2024-06-24_16h16.08.352,LearnStrategy,2023.2.3,Win32,144.092219,5,1,16,-0.086111111,-0.367592593,1,0,0,0.916,Peridotite_08,7,08,1,4,0.916,0.05,-0.233333333,1,0,0,2.467,Diorite_rect,3,2.467,0,15,0,15,0,1,,,,,,,,,,,,,
662fbb4163d7a1695a748636,SCN,2024-06-24_16h16.08.352,LearnStrategy,2023.2.3,Win32,144.092219,5,2,1,,,,,,,,4,13,,,,,,,,,,,4,3.587,1,,,,,,0.367592593,-0.262962963,1,0,0,3.587,Gabbro_rect,0,0,0,0,1,
662fbb4163d7a1695a748636,SCN,2024-06-24_16h16.08.352,LearnStrategy,2023.2.3,Win32,144.092219,5,2,2,,,,,,,,6,09,,,,,,,,,,,6,3.238,1,,,,,,-0.150925926,-0.384259259,1,0,0,3.238,Pegmatite_rect,1,0,1,0,1,
662fbb4163d7a1695a748636,SCN,2024-06-24_16h16.08.352,LearnStrategy,2023.2.3,Win32,144.092219,5,2,3,,,,,,,,8,05,,,,,,,,,,,8,1.078,1,,,,,,0.410185185,-0.37962963,1,0,0,1.078,Pumice_rect,2,0,2,0,1,
662fbb4163d7a1695a748636,SCN,2024-06-24_16h16.08.352,LearnStrategy,2023.2.3,Win32,144.092219,5,2,4,,,,,,,,1,01,,,,,,,,,,,4,5.86,0,,,,,,0.413888889,-0.237962963,1,0,0,5.86,Gabbro_rect,3,0,3,0,1,
662fbb4163d7a1695a748636,SCN,2024-06-24_16h16.08.352,LearnStrategy,2023.2.3,Win32,144.092219,5,2,5,,,,,,,,5,12,,,,,,,,,,,5,1.092,1,,,,,,-0.362962963,-0.403703704,1,0,0,1.092,Obsidian_rect,4,0,4,0,1,
662fbb4163d7a1695a748636,SCN,2024-06-24_16h16.08.352,LearnStrategy,2023.2.3,Win32,144.092219,5,2,6,,,,,,,,7,10,,,,,,,,,,,7,5.272,1,,,,,,0.147222222,-0.407407407,1,0,0,5.272,Peridotite_rect,5,0,5,0,1,
662fbb4163d7a1695a748636,SCN,2024-06-24_16h16.08.352,LearnStrategy,2023.2.3,Win32,144.092219,5,2,7,,,,,,,,2,16,,,,,,,,,,,2,4.001,1,,,,,,-0.151851852,-0.253703704,1,0,0,4.001,Basalt_rect,6,0,6,0,1,
662fbb4163d7a1695a748636,SCN,2024-06-24_16h16.08.352,LearnStrategy,2023.2.3,Win32,144.092219,5,2,8,,,,,,,,5,14,,,,,,,,,,,5,1.128,1,,,,,,-0.455555556,-0.399074074,1,0,0,1.128,Obsidian_rect,7,0,7,0,1,
662fbb4163d7a1695a748636,SCN,2024-06-24_16h16.08.352,LearnStrategy,2023.2.3,Win32,144.092219,5,2,9,,,,,,,,8,03,,,,,,,,,,,8,2.516,1,,,,,,0.457407407,-0.380555556,1,0,0,2.516,Pumice_rect,8,0,8,0,1,
662fbb4163d7a1695a748636,SCN,2024-06-24_16h16.08.352,LearnStrategy,2023.2.3,Win32,144.092219,5,2,10,,,,,,,,6,13,,,,,,,,,,,6,3.857,1,,,,,,-0.066666667,-0.408333333,1,0,0,3.857,Pegmatite_rect,9,0,9,0,1,
662fbb4163d7a1695a748636,SCN,2024-06-24_16h16.08.352,LearnStrategy,2023.2.3,Win32,144.092219,5,2,11,,,,,,,,2,08,,,,,,,,,,,2,3.089,1,,,,,,-0.132407407,-0.235185185,1,0,0,3.089,Basalt_rect,10,0,10,0,1,
662fbb4163d7a1695a748636,SCN,2024-06-24_16h16.08.352,LearnStrategy,2023.2.3,Win32,144.092219,5,2,12,,,,,,,,1,10,,,,,,,,,,,1,2.23,1,,,,,,-0.366666667,-0.233333333,1,0,0,2.23,Andesite_rect,11,0,11,0,1,
662fbb4163d7a1695a748636,SCN,2024-06-24_16h16.08.352,LearnStrategy,2023.2.3,Win32,144.092219,5,2,13,,,,,,,,7,06,,,,,,,,,,,7,1.889,1,,,,,,0.063888889,-0.419444444,1,0,0,1.889,Peridotite_rect,12,0,12,0,1,
662fbb4163d7a1695a748636,SCN,2024-06-24_16h16.08.352,LearnStrategy,2023.2.3,Win32,144.092219,5,2,14,,,,,,,,3,08,,,,,,,,,,,3,0.817,1,,,,,,0.084259259,-0.257407407,1,0,0,0.817,Diorite_rect,13,0,13,0,1,
662fbb4163d7a1695a748636,SCN,2024-06-24_16h16.08.352,LearnStrategy,2023.2.3,Win32,144.092219,5,2,15,,,,,,,,4,09,,,,,,,,,,,4,3.865,1,,,,,,0.321296296,-0.25462963,1,0,0,3.865,Gabbro_rect,14,0,14,0,1,
662fbb4163d7a1695a748636,SCN,2024-06-24_16h16.08.352,LearnStrategy,2023.2.3,Win32,144.092219,5,2,16,,,,,,,,3,09,,,,,,,,,,,3,3.832,1,,,,,,0.10462963,-0.232407407,1,0,0,3.832,Diorite_rect,15,0,15,0,1,
662fbb4163d7a1695a748636,SCN,2024-06-24_16h16.08.352,LearnStrategy,2023.2.3,Win32,144.092219,6,1,1,-0.568518519,0.071296296,1,0,0,1.102,Gabbro_16,4,16,4,1,1.102,0.110185185,-0.412962963,1,0,0,2.591,Peridotite_rect,7,2.591,0,0,0,0,0,1,,,,,,,,,,,,,
662fbb4163d7a1695a748636,SCN,2024-06-24_16h16.08.352,LearnStrategy,2023.2.3,Win32,144.092219,6,1,2,-0.383333333,0.080555556,1,0,0,0.649,Pegmatite_10,6,10,4,2,0.649,-0.158333333,-0.411111111,1,0,0,1.547,Pegmatite_rect,6,1.547,1,1,0,1,0,1,,,,,,,,,,,,,
662fbb4163d7a1695a748636,SCN,2024-06-24_16h16.08.352,LearnStrategy,2023.2.3,Win32,144.092219,6,1,3,-0.2,0.077777778,1,0,0,1.222,Pumice_13,8,13,4,3,1.222,0.375925926,-0.388888889,1,0,0,0.941,Pumice_rect,8,0.941,1,2,0,2,0,1,,,,,,,,,,,,,
662fbb4163d7a1695a748636,SCN,2024-06-24_16h16.08.352,LearnStrategy,2023.2.3,Win32,144.092219,6,1,4,-0.096296296,0.071296296,1,0,0,0.584,Diorite_02,3,02,4,4,0.584,0.139814815,-0.268518519,1,0,0,1.322,Diorite_rect,3,1.322,1,3,0,3,0,1,,,,,,,,,,,,,
662fbb4163d7a1695a748636,SCN,2024-06-24_16h16.08.352,LearnStrategy,2023.2.3,Win32,144.092219,6,1,5,0.12037037,0.07037037,1,0,0,1.377,Obsidian_09,5,09,4,5,1.377,-0.413888889,-0.390740741,1,0,0,1.537,Obsidian_rect,5,1.537,1,4,0,4,0,1,,,,,,,,,,,,,
662fbb4163d7a1695a748636,SCN,2024-06-24_16h16.08.352,LearnStrategy,2023.2.3,Win32,144.092219,6,1,6,0.24537037,0.064814815,1,0,0,0.821,Andesite_05,1,05,4,6,0.821,-0.355555556,-0.248148148,1,0,0,1.364,Andesite_rect,1,1.364,1,5,0,5,0,1,,,,,,,,,,,,,
662fbb4163d7a1695a748636,SCN,2024-06-24_16h16.08.352,LearnStrategy,2023.2.3,Win32,144.092219,6,1,7,0.412037037,0.05,1,0,0,1.007,Pegmatite_03,6,03,4,7,1.007,-0.041666667,-0.391666667,1,0,0,1.275,Pegmatite_rect,6,1.275,1,6,0,6,0,1,,,,,,,,,,,,,
662fbb4163d7a1695a748636,SCN,2024-06-24_16h16.08.352,LearnStrategy,2023.2.3,Win32,144.092219,6,1,8,0.52037037,0.112962963,1,0,0,0.823,Peridotite_05,7,05,4,8,0.823,0.133333333,-0.392592593,1,0,0,1.266,Peridotite_rect,7,1.266,1,7,0,7,0,1,,,,,,,,,,,,,
662fbb4163d7a1695a748636,SCN,2024-06-24_16h16.08.352,LearnStrategy,2023.2.3,Win32,144.092219,6,1,9,-0.510185185,-0.110185185,1,0,0,1.11,Peridotite_13,7,13,3,1,1.11,-0.032407407,-0.408333333,1,0,0,1.158,Pegmatite_rect,6,1.158,0,8,0,8,0,1,,,,,,,,,,,,,
662fbb4163d7a1695a748636,SCN,2024-06-24_16h16.08.352,LearnStrategy,2023.2.3,Win32,144.092219,6,1,10,-0.343518519,-0.094444444,1,0,0,0.847,Andesite_16,1,16,3,2,0.847,0.116666667,-0.253703704,1,0,0,8.018,Diorite_rect,3,8.018,0,9,0,9,0,1,,,,,,,,,,,,,
662fbb4163d7a1695a748636,SCN,2024-06-24_16h16.08.352,LearnStrategy,2023.2.3,Win32,144.092219,6,1,11,-0.031481481,-0.118518519,1,0,0,3.545,Basalt_01,2,01,3,4,3.545,-0.140740741,-0.258333333,1,0,0,1.014,Basalt_rect,2,1.014,1,10,0,10,0,1,,,,,,,,,,,,,
662fbb4163d7a1695a748636,SCN,2024-06-24_16h16.08.352,LearnStrategy,2023.2.3,Win32,144.092219,6,1,12,0.060185185,-0.12962963,1,0,0,0.8,Diorite_07,3,07,3,5,0.8,0.15462963,-0.265740741,1,0,0,1.83,Diorite_rect,3,1.83,1,11,0,11,0,1,,,,,,,,,,,,,
662fbb4163d7a1695a748636,SCN,2024-06-24_16h16.08.352,LearnStrategy,2023.2.3,Win32,144.092219,6,1,13,0.285185185,-0.081481481,1,0,0,1.375,Pumice_10,8,10,3,6,1.375,0.343518519,-0.405555556,1,0,0,1.23,Pumice_rect,8,1.23,1,12,0,12,0,1,,,,,,,,,,,,,
662fbb4163d7a1695a748636,SCN,2024-06-24_16h16.08.352,LearnStrategy,2023.2.3,Win32,144.092219,6,1,14,0.362037037,-0.088888889,1,0,0,1.007,Pegmatite_06,6,06,3,7,1.007,0.321296296,-0.258333333,1,0,0,1.856,Gabbro_rect,4,1.856,0,13,0,13,0,1,,,,,,,,,,,,,
662fbb4163d7a1695a748636,SCN,2024-06-24_16h16.08.352,LearnStrategy,2023.2.3,Win32,144.092219,6,1,15,0.566666667,-0.10462963,1,0,0,0.832,Basalt_04,2,04,3,8,0.832,-0.392592593,-0.387962963,1,0,0,1.678,Obsidian_rect,5,1.678,0,14,0,14,0,1,,,,,,,,,,,,,
662fbb4163d7a1695a748636,SCN,2024-06-24_16h16.08.352,LearnStrategy,2023.2.3,Win32,144.092219,6,1,16,-0.574074074,-0.269444444,1,0,0,0.791,Gabbro_10,4,10,2,1,0.791,-0.176851852,-0.237962963,1,0,0,1.103,Basalt_rect,2,1.103,0,15,0,15,0,1,,,,,,,,,,,,,
662fbb4163d7a1695a748636,SCN,2024-06-24_16h16.08.352,LearnStrategy,2023.2.3,Win32,144.092219,6,2,1,,,,,,,,3,12,,,,,,,,,,,3,3.453,1,,,,,,0.091666667,-0.249074074,1,0,0,3.453,Diorite_rect,0,0,0,0,1,
662fbb4163d7a1695a748636,SCN,2024-06-24_16h16.08.352,LearnStrategy,2023.2.3,Win32,144.092219,6,2,2,,,,,,,,5,06,,,,,,,,,,,5,2.062,1,,,,,,-0.427777778,-0.397222222,1,0,0,2.062,Obsidian_rect,1,0,1,0,1,
662fbb4163d7a1695a748636,SCN,2024-06-24_16h16.08.352,LearnStrategy,2023.2.3,Win32,144.092219,6,2,3,,,,,,,,6,16,,,,,,,,,,,6,4.681,1,,,,,,-0.075925926,-0.389814815,1,0,0,4.681,Pegmatite_rect,2,0,2,0,1,
662fbb4163d7a1695a748636,SCN,2024-06-24_16h16.08.352,LearnStrategy,2023.2.3,Win32,144.092219,6,2,4,,,,,,,,6,05,,,,,,,,,,,6,1.683,1,,,,,,-0.075,-0.384259259,1,0,0,1.683,Pegmatite_rect,3,0,3,0,1,
662fbb4163d7a1695a748636,SCN,2024-06-24_16h16.08.352,LearnStrategy,2023.2.3,Win32,144.092219,6,2,5,,,,,,,,3,06,,,,,,,,,,,3,2.287,1,,,,,,0.173148148,-0.241666667,1,0,0,2.287,Diorite_rect,4,0,4,0,1,
662fbb4163d7a1695a748636,SCN,2024-06-24_16h16.08.352,LearnStrategy,2023.2.3,Win32,144.092219,6,2,6,,,,,,,,1,09,,,,,,,,,,,7,1.722,0,,,,,,0.126851852,-0.408333333,1,0,0,1.722,Peridotite_rect,5,0,5,0,1,
662fbb4163d7a1695a748636,SCN,2024-06-24_16h16.08.352,LearnStrategy,2023.2.3,Win32,144.092219,6,2,7,,,,,,,,7,07,,,,,,,,,,,7,2.85,1,,,,,,0.106481481,-0.37962963,1,0,0,2.85,Peridotite_rect,6,0,6,0,1,
662fbb4163d7a1695a748636,SCN,2024-06-24_16h16.08.352,LearnStrategy,2023.2.3,Win32,144.092219,6,2,8,,,,,,,,2,02,,,,,,,,,,,2,1.329,1,,,,,,-0.164814815,-0.262037037,1,0,0,1.329,Basalt_rect,7,0,7,0,1,
662fbb4163d7a1695a748636,SCN,2024-06-24_16h16.08.352,LearnStrategy,2023.2.3,Win32,144.092219,6,2,9,,,,,,,,2,11,,,,,,,,,,,2,4.427,1,,,,,,-0.065740741,-0.246296296,1,0,0,4.427,Basalt_rect,8,0,8,0,1,
662fbb4163d7a1695a748636,SCN,2024-06-24_16h16.08.352,LearnStrategy,2023.2.3,Win32,144.092219,6,2,10,,,,,,,,5,05,,,,,,,,,,,4,2.875,0,,,,,,0.301851852,-0.246296296,1,0,0,2.875,Gabbro_rect,9,0,9,0,1,
662fbb4163d7a1695a748636,SCN,2024-06-24_16h16.08.352,LearnStrategy,2023.2.3,Win32,144.092219,6,2,11,,,,,,,,8,14,,,,,,,,,,,8,1.229,1,,,,,,0.437962963,-0.411111111,1,0,0,1.229,Pumice_rect,10,0,10,0,1,
662fbb4163d7a1695a748636,SCN,2024-06-24_16h16.08.352,LearnStrategy,2023.2.3,Win32,144.092219,6,2,12,,,,,,,,1,03,,,,,,,,,,,1,3.329,1,,,,,,-0.312037037,-0.252777778,1,0,0,3.329,Andesite_rect,11,0,11,0,1,
662fbb4163d7a1695a748636,SCN,2024-06-24_16h16.08.352,LearnStrategy,2023.2.3,Win32,144.092219,6,2,13,,,,,,,,8,02,,,,,,,,,,,8,2.129,1,,,,,,0.403703704,-0.406481481,1,0,0,2.129,Pumice_rect,12,0,12,0,1,
662fbb4163d7a1695a748636,SCN,2024-06-24_16h16.08.352,LearnStrategy,2023.2.3,Win32,144.092219,6,2,14,,,,,,,,7,16,,,,,,,,,,,4,2.83,0,,,,,,0.444444444,-0.256481481,1,0,0,2.83,Gabbro_rect,13,0,13,0,1,
662fbb4163d7a1695a748636,SCN,2024-06-24_16h16.08.352,LearnStrategy,2023.2.3,Win32,144.092219,6,2,15,,,,,,,,4,01,,,,,,,,,,,4,2.392,1,,,,,,0.423148148,-0.247222222,1,0,0,2.392,Gabbro_rect,14,0,14,0,1,
662fbb4163d7a1695a748636,SCN,2024-06-24_16h16.08.352,LearnStrategy,2023.2.3,Win32,144.092219,6,2,16,,,,,,,,4,12,,,,,,,,,,,7,2.877,0,,,,,,0.105555556,-0.394444444,1,0,0,2.877,Peridotite_rect,15,0,15,0,1,
662fbb4163d7a1695a748636,SCN,2024-06-24_16h16.08.352,LearnStrategy,2023.2.3,Win32,144.092219,7,1,1,-0.199074074,-0.397222222,1,0,0,2.626,Pegmatite_15,6,15,1,3,2.626,-0.09537037,-0.385185185,1,0,0,1.304,Pegmatite_rect,6,1.304,1,0,0,0,0,1,,,,,,,,,,,,,
662fbb4163d7a1695a748636,SCN,2024-06-24_16h16.08.352,LearnStrategy,2023.2.3,Win32,144.092219,7,1,2,0.27037037,-0.419444444,1,0,0,2.154,Pumice_16,8,16,1,6,2.154,0.362037037,-0.382407407,1,0,0,0.876,Pumice_rect,8,0.876,1,1,0,1,0,1,,,,,,,,,,,,,
662fbb4163d7a1695a748636,SCN,2024-06-24_16h16.08.352,LearnStrategy,2023.2.3,Win32,144.092219,7,1,3,0.517592593,-0.431481481,1,0,0,1.332,Pumice_09,8,09,1,8,1.332,0.402777778,-0.378703704,1,0,0,1.026,Pumice_rect,8,1.026,1,2,0,2,0,1,,,,,,,,,,,,,
662fbb4163d7a1695a748636,SCN,2024-06-24_16h16.08.352,LearnStrategy,2023.2.3,Win32,144.092219,7,1,4,0.54537037,-0.259259259,1,0,0,1.754,Obsidian_16,5,16,2,8,1.754,-0.389814815,-0.385185185,1,0,0,1.116,Obsidian_rect,5,1.116,1,3,0,3,0,1,,,,,,,,,,,,,
662fbb4163d7a1695a748636,SCN,2024-06-24_16h16.08.352,LearnStrategy,2023.2.3,Win32,144.092219,7,1,5,0.230555556,-0.223148148,1,0,0,1.461,Pegmatite_08,6,08,2,6,1.461,-0.14537037,-0.381481481,1,0,0,0.48,Pegmatite_rect,6,0.48,1,4,0,4,0,1,,,,,,,,,,,,,
662fbb4163d7a1695a748636,SCN,2024-06-24_16h16.08.352,LearnStrategy,2023.2.3,Win32,144.092219,7,1,6,0.359259259,-0.237037037,1,0,0,0.949,Diorite_11,3,11,2,7,0.949,0.128703704,-0.246296296,1,0,0,0.826,Diorite_rect,3,0.826,1,5,0,5,0,1,,,,,,,,,,,,,
662fbb4163d7a1695a748636,SCN,2024-06-24_16h16.08.352,LearnStrategy,2023.2.3,Win32,144.092219,7,1,7,0.052777778,-0.101851852,1,0,0,1.003,Diorite_07,3,07,3,5,1.003,0.100925926,-0.237962963,1,0,0,0.678,Diorite_rect,3,0.678,1,6,0,6,0,1,,,,,,,,,,,,,
662fbb4163d7a1695a748636,SCN,2024-06-24_16h16.08.352,LearnStrategy,2023.2.3,Win32,144.092219,7,1,8,-0.066666667,0.089814815,1,0,0,0.886,Diorite_02,3,02,4,4,0.886,0.082407407,-0.383333333,1,0,0,1.435,Peridotite_rect,7,1.435,0,7,0,7,0,1,,,,,,,,,,,,,
662fbb4163d7a1695a748636,SCN,2024-06-24_16h16.08.352,LearnStrategy,2023.2.3,Win32,144.092219,7,1,9,-0.526851852,-0.117592593,1,0,0,3.395,Peridotite_13,7,13,3,1,3.395,-0.04537037,-0.403703704,1,0,0,0.626,Pegmatite_rect,6,0.626,0,8,0,8,0,1,,,,,,,,,,,,,
662fbb4163d7a1695a748636,SCN,2024-06-24_16h16.08.352,LearnStrategy,2023.2.3,Win32,144.092219,7,1,10,-0.498148148,-0.374074074,1,0,0,1.258,Gabbro_03,4,03,1,1,1.258,0.112037037,-0.402777778,1,0,0,1.035,Peridotite_rect,7,1.035,0,9,0,9,0,1,,,,,,,,,,,,,
662fbb4163d7a1695a748636,SCN,2024-06-24_16h16.08.352,LearnStrategy,2023.2.3,Win32,144.092219,7,1,11,-0.396296296,-0.4,1,0,0,1.007,Diorite_13,3,13,1,2,1.007,0.081481481,-0.256481481,1,0,0,1.319,Diorite_rect,3,1.319,1,10,0,10,0,1,,,,,,,,,,,,,
662fbb4163d7a1695a748636,SCN,2024-06-24_16h16.08.352,LearnStrategy,2023.2.3,Win32,144.092219,7,1,12,0.272222222,0.117592593,1,0,0,1.446,Andesite_05,1,05,4,6,1.446,0.10462963,-0.248148148,1,0,0,0.913,Diorite_rect,3,0.913,0,11,0,11,0,1,,,,,,,,,,,,,
662fbb4163d7a1695a748636,SCN,2024-06-24_16h16.08.352,LearnStrategy,2023.2.3,Win32,144.092219,7,1,13,0.271296296,0.415740741,1,0,0,1.659,Andesite_07,1,07,6,6,1.659,0.163888889,-0.40462963,1,0,0,1.121,Peridotite_rect,7,1.121,0,12,0,12,0,1,,,,,,,,,,,,,
662fbb4163d7a1695a748636,SCN,2024-06-24_16h16.08.352,LearnStrategy,2023.2.3,Win32,144.092219,7,1,14,-0.063888889,0.231481481,1,0,0,1.14,Andesite_02,1,02,5,4,1.14,0.089814815,-0.408333333,1,0,0,1.491,Peridotite_rect,7,1.491,0,13,0,13,0,1,,,,,,,,,,,,,
662fbb4163d7a1695a748636,SCN,2024-06-24_16h16.08.352,LearnStrategy,2023.2.3,Win32,144.092219,7,1,15,-0.511111111,0.22962963,1,0,0,2.007,Basalt_14,2,14,5,1,2.007,0.125,-0.415740741,1,0,0,1.753,Peridotite_rect,7,1.753,0,14,0,14,0,1,,,,,,,,,,,,,
662fbb4163d7a1695a748636,SCN,2024-06-24_16h16.08.352,LearnStrategy,2023.2.3,Win32,144.092219,7,1,16,-0.187037037,-0.10462963,1,0,0,1.453,Pegmatite_07,6,07,3,3,1.453,-0.086111111,-0.415740741,1,0,0,1.23,Pegmatite_rect,6,1.23,1,15,0,15,0,1,,,,,,,,,,,,,
662fbb4163d7a1695a748636,SCN,2024-06-24_16h16.08.352,LearnStrategy,2023.2.3,Win32,144.092219,7,2,1,,,,,,,,1,09,,,,,,,,,,,1,2.353,1,,,,,,-0.458333333,-0.27037037,1,0,0,2.353,Andesite_rect,0,0,0,0,1,
662fbb4163d7a1695a748636,SCN,2024-06-24_16h16.08.352,LearnStrategy,2023.2.3,Win32,144.092219,7,2,2,,,,,,,,3,09,,,,,,,,,,,3,2.022,1,,,,,,0.151851852,-0.244444444,1,0,0,2.022,Diorite_rect,1,0,1,0,1,
662fbb4163d7a1695a748636,SCN,2024-06-24_16h16.08.352,LearnStrategy,2023.2.3,Win32,144.092219,7,2,3,,,,,,,,6,09,,,,,,,,,,,6,1.249,1,,,,,,-0.143518519,-0.403703704,1,0,0,1.249,Pegmatite_rect,2,0,2,0,1,
662fbb4163d7a1695a748636,SCN,2024-06-24_16h16.08.352,LearnStrategy,2023.2.3,Win32,144.092219,7,2,4,,,,,,,,8,08,,,,,,,,,,,8,1.226,1,,,,,,0.394444444,-0.399074074,1,0,0,1.226,Pumice_rect,3,0,3,0,1,
662fbb4163d7a1695a748636,SCN,2024-06-24_16h16.08.352,LearnStrategy,2023.2.3,Win32,144.092219,7,2,5,,,,,,,,8,14,,,,,,,,,,,8,1.122,1,,,,,,0.35,-0.411111111,1,0,0,1.122,Pumice_rect,4,0,4,0,1,
662fbb4163d7a1695a748636,SCN,2024-06-24_16h16.08.352,LearnStrategy,2023.2.3,Win32,144.092219,7,2,6,,,,,,,,4,12,,,,,,,,,,,4,4.487,1,,,,,,0.333333333,-0.235185185,1,0,0,4.487,Gabbro_rect,5,0,5,0,1,
662fbb4163d7a1695a748636,SCN,2024-06-24_16h16.08.352,LearnStrategy,2023.2.3,Win32,144.092219,7,2,7,,,,,,,,5,14,,,,,,,,,,,5,1.184,1,,,,,,-0.439814815,-0.390740741,1,0,0,1.184,Obsidian_rect,6,0,6,0,1,
662fbb4163d7a1695a748636,SCN,2024-06-24_16h16.08.352,LearnStrategy,2023.2.3,Win32,144.092219,7,2,8,,,,,,,,2,11,,,,,,,,,,,2,4.182,1,,,,,,-0.102777778,-0.260185185,1,0,0,4.182,Basalt_rect,7,0,7,0,1,
662fbb4163d7a1695a748636,SCN,2024-06-24_16h16.08.352,LearnStrategy,2023.2.3,Win32,144.092219,7,2,9,,,,,,,,7,02,,,,,,,,,,,7,3.391,1,,,,,,0.106481481,-0.398148148,1,0,0,3.391,Peridotite_rect,8,0,8,0,1,
662fbb4163d7a1695a748636,SCN,2024-06-24_16h16.08.352,LearnStrategy,2023.2.3,Win32,144.092219,7,2,10,,,,,,,,4,09,,,,,,,,,,,4,3.669,1,,,,,,0.321296296,-0.262037037,1,0,0,3.669,Gabbro_rect,9,0,9,0,1,
662fbb4163d7a1695a748636,SCN,2024-06-24_16h16.08.352,LearnStrategy,2023.2.3,Win32,144.092219,7,2,11,,,,,,,,2,02,,,,,,,,,,,2,1.79,1,,,,,,-0.15462963,-0.237037037,1,0,0,1.79,Basalt_rect,10,0,10,0,1,
662fbb4163d7a1695a748636,SCN,2024-06-24_16h16.08.352,LearnStrategy,2023.2.3,Win32,144.092219,7,2,12,,,,,,,,6,05,,,,,,,,,,,6,1.046,1,,,,,,-0.153703704,-0.387962963,1,0,0,1.046,Pegmatite_rect,11,0,11,0,1,
662fbb4163d7a1695a748636,SCN,2024-06-24_16h16.08.352,LearnStrategy,2023.2.3,Win32,144.092219,7,2,13,,,,,,,,3,15,,,,,,,,,,,1,3.884,0,,,,,,-0.373148148,-0.253703704,1,0,0,3.884,Andesite_rect,12,0,12,0,1,
662fbb4163d7a1695a748636,SCN,2024-06-24_16h16.08.352,LearnStrategy,2023.2.3,Win32,144.092219,7,2,14,,,,,,,,7,06,,,,,,,,,,,7,3.371,1,,,,,,0.125,-0.396296296,1,0,0,3.371,Peridotite_rect,13,0,13,0,1,
662fbb4163d7a1695a748636,SCN,2024-06-24_16h16.08.352,LearnStrategy,2023.2.3,Win32,144.092219,7,2,15,,,,,,,,1,03,,,,,,,,,,,1,3.076,1,,,,,,-0.413888889,-0.266666667,1,0,0,3.076,Andesite_rect,14,0,14,0,1,
662fbb4163d7a1695a748636,SCN,2024-06-24_16h16.08.352,LearnStrategy,2023.2.3,Win32,144.092219,7,2,16,,,,,,,,5,06,,,,,,,,,,,5,1.355,1,,,,,,-0.438888889,-0.387037037,1,0,0,1.355,Obsidian_rect,15,0,15,0,1,
662fbb4163d7a1695a748636,SCN,2024-06-24_16h16.08.352,LearnStrategy,2023.2.3,Win32,144.092219,8,1,1,0.230555556,0.242592593,1,0,0,1.26,Gabbro_05,4,05,5,6,1.26,0.089814815,-0.381481481,1,0,0,2.652,Peridotite_rect,7,2.652,0,0,0,0,0,1,,,,,,,,,,,,,
662fbb4163d7a1695a748636,SCN,2024-06-24_16h16.08.352,LearnStrategy,2023.2.3,Win32,144.092219,8,1,2,0.441666667,0.264814815,1,0,0,1.521,Peridotite_12,7,12,5,7,1.521,0.087037037,-0.414814815,1,0,0,2.588,Peridotite_rect,7,2.588,1,1,0,1,0,1,,,,,,,,,,,,,
662fbb4163d7a1695a748636,SCN,2024-06-24_16h16.08.352,LearnStrategy,2023.2.3,Win32,144.092219,8,1,3,-0.376851852,0.082407407,1,0,0,1.431,Pegmatite_10,6,10,4,2,1.431,-0.125925926,-0.386111111,1,0,0,1.319,Pegmatite_rect,6,1.319,1,2,0,2,0,1,,,,,,,,,,,,,
662fbb4163d7a1695a748636,SCN,2024-06-24_16h16.08.352,LearnStrategy,2023.2.3,Win32,144.092219,8,1,4,-0.077777778,0.112037037,1,0,0,3.93,Diorite_02,3,02,4,4,3.93,0.10462963,-0.262037037,1,0,0,1.397,Diorite_rect,3,1.397,1,3,0,3,0,1,,,,,,,,,,,,,
662fbb4163d7a1695a748636,SCN,2024-06-24_16h16.08.352,LearnStrategy,2023.2.3,Win32,144.092219,8,1,5,0.043518519,-0.25,1,0,0,1.468,Obsidian_11,5,11,2,5,1.468,-0.331481481,-0.4,1,0,0,0.697,Obsidian_rect,5,0.697,1,4,0,4,0,1,,,,,,,,,,,,,
662fbb4163d7a1695a748636,SCN,2024-06-24_16h16.08.352,LearnStrategy,2023.2.3,Win32,144.092219,8,1,6,-0.517592593,-0.265740741,1,0,0,1.835,Gabbro_10,4,10,2,1,1.835,0.055555556,-0.37962963,1,0,0,1.313,Peridotite_rect,7,1.313,0,5,0,5,0,1,,,,,,,,,,,,,
662fbb4163d7a1695a748636,SCN,2024-06-24_16h16.08.352,LearnStrategy,2023.2.3,Win32,144.092219,8,1,7,0.389814815,-0.302777778,1,0,0,2.688,Diorite_11,3,11,2,7,2.688,0.157407407,-0.262962963,1,0,0,0.641,Diorite_rect,3,0.641,1,6,0,6,0,1,,,,,,,,,,,,,
662fbb4163d7a1695a748636,SCN,2024-06-24_16h16.08.352,LearnStrategy,2023.2.3,Win32,144.092219,8,1,8,0.237962963,-0.410185185,1,0,0,1.218,Pumice_16,8,16,1,6,1.218,0.348148148,-0.413888889,1,0,0,0.939,Pumice_rect,8,0.939,1,7,0,7,0,1,,,,,,,,,,,,,
662fbb4163d7a1695a748636,SCN,2024-06-24_16h16.08.352,LearnStrategy,2023.2.3,Win32,144.092219,8,1,9,-0.399074074,0.241666667,1,0,0,1.313,Basalt_10,2,10,5,2,1.313,-0.168518519,-0.244444444,1,0,0,2.156,Basalt_rect,2,2.156,1,8,0,8,0,1,,,,,,,,,,,,,
662fbb4163d7a1695a748636,SCN,2024-06-24_16h16.08.352,LearnStrategy,2023.2.3,Win32,144.092219,8,1,10,0.22037037,0.244444444,1,0,0,7.881,Gabbro_05,4,05,5,6,7.881,0.075,-0.396296296,1,0,0,22.569,Peridotite_rect,7,22.569,0,9,0,9,0,1,,,,,,,,,,,,,
662fbb4163d7a1695a748636,SCN,2024-06-24_16h16.08.352,LearnStrategy,2023.2.3,Win32,144.092219,8,1,11,-0.568518519,-0.369444444,1,0,0,1.231,Gabbro_03,4,03,1,1,1.231,0.118518519,-0.234259259,1,0,0,1.454,Diorite_rect,3,1.454,0,10,0,10,0,1,,,,,,,,,,,,,
662fbb4163d7a1695a748636,SCN,2024-06-24_16h16.08.352,LearnStrategy,2023.2.3,Win32,144.092219,8,1,12,0.353703704,-0.233333333,1,0,0,1.289,Diorite_11,3,11,2,7,1.289,0.076851852,-0.230555556,1,0,0,1.486,Diorite_rect,3,1.486,1,11,0,11,0,1,,,,,,,,,,,,,
662fbb4163d7a1695a748636,SCN,2024-06-24_16h16.08.352,LearnStrategy,2023.2.3,Win32,144.092219,8,1,13,0.251851852,-0.235185185,1,0,0,3.613,Pegmatite_08,6,08,2,6,3.613,-0.05,-0.37962963,1,0,0,2.231,Pegmatite_rect,6,2.231,1,12,0,12,0,1,,,,,,,,,,,,,
662fbb4163d7a1695a748636,SCN,2024-06-24_16h16.08.352,LearnStrategy,2023.2.3,Win32,144.092219,8,1,14,0.028703704,-0.09537037,1,0,0,2.546,Diorite_07,3,07,3,5,2.546,0.09537037,-0.244444444,1,0,0,1.792,Diorite_rect,3,1.792,1,13,0,13,0,1,,,,,,,,,,,,,
662fbb4163d7a1695a748636,SCN,2024-06-24_16h16.08.352,LearnStrategy,2023.2.3,Win32,144.092219,8,1,15,-0.182407407,-0.417592593,1,0,0,5.493,Pegmatite_15,6,15,1,3,5.493,-0.137037037,-0.393518519,1,0,0,0.738,Pegmatite_rect,6,0.738,1,14,0,14,0,1,,,,,,,,,,,,,
662fbb4163d7a1695a748636,SCN,2024-06-24_16h16.08.352,LearnStrategy,2023.2.3,Win32,144.092219,8,1,16,-0.397222222,0.071296296,1,0,0,2.303,Pegmatite_10,6,10,4,2,2.303,-0.116666667,-0.390740741,1,0,0,1.288,Pegmatite_rect,6,1.288,1,15,0,15,0,1,,,,,,,,,,,,,
662fbb4163d7a1695a748636,SCN,2024-06-24_16h16.08.352,LearnStrategy,2023.2.3,Win32,144.092219,8,2,1,,,,,,,,1,06,,,,,,,,,,,3,1.383,0,,,,,,0.089814815,-0.244444444,1,0,0,1.383,Diorite_rect,0,0,0,0,1,
662fbb4163d7a1695a748636,SCN,2024-06-24_16h16.08.352,LearnStrategy,2023.2.3,Win32,144.092219,8,2,2,,,,,,,,7,16,,,,,,,,,,,7,4.988,1,,,,,,0.197222222,-0.414814815,1,0,0,4.988,Peridotite_rect,1,0,1,0,1,
662fbb4163d7a1695a748636,SCN,2024-06-24_16h16.08.352,LearnStrategy,2023.2.3,Win32,144.092219,8,2,3,,,,,,,,6,16,,,,,,,,,,,6,10.934,1,,,,,,-0.07962963,-0.411111111,1,0,0,10.934,Pegmatite_rect,2,0,2,0,1,
662fbb4163d7a1695a748636,SCN,2024-06-24_16h16.08.352,LearnStrategy,2023.2.3,Win32,144.092219,8,2,4,,,,,,,,8,03,,,,,,,,,,,8,1.088,1,,,,,,0.448148148,-0.406481481,1,0,0,1.088,Pumice_rect,3,0,3,0,1,
662fbb4163d7a1695a748636,SCN,2024-06-24_16h16.08.352,LearnStrategy,2023.2.3,Win32,144.092219,8,2,5,,,,,,,,3,06,,,,,,,,,,,1,1.971,0,,,,,,-0.410185185,-0.237962963,1,0,0,1.971,Andesite_rect,4,0,4,0,1,
662fbb4163d7a1695a748636,SCN,2024-06-24_16h16.08.352,LearnStrategy,2023.2.3,Win32,144.092219,8,2,6,,,,,,,,4,01,,,,,,,,,,,1,8.311,0,,,,,,-0.400925926,-0.252777778,1,0,0,8.311,Andesite_rect,5,0,5,0,1,
662fbb4163d7a1695a748636,SCN,2024-06-24_16h16.08.352,LearnStrategy,2023.2.3,Win32,144.092219,8,2,7,,,,,,,,8,15,,,,,,,,,,,8,0.91,1,,,,,,0.47962963,-0.387037037,1,0,0,0.91,Pumice_rect,6,0,6,0,1,
662fbb4163d7a1695a748636,SCN,2024-06-24_16h16.08.352,LearnStrategy,2023.2.3,Win32,144.092219,8,2,8,,,,,,,,6,11,,,,,,,,,,,6,2.04,1,,,,,,-0.060185185,-0.384259259,1,0,0,2.04,Pegmatite_rect,7,0,7,0,1,
662fbb4163d7a1695a748636,SCN,2024-06-24_16h16.08.352,LearnStrategy,2023.2.3,Win32,144.092219,8,2,9,,,,,,,,5,08,,,,,,,,,,,5,1.039,1,,,,,,-0.396296296,-0.416666667,1,0,0,1.039,Obsidian_rect,8,0,8,0,1,
662fbb4163d7a1695a748636,SCN,2024-06-24_16h16.08.352,LearnStrategy,2023.2.3,Win32,144.092219,8,2,10,,,,,,,,5,12,,,,,,,,,,,5,0.957,1,,,,,,-0.342592593,-0.396296296,1,0,0,0.957,Obsidian_rect,9,0,9,0,1,
662fbb4163d7a1695a748636,SCN,2024-06-24_16h16.08.352,LearnStrategy,2023.2.3,Win32,144.092219,8,2,11,,,,,,,,4,14,,,,,,,,,,,7,9.777,0,,,,,,0.134259259,-0.387962963,1,0,0,9.777,Peridotite_rect,10,0,10,0,1,
662fbb4163d7a1695a748636,SCN,2024-06-24_16h16.08.352,LearnStrategy,2023.2.3,Win32,144.092219,8,2,12,,,,,,,,2,12,,,,,,,,,,,8,3.129,0,,,,,,0.330555556,-0.399074074,1,0,0,3.129,Pumice_rect,11,0,11,0,1,
662fbb4163d7a1695a748636,SCN,2024-06-24_16h16.08.352,LearnStrategy,2023.2.3,Win32,144.092219,8,2,13,,,,,,,,1,01,,,,,,,,,,,3,5.091,0,,,,,,0.151851852,-0.267592593,1,0,0,5.091,Diorite_rect,12,0,12,0,1,
662fbb4163d7a1695a748636,SCN,2024-06-24_16h16.08.352,LearnStrategy,2023.2.3,Win32,144.092219,8,2,14,,,,,,,,3,08,,,,,,,,,,,3,0.72,1,,,,,,0.093518519,-0.230555556,1,0,0,0.72,Diorite_rect,13,0,13,0,1,
662fbb4163d7a1695a748636,SCN,2024-06-24_16h16.08.352,LearnStrategy,2023.2.3,Win32,144.092219,8,2,15,,,,,,,,2,08,,,,,,,,,,,2,1.732,1,,,,,,-0.157407407,-0.246296296,1,0,0,1.732,Basalt_rect,14,0,14,0,1,
662fbb4163d7a1695a748636,SCN,2024-06-24_16h16.08.352,LearnStrategy,2023.2.3,Win32,144.092219,8,2,16,,,,,,,,7,04,,,,,,,,,,,7,3.731,1,,,,,,0.092592593,-0.390740741,1,0,0,3.731,Peridotite_rect,15,0,15,0,1,
662fbb4163d7a1695a748636,SCN,2024-06-24_16h16.08.352,LearnStrategy,2023.2.3,Win32,144.092219,9,1,1,-0.511111111,0.416666667,1,0,0,4.811,Pumice_06,8,06,6,1,4.811,0.398148148,-0.384259259,1,0,0,2.515,Pumice_rect,8,2.515,1,0,0,0,0,1,,,,,,,,,,,,,
662fbb4163d7a1695a748636,SCN,2024-06-24_16h16.08.352,LearnStrategy,2023.2.3,Win32,144.092219,9,1,2,0.069444444,-0.101851852,1,0,0,0.562,Diorite_07,3,07,3,5,0.562,0.062037037,-0.257407407,1,0,0,0.743,Diorite_rect,3,0.743,1,1,0,1,0,1,,,,,,,,,,,,,
662fbb4163d7a1695a748636,SCN,2024-06-24_16h16.08.352,LearnStrategy,2023.2.3,Win32,144.092219,9,1,3,0.361111111,-0.291666667,1,0,0,1.272,Diorite_11,3,11,2,7,1.272,0.137037037,-0.402777778,1,0,0,0.845,Peridotite_rect,7,0.845,0,2,0,2,0,1,,,,,,,,,,,,,
662fbb4163d7a1695a748636,SCN,2024-06-24_16h16.08.352,LearnStrategy,2023.2.3,Win32,144.092219,9,1,4,0.108333333,-0.458333333,1,0,0,0.938,Peridotite_15,7,15,1,5,0.938,0.102777778,-0.405555556,1,0,0,0.656,Peridotite_rect,7,0.656,1,3,0,3,0,1,,,,,,,,,,,,,
662fbb4163d7a1695a748636,SCN,2024-06-24_16h16.08.352,LearnStrategy,2023.2.3,Win32,144.092219,9,1,5,0.55462963,-0.106481481,1,0,0,0.909,Basalt_04,2,04,3,8,0.909,-0.111111111,-0.261111111,1,0,0,1.102,Basalt_rect,2,1.102,1,4,0,4,0,1,,,,,,,,,,,,,
662fbb4163d7a1695a748636,SCN,2024-06-24_16h16.08.352,LearnStrategy,2023.2.3,Win32,144.092219,9,1,6,-0.239814815,-0.10462963,1,0,0,1.195,Pegmatite_07,6,07,3,3,1.195,-0.098148148,-0.398148148,1,0,0,1.309,Pegmatite_rect,6,1.309,1,5,0,5,0,1,,,,,,,,,,,,,
662fbb4163d7a1695a748636,SCN,2024-06-24_16h16.08.352,LearnStrategy,2023.2.3,Win32,144.092219,9,1,7,-0.418518519,-0.264814815,1,0,0,1.034,Pumice_04,8,04,2,2,1.034,0.418518519,-0.405555556,1,0,0,0.808,Pumice_rect,8,0.808,1,6,0,6,0,1,,,,,,,,,,,,,
662fbb4163d7a1695a748636,SCN,2024-06-24_16h16.08.352,LearnStrategy,2023.2.3,Win32,144.092219,9,1,8,-0.55,-0.373148148,1,0,0,0.98,Gabbro_03,4,03,1,1,0.98,0.099074074,-0.408333333,1,0,0,1.853,Peridotite_rect,7,1.853,0,7,0,7,0,1,,,,,,,,,,,,,
662fbb4163d7a1695a748636,SCN,2024-06-24_16h16.08.352,LearnStrategy,2023.2.3,Win32,144.092219,9,1,9,0.546296296,0.069444444,1,0,0,1.793,Peridotite_05,7,05,4,8,1.793,0.375925926,-0.252777778,1,0,0,0.984,Gabbro_rect,4,0.984,0,8,0,8,0,1,,,,,,,,,,,,,
662fbb4163d7a1695a748636,SCN,2024-06-24_16h16.08.352,LearnStrategy,2023.2.3,Win32,144.092219,9,1,10,0.565740741,0.219444444,1,0,0,1.325,Obsidian_07,5,07,5,8,1.325,-0.394444444,-0.398148148,1,0,0,1.045,Obsidian_rect,5,1.045,1,9,0,9,0,1,,,,,,,,,,,,,
662fbb4163d7a1695a748636,SCN,2024-06-24_16h16.08.352,LearnStrategy,2023.2.3,Win32,144.092219,9,1,11,0.067592593,0.239814815,1,0,0,0.866,Obsidian_10,5,10,5,5,0.866,-0.359259259,-0.393518519,1,0,0,0.719,Obsidian_rect,5,0.719,1,10,0,10,0,1,,,,,,,,,,,,,
662fbb4163d7a1695a748636,SCN,2024-06-24_16h16.08.352,LearnStrategy,2023.2.3,Win32,144.092219,9,1,12,-0.094444444,0.107407407,1,0,0,0.654,Diorite_02,3,02,4,4,0.654,0.111111111,-0.264814815,1,0,0,1.009,Diorite_rect,3,1.009,1,11,0,11,0,1,,,,,,,,,,,,,
662fbb4163d7a1695a748636,SCN,2024-06-24_16h16.08.352,LearnStrategy,2023.2.3,Win32,144.092219,9,1,13,0.221296296,-0.096296296,1,0,0,1.433,Pumice_10,8,10,3,6,1.433,0.339814815,-0.40462963,1,0,0,1.057,Pumice_rect,8,1.057,1,12,0,12,0,1,,,,,,,,,,,,,
662fbb4163d7a1695a748636,SCN,2024-06-24_16h16.08.352,LearnStrategy,2023.2.3,Win32,144.092219,9,1,14,-0.07962963,-0.096296296,1,0,0,1.5,Basalt_01,2,01,3,4,1.5,-0.151851852,-0.259259259,1,0,0,0.89,Basalt_rect,2,0.89,1,13,0,13,0,1,,,,,,,,,,,,,
662fbb4163d7a1695a748636,SCN,2024-06-24_16h16.08.352,LearnStrategy,2023.2.3,Win32,144.092219,9,1,15,-0.351851852,-0.125,1,0,0,0.876,Andesite_16,1,16,3,2,0.876,0.073148148,-0.252777778,1,0,0,1.385,Diorite_rect,3,1.385,0,14,0,14,0,1,,,,,,,,,,,,,
662fbb4163d7a1695a748636,SCN,2024-06-24_16h16.08.352,LearnStrategy,2023.2.3,Win32,144.092219,9,1,16,-0.212037037,-0.275,1,0,0,1.91,Obsidian_04,5,04,2,3,1.91,-0.383333333,-0.392592593,1,0,0,0.747,Obsidian_rect,5,0.747,1,15,0,15,0,1,,,,,,,,,,,,,
662fbb4163d7a1695a748636,SCN,2024-06-24_16h16.08.352,LearnStrategy,2023.2.3,Win32,144.092219,9,2,1,,,,,,,,1,10,,,,,,,,,,,1,2.769,1,,,,,,-0.376851852,-0.25,1,0,0,2.769,Andesite_rect,0,0,0,0,1,
662fbb4163d7a1695a748636,SCN,2024-06-24_16h16.08.352,LearnStrategy,2023.2.3,Win32,144.092219,9,2,2,,,,,,,,7,07,,,,,,,,,,,7,2.328,1,,,,,,0.077777778,-0.390740741,1,0,0,2.328,Peridotite_rect,1,0,1,0,1,
662fbb4163d7a1695a748636,SCN,2024-06-24_16h16.08.352,LearnStrategy,2023.2.3,Win32,144.092219,9,2,3,,,,,,,,8,02,,,,,,,,,,,8,1.697,1,,,,,,0.357407407,-0.406481481,1,0,0,1.697,Pumice_rect,2,0,2,0,1,
662fbb4163d7a1695a748636,SCN,2024-06-24_16h16.08.352,LearnStrategy,2023.2.3,Win32,144.092219,9,2,4,,,,,,,,4,13,,,,,,,,,,,4,1.791,1,,,,,,0.375925926,-0.239814815,1,0,0,1.791,Gabbro_rect,3,0,3,0,1,
662fbb4163d7a1695a748636,SCN,2024-06-24_16h16.08.352,LearnStrategy,2023.2.3,Win32,144.092219,9,2,5,,,,,,,,8,05,,,,,,,,,,,8,0.984,1,,,,,,0.441666667,-0.414814815,1,0,0,0.984,Pumice_rect,4,0,4,0,1,
662fbb4163d7a1695a748636,SCN,2024-06-24_16h16.08.352,LearnStrategy,2023.2.3,Win32,144.092219,9,2,6,,,,,,,,6,13,,,,,,,,,,,6,1.061,1,,,,,,-0.112037037,-0.39537037,1,0,0,1.061,Pegmatite_rect,5,0,5,0,1,
662fbb4163d7a1695a748636,SCN,2024-06-24_16h16.08.352,LearnStrategy,2023.2.3,Win32,144.092219,9,2,7,,,,,,,,2,16,,,,,,,,,,,4,2.301,0,,,,,,0.390740741,-0.249074074,1,0,0,2.301,Gabbro_rect,6,0,6,0,1,
662fbb4163d7a1695a748636,SCN,2024-06-24_16h16.08.352,LearnStrategy,2023.2.3,Win32,144.092219,9,2,8,,,,,,,,6,12,,,,,,,,,,,6,1.754,1,,,,,,-0.088888889,-0.394444444,1,0,0,1.754,Pegmatite_rect,7,0,7,0,1,
662fbb4163d7a1695a748636,SCN,2024-06-24_16h16.08.352,LearnStrategy,2023.2.3,Win32,144.092219,9,2,9,,,,,,,,2,06,,,,,,,,,,,2,2.201,1,,,,,,-0.226851852,-0.251851852,1,0,0,2.201,Basalt_rect,8,0,8,0,1,
662fbb4163d7a1695a748636,SCN,2024-06-24_16h16.08.352,LearnStrategy,2023.2.3,Win32,144.092219,9,2,10,,,,,,,,5,02,,,,,,,,,,,5,0.92,1,,,,,,-0.396296296,-0.412037037,1,0,0,0.92,Obsidian_rect,9,0,9,0,1,
662fbb4163d7a1695a748636,SCN,2024-06-24_16h16.08.352,LearnStrategy,2023.2.3,Win32,144.092219,9,2,11,,,,,,,,4,08,,,,,,,,,,,1,2.037,0,,,,,,-0.45,-0.25462963,1,0,0,2.037,Andesite_rect,10,0,10,0,1,
662fbb4163d7a1695a748636,SCN,2024-06-24_16h16.08.352,LearnStrategy,2023.2.3,Win32,144.092219,9,2,12,,,,,,,,7,10,,,,,,,,,,,7,1.278,1,,,,,,0.139814815,-0.386111111,1,0,0,1.278,Peridotite_rect,11,0,11,0,1,
662fbb4163d7a1695a748636,SCN,2024-06-24_16h16.08.352,LearnStrategy,2023.2.3,Win32,144.092219,9,2,13,,,,,,,,3,12,,,,,,,,,,,3,0.89,1,,,,,,0.090740741,-0.25462963,1,0,0,0.89,Diorite_rect,12,0,12,0,1,
662fbb4163d7a1695a748636,SCN,2024-06-24_16h16.08.352,LearnStrategy,2023.2.3,Win32,144.092219,9,2,14,,,,,,,,1,11,,,,,,,,,,,1,3.664,1,,,,,,-0.372222222,-0.246296296,1,0,0,3.664,Andesite_rect,13,0,13,0,1,
662fbb4163d7a1695a748636,SCN,2024-06-24_16h16.08.352,LearnStrategy,2023.2.3,Win32,144.092219,9,2,15,,,,,,,,5,05,,,,,,,,,,,5,2.471,1,,,,,,-0.449074074,-0.413888889,1,0,0,2.471,Obsidian_rect,14,0,14,0,1,
662fbb4163d7a1695a748636,SCN,2024-06-24_16h16.08.352,LearnStrategy,2023.2.3,Win32,144.092219,9,2,16,,,,,,,,3,10,,,,,,,,,,,3,1.826,1,,,,,,0.102777778,-0.242592593,1,0,0,1.826,Diorite_rect,15,0,15,0,1,
662fbb4163d7a1695a748636,SCN,2024-06-24_16h16.08.352,LearnStrategy,2023.2.3,Win32,144.092219,,,,,,,,,,,,,,,,,,,,,,,,,,,,,,,,,,,,,,,,,,,1
662fbb4163d7a1695a748636,SCN,2024-06-24_16h16.08.352,LearnStrategy,2023.2.3,Win32,144.092219,,,,,,,,,,,,,,,,,,,,,,,,,,,,,,,,,,,,,,,,,,,
662fbb4163d7a1695a748636,SCN,2024-06-24_16h16.08.352,LearnStrategy,2023.2.3,Win32,144.092219,,,,,,,,,,,4,03,1,1,,,,,,,,,,,,,,,,,,,,,,,,,,,,,
662fbb4163d7a1695a748636,SCN,2024-06-24_16h16.08.352,LearnStrategy,2023.2.3,Win32,144.092219,,,,,,,,,,,3,13,1,2,,,,,,,,,,,,,,,,,,,,,,,,,,,,,
662fbb4163d7a1695a748636,SCN,2024-06-24_16h16.08.352,LearnStrategy,2023.2.3,Win32,144.092219,,,,,,,,,,,6,15,1,3,,,,,,,,,,,,,,,,,,,,,,,,,,,,,
662fbb4163d7a1695a748636,SCN,2024-06-24_16h16.08.352,LearnStrategy,2023.2.3,Win32,144.092219,,,,,,,,,,,7,08,1,4,,,,,,,,,,,,,,,,,,,,,,,,,,,,,
662fbb4163d7a1695a748636,SCN,2024-06-24_16h16.08.352,LearnStrategy,2023.2.3,Win32,144.092219,,,,,,,,,,,7,15,1,5,,,,,,,,,,,,,,,,,,,,,,,,,,,,,
662fbb4163d7a1695a748636,SCN,2024-06-24_16h16.08.352,LearnStrategy,2023.2.3,Win32,144.092219,,,,,,,,,,,8,16,1,6,,,,,,,,,,,,,,,,,,,,,,,,,,,,,
662fbb4163d7a1695a748636,SCN,2024-06-24_16h16.08.352,LearnStrategy,2023.2.3,Win32,144.092219,,,,,,,,,,,2,05,1,7,,,,,,,,,,,,,,,,,,,,,,,,,,,,,
662fbb4163d7a1695a748636,SCN,2024-06-24_16h16.08.352,LearnStrategy,2023.2.3,Win32,144.092219,,,,,,,,,,,8,09,1,8,,,,,,,,,,,,,,,,,,,,,,,,,,,,,
662fbb4163d7a1695a748636,SCN,2024-06-24_16h16.08.352,LearnStrategy,2023.2.3,Win32,144.092219,,,,,,,,,,,4,10,2,1,,,,,,,,,,,,,,,,,,,,,,,,,,,,,
662fbb4163d7a1695a748636,SCN,2024-06-24_16h16.08.352,LearnStrategy,2023.2.3,Win32,144.092219,,,,,,,,,,,8,04,2,2,,,,,,,,,,,,,,,,,,,,,,,,,,,,,
662fbb4163d7a1695a748636,SCN,2024-06-24_16h16.08.352,LearnStrategy,2023.2.3,Win32,144.092219,,,,,,,,,,,5,04,2,3,,,,,,,,,,,,,,,,,,,,,,,,,,,,,
662fbb4163d7a1695a748636,SCN,2024-06-24_16h16.08.352,LearnStrategy,2023.2.3,Win32,144.092219,,,,,,,,,,,3,14,2,4,,,,,,,,,,,,,,,,,,,,,,,,,,,,,
662fbb4163d7a1695a748636,SCN,2024-06-24_16h16.08.352,LearnStrategy,2023.2.3,Win32,144.092219,,,,,,,,,,,5,11,2,5,,,,,,,,,,,,,,,,,,,,,,,,,,,,,
662fbb4163d7a1695a748636,SCN,2024-06-24_16h16.08.352,LearnStrategy,2023.2.3,Win32,144.092219,,,,,,,,,,,6,08,2,6,,,,,,,,,,,,,,,,,,,,,,,,,,,,,
662fbb4163d7a1695a748636,SCN,2024-06-24_16h16.08.352,LearnStrategy,2023.2.3,Win32,144.092219,,,,,,,,,,,3,11,2,7,,,,,,,,,,,,,,,,,,,,,,,,,,,,,
662fbb4163d7a1695a748636,SCN,2024-06-24_16h16.08.352,LearnStrategy,2023.2.3,Win32,144.092219,,,,,,,,,,,5,16,2,8,,,,,,,,,,,,,,,,,,,,,,,,,,,,,
662fbb4163d7a1695a748636,SCN,2024-06-24_16h16.08.352,LearnStrategy,2023.2.3,Win32,144.092219,,,,,,,,,,,7,13,3,1,,,,,,,,,,,,,,,,,,,,,,,,,,,,,
662fbb4163d7a1695a748636,SCN,2024-06-24_16h16.08.352,LearnStrategy,2023.2.3,Win32,144.092219,,,,,,,,,,,1,16,3,2,,,,,,,,,,,,,,,,,,,,,,,,,,,,,
662fbb4163d7a1695a748636,SCN,2024-06-24_16h16.08.352,LearnStrategy,2023.2.3,Win32,144.092219,,,,,,,,,,,6,07,3,3,,,,,,,,,,,,,,,,,,,,,,,,,,,,,
662fbb4163d7a1695a748636,SCN,2024-06-24_16h16.08.352,LearnStrategy,2023.2.3,Win32,144.092219,,,,,,,,,,,2,01,3,4,,,,,,,,,,,,,,,,,,,,,,,,,,,,,
662fbb4163d7a1695a748636,SCN,2024-06-24_16h16.08.352,LearnStrategy,2023.2.3,Win32,144.092219,,,,,,,,,,,3,07,3,5,,,,,,,,,,,,,,,,,,,,,,,,,,,,,
662fbb4163d7a1695a748636,SCN,2024-06-24_16h16.08.352,LearnStrategy,2023.2.3,Win32,144.092219,,,,,,,,,,,8,10,3,6,,,,,,,,,,,,,,,,,,,,,,,,,,,,,
662fbb4163d7a1695a748636,SCN,2024-06-24_16h16.08.352,LearnStrategy,2023.2.3,Win32,144.092219,,,,,,,,,,,6,06,3,7,,,,,,,,,,,,,,,,,,,,,,,,,,,,,
662fbb4163d7a1695a748636,SCN,2024-06-24_16h16.08.352,LearnStrategy,2023.2.3,Win32,144.092219,,,,,,,,,,,2,04,3,8,,,,,,,,,,,,,,,,,,,,,,,,,,,,,
662fbb4163d7a1695a748636,SCN,2024-06-24_16h16.08.352,LearnStrategy,2023.2.3,Win32,144.092219,,,,,,,,,,,4,16,4,1,,,,,,,,,,,,,,,,,,,,,,,,,,,,,
662fbb4163d7a1695a748636,SCN,2024-06-24_16h16.08.352,LearnStrategy,2023.2.3,Win32,144.092219,,,,,,,,,,,6,10,4,2,,,,,,,,,,,,,,,,,,,,,,,,,,,,,
662fbb4163d7a1695a748636,SCN,2024-06-24_16h16.08.352,LearnStrategy,2023.2.3,Win32,144.092219,,,,,,,,,,,8,13,4,3,,,,,,,,,,,,,,,,,,,,,,,,,,,,,
662fbb4163d7a1695a748636,SCN,2024-06-24_16h16.08.352,LearnStrategy,2023.2.3,Win32,144.092219,,,,,,,,,,,3,02,4,4,,,,,,,,,,,,,,,,,,,,,,,,,,,,,
662fbb4163d7a1695a748636,SCN,2024-06-24_16h16.08.352,LearnStrategy,2023.2.3,Win32,144.092219,,,,,,,,,,,5,09,4,5,,,,,,,,,,,,,,,,,,,,,,,,,,,,,
662fbb4163d7a1695a748636,SCN,2024-06-24_16h16.08.352,LearnStrategy,2023.2.3,Win32,144.092219,,,,,,,,,,,1,05,4,6,,,,,,,,,,,,,,,,,,,,,,,,,,,,,
662fbb4163d7a1695a748636,SCN,2024-06-24_16h16.08.352,LearnStrategy,2023.2.3,Win32,144.092219,,,,,,,,,,,6,03,4,7,,,,,,,,,,,,,,,,,,,,,,,,,,,,,
662fbb4163d7a1695a748636,SCN,2024-06-24_16h16.08.352,LearnStrategy,2023.2.3,Win32,144.092219,,,,,,,,,,,7,05,4,8,,,,,,,,,,,,,,,,,,,,,,,,,,,,,
662fbb4163d7a1695a748636,SCN,2024-06-24_16h16.08.352,LearnStrategy,2023.2.3,Win32,144.092219,,,,,,,,,,,2,14,5,1,,,,,,,,,,,,,,,,,,,,,,,,,,,,,
662fbb4163d7a1695a748636,SCN,2024-06-24_16h16.08.352,LearnStrategy,2023.2.3,Win32,144.092219,,,,,,,,,,,2,10,5,2,,,,,,,,,,,,,,,,,,,,,,,,,,,,,
662fbb4163d7a1695a748636,SCN,2024-06-24_16h16.08.352,LearnStrategy,2023.2.3,Win32,144.092219,,,,,,,,,,,2,09,5,3,,,,,,,,,,,,,,,,,,,,,,,,,,,,,
662fbb4163d7a1695a748636,SCN,2024-06-24_16h16.08.352,LearnStrategy,2023.2.3,Win32,144.092219,,,,,,,,,,,1,02,5,4,,,,,,,,,,,,,,,,,,,,,,,,,,,,,
662fbb4163d7a1695a748636,SCN,2024-06-24_16h16.08.352,LearnStrategy,2023.2.3,Win32,144.092219,,,,,,,,,,,5,10,5,5,,,,,,,,,,,,,,,,,,,,,,,,,,,,,
662fbb4163d7a1695a748636,SCN,2024-06-24_16h16.08.352,LearnStrategy,2023.2.3,Win32,144.092219,,,,,,,,,,,4,05,5,6,,,,,,,,,,,,,,,,,,,,,,,,,,,,,
662fbb4163d7a1695a748636,SCN,2024-06-24_16h16.08.352,LearnStrategy,2023.2.3,Win32,144.092219,,,,,,,,,,,7,12,5,7,,,,,,,,,,,,,,,,,,,,,,,,,,,,,
662fbb4163d7a1695a748636,SCN,2024-06-24_16h16.08.352,LearnStrategy,2023.2.3,Win32,144.092219,,,,,,,,,,,5,07,5,8,,,,,,,,,,,,,,,,,,,,,,,,,,,,,
662fbb4163d7a1695a748636,SCN,2024-06-24_16h16.08.352,LearnStrategy,2023.2.3,Win32,144.092219,,,,,,,,,,,8,06,6,1,,,,,,,,,,,,,,,,,,,,,,,,,,,,,
662fbb4163d7a1695a748636,SCN,2024-06-24_16h16.08.352,LearnStrategy,2023.2.3,Win32,144.092219,,,,,,,,,,,1,04,6,2,,,,,,,,,,,,,,,,,,,,,,,,,,,,,
662fbb4163d7a1695a748636,SCN,2024-06-24_16h16.08.352,LearnStrategy,2023.2.3,Win32,144.092219,,,,,,,,,,,7,14,6,3,,,,,,,,,,,,,,,,,,,,,,,,,,,,,
662fbb4163d7a1695a748636,SCN,2024-06-24_16h16.08.352,LearnStrategy,2023.2.3,Win32,144.092219,,,,,,,,,,,1,14,6,4,,,,,,,,,,,,,,,,,,,,,,,,,,,,,
662fbb4163d7a1695a748636,SCN,2024-06-24_16h16.08.352,LearnStrategy,2023.2.3,Win32,144.092219,,,,,,,,,,,3,16,6,5,,,,,,,,,,,,,,,,,,,,,,,,,,,,,
662fbb4163d7a1695a748636,SCN,2024-06-24_16h16.08.352,LearnStrategy,2023.2.3,Win32,144.092219,,,,,,,,,,,1,07,6,6,,,,,,,,,,,,,,,,,,,,,,,,,,,,,
662fbb4163d7a1695a748636,SCN,2024-06-24_16h16.08.352,LearnStrategy,2023.2.3,Win32,144.092219,,,,,,,,,,,4,11,6,7,,,,,,,,,,,,,,,,,,,,,,,,,,,,,
662fbb4163d7a1695a748636,SCN,2024-06-24_16h16.08.352,LearnStrategy,2023.2.3,Win32,144.092219,,,,,,,,,,,4,15,6,8,,,,,,,,,,,,,,,,,,,,,,,,,,,,,