participant,condition,date,expName,psychopyVersion,OS,frameRate,block,phase,trial,learn_mouse.x,learn_mouse.y,learn_mouse.leftButton,learn_mouse.midButton,learn_mouse.rightButton,learn_mouse.time,learn_mouse.clicked_name,cat,token,row,col,t_select,cat_rec,token_rec,cat_mouse_l.x,cat_mouse_l.y,cat_mouse_l.leftButton,cat_mouse_l.midButton,cat_mouse_l.rightButton,cat_mouse_l.time,cat_mouse_l.clicked_name,resp,t_resp,corr,train_trials.thisRepN,train_trials.thisTrialN,train_trials.thisN,train_trials.thisIndex,train_trials.ran,cat_mouse_t.x,cat_mouse_t.y,cat_mouse_t.leftButton,cat_mouse_t.midButton,cat_mouse_t.rightButton,cat_mouse_t.time,cat_mouse_t.clicked_name,test_trials.thisRepN,test_trials.thisTrialN,test_trials.thisN,test_trials.thisIndex,test_trials.ran,Bonus
662fb42cc3458e96dee33181,SCR,2024-06-20_13h33.19.839,LearnStrategy,2023.2.3,Win32,142.8571429,,,,,,,,,,,,,,,,,,,,,,,,,,,,,,,,,,,,,,,,,,,,,
662fb42cc3458e96dee33181,SCR,2024-06-20_13h33.19.839,LearnStrategy,2023.2.3,Win32,142.8571429,1,1,1,-0.242592593,-0.284259259,1,0,0,4.2695,Obsidian_05,5,05,2,3,4.269,5,05,-0.363888889,-0.418518519,1,0,0,5.4783,Obsidian_rect,5,5.478,1,0,0,0,0,1,,,,,,,,,,,,,
662fb42cc3458e96dee33181,SCR,2024-06-20_13h33.19.839,LearnStrategy,2023.2.3,Win32,142.8571429,1,1,2,-0.572222222,-0.117592593,1,0,0,2.1232,Basalt_08,2,08,3,1,2.123,2,08,-0.131481481,-0.25,1,0,0,3.2545,Basalt_rect,2,3.254,1,1,0,1,0,1,,,,,,,,,,,,,
662fb42cc3458e96dee33181,SCR,2024-06-20_13h33.19.839,LearnStrategy,2023.2.3,Win32,142.8571429,1,1,3,0.084259259,0.113888889,1,0,0,1.2134,Obsidian_04,5,04,4,5,1.213,5,04,-0.373148148,-0.401851852,1,0,0,1.2816,Obsidian_rect,5,1.282,1,2,0,2,0,1,,,,,,,,,,,,,
662fb42cc3458e96dee33181,SCR,2024-06-20_13h33.19.839,LearnStrategy,2023.2.3,Win32,142.8571429,1,1,4,0.406481481,-0.283333333,1,0,0,1.4011,Diorite_08,3,08,2,7,1.401,3,08,0.131481481,-0.244444444,1,0,0,3.6433,Diorite_rect,3,3.643,1,3,0,3,0,1,,,,,,,,,,,,,
662fb42cc3458e96dee33181,SCR,2024-06-20_13h33.19.839,LearnStrategy,2023.2.3,Win32,142.8571429,1,1,5,-0.57037037,0.112037037,1,0,0,1.2617,Gabbro_03,4,03,4,1,1.262,4,03,-0.384259259,-0.25,1,0,0,3.6834,Andesite_rect,1,3.683,0,4,0,4,0,1,,,,,,,,,,,,,
662fb42cc3458e96dee33181,SCR,2024-06-20_13h33.19.839,LearnStrategy,2023.2.3,Win32,142.8571429,1,1,6,0.543518519,0.084259259,1,0,0,1.2329,Pegmatite_13,6,13,4,8,1.233,6,13,0.152777778,-0.40462963,1,0,0,5.5615,Peridotite_rect,7,5.561,0,5,0,5,0,1,,,,,,,,,,,,,
662fb42cc3458e96dee33181,SCR,2024-06-20_13h33.19.839,LearnStrategy,2023.2.3,Win32,142.8571429,1,1,7,-0.550925926,0.394444444,1,0,0,1.1786,Pumice_13,8,13,6,1,1.179,8,13,0.394444444,-0.412037037,1,0,0,1.8443,Pumice_rect,8,1.844,1,6,0,6,0,1,,,,,,,,,,,,,
662fb42cc3458e96dee33181,SCR,2024-06-20_13h33.19.839,LearnStrategy,2023.2.3,Win32,142.8571429,1,1,8,0.587962963,0.226851852,1,0,0,1.1149,Andesite_09,1,09,5,8,1.115,1,09,0.362962963,-0.242592593,1,0,0,3.1466,Gabbro_rect,4,3.147,0,7,0,7,0,1,,,,,,,,,,,,,
662fb42cc3458e96dee33181,SCR,2024-06-20_13h33.19.839,LearnStrategy,2023.2.3,Win32,142.8571429,1,1,9,-0.408333333,-0.266666667,1,0,0,1.5817,Pumice_16,8,16,2,2,1.582,8,16,0.376851852,-0.405555556,1,0,0,0.9812,Pumice_rect,8,0.981,1,8,0,8,0,1,,,,,,,,,,,,,
662fb42cc3458e96dee33181,SCR,2024-06-20_13h33.19.839,LearnStrategy,2023.2.3,Win32,142.8571429,1,1,10,0.218518519,-0.25,1,0,0,0.9422,Andesite_03,1,03,2,6,0.942,1,03,0.392592593,-0.250925926,1,0,0,1.7536,Gabbro_rect,4,1.754,0,9,0,9,0,1,,,,,,,,,,,,,
662fb42cc3458e96dee33181,SCR,2024-06-20_13h33.19.839,LearnStrategy,2023.2.3,Win32,142.8571429,1,1,11,0.55,-0.111111111,1,0,0,0.9863,Basalt_10,2,10,3,8,0.986,2,10,0.17037037,-0.391666667,1,0,0,3.2638,Peridotite_rect,7,3.264,0,10,0,10,0,1,,,,,,,,,,,,,
662fb42cc3458e96dee33181,SCR,2024-06-20_13h33.19.839,LearnStrategy,2023.2.3,Win32,142.8571429,1,1,12,-0.069444444,0.258333333,1,0,0,0.8324,Pegmatite_09,6,09,5,4,0.832,6,09,0.417592593,-0.247222222,1,0,0,6.4115,Gabbro_rect,4,6.411,0,11,0,11,0,1,,,,,,,,,,,,,
662fb42cc3458e96dee33181,SCR,2024-06-20_13h33.19.839,LearnStrategy,2023.2.3,Win32,142.8571429,1,1,13,0.348148148,0.419444444,1,0,0,0.9843,Gabbro_15,4,15,6,7,0.984,4,15,-0.361111111,-0.240740741,1,0,0,1.9195,Andesite_rect,1,1.919,0,12,0,12,0,1,,,,,,,,,,,,,
662fb42cc3458e96dee33181,SCR,2024-06-20_13h33.19.839,LearnStrategy,2023.2.3,Win32,142.8571429,1,1,14,-0.37962963,-0.42037037,1,0,0,1.2482,Peridotite_12,7,12,1,2,1.248,7,12,-0.353703704,-0.252777778,1,0,0,2.3736,Andesite_rect,1,2.374,0,13,0,13,0,1,,,,,,,,,,,,,
662fb42cc3458e96dee33181,SCR,2024-06-20_13h33.19.839,LearnStrategy,2023.2.3,Win32,142.8571429,1,1,15,-0.381481481,0.406481481,1,0,0,0.9073,Peridotite_15,7,15,6,2,0.907,7,15,0.091666667,-0.402777778,1,0,0,2.7854,Peridotite_rect,7,2.785,1,14,0,14,0,1,,,,,,,,,,,,,
662fb42cc3458e96dee33181,SCR,2024-06-20_13h33.19.839,LearnStrategy,2023.2.3,Win32,142.8571429,1,1,16,0.418518519,0.238888889,1,0,0,1.3051,Diorite_12,3,12,5,7,1.305,3,12,-0.346296296,-0.259259259,1,0,0,2.8031,Andesite_rect,1,2.803,0,15,0,15,0,1,,,,,,,,,,,,,
662fb42cc3458e96dee33181,SCR,2024-06-20_13h33.19.839,LearnStrategy,2023.2.3,Win32,142.8571429,1,2,1,,,,,,,,4,01,,,,,,,,,,,,,1,5.757,0,,,,,,-0.403703704,-0.242592593,1,0,0,5.7571,Andesite_rect,0,0,0,0,1,
662fb42cc3458e96dee33181,SCR,2024-06-20_13h33.19.839,LearnStrategy,2023.2.3,Win32,142.8571429,1,2,2,,,,,,,,7,16,,,,,,,,,,,,,1,3.816,0,,,,,,-0.403703704,-0.258333333,1,0,0,3.8157,Andesite_rect,1,0,1,0,1,
662fb42cc3458e96dee33181,SCR,2024-06-20_13h33.19.839,LearnStrategy,2023.2.3,Win32,142.8571429,1,2,3,,,,,,,,3,07,,,,,,,,,,,,,4,2.088,0,,,,,,0.360185185,-0.251851852,1,0,0,2.0882,Gabbro_rect,2,0,2,0,1,
662fb42cc3458e96dee33181,SCR,2024-06-20_13h33.19.839,LearnStrategy,2023.2.3,Win32,142.8571429,1,2,4,,,,,,,,1,07,,,,,,,,,,,,,3,2.004,0,,,,,,0.12037037,-0.256481481,1,0,0,2.0043,Diorite_rect,3,0,3,0,1,
662fb42cc3458e96dee33181,SCR,2024-06-20_13h33.19.839,LearnStrategy,2023.2.3,Win32,142.8571429,1,2,5,,,,,,,,2,02,,,,,,,,,,,,,2,1.203,1,,,,,,-0.156481481,-0.265740741,1,0,0,1.2027,Basalt_rect,4,0,4,0,1,
662fb42cc3458e96dee33181,SCR,2024-06-20_13h33.19.839,LearnStrategy,2023.2.3,Win32,142.8571429,1,2,6,,,,,,,,4,12,,,,,,,,,,,,,2,1.67,0,,,,,,-0.149074074,-0.253703704,1,0,0,1.6696,Basalt_rect,5,0,5,0,1,
662fb42cc3458e96dee33181,SCR,2024-06-20_13h33.19.839,LearnStrategy,2023.2.3,Win32,142.8571429,1,2,7,,,,,,,,1,04,,,,,,,,,,,,,1,3.869,1,,,,,,-0.303703704,-0.255555556,1,0,0,3.8687,Andesite_rect,6,0,6,0,1,
662fb42cc3458e96dee33181,SCR,2024-06-20_13h33.19.839,LearnStrategy,2023.2.3,Win32,142.8571429,1,2,8,,,,,,,,8,04,,,,,,,,,,,,,8,1.248,1,,,,,,0.355555556,-0.402777778,1,0,0,1.2479,Pumice_rect,7,0,7,0,1,
662fb42cc3458e96dee33181,SCR,2024-06-20_13h33.19.839,LearnStrategy,2023.2.3,Win32,142.8571429,1,2,9,,,,,,,,5,10,,,,,,,,,,,,,5,1.788,1,,,,,,-0.431481481,-0.4,1,0,0,1.7878,Obsidian_rect,8,0,8,0,1,
662fb42cc3458e96dee33181,SCR,2024-06-20_13h33.19.839,LearnStrategy,2023.2.3,Win32,142.8571429,1,2,10,,,,,,,,5,07,,,,,,,,,,,,,5,1.584,1,,,,,,-0.402777778,-0.386111111,1,0,0,1.5836,Obsidian_rect,9,0,9,0,1,
662fb42cc3458e96dee33181,SCR,2024-06-20_13h33.19.839,LearnStrategy,2023.2.3,Win32,142.8571429,1,2,11,,,,,,,,8,15,,,,,,,,,,,,,8,1.086,1,,,,,,0.393518519,-0.390740741,1,0,0,1.0861,Pumice_rect,10,0,10,0,1,
662fb42cc3458e96dee33181,SCR,2024-06-20_13h33.19.839,LearnStrategy,2023.2.3,Win32,142.8571429,1,2,12,,,,,,,,6,03,,,,,,,,,,,,,7,2.744,0,,,,,,0.078703704,-0.416666667,1,0,0,2.7436,Peridotite_rect,11,0,11,0,1,
662fb42cc3458e96dee33181,SCR,2024-06-20_13h33.19.839,LearnStrategy,2023.2.3,Win32,142.8571429,1,2,13,,,,,,,,2,05,,,,,,,,,,,,,2,1.896,1,,,,,,-0.119444444,-0.250925926,1,0,0,1.8956,Basalt_rect,12,0,12,0,1,
662fb42cc3458e96dee33181,SCR,2024-06-20_13h33.19.839,LearnStrategy,2023.2.3,Win32,142.8571429,1,2,14,,,,,,,,7,13,,,,,,,,,,,,,7,1.803,1,,,,,,0.130555556,-0.416666667,1,0,0,1.8026,Peridotite_rect,13,0,13,0,1,
662fb42cc3458e96dee33181,SCR,2024-06-20_13h33.19.839,LearnStrategy,2023.2.3,Win32,142.8571429,1,2,15,,,,,,,,3,16,,,,,,,,,,,,,3,1.987,1,,,,,,0.108333333,-0.247222222,1,0,0,1.9874,Diorite_rect,14,0,14,0,1,
662fb42cc3458e96dee33181,SCR,2024-06-20_13h33.19.839,LearnStrategy,2023.2.3,Win32,142.8571429,1,2,16,,,,,,,,6,12,,,,,,,,,,,,,3,1.686,0,,,,,,0.108333333,-0.247222222,1,0,0,1.6856,Diorite_rect,15,0,15,0,1,
662fb42cc3458e96dee33181,SCR,2024-06-20_13h33.19.839,LearnStrategy,2023.2.3,Win32,142.8571429,2,1,1,-0.39537037,-0.081481481,1,0,0,1.4359,Pegmatite_06,6,06,3,2,1.436,6,06,0.111111111,-0.394444444,1,0,0,4.4745,Peridotite_rect,7,4.475,0,0,0,0,0,1,,,,,,,,,,,,,
662fb42cc3458e96dee33181,SCR,2024-06-20_13h33.19.839,LearnStrategy,2023.2.3,Win32,142.8571429,2,1,2,0.243518519,0.425,1,0,0,2.1023,Gabbro_08,4,08,6,6,2.102,4,08,-0.119444444,-0.251851852,1,0,0,5.1708,Basalt_rect,2,5.171,0,1,0,1,0,1,,,,,,,,,,,,,
662fb42cc3458e96dee33181,SCR,2024-06-20_13h33.19.839,LearnStrategy,2023.2.3,Win32,142.8571429,2,1,3,0.549074074,0.372222222,1,0,0,0.963,Pegmatite_15,6,15,6,8,0.963,6,15,0.15462963,-0.412037037,1,0,0,3.4913,Peridotite_rect,7,3.491,0,2,0,2,0,1,,,,,,,,,,,,,
662fb42cc3458e96dee33181,SCR,2024-06-20_13h33.19.839,LearnStrategy,2023.2.3,Win32,142.8571429,2,1,4,-0.243518519,0.443518519,1,0,0,0.8872,Gabbro_11,4,11,6,3,0.887,4,11,0.385185185,-0.238888889,1,0,0,3.4424,Gabbro_rect,4,3.442,1,3,0,3,0,1,,,,,,,,,,,,,
662fb42cc3458e96dee33181,SCR,2024-06-20_13h33.19.839,LearnStrategy,2023.2.3,Win32,142.8571429,2,1,5,-0.092592593,0.418518519,1,0,0,0.7689,Andesite_05,1,05,6,4,0.769,1,05,0.096296296,-0.397222222,1,0,0,3.4335,Peridotite_rect,7,3.433,0,4,0,4,0,1,,,,,,,,,,,,,
662fb42cc3458e96dee33181,SCR,2024-06-20_13h33.19.839,LearnStrategy,2023.2.3,Win32,142.8571429,2,1,6,0.374074074,0.380555556,1,0,0,0.9294,Gabbro_15,4,15,6,7,0.929,4,15,-0.362962963,-0.247222222,1,0,0,1.6153,Andesite_rect,1,1.615,0,5,0,5,0,1,,,,,,,,,,,,,
662fb42cc3458e96dee33181,SCR,2024-06-20_13h33.19.839,LearnStrategy,2023.2.3,Win32,142.8571429,2,1,7,0.515740741,0.078703704,1,0,0,0.8319,Pegmatite_13,6,13,4,8,0.832,6,13,0.144444444,-0.387962963,1,0,0,3.1325,Peridotite_rect,7,3.133,0,6,0,6,0,1,,,,,,,,,,,,,
662fb42cc3458e96dee33181,SCR,2024-06-20_13h33.19.839,LearnStrategy,2023.2.3,Win32,142.8571429,2,1,8,-0.07037037,-0.387962963,1,0,0,1.0672,Basalt_14,2,14,1,4,1.067,2,14,0.35462963,-0.409259259,1,0,0,1.4922,Pumice_rect,8,1.492,0,7,0,7,0,1,,,,,,,,,,,,,
662fb42cc3458e96dee33181,SCR,2024-06-20_13h33.19.839,LearnStrategy,2023.2.3,Win32,142.8571429,2,1,9,-0.412037037,0.262037037,1,0,0,1.0116,Diorite_02,3,02,5,2,1.012,3,02,-0.372222222,-0.257407407,1,0,0,1.7565,Andesite_rect,1,1.757,0,8,0,8,0,1,,,,,,,,,,,,,
662fb42cc3458e96dee33181,SCR,2024-06-20_13h33.19.839,LearnStrategy,2023.2.3,Win32,142.8571429,2,1,10,-0.094444444,-0.291666667,1,0,0,0.7412,Pegmatite_11,6,11,2,4,0.741,6,11,0.121296296,-0.4,1,0,0,1.9549,Peridotite_rect,7,1.955,0,9,0,9,0,1,,,,,,,,,,,,,
662fb42cc3458e96dee33181,SCR,2024-06-20_13h33.19.839,LearnStrategy,2023.2.3,Win32,142.8571429,2,1,11,0.05462963,-0.415740741,1,0,0,0.8455,Peridotite_10,7,10,1,5,0.846,7,10,0.091666667,-0.400925926,1,0,0,4.7718,Peridotite_rect,7,4.772,1,10,0,10,0,1,,,,,,,,,,,,,
662fb42cc3458e96dee33181,SCR,2024-06-20_13h33.19.839,LearnStrategy,2023.2.3,Win32,142.8571429,2,1,12,0.237962963,-0.289814815,1,0,0,1.149,Andesite_03,1,03,2,6,1.149,1,03,0.317592593,-0.256481481,1,0,0,3.3178,Gabbro_rect,4,3.318,0,11,0,11,0,1,,,,,,,,,,,,,
662fb42cc3458e96dee33181,SCR,2024-06-20_13h33.19.839,LearnStrategy,2023.2.3,Win32,142.8571429,2,1,13,0.074074074,-0.087037037,1,0,0,0.6575,Andesite_10,1,10,3,5,0.657,1,10,-0.367592593,-0.244444444,1,0,0,1.5932,Andesite_rect,1,1.593,1,12,0,12,0,1,,,,,,,,,,,,,
662fb42cc3458e96dee33181,SCR,2024-06-20_13h33.19.839,LearnStrategy,2023.2.3,Win32,142.8571429,2,1,14,0.256481481,0.102777778,1,0,0,1.3107,Peridotite_05,7,05,4,6,1.311,7,05,0.125,-0.405555556,1,0,0,3.0329,Peridotite_rect,7,3.033,1,13,0,13,0,1,,,,,,,,,,,,,
662fb42cc3458e96dee33181,SCR,2024-06-20_13h33.19.839,LearnStrategy,2023.2.3,Win32,142.8571429,2,1,15,0.371296296,0.397222222,1,0,0,0.8596,Gabbro_15,4,15,6,7,0.86,4,15,0.12037037,-0.250925926,1,0,0,2.3559,Diorite_rect,3,2.356,0,14,0,14,0,1,,,,,,,,,,,,,
662fb42cc3458e96dee33181,SCR,2024-06-20_13h33.19.839,LearnStrategy,2023.2.3,Win32,142.8571429,2,1,16,-0.559259259,-0.419444444,1,0,0,0.9168,Diorite_06,3,06,1,1,0.917,3,06,0.077777778,-0.259259259,1,0,0,3.1041,Diorite_rect,3,3.104,1,15,0,15,0,1,,,,,,,,,,,,,
662fb42cc3458e96dee33181,SCR,2024-06-20_13h33.19.839,LearnStrategy,2023.2.3,Win32,142.8571429,2,2,1,,,,,,,,4,05,,,,,,,,,,,,,4,8.82,1,,,,,,0.357407407,-0.251851852,1,0,0,8.8198,Gabbro_rect,0,0,0,0,1,
662fb42cc3458e96dee33181,SCR,2024-06-20_13h33.19.839,LearnStrategy,2023.2.3,Win32,142.8571429,2,2,2,,,,,,,,6,07,,,,,,,,,,,,,6,4.462,1,,,,,,-0.101851852,-0.403703704,1,0,0,4.4618,Pegmatite_rect,1,0,1,0,1,
662fb42cc3458e96dee33181,SCR,2024-06-20_13h33.19.839,LearnStrategy,2023.2.3,Win32,142.8571429,2,2,3,,,,,,,,7,06,,,,,,,,,,,,,7,3.548,1,,,,,,0.107407407,-0.406481481,1,0,0,3.5483,Peridotite_rect,2,0,2,0,1,
662fb42cc3458e96dee33181,SCR,2024-06-20_13h33.19.839,LearnStrategy,2023.2.3,Win32,142.8571429,2,2,4,,,,,,,,3,15,,,,,,,,,,,,,3,3.616,1,,,,,,0.139814815,-0.258333333,1,0,0,3.6156,Diorite_rect,3,0,3,0,1,
662fb42cc3458e96dee33181,SCR,2024-06-20_13h33.19.839,LearnStrategy,2023.2.3,Win32,142.8571429,2,2,5,,,,,,,,2,01,,,,,,,,,,,,,2,1.102,1,,,,,,-0.112037037,-0.257407407,1,0,0,1.1017,Basalt_rect,4,0,4,0,1,
662fb42cc3458e96dee33181,SCR,2024-06-20_13h33.19.839,LearnStrategy,2023.2.3,Win32,142.8571429,2,2,6,,,,,,,,1,02,,,,,,,,,,,,,1,2.221,1,,,,,,-0.392592593,-0.251851852,1,0,0,2.221,Andesite_rect,5,0,5,0,1,
662fb42cc3458e96dee33181,SCR,2024-06-20_13h33.19.839,LearnStrategy,2023.2.3,Win32,142.8571429,2,2,7,,,,,,,,7,08,,,,,,,,,,,,,7,1.348,1,,,,,,0.088888889,-0.383333333,1,0,0,1.3477,Peridotite_rect,6,0,6,0,1,
662fb42cc3458e96dee33181,SCR,2024-06-20_13h33.19.839,LearnStrategy,2023.2.3,Win32,142.8571429,2,2,8,,,,,,,,1,11,,,,,,,,,,,,,4,10.421,0,,,,,,0.377777778,-0.250925926,1,0,0,10.421,Gabbro_rect,7,0,7,0,1,
662fb42cc3458e96dee33181,SCR,2024-06-20_13h33.19.839,LearnStrategy,2023.2.3,Win32,142.8571429,2,2,9,,,,,,,,4,10,,,,,,,,,,,,,2,1.883,0,,,,,,-0.118518519,-0.250925926,1,0,0,1.8831,Basalt_rect,8,0,8,0,1,
662fb42cc3458e96dee33181,SCR,2024-06-20_13h33.19.839,LearnStrategy,2023.2.3,Win32,142.8571429,2,2,10,,,,,,,,6,16,,,,,,,,,,,,,6,3.484,1,,,,,,-0.078703704,-0.391666667,1,0,0,3.4842,Pegmatite_rect,9,0,9,0,1,
662fb42cc3458e96dee33181,SCR,2024-06-20_13h33.19.839,LearnStrategy,2023.2.3,Win32,142.8571429,2,2,11,,,,,,,,2,12,,,,,,,,,,,,,2,2.225,1,,,,,,-0.114814815,-0.260185185,1,0,0,2.2253,Basalt_rect,10,0,10,0,1,
662fb42cc3458e96dee33181,SCR,2024-06-20_13h33.19.839,LearnStrategy,2023.2.3,Win32,142.8571429,2,2,12,,,,,,,,8,09,,,,,,,,,,,,,8,1.322,1,,,,,,0.374074074,-0.419444444,1,0,0,1.3219,Pumice_rect,11,0,11,0,1,
662fb42cc3458e96dee33181,SCR,2024-06-20_13h33.19.839,LearnStrategy,2023.2.3,Win32,142.8571429,2,2,13,,,,,,,,5,06,,,,,,,,,,,,,5,1.054,1,,,,,,-0.346296296,-0.391666667,1,0,0,1.0536,Obsidian_rect,12,0,12,0,1,
662fb42cc3458e96dee33181,SCR,2024-06-20_13h33.19.839,LearnStrategy,2023.2.3,Win32,142.8571429,2,2,14,,,,,,,,5,14,,,,,,,,,,,,,5,0.69,1,,,,,,-0.346296296,-0.391666667,1,0,0,0.6897,Obsidian_rect,13,0,13,0,1,
662fb42cc3458e96dee33181,SCR,2024-06-20_13h33.19.839,LearnStrategy,2023.2.3,Win32,142.8571429,2,2,15,,,,,,,,3,11,,,,,,,,,,,,,3,3.96,1,,,,,,0.142592593,-0.233333333,1,0,0,3.9602,Diorite_rect,14,0,14,0,1,
662fb42cc3458e96dee33181,SCR,2024-06-20_13h33.19.839,LearnStrategy,2023.2.3,Win32,142.8571429,2,2,16,,,,,,,,8,08,,,,,,,,,,,,,8,1.217,1,,,,,,0.401851852,-0.408333333,1,0,0,1.2173,Pumice_rect,15,0,15,0,1,
662fb42cc3458e96dee33181,SCR,2024-06-20_13h33.19.839,LearnStrategy,2023.2.3,Win32,142.8571429,3,1,1,0.089814815,-0.105555556,1,0,0,3.4363,Andesite_10,1,10,3,5,3.436,1,10,-0.356481481,-0.237037037,1,0,0,4.9546,Andesite_rect,1,4.955,1,0,0,0,0,1,,,,,,,,,,,,,
662fb42cc3458e96dee33181,SCR,2024-06-20_13h33.19.839,LearnStrategy,2023.2.3,Win32,142.8571429,3,1,2,-0.540740741,-0.128703704,1,0,0,0.8899,Basalt_08,2,08,3,1,0.89,2,08,-0.17037037,-0.242592593,1,0,0,0.6421,Basalt_rect,2,0.642,1,1,0,1,0,1,,,,,,,,,,,,,
662fb42cc3458e96dee33181,SCR,2024-06-20_13h33.19.839,LearnStrategy,2023.2.3,Win32,142.8571429,3,1,3,-0.534259259,0.249074074,1,0,0,0.9416,Gabbro_13,4,13,5,1,0.942,4,13,0.415740741,-0.241666667,1,0,0,3.475,Gabbro_rect,4,3.475,1,2,0,2,0,1,,,,,,,,,,,,,
662fb42cc3458e96dee33181,SCR,2024-06-20_13h33.19.839,LearnStrategy,2023.2.3,Win32,142.8571429,3,1,4,-0.255555556,0.40462963,1,0,0,0.8889,Gabbro_11,4,11,6,3,0.889,4,11,0.410185185,-0.238888889,1,0,0,3.3516,Gabbro_rect,4,3.352,1,3,0,3,0,1,,,,,,,,,,,,,
662fb42cc3458e96dee33181,SCR,2024-06-20_13h33.19.839,LearnStrategy,2023.2.3,Win32,142.8571429,3,1,5,0.207407407,0.387037037,1,0,0,0.9915,Gabbro_08,4,08,6,6,0.992,4,08,-0.402777778,-0.263888889,1,0,0,4.2683,Andesite_rect,1,4.268,0,4,0,4,0,1,,,,,,,,,,,,,
662fb42cc3458e96dee33181,SCR,2024-06-20_13h33.19.839,LearnStrategy,2023.2.3,Win32,142.8571429,3,1,6,-0.378703704,-0.386111111,1,0,0,1.1145,Peridotite_12,7,12,1,2,1.115,7,12,0.14537037,-0.401851852,1,0,0,2.1997,Peridotite_rect,7,2.2,1,5,0,5,0,1,,,,,,,,,,,,,
662fb42cc3458e96dee33181,SCR,2024-06-20_13h33.19.839,LearnStrategy,2023.2.3,Win32,142.8571429,3,1,7,-0.087037037,-0.272222222,1,0,0,0.7555,Pegmatite_11,6,11,2,4,0.756,6,11,-0.122222222,-0.408333333,1,0,0,1.484,Pegmatite_rect,6,1.484,1,6,0,6,0,1,,,,,,,,,,,,,
662fb42cc3458e96dee33181,SCR,2024-06-20_13h33.19.839,LearnStrategy,2023.2.3,Win32,142.8571429,3,1,8,0.515740741,0.078703704,1,0,0,0.9709,Pegmatite_13,6,13,4,8,0.971,6,13,-0.084259259,-0.394444444,1,0,0,1.3979,Pegmatite_rect,6,1.398,1,7,0,7,0,1,,,,,,,,,,,,,
662fb42cc3458e96dee33181,SCR,2024-06-20_13h33.19.839,LearnStrategy,2023.2.3,Win32,142.8571429,3,1,9,-0.544444444,0.073148148,1,0,0,0.7208,Gabbro_03,4,03,4,1,0.721,4,03,0.401851852,-0.247222222,1,0,0,6.4742,Gabbro_rect,4,6.474,1,8,0,8,0,1,,,,,,,,,,,,,
662fb42cc3458e96dee33181,SCR,2024-06-20_13h33.19.839,LearnStrategy,2023.2.3,Win32,142.8571429,3,1,10,0.387037037,-0.261111111,1,0,0,0.9708,Diorite_08,3,08,2,7,0.971,3,08,0.097222222,-0.253703704,1,0,0,11.3819,Diorite_rect,3,11.382,1,9,0,9,0,1,,,,,,,,,,,,,
662fb42cc3458e96dee33181,SCR,2024-06-20_13h33.19.839,LearnStrategy,2023.2.3,Win32,142.8571429,3,1,11,-0.058333333,-0.112962963,1,0,0,0.776,Pumice_05,8,05,3,4,0.776,8,05,0.387962963,-0.387037037,1,0,0,0.5582,Pumice_rect,8,0.558,1,10,0,10,0,1,,,,,,,,,,,,,
662fb42cc3458e96dee33181,SCR,2024-06-20_13h33.19.839,LearnStrategy,2023.2.3,Win32,142.8571429,3,1,12,-0.378703704,-0.425925926,1,0,0,17.1045,Peridotite_12,7,12,1,2,17.105,5,12,0.126851852,-0.410185185,1,0,0,3.0829,Peridotite_rect,7,3.083,1,11,0,11,0,1,,,,,,,,,,,,,
662fb42cc3458e96dee33181,SCR,2024-06-20_13h33.19.839,LearnStrategy,2023.2.3,Win32,142.8571429,3,1,13,-0.106481481,0.425,1,0,0,1.672,Andesite_05,1,05,6,4,1.672,1,05,-0.374074074,-0.25462963,1,0,0,4.819,Andesite_rect,1,4.819,1,12,0,12,0,1,,,,,,,,,,,,,
662fb42cc3458e96dee33181,SCR,2024-06-20_13h33.19.839,LearnStrategy,2023.2.3,Win32,142.8571429,3,1,14,-0.540740741,-0.421296296,1,0,0,1.8322,Diorite_06,3,06,1,1,1.832,3,06,0.1,-0.263888889,1,0,0,3.6978,Diorite_rect,3,3.698,1,13,0,13,0,1,,,,,,,,,,,,,
662fb42cc3458e96dee33181,SCR,2024-06-20_13h33.19.839,LearnStrategy,2023.2.3,Win32,142.8571429,3,1,15,0.582407407,-0.268518519,1,0,0,1.464,Peridotite_02,7,02,2,8,1.464,7,02,0.160185185,-0.408333333,1,0,0,1.9901,Peridotite_rect,7,1.99,1,14,0,14,0,1,,,,,,,,,,,,,
662fb42cc3458e96dee33181,SCR,2024-06-20_13h33.19.839,LearnStrategy,2023.2.3,Win32,142.8571429,3,1,16,0.037962963,0.384259259,1,0,0,1.5331,Andesite_16,1,16,6,5,1.533,1,16,-0.350925926,-0.25462963,1,0,0,2.5582,Andesite_rect,1,2.558,1,15,0,15,0,1,,,,,,,,,,,,,
662fb42cc3458e96dee33181,SCR,2024-06-20_13h33.19.839,LearnStrategy,2023.2.3,Win32,142.8571429,3,2,1,,,,,,,,3,09,,,,,,,,,,,,,3,2.08,1,,,,,,0.087037037,-0.249074074,1,0,0,2.0796,Diorite_rect,0,0,0,0,1,
662fb42cc3458e96dee33181,SCR,2024-06-20_13h33.19.839,LearnStrategy,2023.2.3,Win32,142.8571429,3,2,2,,,,,,,,5,02,,,,,,,,,,,,,5,1.048,1,,,,,,-0.361111111,-0.402777778,1,0,0,1.0483,Obsidian_rect,1,0,1,0,1,
662fb42cc3458e96dee33181,SCR,2024-06-20_13h33.19.839,LearnStrategy,2023.2.3,Win32,142.8571429,3,2,3,,,,,,,,7,07,,,,,,,,,,,,,7,2.599,1,,,,,,0.125,-0.408333333,1,0,0,2.5992,Peridotite_rect,2,0,2,0,1,
662fb42cc3458e96dee33181,SCR,2024-06-20_13h33.19.839,LearnStrategy,2023.2.3,Win32,142.8571429,3,2,4,,,,,,,,1,01,,,,,,,,,,,,,1,4.058,1,,,,,,-0.376851852,-0.252777778,1,0,0,4.0579,Andesite_rect,3,0,3,0,1,
662fb42cc3458e96dee33181,SCR,2024-06-20_13h33.19.839,LearnStrategy,2023.2.3,Win32,142.8571429,3,2,5,,,,,,,,4,14,,,,,,,,,,,,,2,5.357,0,,,,,,-0.128703704,-0.257407407,1,0,0,5.3566,Basalt_rect,4,0,4,0,1,
662fb42cc3458e96dee33181,SCR,2024-06-20_13h33.19.839,LearnStrategy,2023.2.3,Win32,142.8571429,3,2,6,,,,,,,,2,16,,,,,,,,,,,,,2,3.308,1,,,,,,-0.128703704,-0.257407407,1,0,0,3.3084,Basalt_rect,5,0,5,0,1,
662fb42cc3458e96dee33181,SCR,2024-06-20_13h33.19.839,LearnStrategy,2023.2.3,Win32,142.8571429,3,2,7,,,,,,,,4,16,,,,,,,,,,,,,7,4.479,0,,,,,,0.132407407,-0.399074074,1,0,0,4.4793,Peridotite_rect,6,0,6,0,1,
662fb42cc3458e96dee33181,SCR,2024-06-20_13h33.19.839,LearnStrategy,2023.2.3,Win32,142.8571429,3,2,8,,,,,,,,2,04,,,,,,,,,,,,,2,1.204,1,,,,,,-0.096296296,-0.261111111,1,0,0,1.2036,Basalt_rect,7,0,7,0,1,
662fb42cc3458e96dee33181,SCR,2024-06-20_13h33.19.839,LearnStrategy,2023.2.3,Win32,142.8571429,3,2,9,,,,,,,,5,09,,,,,,,,,,,,,5,0.886,1,,,,,,-0.373148148,-0.408333333,1,0,0,0.8857,Obsidian_rect,8,0,8,0,1,
662fb42cc3458e96dee33181,SCR,2024-06-20_13h33.19.839,LearnStrategy,2023.2.3,Win32,142.8571429,3,2,10,,,,,,,,6,10,,,,,,,,,,,,,6,2.169,1,,,,,,-0.12037037,-0.4,1,0,0,2.1692,Pegmatite_rect,9,0,9,0,1,
662fb42cc3458e96dee33181,SCR,2024-06-20_13h33.19.839,LearnStrategy,2023.2.3,Win32,142.8571429,3,2,11,,,,,,,,1,14,,,,,,,,,,,,,3,2.841,0,,,,,,0.124074074,-0.24537037,1,0,0,2.8409,Diorite_rect,10,0,10,0,1,
662fb42cc3458e96dee33181,SCR,2024-06-20_13h33.19.839,LearnStrategy,2023.2.3,Win32,142.8571429,3,2,12,,,,,,,,8,02,,,,,,,,,,,,,8,1.642,1,,,,,,0.446296296,-0.413888889,1,0,0,1.6418,Pumice_rect,11,0,11,0,1,
662fb42cc3458e96dee33181,SCR,2024-06-20_13h33.19.839,LearnStrategy,2023.2.3,Win32,142.8571429,3,2,13,,,,,,,,8,14,,,,,,,,,,,,,8,0.537,1,,,,,,0.446296296,-0.413888889,1,0,0,0.5371,Pumice_rect,12,0,12,0,1,
662fb42cc3458e96dee33181,SCR,2024-06-20_13h33.19.839,LearnStrategy,2023.2.3,Win32,142.8571429,3,2,14,,,,,,,,7,04,,,,,,,,,,,,,3,4.268,0,,,,,,0.174074074,-0.251851852,1,0,0,4.2677,Diorite_rect,13,0,13,0,1,
662fb42cc3458e96dee33181,SCR,2024-06-20_13h33.19.839,LearnStrategy,2023.2.3,Win32,142.8571429,3,2,15,,,,,,,,6,05,,,,,,,,,,,,,6,4.038,1,,,,,,-0.112962963,-0.388888889,1,0,0,4.0382,Pegmatite_rect,14,0,14,0,1,
662fb42cc3458e96dee33181,SCR,2024-06-20_13h33.19.839,LearnStrategy,2023.2.3,Win32,142.8571429,3,2,16,,,,,,,,3,13,,,,,,,,,,,,,3,3.336,1,,,,,,0.127777778,-0.262962963,1,0,0,3.3355,Diorite_rect,15,0,15,0,1,
662fb42cc3458e96dee33181,SCR,2024-06-20_13h33.19.839,LearnStrategy,2023.2.3,Win32,142.8571429,4,1,1,0.405555556,-0.099074074,1,0,0,2.8329,Pegmatite_08,6,08,3,7,2.833,6,08,-0.101851852,-0.398148148,1,0,0,2.3757,Pegmatite_rect,6,2.376,1,0,0,0,0,1,,,,,,,,,,,,,
662fb42cc3458e96dee33181,SCR,2024-06-20_13h33.19.839,LearnStrategy,2023.2.3,Win32,142.8571429,4,1,2,0.57037037,0.236111111,1,0,0,2.1795,Andesite_09,1,09,5,8,2.18,1,09,-0.373148148,-0.237037037,1,0,0,3.0337,Andesite_rect,1,3.034,1,1,0,1,0,1,,,,,,,,,,,,,
662fb42cc3458e96dee33181,SCR,2024-06-20_13h33.19.839,LearnStrategy,2023.2.3,Win32,142.8571429,4,1,3,0.39537037,0.402777778,1,0,0,1.4502,Gabbro_15,4,15,6,7,1.45,4,15,0.365740741,-0.252777778,1,0,0,3.4211,Gabbro_rect,4,3.421,1,2,0,2,0,1,,,,,,,,,,,,,
662fb42cc3458e96dee33181,SCR,2024-06-20_13h33.19.839,LearnStrategy,2023.2.3,Win32,142.8571429,4,1,4,-0.550925926,0.268518519,1,0,0,11.1967,Gabbro_13,4,13,5,1,11.197,4,15,0.343518519,-0.237037037,1,0,0,3.7717,Gabbro_rect,4,3.772,1,3,0,3,0,1,,,,,,,,,,,,,
662fb42cc3458e96dee33181,SCR,2024-06-20_13h33.19.839,LearnStrategy,2023.2.3,Win32,142.8571429,4,1,5,0.069444444,-0.133333333,1,0,0,6.2636,Andesite_10,1,10,3,5,6.264,5,12,-0.376851852,-0.239814815,1,0,0,1.297,Andesite_rect,1,1.297,1,4,0,4,0,1,,,,,,,,,,,,,
662fb42cc3458e96dee33181,SCR,2024-06-20_13h33.19.839,LearnStrategy,2023.2.3,Win32,142.8571429,4,1,6,0.565740741,-0.285185185,1,0,0,3.0193,Peridotite_02,7,02,2,8,3.019,8,06,0.125925926,-0.403703704,1,0,0,1.2382,Peridotite_rect,7,1.238,1,5,0,5,0,1,,,,,,,,,,,,,
662fb42cc3458e96dee33181,SCR,2024-06-20_13h33.19.839,LearnStrategy,2023.2.3,Win32,142.8571429,4,1,7,-0.259259259,-0.275,1,0,0,4.0062,Obsidian_05,5,05,2,3,4.006,2,08,-0.37037037,-0.394444444,1,0,0,1.7306,Obsidian_rect,5,1.731,1,6,0,6,0,1,,,,,,,,,,,,,
662fb42cc3458e96dee33181,SCR,2024-06-20_13h33.19.839,LearnStrategy,2023.2.3,Win32,142.8571429,4,1,8,0.371296296,-0.430555556,1,0,0,3.4853,Gabbro_09,4,09,1,7,3.485,7,10,0.182407407,-0.240740741,1,0,0,6.9742,Diorite_rect,3,6.974,0,7,0,7,0,1,,,,,,,,,,,,,
662fb42cc3458e96dee33181,SCR,2024-06-20_13h33.19.839,LearnStrategy,2023.2.3,Win32,142.8571429,4,1,9,0.086111111,-0.119444444,1,0,0,1.569,Andesite_10,1,10,3,5,1.569,1,10,-0.362037037,-0.253703704,1,0,0,1.1632,Andesite_rect,1,1.163,1,8,0,8,0,1,,,,,,,,,,,,,
662fb42cc3458e96dee33181,SCR,2024-06-20_13h33.19.839,LearnStrategy,2023.2.3,Win32,142.8571429,4,1,10,0.081481481,-0.283333333,1,0,0,1.2133,Peridotite_14,7,14,2,5,1.213,7,14,0.082407407,-0.385185185,1,0,0,2.6661,Peridotite_rect,7,2.666,1,9,0,9,0,1,,,,,,,,,,,,,
662fb42cc3458e96dee33181,SCR,2024-06-20_13h33.19.839,LearnStrategy,2023.2.3,Win32,142.8571429,4,1,11,0.25,0.425,1,0,0,1.9987,Gabbro_08,4,08,6,6,1.999,4,08,-0.37962963,-0.241666667,1,0,0,2.8617,Andesite_rect,1,2.862,0,10,0,10,0,1,,,,,,,,,,,,,
662fb42cc3458e96dee33181,SCR,2024-06-20_13h33.19.839,LearnStrategy,2023.2.3,Win32,142.8571429,4,1,12,-0.572222222,-0.265740741,1,0,0,1.4402,Diorite_10,3,10,2,1,1.44,3,10,0.110185185,-0.257407407,1,0,0,1.4558,Diorite_rect,3,1.456,1,11,0,11,0,1,,,,,,,,,,,,,
662fb42cc3458e96dee33181,SCR,2024-06-20_13h33.19.839,LearnStrategy,2023.2.3,Win32,142.8571429,4,1,13,0.346296296,-0.375,1,0,0,2.5465,Gabbro_09,4,09,1,7,2.546,4,09,0.458333333,-0.252777778,1,0,0,2.5773,Gabbro_rect,4,2.577,1,12,0,12,0,1,,,,,,,,,,,,,
662fb42cc3458e96dee33181,SCR,2024-06-20_13h33.19.839,LearnStrategy,2023.2.3,Win32,142.8571429,4,1,14,0.265740741,-0.286111111,1,0,0,0.9985,Andesite_03,1,03,2,6,0.999,1,03,0.355555556,-0.238888889,1,0,0,2.1691,Gabbro_rect,4,2.169,0,13,0,13,0,1,,,,,,,,,,,,,
662fb42cc3458e96dee33181,SCR,2024-06-20_13h33.19.839,LearnStrategy,2023.2.3,Win32,142.8571429,4,1,15,0.365740741,-0.411111111,1,0,0,2.6032,Gabbro_09,4,09,1,7,2.603,4,09,0.373148148,-0.247222222,1,0,0,2.0214,Gabbro_rect,4,2.021,1,14,0,14,0,1,,,,,,,,,,,,,
662fb42cc3458e96dee33181,SCR,2024-06-20_13h33.19.839,LearnStrategy,2023.2.3,Win32,142.8571429,4,1,16,0.089814815,-0.399074074,1,0,0,0.824,Peridotite_10,7,10,1,5,0.824,7,10,0.100925926,-0.396296296,1,0,0,0.8357,Peridotite_rect,7,0.836,1,15,0,15,0,1,,,,,,,,,,,,,
662fb42cc3458e96dee33181,SCR,2024-06-20_13h33.19.839,LearnStrategy,2023.2.3,Win32,142.8571429,4,2,1,,,,,,,,6,07,,,,,,,,,,,,,6,1.606,1,,,,,,-0.146296296,-0.386111111,1,0,0,1.6063,Pegmatite_rect,0,0,0,0,1,
662fb42cc3458e96dee33181,SCR,2024-06-20_13h33.19.839,LearnStrategy,2023.2.3,Win32,142.8571429,4,2,2,,,,,,,,6,16,,,,,,,,,,,,,6,1.051,1,,,,,,-0.146296296,-0.402777778,1,0,0,1.0512,Pegmatite_rect,1,0,1,0,1,
662fb42cc3458e96dee33181,SCR,2024-06-20_13h33.19.839,LearnStrategy,2023.2.3,Win32,142.8571429,4,2,3,,,,,,,,5,07,,,,,,,,,,,,,5,0.98,1,,,,,,-0.412962963,-0.419444444,1,0,0,0.9798,Obsidian_rect,2,0,2,0,1,
662fb42cc3458e96dee33181,SCR,2024-06-20_13h33.19.839,LearnStrategy,2023.2.3,Win32,142.8571429,4,2,4,,,,,,,,5,14,,,,,,,,,,,,,5,0.642,1,,,,,,-0.412962963,-0.419444444,1,0,0,0.6421,Obsidian_rect,3,0,3,0,1,
662fb42cc3458e96dee33181,SCR,2024-06-20_13h33.19.839,LearnStrategy,2023.2.3,Win32,142.8571429,4,2,5,,,,,,,,2,01,,,,,,,,,,,,,2,1.273,1,,,,,,-0.133333333,-0.255555556,1,0,0,1.2727,Basalt_rect,4,0,4,0,1,
662fb42cc3458e96dee33181,SCR,2024-06-20_13h33.19.839,LearnStrategy,2023.2.3,Win32,142.8571429,4,2,6,,,,,,,,4,12,,,,,,,,,,,,,4,4.608,1,,,,,,0.352777778,-0.246296296,1,0,0,4.6077,Gabbro_rect,5,0,5,0,1,
662fb42cc3458e96dee33181,SCR,2024-06-20_13h33.19.839,LearnStrategy,2023.2.3,Win32,142.8571429,4,2,7,,,,,,,,7,06,,,,,,,,,,,,,7,1.326,1,,,,,,0.15462963,-0.411111111,1,0,0,1.3256,Peridotite_rect,6,0,6,0,1,
662fb42cc3458e96dee33181,SCR,2024-06-20_13h33.19.839,LearnStrategy,2023.2.3,Win32,142.8571429,4,2,8,,,,,,,,1,07,,,,,,,,,,,,,1,8.416,1,,,,,,-0.383333333,-0.237037037,1,0,0,8.4161,Andesite_rect,7,0,7,0,1,
662fb42cc3458e96dee33181,SCR,2024-06-20_13h33.19.839,LearnStrategy,2023.2.3,Win32,142.8571429,4,2,9,,,,,,,,8,09,,,,,,,,,,,,,8,1.069,1,,,,,,0.349074074,-0.380555556,1,0,0,1.0687,Pumice_rect,8,0,8,0,1,
662fb42cc3458e96dee33181,SCR,2024-06-20_13h33.19.839,LearnStrategy,2023.2.3,Win32,142.8571429,4,2,10,,,,,,,,3,15,,,,,,,,,,,,,3,1.673,1,,,,,,0.12037037,-0.236111111,1,0,0,1.6727,Diorite_rect,9,0,9,0,1,
662fb42cc3458e96dee33181,SCR,2024-06-20_13h33.19.839,LearnStrategy,2023.2.3,Win32,142.8571429,4,2,11,,,,,,,,8,02,,,,,,,,,,,,,8,0.902,1,,,,,,0.374074074,-0.409259259,1,0,0,0.9022,Pumice_rect,10,0,10,0,1,
662fb42cc3458e96dee33181,SCR,2024-06-20_13h33.19.839,LearnStrategy,2023.2.3,Win32,142.8571429,4,2,12,,,,,,,,3,07,,,,,,,,,,,,,3,2.462,1,,,,,,0.151851852,-0.247222222,1,0,0,2.4625,Diorite_rect,11,0,11,0,1,
662fb42cc3458e96dee33181,SCR,2024-06-20_13h33.19.839,LearnStrategy,2023.2.3,Win32,142.8571429,4,2,13,,,,,,,,1,02,,,,,,,,,,,,,1,1.75,1,,,,,,-0.353703704,-0.241666667,1,0,0,1.7498,Andesite_rect,12,0,12,0,1,
662fb42cc3458e96dee33181,SCR,2024-06-20_13h33.19.839,LearnStrategy,2023.2.3,Win32,142.8571429,4,2,14,,,,,,,,7,13,,,,,,,,,,,,,7,1.078,1,,,,,,0.097222222,-0.400925926,1,0,0,1.0783,Peridotite_rect,13,0,13,0,1,
662fb42cc3458e96dee33181,SCR,2024-06-20_13h33.19.839,LearnStrategy,2023.2.3,Win32,142.8571429,4,2,15,,,,,,,,2,02,,,,,,,,,,,,,2,1.247,1,,,,,,-0.114814815,-0.24537037,1,0,0,1.2468,Basalt_rect,14,0,14,0,1,
662fb42cc3458e96dee33181,SCR,2024-06-20_13h33.19.839,LearnStrategy,2023.2.3,Win32,142.8571429,4,2,16,,,,,,,,4,16,,,,,,,,,,,,,4,5.753,1,,,,,,0.372222222,-0.264814815,1,0,0,5.7531,Gabbro_rect,15,0,15,0,1,
662fb42cc3458e96dee33181,SCR,2024-06-20_13h33.19.839,LearnStrategy,2023.2.3,Win32,142.8571429,5,1,1,0.382407407,-0.233333333,1,0,0,1.6244,Diorite_08,3,08,2,7,1.624,3,08,0.126851852,-0.241666667,1,0,0,1.1497,Diorite_rect,3,1.15,1,0,0,0,0,1,,,,,,,,,,,,,
662fb42cc3458e96dee33181,SCR,2024-06-20_13h33.19.839,LearnStrategy,2023.2.3,Win32,142.8571429,5,1,2,-0.089814815,0.375,1,0,0,3.0614,Andesite_05,1,05,6,4,3.061,1,05,-0.343518519,-0.24537037,1,0,0,1.675,Andesite_rect,1,1.675,1,1,0,1,0,1,,,,,,,,,,,,,
662fb42cc3458e96dee33181,SCR,2024-06-20_13h33.19.839,LearnStrategy,2023.2.3,Win32,142.8571429,5,1,3,-0.572222222,0.107407407,1,0,0,4.5341,Gabbro_03,4,03,4,1,4.534,8,05,0.337962963,-0.236111111,1,0,0,1.4031,Gabbro_rect,4,1.403,1,2,0,2,0,1,,,,,,,,,,,,,
662fb42cc3458e96dee33181,SCR,2024-06-20_13h33.19.839,LearnStrategy,2023.2.3,Win32,142.8571429,5,1,4,0.409259259,0.102777778,1,0,0,2.138,Basalt_06,2,06,4,7,2.138,6,08,-0.142592593,-0.244444444,1,0,0,1.5957,Basalt_rect,2,1.596,1,3,0,3,0,1,,,,,,,,,,,,,
662fb42cc3458e96dee33181,SCR,2024-06-20_13h33.19.839,LearnStrategy,2023.2.3,Win32,142.8571429,5,1,5,0.271296296,0.387962963,1,0,0,1.7351,Gabbro_08,4,08,6,6,1.735,4,08,-0.384259259,-0.236111111,1,0,0,1.6449,Andesite_rect,1,1.645,0,4,0,4,0,1,,,,,,,,,,,,,
662fb42cc3458e96dee33181,SCR,2024-06-20_13h33.19.839,LearnStrategy,2023.2.3,Win32,142.8571429,5,1,6,-0.417592593,0.25462963,1,0,0,2.2626,Diorite_02,3,02,5,2,2.263,3,02,0.098148148,-0.243518519,1,0,0,1.5597,Diorite_rect,3,1.56,1,5,0,5,0,1,,,,,,,,,,,,,
662fb42cc3458e96dee33181,SCR,2024-06-20_13h33.19.839,LearnStrategy,2023.2.3,Win32,142.8571429,5,1,7,0.540740741,0.080555556,1,0,0,1.6171,Pegmatite_13,6,13,4,8,1.617,6,13,-0.12962963,-0.405555556,1,0,0,0.9835,Pegmatite_rect,6,0.983,1,6,0,6,0,1,,,,,,,,,,,,,
662fb42cc3458e96dee33181,SCR,2024-06-20_13h33.19.839,LearnStrategy,2023.2.3,Win32,142.8571429,5,1,8,-0.42037037,0.388888889,1,0,0,1.0825,Peridotite_15,7,15,6,2,1.082,7,15,0.122222222,-0.398148148,1,0,0,0.8943,Peridotite_rect,7,0.894,1,7,0,7,0,1,,,,,,,,,,,,,
662fb42cc3458e96dee33181,SCR,2024-06-20_13h33.19.839,LearnStrategy,2023.2.3,Win32,142.8571429,5,1,9,0.240740741,0.111111111,1,0,0,6.3125,Peridotite_05,7,05,4,6,6.313,7,15,0.175,-0.40462963,1,0,0,1.2385,Peridotite_rect,7,1.238,1,8,0,8,0,1,,,,,,,,,,,,,
662fb42cc3458e96dee33181,SCR,2024-06-20_13h33.19.839,LearnStrategy,2023.2.3,Win32,142.8571429,5,1,10,0.535185185,0.22037037,1,0,0,2.8323,Andesite_09,1,09,5,8,2.832,1,09,0.4,-0.257407407,1,0,0,2.3524,Gabbro_rect,4,2.352,0,9,0,9,0,1,,,,,,,,,,,,,
662fb42cc3458e96dee33181,SCR,2024-06-20_13h33.19.839,LearnStrategy,2023.2.3,Win32,142.8571429,5,1,11,-0.062037037,-0.432407407,1,0,0,5.1427,Basalt_14,2,14,1,4,5.143,5,05,-0.122222222,-0.244444444,1,0,0,2.1304,Basalt_rect,2,2.13,1,10,0,10,0,1,,,,,,,,,,,,,
662fb42cc3458e96dee33181,SCR,2024-06-20_13h33.19.839,LearnStrategy,2023.2.3,Win32,142.8571429,5,1,12,0.418518519,-0.384259259,1,0,0,1.1994,Gabbro_09,4,09,1,7,1.199,4,09,0.383333333,-0.239814815,1,0,0,4.1499,Gabbro_rect,4,4.15,1,11,0,11,0,1,,,,,,,,,,,,,
662fb42cc3458e96dee33181,SCR,2024-06-20_13h33.19.839,LearnStrategy,2023.2.3,Win32,142.8571429,5,1,13,0.543518519,0.216666667,1,0,0,1.2352,Andesite_09,1,09,5,8,1.235,1,09,-0.356481481,-0.242592593,1,0,0,2.0444,Andesite_rect,1,2.044,1,12,0,12,0,1,,,,,,,,,,,,,
662fb42cc3458e96dee33181,SCR,2024-06-20_13h33.19.839,LearnStrategy,2023.2.3,Win32,142.8571429,5,1,14,-0.556481481,0.096296296,1,0,0,1.291,Gabbro_03,4,03,4,1,1.291,4,03,0.387962963,-0.24537037,1,0,0,1.7968,Gabbro_rect,4,1.797,1,13,0,13,0,1,,,,,,,,,,,,,
662fb42cc3458e96dee33181,SCR,2024-06-20_13h33.19.839,LearnStrategy,2023.2.3,Win32,142.8571429,5,1,15,-0.564814815,-0.292592593,1,0,0,1.8458,Diorite_10,3,10,2,1,1.846,2,08,0.134259259,-0.253703704,1,0,0,2.2734,Diorite_rect,3,2.273,1,14,0,14,0,1,,,,,,,,,,,,,
662fb42cc3458e96dee33181,SCR,2024-06-20_13h33.19.839,LearnStrategy,2023.2.3,Win32,142.8571429,5,1,16,-0.550925926,0.273148148,1,0,0,2.0614,Gabbro_13,4,13,5,1,2.061,4,03,0.361111111,-0.232407407,1,0,0,3.4313,Gabbro_rect,4,3.431,1,15,0,15,0,1,,,,,,,,,,,,,
662fb42cc3458e96dee33181,SCR,2024-06-20_13h33.19.839,LearnStrategy,2023.2.3,Win32,142.8571429,5,2,1,,,,,,,,3,11,,,,,,,,,,,,,3,1.856,1,,,,,,0.128703704,-0.236111111,1,0,0,1.8556,Diorite_rect,0,0,0,0,1,
662fb42cc3458e96dee33181,SCR,2024-06-20_13h33.19.839,LearnStrategy,2023.2.3,Win32,142.8571429,5,2,2,,,,,,,,3,09,,,,,,,,,,,,,3,1.019,1,,,,,,0.128703704,-0.236111111,1,0,0,1.0192,Diorite_rect,1,0,1,0,1,
662fb42cc3458e96dee33181,SCR,2024-06-20_13h33.19.839,LearnStrategy,2023.2.3,Win32,142.8571429,5,2,3,,,,,,,,5,09,,,,,,,,,,,,,5,0.958,1,,,,,,-0.414814815,-0.394444444,1,0,0,0.9583,Obsidian_rect,2,0,2,0,1,
662fb42cc3458e96dee33181,SCR,2024-06-20_13h33.19.839,LearnStrategy,2023.2.3,Win32,142.8571429,5,2,4,,,,,,,,1,11,,,,,,,,,,,,,1,3.801,1,,,,,,-0.394444444,-0.237037037,1,0,0,3.8008,Andesite_rect,3,0,3,0,1,
662fb42cc3458e96dee33181,SCR,2024-06-20_13h33.19.839,LearnStrategy,2023.2.3,Win32,142.8571429,5,2,5,,,,,,,,1,14,,,,,,,,,,,,,1,1.165,1,,,,,,-0.394444444,-0.237037037,1,0,0,1.165,Andesite_rect,4,0,4,0,1,
662fb42cc3458e96dee33181,SCR,2024-06-20_13h33.19.839,LearnStrategy,2023.2.3,Win32,142.8571429,5,2,6,,,,,,,,2,05,,,,,,,,,,,,,2,1.095,1,,,,,,-0.108333333,-0.236111111,1,0,0,1.0949,Basalt_rect,5,0,5,0,1,
662fb42cc3458e96dee33181,SCR,2024-06-20_13h33.19.839,LearnStrategy,2023.2.3,Win32,142.8571429,5,2,7,,,,,,,,5,02,,,,,,,,,,,,,5,0.909,1,,,,,,-0.412037037,-0.416666667,1,0,0,0.9088,Obsidian_rect,6,0,6,0,1,
662fb42cc3458e96dee33181,SCR,2024-06-20_13h33.19.839,LearnStrategy,2023.2.3,Win32,142.8571429,5,2,8,,,,,,,,6,12,,,,,,,,,,,,,3,2.538,0,,,,,,0.17037037,-0.25,1,0,0,2.5383,Diorite_rect,7,0,7,0,1,
662fb42cc3458e96dee33181,SCR,2024-06-20_13h33.19.839,LearnStrategy,2023.2.3,Win32,142.8571429,5,2,9,,,,,,,,7,08,,,,,,,,,,,,,7,0.912,1,,,,,,0.155555556,-0.407407407,1,0,0,0.9118,Peridotite_rect,8,0,8,0,1,
662fb42cc3458e96dee33181,SCR,2024-06-20_13h33.19.839,LearnStrategy,2023.2.3,Win32,142.8571429,5,2,10,,,,,,,,6,03,,,,,,,,,,,,,6,3.232,1,,,,,,-0.126851852,-0.397222222,1,0,0,3.2321,Pegmatite_rect,9,0,9,0,1,
662fb42cc3458e96dee33181,SCR,2024-06-20_13h33.19.839,LearnStrategy,2023.2.3,Win32,142.8571429,5,2,11,,,,,,,,4,05,,,,,,,,,,,,,4,2.482,1,,,,,,0.393518519,-0.24537037,1,0,0,2.4821,Gabbro_rect,10,0,10,0,1,
662fb42cc3458e96dee33181,SCR,2024-06-20_13h33.19.839,LearnStrategy,2023.2.3,Win32,142.8571429,5,2,12,,,,,,,,4,01,,,,,,,,,,,,,4,1.389,1,,,,,,0.393518519,-0.24537037,1,0,0,1.3891,Gabbro_rect,11,0,11,0,1,
662fb42cc3458e96dee33181,SCR,2024-06-20_13h33.19.839,LearnStrategy,2023.2.3,Win32,142.8571429,5,2,13,,,,,,,,8,08,,,,,,,,,,,,,8,0.866,1,,,,,,0.376851852,-0.384259259,1,0,0,0.8662,Pumice_rect,12,0,12,0,1,
662fb42cc3458e96dee33181,SCR,2024-06-20_13h33.19.839,LearnStrategy,2023.2.3,Win32,142.8571429,5,2,14,,,,,,,,7,07,,,,,,,,,,,,,7,0.962,1,,,,,,0.134259259,-0.400925926,1,0,0,0.9615,Peridotite_rect,13,0,13,0,1,
662fb42cc3458e96dee33181,SCR,2024-06-20_13h33.19.839,LearnStrategy,2023.2.3,Win32,142.8571429,5,2,15,,,,,,,,2,12,,,,,,,,,,,,,2,1.735,1,,,,,,-0.072222222,-0.25,1,0,0,1.7352,Basalt_rect,14,0,14,0,1,
662fb42cc3458e96dee33181,SCR,2024-06-20_13h33.19.839,LearnStrategy,2023.2.3,Win32,142.8571429,5,2,16,,,,,,,,8,15,,,,,,,,,,,,,8,1.441,1,,,,,,0.385185185,-0.413888889,1,0,0,1.4413,Pumice_rect,15,0,15,0,1,
662fb42cc3458e96dee33181,SCR,2024-06-20_13h33.19.839,LearnStrategy,2023.2.3,Win32,142.8571429,6,1,1,-0.408333333,0.085185185,1,0,0,1.1543,Pumice_06,8,06,4,2,1.154,8,06,0.391666667,-0.412037037,1,0,0,1.3071,Pumice_rect,8,1.307,1,0,0,0,0,1,,,,,,,,,,,,,
662fb42cc3458e96dee33181,SCR,2024-06-20_13h33.19.839,LearnStrategy,2023.2.3,Win32,142.8571429,6,1,2,0.27037037,-0.109259259,1,0,0,4.9879,Diorite_14,3,14,3,6,4.988,4,03,0.135185185,-0.238888889,1,0,0,1.9744,Diorite_rect,3,1.974,1,1,0,1,0,1,,,,,,,,,,,,,
662fb42cc3458e96dee33181,SCR,2024-06-20_13h33.19.839,LearnStrategy,2023.2.3,Win32,142.8571429,6,1,3,0.087037037,0.374074074,1,0,0,1.7351,Andesite_16,1,16,6,5,1.735,1,16,-0.384259259,-0.241666667,1,0,0,1.5401,Andesite_rect,1,1.54,1,2,0,2,0,1,,,,,,,,,,,,,
662fb42cc3458e96dee33181,SCR,2024-06-20_13h33.19.839,LearnStrategy,2023.2.3,Win32,142.8571429,6,1,4,-0.405555556,-0.130555556,1,0,0,1.4641,Pegmatite_06,6,06,3,2,1.464,6,06,-0.167592593,-0.407407407,1,0,0,1.2447,Pegmatite_rect,6,1.245,1,3,0,3,0,1,,,,,,,,,,,,,
662fb42cc3458e96dee33181,SCR,2024-06-20_13h33.19.839,LearnStrategy,2023.2.3,Win32,142.8571429,6,1,5,0.397222222,0.244444444,1,0,0,1.2419,Diorite_12,3,12,5,7,1.242,3,12,0.448148148,-0.253703704,1,0,0,2.3494,Gabbro_rect,4,2.349,0,4,0,4,0,1,,,,,,,,,,,,,
662fb42cc3458e96dee33181,SCR,2024-06-20_13h33.19.839,LearnStrategy,2023.2.3,Win32,142.8571429,6,1,6,-0.09537037,0.230555556,1,0,0,1.325,Pegmatite_09,6,09,5,4,1.325,6,09,-0.137037037,-0.402777778,1,0,0,1.3556,Pegmatite_rect,6,1.356,1,5,0,5,0,1,,,,,,,,,,,,,
662fb42cc3458e96dee33181,SCR,2024-06-20_13h33.19.839,LearnStrategy,2023.2.3,Win32,142.8571429,6,1,7,-0.24537037,0.388888889,1,0,0,1.2292,Gabbro_11,4,11,6,3,1.229,4,11,0.351851852,-0.233333333,1,0,0,1.9373,Gabbro_rect,4,1.937,1,6,0,6,0,1,,,,,,,,,,,,,
662fb42cc3458e96dee33181,SCR,2024-06-20_13h33.19.839,LearnStrategy,2023.2.3,Win32,142.8571429,6,1,8,-0.558333333,-0.126851852,1,0,0,1.5873,Basalt_08,2,08,3,1,1.587,2,08,-0.138888889,-0.263888889,1,0,0,0.5178,Basalt_rect,2,0.518,1,7,0,7,0,1,,,,,,,,,,,,,
662fb42cc3458e96dee33181,SCR,2024-06-20_13h33.19.839,LearnStrategy,2023.2.3,Win32,142.8571429,6,1,9,0.55462963,-0.263888889,1,0,0,2.7475,Peridotite_02,7,02,2,8,2.748,5,08,0.146296296,-0.398148148,1,0,0,1.3224,Peridotite_rect,7,1.322,1,8,0,8,0,1,,,,,,,,,,,,,
662fb42cc3458e96dee33181,SCR,2024-06-20_13h33.19.839,LearnStrategy,2023.2.3,Win32,142.8571429,6,1,10,-0.075925926,0.452777778,1,0,0,1.4356,Andesite_05,1,05,6,4,1.436,1,05,-0.344444444,-0.237962963,1,0,0,1.0993,Andesite_rect,1,1.099,1,9,0,9,0,1,,,,,,,,,,,,,
662fb42cc3458e96dee33181,SCR,2024-06-20_13h33.19.839,LearnStrategy,2023.2.3,Win32,142.8571429,6,1,11,-0.381481481,-0.431481481,1,0,0,1.4403,Peridotite_12,7,12,1,2,1.44,7,12,0.143518519,-0.394444444,1,0,0,1.3311,Peridotite_rect,7,1.331,1,10,0,10,0,1,,,,,,,,,,,,,
662fb42cc3458e96dee33181,SCR,2024-06-20_13h33.19.839,LearnStrategy,2023.2.3,Win32,142.8571429,6,1,12,0.418518519,-0.088888889,1,0,0,1.1581,Pegmatite_08,6,08,3,7,1.158,6,08,-0.115740741,-0.402777778,1,0,0,0.6869,Pegmatite_rect,6,0.687,1,11,0,11,0,1,,,,,,,,,,,,,
662fb42cc3458e96dee33181,SCR,2024-06-20_13h33.19.839,LearnStrategy,2023.2.3,Win32,142.8571429,6,1,13,0.221296296,-0.222222222,1,0,0,0.9574,Andesite_03,1,03,2,6,0.957,1,03,0.363888889,-0.238888889,1,0,0,3.1178,Gabbro_rect,4,3.118,0,12,0,12,0,1,,,,,,,,,,,,,
662fb42cc3458e96dee33181,SCR,2024-06-20_13h33.19.839,LearnStrategy,2023.2.3,Win32,142.8571429,6,1,14,0.383333333,0.425,1,0,0,1.0889,Gabbro_15,4,15,6,7,1.089,4,15,0.422222222,-0.252777778,1,0,0,1.2416,Gabbro_rect,4,1.242,1,13,0,13,0,1,,,,,,,,,,,,,
662fb42cc3458e96dee33181,SCR,2024-06-20_13h33.19.839,LearnStrategy,2023.2.3,Win32,142.8571429,6,1,15,0.240740741,-0.109259259,1,0,0,1.1037,Diorite_14,3,14,3,6,1.104,3,14,0.143518519,-0.253703704,1,0,0,0.4702,Diorite_rect,3,0.47,1,14,0,14,0,1,,,,,,,,,,,,,
662fb42cc3458e96dee33181,SCR,2024-06-20_13h33.19.839,LearnStrategy,2023.2.3,Win32,142.8571429,6,1,16,0.064814815,-0.285185185,1,0,0,0.9085,Peridotite_14,7,14,2,5,0.909,7,14,0.089814815,-0.390740741,1,0,0,1.1084,Peridotite_rect,7,1.108,1,15,0,15,0,1,,,,,,,,,,,,,
662fb42cc3458e96dee33181,SCR,2024-06-20_13h33.19.839,LearnStrategy,2023.2.3,Win32,142.8571429,6,2,1,,,,,,,,6,10,,,,,,,,,,,,,6,1.953,1,,,,,,-0.139814815,-0.386111111,1,0,0,1.9527,Pegmatite_rect,0,0,0,0,1,
662fb42cc3458e96dee33181,SCR,2024-06-20_13h33.19.839,LearnStrategy,2023.2.3,Win32,142.8571429,6,2,2,,,,,,,,5,10,,,,,,,,,,,,,5,0.79,1,,,,,,-0.390740741,-0.412037037,1,0,0,0.7902,Obsidian_rect,1,0,1,0,1,
662fb42cc3458e96dee33181,SCR,2024-06-20_13h33.19.839,LearnStrategy,2023.2.3,Win32,142.8571429,6,2,3,,,,,,,,8,04,,,,,,,,,,,,,8,0.941,1,,,,,,0.416666667,-0.408333333,1,0,0,0.9407,Pumice_rect,2,0,2,0,1,
662fb42cc3458e96dee33181,SCR,2024-06-20_13h33.19.839,LearnStrategy,2023.2.3,Win32,142.8571429,6,2,4,,,,,,,,1,04,,,,,,,,,,,,,1,4.363,1,,,,,,-0.410185185,-0.251851852,1,0,0,4.3629,Andesite_rect,3,0,3,0,1,
662fb42cc3458e96dee33181,SCR,2024-06-20_13h33.19.839,LearnStrategy,2023.2.3,Win32,142.8571429,6,2,5,,,,,,,,5,06,,,,,,,,,,,,,5,0.815,1,,,,,,-0.419444444,-0.408333333,1,0,0,0.8153,Obsidian_rect,4,0,4,0,1,
662fb42cc3458e96dee33181,SCR,2024-06-20_13h33.19.839,LearnStrategy,2023.2.3,Win32,142.8571429,6,2,6,,,,,,,,1,01,,,,,,,,,,,,,4,2.673,0,,,,,,0.390740741,-0.239814815,1,0,0,2.6735,Gabbro_rect,5,0,5,0,1,
662fb42cc3458e96dee33181,SCR,2024-06-20_13h33.19.839,LearnStrategy,2023.2.3,Win32,142.8571429,6,2,7,,,,,,,,3,13,,,,,,,,,,,,,3,0.853,1,,,,,,0.125925926,-0.244444444,1,0,0,0.8532,Diorite_rect,6,0,6,0,1,
662fb42cc3458e96dee33181,SCR,2024-06-20_13h33.19.839,LearnStrategy,2023.2.3,Win32,142.8571429,6,2,8,,,,,,,,8,14,,,,,,,,,,,,,8,0.862,1,,,,,,0.340740741,-0.401851852,1,0,0,0.862,Pumice_rect,7,0,7,0,1,
662fb42cc3458e96dee33181,SCR,2024-06-20_13h33.19.839,LearnStrategy,2023.2.3,Win32,142.8571429,6,2,9,,,,,,,,2,16,,,,,,,,,,,,,2,2.405,1,,,,,,-0.105555556,-0.236111111,1,0,0,2.4048,Basalt_rect,8,0,8,0,1,
662fb42cc3458e96dee33181,SCR,2024-06-20_13h33.19.839,LearnStrategy,2023.2.3,Win32,142.8571429,6,2,10,,,,,,,,2,04,,,,,,,,,,,,,2,0.762,1,,,,,,-0.105555556,-0.236111111,1,0,0,0.7621,Basalt_rect,9,0,9,0,1,
662fb42cc3458e96dee33181,SCR,2024-06-20_13h33.19.839,LearnStrategy,2023.2.3,Win32,142.8571429,6,2,11,,,,,,,,7,16,,,,,,,,,,,,,7,5.459,1,,,,,,0.112962963,-0.408333333,1,0,0,5.4591,Peridotite_rect,10,0,10,0,1,
662fb42cc3458e96dee33181,SCR,2024-06-20_13h33.19.839,LearnStrategy,2023.2.3,Win32,142.8571429,6,2,12,,,,,,,,3,16,,,,,,,,,,,,,3,2.35,1,,,,,,0.126851852,-0.266666667,1,0,0,2.35,Diorite_rect,11,0,11,0,1,
662fb42cc3458e96dee33181,SCR,2024-06-20_13h33.19.839,LearnStrategy,2023.2.3,Win32,142.8571429,6,2,13,,,,,,,,7,04,,,,,,,,,,,,,3,10.626,0,,,,,,0.126851852,-0.25,1,0,0,10.6261,Diorite_rect,12,0,12,0,1,
662fb42cc3458e96dee33181,SCR,2024-06-20_13h33.19.839,LearnStrategy,2023.2.3,Win32,142.8571429,6,2,14,,,,,,,,4,14,,,,,,,,,,,,,4,1.849,1,,,,,,0.435185185,-0.247222222,1,0,0,1.8488,Gabbro_rect,13,0,13,0,1,
662fb42cc3458e96dee33181,SCR,2024-06-20_13h33.19.839,LearnStrategy,2023.2.3,Win32,142.8571429,6,2,15,,,,,,,,6,05,,,,,,,,,,,,,6,3.699,1,,,,,,-0.12962963,-0.397222222,1,0,0,3.6991,Pegmatite_rect,14,0,14,0,1,
662fb42cc3458e96dee33181,SCR,2024-06-20_13h33.19.839,LearnStrategy,2023.2.3,Win32,142.8571429,6,2,16,,,,,,,,4,10,,,,,,,,,,,,,1,2.806,0,,,,,,-0.356481481,-0.246296296,1,0,0,2.8058,Andesite_rect,15,0,15,0,1,
662fb42cc3458e96dee33181,SCR,2024-06-20_13h33.19.839,LearnStrategy,2023.2.3,Win32,142.8571429,7,1,1,0.537037037,0.075,1,0,0,3.6312,Pegmatite_13,6,13,4,8,3.631,6,13,-0.119444444,-0.396296296,1,0,0,0.8852,Pegmatite_rect,6,0.885,1,0,0,0,0,1,,,,,,,,,,,,,
662fb42cc3458e96dee33181,SCR,2024-06-20_13h33.19.839,LearnStrategy,2023.2.3,Win32,142.8571429,7,1,2,0.22037037,0.096296296,1,0,0,1.2275,Peridotite_05,7,05,4,6,1.227,7,05,0.160185185,-0.412962963,1,0,0,1.3171,Peridotite_rect,7,1.317,1,1,0,1,0,1,,,,,,,,,,,,,
662fb42cc3458e96dee33181,SCR,2024-06-20_13h33.19.839,LearnStrategy,2023.2.3,Win32,142.8571429,7,1,3,-0.539814815,0.251851852,1,0,0,5.1448,Gabbro_13,4,13,5,1,5.145,2,08,0.362037037,-0.235185185,1,0,0,1.4633,Gabbro_rect,4,1.463,1,2,0,2,0,1,,,,,,,,,,,,,
662fb42cc3458e96dee33181,SCR,2024-06-20_13h33.19.839,LearnStrategy,2023.2.3,Win32,142.8571429,7,1,4,-0.421296296,0.084259259,1,0,0,1.5891,Pumice_06,8,06,4,2,1.589,4,03,0.433333333,-0.416666667,1,0,0,0.9412,Pumice_rect,8,0.941,1,3,0,3,0,1,,,,,,,,,,,,,
662fb42cc3458e96dee33181,SCR,2024-06-20_13h33.19.839,LearnStrategy,2023.2.3,Win32,142.8571429,7,1,5,0.407407407,0.40462963,1,0,0,1.7561,Gabbro_15,4,15,6,7,1.756,4,15,0.440740741,-0.237037037,1,0,0,1.0446,Gabbro_rect,4,1.045,1,4,0,4,0,1,,,,,,,,,,,,,
662fb42cc3458e96dee33181,SCR,2024-06-20_13h33.19.839,LearnStrategy,2023.2.3,Win32,142.8571429,7,1,6,0.22962963,-0.275,1,0,0,4.1031,Andesite_03,1,03,2,6,4.103,8,16,-0.351851852,-0.260185185,1,0,0,1.067,Andesite_rect,1,1.067,1,5,0,5,0,1,,,,,,,,,,,,,
662fb42cc3458e96dee33181,SCR,2024-06-20_13h33.19.839,LearnStrategy,2023.2.3,Win32,142.8571429,7,1,7,0.059259259,0.402777778,1,0,0,1.2208,Andesite_16,1,16,6,5,1.221,1,16,-0.353703704,-0.258333333,1,0,0,1.6969,Andesite_rect,1,1.697,1,6,0,6,0,1,,,,,,,,,,,,,
662fb42cc3458e96dee33181,SCR,2024-06-20_13h33.19.839,LearnStrategy,2023.2.3,Win32,142.8571429,7,1,8,0.244444444,0.058333333,1,0,0,1.6747,Peridotite_05,7,05,4,6,1.675,7,05,0.155555556,-0.421296296,1,0,0,0.8516,Peridotite_rect,7,0.852,1,7,0,7,0,1,,,,,,,,,,,,,
662fb42cc3458e96dee33181,SCR,2024-06-20_13h33.19.839,LearnStrategy,2023.2.3,Win32,142.8571429,7,1,9,-0.062962963,-0.425925926,1,0,0,2.7561,Basalt_14,2,14,1,4,2.756,3,08,-0.119444444,-0.248148148,1,0,0,1.2813,Basalt_rect,2,1.281,1,8,0,8,0,1,,,,,,,,,,,,,
662fb42cc3458e96dee33181,SCR,2024-06-20_13h33.19.839,LearnStrategy,2023.2.3,Win32,142.8571429,7,1,10,0.57037037,0.261111111,1,0,0,1.3184,Andesite_09,1,09,5,8,1.318,1,09,-0.337037037,-0.255555556,1,0,0,3.2674,Andesite_rect,1,3.267,1,9,0,9,0,1,,,,,,,,,,,,,
662fb42cc3458e96dee33181,SCR,2024-06-20_13h33.19.839,LearnStrategy,2023.2.3,Win32,142.8571429,7,1,11,-0.242592593,0.386111111,1,0,0,5.4442,Gabbro_11,4,11,6,3,5.444,5,12,0.410185185,-0.253703704,1,0,0,1.0592,Gabbro_rect,4,1.059,1,10,0,10,0,1,,,,,,,,,,,,,
662fb42cc3458e96dee33181,SCR,2024-06-20_13h33.19.839,LearnStrategy,2023.2.3,Win32,142.8571429,7,1,12,0.222222222,-0.269444444,1,0,0,0.9571,Andesite_03,1,03,2,6,0.957,1,03,-0.349074074,-0.258333333,1,0,0,1.0577,Andesite_rect,1,1.058,1,11,0,11,0,1,,,,,,,,,,,,,
662fb42cc3458e96dee33181,SCR,2024-06-20_13h33.19.839,LearnStrategy,2023.2.3,Win32,142.8571429,7,1,13,0.417592593,-0.425,1,0,0,1.4935,Gabbro_09,4,09,1,7,1.494,4,09,-0.351851852,-0.248148148,1,0,0,2.1423,Andesite_rect,1,2.142,0,12,0,12,0,1,,,,,,,,,,,,,
662fb42cc3458e96dee33181,SCR,2024-06-20_13h33.19.839,LearnStrategy,2023.2.3,Win32,142.8571429,7,1,14,0.410185185,0.089814815,1,0,0,2.3454,Basalt_06,2,06,4,7,2.345,7,05,-0.152777778,-0.258333333,1,0,0,0.8846,Basalt_rect,2,0.885,1,13,0,13,0,1,,,,,,,,,,,,,
662fb42cc3458e96dee33181,SCR,2024-06-20_13h33.19.839,LearnStrategy,2023.2.3,Win32,142.8571429,7,1,15,-0.539814815,-0.275,1,0,0,2.7976,Diorite_10,3,10,2,1,2.798,4,03,0.07962963,-0.249074074,1,0,0,1.3644,Diorite_rect,3,1.364,1,14,0,14,0,1,,,,,,,,,,,,,
662fb42cc3458e96dee33181,SCR,2024-06-20_13h33.19.839,LearnStrategy,2023.2.3,Win32,142.8571429,7,1,16,0.235185185,0.399074074,1,0,0,4.568,Gabbro_08,4,08,6,6,4.568,6,08,-0.358333333,-0.238888889,1,0,0,3.5969,Andesite_rect,1,3.597,0,15,0,15,0,1,,,,,,,,,,,,,
662fb42cc3458e96dee33181,SCR,2024-06-20_13h33.19.839,LearnStrategy,2023.2.3,Win32,142.8571429,7,2,1,,,,,,,,5,06,,,,,,,,,,,,,5,0.993,1,,,,,,-0.398148148,-0.411111111,1,0,0,0.9927,Obsidian_rect,0,0,0,0,1,
662fb42cc3458e96dee33181,SCR,2024-06-20_13h33.19.839,LearnStrategy,2023.2.3,Win32,142.8571429,7,2,2,,,,,,,,1,11,,,,,,,,,,,,,1,2.188,1,,,,,,-0.392592593,-0.238888889,1,0,0,2.1885,Andesite_rect,1,0,1,0,1,
662fb42cc3458e96dee33181,SCR,2024-06-20_13h33.19.839,LearnStrategy,2023.2.3,Win32,142.8571429,7,2,3,,,,,,,,2,01,,,,,,,,,,,,,2,0.949,1,,,,,,-0.139814815,-0.25,1,0,0,0.9488,Basalt_rect,2,0,2,0,1,
662fb42cc3458e96dee33181,SCR,2024-06-20_13h33.19.839,LearnStrategy,2023.2.3,Win32,142.8571429,7,2,4,,,,,,,,1,01,,,,,,,,,,,,,4,1.625,0,,,,,,0.358333333,-0.259259259,1,0,0,1.6252,Gabbro_rect,3,0,3,0,1,
662fb42cc3458e96dee33181,SCR,2024-06-20_13h33.19.839,LearnStrategy,2023.2.3,Win32,142.8571429,7,2,5,,,,,,,,7,07,,,,,,,,,,,,,7,1.282,1,,,,,,0.185185185,-0.400925926,1,0,0,1.2815,Peridotite_rect,4,0,4,0,1,
662fb42cc3458e96dee33181,SCR,2024-06-20_13h33.19.839,LearnStrategy,2023.2.3,Win32,142.8571429,7,2,6,,,,,,,,3,07,,,,,,,,,,,,,3,1.017,1,,,,,,0.152777778,-0.256481481,1,0,0,1.0169,Diorite_rect,5,0,5,0,1,
662fb42cc3458e96dee33181,SCR,2024-06-20_13h33.19.839,LearnStrategy,2023.2.3,Win32,142.8571429,7,2,7,,,,,,,,4,12,,,,,,,,,,,,,4,1.544,1,,,,,,0.390740741,-0.25,1,0,0,1.5437,Gabbro_rect,6,0,6,0,1,
662fb42cc3458e96dee33181,SCR,2024-06-20_13h33.19.839,LearnStrategy,2023.2.3,Win32,142.8571429,7,2,8,,,,,,,,8,08,,,,,,,,,,,,,8,2.002,1,,,,,,0.360185185,-0.401851852,1,0,0,2.0022,Pumice_rect,7,0,7,0,1,
662fb42cc3458e96dee33181,SCR,2024-06-20_13h33.19.839,LearnStrategy,2023.2.3,Win32,142.8571429,7,2,9,,,,,,,,6,07,,,,,,,,,,,,,6,1.226,1,,,,,,-0.096296296,-0.408333333,1,0,0,1.2258,Pegmatite_rect,8,0,8,0,1,
662fb42cc3458e96dee33181,SCR,2024-06-20_13h33.19.839,LearnStrategy,2023.2.3,Win32,142.8571429,7,2,10,,,,,,,,4,01,,,,,,,,,,,,,3,3.855,0,,,,,,0.171296296,-0.262962963,1,0,0,3.8546,Diorite_rect,9,0,9,0,1,
662fb42cc3458e96dee33181,SCR,2024-06-20_13h33.19.839,LearnStrategy,2023.2.3,Win32,142.8571429,7,2,11,,,,,,,,3,09,,,,,,,,,,,,,3,0.714,1,,,,,,0.171296296,-0.262962963,1,0,0,0.7136,Diorite_rect,10,0,10,0,1,
662fb42cc3458e96dee33181,SCR,2024-06-20_13h33.19.839,LearnStrategy,2023.2.3,Win32,142.8571429,7,2,12,,,,,,,,5,02,,,,,,,,,,,,,5,0.907,1,,,,,,-0.325925926,-0.380555556,1,0,0,0.9071,Obsidian_rect,11,0,11,0,1,
662fb42cc3458e96dee33181,SCR,2024-06-20_13h33.19.839,LearnStrategy,2023.2.3,Win32,142.8571429,7,2,13,,,,,,,,8,14,,,,,,,,,,,,,8,0.948,1,,,,,,0.352777778,-0.400925926,1,0,0,0.9483,Pumice_rect,12,0,12,0,1,
662fb42cc3458e96dee33181,SCR,2024-06-20_13h33.19.839,LearnStrategy,2023.2.3,Win32,142.8571429,7,2,14,,,,,,,,6,03,,,,,,,,,,,,,6,0.922,1,,,,,,-0.090740741,-0.416666667,1,0,0,0.9216,Pegmatite_rect,13,0,13,0,1,
662fb42cc3458e96dee33181,SCR,2024-06-20_13h33.19.839,LearnStrategy,2023.2.3,Win32,142.8571429,7,2,15,,,,,,,,2,16,,,,,,,,,,,,,2,1.169,1,,,,,,-0.108333333,-0.255555556,1,0,0,1.1689,Basalt_rect,14,0,14,0,1,
662fb42cc3458e96dee33181,SCR,2024-06-20_13h33.19.839,LearnStrategy,2023.2.3,Win32,142.8571429,7,2,16,,,,,,,,7,08,,,,,,,,,,,,,7,0.965,1,,,,,,0.094444444,-0.39537037,1,0,0,0.9651,Peridotite_rect,15,0,15,0,1,
662fb42cc3458e96dee33181,SCR,2024-06-20_13h33.19.839,LearnStrategy,2023.2.3,Win32,142.8571429,8,1,1,0.093518519,-0.127777778,1,0,0,1.2973,Andesite_10,1,10,3,5,1.297,1,10,-0.362037037,-0.264814815,1,0,0,1.2929,Andesite_rect,1,1.293,1,0,0,0,0,1,,,,,,,,,,,,,
662fb42cc3458e96dee33181,SCR,2024-06-20_13h33.19.839,LearnStrategy,2023.2.3,Win32,142.8571429,8,1,2,-0.544444444,-0.424074074,1,0,0,1.0133,Diorite_06,3,06,1,1,1.013,3,06,0.097222222,-0.246296296,1,0,0,0.6606,Diorite_rect,3,0.661,1,1,0,1,0,1,,,,,,,,,,,,,
662fb42cc3458e96dee33181,SCR,2024-06-20_13h33.19.839,LearnStrategy,2023.2.3,Win32,142.8571429,8,1,3,0.544444444,-0.1,1,0,0,1.611,Basalt_10,2,10,3,8,1.611,2,10,-0.148148148,-0.25,1,0,0,0.5928,Basalt_rect,2,0.593,1,2,0,2,0,1,,,,,,,,,,,,,
662fb42cc3458e96dee33181,SCR,2024-06-20_13h33.19.839,LearnStrategy,2023.2.3,Win32,142.8571429,8,1,4,-0.062962963,-0.106481481,1,0,0,0.7211,Pumice_05,8,05,3,4,0.721,8,05,0.366666667,-0.383333333,1,0,0,0.5248,Pumice_rect,8,0.525,1,3,0,3,0,1,,,,,,,,,,,,,
662fb42cc3458e96dee33181,SCR,2024-06-20_13h33.19.839,LearnStrategy,2023.2.3,Win32,142.8571429,8,1,5,0.068518519,-0.276851852,1,0,0,0.9223,Peridotite_14,7,14,2,5,0.922,7,14,0.123148148,-0.411111111,1,0,0,1.2503,Peridotite_rect,7,1.25,1,4,0,4,0,1,,,,,,,,,,,,,
662fb42cc3458e96dee33181,SCR,2024-06-20_13h33.19.839,LearnStrategy,2023.2.3,Win32,142.8571429,8,1,6,-0.078703704,-0.259259259,1,0,0,1.839,Pegmatite_11,6,11,2,4,1.839,6,11,-0.133333333,-0.396296296,1,0,0,0.4561,Pegmatite_rect,6,0.456,1,5,0,5,0,1,,,,,,,,,,,,,
662fb42cc3458e96dee33181,SCR,2024-06-20_13h33.19.839,LearnStrategy,2023.2.3,Win32,142.8571429,8,1,7,-0.214814815,0.1,1,0,0,0.9286,Obsidian_12,5,12,4,3,0.929,5,12,-0.344444444,-0.399074074,1,0,0,0.5487,Obsidian_rect,5,0.549,1,6,0,6,0,1,,,,,,,,,,,,,
662fb42cc3458e96dee33181,SCR,2024-06-20_13h33.19.839,LearnStrategy,2023.2.3,Win32,142.8571429,8,1,8,0.108333333,0.264814815,1,0,0,4.0711,Andesite_06,1,06,5,5,4.071,4,03,0.399074074,-0.266666667,1,0,0,1.6171,Gabbro_rect,4,1.617,0,7,0,7,0,1,,,,,,,,,,,,,
662fb42cc3458e96dee33181,SCR,2024-06-20_13h33.19.839,LearnStrategy,2023.2.3,Win32,142.8571429,8,1,9,0.080555556,0.388888889,1,0,0,0.9803,Andesite_16,1,16,6,5,0.98,1,16,-0.398148148,-0.265740741,1,0,0,0.9495,Andesite_rect,1,0.949,1,8,0,8,0,1,,,,,,,,,,,,,
662fb42cc3458e96dee33181,SCR,2024-06-20_13h33.19.839,LearnStrategy,2023.2.3,Win32,142.8571429,8,1,10,-0.055555556,0.388888889,1,0,0,0.9642,Andesite_05,1,05,6,4,0.964,1,05,-0.352777778,-0.240740741,1,0,0,0.8552,Andesite_rect,1,0.855,1,9,0,9,0,1,,,,,,,,,,,,,
662fb42cc3458e96dee33181,SCR,2024-06-20_13h33.19.839,LearnStrategy,2023.2.3,Win32,142.8571429,8,1,11,0.399074074,-0.424074074,1,0,0,3.8424,Gabbro_09,4,09,1,7,3.842,4,08,0.40462963,-0.244444444,1,0,0,1.8083,Gabbro_rect,4,1.808,1,10,0,10,0,1,,,,,,,,,,,,,
662fb42cc3458e96dee33181,SCR,2024-06-20_13h33.19.839,LearnStrategy,2023.2.3,Win32,142.8571429,8,1,12,0.555555556,0.081481481,1,0,0,1.0127,Pegmatite_13,6,13,4,8,1.013,6,13,-0.150925926,-0.391666667,1,0,0,0.6211,Pegmatite_rect,6,0.621,1,11,0,11,0,1,,,,,,,,,,,,,
662fb42cc3458e96dee33181,SCR,2024-06-20_13h33.19.839,LearnStrategy,2023.2.3,Win32,142.8571429,8,1,13,0.390740741,0.408333333,1,0,0,1.207,Gabbro_15,4,15,6,7,1.207,4,15,0.424074074,-0.251851852,1,0,0,1.6094,Gabbro_rect,4,1.609,1,12,0,12,0,1,,,,,,,,,,,,,
662fb42cc3458e96dee33181,SCR,2024-06-20_13h33.19.839,LearnStrategy,2023.2.3,Win32,142.8571429,8,1,14,-0.496296296,0.116666667,1,0,0,0.9377,Gabbro_03,4,03,4,1,0.938,4,03,0.431481481,-0.255555556,1,0,0,1.1759,Gabbro_rect,4,1.176,1,13,0,13,0,1,,,,,,,,,,,,,
662fb42cc3458e96dee33181,SCR,2024-06-20_13h33.19.839,LearnStrategy,2023.2.3,Win32,142.8571429,8,1,15,-0.389814815,-0.113888889,1,0,0,3.3951,Pegmatite_06,6,06,3,2,3.395,1,05,-0.123148148,-0.396296296,1,0,0,0.496,Pegmatite_rect,6,0.496,1,14,0,14,0,1,,,,,,,,,,,,,
662fb42cc3458e96dee33181,SCR,2024-06-20_13h33.19.839,LearnStrategy,2023.2.3,Win32,142.8571429,8,1,16,0.535185185,-0.257407407,1,0,0,1.6852,Peridotite_02,7,02,2,8,1.685,7,02,0.151851852,-0.400925926,1,0,0,1.0353,Peridotite_rect,7,1.035,1,15,0,15,0,1,,,,,,,,,,,,,
662fb42cc3458e96dee33181,SCR,2024-06-20_13h33.19.839,LearnStrategy,2023.2.3,Win32,142.8571429,8,2,1,,,,,,,,7,06,,,,,,,,,,,,,7,3.584,1,,,,,,0.099074074,-0.409259259,1,0,0,3.5842,Peridotite_rect,0,0,0,0,1,
662fb42cc3458e96dee33181,SCR,2024-06-20_13h33.19.839,LearnStrategy,2023.2.3,Win32,142.8571429,8,2,2,,,,,,,,4,16,,,,,,,,,,,,,4,6.399,1,,,,,,0.412037037,-0.236111111,1,0,0,6.3989,Gabbro_rect,1,0,1,0,1,
662fb42cc3458e96dee33181,SCR,2024-06-20_13h33.19.839,LearnStrategy,2023.2.3,Win32,142.8571429,8,2,3,,,,,,,,4,05,,,,,,,,,,,,,1,1.917,0,,,,,,-0.386111111,-0.255555556,1,0,0,1.9173,Andesite_rect,2,0,2,0,1,
662fb42cc3458e96dee33181,SCR,2024-06-20_13h33.19.839,LearnStrategy,2023.2.3,Win32,142.8571429,8,2,4,,,,,,,,2,12,,,,,,,,,,,,,2,1.346,1,,,,,,-0.078703704,-0.27037037,1,0,0,1.3455,Basalt_rect,3,0,3,0,1,
662fb42cc3458e96dee33181,SCR,2024-06-20_13h33.19.839,LearnStrategy,2023.2.3,Win32,142.8571429,8,2,5,,,,,,,,3,15,,,,,,,,,,,,,3,1.228,1,,,,,,0.138888889,-0.269444444,1,0,0,1.2276,Diorite_rect,4,0,4,0,1,
662fb42cc3458e96dee33181,SCR,2024-06-20_13h33.19.839,LearnStrategy,2023.2.3,Win32,142.8571429,8,2,6,,,,,,,,1,02,,,,,,,,,,,,,1,1.338,1,,,,,,-0.337962963,-0.265740741,1,0,0,1.3378,Andesite_rect,5,0,5,0,1,
662fb42cc3458e96dee33181,SCR,2024-06-20_13h33.19.839,LearnStrategy,2023.2.3,Win32,142.8571429,8,2,7,,,,,,,,5,14,,,,,,,,,,,,,5,1.303,1,,,,,,-0.374074074,-0.386111111,1,0,0,1.3032,Obsidian_rect,6,0,6,0,1,
662fb42cc3458e96dee33181,SCR,2024-06-20_13h33.19.839,LearnStrategy,2023.2.3,Win32,142.8571429,8,2,8,,,,,,,,8,02,,,,,,,,,,,,,8,1.077,1,,,,,,0.343518519,-0.380555556,1,0,0,1.0769,Pumice_rect,7,0,7,0,1,
662fb42cc3458e96dee33181,SCR,2024-06-20_13h33.19.839,LearnStrategy,2023.2.3,Win32,142.8571429,8,2,9,,,,,,,,6,16,,,,,,,,,,,,,6,0.956,1,,,,,,-0.159259259,-0.381481481,1,0,0,0.956,Pegmatite_rect,8,0,8,0,1,
662fb42cc3458e96dee33181,SCR,2024-06-20_13h33.19.839,LearnStrategy,2023.2.3,Win32,142.8571429,8,2,10,,,,,,,,7,16,,,,,,,,,,,,,7,3.018,1,,,,,,0.133333333,-0.4,1,0,0,3.0175,Peridotite_rect,9,0,9,0,1,
662fb42cc3458e96dee33181,SCR,2024-06-20_13h33.19.839,LearnStrategy,2023.2.3,Win32,142.8571429,8,2,11,,,,,,,,1,07,,,,,,,,,,,,,1,2.77,1,,,,,,-0.353703704,-0.244444444,1,0,0,2.7696,Andesite_rect,10,0,10,0,1,
662fb42cc3458e96dee33181,SCR,2024-06-20_13h33.19.839,LearnStrategy,2023.2.3,Win32,142.8571429,8,2,12,,,,,,,,3,11,,,,,,,,,,,,,3,1.038,1,,,,,,0.111111111,-0.243518519,1,0,0,1.0381,Diorite_rect,11,0,11,0,1,
662fb42cc3458e96dee33181,SCR,2024-06-20_13h33.19.839,LearnStrategy,2023.2.3,Win32,142.8571429,8,2,13,,,,,,,,5,09,,,,,,,,,,,,,5,1.11,1,,,,,,-0.406481481,-0.387962963,1,0,0,1.1101,Obsidian_rect,12,0,12,0,1,
662fb42cc3458e96dee33181,SCR,2024-06-20_13h33.19.839,LearnStrategy,2023.2.3,Win32,142.8571429,8,2,14,,,,,,,,8,09,,,,,,,,,,,,,8,0.899,1,,,,,,0.401851852,-0.402777778,1,0,0,0.8994,Pumice_rect,13,0,13,0,1,
662fb42cc3458e96dee33181,SCR,2024-06-20_13h33.19.839,LearnStrategy,2023.2.3,Win32,142.8571429,8,2,15,,,,,,,,2,04,,,,,,,,,,,,,2,0.94,1,,,,,,-0.160185185,-0.262962963,1,0,0,0.9398,Basalt_rect,14,0,14,0,1,
662fb42cc3458e96dee33181,SCR,2024-06-20_13h33.19.839,LearnStrategy,2023.2.3,Win32,142.8571429,8,2,16,,,,,,,,6,12,,,,,,,,,,,,,3,6.57,0,,,,,,0.139814815,-0.252777778,1,0,0,6.5702,Diorite_rect,15,0,15,0,1,
662fb42cc3458e96dee33181,SCR,2024-06-20_13h33.19.839,LearnStrategy,2023.2.3,Win32,142.8571429,9,1,1,-0.258333333,0.408333333,1,0,0,1.2139,Gabbro_11,4,11,6,3,1.214,4,11,0.37962963,-0.241666667,1,0,0,1.725,Gabbro_rect,4,1.725,1,0,0,0,0,1,,,,,,,,,,,,,
662fb42cc3458e96dee33181,SCR,2024-06-20_13h33.19.839,LearnStrategy,2023.2.3,Win32,142.8571429,9,1,2,0.077777778,-0.108333333,1,0,0,0.4775,Andesite_10,1,10,3,5,0.477,1,10,-0.407407407,-0.24537037,1,0,0,0.9219,Andesite_rect,1,0.922,1,1,0,1,0,1,,,,,,,,,,,,,
662fb42cc3458e96dee33181,SCR,2024-06-20_13h33.19.839,LearnStrategy,2023.2.3,Win32,142.8571429,9,1,3,0.062962963,0.425,1,0,0,0.9364,Andesite_16,1,16,6,5,0.936,1,16,-0.358333333,-0.269444444,1,0,0,0.8747,Andesite_rect,1,0.875,1,2,0,2,0,1,,,,,,,,,,,,,
662fb42cc3458e96dee33181,SCR,2024-06-20_13h33.19.839,LearnStrategy,2023.2.3,Win32,142.8571429,9,1,4,-0.084259259,0.269444444,1,0,0,0.8595,Pegmatite_09,6,09,5,4,0.86,6,09,-0.100925926,-0.415740741,1,0,0,0.7489,Pegmatite_rect,6,0.749,1,3,0,3,0,1,,,,,,,,,,,,,
662fb42cc3458e96dee33181,SCR,2024-06-20_13h33.19.839,LearnStrategy,2023.2.3,Win32,142.8571429,9,1,5,0.244444444,-0.272222222,1,0,0,0.5963,Andesite_03,1,03,2,6,0.596,1,03,-0.335185185,-0.251851852,1,0,0,2.2872,Andesite_rect,1,2.287,1,4,0,4,0,1,,,,,,,,,,,,,
662fb42cc3458e96dee33181,SCR,2024-06-20_13h33.19.839,LearnStrategy,2023.2.3,Win32,142.8571429,9,1,6,-0.092592593,-0.263888889,1,0,0,0.7825,Pegmatite_11,6,11,2,4,0.783,6,11,-0.139814815,-0.393518519,1,0,0,0.4303,Pegmatite_rect,6,0.43,1,5,0,5,0,1,,,,,,,,,,,,,
662fb42cc3458e96dee33181,SCR,2024-06-20_13h33.19.839,LearnStrategy,2023.2.3,Win32,142.8571429,9,1,7,-0.213888889,0.25462963,1,0,0,0.7343,Basalt_09,2,09,5,3,0.734,2,09,-0.097222222,-0.232407407,1,0,0,3.38,Basalt_rect,2,3.38,1,6,0,6,0,1,,,,,,,,,,,,,
662fb42cc3458e96dee33181,SCR,2024-06-20_13h33.19.839,LearnStrategy,2023.2.3,Win32,142.8571429,9,1,8,-0.506481481,0.247222222,1,0,0,1.1317,Gabbro_13,4,13,5,1,1.132,4,13,0.385185185,-0.237962963,1,0,0,2.4988,Gabbro_rect,4,2.499,1,7,0,7,0,1,,,,,,,,,,,,,
662fb42cc3458e96dee33181,SCR,2024-06-20_13h33.19.839,LearnStrategy,2023.2.3,Win32,142.8571429,9,1,9,0.418518519,-0.423148148,1,0,0,1.0633,Gabbro_09,4,09,1,7,1.063,4,09,0.366666667,-0.265740741,1,0,0,2.4571,Gabbro_rect,4,2.457,1,8,0,8,0,1,,,,,,,,,,,,,
662fb42cc3458e96dee33181,SCR,2024-06-20_13h33.19.839,LearnStrategy,2023.2.3,Win32,142.8571429,9,1,10,0.07037037,-0.430555556,1,0,0,0.7693,Peridotite_10,7,10,1,5,0.769,7,10,0.085185185,-0.402777778,1,0,0,1.0719,Peridotite_rect,7,1.072,1,9,0,9,0,1,,,,,,,,,,,,,
662fb42cc3458e96dee33181,SCR,2024-06-20_13h33.19.839,LearnStrategy,2023.2.3,Win32,142.8571429,9,1,11,-0.247222222,0.421296296,1,0,0,0.8208,Gabbro_11,4,11,6,3,0.821,4,11,0.385185185,-0.246296296,1,0,0,2.0373,Gabbro_rect,4,2.037,1,10,0,10,0,1,,,,,,,,,,,,,
662fb42cc3458e96dee33181,SCR,2024-06-20_13h33.19.839,LearnStrategy,2023.2.3,Win32,142.8571429,9,1,12,-0.412037037,0.285185185,1,0,0,0.7696,Diorite_02,3,02,5,2,0.77,3,02,0.15,-0.259259259,1,0,0,0.9808,Diorite_rect,3,0.981,1,11,0,11,0,1,,,,,,,,,,,,,
662fb42cc3458e96dee33181,SCR,2024-06-20_13h33.19.839,LearnStrategy,2023.2.3,Win32,142.8571429,9,1,13,-0.398148148,-0.275925926,1,0,0,0.8479,Pumice_16,8,16,2,2,0.848,8,16,0.408333333,-0.391666667,1,0,0,0.6628,Pumice_rect,8,0.663,1,12,0,12,0,1,,,,,,,,,,,,,
662fb42cc3458e96dee33181,SCR,2024-06-20_13h33.19.839,LearnStrategy,2023.2.3,Win32,142.8571429,9,1,14,0.527777778,-0.244444444,1,0,0,0.8669,Peridotite_02,7,02,2,8,0.867,7,02,0.149074074,-0.383333333,1,0,0,0.7523,Peridotite_rect,7,0.752,1,13,0,13,0,1,,,,,,,,,,,,,
662fb42cc3458e96dee33181,SCR,2024-06-20_13h33.19.839,LearnStrategy,2023.2.3,Win32,142.8571429,9,1,15,0.57037037,0.4,1,0,0,0.8036,Pegmatite_15,6,15,6,8,0.804,6,15,-0.100925926,-0.400925926,1,0,0,1.0789,Pegmatite_rect,6,1.079,1,14,0,14,0,1,,,,,,,,,,,,,
662fb42cc3458e96dee33181,SCR,2024-06-20_13h33.19.839,LearnStrategy,2023.2.3,Win32,142.8571429,9,1,16,-0.069444444,0.099074074,1,0,0,0.5538,Obsidian_11,5,11,4,4,0.554,5,11,-0.340740741,-0.42037037,1,0,0,0.5621,Obsidian_rect,5,0.562,1,15,0,15,0,1,,,,,,,,,,,,,
662fb42cc3458e96dee33181,SCR,2024-06-20_13h33.19.839,LearnStrategy,2023.2.3,Win32,142.8571429,9,2,1,,,,,,,,6,05,,,,,,,,,,,,,6,2.985,1,,,,,,-0.112037037,-0.390740741,1,0,0,2.9853,Pegmatite_rect,0,0,0,0,1,
662fb42cc3458e96dee33181,SCR,2024-06-20_13h33.19.839,LearnStrategy,2023.2.3,Win32,142.8571429,9,2,2,,,,,,,,8,15,,,,,,,,,,,,,8,1.09,1,,,,,,0.422222222,-0.403703704,1,0,0,1.0897,Pumice_rect,1,0,1,0,1,
662fb42cc3458e96dee33181,SCR,2024-06-20_13h33.19.839,LearnStrategy,2023.2.3,Win32,142.8571429,9,2,3,,,,,,,,4,10,,,,,,,,,,,,,4,2.288,1,,,,,,0.388888889,-0.242592593,1,0,0,2.2882,Gabbro_rect,2,0,2,0,1,
662fb42cc3458e96dee33181,SCR,2024-06-20_13h33.19.839,LearnStrategy,2023.2.3,Win32,142.8571429,9,2,4,,,,,,,,7,04,,,,,,,,,,,,,1,8.475,0,,,,,,-0.411111111,-0.238888889,1,0,0,8.4751,Andesite_rect,3,0,3,0,1,
662fb42cc3458e96dee33181,SCR,2024-06-20_13h33.19.839,LearnStrategy,2023.2.3,Win32,142.8571429,9,2,5,,,,,,,,5,07,,,,,,,,,,,,,5,1.075,1,,,,,,-0.362037037,-0.380555556,1,0,0,1.0749,Obsidian_rect,4,0,4,0,1,
662fb42cc3458e96dee33181,SCR,2024-06-20_13h33.19.839,LearnStrategy,2023.2.3,Win32,142.8571429,9,2,6,,,,,,,,5,10,,,,,,,,,,,,,5,0.54,1,,,,,,-0.361111111,-0.381481481,1,0,0,0.5403,Obsidian_rect,5,0,5,0,1,
662fb42cc3458e96dee33181,SCR,2024-06-20_13h33.19.839,LearnStrategy,2023.2.3,Win32,142.8571429,9,2,7,,,,,,,,3,13,,,,,,,,,,,,,3,1.186,1,,,,,,0.187962963,-0.247222222,1,0,0,1.1861,Diorite_rect,6,0,6,0,1,
662fb42cc3458e96dee33181,SCR,2024-06-20_13h33.19.839,LearnStrategy,2023.2.3,Win32,142.8571429,9,2,8,,,,,,,,1,04,,,,,,,,,,,,,1,1.32,1,,,,,,-0.348148148,-0.255555556,1,0,0,1.3195,Andesite_rect,7,0,7,0,1,
662fb42cc3458e96dee33181,SCR,2024-06-20_13h33.19.839,LearnStrategy,2023.2.3,Win32,142.8571429,9,2,9,,,,,,,,2,02,,,,,,,,,,,,,2,0.822,1,,,,,,-0.143518519,-0.267592593,1,0,0,0.8218,Basalt_rect,8,0,8,0,1,
662fb42cc3458e96dee33181,SCR,2024-06-20_13h33.19.839,LearnStrategy,2023.2.3,Win32,142.8571429,9,2,10,,,,,,,,6,10,,,,,,,,,,,,,6,0.987,1,,,,,,-0.098148148,-0.408333333,1,0,0,0.987,Pegmatite_rect,9,0,9,0,1,
662fb42cc3458e96dee33181,SCR,2024-06-20_13h33.19.839,LearnStrategy,2023.2.3,Win32,142.8571429,9,2,11,,,,,,,,2,05,,,,,,,,,,,,,2,2.335,1,,,,,,-0.100925926,-0.24537037,1,0,0,2.3351,Basalt_rect,10,0,10,0,1,
662fb42cc3458e96dee33181,SCR,2024-06-20_13h33.19.839,LearnStrategy,2023.2.3,Win32,142.8571429,9,2,12,,,,,,,,8,04,,,,,,,,,,,,,8,0.849,1,,,,,,0.412037037,-0.410185185,1,0,0,0.8486,Pumice_rect,11,0,11,0,1,
662fb42cc3458e96dee33181,SCR,2024-06-20_13h33.19.839,LearnStrategy,2023.2.3,Win32,142.8571429,9,2,13,,,,,,,,3,16,,,,,,,,,,,,,3,1.027,1,,,,,,0.158333333,-0.252777778,1,0,0,1.0271,Diorite_rect,12,0,12,0,1,
662fb42cc3458e96dee33181,SCR,2024-06-20_13h33.19.839,LearnStrategy,2023.2.3,Win32,142.8571429,9,2,14,,,,,,,,4,14,,,,,,,,,,,,,4,1.541,1,,,,,,0.362962963,-0.253703704,1,0,0,1.5409,Gabbro_rect,13,0,13,0,1,
662fb42cc3458e96dee33181,SCR,2024-06-20_13h33.19.839,LearnStrategy,2023.2.3,Win32,142.8571429,9,2,15,,,,,,,,7,13,,,,,,,,,,,,,7,1.086,1,,,,,,0.162037037,-0.387037037,1,0,0,1.086,Peridotite_rect,14,0,14,0,1,
662fb42cc3458e96dee33181,SCR,2024-06-20_13h33.19.839,LearnStrategy,2023.2.3,Win32,142.8571429,9,2,16,,,,,,,,1,14,,,,,,,,,,,,,1,1.242,1,,,,,,-0.360185185,-0.241666667,1,0,0,1.2423,Andesite_rect,15,0,15,0,1,
662fb42cc3458e96dee33181,SCR,2024-06-20_13h33.19.839,LearnStrategy,2023.2.3,Win32,142.8571429,,,,,,,,,,,,,,,,,,,,,,,,,,,,,,,,,,,,,,,,,,,,,1
662fb42cc3458e96dee33181,SCR,2024-06-20_13h33.19.839,LearnStrategy,2023.2.3,Win32,142.8571429,,,,,,,,,,,,,,,,,,,,,,,,,,,,,,,,,,,,,,,,,,,,,
662fb42cc3458e96dee33181,SCR,2024-06-20_13h33.19.839,LearnStrategy,2023.2.3,Win32,142.8571429,,,,,,,,,,,3,06,1,1,,,,,,,,,,,,,,,,,,,,,,,,,,,,,,,
662fb42cc3458e96dee33181,SCR,2024-06-20_13h33.19.839,LearnStrategy,2023.2.3,Win32,142.8571429,,,,,,,,,,,7,12,1,2,,,,,,,,,,,,,,,,,,,,,,,,,,,,,,,
662fb42cc3458e96dee33181,SCR,2024-06-20_13h33.19.839,LearnStrategy,2023.2.3,Win32,142.8571429,,,,,,,,,,,8,10,1,3,,,,,,,,,,,,,,,,,,,,,,,,,,,,,,,
662fb42cc3458e96dee33181,SCR,2024-06-20_13h33.19.839,LearnStrategy,2023.2.3,Win32,142.8571429,,,,,,,,,,,2,14,1,4,,,,,,,,,,,,,,,,,,,,,,,,,,,,,,,
662fb42cc3458e96dee33181,SCR,2024-06-20_13h33.19.839,LearnStrategy,2023.2.3,Win32,142.8571429,,,,,,,,,,,7,10,1,5,,,,,,,,,,,,,,,,,,,,,,,,,,,,,,,
662fb42cc3458e96dee33181,SCR,2024-06-20_13h33.19.839,LearnStrategy,2023.2.3,Win32,142.8571429,,,,,,,,,,,8,03,1,6,,,,,,,,,,,,,,,,,,,,,,,,,,,,,,,
662fb42cc3458e96dee33181,SCR,2024-06-20_13h33.19.839,LearnStrategy,2023.2.3,Win32,142.8571429,,,,,,,,,,,4,09,1,7,,,,,,,,,,,,,,,,,,,,,,,,,,,,,,,
662fb42cc3458e96dee33181,SCR,2024-06-20_13h33.19.839,LearnStrategy,2023.2.3,Win32,142.8571429,,,,,,,,,,,5,08,1,8,,,,,,,,,,,,,,,,,,,,,,,,,,,,,,,
662fb42cc3458e96dee33181,SCR,2024-06-20_13h33.19.839,LearnStrategy,2023.2.3,Win32,142.8571429,,,,,,,,,,,3,10,2,1,,,,,,,,,,,,,,,,,,,,,,,,,,,,,,,
662fb42cc3458e96dee33181,SCR,2024-06-20_13h33.19.839,LearnStrategy,2023.2.3,Win32,142.8571429,,,,,,,,,,,8,16,2,2,,,,,,,,,,,,,,,,,,,,,,,,,,,,,,,
662fb42cc3458e96dee33181,SCR,2024-06-20_13h33.19.839,LearnStrategy,2023.2.3,Win32,142.8571429,,,,,,,,,,,5,05,2,3,,,,,,,,,,,,,,,,,,,,,,,,,,,,,,,
662fb42cc3458e96dee33181,SCR,2024-06-20_13h33.19.839,LearnStrategy,2023.2.3,Win32,142.8571429,,,,,,,,,,,6,11,2,4,,,,,,,,,,,,,,,,,,,,,,,,,,,,,,,
662fb42cc3458e96dee33181,SCR,2024-06-20_13h33.19.839,LearnStrategy,2023.2.3,Win32,142.8571429,,,,,,,,,,,7,14,2,5,,,,,,,,,,,,,,,,,,,,,,,,,,,,,,,
662fb42cc3458e96dee33181,SCR,2024-06-20_13h33.19.839,LearnStrategy,2023.2.3,Win32,142.8571429,,,,,,,,,,,1,03,2,6,,,,,,,,,,,,,,,,,,,,,,,,,,,,,,,
662fb42cc3458e96dee33181,SCR,2024-06-20_13h33.19.839,LearnStrategy,2023.2.3,Win32,142.8571429,,,,,,,,,,,3,08,2,7,,,,,,,,,,,,,,,,,,,,,,,,,,,,,,,
662fb42cc3458e96dee33181,SCR,2024-06-20_13h33.19.839,LearnStrategy,2023.2.3,Win32,142.8571429,,,,,,,,,,,7,02,2,8,,,,,,,,,,,,,,,,,,,,,,,,,,,,,,,
662fb42cc3458e96dee33181,SCR,2024-06-20_13h33.19.839,LearnStrategy,2023.2.3,Win32,142.8571429,,,,,,,,,,,2,08,3,1,,,,,,,,,,,,,,,,,,,,,,,,,,,,,,,
662fb42cc3458e96dee33181,SCR,2024-06-20_13h33.19.839,LearnStrategy,2023.2.3,Win32,142.8571429,,,,,,,,,,,6,06,3,2,,,,,,,,,,,,,,,,,,,,,,,,,,,,,,,
662fb42cc3458e96dee33181,SCR,2024-06-20_13h33.19.839,LearnStrategy,2023.2.3,Win32,142.8571429,,,,,,,,,,,5,16,3,3,,,,,,,,,,,,,,,,,,,,,,,,,,,,,,,
662fb42cc3458e96dee33181,SCR,2024-06-20_13h33.19.839,LearnStrategy,2023.2.3,Win32,142.8571429,,,,,,,,,,,8,05,3,4,,,,,,,,,,,,,,,,,,,,,,,,,,,,,,,
662fb42cc3458e96dee33181,SCR,2024-06-20_13h33.19.839,LearnStrategy,2023.2.3,Win32,142.8571429,,,,,,,,,,,1,10,3,5,,,,,,,,,,,,,,,,,,,,,,,,,,,,,,,
662fb42cc3458e96dee33181,SCR,2024-06-20_13h33.19.839,LearnStrategy,2023.2.3,Win32,142.8571429,,,,,,,,,,,3,14,3,6,,,,,,,,,,,,,,,,,,,,,,,,,,,,,,,
662fb42cc3458e96dee33181,SCR,2024-06-20_13h33.19.839,LearnStrategy,2023.2.3,Win32,142.8571429,,,,,,,,,,,6,08,3,7,,,,,,,,,,,,,,,,,,,,,,,,,,,,,,,
662fb42cc3458e96dee33181,SCR,2024-06-20_13h33.19.839,LearnStrategy,2023.2.3,Win32,142.8571429,,,,,,,,,,,2,10,3,8,,,,,,,,,,,,,,,,,,,,,,,,,,,,,,,
662fb42cc3458e96dee33181,SCR,2024-06-20_13h33.19.839,LearnStrategy,2023.2.3,Win32,142.8571429,,,,,,,,,,,4,03,4,1,,,,,,,,,,,,,,,,,,,,,,,,,,,,,,,
662fb42cc3458e96dee33181,SCR,2024-06-20_13h33.19.839,LearnStrategy,2023.2.3,Win32,142.8571429,,,,,,,,,,,8,06,4,2,,,,,,,,,,,,,,,,,,,,,,,,,,,,,,,
662fb42cc3458e96dee33181,SCR,2024-06-20_13h33.19.839,LearnStrategy,2023.2.3,Win32,142.8571429,,,,,,,,,,,5,12,4,3,,,,,,,,,,,,,,,,,,,,,,,,,,,,,,,
662fb42cc3458e96dee33181,SCR,2024-06-20_13h33.19.839,LearnStrategy,2023.2.3,Win32,142.8571429,,,,,,,,,,,5,11,4,4,,,,,,,,,,,,,,,,,,,,,,,,,,,,,,,
662fb42cc3458e96dee33181,SCR,2024-06-20_13h33.19.839,LearnStrategy,2023.2.3,Win32,142.8571429,,,,,,,,,,,5,04,4,5,,,,,,,,,,,,,,,,,,,,,,,,,,,,,,,
662fb42cc3458e96dee33181,SCR,2024-06-20_13h33.19.839,LearnStrategy,2023.2.3,Win32,142.8571429,,,,,,,,,,,7,05,4,6,,,,,,,,,,,,,,,,,,,,,,,,,,,,,,,
662fb42cc3458e96dee33181,SCR,2024-06-20_13h33.19.839,LearnStrategy,2023.2.3,Win32,142.8571429,,,,,,,,,,,2,06,4,7,,,,,,,,,,,,,,,,,,,,,,,,,,,,,,,
662fb42cc3458e96dee33181,SCR,2024-06-20_13h33.19.839,LearnStrategy,2023.2.3,Win32,142.8571429,,,,,,,,,,,6,13,4,8,,,,,,,,,,,,,,,,,,,,,,,,,,,,,,,
662fb42cc3458e96dee33181,SCR,2024-06-20_13h33.19.839,LearnStrategy,2023.2.3,Win32,142.8571429,,,,,,,,,,,4,13,5,1,,,,,,,,,,,,,,,,,,,,,,,,,,,,,,,
662fb42cc3458e96dee33181,SCR,2024-06-20_13h33.19.839,LearnStrategy,2023.2.3,Win32,142.8571429,,,,,,,,,,,3,02,5,2,,,,,,,,,,,,,,,,,,,,,,,,,,,,,,,
662fb42cc3458e96dee33181,SCR,2024-06-20_13h33.19.839,LearnStrategy,2023.2.3,Win32,142.8571429,,,,,,,,,,,2,09,5,3,,,,,,,,,,,,,,,,,,,,,,,,,,,,,,,
662fb42cc3458e96dee33181,SCR,2024-06-20_13h33.19.839,LearnStrategy,2023.2.3,Win32,142.8571429,,,,,,,,,,,6,09,5,4,,,,,,,,,,,,,,,,,,,,,,,,,,,,,,,
662fb42cc3458e96dee33181,SCR,2024-06-20_13h33.19.839,LearnStrategy,2023.2.3,Win32,142.8571429,,,,,,,,,,,1,06,5,5,,,,,,,,,,,,,,,,,,,,,,,,,,,,,,,
662fb42cc3458e96dee33181,SCR,2024-06-20_13h33.19.839,LearnStrategy,2023.2.3,Win32,142.8571429,,,,,,,,,,,2,11,5,6,,,,,,,,,,,,,,,,,,,,,,,,,,,,,,,
662fb42cc3458e96dee33181,SCR,2024-06-20_13h33.19.839,LearnStrategy,2023.2.3,Win32,142.8571429,,,,,,,,,,,3,12,5,7,,,,,,,,,,,,,,,,,,,,,,,,,,,,,,,
662fb42cc3458e96dee33181,SCR,2024-06-20_13h33.19.839,LearnStrategy,2023.2.3,Win32,142.8571429,,,,,,,,,,,1,09,5,8,,,,,,,,,,,,,,,,,,,,,,,,,,,,,,,
662fb42cc3458e96dee33181,SCR,2024-06-20_13h33.19.839,LearnStrategy,2023.2.3,Win32,142.8571429,,,,,,,,,,,8,13,6,1,,,,,,,,,,,,,,,,,,,,,,,,,,,,,,,
662fb42cc3458e96dee33181,SCR,2024-06-20_13h33.19.839,LearnStrategy,2023.2.3,Win32,142.8571429,,,,,,,,,,,7,15,6,2,,,,,,,,,,,,,,,,,,,,,,,,,,,,,,,
662fb42cc3458e96dee33181,SCR,2024-06-20_13h33.19.839,LearnStrategy,2023.2.3,Win32,142.8571429,,,,,,,,,,,4,11,6,3,,,,,,,,,,,,,,,,,,,,,,,,,,,,,,,
662fb42cc3458e96dee33181,SCR,2024-06-20_13h33.19.839,LearnStrategy,2023.2.3,Win32,142.8571429,,,,,,,,,,,1,05,6,4,,,,,,,,,,,,,,,,,,,,,,,,,,,,,,,
662fb42cc3458e96dee33181,SCR,2024-06-20_13h33.19.839,LearnStrategy,2023.2.3,Win32,142.8571429,,,,,,,,,,,1,16,6,5,,,,,,,,,,,,,,,,,,,,,,,,,,,,,,,
662fb42cc3458e96dee33181,SCR,2024-06-20_13h33.19.839,LearnStrategy,2023.2.3,Win32,142.8571429,,,,,,,,,,,4,08,6,6,,,,,,,,,,,,,,,,,,,,,,,,,,,,,,,
662fb42cc3458e96dee33181,SCR,2024-06-20_13h33.19.839,LearnStrategy,2023.2.3,Win32,142.8571429,,,,,,,,,,,4,15,6,7,,,,,,,,,,,,,,,,,,,,,,,,,,,,,,,
662fb42cc3458e96dee33181,SCR,2024-06-20_13h33.19.839,LearnStrategy,2023.2.3,Win32,142.8571429,,,,,,,,,,,6,15,6,8,,,,,,,,,,,,,,,,,,,,,,,,,,,,,,,