participant,condition,date,expName,psychopyVersion,OS,frameRate,block,phase,trial,learn_mouse.x,learn_mouse.y,learn_mouse.leftButton,learn_mouse.midButton,learn_mouse.rightButton,learn_mouse.time,learn_mouse.clicked_name,cat,token,row,col,t_select,cat_rec,token_rec,cat_mouse_l.x,cat_mouse_l.y,cat_mouse_l.leftButton,cat_mouse_l.midButton,cat_mouse_l.rightButton,cat_mouse_l.time,cat_mouse_l.clicked_name,resp,t_resp,corr,train_trials.thisRepN,train_trials.thisTrialN,train_trials.thisN,train_trials.thisIndex,train_trials.ran,cat_mouse_t.x,cat_mouse_t.y,cat_mouse_t.leftButton,cat_mouse_t.midButton,cat_mouse_t.rightButton,cat_mouse_t.time,cat_mouse_t.clicked_name,test_trials.thisRepN,test_trials.thisTrialN,test_trials.thisN,test_trials.thisIndex,test_trials.ran,Bonus
6630e9224b174b5c709cd1c2,SCR,2024-06-25_12h40.50.913,LearnStrategy,2023.2.3,Linux x86_64,59.88023952,,,,,,,,,,,,,,,,,,,,,,,,,,,,,,,,,,,,,,,,,,,,,
6630e9224b174b5c709cd1c2,SCR,2024-06-25_12h40.50.913,LearnStrategy,2023.2.3,Linux x86_64,59.88023952,1,1,1,-0.415861377,0.383540427,1,0,0,4.5456,Obsidian_12,5,12,6,2,4.546,8,16,-0.114193457,-0.231085247,1,0,0,4.8714,Basalt_rect,2,4.871,0,0,0,0,0,1,,,,,,,,,,,,,
6630e9224b174b5c709cd1c2,SCR,2024-06-25_12h40.50.913,LearnStrategy,2023.2.3,Linux x86_64,59.88023952,1,1,2,-0.532189581,0.413424607,1,0,0,1.8619,Pumice_13,8,13,6,1,1.862,1,16,-0.369985439,-0.256192243,1,0,0,2.7842,Andesite_rect,1,2.784,0,1,0,1,0,1,,,,,,,,,,,,,
6630e9224b174b5c709cd1c2,SCR,2024-06-25_12h40.50.913,LearnStrategy,2023.2.3,Linux x86_64,59.88023952,1,1,3,0.365096905,0.094352192,1,0,0,1.7624,Diorite_08,3,08,4,7,1.762,4,09,0.320691568,-0.254391282,1,0,0,3.5696,Gabbro_rect,4,3.57,0,2,0,2,0,1,,,,,,,,,,,,,
6630e9224b174b5c709cd1c2,SCR,2024-06-25_12h40.50.913,LearnStrategy,2023.2.3,Linux x86_64,59.88023952,1,1,4,0.092565678,-0.25616561,1,0,0,2.0295,Pegmatite_09,6,09,2,5,2.03,5,14,-0.441857055,-0.409499628,1,0,0,3.9163,Obsidian_rect,5,3.916,0,3,0,3,0,1,,,,,,,,,,,,,
6630e9224b174b5c709cd1c2,SCR,2024-06-25_12h40.50.913,LearnStrategy,2023.2.3,Linux x86_64,59.88023952,1,1,5,-0.245079959,0.255774463,1,0,0,3.3616,Pumice_05,8,05,5,3,3.362,2,14,0.383060738,-0.405441425,1,0,0,2.2722,Pumice_rect,8,2.272,1,4,0,4,0,1,,,,,,,,,,,,,
6630e9224b174b5c709cd1c2,SCR,2024-06-25_12h40.50.913,LearnStrategy,2023.2.3,Linux x86_64,59.88023952,1,1,6,0.069119842,0.079955242,1,0,0,1.3455,Basalt_02,2,02,4,5,1.346,6,06,-0.38033994,-0.257152557,1,0,0,2.6841,Andesite_rect,1,2.684,0,5,0,5,0,1,,,,,,,,,,,,,
6630e9224b174b5c709cd1c2,SCR,2024-06-25_12h40.50.913,LearnStrategy,2023.2.3,Linux x86_64,59.88023952,1,1,7,0.072920623,-0.390009915,1,0,0,1.6123,Diorite_12,3,12,1,5,1.612,7,02,0.377465001,-0.410749789,1,0,0,1.6021,Pumice_rect,8,1.602,0,6,0,6,0,1,,,,,,,,,,,,,
6630e9224b174b5c709cd1c2,SCR,2024-06-25_12h40.50.913,LearnStrategy,2023.2.3,Linux x86_64,59.88023952,1,1,8,-0.523603651,-0.416050452,1,0,0,2.7953,Pumice_15,8,15,1,1,2.795,4,14,0.357285817,-0.381489718,1,0,0,1.8319,Pumice_rect,8,1.832,1,7,0,7,0,1,,,,,,,,,,,,,
6630e9224b174b5c709cd1c2,SCR,2024-06-25_12h40.50.913,LearnStrategy,2023.2.3,Linux x86_64,59.88023952,1,1,9,0.075630612,0.415560413,1,0,0,3.2123,Obsidian_05,5,05,6,5,3.212,7,14,-0.15293849,-0.236522604,1,0,0,1.372,Basalt_rect,2,1.372,0,8,0,8,0,1,,,,,,,,,,,,,
6630e9224b174b5c709cd1c2,SCR,2024-06-25_12h40.50.913,LearnStrategy,2023.2.3,Linux x86_64,59.88023952,1,1,10,0.245524795,-0.410515185,1,0,0,1.1939,Basalt_06,2,06,1,6,1.194,3,12,-0.089739835,-0.253573594,1,0,0,1.2497,Basalt_rect,2,1.25,1,9,0,9,0,1,,,,,,,,,,,,,
6630e9224b174b5c709cd1c2,SCR,2024-06-25_12h40.50.913,LearnStrategy,2023.2.3,Linux x86_64,59.88023952,1,1,11,-0.3923319,-0.237423861,1,0,0,1.5054,Obsidian_02,5,02,2,2,1.505,5,08,-0.155324936,-0.234688865,1,0,0,0.8869,Basalt_rect,2,0.887,0,10,0,10,0,1,,,,,,,,,,,,,
6630e9224b174b5c709cd1c2,SCR,2024-06-25_12h40.50.913,LearnStrategy,2023.2.3,Linux x86_64,59.88023952,1,1,12,-0.243636379,-0.136753435,1,0,0,3.1947,Obsidian_14,5,14,3,3,3.195,2,06,-0.392212797,-0.388639379,1,0,0,2.0212,Obsidian_rect,5,2.021,1,11,0,11,0,1,,,,,,,,,,,,,
6630e9224b174b5c709cd1c2,SCR,2024-06-25_12h40.50.913,LearnStrategy,2023.2.3,Linux x86_64,59.88023952,1,1,13,-0.579749602,-0.126664903,1,0,0,1.5966,Pumice_06,8,06,3,1,1.597,6,15,0.378077048,-0.413316797,1,0,0,1.1766,Pumice_rect,8,1.177,1,12,0,12,0,1,,,,,,,,,,,,,
6630e9224b174b5c709cd1c2,SCR,2024-06-25_12h40.50.913,LearnStrategy,2023.2.3,Linux x86_64,59.88023952,1,1,14,-0.116195467,0.073833254,1,0,0,1.4796,Diorite_07,3,07,4,4,1.48,1,02,0.119498147,-0.264367492,1,0,0,1.8276,Diorite_rect,3,1.828,1,13,0,13,0,1,,,,,,,,,,,,,
6630e9224b174b5c709cd1c2,SCR,2024-06-25_12h40.50.913,LearnStrategy,2023.2.3,Linux x86_64,59.88023952,1,1,15,0.542524974,0.217402705,1,0,0,1.9125,Diorite_11,3,11,5,8,1.912,8,14,0.081967036,-0.228061888,1,0,0,1.4607,Diorite_rect,3,1.461,1,14,0,14,0,1,,,,,,,,,,,,,
6630e9224b174b5c709cd1c2,SCR,2024-06-25_12h40.50.913,LearnStrategy,2023.2.3,Linux x86_64,59.88023952,1,1,16,0.373401642,-0.441919327,1,0,0,1.5456,Obsidian_10,5,10,1,7,1.546,3,07,-0.142186836,-0.244273786,1,0,0,1.269,Basalt_rect,2,1.269,0,15,0,15,0,1,,,,,,,,,,,,,
6630e9224b174b5c709cd1c2,SCR,2024-06-25_12h40.50.913,LearnStrategy,2023.2.3,Linux x86_64,59.88023952,1,2,1,,,,,,,,5,04,,,,,,,,,,,,,5,4.543,1,,,,,,-0.401212339,-0.394492467,1,0,0,4.5428,Obsidian_rect,0,0,0,0,1,
6630e9224b174b5c709cd1c2,SCR,2024-06-25_12h40.50.913,LearnStrategy,2023.2.3,Linux x86_64,59.88023952,1,2,2,,,,,,,,5,06,,,,,,,,,,,,,2,3.626,0,,,,,,-0.171136432,-0.269662857,1,0,0,3.6263,Basalt_rect,1,0,1,0,1,
6630e9224b174b5c709cd1c2,SCR,2024-06-25_12h40.50.913,LearnStrategy,2023.2.3,Linux x86_64,59.88023952,1,2,3,,,,,,,,2,08,,,,,,,,,,,,,2,13.644,1,,,,,,-0.0908959,-0.261360946,1,0,0,13.6441,Basalt_rect,2,0,2,0,1,
6630e9224b174b5c709cd1c2,SCR,2024-06-25_12h40.50.913,LearnStrategy,2023.2.3,Linux x86_64,59.88023952,1,2,4,,,,,,,,6,11,,,,,,,,,,,,,5,8.23,0,,,,,,-0.32504774,-0.388839227,1,0,0,8.2297,Obsidian_rect,3,0,3,0,1,
6630e9224b174b5c709cd1c2,SCR,2024-06-25_12h40.50.913,LearnStrategy,2023.2.3,Linux x86_64,59.88023952,1,2,5,,,,,,,,6,08,,,,,,,,,,,,,5,2.389,0,,,,,,-0.333835849,-0.388675972,1,0,0,2.3893,Obsidian_rect,4,0,4,0,1,
6630e9224b174b5c709cd1c2,SCR,2024-06-25_12h40.50.913,LearnStrategy,2023.2.3,Linux x86_64,59.88023952,1,2,6,,,,,,,,7,06,,,,,,,,,,,,,3,5.708,0,,,,,,0.066911485,-0.260106334,1,0,0,5.7078,Diorite_rect,5,0,5,0,1,
6630e9224b174b5c709cd1c2,SCR,2024-06-25_12h40.50.913,LearnStrategy,2023.2.3,Linux x86_64,59.88023952,1,2,7,,,,,,,,1,14,,,,,,,,,,,,,3,4.485,0,,,,,,0.074129811,-0.244965306,1,0,0,4.4853,Diorite_rect,6,0,6,0,1,
6630e9224b174b5c709cd1c2,SCR,2024-06-25_12h40.50.913,LearnStrategy,2023.2.3,Linux x86_64,59.88023952,1,2,8,,,,,,,,3,15,,,,,,,,,,,,,3,4.061,1,,,,,,0.079134694,-0.253640422,1,0,0,4.0605,Diorite_rect,7,0,7,0,1,
6630e9224b174b5c709cd1c2,SCR,2024-06-25_12h40.50.913,LearnStrategy,2023.2.3,Linux x86_64,59.88023952,1,2,9,,,,,,,,2,04,,,,,,,,,,,,,2,7.164,1,,,,,,-0.163616816,-0.270734363,1,0,0,7.1643,Basalt_rect,8,0,8,0,1,
6630e9224b174b5c709cd1c2,SCR,2024-06-25_12h40.50.913,LearnStrategy,2023.2.3,Linux x86_64,59.88023952,1,2,10,,,,,,,,3,10,,,,,,,,,,,,,3,6.09,1,,,,,,0.118351901,-0.233675921,1,0,0,6.0896,Diorite_rect,9,0,9,0,1,
6630e9224b174b5c709cd1c2,SCR,2024-06-25_12h40.50.913,LearnStrategy,2023.2.3,Linux x86_64,59.88023952,1,2,11,,,,,,,,4,16,,,,,,,,,,,,,8,6.494,0,,,,,,0.432010933,-0.403128942,1,0,0,6.4941,Pumice_rect,10,0,10,0,1,
6630e9224b174b5c709cd1c2,SCR,2024-06-25_12h40.50.913,LearnStrategy,2023.2.3,Linux x86_64,59.88023952,1,2,12,,,,,,,,8,02,,,,,,,,,,,,,8,0.965,1,,,,,,0.432010933,-0.403128942,1,0,0,0.9654,Pumice_rect,11,0,11,0,1,
6630e9224b174b5c709cd1c2,SCR,2024-06-25_12h40.50.913,LearnStrategy,2023.2.3,Linux x86_64,59.88023952,1,2,13,,,,,,,,4,15,,,,,,,,,,,,,3,6.029,0,,,,,,0.175556324,-0.237921185,1,0,0,6.0288,Diorite_rect,12,0,12,0,1,
6630e9224b174b5c709cd1c2,SCR,2024-06-25_12h40.50.913,LearnStrategy,2023.2.3,Linux x86_64,59.88023952,1,2,14,,,,,,,,7,15,,,,,,,,,,,,,3,5.405,0,,,,,,0.175556324,-0.24659623,1,0,0,5.4046,Diorite_rect,13,0,13,0,1,
6630e9224b174b5c709cd1c2,SCR,2024-06-25_12h40.50.913,LearnStrategy,2023.2.3,Linux x86_64,59.88023952,1,2,15,,,,,,,,8,04,,,,,,,,,,,,,8,1.62,1,,,,,,0.362553208,-0.398842918,1,0,0,1.6197,Pumice_rect,14,0,14,0,1,
6630e9224b174b5c709cd1c2,SCR,2024-06-25_12h40.50.913,LearnStrategy,2023.2.3,Linux x86_64,59.88023952,1,2,16,,,,,,,,1,07,,,,,,,,,,,,,3,10.069,0,,,,,,0.179293244,-0.24752518,1,0,0,10.069,Diorite_rect,15,0,15,0,1,
6630e9224b174b5c709cd1c2,SCR,2024-06-25_12h40.50.913,LearnStrategy,2023.2.3,Linux x86_64,59.88023952,2,1,1,0.067311252,-0.414031205,1,0,0,9.5113,Diorite_12,3,12,1,5,9.511,1,01,0.044192491,-0.261012819,1,0,0,5.6988,Diorite_rect,3,5.699,1,0,0,0,0,1,,,,,,,,,,,,,
6630e9224b174b5c709cd1c2,SCR,2024-06-25_12h40.50.913,LearnStrategy,2023.2.3,Linux x86_64,59.88023952,2,1,2,0.083986777,0.085330009,1,0,0,1.8142,Basalt_02,2,02,4,5,1.814,7,07,-0.129377365,-0.251915543,1,0,0,2.3023,Basalt_rect,2,2.302,1,1,0,1,0,1,,,,,,,,,,,,,
6630e9224b174b5c709cd1c2,SCR,2024-06-25_12h40.50.913,LearnStrategy,2023.2.3,Linux x86_64,59.88023952,2,1,3,0.587369142,-0.428699281,1,0,0,1.7299,Pegmatite_07,6,07,1,8,1.73,5,08,0.336620048,-0.249197995,1,0,0,2.0978,Gabbro_rect,4,2.098,0,2,0,2,0,1,,,,,,,,,,,,,
6630e9224b174b5c709cd1c2,SCR,2024-06-25_12h40.50.913,LearnStrategy,2023.2.3,Linux x86_64,59.88023952,2,1,4,0.386487042,-0.430453477,1,0,0,1.7123,Obsidian_10,5,10,1,7,1.712,8,15,-0.352669892,-0.406968293,1,0,0,3.8836,Obsidian_rect,5,3.884,1,3,0,3,0,1,,,,,,,,,,,,,
6630e9224b174b5c709cd1c2,SCR,2024-06-25_12h40.50.913,LearnStrategy,2023.2.3,Linux x86_64,59.88023952,2,1,5,0.263140572,-0.419292309,1,0,0,1.7671,Basalt_06,2,06,1,6,1.767,1,11,-0.13023652,-0.250788512,1,0,0,1.922,Basalt_rect,2,1.922,1,4,0,4,0,1,,,,,,,,,,,,,
6630e9224b174b5c709cd1c2,SCR,2024-06-25_12h40.50.913,LearnStrategy,2023.2.3,Linux x86_64,59.88023952,2,1,6,-0.222441002,-0.396550426,1,0,0,2.0306,Gabbro_14,4,14,1,3,2.031,7,13,-0.139172943,-0.245946743,1,0,0,2.3324,Basalt_rect,2,2.332,0,5,0,5,0,1,,,,,,,,,,,,,
6630e9224b174b5c709cd1c2,SCR,2024-06-25_12h40.50.913,LearnStrategy,2023.2.3,Linux x86_64,59.88023952,2,1,7,-0.381318763,-0.43662481,1,0,0,1.2145,Pumice_16,8,16,1,2,1.215,4,09,0.375536036,-0.398501502,1,0,0,1.746,Pumice_rect,8,1.746,1,6,0,6,0,1,,,,,,,,,,,,,
6630e9224b174b5c709cd1c2,SCR,2024-06-25_12h40.50.913,LearnStrategy,2023.2.3,Linux x86_64,59.88023952,2,1,8,-0.596739698,-0.435270804,1,0,0,1.031,Pumice_15,8,15,1,1,1.031,4,13,0.385306888,-0.413442541,1,0,0,1.2844,Pumice_rect,8,1.284,1,7,0,7,0,1,,,,,,,,,,,,,
6630e9224b174b5c709cd1c2,SCR,2024-06-25_12h40.50.913,LearnStrategy,2023.2.3,Linux x86_64,59.88023952,2,1,9,-0.528884287,-0.248551757,1,0,0,1.4774,Basalt_05,2,05,2,1,1.477,6,06,-0.122184753,-0.230940218,1,0,0,3.3529,Basalt_rect,2,3.353,1,8,0,8,0,1,,,,,,,,,,,,,
6630e9224b174b5c709cd1c2,SCR,2024-06-25_12h40.50.913,LearnStrategy,2023.2.3,Linux x86_64,59.88023952,2,1,10,-0.370733791,-0.073863913,1,0,0,1.2973,Pegmatite_15,6,15,3,2,1.297,3,07,0.374943345,-0.252838347,1,0,0,1.3873,Gabbro_rect,4,1.387,0,9,0,9,0,1,,,,,,,,,,,,,
6630e9224b174b5c709cd1c2,SCR,2024-06-25_12h40.50.913,LearnStrategy,2023.2.3,Linux x86_64,59.88023952,2,1,11,-0.095906929,0.08088292,1,0,0,1.6009,Diorite_07,3,07,4,4,1.601,7,12,0.059128302,-0.258922577,1,0,0,1.248,Diorite_rect,3,1.248,1,10,0,10,0,1,,,,,,,,,,,,,
6630e9224b174b5c709cd1c2,SCR,2024-06-25_12h40.50.913,LearnStrategy,2023.2.3,Linux x86_64,59.88023952,2,1,12,0.541618065,0.383862222,1,0,0,4.397,Pegmatite_05,6,05,6,8,4.397,6,15,0.399408835,-0.246914828,1,0,0,3.2997,Gabbro_rect,4,3.3,0,11,0,11,0,1,,,,,,,,,,,,,
6630e9224b174b5c709cd1c2,SCR,2024-06-25_12h40.50.913,LearnStrategy,2023.2.3,Linux x86_64,59.88023952,2,1,13,0.206831967,-0.239207021,1,0,0,1.4293,Pegmatite_03,6,03,2,6,1.429,5,10,-0.107376734,-0.399429321,1,0,0,2.0885,Pegmatite_rect,6,2.089,1,12,0,12,0,1,,,,,,,,,,,,,
6630e9224b174b5c709cd1c2,SCR,2024-06-25_12h40.50.913,LearnStrategy,2023.2.3,Linux x86_64,59.88023952,2,1,14,-0.394212228,-0.094317754,1,0,0,1.8794,Pegmatite_15,6,15,3,2,1.879,4,11,-0.095818484,-0.390834667,1,0,0,2.8835,Pegmatite_rect,6,2.884,1,13,0,13,0,1,,,,,,,,,,,,,
6630e9224b174b5c709cd1c2,SCR,2024-06-25_12h40.50.913,LearnStrategy,2023.2.3,Linux x86_64,59.88023952,2,1,15,0.192977905,0.389354432,1,0,0,2.8302,Peridotite_12,7,12,6,6,2.83,6,03,0.112478751,-0.245185923,1,0,0,1.5786,Diorite_rect,3,1.579,0,14,0,14,0,1,,,,,,,,,,,,,
6630e9224b174b5c709cd1c2,SCR,2024-06-25_12h40.50.913,LearnStrategy,2023.2.3,Linux x86_64,59.88023952,2,1,16,-0.084793585,0.152295466,1,0,0,1.2645,Diorite_07,3,07,4,4,1.264,1,11,-0.066635768,-0.40705808,1,0,0,2.5841,Pegmatite_rect,6,2.584,0,15,0,15,0,1,,,,,,,,,,,,,
6630e9224b174b5c709cd1c2,SCR,2024-06-25_12h40.50.913,LearnStrategy,2023.2.3,Linux x86_64,59.88023952,2,2,1,,,,,,,,6,16,,,,,,,,,,,,,6,14.62,1,,,,,,-0.124957473,-0.408074626,1,0,0,14.6199,Pegmatite_rect,0,0,0,0,1,
6630e9224b174b5c709cd1c2,SCR,2024-06-25_12h40.50.913,LearnStrategy,2023.2.3,Linux x86_64,59.88023952,2,2,2,,,,,,,,7,16,,,,,,,,,,,,,4,7.179,0,,,,,,0.353231218,-0.264997058,1,0,0,7.179,Gabbro_rect,1,0,1,0,1,
6630e9224b174b5c709cd1c2,SCR,2024-06-25_12h40.50.913,LearnStrategy,2023.2.3,Linux x86_64,59.88023952,2,2,3,,,,,,,,1,10,,,,,,,,,,,,,3,9.541,0,,,,,,0.13961467,-0.254444546,1,0,0,9.5415,Diorite_rect,2,0,2,0,1,
6630e9224b174b5c709cd1c2,SCR,2024-06-25_12h40.50.913,LearnStrategy,2023.2.3,Linux x86_64,59.88023952,2,2,4,,,,,,,,8,10,,,,,,,,,,,,,8,1.51,1,,,,,,0.364322097,-0.420384937,1,0,0,1.5102,Pumice_rect,3,0,3,0,1,
6630e9224b174b5c709cd1c2,SCR,2024-06-25_12h40.50.913,LearnStrategy,2023.2.3,Linux x86_64,59.88023952,2,2,5,,,,,,,,5,16,,,,,,,,,,,,,5,5.777,1,,,,,,-0.308930114,-0.407553708,1,0,0,5.7773,Obsidian_rect,4,0,4,0,1,
6630e9224b174b5c709cd1c2,SCR,2024-06-25_12h40.50.913,LearnStrategy,2023.2.3,Linux x86_64,59.88023952,2,2,6,,,,,,,,2,16,,,,,,,,,,,,,8,17.14,0,,,,,,0.325910921,-0.396320555,1,0,0,17.14,Pumice_rect,5,0,5,0,1,
6630e9224b174b5c709cd1c2,SCR,2024-06-25_12h40.50.913,LearnStrategy,2023.2.3,Linux x86_64,59.88023952,2,2,7,,,,,,,,6,10,,,,,,,,,,,,,6,8.655,1,,,,,,-0.062574387,-0.40312216,1,0,0,8.655,Pegmatite_rect,6,0,6,0,1,
6630e9224b174b5c709cd1c2,SCR,2024-06-25_12h40.50.913,LearnStrategy,2023.2.3,Linux x86_64,59.88023952,2,2,8,,,,,,,,2,10,,,,,,,,,,,,,2,4.025,1,,,,,,-0.111615287,-0.252285639,1,0,0,4.0252,Basalt_rect,7,0,7,0,1,
6630e9224b174b5c709cd1c2,SCR,2024-06-25_12h40.50.913,LearnStrategy,2023.2.3,Linux x86_64,59.88023952,2,2,9,,,,,,,,1,04,,,,,,,,,,,,,3,6.209,0,,,,,,0.038359253,-0.238687939,1,0,0,6.2093,Diorite_rect,8,0,8,0,1,
6630e9224b174b5c709cd1c2,SCR,2024-06-25_12h40.50.913,LearnStrategy,2023.2.3,Linux x86_64,59.88023952,2,2,10,,,,,,,,5,11,,,,,,,,,,,,,5,6.181,1,,,,,,-0.354555307,-0.396720816,1,0,0,6.1812,Obsidian_rect,9,0,9,0,1,
6630e9224b174b5c709cd1c2,SCR,2024-06-25_12h40.50.913,LearnStrategy,2023.2.3,Linux x86_64,59.88023952,2,2,11,,,,,,,,3,06,,,,,,,,,,,,,3,6.193,1,,,,,,0.107089361,-0.246684887,1,0,0,6.1934,Diorite_rect,10,0,10,0,1,
6630e9224b174b5c709cd1c2,SCR,2024-06-25_12h40.50.913,LearnStrategy,2023.2.3,Linux x86_64,59.88023952,2,2,12,,,,,,,,4,05,,,,,,,,,,,,,3,3.317,0,,,,,,0.107089361,-0.246684887,1,0,0,3.3172,Diorite_rect,11,0,11,0,1,
6630e9224b174b5c709cd1c2,SCR,2024-06-25_12h40.50.913,LearnStrategy,2023.2.3,Linux x86_64,59.88023952,2,2,13,,,,,,,,4,08,,,,,,,,,,,,,8,11.364,0,,,,,,0.409214302,-0.400831505,1,0,0,11.3641,Pumice_rect,12,0,12,0,1,
6630e9224b174b5c709cd1c2,SCR,2024-06-25_12h40.50.913,LearnStrategy,2023.2.3,Linux x86_64,59.88023952,2,2,14,,,,,,,,3,02,,,,,,,,,,,,,3,3.295,1,,,,,,0.079556289,-0.261487254,1,0,0,3.2946,Diorite_rect,13,0,13,0,1,
6630e9224b174b5c709cd1c2,SCR,2024-06-25_12h40.50.913,LearnStrategy,2023.2.3,Linux x86_64,59.88023952,2,2,15,,,,,,,,7,10,,,,,,,,,,,,,3,1.804,0,,,,,,0.079556289,-0.261487254,1,0,0,1.8042,Diorite_rect,14,0,14,0,1,
6630e9224b174b5c709cd1c2,SCR,2024-06-25_12h40.50.913,LearnStrategy,2023.2.3,Linux x86_64,59.88023952,2,2,16,,,,,,,,8,03,,,,,,,,,,,,,8,3.944,1,,,,,,0.356348815,-0.407006299,1,0,0,3.9441,Pumice_rect,15,0,15,0,1,
6630e9224b174b5c709cd1c2,SCR,2024-06-25_12h40.50.913,LearnStrategy,2023.2.3,Linux x86_64,59.88023952,3,1,1,-0.257873182,0.087630131,1,0,0,1.8203,Gabbro_13,4,13,4,3,1.82,4,09,0.122924381,-0.259582449,1,0,0,2.8456,Diorite_rect,3,2.846,0,0,0,0,0,1,,,,,,,,,,,,,
6630e9224b174b5c709cd1c2,SCR,2024-06-25_12h40.50.913,LearnStrategy,2023.2.3,Linux x86_64,59.88023952,3,1,2,0.070267077,0.076222702,1,0,0,2.2642,Basalt_02,2,02,4,5,2.264,4,11,-0.129907184,-0.267220674,1,0,0,13.5476,Basalt_rect,2,13.548,1,1,0,1,0,1,,,,,,,,,,,,,
6630e9224b174b5c709cd1c2,SCR,2024-06-25_12h40.50.913,LearnStrategy,2023.2.3,Linux x86_64,59.88023952,3,1,3,0.039331648,-0.075923955,1,0,0,1.1698,Diorite_13,3,13,3,5,1.17,7,05,0.099707709,-0.239807482,1,0,0,1.3276,Diorite_rect,3,1.328,1,2,0,2,0,1,,,,,,,,,,,,,
6630e9224b174b5c709cd1c2,SCR,2024-06-25_12h40.50.913,LearnStrategy,2023.2.3,Linux x86_64,59.88023952,3,1,4,-0.366776537,-0.101452227,1,0,0,1.979,Pegmatite_15,6,15,3,2,1.979,6,07,-0.067451124,-0.398850547,1,0,0,1.733,Pegmatite_rect,6,1.733,1,3,0,3,0,1,,,,,,,,,,,,,
6630e9224b174b5c709cd1c2,SCR,2024-06-25_12h40.50.913,LearnStrategy,2023.2.3,Linux x86_64,59.88023952,3,1,5,-0.53953033,0.088526726,1,0,0,3.281,Andesite_05,1,05,4,1,3.281,4,13,0.229904952,-0.261132911,1,0,0,2.1093,Diorite_rect,3,2.109,0,4,0,4,0,1,,,,,,,,,,,,,
6630e9224b174b5c709cd1c2,SCR,2024-06-25_12h40.50.913,LearnStrategy,2023.2.3,Linux x86_64,59.88023952,3,1,6,-0.121435165,0.379101418,1,0,0,2.2792,Diorite_09,3,09,6,4,2.279,5,05,-0.33526848,-0.233297984,1,0,0,2.3676,Andesite_rect,1,2.368,0,5,0,5,0,1,,,,,,,,,,,,,
6630e9224b174b5c709cd1c2,SCR,2024-06-25_12h40.50.913,LearnStrategy,2023.2.3,Linux x86_64,59.88023952,3,1,7,0.223680496,0.379611104,1,0,0,1.6452,Peridotite_12,7,12,6,6,1.645,1,11,-0.389096119,-0.265021925,1,0,0,2.5182,Andesite_rect,1,2.518,0,6,0,6,0,1,,,,,,,,,,,,,
6630e9224b174b5c709cd1c2,SCR,2024-06-25_12h40.50.913,LearnStrategy,2023.2.3,Linux x86_64,59.88023952,3,1,8,0.41889883,0.106637001,1,0,0,1.5303,Diorite_08,3,08,4,7,1.53,1,09,0.137382013,-0.409140057,1,0,0,3.3647,Peridotite_rect,7,3.365,0,7,0,7,0,1,,,,,,,,,,,,,
6630e9224b174b5c709cd1c2,SCR,2024-06-25_12h40.50.913,LearnStrategy,2023.2.3,Linux x86_64,59.88023952,3,1,9,0.085943717,-0.109485697,1,0,0,1.3481,Diorite_13,3,13,3,5,1.348,8,06,-0.394363615,-0.245314987,1,0,0,1.7229,Andesite_rect,1,1.723,0,8,0,8,0,1,,,,,,,,,,,,,
6630e9224b174b5c709cd1c2,SCR,2024-06-25_12h40.50.913,LearnStrategy,2023.2.3,Linux x86_64,59.88023952,3,1,10,0.108226776,-0.408020797,1,0,0,1.432,Diorite_12,3,12,1,5,1.432,7,12,0.158172607,-0.410690802,1,0,0,2.2337,Peridotite_rect,7,2.234,0,9,0,9,0,1,,,,,,,,,,,,,
6630e9224b174b5c709cd1c2,SCR,2024-06-25_12h40.50.913,LearnStrategy,2023.2.3,Linux x86_64,59.88023952,3,1,11,-0.236732977,-0.411747756,1,0,0,2.0298,Gabbro_14,4,14,1,3,2.03,3,08,0.458790956,-0.259256645,1,0,0,2.9936,Gabbro_rect,4,2.994,1,10,0,10,0,1,,,,,,,,,,,,,
6630e9224b174b5c709cd1c2,SCR,2024-06-25_12h40.50.913,LearnStrategy,2023.2.3,Linux x86_64,59.88023952,3,1,12,0.556594849,0.238419515,1,0,0,3.1789,Diorite_11,3,11,5,8,3.179,4,03,0.072022968,-0.266385114,1,0,0,4.1622,Diorite_rect,3,4.162,1,11,0,11,0,1,,,,,,,,,,,,,
6630e9224b174b5c709cd1c2,SCR,2024-06-25_12h40.50.913,LearnStrategy,2023.2.3,Linux x86_64,59.88023952,3,1,13,0.563076867,-0.424138882,1,0,0,1.1973,Pegmatite_07,6,07,1,8,1.197,1,11,-0.129655414,-0.402217229,1,0,0,2.1787,Pegmatite_rect,6,2.179,1,12,0,12,0,1,,,,,,,,,,,,,
6630e9224b174b5c709cd1c2,SCR,2024-06-25_12h40.50.913,LearnStrategy,2023.2.3,Linux x86_64,59.88023952,3,1,14,-0.381955783,-0.421117712,1,0,0,1.1973,Pumice_16,8,16,1,2,1.197,7,14,0.352976905,-0.388197086,1,0,0,1.1977,Pumice_rect,8,1.198,1,13,0,13,0,1,,,,,,,,,,,,,
6630e9224b174b5c709cd1c2,SCR,2024-06-25_12h40.50.913,LearnStrategy,2023.2.3,Linux x86_64,59.88023952,3,1,15,-0.553103906,-0.401782071,1,0,0,1.0997,Pumice_15,8,15,1,1,1.1,6,03,0.424575241,-0.402765486,1,0,0,2.019,Pumice_rect,8,2.019,1,14,0,14,0,1,,,,,,,,,,,,,
6630e9224b174b5c709cd1c2,SCR,2024-06-25_12h40.50.913,LearnStrategy,2023.2.3,Linux x86_64,59.88023952,3,1,16,0.21223047,-0.099789584,1,0,0,3.9627,Peridotite_07,7,07,3,6,3.963,2,12,0.399430593,-0.232694273,1,0,0,10.2698,Gabbro_rect,4,10.27,0,15,0,15,0,1,,,,,,,,,,,,,
6630e9224b174b5c709cd1c2,SCR,2024-06-25_12h40.50.913,LearnStrategy,2023.2.3,Linux x86_64,59.88023952,3,2,1,,,,,,,,5,07,,,,,,,,,,,,,5,17.786,1,,,,,,-0.342361945,-0.386973063,1,0,0,17.786,Obsidian_rect,0,0,0,0,1,
6630e9224b174b5c709cd1c2,SCR,2024-06-25_12h40.50.913,LearnStrategy,2023.2.3,Linux x86_64,59.88023952,3,2,2,,,,,,,,5,09,,,,,,,,,,,,,5,2.702,1,,,,,,-0.329883187,-0.393613109,1,0,0,2.7021,Obsidian_rect,1,0,1,0,1,
6630e9224b174b5c709cd1c2,SCR,2024-06-25_12h40.50.913,LearnStrategy,2023.2.3,Linux x86_64,59.88023952,3,2,3,,,,,,,,2,11,,,,,,,,,,,,,8,2.144,0,,,,,,0.370744352,-0.404491919,1,0,0,2.1443,Pumice_rect,2,0,2,0,1,
6630e9224b174b5c709cd1c2,SCR,2024-06-25_12h40.50.913,LearnStrategy,2023.2.3,Linux x86_64,59.88023952,3,2,4,,,,,,,,3,16,,,,,,,,,,,,,3,19.457,1,,,,,,0.113501796,-0.264602096,1,0,0,19.4569,Diorite_rect,3,0,3,0,1,
6630e9224b174b5c709cd1c2,SCR,2024-06-25_12h40.50.913,LearnStrategy,2023.2.3,Linux x86_64,59.88023952,3,2,5,,,,,,,,4,10,,,,,,,,,,,,,4,8.12,1,,,,,,0.433449215,-0.265777093,1,0,0,8.1201,Gabbro_rect,4,0,4,0,1,
6630e9224b174b5c709cd1c2,SCR,2024-06-25_12h40.50.913,LearnStrategy,2023.2.3,Linux x86_64,59.88023952,3,2,6,,,,,,,,6,12,,,,,,,,,,,,,6,3.401,1,,,,,,-0.094019077,-0.421035696,1,0,0,3.4014,Pegmatite_rect,5,0,5,0,1,
6630e9224b174b5c709cd1c2,SCR,2024-06-25_12h40.50.913,LearnStrategy,2023.2.3,Linux x86_64,59.88023952,3,2,7,,,,,,,,7,08,,,,,,,,,,,,,7,13.12,1,,,,,,0.066323174,-0.410017579,1,0,0,13.12,Peridotite_rect,6,0,6,0,1,
6630e9224b174b5c709cd1c2,SCR,2024-06-25_12h40.50.913,LearnStrategy,2023.2.3,Linux x86_64,59.88023952,3,2,8,,,,,,,,1,03,,,,,,,,,,,,,2,7.461,0,,,,,,-0.05114188,-0.271796262,1,0,0,7.4605,Basalt_rect,7,0,7,0,1,
6630e9224b174b5c709cd1c2,SCR,2024-06-25_12h40.50.913,LearnStrategy,2023.2.3,Linux x86_64,59.88023952,3,2,9,,,,,,,,4,12,,,,,,,,,,,,,4,19.908,1,,,,,,0.337836795,-0.254641286,1,0,0,19.908,Gabbro_rect,8,0,8,0,1,
6630e9224b174b5c709cd1c2,SCR,2024-06-25_12h40.50.913,LearnStrategy,2023.2.3,Linux x86_64,59.88023952,3,2,10,,,,,,,,3,14,,,,,,,,,,,,,3,7.973,1,,,,,,0.166057445,-0.260163696,1,0,0,7.9734,Diorite_rect,9,0,9,0,1,
6630e9224b174b5c709cd1c2,SCR,2024-06-25_12h40.50.913,LearnStrategy,2023.2.3,Linux x86_64,59.88023952,3,2,11,,,,,,,,1,06,,,,,,,,,,,,,7,4.833,0,,,,,,0.133334125,-0.396905899,1,0,0,4.8334,Peridotite_rect,10,0,10,0,1,
6630e9224b174b5c709cd1c2,SCR,2024-06-25_12h40.50.913,LearnStrategy,2023.2.3,Linux x86_64,59.88023952,3,2,12,,,,,,,,8,09,,,,,,,,,,,,,8,1.253,1,,,,,,0.455854487,-0.401705141,1,0,0,1.253,Pumice_rect,11,0,11,0,1,
6630e9224b174b5c709cd1c2,SCR,2024-06-25_12h40.50.913,LearnStrategy,2023.2.3,Linux x86_64,59.88023952,3,2,13,,,,,,,,6,13,,,,,,,,,,,,,6,33.68,1,,,,,,-0.059762107,-0.419987219,1,0,0,33.6795,Pegmatite_rect,12,0,12,0,1,
6630e9224b174b5c709cd1c2,SCR,2024-06-25_12h40.50.913,LearnStrategy,2023.2.3,Linux x86_64,59.88023952,3,2,14,,,,,,,,8,08,,,,,,,,,,,,,8,1.579,1,,,,,,0.350504981,-0.379028532,1,0,0,1.5793,Pumice_rect,13,0,13,0,1,
6630e9224b174b5c709cd1c2,SCR,2024-06-25_12h40.50.913,LearnStrategy,2023.2.3,Linux x86_64,59.88023952,3,2,15,,,,,,,,7,04,,,,,,,,,,,,,3,10.823,0,,,,,,0.084348255,-0.250905143,1,0,0,10.8232,Diorite_rect,14,0,14,0,1,
6630e9224b174b5c709cd1c2,SCR,2024-06-25_12h40.50.913,LearnStrategy,2023.2.3,Linux x86_64,59.88023952,3,2,16,,,,,,,,2,09,,,,,,,,,,,,,2,2.086,1,,,,,,-0.143566414,-0.249513555,1,0,0,2.0859,Basalt_rect,15,0,15,0,1,
6630e9224b174b5c709cd1c2,SCR,2024-06-25_12h40.50.913,LearnStrategy,2023.2.3,Linux x86_64,59.88023952,4,1,1,-0.068433762,-0.237723739,1,0,0,2.7172,Andesite_09,1,09,2,4,2.717,2,02,-0.37229485,-0.2415289,1,0,0,1.545,Andesite_rect,1,1.545,1,0,0,0,0,1,,,,,,,,,,,,,
6630e9224b174b5c709cd1c2,SCR,2024-06-25_12h40.50.913,LearnStrategy,2023.2.3,Linux x86_64,59.88023952,4,1,2,-0.357200375,0.229531465,1,0,0,1.7481,Pegmatite_06,6,06,5,2,1.748,2,02,-0.089549806,-0.393118964,1,0,0,8.8683,Pegmatite_rect,6,8.868,1,1,0,1,0,1,,,,,,,,,,,,,
6630e9224b174b5c709cd1c2,SCR,2024-06-25_12h40.50.913,LearnStrategy,2023.2.3,Linux x86_64,59.88023952,4,1,3,0.381945716,0.408399096,1,0,0,4.1133,Basalt_01,2,01,6,7,4.113,5,02,-0.150591603,-0.266407084,1,0,0,1.9027,Basalt_rect,2,1.903,1,2,0,2,0,1,,,,,,,,,,,,,
6630e9224b174b5c709cd1c2,SCR,2024-06-25_12h40.50.913,LearnStrategy,2023.2.3,Linux x86_64,59.88023952,4,1,4,0.076845452,0.130870784,1,0,0,1.5006,Basalt_02,2,02,4,5,1.501,1,02,-0.150946935,-0.240930557,1,0,0,1.8827,Basalt_rect,2,1.883,1,3,0,3,0,1,,,,,,,,,,,,,
6630e9224b174b5c709cd1c2,SCR,2024-06-25_12h40.50.913,LearnStrategy,2023.2.3,Linux x86_64,59.88023952,4,1,5,-0.048864294,-0.244791031,1,0,0,2.5443,Andesite_09,1,09,2,4,2.544,8,05,-0.048864294,-0.245958823,1,0,0,0.7864,Basalt_rect,2,0.786,0,4,0,4,0,1,,,,,,,,,,,,,
6630e9224b174b5c709cd1c2,SCR,2024-06-25_12h40.50.913,LearnStrategy,2023.2.3,Linux x86_64,59.88023952,4,1,6,0.030289968,0.089827114,1,0,0,1.1308,Basalt_02,2,02,4,5,1.131,7,02,-0.332377116,-0.249265247,1,0,0,1.3839,Andesite_rect,1,1.384,0,5,0,5,0,1,,,,,,,,,,,,,
6630e9224b174b5c709cd1c2,SCR,2024-06-25_12h40.50.913,LearnStrategy,2023.2.3,Linux x86_64,59.88023952,4,1,7,0.272961864,0.256357458,1,0,0,1.3308,Gabbro_03,4,03,5,6,1.331,1,01,-0.150423756,-0.260784008,1,0,0,1.3834,Basalt_rect,2,1.383,0,6,0,6,0,1,,,,,,,,,,,,,
6630e9224b174b5c709cd1c2,SCR,2024-06-25_12h40.50.913,LearnStrategy,2023.2.3,Linux x86_64,59.88023952,4,1,8,-0.560258689,0.142930525,1,0,0,1.4814,Andesite_05,1,05,4,1,1.481,6,03,0.120273166,-0.271872909,1,0,0,2.7708,Diorite_rect,3,2.771,0,7,0,7,0,1,,,,,,,,,,,,,
6630e9224b174b5c709cd1c2,SCR,2024-06-25_12h40.50.913,LearnStrategy,2023.2.3,Linux x86_64,59.88023952,4,1,9,0.394783868,0.089395912,1,0,0,1.7635,Diorite_08,3,08,4,7,1.764,7,07,0.21798699,-0.238460046,1,0,0,1.6524,Diorite_rect,3,1.652,1,8,0,8,0,1,,,,,,,,,,,,,
6630e9224b174b5c709cd1c2,SCR,2024-06-25_12h40.50.913,LearnStrategy,2023.2.3,Linux x86_64,59.88023952,4,1,10,-0.247173521,-0.285409504,1,0,0,1.8803,Andesite_02,1,02,2,3,1.88,7,05,-0.340305682,-0.24864995,1,0,0,3.5426,Andesite_rect,1,3.543,1,9,0,9,0,1,,,,,,,,,,,,,
6630e9224b174b5c709cd1c2,SCR,2024-06-25_12h40.50.913,LearnStrategy,2023.2.3,Linux x86_64,59.88023952,4,1,11,0.223896874,-0.137402782,1,0,0,1.262,Peridotite_07,7,07,3,6,1.262,4,13,0.153568621,-0.262193539,1,0,0,1.7034,Diorite_rect,3,1.703,0,10,0,10,0,1,,,,,,,,,,,,,
6630e9224b174b5c709cd1c2,SCR,2024-06-25_12h40.50.913,LearnStrategy,2023.2.3,Linux x86_64,59.88023952,4,1,12,0.599560349,-0.131942749,1,0,0,1.431,Peridotite_05,7,05,3,8,1.431,1,11,0.423056002,-0.270601414,1,0,0,3.1189,Gabbro_rect,4,3.119,0,11,0,11,0,1,,,,,,,,,,,,,
6630e9224b174b5c709cd1c2,SCR,2024-06-25_12h40.50.913,LearnStrategy,2023.2.3,Linux x86_64,59.88023952,4,1,13,0.542457722,-0.419388171,1,0,0,1.4148,Pegmatite_07,6,07,1,8,1.415,4,09,-0.115090123,-0.421742121,1,0,0,2.1066,Pegmatite_rect,6,2.107,1,12,0,12,0,1,,,,,,,,,,,,,
6630e9224b174b5c709cd1c2,SCR,2024-06-25_12h40.50.913,LearnStrategy,2023.2.3,Linux x86_64,59.88023952,4,1,14,0.057443054,-0.447546147,1,0,0,1.1295,Diorite_12,3,12,1,5,1.13,4,01,0.087603534,-0.228658394,1,0,0,1.5795,Diorite_rect,3,1.58,1,13,0,13,0,1,,,,,,,,,,,,,
6630e9224b174b5c709cd1c2,SCR,2024-06-25_12h40.50.913,LearnStrategy,2023.2.3,Linux x86_64,59.88023952,4,1,15,-0.25537512,-0.417935054,1,0,0,0.9478,Gabbro_14,4,14,1,3,0.948,1,11,0.114386029,-0.41114461,1,0,0,3.0393,Peridotite_rect,7,3.039,0,14,0,14,0,1,,,,,,,,,,,,,
6630e9224b174b5c709cd1c2,SCR,2024-06-25_12h40.50.913,LearnStrategy,2023.2.3,Linux x86_64,59.88023952,4,1,16,-0.387428743,0.113905836,1,0,0,3.649,Gabbro_09,4,09,4,2,3.649,3,09,-0.350979946,-0.230741077,1,0,0,3.5952,Andesite_rect,1,3.595,0,15,0,15,0,1,,,,,,,,,,,,,
6630e9224b174b5c709cd1c2,SCR,2024-06-25_12h40.50.913,LearnStrategy,2023.2.3,Linux x86_64,59.88023952,4,2,1,,,,,,,,8,02,,,,,,,,,,,,,8,2.329,1,,,,,,0.41983993,-0.404263814,1,0,0,2.3288,Pumice_rect,0,0,0,0,1,
6630e9224b174b5c709cd1c2,SCR,2024-06-25_12h40.50.913,LearnStrategy,2023.2.3,Linux x86_64,59.88023952,4,2,2,,,,,,,,3,14,,,,,,,,,,,,,3,6.063,1,,,,,,0.181030203,-0.245271683,1,0,0,6.0631,Diorite_rect,1,0,1,0,1,
6630e9224b174b5c709cd1c2,SCR,2024-06-25_12h40.50.913,LearnStrategy,2023.2.3,Linux x86_64,59.88023952,4,2,3,,,,,,,,4,16,,,,,,,,,,,,,1,9.906,0,,,,,,-0.42872171,-0.237090146,1,0,0,9.9061,Andesite_rect,2,0,2,0,1,
6630e9224b174b5c709cd1c2,SCR,2024-06-25_12h40.50.913,LearnStrategy,2023.2.3,Linux x86_64,59.88023952,4,2,4,,,,,,,,5,04,,,,,,,,,,,,,5,2.978,1,,,,,,-0.355174241,-0.391531203,1,0,0,2.9777,Obsidian_rect,3,0,3,0,1,
6630e9224b174b5c709cd1c2,SCR,2024-06-25_12h40.50.913,LearnStrategy,2023.2.3,Linux x86_64,59.88023952,4,2,5,,,,,,,,4,15,,,,,,,,,,,,,7,11.952,0,,,,,,0.107673151,-0.404195644,1,0,0,11.9517,Peridotite_rect,4,0,4,0,1,
6630e9224b174b5c709cd1c2,SCR,2024-06-25_12h40.50.913,LearnStrategy,2023.2.3,Linux x86_64,59.88023952,4,2,6,,,,,,,,6,11,,,,,,,,,,,,,6,4.796,1,,,,,,-0.132477584,-0.404533881,1,0,0,4.7957,Pegmatite_rect,5,0,5,0,1,
6630e9224b174b5c709cd1c2,SCR,2024-06-25_12h40.50.913,LearnStrategy,2023.2.3,Linux x86_64,59.88023952,4,2,7,,,,,,,,6,10,,,,,,,,,,,,,6,5.239,1,,,,,,-0.129975213,-0.411874418,1,0,0,5.2387,Pegmatite_rect,6,0,6,0,1,
6630e9224b174b5c709cd1c2,SCR,2024-06-25_12h40.50.913,LearnStrategy,2023.2.3,Linux x86_64,59.88023952,4,2,8,,,,,,,,7,08,,,,,,,,,,,,,4,4.137,0,,,,,,0.344276711,-0.231297458,1,0,0,4.1369,Gabbro_rect,7,0,7,0,1,
6630e9224b174b5c709cd1c2,SCR,2024-06-25_12h40.50.913,LearnStrategy,2023.2.3,Linux x86_64,59.88023952,4,2,9,,,,,,,,1,04,,,,,,,,,,,,,1,30.361,1,,,,,,-0.420362932,-0.249820073,1,0,0,30.3615,Andesite_rect,8,0,8,0,1,
6630e9224b174b5c709cd1c2,SCR,2024-06-25_12h40.50.913,LearnStrategy,2023.2.3,Linux x86_64,59.88023952,4,2,10,,,,,,,,2,11,,,,,,,,,,,,,8,2.066,0,,,,,,0.361482973,-0.408850211,1,0,0,2.0665,Pumice_rect,9,0,9,0,1,
6630e9224b174b5c709cd1c2,SCR,2024-06-25_12h40.50.913,LearnStrategy,2023.2.3,Linux x86_64,59.88023952,4,2,11,,,,,,,,3,02,,,,,,,,,,,,,3,4.705,1,,,,,,0.095887855,-0.253832994,1,0,0,4.7046,Diorite_rect,10,0,10,0,1,
6630e9224b174b5c709cd1c2,SCR,2024-06-25_12h40.50.913,LearnStrategy,2023.2.3,Linux x86_64,59.88023952,4,2,12,,,,,,,,2,16,,,,,,,,,,,,,4,38.661,0,,,,,,0.404658989,-0.253316738,1,0,0,38.6609,Gabbro_rect,11,0,11,0,1,
6630e9224b174b5c709cd1c2,SCR,2024-06-25_12h40.50.913,LearnStrategy,2023.2.3,Linux x86_64,59.88023952,4,2,13,,,,,,,,7,06,,,,,,,,,,,,,7,9.501,1,,,,,,0.095871113,-0.420416867,1,0,0,9.5006,Peridotite_rect,12,0,12,0,1,
6630e9224b174b5c709cd1c2,SCR,2024-06-25_12h40.50.913,LearnStrategy,2023.2.3,Linux x86_64,59.88023952,4,2,14,,,,,,,,1,14,,,,,,,,,,,,,1,5.709,1,,,,,,-0.38588425,-0.249701253,1,0,0,5.7092,Andesite_rect,13,0,13,0,1,
6630e9224b174b5c709cd1c2,SCR,2024-06-25_12h40.50.913,LearnStrategy,2023.2.3,Linux x86_64,59.88023952,4,2,15,,,,,,,,8,03,,,,,,,,,,,,,8,1.874,1,,,,,,0.388381958,-0.390479264,1,0,0,1.8737,Pumice_rect,14,0,14,0,1,
6630e9224b174b5c709cd1c2,SCR,2024-06-25_12h40.50.913,LearnStrategy,2023.2.3,Linux x86_64,59.88023952,4,2,16,,,,,,,,5,07,,,,,,,,,,,,,5,1.347,1,,,,,,-0.321354654,-0.398005662,1,0,0,1.3467,Obsidian_rect,15,0,15,0,1,
6630e9224b174b5c709cd1c2,SCR,2024-06-25_12h40.50.913,LearnStrategy,2023.2.3,Linux x86_64,59.88023952,5,1,1,-0.067904437,-0.138358363,1,0,0,1.9644,Basalt_12,2,12,3,4,1.964,7,12,0.39561533,-0.396064193,1,0,0,1.4869,Pumice_rect,8,1.487,0,0,0,0,0,1,,,,,,,,,,,,,
6630e9224b174b5c709cd1c2,SCR,2024-06-25_12h40.50.913,LearnStrategy,2023.2.3,Linux x86_64,59.88023952,5,1,2,0.048399678,-0.08361389,1,0,0,1.1977,Diorite_13,3,13,3,5,1.198,4,11,0.137391479,-0.244669808,1,0,0,2.1828,Diorite_rect,3,2.183,1,1,0,1,0,1,,,,,,,,,,,,,
6630e9224b174b5c709cd1c2,SCR,2024-06-25_12h40.50.913,LearnStrategy,2023.2.3,Linux x86_64,59.88023952,5,1,3,0.554174918,-0.294449206,1,0,0,1.866,Andesite_16,1,16,2,8,1.866,8,14,-0.36913508,-0.233314726,1,0,0,3.551,Andesite_rect,1,3.551,1,2,0,2,0,1,,,,,,,,,,,,,
6630e9224b174b5c709cd1c2,SCR,2024-06-25_12h40.50.913,LearnStrategy,2023.2.3,Linux x86_64,59.88023952,5,1,4,0.506378456,-0.090192124,1,0,0,1.2804,Peridotite_05,7,05,3,8,1.28,1,09,0.405904134,-0.238466263,1,0,0,1.4011,Gabbro_rect,4,1.401,0,3,0,3,0,1,,,,,,,,,,,,,
6630e9224b174b5c709cd1c2,SCR,2024-06-25_12h40.50.913,LearnStrategy,2023.2.3,Linux x86_64,59.88023952,5,1,5,0.532191383,0.074706925,1,0,0,1.9639,Andesite_01,1,01,4,8,1.964,1,11,-0.404392984,-0.233037807,1,0,0,4.104,Andesite_rect,1,4.104,1,4,0,4,0,1,,,,,,,,,,,,,
6630e9224b174b5c709cd1c2,SCR,2024-06-25_12h40.50.913,LearnStrategy,2023.2.3,Linux x86_64,59.88023952,5,1,6,0.398189827,0.064862039,1,0,0,1.6139,Diorite_08,3,08,4,7,1.614,5,02,0.168763549,-0.268078981,1,0,0,2.6673,Diorite_rect,3,2.667,1,5,0,5,0,1,,,,,,,,,,,,,
6630e9224b174b5c709cd1c2,SCR,2024-06-25_12h40.50.913,LearnStrategy,2023.2.3,Linux x86_64,59.88023952,5,1,7,-0.217834543,-0.285048803,1,0,0,1.2653,Andesite_02,1,02,2,3,1.265,2,05,0.331125471,-0.268905569,1,0,0,1.7895,Gabbro_rect,4,1.79,0,6,0,6,0,1,,,,,,,,,,,,,
6630e9224b174b5c709cd1c2,SCR,2024-06-25_12h40.50.913,LearnStrategy,2023.2.3,Linux x86_64,59.88023952,5,1,8,-0.379318273,-0.396365272,1,0,0,1.6305,Pumice_16,8,16,1,2,1.63,2,05,0.317248733,-0.387895725,1,0,0,3.0681,Pumice_rect,8,3.068,1,7,0,7,0,1,,,,,,,,,,,,,
6630e9224b174b5c709cd1c2,SCR,2024-06-25_12h40.50.913,LearnStrategy,2023.2.3,Linux x86_64,59.88023952,5,1,9,0.07667372,0.12876274,1,0,0,0.9804,Basalt_02,2,02,4,5,0.98,1,16,-0.143908748,-0.242813181,1,0,0,1.6738,Basalt_rect,2,1.674,1,8,0,8,0,1,,,,,,,,,,,,,
6630e9224b174b5c709cd1c2,SCR,2024-06-25_12h40.50.913,LearnStrategy,2023.2.3,Linux x86_64,59.88023952,5,1,10,-0.583417928,0.264849786,1,0,0,3.3475,Andesite_11,1,11,5,1,3.347,4,03,-0.353366181,-0.247252994,1,0,0,2.2674,Andesite_rect,1,2.267,1,9,0,9,0,1,,,,,,,,,,,,,
6630e9224b174b5c709cd1c2,SCR,2024-06-25_12h40.50.913,LearnStrategy,2023.2.3,Linux x86_64,59.88023952,5,1,11,-0.098386482,-0.401117325,1,0,0,1.581,Gabbro_11,4,11,1,4,1.581,2,14,-0.152597851,-0.228773117,1,0,0,1.3678,Basalt_rect,2,1.368,0,10,0,10,0,1,,,,,,,,,,,,,
6630e9224b174b5c709cd1c2,SCR,2024-06-25_12h40.50.913,LearnStrategy,2023.2.3,Linux x86_64,59.88023952,5,1,12,0.188017033,-0.394723045,1,0,0,2.2807,Basalt_06,2,06,1,6,2.281,6,15,-0.168743769,-0.237771423,1,0,0,1.1536,Basalt_rect,2,1.154,1,11,0,11,0,1,,,,,,,,,,,,,
6630e9224b174b5c709cd1c2,SCR,2024-06-25_12h40.50.913,LearnStrategy,2023.2.3,Linux x86_64,59.88023952,5,1,13,-0.399487813,0.05821175,1,0,0,3.8631,Gabbro_09,4,09,4,2,3.863,7,12,-0.362707173,-0.264968095,1,0,0,1.8605,Andesite_rect,1,1.861,0,12,0,12,0,1,,,,,,,,,,,,,
6630e9224b174b5c709cd1c2,SCR,2024-06-25_12h40.50.913,LearnStrategy,2023.2.3,Linux x86_64,59.88023952,5,1,14,-0.517312544,0.101980739,1,0,0,1.4104,Andesite_05,1,05,4,1,1.41,4,14,0.10008374,-0.255373496,1,0,0,1.2582,Diorite_rect,3,1.258,0,13,0,13,0,1,,,,,,,,,,,,,
6630e9224b174b5c709cd1c2,SCR,2024-06-25_12h40.50.913,LearnStrategy,2023.2.3,Linux x86_64,59.88023952,5,1,15,0.207608046,0.250926601,1,0,0,2.0464,Gabbro_03,4,03,5,6,2.046,7,07,-0.360048365,-0.243284084,1,0,0,2.1487,Andesite_rect,1,2.149,0,14,0,14,0,1,,,,,,,,,,,,,
6630e9224b174b5c709cd1c2,SCR,2024-06-25_12h40.50.913,LearnStrategy,2023.2.3,Linux x86_64,59.88023952,5,1,16,-0.525271698,0.268093763,1,0,0,1.4312,Andesite_11,1,11,5,1,1.431,3,12,0.326069585,-0.25471108,1,0,0,2.611,Gabbro_rect,4,2.611,0,15,0,15,0,1,,,,,,,,,,,,,
6630e9224b174b5c709cd1c2,SCR,2024-06-25_12h40.50.913,LearnStrategy,2023.2.3,Linux x86_64,59.88023952,5,2,1,,,,,,,,4,10,,,,,,,,,,,,,4,17.711,1,,,,,,0.317520565,-0.257393307,1,0,0,17.7105,Gabbro_rect,0,0,0,0,1,
6630e9224b174b5c709cd1c2,SCR,2024-06-25_12h40.50.913,LearnStrategy,2023.2.3,Linux x86_64,59.88023952,5,2,2,,,,,,,,4,12,,,,,,,,,,,,,4,24.888,1,,,,,,0.433975926,-0.24427308,1,0,0,24.8876,Gabbro_rect,1,0,1,0,1,
6630e9224b174b5c709cd1c2,SCR,2024-06-25_12h40.50.913,LearnStrategy,2023.2.3,Linux x86_64,59.88023952,5,2,3,,,,,,,,5,11,,,,,,,,,,,,,5,1.439,1,,,,,,-0.347636682,-0.383868323,1,0,0,1.4388,Obsidian_rect,2,0,2,0,1,
6630e9224b174b5c709cd1c2,SCR,2024-06-25_12h40.50.913,LearnStrategy,2023.2.3,Linux x86_64,59.88023952,5,2,4,,,,,,,,6,16,,,,,,,,,,,,,6,1.504,1,,,,,,-0.147925765,-0.398227338,1,0,0,1.504,Pegmatite_rect,3,0,3,0,1,
6630e9224b174b5c709cd1c2,SCR,2024-06-25_12h40.50.913,LearnStrategy,2023.2.3,Linux x86_64,59.88023952,5,2,5,,,,,,,,2,04,,,,,,,,,,,,,2,1.874,1,,,,,,-0.122963022,-0.24339796,1,0,0,1.8743,Basalt_rect,4,0,4,0,1,
6630e9224b174b5c709cd1c2,SCR,2024-06-25_12h40.50.913,LearnStrategy,2023.2.3,Linux x86_64,59.88023952,5,2,6,,,,,,,,8,08,,,,,,,,,,,,,8,1.798,1,,,,,,0.347154264,-0.404700315,1,0,0,1.7985,Pumice_rect,5,0,5,0,1,
6630e9224b174b5c709cd1c2,SCR,2024-06-25_12h40.50.913,LearnStrategy,2023.2.3,Linux x86_64,59.88023952,5,2,7,,,,,,,,3,15,,,,,,,,,,,,,3,8.18,1,,,,,,0.16301586,-0.260012167,1,0,0,8.1802,Diorite_rect,6,0,6,0,1,
6630e9224b174b5c709cd1c2,SCR,2024-06-25_12h40.50.913,LearnStrategy,2023.2.3,Linux x86_64,59.88023952,5,2,8,,,,,,,,3,06,,,,,,,,,,,,,7,39.7,0,,,,,,0.168844718,-0.399071022,1,0,0,39.7005,Peridotite_rect,7,0,7,0,1,
6630e9224b174b5c709cd1c2,SCR,2024-06-25_12h40.50.913,LearnStrategy,2023.2.3,Linux x86_64,59.88023952,5,2,9,,,,,,,,2,08,,,,,,,,,,,,,2,1.645,1,,,,,,-0.081709473,-0.260787328,1,0,0,1.6451,Basalt_rect,8,0,8,0,1,
6630e9224b174b5c709cd1c2,SCR,2024-06-25_12h40.50.913,LearnStrategy,2023.2.3,Linux x86_64,59.88023952,5,2,10,,,,,,,,6,08,,,,,,,,,,,,,6,1.188,1,,,,,,-0.08765037,-0.395283099,1,0,0,1.1885,Pegmatite_rect,9,0,9,0,1,
6630e9224b174b5c709cd1c2,SCR,2024-06-25_12h40.50.913,LearnStrategy,2023.2.3,Linux x86_64,59.88023952,5,2,11,,,,,,,,8,09,,,,,,,,,,,,,8,2.021,1,,,,,,0.454961282,-0.411627875,1,0,0,2.0206,Pumice_rect,10,0,10,0,1,
6630e9224b174b5c709cd1c2,SCR,2024-06-25_12h40.50.913,LearnStrategy,2023.2.3,Linux x86_64,59.88023952,5,2,12,,,,,,,,7,16,,,,,,,,,,,,,4,13.031,0,,,,,,0.379618751,-0.246187351,1,0,0,13.0308,Gabbro_rect,11,0,11,0,1,
6630e9224b174b5c709cd1c2,SCR,2024-06-25_12h40.50.913,LearnStrategy,2023.2.3,Linux x86_64,59.88023952,5,2,13,,,,,,,,1,06,,,,,,,,,,,,,1,5.811,1,,,,,,-0.33099397,-0.249364994,1,0,0,5.8108,Andesite_rect,12,0,12,0,1,
6630e9224b174b5c709cd1c2,SCR,2024-06-25_12h40.50.913,LearnStrategy,2023.2.3,Linux x86_64,59.88023952,5,2,14,,,,,,,,1,10,,,,,,,,,,,,,4,44.282,0,,,,,,0.335660581,-0.245003524,1,0,0,44.282,Gabbro_rect,13,0,13,0,1,
6630e9224b174b5c709cd1c2,SCR,2024-06-25_12h40.50.913,LearnStrategy,2023.2.3,Linux x86_64,59.88023952,5,2,15,,,,,,,,5,16,,,,,,,,,,,,,5,2.957,1,,,,,,-0.349245813,-0.389387978,1,0,0,2.9568,Obsidian_rect,14,0,14,0,1,
6630e9224b174b5c709cd1c2,SCR,2024-06-25_12h40.50.913,LearnStrategy,2023.2.3,Linux x86_64,59.88023952,5,2,16,,,,,,,,7,15,,,,,,,,,,,,,7,6.388,1,,,,,,0.135045935,-0.407565082,1,0,0,6.3878,Peridotite_rect,15,0,15,0,1,
6630e9224b174b5c709cd1c2,SCR,2024-06-25_12h40.50.913,LearnStrategy,2023.2.3,Linux x86_64,59.88023952,6,1,1,-0.098758627,0.068763768,1,0,0,1.7606,Diorite_07,3,07,4,4,1.761,2,14,0.105277097,-0.379384288,1,0,0,1.1499,Peridotite_rect,7,1.15,0,0,0,0,0,1,,,,,,,,,,,,,
6630e9224b174b5c709cd1c2,SCR,2024-06-25_12h40.50.913,LearnStrategy,2023.2.3,Linux x86_64,59.88023952,6,1,2,-0.356637001,0.209556668,1,0,0,1.8475,Pegmatite_06,6,06,5,2,1.848,7,12,-0.144433551,-0.404566164,1,0,0,1.5504,Pegmatite_rect,6,1.55,1,1,0,1,0,1,,,,,,,,,,,,,
6630e9224b174b5c709cd1c2,SCR,2024-06-25_12h40.50.913,LearnStrategy,2023.2.3,Linux x86_64,59.88023952,6,1,3,-0.108670341,0.202335993,1,0,0,1.7644,Peridotite_14,7,14,5,4,1.764,4,14,0.449017419,-0.263745979,1,0,0,2.6567,Gabbro_rect,4,2.657,0,2,0,2,0,1,,,,,,,,,,,,,
6630e9224b174b5c709cd1c2,SCR,2024-06-25_12h40.50.913,LearnStrategy,2023.2.3,Linux x86_64,59.88023952,6,1,4,0.208149027,0.225177359,1,0,0,1.8644,Gabbro_03,4,03,5,6,1.864,7,05,-0.307008355,-0.24365743,1,0,0,1.2558,Andesite_rect,1,1.256,0,3,0,3,0,1,,,,,,,,,,,,,
6630e9224b174b5c709cd1c2,SCR,2024-06-25_12h40.50.913,LearnStrategy,2023.2.3,Linux x86_64,59.88023952,6,1,5,-0.04741478,-0.277459745,1,0,0,2.3163,Andesite_09,1,09,2,4,2.316,3,09,-0.317163644,-0.233836704,1,0,0,1.2131,Andesite_rect,1,1.213,1,4,0,4,0,1,,,,,,,,,,,,,
6630e9224b174b5c709cd1c2,SCR,2024-06-25_12h40.50.913,LearnStrategy,2023.2.3,Linux x86_64,59.88023952,6,1,6,0.51634951,0.237430714,1,0,0,1.4626,Diorite_11,3,11,5,8,1.463,4,14,0.4174289,-0.256395834,1,0,0,1.4018,Gabbro_rect,4,1.402,0,5,0,5,0,1,,,,,,,,,,,,,
6630e9224b174b5c709cd1c2,SCR,2024-06-25_12h40.50.913,LearnStrategy,2023.2.3,Linux x86_64,59.88023952,6,1,7,0.237199501,-0.23116578,1,0,0,1.4969,Pegmatite_03,6,03,2,6,1.497,6,09,-0.152422799,-0.406723517,1,0,0,1.2743,Pegmatite_rect,6,1.274,1,6,0,6,0,1,,,,,,,,,,,,,
6630e9224b174b5c709cd1c2,SCR,2024-06-25_12h40.50.913,LearnStrategy,2023.2.3,Linux x86_64,59.88023952,6,1,8,-0.241469842,-0.433605618,1,0,0,1.1303,Gabbro_14,4,14,1,3,1.13,1,16,0.33326806,-0.258036013,1,0,0,1.5793,Gabbro_rect,4,1.579,1,7,0,7,0,1,,,,,,,,,,,,,
6630e9224b174b5c709cd1c2,SCR,2024-06-25_12h40.50.913,LearnStrategy,2023.2.3,Linux x86_64,59.88023952,6,1,9,-0.24938103,0.099957678,1,0,0,1.9976,Gabbro_13,4,13,4,3,1.998,1,09,0.353498106,-0.242826321,1,0,0,1.885,Gabbro_rect,4,1.885,1,8,0,8,0,1,,,,,,,,,,,,,
6630e9224b174b5c709cd1c2,SCR,2024-06-25_12h40.50.913,LearnStrategy,2023.2.3,Linux x86_64,59.88023952,6,1,10,-0.04153294,0.376783892,1,0,0,3.4016,Diorite_09,3,09,6,4,3.402,7,02,0.176556199,-0.267583988,1,0,0,1.9667,Diorite_rect,3,1.967,1,9,0,9,0,1,,,,,,,,,,,,,
6630e9224b174b5c709cd1c2,SCR,2024-06-25_12h40.50.913,LearnStrategy,2023.2.3,Linux x86_64,59.88023952,6,1,11,-0.203138917,-0.408517414,1,0,0,2.3971,Gabbro_14,4,14,1,3,2.397,2,05,0.403851827,-0.258690375,1,0,0,1.2943,Gabbro_rect,4,1.294,1,10,0,10,0,1,,,,,,,,,,,,,
6630e9224b174b5c709cd1c2,SCR,2024-06-25_12h40.50.913,LearnStrategy,2023.2.3,Linux x86_64,59.88023952,6,1,12,0.566870089,0.067912349,1,0,0,1.1807,Andesite_01,1,01,4,8,1.181,4,03,-0.350534898,-0.250921956,1,0,0,4.074,Andesite_rect,1,4.074,1,11,0,11,0,1,,,,,,,,,,,,,
6630e9224b174b5c709cd1c2,SCR,2024-06-25_12h40.50.913,LearnStrategy,2023.2.3,Linux x86_64,59.88023952,6,1,13,0.235447001,-0.44360288,1,0,0,2.3635,Basalt_06,2,06,1,6,2.363,5,05,-0.100204821,-0.26481254,1,0,0,2.7752,Basalt_rect,2,2.775,1,12,0,12,0,1,,,,,,,,,,,,,
6630e9224b174b5c709cd1c2,SCR,2024-06-25_12h40.50.913,LearnStrategy,2023.2.3,Linux x86_64,59.88023952,6,1,14,-0.215041408,-0.439158051,1,0,0,1.2311,Gabbro_14,4,14,1,3,1.231,3,09,0.366009041,-0.252134182,1,0,0,1.8399,Gabbro_rect,4,1.84,1,13,0,13,0,1,,,,,,,,,,,,,
6630e9224b174b5c709cd1c2,SCR,2024-06-25_12h40.50.913,LearnStrategy,2023.2.3,Linux x86_64,59.88023952,6,1,15,-0.529282676,-0.303515752,1,0,0,2.0141,Basalt_05,2,05,2,1,2.014,1,16,-0.138671734,-0.251691253,1,0,0,2.1254,Basalt_rect,2,2.125,1,14,0,14,0,1,,,,,,,,,,,,,
6630e9224b174b5c709cd1c2,SCR,2024-06-25_12h40.50.913,LearnStrategy,2023.2.3,Linux x86_64,59.88023952,6,1,16,-0.390571312,-0.112540846,1,0,0,1.3329,Pegmatite_15,6,15,3,2,1.333,8,05,-0.090436653,-0.397551572,1,0,0,1.9445,Pegmatite_rect,6,1.945,1,15,0,15,0,1,,,,,,,,,,,,,
6630e9224b174b5c709cd1c2,SCR,2024-06-25_12h40.50.913,LearnStrategy,2023.2.3,Linux x86_64,59.88023952,6,2,1,,,,,,,,4,08,,,,,,,,,,,,,4,37.597,1,,,,,,0.345152537,-0.261188295,1,0,0,37.597,Gabbro_rect,0,0,0,0,1,
6630e9224b174b5c709cd1c2,SCR,2024-06-25_12h40.50.913,LearnStrategy,2023.2.3,Linux x86_64,59.88023952,6,2,2,,,,,,,,6,12,,,,,,,,,,,,,6,2.96,1,,,,,,-0.07093585,-0.390861864,1,0,0,2.9602,Pegmatite_rect,1,0,1,0,1,
6630e9224b174b5c709cd1c2,SCR,2024-06-25_12h40.50.913,LearnStrategy,2023.2.3,Linux x86_64,59.88023952,6,2,3,,,,,,,,3,16,,,,,,,,,,,,,3,15.239,1,,,,,,0.11879815,-0.245148341,1,0,0,15.2394,Diorite_rect,2,0,2,0,1,
6630e9224b174b5c709cd1c2,SCR,2024-06-25_12h40.50.913,LearnStrategy,2023.2.3,Linux x86_64,59.88023952,6,2,4,,,,,,,,8,04,,,,,,,,,,,,,8,2.549,1,,,,,,0.393040834,-0.404341521,1,0,0,2.5494,Pumice_rect,3,0,3,0,1,
6630e9224b174b5c709cd1c2,SCR,2024-06-25_12h40.50.913,LearnStrategy,2023.2.3,Linux x86_64,59.88023952,6,2,5,,,,,,,,2,10,,,,,,,,,,,,,2,7.233,1,,,,,,-0.143317682,-0.243883204,1,0,0,7.233,Basalt_rect,4,0,4,0,1,
6630e9224b174b5c709cd1c2,SCR,2024-06-25_12h40.50.913,LearnStrategy,2023.2.3,Linux x86_64,59.88023952,6,2,6,,,,,,,,6,13,,,,,,,,,,,,,6,8.347,1,,,,,,-0.070780648,-0.406310117,1,0,0,8.347,Pegmatite_rect,5,0,5,0,1,
6630e9224b174b5c709cd1c2,SCR,2024-06-25_12h40.50.913,LearnStrategy,2023.2.3,Linux x86_64,59.88023952,6,2,7,,,,,,,,4,05,,,,,,,,,,,,,4,15.458,1,,,,,,0.319915065,-0.250534623,1,0,0,15.4582,Gabbro_rect,6,0,6,0,1,
6630e9224b174b5c709cd1c2,SCR,2024-06-25_12h40.50.913,LearnStrategy,2023.2.3,Linux x86_64,59.88023952,6,2,8,,,,,,,,5,09,,,,,,,,,,,,,5,1.346,1,,,,,,-0.339418411,-0.406480507,1,0,0,1.3459,Obsidian_rect,7,0,7,0,1,
6630e9224b174b5c709cd1c2,SCR,2024-06-25_12h40.50.913,LearnStrategy,2023.2.3,Linux x86_64,59.88023952,6,2,9,,,,,,,,1,07,,,,,,,,,,,,,3,11.083,0,,,,,,0.090634593,-0.256063179,1,0,0,11.083,Diorite_rect,8,0,8,0,1,
6630e9224b174b5c709cd1c2,SCR,2024-06-25_12h40.50.913,LearnStrategy,2023.2.3,Linux x86_64,59.88023952,6,2,10,,,,,,,,5,06,,,,,,,,,,,,,5,2.013,1,,,,,,-0.46872086,-0.412599069,1,0,0,2.0133,Obsidian_rect,9,0,9,0,1,
6630e9224b174b5c709cd1c2,SCR,2024-06-25_12h40.50.913,LearnStrategy,2023.2.3,Linux x86_64,59.88023952,6,2,11,,,,,,,,1,03,,,,,,,,,,,,,1,5.336,1,,,,,,-0.357770884,-0.228638543,1,0,0,5.3355,Andesite_rect,10,0,10,0,1,
6630e9224b174b5c709cd1c2,SCR,2024-06-25_12h40.50.913,LearnStrategy,2023.2.3,Linux x86_64,59.88023952,6,2,12,,,,,,,,2,09,,,,,,,,,,,,,2,4.629,1,,,,,,-0.094048747,-0.248052173,1,0,0,4.6292,Basalt_rect,11,0,11,0,1,
6630e9224b174b5c709cd1c2,SCR,2024-06-25_12h40.50.913,LearnStrategy,2023.2.3,Linux x86_64,59.88023952,6,2,13,,,,,,,,8,10,,,,,,,,,,,,,8,1.51,1,,,,,,0.474040703,-0.398829919,1,0,0,1.5101,Pumice_rect,12,0,12,0,1,
6630e9224b174b5c709cd1c2,SCR,2024-06-25_12h40.50.913,LearnStrategy,2023.2.3,Linux x86_64,59.88023952,6,2,14,,,,,,,,7,04,,,,,,,,,,,,,6,28.708,0,,,,,,-0.113500524,-0.417006316,1,0,0,28.7079,Pegmatite_rect,13,0,13,0,1,
6630e9224b174b5c709cd1c2,SCR,2024-06-25_12h40.50.913,LearnStrategy,2023.2.3,Linux x86_64,59.88023952,6,2,15,,,,,,,,3,10,,,,,,,,,,,,,4,40.743,0,,,,,,0.420551865,-0.237062737,1,0,0,40.7432,Gabbro_rect,14,0,14,0,1,
6630e9224b174b5c709cd1c2,SCR,2024-06-25_12h40.50.913,LearnStrategy,2023.2.3,Linux x86_64,59.88023952,6,2,16,,,,,,,,7,10,,,,,,,,,,,,,7,4.782,1,,,,,,0.106659289,-0.415297261,1,0,0,4.7816,Peridotite_rect,15,0,15,0,1,
6630e9224b174b5c709cd1c2,SCR,2024-06-25_12h40.50.913,LearnStrategy,2023.2.3,Linux x86_64,59.88023952,7,1,1,0.074110596,-0.094744647,1,0,0,1.5643,Diorite_13,3,13,3,5,1.564,2,12,0.14149468,-0.38465733,1,0,0,1.0496,Peridotite_rect,7,1.05,0,0,0,0,0,1,,,,,,,,,,,,,
6630e9224b174b5c709cd1c2,SCR,2024-06-25_12h40.50.913,LearnStrategy,2023.2.3,Linux x86_64,59.88023952,7,1,2,-0.064622031,0.090848146,1,0,0,1.131,Diorite_07,3,07,4,4,1.131,7,12,0.162154516,-0.270754708,1,0,0,1.2871,Diorite_rect,3,1.287,1,1,0,1,0,1,,,,,,,,,,,,,
6630e9224b174b5c709cd1c2,SCR,2024-06-25_12h40.50.913,LearnStrategy,2023.2.3,Linux x86_64,59.88023952,7,1,3,0.202394274,0.364473537,1,0,0,3.0808,Peridotite_12,7,12,6,6,3.081,4,01,0.094255589,-0.238677343,1,0,0,1.3841,Diorite_rect,3,1.384,0,2,0,2,0,1,,,,,,,,,,,,,
6630e9224b174b5c709cd1c2,SCR,2024-06-25_12h40.50.913,LearnStrategy,2023.2.3,Linux x86_64,59.88023952,7,1,4,0.415319231,-0.097947227,1,0,0,1.8634,Peridotite_02,7,02,3,7,1.863,3,12,0.189971147,-0.242054621,1,0,0,1.4101,Diorite_rect,3,1.41,0,3,0,3,0,1,,,,,,,,,,,,,
6630e9224b174b5c709cd1c2,SCR,2024-06-25_12h40.50.913,LearnStrategy,2023.2.3,Linux x86_64,59.88023952,7,1,5,0.111636692,-0.386479908,1,0,0,1.1634,Diorite_12,3,12,1,5,1.163,5,12,0.113304986,-0.392485795,1,0,0,1.5972,Peridotite_rect,7,1.597,0,4,0,4,0,1,,,,,,,,,,,,,
6630e9224b174b5c709cd1c2,SCR,2024-06-25_12h40.50.913,LearnStrategy,2023.2.3,Linux x86_64,59.88023952,7,1,6,-0.05039865,0.085969925,1,0,0,3.7335,Diorite_07,3,07,4,4,3.734,1,02,0.134820938,-0.251221975,1,0,0,1.5863,Diorite_rect,3,1.586,1,5,0,5,0,1,,,,,,,,,,,,,
6630e9224b174b5c709cd1c2,SCR,2024-06-25_12h40.50.913,LearnStrategy,2023.2.3,Linux x86_64,59.88023952,7,1,7,0.383211772,-0.093269278,1,0,0,1.0475,Peridotite_02,7,02,3,7,1.047,7,07,0.155857934,-0.384541335,1,0,0,1.9306,Peridotite_rect,7,1.931,1,6,0,6,0,1,,,,,,,,,,,,,
6630e9224b174b5c709cd1c2,SCR,2024-06-25_12h40.50.913,LearnStrategy,2023.2.3,Linux x86_64,59.88023952,7,1,8,-0.05771637,0.405745056,1,0,0,1.4654,Diorite_09,3,09,6,4,1.465,2,02,0.144892587,-0.245112031,1,0,0,1.1142,Diorite_rect,3,1.114,1,7,0,7,0,1,,,,,,,,,,,,,
6630e9224b174b5c709cd1c2,SCR,2024-06-25_12h40.50.913,LearnStrategy,2023.2.3,Linux x86_64,59.88023952,7,1,9,0.206428245,0.374072702,1,0,0,1.0449,Peridotite_12,7,12,6,6,1.045,4,03,0.157015765,-0.262895867,1,0,0,1.6275,Diorite_rect,3,1.628,0,8,0,8,0,1,,,,,,,,,,,,,
6630e9224b174b5c709cd1c2,SCR,2024-06-25_12h40.50.913,LearnStrategy,2023.2.3,Linux x86_64,59.88023952,7,1,10,0.524907147,0.092807805,1,0,0,1.5814,Andesite_01,1,01,4,8,1.581,3,07,-0.084755509,-0.240630468,1,0,0,2.185,Basalt_rect,2,2.185,0,9,0,9,0,1,,,,,,,,,,,,,
6630e9224b174b5c709cd1c2,SCR,2024-06-25_12h40.50.913,LearnStrategy,2023.2.3,Linux x86_64,59.88023952,7,1,11,0.4370866,-0.252217964,1,0,0,2.2661,Peridotite_13,7,13,2,7,2.266,1,09,0.391452648,-0.265292344,1,0,0,4.3419,Gabbro_rect,4,4.342,0,10,0,10,0,1,,,,,,,,,,,,,
6630e9224b174b5c709cd1c2,SCR,2024-06-25_12h40.50.913,LearnStrategy,2023.2.3,Linux x86_64,59.88023952,7,1,12,-0.564989373,0.066479612,1,0,0,1.1007,Andesite_05,1,05,4,1,1.101,6,15,-0.398110602,-0.26793374,1,0,0,1.932,Andesite_rect,1,1.932,1,11,0,11,0,1,,,,,,,,,,,,,
6630e9224b174b5c709cd1c2,SCR,2024-06-25_12h40.50.913,LearnStrategy,2023.2.3,Linux x86_64,59.88023952,7,1,13,-0.362191271,0.217264952,1,0,0,1.2309,Pegmatite_06,6,06,5,2,1.231,8,05,-0.184294453,-0.393052419,1,0,0,1.7479,Pegmatite_rect,6,1.748,1,12,0,12,0,1,,,,,,,,,,,,,
6630e9224b174b5c709cd1c2,SCR,2024-06-25_12h40.50.913,LearnStrategy,2023.2.3,Linux x86_64,59.88023952,7,1,14,-0.198056044,0.093017507,1,0,0,1.1974,Gabbro_13,4,13,4,3,1.197,1,09,0.354443444,-0.252831494,1,0,0,1.2447,Gabbro_rect,4,1.245,1,13,0,13,0,1,,,,,,,,,,,,,
6630e9224b174b5c709cd1c2,SCR,2024-06-25_12h40.50.913,LearnStrategy,2023.2.3,Linux x86_64,59.88023952,7,1,15,-0.194795467,-0.266071673,1,0,0,1.2635,Andesite_02,1,02,2,3,1.264,3,11,-0.376645865,-0.261689292,1,0,0,2.6086,Andesite_rect,1,2.609,1,14,0,14,0,1,,,,,,,,,,,,,
6630e9224b174b5c709cd1c2,SCR,2024-06-25_12h40.50.913,LearnStrategy,2023.2.3,Linux x86_64,59.88023952,7,1,16,-0.25150956,-0.401506707,1,0,0,1.2314,Gabbro_14,4,14,1,3,1.231,7,07,0.363895416,-0.261412515,1,0,0,1.6578,Gabbro_rect,4,1.658,1,15,0,15,0,1,,,,,,,,,,,,,
6630e9224b174b5c709cd1c2,SCR,2024-06-25_12h40.50.913,LearnStrategy,2023.2.3,Linux x86_64,59.88023952,7,2,1,,,,,,,,8,10,,,,,,,,,,,,,8,1.827,1,,,,,,0.355967062,-0.397280799,1,0,0,1.8273,Pumice_rect,0,0,0,0,1,
6630e9224b174b5c709cd1c2,SCR,2024-06-25_12h40.50.913,LearnStrategy,2023.2.3,Linux x86_64,59.88023952,7,2,2,,,,,,,,7,08,,,,,,,,,,,,,7,9.738,1,,,,,,0.116116771,-0.418321892,1,0,0,9.7376,Peridotite_rect,1,0,1,0,1,
6630e9224b174b5c709cd1c2,SCR,2024-06-25_12h40.50.913,LearnStrategy,2023.2.3,Linux x86_64,59.88023952,7,2,3,,,,,,,,6,13,,,,,,,,,,,,,6,1.407,1,,,,,,-0.076203028,-0.388690313,1,0,0,1.4071,Pegmatite_rect,2,0,2,0,1,
6630e9224b174b5c709cd1c2,SCR,2024-06-25_12h40.50.913,LearnStrategy,2023.2.3,Linux x86_64,59.88023952,7,2,4,,,,,,,,4,10,,,,,,,,,,,,,4,17.058,1,,,,,,0.361628921,-0.2555169,1,0,0,17.0578,Gabbro_rect,3,0,3,0,1,
6630e9224b174b5c709cd1c2,SCR,2024-06-25_12h40.50.913,LearnStrategy,2023.2.3,Linux x86_64,59.88023952,7,2,5,,,,,,,,1,10,,,,,,,,,,,,,1,2.182,1,,,,,,-0.344389774,-0.231744342,1,0,0,2.1825,Andesite_rect,4,0,4,0,1,
6630e9224b174b5c709cd1c2,SCR,2024-06-25_12h40.50.913,LearnStrategy,2023.2.3,Linux x86_64,59.88023952,7,2,6,,,,,,,,6,12,,,,,,,,,,,,,6,2.137,1,,,,,,-0.103084635,-0.382725398,1,0,0,2.1368,Pegmatite_rect,5,0,5,0,1,
6630e9224b174b5c709cd1c2,SCR,2024-06-25_12h40.50.913,LearnStrategy,2023.2.3,Linux x86_64,59.88023952,7,2,7,,,,,,,,2,04,,,,,,,,,,,,,2,1.425,1,,,,,,-0.127524694,-0.264994233,1,0,0,1.4255,Basalt_rect,6,0,6,0,1,
6630e9224b174b5c709cd1c2,SCR,2024-06-25_12h40.50.913,LearnStrategy,2023.2.3,Linux x86_64,59.88023952,7,2,8,,,,,,,,1,14,,,,,,,,,,,,,7,11.19,0,,,,,,0.075015174,-0.390541289,1,0,0,11.1903,Peridotite_rect,7,0,7,0,1,
6630e9224b174b5c709cd1c2,SCR,2024-06-25_12h40.50.913,LearnStrategy,2023.2.3,Linux x86_64,59.88023952,7,2,9,,,,,,,,3,02,,,,,,,,,,,,,3,1.428,1,,,,,,0.097862456,-0.25038705,1,0,0,1.428,Diorite_rect,8,0,8,0,1,
6630e9224b174b5c709cd1c2,SCR,2024-06-25_12h40.50.913,LearnStrategy,2023.2.3,Linux x86_64,59.88023952,7,2,10,,,,,,,,8,09,,,,,,,,,,,,,8,1.498,1,,,,,,0.445109756,-0.410028175,1,0,0,1.4984,Pumice_rect,9,0,9,0,1,
6630e9224b174b5c709cd1c2,SCR,2024-06-25_12h40.50.913,LearnStrategy,2023.2.3,Linux x86_64,59.88023952,7,2,11,,,,,,,,5,09,,,,,,,,,,,,,5,1.886,1,,,,,,-0.37610937,-0.415276351,1,0,0,1.8864,Obsidian_rect,10,0,10,0,1,
6630e9224b174b5c709cd1c2,SCR,2024-06-25_12h40.50.913,LearnStrategy,2023.2.3,Linux x86_64,59.88023952,7,2,12,,,,,,,,3,06,,,,,,,,,,,,,3,22.715,1,,,,,,0.097908232,-0.259273317,1,0,0,22.7147,Diorite_rect,11,0,11,0,1,
6630e9224b174b5c709cd1c2,SCR,2024-06-25_12h40.50.913,LearnStrategy,2023.2.3,Linux x86_64,59.88023952,7,2,13,,,,,,,,7,06,,,,,,,,,,,,,6,8.731,0,,,,,,-0.065309525,-0.402899424,1,0,0,8.7309,Pegmatite_rect,12,0,12,0,1,
6630e9224b174b5c709cd1c2,SCR,2024-06-25_12h40.50.913,LearnStrategy,2023.2.3,Linux x86_64,59.88023952,7,2,14,,,,,,,,2,09,,,,,,,,,,,,,2,1.483,1,,,,,,-0.105732741,-0.266804377,1,0,0,1.4833,Basalt_rect,13,0,13,0,1,
6630e9224b174b5c709cd1c2,SCR,2024-06-25_12h40.50.913,LearnStrategy,2023.2.3,Linux x86_64,59.88023952,7,2,15,,,,,,,,4,15,,,,,,,,,,,,,4,14.601,1,,,,,,0.347479502,-0.23966761,1,0,0,14.6006,Gabbro_rect,14,0,14,0,1,
6630e9224b174b5c709cd1c2,SCR,2024-06-25_12h40.50.913,LearnStrategy,2023.2.3,Linux x86_64,59.88023952,7,2,16,,,,,,,,5,07,,,,,,,,,,,,,5,1.32,1,,,,,,-0.396310771,-0.414711988,1,0,0,1.3203,Obsidian_rect,15,0,15,0,1,
6630e9224b174b5c709cd1c2,SCR,2024-06-25_12h40.50.913,LearnStrategy,2023.2.3,Linux x86_64,59.88023952,8,1,1,0.065567723,-0.086837168,1,0,0,2.081,Diorite_13,3,13,3,5,2.081,4,01,0.09572234,-0.243946853,1,0,0,3.1997,Diorite_rect,3,3.2,1,0,0,0,0,1,,,,,,,,,,,,,
6630e9224b174b5c709cd1c2,SCR,2024-06-25_12h40.50.913,LearnStrategy,2023.2.3,Linux x86_64,59.88023952,8,1,2,-0.095611855,0.241050067,1,0,0,1.394,Peridotite_14,7,14,5,4,1.394,1,05,0.429101449,-0.257943189,1,0,0,5.0179,Gabbro_rect,4,5.018,0,1,0,1,0,1,,,,,,,,,,,,,
6630e9224b174b5c709cd1c2,SCR,2024-06-25_12h40.50.913,LearnStrategy,2023.2.3,Linux x86_64,59.88023952,8,1,3,-0.061095909,0.072933091,1,0,0,1.2145,Diorite_07,3,07,4,4,1.215,7,07,0.129031711,-0.248176363,1,0,0,2.4423,Diorite_rect,3,2.442,1,2,0,2,0,1,,,,,,,,,,,,,
6630e9224b174b5c709cd1c2,SCR,2024-06-25_12h40.50.913,LearnStrategy,2023.2.3,Linux x86_64,59.88023952,8,1,4,0.370199557,0.104352774,1,0,0,5.0968,Diorite_08,3,08,4,7,5.097,1,09,0.162313956,-0.247225655,1,0,0,1.2414,Diorite_rect,3,1.241,1,3,0,3,0,1,,,,,,,,,,,,,
6630e9224b174b5c709cd1c2,SCR,2024-06-25_12h40.50.913,LearnStrategy,2023.2.3,Linux x86_64,59.88023952,8,1,5,0.520522647,-0.279761067,1,0,0,2.3001,Andesite_16,1,16,2,8,2.3,7,07,0.089026204,-0.414542234,1,0,0,2.337,Peridotite_rect,7,2.337,0,4,0,4,0,1,,,,,,,,,,,,,
6630e9224b174b5c709cd1c2,SCR,2024-06-25_12h40.50.913,LearnStrategy,2023.2.3,Linux x86_64,59.88023952,8,1,6,0.554383454,-0.307414938,1,0,0,1.1812,Andesite_16,1,16,2,8,1.181,7,13,-0.36322795,-0.244102125,1,0,0,2.1121,Andesite_rect,1,2.112,1,5,0,5,0,1,,,,,,,,,,,,,
6630e9224b174b5c709cd1c2,SCR,2024-06-25_12h40.50.913,LearnStrategy,2023.2.3,Linux x86_64,59.88023952,8,1,7,0.541689696,0.219683894,1,0,0,1.2471,Diorite_11,3,11,5,8,1.247,4,09,0.32957953,-0.263700344,1,0,0,5.8932,Gabbro_rect,4,5.893,0,6,0,6,0,1,,,,,,,,,,,,,
6630e9224b174b5c709cd1c2,SCR,2024-06-25_12h40.50.913,LearnStrategy,2023.2.3,Linux x86_64,59.88023952,8,1,8,0.234949889,-0.090649252,1,0,0,1.6906,Peridotite_07,7,07,3,6,1.691,1,01,0.123498563,-0.384792681,1,0,0,8.2047,Peridotite_rect,7,8.205,1,7,0,7,0,1,,,,,,,,,,,,,
6630e9224b174b5c709cd1c2,SCR,2024-06-25_12h40.50.913,LearnStrategy,2023.2.3,Linux x86_64,59.88023952,8,1,9,-0.21195228,0.103405387,1,0,0,3.0629,Gabbro_13,4,13,4,3,3.063,2,01,0.310215279,-0.24855974,1,0,0,2.4767,Gabbro_rect,4,2.477,1,8,0,8,0,1,,,,,,,,,,,,,
6630e9224b174b5c709cd1c2,SCR,2024-06-25_12h40.50.913,LearnStrategy,2023.2.3,Linux x86_64,59.88023952,8,1,10,0.232273808,0.22488398,1,0,0,2.9302,Gabbro_03,4,03,5,6,2.93,1,09,-0.348873386,-0.238444505,1,0,0,1.9491,Andesite_rect,1,1.949,0,9,0,9,0,1,,,,,,,,,,,,,
6630e9224b174b5c709cd1c2,SCR,2024-06-25_12h40.50.913,LearnStrategy,2023.2.3,Linux x86_64,59.88023952,8,1,11,0.361237561,0.259405542,1,0,0,1.7637,Gabbro_01,4,01,5,7,1.764,7,13,-0.326825566,-0.247283017,1,0,0,2.1988,Andesite_rect,1,2.199,0,10,0,10,0,1,,,,,,,,,,,,,
6630e9224b174b5c709cd1c2,SCR,2024-06-25_12h40.50.913,LearnStrategy,2023.2.3,Linux x86_64,59.88023952,8,1,12,0.196691089,0.090087502,1,0,0,1.3343,Basalt_14,2,14,4,6,1.334,3,07,0.209594161,-0.41487058,1,0,0,2.2325,Peridotite_rect,7,2.233,0,11,0,11,0,1,,,,,,,,,,,,,
6630e9224b174b5c709cd1c2,SCR,2024-06-25_12h40.50.913,LearnStrategy,2023.2.3,Linux x86_64,59.88023952,8,1,13,-0.574237612,0.271106667,1,0,0,2.0018,Andesite_11,1,11,5,1,2.002,5,14,-0.373043873,-0.241178936,1,0,0,1.6381,Andesite_rect,1,1.638,1,12,0,12,0,1,,,,,,,,,,,,,
6630e9224b174b5c709cd1c2,SCR,2024-06-25_12h40.50.913,LearnStrategy,2023.2.3,Linux x86_64,59.88023952,8,1,14,-0.104301453,0.062769855,1,0,0,3.3718,Diorite_07,3,07,4,4,3.372,8,16,0.174853431,-0.250324673,1,0,0,1.0566,Diorite_rect,3,1.057,1,13,0,13,0,1,,,,,,,,,,,,,
6630e9224b174b5c709cd1c2,SCR,2024-06-25_12h40.50.913,LearnStrategy,2023.2.3,Linux x86_64,59.88023952,8,1,15,-0.217262197,-0.26391425,1,0,0,1.4978,Andesite_02,1,02,2,3,1.498,3,08,-0.319072194,-0.262079521,1,0,0,1.4634,Andesite_rect,1,1.463,1,14,0,14,0,1,,,,,,,,,,,,,
6630e9224b174b5c709cd1c2,SCR,2024-06-25_12h40.50.913,LearnStrategy,2023.2.3,Linux x86_64,59.88023952,8,1,16,0.256120964,-0.41026836,1,0,0,1.7732,Basalt_06,2,06,1,6,1.773,6,15,-0.164879693,-0.244419169,1,0,0,1.1328,Basalt_rect,2,1.133,1,15,0,15,0,1,,,,,,,,,,,,,
6630e9224b174b5c709cd1c2,SCR,2024-06-25_12h40.50.913,LearnStrategy,2023.2.3,Linux x86_64,59.88023952,8,2,1,,,,,,,,2,08,,,,,,,,,,,,,2,1.633,1,,,,,,-0.090994446,-0.253012481,1,0,0,1.6334,Basalt_rect,0,0,0,0,1,
6630e9224b174b5c709cd1c2,SCR,2024-06-25_12h40.50.913,LearnStrategy,2023.2.3,Linux x86_64,59.88023952,8,2,2,,,,,,,,5,06,,,,,,,,,,,,,5,1.34,1,,,,,,-0.346818818,-0.389456219,1,0,0,1.3401,Obsidian_rect,1,0,1,0,1,
6630e9224b174b5c709cd1c2,SCR,2024-06-25_12h40.50.913,LearnStrategy,2023.2.3,Linux x86_64,59.88023952,8,2,3,,,,,,,,1,03,,,,,,,,,,,,,1,1.51,1,,,,,,-0.388507984,-0.266917617,1,0,0,1.5097,Andesite_rect,2,0,2,0,1,
6630e9224b174b5c709cd1c2,SCR,2024-06-25_12h40.50.913,LearnStrategy,2023.2.3,Linux x86_64,59.88023952,8,2,4,,,,,,,,1,07,,,,,,,,,,,,,3,13.717,0,,,,,,0.132370702,-0.242863125,1,0,0,13.7173,Diorite_rect,3,0,3,0,1,
6630e9224b174b5c709cd1c2,SCR,2024-06-25_12h40.50.913,LearnStrategy,2023.2.3,Linux x86_64,59.88023952,8,2,5,,,,,,,,4,16,,,,,,,,,,,,,2,6.94,0,,,,,,-0.101127413,-0.24811674,1,0,0,6.9399,Basalt_rect,4,0,4,0,1,
6630e9224b174b5c709cd1c2,SCR,2024-06-25_12h40.50.913,LearnStrategy,2023.2.3,Linux x86_64,59.88023952,8,2,6,,,,,,,,7,15,,,,,,,,,,,,,7,1.812,1,,,,,,0.191905763,-0.416512454,1,0,0,1.8122,Peridotite_rect,5,0,5,0,1,
6630e9224b174b5c709cd1c2,SCR,2024-06-25_12h40.50.913,LearnStrategy,2023.2.3,Linux x86_64,59.88023952,8,2,7,,,,,,,,4,08,,,,,,,,,,,,,4,3.693,1,,,,,,0.339260949,-0.247600202,1,0,0,3.6928,Gabbro_rect,6,0,6,0,1,
6630e9224b174b5c709cd1c2,SCR,2024-06-25_12h40.50.913,LearnStrategy,2023.2.3,Linux x86_64,59.88023952,8,2,8,,,,,,,,7,16,,,,,,,,,,,,,7,4.411,1,,,,,,0.100639061,-0.410595364,1,0,0,4.4109,Peridotite_rect,7,0,7,0,1,
6630e9224b174b5c709cd1c2,SCR,2024-06-25_12h40.50.913,LearnStrategy,2023.2.3,Linux x86_64,59.88023952,8,2,9,,,,,,,,3,15,,,,,,,,,,,,,3,7.832,1,,,,,,0.114953288,-0.250959608,1,0,0,7.8316,Diorite_rect,8,0,8,0,1,
6630e9224b174b5c709cd1c2,SCR,2024-06-25_12h40.50.913,LearnStrategy,2023.2.3,Linux x86_64,59.88023952,8,2,10,,,,,,,,6,10,,,,,,,,,,,,,6,1.169,1,,,,,,-0.111027541,-0.411303414,1,0,0,1.1689,Pegmatite_rect,9,0,9,0,1,
6630e9224b174b5c709cd1c2,SCR,2024-06-25_12h40.50.913,LearnStrategy,2023.2.3,Linux x86_64,59.88023952,8,2,11,,,,,,,,6,11,,,,,,,,,,,,,6,1.1,1,,,,,,-0.111027541,-0.411303414,1,0,0,1.1001,Pegmatite_rect,10,0,10,0,1,
6630e9224b174b5c709cd1c2,SCR,2024-06-25_12h40.50.913,LearnStrategy,2023.2.3,Linux x86_64,59.88023952,8,2,12,,,,,,,,8,03,,,,,,,,,,,,,8,1.43,1,,,,,,0.382873111,-0.393346645,1,0,0,1.4296,Pumice_rect,11,0,11,0,1,
6630e9224b174b5c709cd1c2,SCR,2024-06-25_12h40.50.913,LearnStrategy,2023.2.3,Linux x86_64,59.88023952,8,2,13,,,,,,,,5,16,,,,,,,,,,,,,5,1.35,1,,,,,,-0.383532489,-0.378190712,1,0,0,1.3503,Obsidian_rect,12,0,12,0,1,
6630e9224b174b5c709cd1c2,SCR,2024-06-25_12h40.50.913,LearnStrategy,2023.2.3,Linux x86_64,59.88023952,8,2,14,,,,,,,,8,08,,,,,,,,,,,,,8,1.317,1,,,,,,0.338000686,-0.400970035,1,0,0,1.3172,Pumice_rect,13,0,13,0,1,
6630e9224b174b5c709cd1c2,SCR,2024-06-25_12h40.50.913,LearnStrategy,2023.2.3,Linux x86_64,59.88023952,8,2,15,,,,,,,,3,10,,,,,,,,,,,,,3,13.178,1,,,,,,0.175567768,-0.255138892,1,0,0,13.1784,Diorite_rect,14,0,14,0,1,
6630e9224b174b5c709cd1c2,SCR,2024-06-25_12h40.50.913,LearnStrategy,2023.2.3,Linux x86_64,59.88023952,8,2,16,,,,,,,,2,11,,,,,,,,,,,,,8,4.472,0,,,,,,0.358879231,-0.408184475,1,0,0,4.4722,Pumice_rect,15,0,15,0,1,
6630e9224b174b5c709cd1c2,SCR,2024-06-25_12h40.50.913,LearnStrategy,2023.2.3,Linux x86_64,59.88023952,9,1,1,-0.225659971,0.076624446,1,0,0,1.4641,Gabbro_13,4,13,4,3,1.464,7,07,0.307276267,-0.244406594,1,0,0,0.9627,Gabbro_rect,4,0.963,1,0,0,0,0,1,,,,,,,,,,,,,
6630e9224b174b5c709cd1c2,SCR,2024-06-25_12h40.50.913,LearnStrategy,2023.2.3,Linux x86_64,59.88023952,9,1,2,-0.527341101,-0.069690528,1,0,0,1.4299,Pumice_06,8,06,3,1,1.43,4,14,0.391751183,-0.391334887,1,0,0,1.8188,Pumice_rect,8,1.819,1,1,0,1,0,1,,,,,,,,,,,,,
6630e9224b174b5c709cd1c2,SCR,2024-06-25_12h40.50.913,LearnStrategy,2023.2.3,Linux x86_64,59.88023952,9,1,3,0.543893743,0.070298124,1,0,0,2.2979,Andesite_01,1,01,4,8,2.298,1,11,0.198490991,-0.251798206,1,0,0,2.0556,Diorite_rect,3,2.056,0,2,0,2,0,1,,,,,,,,,,,,,
6630e9224b174b5c709cd1c2,SCR,2024-06-25_12h40.50.913,LearnStrategy,2023.2.3,Linux x86_64,59.88023952,9,1,4,0.230260213,0.235125224,1,0,0,2.0303,Gabbro_03,4,03,5,6,2.03,3,07,-0.318367781,-0.230615616,1,0,0,2.2787,Andesite_rect,1,2.279,0,3,0,3,0,1,,,,,,,,,,,,,
6630e9224b174b5c709cd1c2,SCR,2024-06-25_12h40.50.913,LearnStrategy,2023.2.3,Linux x86_64,59.88023952,9,1,5,0.571322971,-0.213691641,1,0,0,2.4976,Andesite_16,1,16,2,8,2.498,3,11,-0.301628855,-0.247655727,1,0,0,4.8754,Andesite_rect,1,4.875,1,4,0,4,0,1,,,,,,,,,,,,,
6630e9224b174b5c709cd1c2,SCR,2024-06-25_12h40.50.913,LearnStrategy,2023.2.3,Linux x86_64,59.88023952,9,1,6,0.215699938,0.068969197,1,0,0,2.0315,Basalt_14,2,14,4,6,2.032,1,02,0.412515852,-0.250588099,1,0,0,1.1235,Gabbro_rect,4,1.124,0,5,0,5,0,1,,,,,,,,,,,,,
6630e9224b174b5c709cd1c2,SCR,2024-06-25_12h40.50.913,LearnStrategy,2023.2.3,Linux x86_64,59.88023952,9,1,7,-0.234878046,0.09840114,1,0,0,1.1989,Gabbro_13,4,13,4,3,1.199,8,15,0.355525547,-0.245815136,1,0,0,1.7385,Gabbro_rect,4,1.738,1,6,0,6,0,1,,,,,,,,,,,,,
6630e9224b174b5c709cd1c2,SCR,2024-06-25_12h40.50.913,LearnStrategy,2023.2.3,Linux x86_64,59.88023952,9,1,8,0.390902908,0.2450111,1,0,0,4.8628,Gabbro_01,4,01,5,7,4.863,2,05,-0.368354268,-0.267769354,1,0,0,1.8528,Andesite_rect,1,1.853,0,7,0,7,0,1,,,,,,,,,,,,,
6630e9224b174b5c709cd1c2,SCR,2024-06-25_12h40.50.913,LearnStrategy,2023.2.3,Linux x86_64,59.88023952,9,1,9,-0.042575342,-0.068493031,1,0,0,0.8807,Basalt_12,2,12,3,4,0.881,6,03,0.332070103,-0.3883294,1,0,0,1.8635,Pumice_rect,8,1.863,0,8,0,8,0,1,,,,,,,,,,,,,
6630e9224b174b5c709cd1c2,SCR,2024-06-25_12h40.50.913,LearnStrategy,2023.2.3,Linux x86_64,59.88023952,9,1,10,-0.081316983,-0.359209626,1,0,0,1.7476,Gabbro_11,4,11,1,4,1.748,1,02,-0.115561097,-0.260215406,1,0,0,1.0162,Basalt_rect,2,1.016,0,9,0,9,0,1,,,,,,,,,,,,,
6630e9224b174b5c709cd1c2,SCR,2024-06-25_12h40.50.913,LearnStrategy,2023.2.3,Linux x86_64,59.88023952,9,1,11,0.587076823,-0.403369126,1,0,0,1.2307,Pegmatite_07,6,07,1,8,1.231,7,05,-0.063378723,-0.390364965,1,0,0,1.1042,Pegmatite_rect,6,1.104,1,10,0,10,0,1,,,,,,,,,,,,,
6630e9224b174b5c709cd1c2,SCR,2024-06-25_12h40.50.913,LearnStrategy,2023.2.3,Linux x86_64,59.88023952,9,1,12,-0.566452274,-0.440789046,1,0,0,1.0488,Pumice_15,8,15,1,1,1.049,7,02,0.359314106,-0.404236334,1,0,0,1.5117,Pumice_rect,8,1.512,1,11,0,11,0,1,,,,,,,,,,,,,
6630e9224b174b5c709cd1c2,SCR,2024-06-25_12h40.50.913,LearnStrategy,2023.2.3,Linux x86_64,59.88023952,9,1,13,-0.372572934,0.110520751,1,0,0,1.9472,Gabbro_09,4,09,4,2,1.947,5,14,-0.314629555,-0.247858613,1,0,0,1.6468,Andesite_rect,1,1.647,0,12,0,12,0,1,,,,,,,,,,,,,
6630e9224b174b5c709cd1c2,SCR,2024-06-25_12h40.50.913,LearnStrategy,2023.2.3,Linux x86_64,59.88023952,9,1,14,-0.082620197,0.252738582,1,0,0,1.3479,Peridotite_14,7,14,5,4,1.348,4,03,0.116690106,-0.407735118,1,0,0,2.9819,Peridotite_rect,7,2.982,1,13,0,13,0,1,,,,,,,,,,,,,
6630e9224b174b5c709cd1c2,SCR,2024-06-25_12h40.50.913,LearnStrategy,2023.2.3,Linux x86_64,59.88023952,9,1,15,-0.184326454,0.090565999,1,0,0,1.0967,Gabbro_13,4,13,4,3,1.097,1,09,0.369235992,-0.265373724,1,0,0,2.4704,Gabbro_rect,4,2.47,1,14,0,14,0,1,,,,,,,,,,,,,
6630e9224b174b5c709cd1c2,SCR,2024-06-25_12h40.50.913,LearnStrategy,2023.2.3,Linux x86_64,59.88023952,9,1,16,0.524837211,0.08716389,1,0,0,1.0505,Andesite_01,1,01,4,8,1.051,2,01,0.200484311,-0.399821529,1,0,0,4.1868,Peridotite_rect,7,4.187,0,15,0,15,0,1,,,,,,,,,,,,,
6630e9224b174b5c709cd1c2,SCR,2024-06-25_12h40.50.913,LearnStrategy,2023.2.3,Linux x86_64,59.88023952,9,2,1,,,,,,,,1,06,,,,,,,,,,,,,1,3.367,1,,,,,,-0.33117319,-0.229551739,1,0,0,3.3666,Andesite_rect,0,0,0,0,1,
6630e9224b174b5c709cd1c2,SCR,2024-06-25_12h40.50.913,LearnStrategy,2023.2.3,Linux x86_64,59.88023952,9,2,2,,,,,,,,3,14,,,,,,,,,,,,,3,1.599,1,,,,,,0.056255694,-0.234524126,1,0,0,1.5991,Diorite_rect,1,0,1,0,1,
6630e9224b174b5c709cd1c2,SCR,2024-06-25_12h40.50.913,LearnStrategy,2023.2.3,Linux x86_64,59.88023952,9,2,3,,,,,,,,5,04,,,,,,,,,,,,,5,1.208,1,,,,,,-0.403504548,-0.401541745,1,0,0,1.208,Obsidian_rect,2,0,2,0,1,
6630e9224b174b5c709cd1c2,SCR,2024-06-25_12h40.50.913,LearnStrategy,2023.2.3,Linux x86_64,59.88023952,9,2,4,,,,,,,,7,10,,,,,,,,,,,,,7,3.116,1,,,,,,0.082961612,-0.420445407,1,0,0,3.1159,Peridotite_rect,3,0,3,0,1,
6630e9224b174b5c709cd1c2,SCR,2024-06-25_12h40.50.913,LearnStrategy,2023.2.3,Linux x86_64,59.88023952,9,2,5,,,,,,,,5,11,,,,,,,,,,,,,5,1.331,1,,,,,,-0.366847286,-0.404477225,1,0,0,1.3314,Obsidian_rect,4,0,4,0,1,
6630e9224b174b5c709cd1c2,SCR,2024-06-25_12h40.50.913,LearnStrategy,2023.2.3,Linux x86_64,59.88023952,9,2,6,,,,,,,,4,12,,,,,,,,,,,,,4,11.341,1,,,,,,0.328300052,-0.253367813,1,0,0,11.3408,Gabbro_rect,5,0,5,0,1,
6630e9224b174b5c709cd1c2,SCR,2024-06-25_12h40.50.913,LearnStrategy,2023.2.3,Linux x86_64,59.88023952,9,2,7,,,,,,,,4,05,,,,,,,,,,,,,7,10.876,0,,,,,,0.205627653,-0.407019085,1,0,0,10.8757,Peridotite_rect,6,0,6,0,1,
6630e9224b174b5c709cd1c2,SCR,2024-06-25_12h40.50.913,LearnStrategy,2023.2.3,Linux x86_64,59.88023952,9,2,8,,,,,,,,8,04,,,,,,,,,,,,,8,1.141,1,,,,,,0.339555952,-0.421846672,1,0,0,1.1411,Pumice_rect,7,0,7,0,1,
6630e9224b174b5c709cd1c2,SCR,2024-06-25_12h40.50.913,LearnStrategy,2023.2.3,Linux x86_64,59.88023952,9,2,9,,,,,,,,1,04,,,,,,,,,,,,,1,5.29,1,,,,,,-0.322886714,-0.25186461,1,0,0,5.2902,Andesite_rect,8,0,8,0,1,
6630e9224b174b5c709cd1c2,SCR,2024-06-25_12h40.50.913,LearnStrategy,2023.2.3,Linux x86_64,59.88023952,9,2,10,,,,,,,,2,16,,,,,,,,,,,,,2,2.577,1,,,,,,-0.122936743,-0.262786795,1,0,0,2.5767,Basalt_rect,9,0,9,0,1,
6630e9224b174b5c709cd1c2,SCR,2024-06-25_12h40.50.913,LearnStrategy,2023.2.3,Linux x86_64,59.88023952,9,2,11,,,,,,,,6,16,,,,,,,,,,,,,6,1.514,1,,,,,,-0.080178791,-0.379805035,1,0,0,1.5145,Pegmatite_rect,10,0,10,0,1,
6630e9224b174b5c709cd1c2,SCR,2024-06-25_12h40.50.913,LearnStrategy,2023.2.3,Linux x86_64,59.88023952,9,2,12,,,,,,,,8,02,,,,,,,,,,,,,8,1.941,1,,,,,,0.409390344,-0.40519453,1,0,0,1.9412,Pumice_rect,11,0,11,0,1,
6630e9224b174b5c709cd1c2,SCR,2024-06-25_12h40.50.913,LearnStrategy,2023.2.3,Linux x86_64,59.88023952,9,2,13,,,,,,,,7,04,,,,,,,,,,,,,6,21.361,0,,,,,,-0.112135075,-0.404545113,1,0,0,21.3608,Pegmatite_rect,12,0,12,0,1,
6630e9224b174b5c709cd1c2,SCR,2024-06-25_12h40.50.913,LearnStrategy,2023.2.3,Linux x86_64,59.88023952,9,2,14,,,,,,,,3,16,,,,,,,,,,,,,1,3.685,0,,,,,,-0.326590185,-0.24578589,1,0,0,3.6854,Andesite_rect,13,0,13,0,1,
6630e9224b174b5c709cd1c2,SCR,2024-06-25_12h40.50.913,LearnStrategy,2023.2.3,Linux x86_64,59.88023952,9,2,15,,,,,,,,2,10,,,,,,,,,,,,,2,1.36,1,,,,,,-0.068316212,-0.254927671,1,0,0,1.3597,Basalt_rect,14,0,14,0,1,
6630e9224b174b5c709cd1c2,SCR,2024-06-25_12h40.50.913,LearnStrategy,2023.2.3,Linux x86_64,59.88023952,9,2,16,,,,,,,,6,08,,,,,,,,,,,,,6,1.169,1,,,,,,-0.104772709,-0.410966591,1,0,0,1.1688,Pegmatite_rect,15,0,15,0,1,
6630e9224b174b5c709cd1c2,SCR,2024-06-25_12h40.50.913,LearnStrategy,2023.2.3,Linux x86_64,59.88023952,,,,,,,,,,,,,,,,,,,,,,,,,,,,,,,,,,,,,,,,,,,,,1
6630e9224b174b5c709cd1c2,SCR,2024-06-25_12h40.50.913,LearnStrategy,2023.2.3,Linux x86_64,59.88023952,,,,,,,,,,,,,,,,,,,,,,,,,,,,,,,,,,,,,,,,,,,,,
6630e9224b174b5c709cd1c2,SCR,2024-06-25_12h40.50.913,LearnStrategy,2023.2.3,Linux x86_64,59.88023952,,,,,,,,,,,8,15,1,1,,,,,,,,,,,,,,,,,,,,,,,,,,,,,,,
6630e9224b174b5c709cd1c2,SCR,2024-06-25_12h40.50.913,LearnStrategy,2023.2.3,Linux x86_64,59.88023952,,,,,,,,,,,8,16,1,2,,,,,,,,,,,,,,,,,,,,,,,,,,,,,,,
6630e9224b174b5c709cd1c2,SCR,2024-06-25_12h40.50.913,LearnStrategy,2023.2.3,Linux x86_64,59.88023952,,,,,,,,,,,4,14,1,3,,,,,,,,,,,,,,,,,,,,,,,,,,,,,,,
6630e9224b174b5c709cd1c2,SCR,2024-06-25_12h40.50.913,LearnStrategy,2023.2.3,Linux x86_64,59.88023952,,,,,,,,,,,4,11,1,4,,,,,,,,,,,,,,,,,,,,,,,,,,,,,,,
6630e9224b174b5c709cd1c2,SCR,2024-06-25_12h40.50.913,LearnStrategy,2023.2.3,Linux x86_64,59.88023952,,,,,,,,,,,3,12,1,5,,,,,,,,,,,,,,,,,,,,,,,,,,,,,,,
6630e9224b174b5c709cd1c2,SCR,2024-06-25_12h40.50.913,LearnStrategy,2023.2.3,Linux x86_64,59.88023952,,,,,,,,,,,2,06,1,6,,,,,,,,,,,,,,,,,,,,,,,,,,,,,,,
6630e9224b174b5c709cd1c2,SCR,2024-06-25_12h40.50.913,LearnStrategy,2023.2.3,Linux x86_64,59.88023952,,,,,,,,,,,5,10,1,7,,,,,,,,,,,,,,,,,,,,,,,,,,,,,,,
6630e9224b174b5c709cd1c2,SCR,2024-06-25_12h40.50.913,LearnStrategy,2023.2.3,Linux x86_64,59.88023952,,,,,,,,,,,6,07,1,8,,,,,,,,,,,,,,,,,,,,,,,,,,,,,,,
6630e9224b174b5c709cd1c2,SCR,2024-06-25_12h40.50.913,LearnStrategy,2023.2.3,Linux x86_64,59.88023952,,,,,,,,,,,2,05,2,1,,,,,,,,,,,,,,,,,,,,,,,,,,,,,,,
6630e9224b174b5c709cd1c2,SCR,2024-06-25_12h40.50.913,LearnStrategy,2023.2.3,Linux x86_64,59.88023952,,,,,,,,,,,5,02,2,2,,,,,,,,,,,,,,,,,,,,,,,,,,,,,,,
6630e9224b174b5c709cd1c2,SCR,2024-06-25_12h40.50.913,LearnStrategy,2023.2.3,Linux x86_64,59.88023952,,,,,,,,,,,1,02,2,3,,,,,,,,,,,,,,,,,,,,,,,,,,,,,,,
6630e9224b174b5c709cd1c2,SCR,2024-06-25_12h40.50.913,LearnStrategy,2023.2.3,Linux x86_64,59.88023952,,,,,,,,,,,1,09,2,4,,,,,,,,,,,,,,,,,,,,,,,,,,,,,,,
6630e9224b174b5c709cd1c2,SCR,2024-06-25_12h40.50.913,LearnStrategy,2023.2.3,Linux x86_64,59.88023952,,,,,,,,,,,6,09,2,5,,,,,,,,,,,,,,,,,,,,,,,,,,,,,,,
6630e9224b174b5c709cd1c2,SCR,2024-06-25_12h40.50.913,LearnStrategy,2023.2.3,Linux x86_64,59.88023952,,,,,,,,,,,6,03,2,6,,,,,,,,,,,,,,,,,,,,,,,,,,,,,,,
6630e9224b174b5c709cd1c2,SCR,2024-06-25_12h40.50.913,LearnStrategy,2023.2.3,Linux x86_64,59.88023952,,,,,,,,,,,7,13,2,7,,,,,,,,,,,,,,,,,,,,,,,,,,,,,,,
6630e9224b174b5c709cd1c2,SCR,2024-06-25_12h40.50.913,LearnStrategy,2023.2.3,Linux x86_64,59.88023952,,,,,,,,,,,1,16,2,8,,,,,,,,,,,,,,,,,,,,,,,,,,,,,,,
6630e9224b174b5c709cd1c2,SCR,2024-06-25_12h40.50.913,LearnStrategy,2023.2.3,Linux x86_64,59.88023952,,,,,,,,,,,8,06,3,1,,,,,,,,,,,,,,,,,,,,,,,,,,,,,,,
6630e9224b174b5c709cd1c2,SCR,2024-06-25_12h40.50.913,LearnStrategy,2023.2.3,Linux x86_64,59.88023952,,,,,,,,,,,6,15,3,2,,,,,,,,,,,,,,,,,,,,,,,,,,,,,,,
6630e9224b174b5c709cd1c2,SCR,2024-06-25_12h40.50.913,LearnStrategy,2023.2.3,Linux x86_64,59.88023952,,,,,,,,,,,5,14,3,3,,,,,,,,,,,,,,,,,,,,,,,,,,,,,,,
6630e9224b174b5c709cd1c2,SCR,2024-06-25_12h40.50.913,LearnStrategy,2023.2.3,Linux x86_64,59.88023952,,,,,,,,,,,2,12,3,4,,,,,,,,,,,,,,,,,,,,,,,,,,,,,,,
6630e9224b174b5c709cd1c2,SCR,2024-06-25_12h40.50.913,LearnStrategy,2023.2.3,Linux x86_64,59.88023952,,,,,,,,,,,3,13,3,5,,,,,,,,,,,,,,,,,,,,,,,,,,,,,,,
6630e9224b174b5c709cd1c2,SCR,2024-06-25_12h40.50.913,LearnStrategy,2023.2.3,Linux x86_64,59.88023952,,,,,,,,,,,7,07,3,6,,,,,,,,,,,,,,,,,,,,,,,,,,,,,,,
6630e9224b174b5c709cd1c2,SCR,2024-06-25_12h40.50.913,LearnStrategy,2023.2.3,Linux x86_64,59.88023952,,,,,,,,,,,7,02,3,7,,,,,,,,,,,,,,,,,,,,,,,,,,,,,,,
6630e9224b174b5c709cd1c2,SCR,2024-06-25_12h40.50.913,LearnStrategy,2023.2.3,Linux x86_64,59.88023952,,,,,,,,,,,7,05,3,8,,,,,,,,,,,,,,,,,,,,,,,,,,,,,,,
6630e9224b174b5c709cd1c2,SCR,2024-06-25_12h40.50.913,LearnStrategy,2023.2.3,Linux x86_64,59.88023952,,,,,,,,,,,1,05,4,1,,,,,,,,,,,,,,,,,,,,,,,,,,,,,,,
6630e9224b174b5c709cd1c2,SCR,2024-06-25_12h40.50.913,LearnStrategy,2023.2.3,Linux x86_64,59.88023952,,,,,,,,,,,4,09,4,2,,,,,,,,,,,,,,,,,,,,,,,,,,,,,,,
6630e9224b174b5c709cd1c2,SCR,2024-06-25_12h40.50.913,LearnStrategy,2023.2.3,Linux x86_64,59.88023952,,,,,,,,,,,4,13,4,3,,,,,,,,,,,,,,,,,,,,,,,,,,,,,,,
6630e9224b174b5c709cd1c2,SCR,2024-06-25_12h40.50.913,LearnStrategy,2023.2.3,Linux x86_64,59.88023952,,,,,,,,,,,3,07,4,4,,,,,,,,,,,,,,,,,,,,,,,,,,,,,,,
6630e9224b174b5c709cd1c2,SCR,2024-06-25_12h40.50.913,LearnStrategy,2023.2.3,Linux x86_64,59.88023952,,,,,,,,,,,2,02,4,5,,,,,,,,,,,,,,,,,,,,,,,,,,,,,,,
6630e9224b174b5c709cd1c2,SCR,2024-06-25_12h40.50.913,LearnStrategy,2023.2.3,Linux x86_64,59.88023952,,,,,,,,,,,2,14,4,6,,,,,,,,,,,,,,,,,,,,,,,,,,,,,,,
6630e9224b174b5c709cd1c2,SCR,2024-06-25_12h40.50.913,LearnStrategy,2023.2.3,Linux x86_64,59.88023952,,,,,,,,,,,3,08,4,7,,,,,,,,,,,,,,,,,,,,,,,,,,,,,,,
6630e9224b174b5c709cd1c2,SCR,2024-06-25_12h40.50.913,LearnStrategy,2023.2.3,Linux x86_64,59.88023952,,,,,,,,,,,1,01,4,8,,,,,,,,,,,,,,,,,,,,,,,,,,,,,,,
6630e9224b174b5c709cd1c2,SCR,2024-06-25_12h40.50.913,LearnStrategy,2023.2.3,Linux x86_64,59.88023952,,,,,,,,,,,1,11,5,1,,,,,,,,,,,,,,,,,,,,,,,,,,,,,,,
6630e9224b174b5c709cd1c2,SCR,2024-06-25_12h40.50.913,LearnStrategy,2023.2.3,Linux x86_64,59.88023952,,,,,,,,,,,6,06,5,2,,,,,,,,,,,,,,,,,,,,,,,,,,,,,,,
6630e9224b174b5c709cd1c2,SCR,2024-06-25_12h40.50.913,LearnStrategy,2023.2.3,Linux x86_64,59.88023952,,,,,,,,,,,8,05,5,3,,,,,,,,,,,,,,,,,,,,,,,,,,,,,,,
6630e9224b174b5c709cd1c2,SCR,2024-06-25_12h40.50.913,LearnStrategy,2023.2.3,Linux x86_64,59.88023952,,,,,,,,,,,7,14,5,4,,,,,,,,,,,,,,,,,,,,,,,,,,,,,,,
6630e9224b174b5c709cd1c2,SCR,2024-06-25_12h40.50.913,LearnStrategy,2023.2.3,Linux x86_64,59.88023952,,,,,,,,,,,8,14,5,5,,,,,,,,,,,,,,,,,,,,,,,,,,,,,,,
6630e9224b174b5c709cd1c2,SCR,2024-06-25_12h40.50.913,LearnStrategy,2023.2.3,Linux x86_64,59.88023952,,,,,,,,,,,4,03,5,6,,,,,,,,,,,,,,,,,,,,,,,,,,,,,,,
6630e9224b174b5c709cd1c2,SCR,2024-06-25_12h40.50.913,LearnStrategy,2023.2.3,Linux x86_64,59.88023952,,,,,,,,,,,4,01,5,7,,,,,,,,,,,,,,,,,,,,,,,,,,,,,,,
6630e9224b174b5c709cd1c2,SCR,2024-06-25_12h40.50.913,LearnStrategy,2023.2.3,Linux x86_64,59.88023952,,,,,,,,,,,3,11,5,8,,,,,,,,,,,,,,,,,,,,,,,,,,,,,,,
6630e9224b174b5c709cd1c2,SCR,2024-06-25_12h40.50.913,LearnStrategy,2023.2.3,Linux x86_64,59.88023952,,,,,,,,,,,8,13,6,1,,,,,,,,,,,,,,,,,,,,,,,,,,,,,,,
6630e9224b174b5c709cd1c2,SCR,2024-06-25_12h40.50.913,LearnStrategy,2023.2.3,Linux x86_64,59.88023952,,,,,,,,,,,5,12,6,2,,,,,,,,,,,,,,,,,,,,,,,,,,,,,,,
6630e9224b174b5c709cd1c2,SCR,2024-06-25_12h40.50.913,LearnStrategy,2023.2.3,Linux x86_64,59.88023952,,,,,,,,,,,5,08,6,3,,,,,,,,,,,,,,,,,,,,,,,,,,,,,,,
6630e9224b174b5c709cd1c2,SCR,2024-06-25_12h40.50.913,LearnStrategy,2023.2.3,Linux x86_64,59.88023952,,,,,,,,,,,3,09,6,4,,,,,,,,,,,,,,,,,,,,,,,,,,,,,,,
6630e9224b174b5c709cd1c2,SCR,2024-06-25_12h40.50.913,LearnStrategy,2023.2.3,Linux x86_64,59.88023952,,,,,,,,,,,5,05,6,5,,,,,,,,,,,,,,,,,,,,,,,,,,,,,,,
6630e9224b174b5c709cd1c2,SCR,2024-06-25_12h40.50.913,LearnStrategy,2023.2.3,Linux x86_64,59.88023952,,,,,,,,,,,7,12,6,6,,,,,,,,,,,,,,,,,,,,,,,,,,,,,,,
6630e9224b174b5c709cd1c2,SCR,2024-06-25_12h40.50.913,LearnStrategy,2023.2.3,Linux x86_64,59.88023952,,,,,,,,,,,2,01,6,7,,,,,,,,,,,,,,,,,,,,,,,,,,,,,,,
6630e9224b174b5c709cd1c2,SCR,2024-06-25_12h40.50.913,LearnStrategy,2023.2.3,Linux x86_64,59.88023952,,,,,,,,,,,6,05,6,8,,,,,,,,,,,,,,,,,,,,,,,,,,,,,,,