participant,condition,date,expName,psychopyVersion,OS,frameRate,block,phase,trial,learn_mouse.x,learn_mouse.y,learn_mouse.leftButton,learn_mouse.midButton,learn_mouse.rightButton,learn_mouse.time,learn_mouse.clicked_name,cat,token,row,col,t_select,cat_mouse_l.x,cat_mouse_l.y,cat_mouse_l.leftButton,cat_mouse_l.midButton,cat_mouse_l.rightButton,cat_mouse_l.time,cat_mouse_l.clicked_name,resp,t_resp,corr,train_trials.thisRepN,train_trials.thisTrialN,train_trials.thisN,train_trials.thisIndex,train_trials.ran,cat_mouse_t.x,cat_mouse_t.y,cat_mouse_t.leftButton,cat_mouse_t.midButton,cat_mouse_t.rightButton,cat_mouse_t.time,cat_mouse_t.clicked_name,test_trials.thisRepN,test_trials.thisTrialN,test_trials.thisN,test_trials.thisIndex,test_trials.ran,Bonus
6630f09152503f6a1c3130c5,SCN,2024-06-24_15h28.07.915,LearnStrategy,2023.2.3,MacIntel,120.4819277,,,,,,,,,,,,,,,,,,,,,,,,,,,,,,,,,,,,,,,,,,,
6630f09152503f6a1c3130c5,SCN,2024-06-24_15h28.07.915,LearnStrategy,2023.2.3,MacIntel,120.4819277,1,1,1,-0.059118717,0.267977017,1,0,0,2.5555,Pumice_13,8,13,5,4,2.555,-0.370035549,-0.228749173,1,0,0,1.781799999,Andesite_rect,1,1.782,0,0,0,0,0,1,,,,,,,,,,,,,
6630f09152503f6a1c3130c5,SCN,2024-06-24_15h28.07.915,LearnStrategy,2023.2.3,MacIntel,120.4819277,1,1,2,-0.058320933,0.093332507,1,0,0,3.1496,Pumice_14,8,14,4,4,3.15,0.336826224,-0.418679729,1,0,0,2.606799999,Pumice_rect,8,2.607,1,1,0,1,0,1,,,,,,,,,,,,,
6630f09152503f6a1c3130c5,SCN,2024-06-24_15h28.07.915,LearnStrategy,2023.2.3,MacIntel,120.4819277,1,1,3,-0.084606481,-0.096738591,1,0,0,0.9906,Andesite_07,1,07,3,4,0.991,0.167063492,-0.250586971,1,0,0,1.289099999,Diorite_rect,3,1.289,0,2,0,2,0,1,,,,,,,,,,,,,
6630f09152503f6a1c3130c5,SCN,2024-06-24_15h28.07.915,LearnStrategy,2023.2.3,MacIntel,120.4819277,1,1,4,-0.203484623,-0.086900628,1,0,0,17.0245,Basalt_05,2,05,3,3,17.024,-0.348102679,-0.245304233,1,0,0,1.0685,Andesite_rect,1,1.068,0,3,0,3,0,1,,,,,,,,,,,,,
6630f09152503f6a1c3130c5,SCN,2024-06-24_15h28.07.915,LearnStrategy,2023.2.3,MacIntel,120.4819277,1,1,5,-0.538707011,0.385284392,1,0,0,2.6205,Andesite_05,1,05,6,1,2.62,0.36938244,-0.256117725,1,0,0,6.893299999,Gabbro_rect,4,6.893,0,4,0,4,0,1,,,,,,,,,,,,,
6630f09152503f6a1c3130c5,SCN,2024-06-24_15h28.07.915,LearnStrategy,2023.2.3,MacIntel,120.4819277,1,1,6,0.401455026,-0.283287864,1,0,0,1.4285,Pegmatite_16,6,16,2,7,1.428,0.23349041,-0.254861111,1,0,0,4.8136,Diorite_rect,3,4.814,0,5,0,5,0,1,,,,,,,,,,,,,
6630f09152503f6a1c3130c5,SCN,2024-06-24_15h28.07.915,LearnStrategy,2023.2.3,MacIntel,120.4819277,1,1,7,-0.261272321,-0.237326389,1,0,0,3.421,Peridotite_04,7,04,2,3,3.421,-0.44849537,-0.407775298,1,0,0,7.3571,Obsidian_rect,5,7.357,0,6,0,6,0,1,,,,,,,,,,,,,
6630f09152503f6a1c3130c5,SCN,2024-06-24_15h28.07.915,LearnStrategy,2023.2.3,MacIntel,120.4819277,1,1,8,-0.259631283,-0.408829365,1,0,0,1.5788,Obsidian_12,5,12,1,3,1.579,0.131278935,-0.266832011,1,0,0,1.778299999,Diorite_rect,3,1.778,0,7,0,7,0,1,,,,,,,,,,,,,
6630f09152503f6a1c3130c5,SCN,2024-06-24_15h28.07.915,LearnStrategy,2023.2.3,MacIntel,120.4819277,1,1,9,-0.512934028,-0.069299769,1,0,0,3.456900001,Pegmatite_08,6,08,3,1,3.457,-0.174470899,-0.392228836,1,0,0,8.2308,Pegmatite_rect,6,8.231,1,8,0,8,0,1,,,,,,,,,,,,,
6630f09152503f6a1c3130c5,SCN,2024-06-24_15h28.07.915,LearnStrategy,2023.2.3,MacIntel,120.4819277,1,1,10,-0.24083168,-0.220118221,1,0,0,1.5849,Peridotite_04,7,04,2,3,1.585,0.162925761,-0.418592923,1,0,0,3.297299999,Peridotite_rect,7,3.297,1,9,0,9,0,1,,,,,,,,,,,,,
6630f09152503f6a1c3130c5,SCN,2024-06-24_15h28.07.915,LearnStrategy,2023.2.3,MacIntel,120.4819277,1,1,11,0.20718006,0.42973297,1,0,0,2.341,Obsidian_04,5,04,6,6,2.341,-0.36161541,-0.390968089,1,0,0,5.638099999,Obsidian_rect,5,5.638,1,10,0,10,0,1,,,,,,,,,,,,,
6630f09152503f6a1c3130c5,SCN,2024-06-24_15h28.07.915,LearnStrategy,2023.2.3,MacIntel,120.4819277,1,1,12,-0.543452381,0.421056548,1,0,0,1.165900001,Andesite_05,1,05,6,1,1.166,-0.349785053,-0.236619544,1,0,0,5.1717,Andesite_rect,1,5.172,1,11,0,11,0,1,,,,,,,,,,,,,
6630f09152503f6a1c3130c5,SCN,2024-06-24_15h28.07.915,LearnStrategy,2023.2.3,MacIntel,120.4819277,1,1,13,-0.376335152,0.415868882,1,0,0,2.757900001,Pumice_05,8,05,6,2,2.758,0.319990079,-0.400334821,1,0,0,2.4553,Pumice_rect,8,2.455,1,12,0,12,0,1,,,,,,,,,,,,,
6630f09152503f6a1c3130c5,SCN,2024-06-24_15h28.07.915,LearnStrategy,2023.2.3,MacIntel,120.4819277,1,1,14,-0.227405754,0.415323247,1,0,0,0.8823,Pumice_16,8,16,6,3,0.882,0.369043485,-0.262962963,1,0,0,5.830900001,Gabbro_rect,4,5.831,0,13,0,13,0,1,,,,,,,,,,,,,
6630f09152503f6a1c3130c5,SCN,2024-06-24_15h28.07.915,LearnStrategy,2023.2.3,MacIntel,120.4819277,1,1,15,0.274673446,-0.22281746,1,0,0,7.541599999,Pumice_06,8,06,2,6,7.542,0.196424438,-0.256861772,1,0,0,1.3303,Diorite_rect,3,1.33,0,14,0,14,0,1,,,,,,,,,,,,,
6630f09152503f6a1c3130c5,SCN,2024-06-24_15h28.07.915,LearnStrategy,2023.2.3,MacIntel,120.4819277,1,1,16,0.585768022,-0.240443122,1,0,0,2.2155,Obsidian_06,5,06,2,8,2.215,-0.067266038,-0.386755952,1,0,0,4.922400001,Pegmatite_rect,6,4.922,0,15,0,15,0,1,,,,,,,,,,,,,
6630f09152503f6a1c3130c5,SCN,2024-06-24_15h28.07.915,LearnStrategy,2023.2.3,MacIntel,120.4819277,1,2,1,,,,,,,,8,08,,,,,,,,,,,8,6.022,1,,,,,,0.375529101,-0.393187831,1,0,0,6.0218,Pumice_rect,0,0,0,0,1,
6630f09152503f6a1c3130c5,SCN,2024-06-24_15h28.07.915,LearnStrategy,2023.2.3,MacIntel,120.4819277,1,2,2,,,,,,,,4,12,,,,,,,,,,,2,8.987,0,,,,,,-0.04703621,-0.252748843,1,0,0,8.986799999,Basalt_rect,1,0,1,0,1,
6630f09152503f6a1c3130c5,SCN,2024-06-24_15h28.07.915,LearnStrategy,2023.2.3,MacIntel,120.4819277,1,2,3,,,,,,,,7,13,,,,,,,,,,,1,14.49,0,,,,,,-0.394874339,-0.265976356,1,0,0,14.4901,Andesite_rect,2,0,2,0,1,
6630f09152503f6a1c3130c5,SCN,2024-06-24_15h28.07.915,LearnStrategy,2023.2.3,MacIntel,120.4819277,1,2,4,,,,,,,,3,08,,,,,,,,,,,8,2.873,0,,,,,,0.39963211,-0.381357474,1,0,0,2.8726,Pumice_rect,3,0,3,0,1,
6630f09152503f6a1c3130c5,SCN,2024-06-24_15h28.07.915,LearnStrategy,2023.2.3,MacIntel,120.4819277,1,2,5,,,,,,,,3,16,,,,,,,,,,,8,10.12,0,,,,,,0.384813161,-0.388070437,1,0,0,10.1203,Pumice_rect,4,0,4,0,1,
6630f09152503f6a1c3130c5,SCN,2024-06-24_15h28.07.915,LearnStrategy,2023.2.3,MacIntel,120.4819277,1,2,6,,,,,,,,1,11,,,,,,,,,,,7,5.231,0,,,,,,0.106481481,-0.386272321,1,0,0,5.2313,Peridotite_rect,5,0,5,0,1,
6630f09152503f6a1c3130c5,SCN,2024-06-24_15h28.07.915,LearnStrategy,2023.2.3,MacIntel,120.4819277,1,2,7,,,,,,,,5,05,,,,,,,,,,,5,4.648,1,,,,,,-0.34500248,-0.410271991,1,0,0,4.648200001,Obsidian_rect,6,0,6,0,1,
6630f09152503f6a1c3130c5,SCN,2024-06-24_15h28.07.915,LearnStrategy,2023.2.3,MacIntel,120.4819277,1,2,8,,,,,,,,4,05,,,,,,,,,,,6,11.782,0,,,,,,-0.176913856,-0.390802745,1,0,0,11.7817,Pegmatite_rect,7,0,7,0,1,
6630f09152503f6a1c3130c5,SCN,2024-06-24_15h28.07.915,LearnStrategy,2023.2.3,MacIntel,120.4819277,1,2,9,,,,,,,,7,14,,,,,,,,,,,6,7.462,0,,,,,,-0.096895668,-0.381167328,1,0,0,7.4621,Pegmatite_rect,8,0,8,0,1,
6630f09152503f6a1c3130c5,SCN,2024-06-24_15h28.07.915,LearnStrategy,2023.2.3,MacIntel,120.4819277,1,2,10,,,,,,,,8,10,,,,,,,,,,,8,2.264,1,,,,,,0.390343915,-0.385437335,1,0,0,2.2645,Pumice_rect,9,0,9,0,1,
6630f09152503f6a1c3130c5,SCN,2024-06-24_15h28.07.915,LearnStrategy,2023.2.3,MacIntel,120.4819277,1,2,11,,,,,,,,2,14,,,,,,,,,,,8,5.969,0,,,,,,0.390343915,-0.385189319,1,0,0,5.969,Pumice_rect,10,0,10,0,1,
6630f09152503f6a1c3130c5,SCN,2024-06-24_15h28.07.915,LearnStrategy,2023.2.3,MacIntel,120.4819277,1,2,12,,,,,,,,6,03,,,,,,,,,,,6,4.584,1,,,,,,-0.085296792,-0.402835648,1,0,0,4.5841,Pegmatite_rect,11,0,11,0,1,
6630f09152503f6a1c3130c5,SCN,2024-06-24_15h28.07.915,LearnStrategy,2023.2.3,MacIntel,120.4819277,1,2,13,,,,,,,,1,06,,,,,,,,,,,1,3.365,1,,,,,,-0.356932044,-0.265430721,1,0,0,3.3655,Andesite_rect,12,0,12,0,1,
6630f09152503f6a1c3130c5,SCN,2024-06-24_15h28.07.915,LearnStrategy,2023.2.3,MacIntel,120.4819277,1,2,14,,,,,,,,5,16,,,,,,,,,,,5,5.016,1,,,,,,-0.317571925,-0.400405093,1,0,0,5.0162,Obsidian_rect,13,0,13,0,1,
6630f09152503f6a1c3130c5,SCN,2024-06-24_15h28.07.915,LearnStrategy,2023.2.3,MacIntel,120.4819277,1,2,15,,,,,,,,2,08,,,,,,,,,,,8,9.517,0,,,,,,0.466092097,-0.402864583,1,0,0,9.5165,Pumice_rect,14,0,14,0,1,
6630f09152503f6a1c3130c5,SCN,2024-06-24_15h28.07.915,LearnStrategy,2023.2.3,MacIntel,120.4819277,1,2,16,,,,,,,,6,06,,,,,,,,,,,6,5.813,1,,,,,,-0.133602017,-0.411677414,1,0,0,5.812799999,Pegmatite_rect,15,0,15,0,1,
6630f09152503f6a1c3130c5,SCN,2024-06-24_15h28.07.915,LearnStrategy,2023.2.3,MacIntel,120.4819277,2,1,1,-0.525111607,0.388244048,1,0,0,2.284,Andesite_05,1,05,6,1,2.284,-0.381634425,-0.240678737,1,0,0,2.4302,Andesite_rect,1,2.43,1,0,0,0,0,1,,,,,,,,,,,,,
6630f09152503f6a1c3130c5,SCN,2024-06-24_15h28.07.915,LearnStrategy,2023.2.3,MacIntel,120.4819277,2,1,2,-0.593712798,0.25661789,1,0,0,0.765799999,Gabbro_13,4,13,5,1,0.766,0.123677249,-0.243535053,1,0,0,3.1643,Diorite_rect,3,3.164,0,1,0,1,0,1,,,,,,,,,,,,,
6630f09152503f6a1c3130c5,SCN,2024-06-24_15h28.07.915,LearnStrategy,2023.2.3,MacIntel,120.4819277,2,1,3,-0.583808697,0.097354497,1,0,0,1.0436,Pegmatite_13,6,13,4,1,1.044,-0.363033234,-0.389608135,1,0,0,1.695900001,Obsidian_rect,5,1.696,0,2,0,2,0,1,,,,,,,,,,,,,
6630f09152503f6a1c3130c5,SCN,2024-06-24_15h28.07.915,LearnStrategy,2023.2.3,MacIntel,120.4819277,2,1,4,-0.528922784,-0.05943287,1,0,0,0.748799999,Pegmatite_08,6,08,3,1,0.749,-0.380311673,-0.407618221,1,0,0,2.5472,Obsidian_rect,5,2.547,0,3,0,3,0,1,,,,,,,,,,,,,
6630f09152503f6a1c3130c5,SCN,2024-06-24_15h28.07.915,LearnStrategy,2023.2.3,MacIntel,120.4819277,2,1,5,-0.567621528,-0.274520503,1,0,0,0.8821,Pumice_09,8,09,2,1,0.882,0.333957507,-0.415434854,1,0,0,1.3555,Pumice_rect,8,1.355,1,4,0,4,0,1,,,,,,,,,,,,,
6630f09152503f6a1c3130c5,SCN,2024-06-24_15h28.07.915,LearnStrategy,2023.2.3,MacIntel,120.4819277,2,1,6,-0.578559028,-0.430505952,1,0,0,0.7493,Diorite_09,3,09,1,1,0.749,-0.143874008,-0.395068618,1,0,0,2.0893,Pegmatite_rect,6,2.089,0,5,0,5,0,1,,,,,,,,,,,,,
6630f09152503f6a1c3130c5,SCN,2024-06-24_15h28.07.915,LearnStrategy,2023.2.3,MacIntel,120.4819277,2,1,7,-0.391645999,0.40452629,1,0,0,0.769,Pumice_05,8,05,6,2,0.769,0.335619213,-0.37962963,1,0,0,13.5647,Pumice_rect,8,13.565,1,6,0,6,0,1,,,,,,,,,,,,,
6630f09152503f6a1c3130c5,SCN,2024-06-24_15h28.07.915,LearnStrategy,2023.2.3,MacIntel,120.4819277,2,1,8,-0.397693452,0.254753638,1,0,0,0.6495,Peridotite_02,7,02,5,2,0.649,0.155456349,-0.248210152,1,0,0,2.9639,Diorite_rect,3,2.964,0,7,0,7,0,1,,,,,,,,,,,,,
6630f09152503f6a1c3130c5,SCN,2024-06-24_15h28.07.915,LearnStrategy,2023.2.3,MacIntel,120.4819277,2,1,9,-0.354761905,0.122313161,1,0,0,1.266,Obsidian_07,5,07,4,2,1.266,-0.390178571,-0.417757937,1,0,0,1.9719,Obsidian_rect,5,1.972,1,8,0,8,0,1,,,,,,,,,,,,,
6630f09152503f6a1c3130c5,SCN,2024-06-24_15h28.07.915,LearnStrategy,2023.2.3,MacIntel,120.4819277,2,1,10,-0.386917163,-0.111594742,1,0,0,1.1332,Gabbro_08,4,08,3,2,1.133,0.321970073,-0.399813988,1,0,0,0.714099999,Pumice_rect,8,0.714,0,9,0,9,0,1,,,,,,,,,,,,,
6630f09152503f6a1c3130c5,SCN,2024-06-24_15h28.07.915,LearnStrategy,2023.2.3,MacIntel,120.4819277,2,1,11,-0.382783565,-0.259999173,1,0,0,1.732299999,Andesite_01,1,01,2,2,1.732,-0.163372189,-0.266216104,1,0,0,1.0885,Basalt_rect,2,1.089,0,10,0,10,0,1,,,,,,,,,,,,,
6630f09152503f6a1c3130c5,SCN,2024-06-24_15h28.07.915,LearnStrategy,2023.2.3,MacIntel,120.4819277,2,1,12,-0.365715939,-0.409449405,1,0,0,1.4451,Pegmatite_09,6,09,1,2,1.445,-0.398313492,-0.409416336,1,0,0,2.064200001,Obsidian_rect,5,2.064,0,11,0,11,0,1,,,,,,,,,,,,,
6630f09152503f6a1c3130c5,SCN,2024-06-24_15h28.07.915,LearnStrategy,2023.2.3,MacIntel,120.4819277,2,1,13,-0.220039683,0.374028604,1,0,0,1.2725,Pumice_16,8,16,6,3,1.273,0.324859458,-0.391894015,1,0,0,1.143900001,Pumice_rect,8,1.144,1,12,0,12,0,1,,,,,,,,,,,,,
6630f09152503f6a1c3130c5,SCN,2024-06-24_15h28.07.915,LearnStrategy,2023.2.3,MacIntel,120.4819277,2,1,14,-0.205815972,0.302025463,1,0,0,0.6664,Diorite_14,3,14,5,3,0.666,0.140695271,-0.254332011,1,0,0,4.0389,Diorite_rect,3,4.039,1,13,0,13,0,1,,,,,,,,,,,,,
6630f09152503f6a1c3130c5,SCN,2024-06-24_15h28.07.915,LearnStrategy,2023.2.3,MacIntel,120.4819277,2,1,15,-0.233887235,0.095023148,1,0,0,6.141599999,Basalt_11,2,11,4,3,6.142,0.375231481,-0.269663525,1,0,0,1.7557,Gabbro_rect,4,1.756,0,14,0,14,0,1,,,,,,,,,,,,,
6630f09152503f6a1c3130c5,SCN,2024-06-24_15h28.07.915,LearnStrategy,2023.2.3,MacIntel,120.4819277,2,1,16,-0.206278935,-0.059416336,1,0,0,0.5954,Basalt_05,2,05,3,3,0.595,-0.14214203,-0.26177662,1,0,0,1.9637,Basalt_rect,2,1.964,1,15,0,15,0,1,,,,,,,,,,,,,
6630f09152503f6a1c3130c5,SCN,2024-06-24_15h28.07.915,LearnStrategy,2023.2.3,MacIntel,120.4819277,2,2,1,,,,,,,,3,02,,,,,,,,,,,6,27.845,0,,,,,,-0.168816138,-0.386371528,1,0,0,27.8451,Pegmatite_rect,0,0,0,0,1,
6630f09152503f6a1c3130c5,SCN,2024-06-24_15h28.07.915,LearnStrategy,2023.2.3,MacIntel,120.4819277,2,2,2,,,,,,,,1,14,,,,,,,,,,,1,6.737,1,,,,,,-0.369122024,-0.244717262,1,0,0,6.7369,Andesite_rect,1,0,1,0,1,
6630f09152503f6a1c3130c5,SCN,2024-06-24_15h28.07.915,LearnStrategy,2023.2.3,MacIntel,120.4819277,2,2,3,,,,,,,,6,15,,,,,,,,,,,6,10.363,1,,,,,,-0.10484871,-0.418377976,1,0,0,10.3629,Pegmatite_rect,2,0,2,0,1,
6630f09152503f6a1c3130c5,SCN,2024-06-24_15h28.07.915,LearnStrategy,2023.2.3,MacIntel,120.4819277,2,2,4,,,,,,,,5,08,,,,,,,,,,,5,1.762,1,,,,,,-0.323792989,-0.398528439,1,0,0,1.762099999,Obsidian_rect,3,0,3,0,1,
6630f09152503f6a1c3130c5,SCN,2024-06-24_15h28.07.915,LearnStrategy,2023.2.3,MacIntel,120.4819277,2,2,5,,,,,,,,5,02,,,,,,,,,,,5,0.69,1,,,,,,-0.324222884,-0.398528439,1,0,0,0.6899,Obsidian_rect,4,0,4,0,1,
6630f09152503f6a1c3130c5,SCN,2024-06-24_15h28.07.915,LearnStrategy,2023.2.3,MacIntel,120.4819277,2,2,6,,,,,,,,4,14,,,,,,,,,,,1,8.762,0,,,,,,-0.36313244,-0.259924769,1,0,0,8.7621,Andesite_rect,5,0,5,0,1,
6630f09152503f6a1c3130c5,SCN,2024-06-24_15h28.07.915,LearnStrategy,2023.2.3,MacIntel,120.4819277,2,2,7,,,,,,,,6,12,,,,,,,,,,,3,5.566,0,,,,,,0.169551918,-0.246184689,1,0,0,5.5663,Diorite_rect,6,0,6,0,1,
6630f09152503f6a1c3130c5,SCN,2024-06-24_15h28.07.915,LearnStrategy,2023.2.3,MacIntel,120.4819277,2,2,8,,,,,,,,2,10,,,,,,,,,,,2,2.978,1,,,,,,-0.131857639,-0.25400959,1,0,0,2.9778,Basalt_rect,7,0,7,0,1,
6630f09152503f6a1c3130c5,SCN,2024-06-24_15h28.07.915,LearnStrategy,2023.2.3,MacIntel,120.4819277,2,2,9,,,,,,,,4,01,,,,,,,,,,,4,7.528,1,,,,,,0.390802745,-0.2557333,1,0,0,7.5282,Gabbro_rect,8,0,8,0,1,
6630f09152503f6a1c3130c5,SCN,2024-06-24_15h28.07.915,LearnStrategy,2023.2.3,MacIntel,120.4819277,2,2,10,,,,,,,,3,06,,,,,,,,,,,6,7.587,0,,,,,,-0.087318122,-0.393328373,1,0,0,7.586900001,Pegmatite_rect,9,0,9,0,1,
6630f09152503f6a1c3130c5,SCN,2024-06-24_15h28.07.915,LearnStrategy,2023.2.3,MacIntel,120.4819277,2,2,11,,,,,,,,8,02,,,,,,,,,,,8,1.909,1,,,,,,0.418353175,-0.414880952,1,0,0,1.9094,Pumice_rect,10,0,10,0,1,
6630f09152503f6a1c3130c5,SCN,2024-06-24_15h28.07.915,LearnStrategy,2023.2.3,MacIntel,120.4819277,2,2,12,,,,,,,,7,10,,,,,,,,,,,7,11.686,1,,,,,,0.095911872,-0.405233135,1,0,0,11.686,Peridotite_rect,11,0,11,0,1,
6630f09152503f6a1c3130c5,SCN,2024-06-24_15h28.07.915,LearnStrategy,2023.2.3,MacIntel,120.4819277,2,2,13,,,,,,,,8,15,,,,,,,,,,,2,3.686,0,,,,,,-0.089463459,-0.249375827,1,0,0,3.6865,Basalt_rect,12,0,12,0,1,
6630f09152503f6a1c3130c5,SCN,2024-06-24_15h28.07.915,LearnStrategy,2023.2.3,MacIntel,120.4819277,2,2,14,,,,,,,,1,03,,,,,,,,,,,1,4.195,1,,,,,,-0.367733135,-0.239380787,1,0,0,4.1952,Andesite_rect,13,0,13,0,1,
6630f09152503f6a1c3130c5,SCN,2024-06-24_15h28.07.915,LearnStrategy,2023.2.3,MacIntel,120.4819277,2,2,15,,,,,,,,2,06,,,,,,,,,,,2,3.255,1,,,,,,-0.105357143,-0.248916997,1,0,0,3.2545,Basalt_rect,14,0,14,0,1,
6630f09152503f6a1c3130c5,SCN,2024-06-24_15h28.07.915,LearnStrategy,2023.2.3,MacIntel,120.4819277,2,2,16,,,,,,,,7,07,,,,,,,,,,,7,4.89,1,,,,,,0.134804894,-0.409275794,1,0,0,4.8895,Peridotite_rect,15,0,15,0,1,
6630f09152503f6a1c3130c5,SCN,2024-06-24_15h28.07.915,LearnStrategy,2023.2.3,MacIntel,120.4819277,3,1,1,0.416249173,0.097627315,1,0,0,5.331900001,Pegmatite_11,6,11,4,7,5.332,-0.143047288,-0.406936177,1,0,0,5.993,Pegmatite_rect,6,5.993,1,0,0,0,0,1,,,,,,,,,,,,,
6630f09152503f6a1c3130c5,SCN,2024-06-24_15h28.07.915,LearnStrategy,2023.2.3,MacIntel,120.4819277,3,1,2,0.104914848,-0.080787037,1,0,0,0.4245,Basalt_02,2,02,3,5,0.425,0.07671131,-0.231894841,1,0,0,0.5555,Diorite_rect,3,0.555,0,1,0,1,0,1,,,,,,,,,,,,,
6630f09152503f6a1c3130c5,SCN,2024-06-24_15h28.07.915,LearnStrategy,2023.2.3,MacIntel,120.4819277,3,1,3,0.095419974,-0.0817667,1,0,0,0.5329,Basalt_02,2,02,3,5,0.533,0.030877976,-0.250219081,1,0,0,0.597400001,Diorite_rect,3,0.597,0,2,0,2,0,1,,,,,,,,,,,,,
6630f09152503f6a1c3130c5,SCN,2024-06-24_15h28.07.915,LearnStrategy,2023.2.3,MacIntel,120.4819277,3,1,4,-0.065339782,-0.262210648,1,0,0,0.591299999,Obsidian_14,5,14,2,4,0.591,-0.328017526,-0.393125827,1,0,0,1.189299999,Obsidian_rect,5,1.189,1,3,0,3,0,1,,,,,,,,,,,,,
6630f09152503f6a1c3130c5,SCN,2024-06-24_15h28.07.915,LearnStrategy,2023.2.3,MacIntel,120.4819277,3,1,5,-0.064930556,0.059945437,1,0,0,0.5743,Pumice_14,8,14,4,4,0.574,-0.073697917,-0.241583995,1,0,0,1.0728,Basalt_rect,2,1.073,0,4,0,4,0,1,,,,,,,,,,,,,
6630f09152503f6a1c3130c5,SCN,2024-06-24_15h28.07.915,LearnStrategy,2023.2.3,MacIntel,120.4819277,3,1,6,0.409279927,0.259957837,1,0,0,1.141099999,Gabbro_15,4,15,5,7,1.141,0.096321098,-0.251628638,1,0,0,0.7724,Diorite_rect,3,0.772,0,5,0,5,0,1,,,,,,,,,,,,,
6630f09152503f6a1c3130c5,SCN,2024-06-24_15h28.07.915,LearnStrategy,2023.2.3,MacIntel,120.4819277,3,1,7,0.563231647,0.40452629,1,0,0,1.3996,Obsidian_11,5,11,6,8,1.4,-0.365046296,-0.399417163,1,0,0,1.088599999,Obsidian_rect,5,1.089,1,6,0,6,0,1,,,,,,,,,,,,,
6630f09152503f6a1c3130c5,SCN,2024-06-24_15h28.07.915,LearnStrategy,2023.2.3,MacIntel,120.4819277,3,1,8,0.20828373,-0.242881944,1,0,0,1.057700001,Pumice_06,8,06,2,6,1.058,0.341269841,-0.391166501,1,0,0,1.088700001,Pumice_rect,8,1.089,1,7,0,7,0,1,,,,,,,,,,,,,
6630f09152503f6a1c3130c5,SCN,2024-06-24_15h28.07.915,LearnStrategy,2023.2.3,MacIntel,120.4819277,3,1,9,0.388372189,-0.281667493,1,0,0,1.149400001,Pegmatite_16,6,16,2,7,1.149,0.169361772,-0.230187665,1,0,0,5.5387,Diorite_rect,3,5.539,0,8,0,8,0,1,,,,,,,,,,,,,
6630f09152503f6a1c3130c5,SCN,2024-06-24_15h28.07.915,LearnStrategy,2023.2.3,MacIntel,120.4819277,3,1,10,0.407543816,-0.256196263,1,0,0,1.1325,Pegmatite_16,6,16,2,7,1.133,0.17411541,-0.26000744,1,0,0,0.8887,Diorite_rect,3,0.889,0,9,0,9,0,1,,,,,,,,,,,,,
6630f09152503f6a1c3130c5,SCN,2024-06-24_15h28.07.915,LearnStrategy,2023.2.3,MacIntel,120.4819277,3,1,11,0.509722222,-0.416340112,1,0,0,1.031900001,Peridotite_06,7,06,1,8,1.032,0.119543651,-0.409250992,1,0,0,4.997,Peridotite_rect,7,4.997,1,10,0,10,0,1,,,,,,,,,,,,,
6630f09152503f6a1c3130c5,SCN,2024-06-24_15h28.07.915,LearnStrategy,2023.2.3,MacIntel,120.4819277,3,1,12,0.267584325,0.259573413,1,0,0,0.616099999,Gabbro_16,4,16,5,6,0.616,-0.142621528,-0.238082837,1,0,0,0.980599999,Basalt_rect,2,0.981,0,11,0,11,0,1,,,,,,,,,,,,,
6630f09152503f6a1c3130c5,SCN,2024-06-24_15h28.07.915,LearnStrategy,2023.2.3,MacIntel,120.4819277,3,1,13,0.445432374,0.239037698,1,0,0,0.958,Gabbro_15,4,15,5,7,0.958,0.347098214,-0.246164021,1,0,0,2.1386,Gabbro_rect,4,2.139,1,12,0,12,0,1,,,,,,,,,,,,,
6630f09152503f6a1c3130c5,SCN,2024-06-24_15h28.07.915,LearnStrategy,2023.2.3,MacIntel,120.4819277,3,1,14,0.275272817,0.250996197,1,0,0,0.765799999,Gabbro_16,4,16,5,6,0.766,0.326384755,-0.248474702,1,0,0,0.6894,Gabbro_rect,4,0.689,1,13,0,13,0,1,,,,,,,,,,,,,
6630f09152503f6a1c3130c5,SCN,2024-06-24_15h28.07.915,LearnStrategy,2023.2.3,MacIntel,120.4819277,3,1,15,0.445432374,0.281493882,1,0,0,0.5413,Gabbro_15,4,15,5,7,0.541,0.321325231,-0.254596561,1,0,0,1.4139,Gabbro_rect,4,1.414,1,14,0,14,0,1,,,,,,,,,,,,,
6630f09152503f6a1c3130c5,SCN,2024-06-24_15h28.07.915,LearnStrategy,2023.2.3,MacIntel,120.4819277,3,1,16,0.049958664,-0.111189649,1,0,0,0.741200001,Basalt_02,2,02,3,5,0.741,-0.11911789,-0.267179233,1,0,0,0.9225,Basalt_rect,2,0.923,1,15,0,15,0,1,,,,,,,,,,,,,
6630f09152503f6a1c3130c5,SCN,2024-06-24_15h28.07.915,LearnStrategy,2023.2.3,MacIntel,120.4819277,3,2,1,,,,,,,,7,15,,,,,,,,,,,7,4.007,1,,,,,,0.091211971,-0.41922123,1,0,0,4.007099999,Peridotite_rect,0,0,0,0,1,
6630f09152503f6a1c3130c5,SCN,2024-06-24_15h28.07.915,LearnStrategy,2023.2.3,MacIntel,120.4819277,3,2,2,,,,,,,,4,11,,,,,,,,,,,4,2.398,1,,,,,,0.360883763,-0.254398148,1,0,0,2.3976,Gabbro_rect,1,0,1,0,1,
6630f09152503f6a1c3130c5,SCN,2024-06-24_15h28.07.915,LearnStrategy,2023.2.3,MacIntel,120.4819277,3,2,3,,,,,,,,5,10,,,,,,,,,,,5,1.204,1,,,,,,-0.353149802,-0.385470403,1,0,0,1.2037,Obsidian_rect,2,0,2,0,1,
6630f09152503f6a1c3130c5,SCN,2024-06-24_15h28.07.915,LearnStrategy,2023.2.3,MacIntel,120.4819277,3,2,4,,,,,,,,8,03,,,,,,,,,,,8,1.647,1,,,,,,0.34504795,-0.413438327,1,0,0,1.647,Pumice_rect,3,0,3,0,1,
6630f09152503f6a1c3130c5,SCN,2024-06-24_15h28.07.915,LearnStrategy,2023.2.3,MacIntel,120.4819277,3,2,5,,,,,,,,3,12,,,,,,,,,,,3,3.613,1,,,,,,0.167716601,-0.269556052,1,0,0,3.6125,Diorite_rect,4,0,4,0,1,
6630f09152503f6a1c3130c5,SCN,2024-06-24_15h28.07.915,LearnStrategy,2023.2.3,MacIntel,120.4819277,3,2,6,,,,,,,,2,12,,,,,,,,,,,8,1.927,0,,,,,,0.315517526,-0.404551091,1,0,0,1.9274,Pumice_rect,5,0,5,0,1,
6630f09152503f6a1c3130c5,SCN,2024-06-24_15h28.07.915,LearnStrategy,2023.2.3,MacIntel,120.4819277,3,2,7,,,,,,,,1,02,,,,,,,,,,,1,3.704,1,,,,,,-0.405042989,-0.256138393,1,0,0,3.7036,Andesite_rect,6,0,6,0,1,
6630f09152503f6a1c3130c5,SCN,2024-06-24_15h28.07.915,LearnStrategy,2023.2.3,MacIntel,120.4819277,3,2,8,,,,,,,,5,09,,,,,,,,,,,5,1.063,1,,,,,,-0.475144676,-0.396176422,1,0,0,1.0627,Obsidian_rect,7,0,7,0,1,
6630f09152503f6a1c3130c5,SCN,2024-06-24_15h28.07.915,LearnStrategy,2023.2.3,MacIntel,120.4819277,3,2,9,,,,,,,,1,04,,,,,,,,,,,2,2.738,0,,,,,,-0.174739583,-0.253984788,1,0,0,2.738400001,Basalt_rect,8,0,8,0,1,
6630f09152503f6a1c3130c5,SCN,2024-06-24_15h28.07.915,LearnStrategy,2023.2.3,MacIntel,120.4819277,3,2,10,,,,,,,,2,09,,,,,,,,,,,2,0.886,1,,,,,,-0.174495701,-0.253984788,1,0,0,0.886,Basalt_rect,9,0,9,0,1,
6630f09152503f6a1c3130c5,SCN,2024-06-24_15h28.07.915,LearnStrategy,2023.2.3,MacIntel,120.4819277,3,2,11,,,,,,,,3,07,,,,,,,,,,,3,3.547,1,,,,,,0.101095403,-0.26531498,1,0,0,3.5473,Diorite_rect,10,0,10,0,1,
6630f09152503f6a1c3130c5,SCN,2024-06-24_15h28.07.915,LearnStrategy,2023.2.3,MacIntel,120.4819277,3,2,12,,,,,,,,8,04,,,,,,,,,,,8,1.093,1,,,,,,0.355394345,-0.406349206,1,0,0,1.093,Pumice_rect,11,0,11,0,1,
6630f09152503f6a1c3130c5,SCN,2024-06-24_15h28.07.915,LearnStrategy,2023.2.3,MacIntel,120.4819277,3,2,13,,,,,,,,6,07,,,,,,,,,,,7,8.173,0,,,,,,0.130191799,-0.399917328,1,0,0,8.1726,Peridotite_rect,12,0,12,0,1,
6630f09152503f6a1c3130c5,SCN,2024-06-24_15h28.07.915,LearnStrategy,2023.2.3,MacIntel,120.4819277,3,2,14,,,,,,,,7,16,,,,,,,,,,,7,7.853,1,,,,,,0.057990245,-0.39249752,1,0,0,7.8533,Peridotite_rect,13,0,13,0,1,
6630f09152503f6a1c3130c5,SCN,2024-06-24_15h28.07.915,LearnStrategy,2023.2.3,MacIntel,120.4819277,3,2,15,,,,,,,,4,10,,,,,,,,,,,4,3.303,1,,,,,,0.383969907,-0.23088211,1,0,0,3.3034,Gabbro_rect,14,0,14,0,1,
6630f09152503f6a1c3130c5,SCN,2024-06-24_15h28.07.915,LearnStrategy,2023.2.3,MacIntel,120.4819277,3,2,16,,,,,,,,6,10,,,,,,,,,,,7,7.324,0,,,,,,0.111954365,-0.404741237,1,0,0,7.3242,Peridotite_rect,15,0,15,0,1,
6630f09152503f6a1c3130c5,SCN,2024-06-24_15h28.07.915,LearnStrategy,2023.2.3,MacIntel,120.4819277,4,1,1,0.095903604,0.110160384,1,0,0,1.0331,Basalt_16,2,16,4,5,1.033,0.105683697,-0.249313823,1,0,0,0.9066,Diorite_rect,3,0.907,0,0,0,0,0,1,,,,,,,,,,,,,
6630f09152503f6a1c3130c5,SCN,2024-06-24_15h28.07.915,LearnStrategy,2023.2.3,MacIntel,120.4819277,4,1,2,0.049243552,0.080200066,1,0,0,0.6576,Basalt_16,2,16,4,5,0.658,-0.138004299,-0.233713624,1,0,0,0.6394,Basalt_rect,2,0.639,1,1,0,1,0,1,,,,,,,,,,,,,
6630f09152503f6a1c3130c5,SCN,2024-06-24_15h28.07.915,LearnStrategy,2023.2.3,MacIntel,120.4819277,4,1,3,-0.082109788,0.113525132,1,0,0,0.758,Pumice_14,8,14,4,4,0.758,0.403703704,-0.416021825,1,0,0,2.180900001,Pumice_rect,8,2.181,1,2,0,2,0,1,,,,,,,,,,,,,
6630f09152503f6a1c3130c5,SCN,2024-06-24_15h28.07.915,LearnStrategy,2023.2.3,MacIntel,120.4819277,4,1,4,-0.198797123,0.110912698,1,0,0,0.6409,Basalt_11,2,11,4,3,0.641,0.411102844,-0.248139881,1,0,0,0.9728,Gabbro_rect,4,0.973,0,3,0,3,0,1,,,,,,,,,,,,,
6630f09152503f6a1c3130c5,SCN,2024-06-24_15h28.07.915,LearnStrategy,2023.2.3,MacIntel,120.4819277,4,1,5,0.55145916,0.266364914,1,0,0,1.6411,Andesite_16,1,16,5,8,1.641,0.328149802,-0.250198413,1,0,0,1.522,Gabbro_rect,4,1.522,0,4,0,4,0,1,,,,,,,,,,,,,
6630f09152503f6a1c3130c5,SCN,2024-06-24_15h28.07.915,LearnStrategy,2023.2.3,MacIntel,120.4819277,4,1,6,0.190182705,0.102819114,1,0,0,0.9909,Diorite_11,3,11,4,6,0.991,-0.201165675,-0.404737103,1,0,0,1.3055,Pegmatite_rect,6,1.305,0,5,0,5,0,1,,,,,,,,,,,,,
6630f09152503f6a1c3130c5,SCN,2024-06-24_15h28.07.915,LearnStrategy,2023.2.3,MacIntel,120.4819277,4,1,7,0.37740162,-0.271626984,1,0,0,1.0325,Pegmatite_16,6,16,2,7,1.032,0.331543485,-0.421540179,1,0,0,0.831,Pumice_rect,8,0.831,0,6,0,6,0,1,,,,,,,,,,,,,
6630f09152503f6a1c3130c5,SCN,2024-06-24_15h28.07.915,LearnStrategy,2023.2.3,MacIntel,120.4819277,4,1,8,0.545229828,-0.085908565,1,0,0,1.3913,Diorite_15,3,15,3,8,1.391,0.385230655,-0.258825231,1,0,0,1.4395,Gabbro_rect,4,1.439,0,7,0,7,0,1,,,,,,,,,,,,,
6630f09152503f6a1c3130c5,SCN,2024-06-24_15h28.07.915,LearnStrategy,2023.2.3,MacIntel,120.4819277,4,1,9,0.402542163,0.432022983,1,0,0,0.741,Peridotite_08,7,08,6,7,0.741,0.06922123,-0.233126653,1,0,0,0.7721,Diorite_rect,3,0.772,0,8,0,8,0,1,,,,,,,,,,,,,
6630f09152503f6a1c3130c5,SCN,2024-06-24_15h28.07.915,LearnStrategy,2023.2.3,MacIntel,120.4819277,4,1,10,-0.55098793,0.422829861,1,0,0,2.6163,Andesite_05,1,05,6,1,2.616,0.124727183,-0.230667163,1,0,0,0.781299999,Diorite_rect,3,0.781,0,9,0,9,0,1,,,,,,,,,,,,,
6630f09152503f6a1c3130c5,SCN,2024-06-24_15h28.07.915,LearnStrategy,2023.2.3,MacIntel,120.4819277,4,1,11,0.039393188,0.371407903,1,0,0,1.3497,Pegmatite_05,6,05,6,5,1.35,-0.341025959,-0.394845403,1,0,0,1.422599999,Obsidian_rect,5,1.423,0,10,0,10,0,1,,,,,,,,,,,,,
6630f09152503f6a1c3130c5,SCN,2024-06-24_15h28.07.915,LearnStrategy,2023.2.3,MacIntel,120.4819277,4,1,12,0.552141204,0.230390212,1,0,0,1.224099999,Andesite_16,1,16,5,8,1.224,-0.375268684,-0.254877646,1,0,0,0.9644,Andesite_rect,1,0.964,1,11,0,11,0,1,,,,,,,,,,,,,
6630f09152503f6a1c3130c5,SCN,2024-06-24_15h28.07.915,LearnStrategy,2023.2.3,MacIntel,120.4819277,4,1,13,0.209399802,-0.120279431,1,0,0,2.4913,Andesite_09,1,09,3,6,2.491,-0.410350529,-0.264380787,1,0,0,1.143900001,Andesite_rect,1,1.144,1,12,0,12,0,1,,,,,,,,,,,,,
6630f09152503f6a1c3130c5,SCN,2024-06-24_15h28.07.915,LearnStrategy,2023.2.3,MacIntel,120.4819277,4,1,14,-0.24817295,0.069651124,1,0,0,1.090700001,Basalt_11,2,11,4,3,1.091,0.341658399,-0.390376984,1,0,0,1.847599999,Pumice_rect,8,1.848,0,13,0,13,0,1,,,,,,,,,,,,,
6630f09152503f6a1c3130c5,SCN,2024-06-24_15h28.07.915,LearnStrategy,2023.2.3,MacIntel,120.4819277,4,1,15,0.218526786,-0.132419808,1,0,0,1.0572,Andesite_09,1,09,3,6,1.057,-0.127674438,-0.248900463,1,0,0,0.6968,Basalt_rect,2,0.697,0,14,0,14,0,1,,,,,,,,,,,,,
6630f09152503f6a1c3130c5,SCN,2024-06-24_15h28.07.915,LearnStrategy,2023.2.3,MacIntel,120.4819277,4,1,16,-0.39781746,-0.24416336,1,0,0,1.057799999,Andesite_01,1,01,2,2,1.058,-0.39463459,-0.271990741,1,0,0,1.1647,Andesite_rect,1,1.165,1,15,0,15,0,1,,,,,,,,,,,,,
6630f09152503f6a1c3130c5,SCN,2024-06-24_15h28.07.915,LearnStrategy,2023.2.3,MacIntel,120.4819277,4,2,1,,,,,,,,5,16,,,,,,,,,,,5,1.106,1,,,,,,-0.341683201,-0.379336144,1,0,0,1.105599999,Obsidian_rect,0,0,0,0,1,
6630f09152503f6a1c3130c5,SCN,2024-06-24_15h28.07.915,LearnStrategy,2023.2.3,MacIntel,120.4819277,4,2,2,,,,,,,,3,16,,,,,,,,,,,3,5.131,1,,,,,,0.148776455,-0.247147817,1,0,0,5.1312,Diorite_rect,1,0,1,0,1,
6630f09152503f6a1c3130c5,SCN,2024-06-24_15h28.07.915,LearnStrategy,2023.2.3,MacIntel,120.4819277,4,2,3,,,,,,,,7,13,,,,,,,,,,,7,2.648,1,,,,,,0.10151703,-0.394799934,1,0,0,2.647900001,Peridotite_rect,2,0,2,0,1,
6630f09152503f6a1c3130c5,SCN,2024-06-24_15h28.07.915,LearnStrategy,2023.2.3,MacIntel,120.4819277,4,2,4,,,,,,,,4,01,,,,,,,,,,,4,4.447,1,,,,,,0.359441138,-0.261338459,1,0,0,4.4473,Gabbro_rect,3,0,3,0,1,
6630f09152503f6a1c3130c5,SCN,2024-06-24_15h28.07.915,LearnStrategy,2023.2.3,MacIntel,120.4819277,4,2,5,,,,,,,,1,03,,,,,,,,,,,4,1.339,0,,,,,,0.361681548,-0.258217593,1,0,0,1.338900001,Gabbro_rect,4,0,4,0,1,
6630f09152503f6a1c3130c5,SCN,2024-06-24_15h28.07.915,LearnStrategy,2023.2.3,MacIntel,120.4819277,4,2,6,,,,,,,,8,08,,,,,,,,,,,8,0.945,1,,,,,,0.320610119,-0.406642692,1,0,0,0.945099999,Pumice_rect,5,0,5,0,1,
6630f09152503f6a1c3130c5,SCN,2024-06-24_15h28.07.915,LearnStrategy,2023.2.3,MacIntel,120.4819277,4,2,7,,,,,,,,1,02,,,,,,,,,,,8,1.606,0,,,,,,0.353488757,-0.387504134,1,0,0,1.6061,Pumice_rect,6,0,6,0,1,
6630f09152503f6a1c3130c5,SCN,2024-06-24_15h28.07.915,LearnStrategy,2023.2.3,MacIntel,120.4819277,4,2,8,,,,,,,,8,03,,,,,,,,,,,8,0.779,1,,,,,,0.353488757,-0.385391865,1,0,0,0.7786,Pumice_rect,7,0,7,0,1,
6630f09152503f6a1c3130c5,SCN,2024-06-24_15h28.07.915,LearnStrategy,2023.2.3,MacIntel,120.4819277,4,2,9,,,,,,,,5,05,,,,,,,,,,,5,1.729,1,,,,,,-0.415190972,-0.411582341,1,0,0,1.7293,Obsidian_rect,8,0,8,0,1,
6630f09152503f6a1c3130c5,SCN,2024-06-24_15h28.07.915,LearnStrategy,2023.2.3,MacIntel,120.4819277,4,2,10,,,,,,,,2,14,,,,,,,,,,,1,3.848,0,,,,,,-0.476066468,-0.235061177,1,0,0,3.8476,Andesite_rect,9,0,9,0,1,
6630f09152503f6a1c3130c5,SCN,2024-06-24_15h28.07.915,LearnStrategy,2023.2.3,MacIntel,120.4819277,4,2,11,,,,,,,,4,14,,,,,,,,,,,4,1.431,1,,,,,,0.361371528,-0.264624669,1,0,0,1.4308,Gabbro_rect,10,0,10,0,1,
6630f09152503f6a1c3130c5,SCN,2024-06-24_15h28.07.915,LearnStrategy,2023.2.3,MacIntel,120.4819277,4,2,12,,,,,,,,6,07,,,,,,,,,,,7,1.172,0,,,,,,0.101434358,-0.402269345,1,0,0,1.172200001,Peridotite_rect,11,0,11,0,1,
6630f09152503f6a1c3130c5,SCN,2024-06-24_15h28.07.915,LearnStrategy,2023.2.3,MacIntel,120.4819277,4,2,13,,,,,,,,7,15,,,,,,,,,,,7,0.847,1,,,,,,0.046536045,-0.380605159,1,0,0,0.8471,Peridotite_rect,12,0,12,0,1,
6630f09152503f6a1c3130c5,SCN,2024-06-24_15h28.07.915,LearnStrategy,2023.2.3,MacIntel,120.4819277,4,2,14,,,,,,,,2,12,,,,,,,,,,,2,3.964,1,,,,,,-0.181270668,-0.268762401,1,0,0,3.9643,Basalt_rect,13,0,13,0,1,
6630f09152503f6a1c3130c5,SCN,2024-06-24_15h28.07.915,LearnStrategy,2023.2.3,MacIntel,120.4819277,4,2,15,,,,,,,,6,12,,,,,,,,,,,6,6.804,1,,,,,,-0.099875992,-0.412413194,1,0,0,6.8037,Pegmatite_rect,14,0,14,0,1,
6630f09152503f6a1c3130c5,SCN,2024-06-24_15h28.07.915,LearnStrategy,2023.2.3,MacIntel,120.4819277,4,2,16,,,,,,,,3,07,,,,,,,,,,,6,0.937,0,,,,,,-0.099875992,-0.412413194,1,0,0,0.937099999,Pegmatite_rect,15,0,15,0,1,
6630f09152503f6a1c3130c5,SCN,2024-06-24_15h28.07.915,LearnStrategy,2023.2.3,MacIntel,120.4819277,5,1,1,0.246180556,0.089124504,1,0,0,28.4446,Diorite_11,3,11,4,6,28.445,0.161135913,-0.265091766,1,0,0,2.4758,Diorite_rect,3,2.476,1,0,0,0,0,1,,,,,,,,,,,,,
6630f09152503f6a1c3130c5,SCN,2024-06-24_15h28.07.915,LearnStrategy,2023.2.3,MacIntel,120.4819277,5,1,2,0.101533565,-0.115273644,1,0,0,0.4743,Basalt_02,2,02,3,5,0.474,0.064008763,-0.229993386,1,0,0,0.7727,Diorite_rect,3,0.773,0,1,0,1,0,1,,,,,,,,,,,,,
6630f09152503f6a1c3130c5,SCN,2024-06-24_15h28.07.915,LearnStrategy,2023.2.3,MacIntel,120.4819277,5,1,3,-0.094882606,0.071341766,1,0,0,0.4995,Pumice_14,8,14,4,4,0.5,-0.051343419,-0.245560516,1,0,0,0.5812,Basalt_rect,2,0.581,0,2,0,2,0,1,,,,,,,,,,,,,
6630f09152503f6a1c3130c5,SCN,2024-06-24_15h28.07.915,LearnStrategy,2023.2.3,MacIntel,120.4819277,5,1,4,0.070903604,0.13322586,1,0,0,0.557900001,Basalt_16,2,16,4,5,0.558,0.082386739,-0.267241237,1,0,0,0.989400001,Diorite_rect,3,0.989,0,3,0,3,0,1,,,,,,,,,,,,,
6630f09152503f6a1c3130c5,SCN,2024-06-24_15h28.07.915,LearnStrategy,2023.2.3,MacIntel,120.4819277,5,1,5,-0.059015377,-0.119766865,1,0,0,0.4914,Andesite_07,1,07,3,4,0.491,-0.05349289,-0.409961971,1,0,0,0.663700001,Pegmatite_rect,6,0.664,0,4,0,4,0,1,,,,,,,,,,,,,
6630f09152503f6a1c3130c5,SCN,2024-06-24_15h28.07.915,LearnStrategy,2023.2.3,MacIntel,120.4819277,5,1,6,0.048218419,-0.364033565,1,0,0,0.882900001,Gabbro_03,4,03,1,5,0.883,0.101397156,-0.268241567,1,0,0,0.939,Diorite_rect,3,0.939,0,5,0,5,0,1,,,,,,,,,,,,,
6630f09152503f6a1c3130c5,SCN,2024-06-24_15h28.07.915,LearnStrategy,2023.2.3,MacIntel,120.4819277,5,1,7,0.067836475,-0.373623512,1,0,0,0.874299999,Gabbro_03,4,03,1,5,0.874,0.39052166,-0.239827216,1,0,0,1.0634,Gabbro_rect,4,1.063,1,6,0,6,0,1,,,,,,,,,,,,,
6630f09152503f6a1c3130c5,SCN,2024-06-24_15h28.07.915,LearnStrategy,2023.2.3,MacIntel,120.4819277,5,1,8,0.200372024,0.118307705,1,0,0,2.4997,Diorite_11,3,11,4,6,2.5,0.328633433,-0.260209987,1,0,0,1.7216,Gabbro_rect,4,1.722,0,7,0,7,0,1,,,,,,,,,,,,,
6630f09152503f6a1c3130c5,SCN,2024-06-24_15h28.07.915,LearnStrategy,2023.2.3,MacIntel,120.4819277,5,1,9,-0.370432374,0.135143849,1,0,0,0.8574,Obsidian_07,5,07,4,2,0.857,-0.338917824,-0.416439319,1,0,0,0.9892,Obsidian_rect,5,0.989,1,8,0,8,0,1,,,,,,,,,,,,,
6630f09152503f6a1c3130c5,SCN,2024-06-24_15h28.07.915,LearnStrategy,2023.2.3,MacIntel,120.4819277,5,1,10,0.050268684,0.0572958,1,0,0,0.9662,Basalt_16,2,16,4,5,0.966,-0.110644015,-0.24578373,1,0,0,0.872700001,Basalt_rect,2,0.873,1,9,0,9,0,1,,,,,,,,,,,,,
6630f09152503f6a1c3130c5,SCN,2024-06-24_15h28.07.915,LearnStrategy,2023.2.3,MacIntel,120.4819277,5,1,11,-0.094853671,-0.426901455,1,0,0,1.3326,Basalt_01,2,01,1,4,1.333,-0.120300099,-0.250690311,1,0,0,0.4644,Basalt_rect,2,0.464,1,10,0,10,0,1,,,,,,,,,,,,,
6630f09152503f6a1c3130c5,SCN,2024-06-24_15h28.07.915,LearnStrategy,2023.2.3,MacIntel,120.4819277,5,1,12,-0.393101025,-0.404828042,1,0,0,3.0079,Pegmatite_09,6,09,1,2,3.008,0.133246528,-0.415323247,1,0,0,0.6385,Peridotite_rect,7,0.639,0,11,0,11,0,1,,,,,,,,,,,,,
6630f09152503f6a1c3130c5,SCN,2024-06-24_15h28.07.915,LearnStrategy,2023.2.3,MacIntel,120.4819277,5,1,13,0.550950728,-0.251661706,1,0,0,1.233,Obsidian_06,5,06,2,8,1.233,-0.104398148,-0.412785218,1,0,0,1.3055,Pegmatite_rect,6,1.306,0,12,0,12,0,1,,,,,,,,,,,,,
6630f09152503f6a1c3130c5,SCN,2024-06-24_15h28.07.915,LearnStrategy,2023.2.3,MacIntel,120.4819277,5,1,14,0.43999256,0.098396164,1,0,0,2.4574,Pegmatite_11,6,11,4,7,2.457,0.039686673,-0.400351356,1,0,0,1.8809,Peridotite_rect,7,1.881,0,13,0,13,0,1,,,,,,,,,,,,,
6630f09152503f6a1c3130c5,SCN,2024-06-24_15h28.07.915,LearnStrategy,2023.2.3,MacIntel,120.4819277,5,1,15,-0.547962136,-0.093039021,1,0,0,0.9661,Pegmatite_08,6,08,3,1,0.966,-0.22843502,-0.395395172,1,0,0,0.5475,Pegmatite_rect,6,0.547,1,14,0,14,0,1,,,,,,,,,,,,,
6630f09152503f6a1c3130c5,SCN,2024-06-24_15h28.07.915,LearnStrategy,2023.2.3,MacIntel,120.4819277,5,1,16,-0.352864583,0.079976852,1,0,0,1.0505,Obsidian_07,5,07,4,2,1.051,-0.313409392,-0.404212136,1,0,0,0.8973,Obsidian_rect,5,0.897,1,15,0,15,0,1,,,,,,,,,,,,,
6630f09152503f6a1c3130c5,SCN,2024-06-24_15h28.07.915,LearnStrategy,2023.2.3,MacIntel,120.4819277,5,2,1,,,,,,,,7,10,,,,,,,,,,,7,4.6,1,,,,,,0.150454696,-0.392373512,1,0,0,4.6,Peridotite_rect,0,0,0,0,1,
6630f09152503f6a1c3130c5,SCN,2024-06-24_15h28.07.915,LearnStrategy,2023.2.3,MacIntel,120.4819277,5,2,2,,,,,,,,3,02,,,,,,,,,,,1,6.765,0,,,,,,-0.362934028,-0.241009425,1,0,0,6.7646,Andesite_rect,1,0,1,0,1,
6630f09152503f6a1c3130c5,SCN,2024-06-24_15h28.07.915,LearnStrategy,2023.2.3,MacIntel,120.4819277,5,2,3,,,,,,,,1,04,,,,,,,,,,,2,3.945,0,,,,,,-0.04963211,-0.258680556,1,0,0,3.944900001,Basalt_rect,2,0,2,0,1,
6630f09152503f6a1c3130c5,SCN,2024-06-24_15h28.07.915,LearnStrategy,2023.2.3,MacIntel,120.4819277,5,2,4,,,,,,,,7,16,,,,,,,,,,,7,1.809,1,,,,,,0.127215608,-0.401306217,1,0,0,1.8086,Peridotite_rect,3,0,3,0,1,
6630f09152503f6a1c3130c5,SCN,2024-06-24_15h28.07.915,LearnStrategy,2023.2.3,MacIntel,120.4819277,5,2,5,,,,,,,,4,10,,,,,,,,,,,2,5.12,0,,,,,,-0.204724702,-0.264079034,1,0,0,5.120400001,Basalt_rect,4,0,4,0,1,
6630f09152503f6a1c3130c5,SCN,2024-06-24_15h28.07.915,LearnStrategy,2023.2.3,MacIntel,120.4819277,5,2,6,,,,,,,,6,10,,,,,,,,,,,7,1.737,0,,,,,,0.035751488,-0.421924603,1,0,0,1.7374,Peridotite_rect,5,0,5,0,1,
6630f09152503f6a1c3130c5,SCN,2024-06-24_15h28.07.915,LearnStrategy,2023.2.3,MacIntel,120.4819277,5,2,7,,,,,,,,5,02,,,,,,,,,,,5,0.937,1,,,,,,-0.380435681,-0.401339286,1,0,0,0.9365,Obsidian_rect,6,0,6,0,1,
6630f09152503f6a1c3130c5,SCN,2024-06-24_15h28.07.915,LearnStrategy,2023.2.3,MacIntel,120.4819277,5,2,8,,,,,,,,8,04,,,,,,,,,,,8,1.356,1,,,,,,0.389951224,-0.403827712,1,0,0,1.3563,Pumice_rect,7,0,7,0,1,
6630f09152503f6a1c3130c5,SCN,2024-06-24_15h28.07.915,LearnStrategy,2023.2.3,MacIntel,120.4819277,5,2,9,,,,,,,,2,06,,,,,,,,,,,2,5.072,1,,,,,,-0.17485119,-0.252678571,1,0,0,5.072,Basalt_rect,8,0,8,0,1,
6630f09152503f6a1c3130c5,SCN,2024-06-24_15h28.07.915,LearnStrategy,2023.2.3,MacIntel,120.4819277,5,2,10,,,,,,,,2,10,,,,,,,,,,,2,0.754,1,,,,,,-0.17485119,-0.253178737,1,0,0,0.754099999,Basalt_rect,9,0,9,0,1,
6630f09152503f6a1c3130c5,SCN,2024-06-24_15h28.07.915,LearnStrategy,2023.2.3,MacIntel,120.4819277,5,2,11,,,,,,,,8,10,,,,,,,,,,,8,0.917,1,,,,,,0.485350529,-0.393861607,1,0,0,0.917,Pumice_rect,10,0,10,0,1,
6630f09152503f6a1c3130c5,SCN,2024-06-24_15h28.07.915,LearnStrategy,2023.2.3,MacIntel,120.4819277,5,2,12,,,,,,,,4,05,,,,,,,,,,,7,1.414,0,,,,,,0.051653439,-0.409771825,1,0,0,1.4143,Peridotite_rect,11,0,11,0,1,
6630f09152503f6a1c3130c5,SCN,2024-06-24_15h28.07.915,LearnStrategy,2023.2.3,MacIntel,120.4819277,5,2,13,,,,,,,,1,11,,,,,,,,,,,1,2.621,1,,,,,,-0.359577546,-0.23552414,1,0,0,2.621200001,Andesite_rect,12,0,12,0,1,
6630f09152503f6a1c3130c5,SCN,2024-06-24_15h28.07.915,LearnStrategy,2023.2.3,MacIntel,120.4819277,5,2,14,,,,,,,,5,10,,,,,,,,,,,5,1.012,1,,,,,,-0.306332672,-0.394932209,1,0,0,1.0123,Obsidian_rect,13,0,13,0,1,
6630f09152503f6a1c3130c5,SCN,2024-06-24_15h28.07.915,LearnStrategy,2023.2.3,MacIntel,120.4819277,5,2,15,,,,,,,,3,08,,,,,,,,,,,7,1.762,0,,,,,,0.10406746,-0.388938492,1,0,0,1.7622,Peridotite_rect,14,0,14,0,1,
6630f09152503f6a1c3130c5,SCN,2024-06-24_15h28.07.915,LearnStrategy,2023.2.3,MacIntel,120.4819277,5,2,16,,,,,,,,6,06,,,,,,,,,,,7,0.631,0,,,,,,0.096573247,-0.381481481,1,0,0,0.6311,Peridotite_rect,15,0,15,0,1,
6630f09152503f6a1c3130c5,SCN,2024-06-24_15h28.07.915,LearnStrategy,2023.2.3,MacIntel,120.4819277,6,1,1,0.245618386,0.089132771,1,0,0,5.261,Diorite_11,3,11,4,6,5.261,0.143803737,-0.259751157,1,0,0,0.7846,Diorite_rect,3,0.785,1,0,0,0,0,1,,,,,,,,,,,,,
6630f09152503f6a1c3130c5,SCN,2024-06-24_15h28.07.915,LearnStrategy,2023.2.3,MacIntel,120.4819277,6,1,2,-0.039455192,0.071598049,1,0,0,0.824599999,Pumice_14,8,14,4,4,0.825,0.095568783,-0.245874669,1,0,0,1.4812,Diorite_rect,3,1.481,0,1,0,1,0,1,,,,,,,,,,,,,
6630f09152503f6a1c3130c5,SCN,2024-06-24_15h28.07.915,LearnStrategy,2023.2.3,MacIntel,120.4819277,6,1,3,0.071664187,0.099627976,1,0,0,0.457799999,Basalt_16,2,16,4,5,0.458,0.114914021,-0.232461144,1,0,0,0.5726,Diorite_rect,3,0.573,0,2,0,2,0,1,,,,,,,,,,,,,
6630f09152503f6a1c3130c5,SCN,2024-06-24_15h28.07.915,LearnStrategy,2023.2.3,MacIntel,120.4819277,6,1,4,-0.223214286,0.093944279,1,0,0,0.6081,Basalt_11,2,11,4,3,0.608,0.372705853,-0.245564649,1,0,0,1.4395,Gabbro_rect,4,1.439,0,3,0,3,0,1,,,,,,,,,,,,,
6630f09152503f6a1c3130c5,SCN,2024-06-24_15h28.07.915,LearnStrategy,2023.2.3,MacIntel,120.4819277,6,1,5,0.262793485,0.083457341,1,0,0,0.5916,Diorite_11,3,11,4,6,0.592,-0.152786045,-0.230890377,1,0,0,0.656,Basalt_rect,2,0.656,0,4,0,4,0,1,,,,,,,,,,,,,
6630f09152503f6a1c3130c5,SCN,2024-06-24_15h28.07.915,LearnStrategy,2023.2.3,MacIntel,120.4819277,6,1,6,-0.207845569,0.080741567,1,0,0,0.6831,Basalt_11,2,11,4,3,0.683,-0.132506614,-0.230241402,1,0,0,0.5975,Basalt_rect,2,0.597,1,5,0,5,0,1,,,,,,,,,,,,,
6630f09152503f6a1c3130c5,SCN,2024-06-24_15h28.07.915,LearnStrategy,2023.2.3,MacIntel,120.4819277,6,1,7,0.108622685,0.116472388,1,0,0,0.5663,Basalt_16,2,16,4,5,0.566,-0.189525463,-0.264066634,1,0,0,0.580900001,Basalt_rect,2,0.581,1,6,0,6,0,1,,,,,,,,,,,,,
6630f09152503f6a1c3130c5,SCN,2024-06-24_15h28.07.915,LearnStrategy,2023.2.3,MacIntel,120.4819277,6,1,8,-0.516166501,0.087065972,1,0,0,0.7744,Pegmatite_13,6,13,4,1,0.774,0.095833333,-0.412264385,1,0,0,1.0308,Peridotite_rect,7,1.031,0,7,0,7,0,1,,,,,,,,,,,,,
6630f09152503f6a1c3130c5,SCN,2024-06-24_15h28.07.915,LearnStrategy,2023.2.3,MacIntel,120.4819277,6,1,9,0.445122354,0.084879299,1,0,0,0.7779,Pegmatite_11,6,11,4,7,0.778,-0.3520792,-0.398668981,1,0,0,1.0804,Obsidian_rect,5,1.08,0,8,0,8,0,1,,,,,,,,,,,,,
6630f09152503f6a1c3130c5,SCN,2024-06-24_15h28.07.915,LearnStrategy,2023.2.3,MacIntel,120.4819277,6,1,10,-0.533912037,0.096486442,1,0,0,0.957599999,Pegmatite_13,6,13,4,1,0.958,-0.398139881,-0.408221726,1,0,0,0.7304,Obsidian_rect,5,0.73,0,9,0,9,0,1,,,,,,,,,,,,,
6630f09152503f6a1c3130c5,SCN,2024-06-24_15h28.07.915,LearnStrategy,2023.2.3,MacIntel,120.4819277,6,1,11,-0.22337963,0.375797784,1,0,0,1.1662,Pumice_16,8,16,6,3,1.166,-0.171019345,-0.245465443,1,0,0,1.0476,Basalt_rect,2,1.048,0,10,0,10,0,1,,,,,,,,,,,,,
6630f09152503f6a1c3130c5,SCN,2024-06-24_15h28.07.915,LearnStrategy,2023.2.3,MacIntel,120.4819277,6,1,12,-0.212185847,0.400785384,1,0,0,0.690900001,Pumice_16,8,16,6,3,0.691,0.429786706,-0.39983879,1,0,0,1.422099999,Pumice_rect,8,1.422,1,11,0,11,0,1,,,,,,,,,,,,,
6630f09152503f6a1c3130c5,SCN,2024-06-24_15h28.07.915,LearnStrategy,2023.2.3,MacIntel,120.4819277,6,1,13,0.55719246,0.086354993,1,0,0,0.9157,Andesite_10,1,10,4,8,0.916,0.329497354,-0.269882606,1,0,0,0.8226,Gabbro_rect,4,0.823,0,12,0,12,0,1,,,,,,,,,,,,,
6630f09152503f6a1c3130c5,SCN,2024-06-24_15h28.07.915,LearnStrategy,2023.2.3,MacIntel,120.4819277,6,1,14,0.5713583,0.131498016,1,0,0,0.8411,Andesite_10,1,10,4,8,0.841,-0.45322834,-0.246680721,1,0,0,0.7973,Andesite_rect,1,0.797,1,13,0,13,0,1,,,,,,,,,,,,,
6630f09152503f6a1c3130c5,SCN,2024-06-24_15h28.07.915,LearnStrategy,2023.2.3,MacIntel,120.4819277,6,1,15,0.589781746,0.279823909,1,0,0,0.633,Andesite_16,1,16,5,8,0.633,-0.304753638,-0.238306052,1,0,0,1.2395,Andesite_rect,1,1.24,1,14,0,14,0,1,,,,,,,,,,,,,
6630f09152503f6a1c3130c5,SCN,2024-06-24_15h28.07.915,LearnStrategy,2023.2.3,MacIntel,120.4819277,6,1,16,0.52140377,-0.098520172,1,0,0,0.858400001,Diorite_15,3,15,3,8,0.858,-0.338148975,-0.255303406,1,0,0,1.172700001,Andesite_rect,1,1.173,0,15,0,15,0,1,,,,,,,,,,,,,
6630f09152503f6a1c3130c5,SCN,2024-06-24_15h28.07.915,LearnStrategy,2023.2.3,MacIntel,120.4819277,6,2,1,,,,,,,,4,12,,,,,,,,,,,4,1.408,1,,,,,,0.362280919,-0.245362103,1,0,0,1.407900001,Gabbro_rect,0,0,0,0,1,
6630f09152503f6a1c3130c5,SCN,2024-06-24_15h28.07.915,LearnStrategy,2023.2.3,MacIntel,120.4819277,6,2,2,,,,,,,,3,12,,,,,,,,,,,6,6.706,0,,,,,,-0.049727183,-0.418315972,1,0,0,6.7064,Pegmatite_rect,1,0,1,0,1,
6630f09152503f6a1c3130c5,SCN,2024-06-24_15h28.07.915,LearnStrategy,2023.2.3,MacIntel,120.4819277,6,2,3,,,,,,,,7,14,,,,,,,,,,,7,1.57,1,,,,,,0.069783399,-0.414347718,1,0,0,1.5701,Peridotite_rect,2,0,2,0,1,
6630f09152503f6a1c3130c5,SCN,2024-06-24_15h28.07.915,LearnStrategy,2023.2.3,MacIntel,120.4819277,6,2,4,,,,,,,,1,06,,,,,,,,,,,1,1.511,1,,,,,,-0.338529266,-0.258721892,1,0,0,1.510799999,Andesite_rect,3,0,3,0,1,
6630f09152503f6a1c3130c5,SCN,2024-06-24_15h28.07.915,LearnStrategy,2023.2.3,MacIntel,120.4819277,6,2,5,,,,,,,,1,14,,,,,,,,,,,3,2.362,0,,,,,,0.165141369,-0.251603836,1,0,0,2.362200001,Diorite_rect,4,0,4,0,1,
6630f09152503f6a1c3130c5,SCN,2024-06-24_15h28.07.915,LearnStrategy,2023.2.3,MacIntel,120.4819277,6,2,6,,,,,,,,2,08,,,,,,,,,,,2,1.263,1,,,,,,-0.055952381,-0.258602017,1,0,0,1.262700001,Basalt_rect,5,0,5,0,1,
6630f09152503f6a1c3130c5,SCN,2024-06-24_15h28.07.915,LearnStrategy,2023.2.3,MacIntel,120.4819277,6,2,7,,,,,,,,6,03,,,,,,,,,,,7,2.579,0,,,,,,0.06838211,-0.400954861,1,0,0,2.5785,Peridotite_rect,6,0,6,0,1,
6630f09152503f6a1c3130c5,SCN,2024-06-24_15h28.07.915,LearnStrategy,2023.2.3,MacIntel,120.4819277,6,2,8,,,,,,,,3,06,,,,,,,,,,,1,1.335,0,,,,,,-0.32974537,-0.246750992,1,0,0,1.3354,Andesite_rect,7,0,7,0,1,
6630f09152503f6a1c3130c5,SCN,2024-06-24_15h28.07.915,LearnStrategy,2023.2.3,MacIntel,120.4819277,6,2,9,,,,,,,,4,11,,,,,,,,,,,4,2.206,1,,,,,,0.417125496,-0.26640625,1,0,0,2.2057,Gabbro_rect,8,0,8,0,1,
6630f09152503f6a1c3130c5,SCN,2024-06-24_15h28.07.915,LearnStrategy,2023.2.3,MacIntel,120.4819277,6,2,10,,,,,,,,7,07,,,,,,,,,,,7,1.578,1,,,,,,0.13010086,-0.383089451,1,0,0,1.5785,Peridotite_rect,9,0,9,0,1,
6630f09152503f6a1c3130c5,SCN,2024-06-24_15h28.07.915,LearnStrategy,2023.2.3,MacIntel,120.4819277,6,2,11,,,,,,,,5,09,,,,,,,,,,,5,1.121,1,,,,,,-0.317133763,-0.390926753,1,0,0,1.121400001,Obsidian_rect,10,0,10,0,1,
6630f09152503f6a1c3130c5,SCN,2024-06-24_15h28.07.915,LearnStrategy,2023.2.3,MacIntel,120.4819277,6,2,12,,,,,,,,8,15,,,,,,,,,,,8,1.53,1,,,,,,0.47094494,-0.386830357,1,0,0,1.5298,Pumice_rect,11,0,11,0,1,
6630f09152503f6a1c3130c5,SCN,2024-06-24_15h28.07.915,LearnStrategy,2023.2.3,MacIntel,120.4819277,6,2,13,,,,,,,,6,15,,,,,,,,,,,7,1.745,0,,,,,,0.114050099,-0.394336971,1,0,0,1.7451,Peridotite_rect,12,0,12,0,1,
6630f09152503f6a1c3130c5,SCN,2024-06-24_15h28.07.915,LearnStrategy,2023.2.3,MacIntel,120.4819277,6,2,14,,,,,,,,2,09,,,,,,,,,,,2,4.486,1,,,,,,-0.081770833,-0.248677249,1,0,0,4.4863,Basalt_rect,13,0,13,0,1,
6630f09152503f6a1c3130c5,SCN,2024-06-24_15h28.07.915,LearnStrategy,2023.2.3,MacIntel,120.4819277,6,2,15,,,,,,,,8,02,,,,,,,,,,,8,1.579,1,,,,,,0.383597884,-0.404150132,1,0,0,1.578900001,Pumice_rect,14,0,14,0,1,
6630f09152503f6a1c3130c5,SCN,2024-06-24_15h28.07.915,LearnStrategy,2023.2.3,MacIntel,120.4819277,6,2,16,,,,,,,,5,08,,,,,,,,,,,5,2.128,1,,,,,,-0.352066799,-0.387243717,1,0,0,2.1277,Obsidian_rect,15,0,15,0,1,
6630f09152503f6a1c3130c5,SCN,2024-06-24_15h28.07.915,LearnStrategy,2023.2.3,MacIntel,120.4819277,7,1,1,0.228869048,0.086251653,1,0,0,86.7066,Diorite_11,3,11,4,6,86.707,-0.358143188,-0.23244461,1,0,0,1.4933,Andesite_rect,1,1.493,0,0,0,0,0,1,,,,,,,,,,,,,
6630f09152503f6a1c3130c5,SCN,2024-06-24_15h28.07.915,LearnStrategy,2023.2.3,MacIntel,120.4819277,7,1,2,-0.078244874,-0.124524636,1,0,0,0.8412,Andesite_07,1,07,3,4,0.841,-0.315277778,-0.234933036,1,0,0,0.5222,Andesite_rect,1,0.522,1,1,0,1,0,1,,,,,,,,,,,,,
6630f09152503f6a1c3130c5,SCN,2024-06-24_15h28.07.915,LearnStrategy,2023.2.3,MacIntel,120.4819277,7,1,3,0.238008433,0.107304067,1,0,0,0.6329,Diorite_11,3,11,4,6,0.633,-0.321875,-0.236235119,1,0,0,1.3225,Andesite_rect,1,1.322,0,2,0,2,0,1,,,,,,,,,,,,,
6630f09152503f6a1c3130c5,SCN,2024-06-24_15h28.07.915,LearnStrategy,2023.2.3,MacIntel,120.4819277,7,1,4,-0.203463955,-0.11630291,1,0,0,0.7826,Basalt_05,2,05,3,3,0.783,-0.157874504,-0.240083499,1,0,0,0.922599999,Basalt_rect,2,0.923,1,3,0,3,0,1,,,,,,,,,,,,,
6630f09152503f6a1c3130c5,SCN,2024-06-24_15h28.07.915,LearnStrategy,2023.2.3,MacIntel,120.4819277,7,1,5,-0.079976852,-0.410309193,1,0,0,0.757900001,Basalt_01,2,01,1,4,0.758,-0.074516369,-0.255898644,1,0,0,0.8644,Basalt_rect,2,0.864,1,4,0,4,0,1,,,,,,,,,,,,,
6630f09152503f6a1c3130c5,SCN,2024-06-24_15h28.07.915,LearnStrategy,2023.2.3,MacIntel,120.4819277,7,1,6,0.440666336,-0.064302249,1,0,0,0.7333,Peridotite_05,7,05,3,7,0.733,0.082845569,-0.409027778,1,0,0,1.6974,Peridotite_rect,7,1.697,1,5,0,5,0,1,,,,,,,,,,,,,
6630f09152503f6a1c3130c5,SCN,2024-06-24_15h28.07.915,LearnStrategy,2023.2.3,MacIntel,120.4819277,7,1,7,0.054840443,-0.091001157,1,0,0,0.599,Basalt_02,2,02,3,5,0.599,-0.322883598,-0.261784888,1,0,0,1.2228,Andesite_rect,1,1.223,0,6,0,6,0,1,,,,,,,,,,,,,
6630f09152503f6a1c3130c5,SCN,2024-06-24_15h28.07.915,LearnStrategy,2023.2.3,MacIntel,120.4819277,7,1,8,0.564980159,0.098363095,1,0,0,0.8494,Andesite_10,1,10,4,8,0.849,0.411565807,-0.264281581,1,0,0,0.5476,Gabbro_rect,4,0.548,0,7,0,7,0,1,,,,,,,,,,,,,
6630f09152503f6a1c3130c5,SCN,2024-06-24_15h28.07.915,LearnStrategy,2023.2.3,MacIntel,120.4819277,7,1,9,0.355977183,0.392179233,1,0,0,2.1495,Peridotite_08,7,08,6,7,2.149,0.320597718,-0.243237434,1,0,0,1.0137,Gabbro_rect,4,1.014,0,8,0,8,0,1,,,,,,,,,,,,,
6630f09152503f6a1c3130c5,SCN,2024-06-24_15h28.07.915,LearnStrategy,2023.2.3,MacIntel,120.4819277,7,1,10,-0.215480324,-0.289112103,1,0,0,0.7992,Peridotite_04,7,04,2,3,0.799,0.069663525,-0.387872024,1,0,0,0.9306,Peridotite_rect,7,0.931,1,9,0,9,0,1,,,,,,,,,,,,,
6630f09152503f6a1c3130c5,SCN,2024-06-24_15h28.07.915,LearnStrategy,2023.2.3,MacIntel,120.4819277,7,1,11,-0.356498016,-0.28515625,1,0,0,1.1577,Andesite_01,1,01,2,2,1.158,-0.367542989,-0.257808366,1,0,0,0.6392,Andesite_rect,1,0.639,1,10,0,10,0,1,,,,,,,,,,,,,
6630f09152503f6a1c3130c5,SCN,2024-06-24_15h28.07.915,LearnStrategy,2023.2.3,MacIntel,120.4819277,7,1,12,-0.525731647,0.081374008,1,0,0,1.3245,Pegmatite_13,6,13,4,1,1.325,0.071598049,-0.407895172,1,0,0,0.747599999,Peridotite_rect,7,0.748,0,11,0,11,0,1,,,,,,,,,,,,,
6630f09152503f6a1c3130c5,SCN,2024-06-24_15h28.07.915,LearnStrategy,2023.2.3,MacIntel,120.4819277,7,1,13,-0.538566468,0.061553406,1,0,0,1.3495,Pegmatite_13,6,13,4,1,1.35,-0.16624504,-0.416836144,1,0,0,0.972599999,Pegmatite_rect,6,0.973,1,12,0,12,0,1,,,,,,,,,,,,,
6630f09152503f6a1c3130c5,SCN,2024-06-24_15h28.07.915,LearnStrategy,2023.2.3,MacIntel,120.4819277,7,1,14,0.069630456,0.114446925,1,0,0,0.567,Basalt_16,2,16,4,5,0.567,-0.110755622,-0.237570271,1,0,0,1.164400001,Basalt_rect,2,1.164,1,13,0,13,0,1,,,,,,,,,,,,,
6630f09152503f6a1c3130c5,SCN,2024-06-24_15h28.07.915,LearnStrategy,2023.2.3,MacIntel,120.4819277,7,1,15,0.05692791,0.075983796,1,0,0,0.5328,Basalt_16,2,16,4,5,0.533,-0.148656581,-0.252422288,1,0,0,0.5223,Basalt_rect,2,0.522,1,14,0,14,0,1,,,,,,,,,,,,,
6630f09152503f6a1c3130c5,SCN,2024-06-24_15h28.07.915,LearnStrategy,2023.2.3,MacIntel,120.4819277,7,1,16,0.04510582,0.100128142,1,0,0,0.5073,Basalt_16,2,16,4,5,0.507,-0.136416997,-0.251521164,1,0,0,0.4728,Basalt_rect,2,0.473,1,15,0,15,0,1,,,,,,,,,,,,,
6630f09152503f6a1c3130c5,SCN,2024-06-24_15h28.07.915,LearnStrategy,2023.2.3,MacIntel,120.4819277,7,2,1,,,,,,,,2,09,,,,,,,,,,,2,1.54,1,,,,,,-0.066687335,-0.253604497,1,0,0,1.5395,Basalt_rect,0,0,0,0,1,
6630f09152503f6a1c3130c5,SCN,2024-06-24_15h28.07.915,LearnStrategy,2023.2.3,MacIntel,120.4819277,7,2,2,,,,,,,,1,02,,,,,,,,,,,1,2.215,1,,,,,,-0.322908399,-0.248784722,1,0,0,2.2145,Andesite_rect,1,0,1,0,1,
6630f09152503f6a1c3130c5,SCN,2024-06-24_15h28.07.915,LearnStrategy,2023.2.3,MacIntel,120.4819277,7,2,3,,,,,,,,5,10,,,,,,,,,,,5,1.637,1,,,,,,-0.371428571,-0.386698082,1,0,0,1.6373,Obsidian_rect,2,0,2,0,1,
6630f09152503f6a1c3130c5,SCN,2024-06-24_15h28.07.915,LearnStrategy,2023.2.3,MacIntel,120.4819277,7,2,4,,,,,,,,6,03,,,,,,,,,,,7,1.255,0,,,,,,0.122726521,-0.411743552,1,0,0,1.2545,Peridotite_rect,3,0,3,0,1,
6630f09152503f6a1c3130c5,SCN,2024-06-24_15h28.07.915,LearnStrategy,2023.2.3,MacIntel,120.4819277,7,2,5,,,,,,,,5,09,,,,,,,,,,,5,0.946,1,,,,,,-0.338562335,-0.399417163,1,0,0,0.945700001,Obsidian_rect,4,0,4,0,1,
6630f09152503f6a1c3130c5,SCN,2024-06-24_15h28.07.915,LearnStrategy,2023.2.3,MacIntel,120.4819277,7,2,6,,,,,,,,2,06,,,,,,,,,,,2,1.372,1,,,,,,-0.123995536,-0.24457672,1,0,0,1.372,Basalt_rect,5,0,5,0,1,
6630f09152503f6a1c3130c5,SCN,2024-06-24_15h28.07.915,LearnStrategy,2023.2.3,MacIntel,120.4819277,7,2,7,,,,,,,,1,04,,,,,,,,,,,1,1.162,1,,,,,,-0.393262235,-0.254427083,1,0,0,1.162,Andesite_rect,6,0,6,0,1,
6630f09152503f6a1c3130c5,SCN,2024-06-24_15h28.07.915,LearnStrategy,2023.2.3,MacIntel,120.4819277,7,2,8,,,,,,,,3,16,,,,,,,,,,,6,2.156,0,,,,,,-0.108163856,-0.405357143,1,0,0,2.1561,Pegmatite_rect,7,0,7,0,1,
6630f09152503f6a1c3130c5,SCN,2024-06-24_15h28.07.915,LearnStrategy,2023.2.3,MacIntel,120.4819277,7,2,9,,,,,,,,8,04,,,,,,,,,,,8,1.012,1,,,,,,0.406039187,-0.382514881,1,0,0,1.012299999,Pumice_rect,8,0,8,0,1,
6630f09152503f6a1c3130c5,SCN,2024-06-24_15h28.07.915,LearnStrategy,2023.2.3,MacIntel,120.4819277,7,2,10,,,,,,,,3,06,,,,,,,,,,,3,8.52,1,,,,,,0.209850364,-0.231448413,1,0,0,8.520400001,Diorite_rect,9,0,9,0,1,
6630f09152503f6a1c3130c5,SCN,2024-06-24_15h28.07.915,LearnStrategy,2023.2.3,MacIntel,120.4819277,7,2,11,,,,,,,,6,06,,,,,,,,,,,3,1.22,0,,,,,,0.209850364,-0.231965112,1,0,0,1.22,Diorite_rect,10,0,10,0,1,
6630f09152503f6a1c3130c5,SCN,2024-06-24_15h28.07.915,LearnStrategy,2023.2.3,MacIntel,120.4819277,7,2,12,,,,,,,,4,01,,,,,,,,,,,7,1.124,0,,,,,,0.103046462,-0.419188161,1,0,0,1.1235,Peridotite_rect,11,0,11,0,1,
6630f09152503f6a1c3130c5,SCN,2024-06-24_15h28.07.915,LearnStrategy,2023.2.3,MacIntel,120.4819277,7,2,13,,,,,,,,7,07,,,,,,,,,,,7,0.595,1,,,,,,0.102538029,-0.418940146,1,0,0,0.595400001,Peridotite_rect,12,0,12,0,1,
6630f09152503f6a1c3130c5,SCN,2024-06-24_15h28.07.915,LearnStrategy,2023.2.3,MacIntel,120.4819277,7,2,14,,,,,,,,4,14,,,,,,,,,,,6,1.136,0,,,,,,-0.088537533,-0.382643022,1,0,0,1.136400001,Pegmatite_rect,13,0,13,0,1,
6630f09152503f6a1c3130c5,SCN,2024-06-24_15h28.07.915,LearnStrategy,2023.2.3,MacIntel,120.4819277,7,2,15,,,,,,,,8,08,,,,,,,,,,,8,1.122,1,,,,,,0.391976687,-0.395188492,1,0,0,1.1216,Pumice_rect,14,0,14,0,1,
6630f09152503f6a1c3130c5,SCN,2024-06-24_15h28.07.915,LearnStrategy,2023.2.3,MacIntel,120.4819277,7,2,16,,,,,,,,7,14,,,,,,,,,,,7,1.37,1,,,,,,0.172255291,-0.397048611,1,0,0,1.369599999,Peridotite_rect,15,0,15,0,1,
6630f09152503f6a1c3130c5,SCN,2024-06-24_15h28.07.915,LearnStrategy,2023.2.3,MacIntel,120.4819277,8,1,1,0.059160053,-0.091005291,1,0,0,0.6413,Basalt_02,2,02,3,5,0.641,0.07109375,-0.251289683,1,0,0,0.9218,Diorite_rect,3,0.922,0,0,0,0,0,1,,,,,,,,,,,,,
6630f09152503f6a1c3130c5,SCN,2024-06-24_15h28.07.915,LearnStrategy,2023.2.3,MacIntel,120.4819277,8,1,2,0.256750165,-0.081890708,1,0,0,0.557599999,Andesite_09,1,09,3,6,0.558,0.350673776,-0.243386243,1,0,0,2.3728,Gabbro_rect,4,2.373,0,1,0,1,0,1,,,,,,,,,,,,,
6630f09152503f6a1c3130c5,SCN,2024-06-24_15h28.07.915,LearnStrategy,2023.2.3,MacIntel,120.4819277,8,1,3,-0.059961971,-0.045428241,1,0,0,0.5825,Andesite_07,1,07,3,4,0.582,-0.067811673,-0.228984788,1,0,0,1.255599999,Basalt_rect,2,1.256,0,2,0,2,0,1,,,,,,,,,,,,,
6630f09152503f6a1c3130c5,SCN,2024-06-24_15h28.07.915,LearnStrategy,2023.2.3,MacIntel,120.4819277,8,1,4,-0.199107143,-0.082419808,1,0,0,0.832299999,Basalt_05,2,05,3,3,0.832,-0.107097388,-0.25014881,1,0,0,1.0887,Basalt_rect,2,1.089,1,3,0,3,0,1,,,,,,,,,,,,,
6630f09152503f6a1c3130c5,SCN,2024-06-24_15h28.07.915,LearnStrategy,2023.2.3,MacIntel,120.4819277,8,1,5,-0.370159557,0.252008929,1,0,0,1.6203,Peridotite_02,7,02,5,2,1.62,-0.347280093,-0.264715608,1,0,0,1.6555,Andesite_rect,1,1.655,0,4,0,4,0,1,,,,,,,,,,,,,
6630f09152503f6a1c3130c5,SCN,2024-06-24_15h28.07.915,LearnStrategy,2023.2.3,MacIntel,120.4819277,8,1,6,0.525429894,0.231584821,1,0,0,1.3155,Andesite_16,1,16,5,8,1.316,0.137380126,-0.26229332,1,0,0,1.0559,Diorite_rect,3,1.056,0,5,0,5,0,1,,,,,,,,,,,,,
6630f09152503f6a1c3130c5,SCN,2024-06-24_15h28.07.915,LearnStrategy,2023.2.3,MacIntel,120.4819277,8,1,7,0.048937665,0.082105655,1,0,0,0.5157,Basalt_16,2,16,4,5,0.516,-0.115901951,-0.259408069,1,0,0,0.655400001,Basalt_rect,2,0.655,1,6,0,6,0,1,,,,,,,,,,,,,
6630f09152503f6a1c3130c5,SCN,2024-06-24_15h28.07.915,LearnStrategy,2023.2.3,MacIntel,120.4819277,8,1,8,0.034780093,0.066823743,1,0,0,0.5575,Basalt_16,2,16,4,5,0.557,-0.153253142,-0.255749835,1,0,0,0.963799999,Basalt_rect,2,0.964,1,7,0,7,0,1,,,,,,,,,,,,,
6630f09152503f6a1c3130c5,SCN,2024-06-24_15h28.07.915,LearnStrategy,2023.2.3,MacIntel,120.4819277,8,1,9,-0.534651951,-0.456059854,1,0,0,0.641400001,Diorite_09,3,09,1,1,0.641,-0.170841601,-0.265629134,1,0,0,0.754700001,Basalt_rect,2,0.755,0,8,0,8,0,1,,,,,,,,,,,,,
6630f09152503f6a1c3130c5,SCN,2024-06-24_15h28.07.915,LearnStrategy,2023.2.3,MacIntel,120.4819277,8,1,10,0.222846396,0.367596726,1,0,0,1.299700001,Obsidian_04,5,04,6,6,1.3,-0.374574239,-0.401632771,1,0,0,0.6723,Obsidian_rect,5,0.672,1,9,0,9,0,1,,,,,,,,,,,,,
6630f09152503f6a1c3130c5,SCN,2024-06-24_15h28.07.915,LearnStrategy,2023.2.3,MacIntel,120.4819277,8,1,11,-0.238322586,-0.39942543,1,0,0,0.758,Obsidian_12,5,12,1,3,0.758,-0.434391534,-0.419688327,1,0,0,0.3978,Obsidian_rect,5,0.398,1,10,0,10,0,1,,,,,,,,,,,,,
6630f09152503f6a1c3130c5,SCN,2024-06-24_15h28.07.915,LearnStrategy,2023.2.3,MacIntel,120.4819277,8,1,12,-0.103728505,-0.282940642,1,0,0,0.7491,Obsidian_14,5,14,2,4,0.749,-0.421292163,-0.416984954,1,0,0,0.4887,Obsidian_rect,5,0.489,1,11,0,11,0,1,,,,,,,,,,,,,
6630f09152503f6a1c3130c5,SCN,2024-06-24_15h28.07.915,LearnStrategy,2023.2.3,MacIntel,120.4819277,8,1,13,-0.204675099,-0.397933201,1,0,0,0.6829,Obsidian_12,5,12,1,3,0.683,-0.382250331,-0.403137401,1,0,0,0.4553,Obsidian_rect,5,0.455,1,12,0,12,0,1,,,,,,,,,,,,,
6630f09152503f6a1c3130c5,SCN,2024-06-24_15h28.07.915,LearnStrategy,2023.2.3,MacIntel,120.4819277,8,1,14,-0.283816964,-0.442898479,1,0,0,1.1664,Obsidian_12,5,12,1,3,1.166,-0.177323082,-0.390137235,1,0,0,0.405400001,Pegmatite_rect,6,0.405,0,13,0,13,0,1,,,,,,,,,,,,,
6630f09152503f6a1c3130c5,SCN,2024-06-24_15h28.07.915,LearnStrategy,2023.2.3,MacIntel,120.4819277,8,1,15,-0.237161045,-0.114839616,1,0,0,0.5825,Basalt_05,2,05,3,3,0.582,-0.161425265,-0.254063327,1,0,0,0.8304,Basalt_rect,2,0.83,1,14,0,14,0,1,,,,,,,,,,,,,
6630f09152503f6a1c3130c5,SCN,2024-06-24_15h28.07.915,LearnStrategy,2023.2.3,MacIntel,120.4819277,8,1,16,-0.207601687,-0.092815807,1,0,0,0.5413,Basalt_05,2,05,3,3,0.541,-0.151211144,-0.262243717,1,0,0,1.031,Basalt_rect,2,1.031,1,15,0,15,0,1,,,,,,,,,,,,,
6630f09152503f6a1c3130c5,SCN,2024-06-24_15h28.07.915,LearnStrategy,2023.2.3,MacIntel,120.4819277,8,2,1,,,,,,,,4,05,,,,,,,,,,,3,8.831,0,,,,,,0.145056217,-0.251078869,1,0,0,8.831099999,Diorite_rect,0,0,0,0,1,
6630f09152503f6a1c3130c5,SCN,2024-06-24_15h28.07.915,LearnStrategy,2023.2.3,MacIntel,120.4819277,8,2,2,,,,,,,,1,11,,,,,,,,,,,3,3.071,0,,,,,,0.044233631,-0.266918816,1,0,0,3.071400001,Diorite_rect,1,0,1,0,1,
6630f09152503f6a1c3130c5,SCN,2024-06-24_15h28.07.915,LearnStrategy,2023.2.3,MacIntel,120.4819277,8,2,3,,,,,,,,1,03,,,,,,,,,,,1,1.067,1,,,,,,-0.377124669,-0.263244048,1,0,0,1.067400001,Andesite_rect,2,0,2,0,1,
6630f09152503f6a1c3130c5,SCN,2024-06-24_15h28.07.915,LearnStrategy,2023.2.3,MacIntel,120.4819277,8,2,4,,,,,,,,5,16,,,,,,,,,,,5,1.173,1,,,,,,-0.389099702,-0.400033069,1,0,0,1.1729,Obsidian_rect,3,0,3,0,1,
6630f09152503f6a1c3130c5,SCN,2024-06-24_15h28.07.915,LearnStrategy,2023.2.3,MacIntel,120.4819277,8,2,5,,,,,,,,7,13,,,,,,,,,,,7,1.171,1,,,,,,0.106675761,-0.405464616,1,0,0,1.1708,Peridotite_rect,4,0,4,0,1,
6630f09152503f6a1c3130c5,SCN,2024-06-24_15h28.07.915,LearnStrategy,2023.2.3,MacIntel,120.4819277,8,2,6,,,,,,,,7,15,,,,,,,,,,,7,0.767,1,,,,,,0.107485946,-0.406783234,1,0,0,0.7674,Peridotite_rect,5,0,5,0,1,
6630f09152503f6a1c3130c5,SCN,2024-06-24_15h28.07.915,LearnStrategy,2023.2.3,MacIntel,120.4819277,8,2,7,,,,,,,,5,05,,,,,,,,,,,5,1.459,1,,,,,,-0.329728836,-0.387053571,1,0,0,1.458700001,Obsidian_rect,6,0,6,0,1,
6630f09152503f6a1c3130c5,SCN,2024-06-24_15h28.07.915,LearnStrategy,2023.2.3,MacIntel,120.4819277,8,2,8,,,,,,,,3,12,,,,,,,,,,,6,1.863,0,,,,,,-0.195763062,-0.408308532,1,0,0,1.863400001,Pegmatite_rect,7,0,7,0,1,
6630f09152503f6a1c3130c5,SCN,2024-06-24_15h28.07.915,LearnStrategy,2023.2.3,MacIntel,120.4819277,8,2,9,,,,,,,,8,10,,,,,,,,,,,8,1.099,1,,,,,,0.368320106,-0.412347057,1,0,0,1.099,Pumice_rect,8,0,8,0,1,
6630f09152503f6a1c3130c5,SCN,2024-06-24_15h28.07.915,LearnStrategy,2023.2.3,MacIntel,120.4819277,8,2,10,,,,,,,,3,08,,,,,,,,,,,3,2.565,1,,,,,,0.170903604,-0.266389716,1,0,0,2.564700001,Diorite_rect,9,0,9,0,1,
6630f09152503f6a1c3130c5,SCN,2024-06-24_15h28.07.915,LearnStrategy,2023.2.3,MacIntel,120.4819277,8,2,11,,,,,,,,2,08,,,,,,,,,,,2,1.079,1,,,,,,-0.036437665,-0.253736772,1,0,0,1.078900001,Basalt_rect,10,0,10,0,1,
6630f09152503f6a1c3130c5,SCN,2024-06-24_15h28.07.915,LearnStrategy,2023.2.3,MacIntel,120.4819277,8,2,12,,,,,,,,6,15,,,,,,,,,,,6,1.413,1,,,,,,-0.158721892,-0.390224041,1,0,0,1.4131,Pegmatite_rect,11,0,11,0,1,
6630f09152503f6a1c3130c5,SCN,2024-06-24_15h28.07.915,LearnStrategy,2023.2.3,MacIntel,120.4819277,8,2,13,,,,,,,,6,12,,,,,,,,,,,6,1.47,1,,,,,,-0.158721892,-0.390224041,1,0,0,1.4704,Pegmatite_rect,12,0,12,0,1,
6630f09152503f6a1c3130c5,SCN,2024-06-24_15h28.07.915,LearnStrategy,2023.2.3,MacIntel,120.4819277,8,2,14,,,,,,,,2,14,,,,,,,,,,,1,2.199,0,,,,,,-0.323557374,-0.269742063,1,0,0,2.1991,Andesite_rect,13,0,13,0,1,
6630f09152503f6a1c3130c5,SCN,2024-06-24_15h28.07.915,LearnStrategy,2023.2.3,MacIntel,120.4819277,8,2,15,,,,,,,,4,11,,,,,,,,,,,4,2.614,1,,,,,,0.407465278,-0.25932953,1,0,0,2.614400001,Gabbro_rect,14,0,14,0,1,
6630f09152503f6a1c3130c5,SCN,2024-06-24_15h28.07.915,LearnStrategy,2023.2.3,MacIntel,120.4819277,8,2,16,,,,,,,,8,03,,,,,,,,,,,8,1.038,1,,,,,,0.310102513,-0.398284557,1,0,0,1.0377,Pumice_rect,15,0,15,0,1,
6630f09152503f6a1c3130c5,SCN,2024-06-24_15h28.07.915,LearnStrategy,2023.2.3,MacIntel,120.4819277,9,1,1,0.096180556,0.096399636,1,0,0,0.6159,Basalt_16,2,16,4,5,0.616,-0.128658234,-0.261900628,1,0,0,1.147099999,Basalt_rect,2,1.147,1,0,0,0,0,1,,,,,,,,,,,,,
6630f09152503f6a1c3130c5,SCN,2024-06-24_15h28.07.915,LearnStrategy,2023.2.3,MacIntel,120.4819277,9,1,2,-0.071449239,0.090397652,1,0,0,0.516,Pumice_14,8,14,4,4,0.516,-0.088864087,-0.244018684,1,0,0,0.5889,Basalt_rect,2,0.589,0,1,0,1,0,1,,,,,,,,,,,,,
6630f09152503f6a1c3130c5,SCN,2024-06-24_15h28.07.915,LearnStrategy,2023.2.3,MacIntel,120.4819277,9,1,3,-0.061297123,-0.063624339,1,0,0,0.475299999,Andesite_07,1,07,3,4,0.475,-0.083486276,-0.230415013,1,0,0,0.489099999,Basalt_rect,2,0.489,0,2,0,2,0,1,,,,,,,,,,,,,
6630f09152503f6a1c3130c5,SCN,2024-06-24_15h28.07.915,LearnStrategy,2023.2.3,MacIntel,120.4819277,9,1,4,0.09749504,-0.138657407,1,0,0,0.7328,Basalt_02,2,02,3,5,0.733,0.094948743,-0.267055225,1,0,0,0.7725,Diorite_rect,3,0.773,0,3,0,3,0,1,,,,,,,,,,,,,
6630f09152503f6a1c3130c5,SCN,2024-06-24_15h28.07.915,LearnStrategy,2023.2.3,MacIntel,120.4819277,9,1,5,-0.211747685,0.079865245,1,0,0,0.9497,Basalt_11,2,11,4,3,0.95,-0.382510747,-0.24432457,1,0,0,2.3227,Andesite_rect,1,2.323,0,4,0,4,0,1,,,,,,,,,,,,,
6630f09152503f6a1c3130c5,SCN,2024-06-24_15h28.07.915,LearnStrategy,2023.2.3,MacIntel,120.4819277,9,1,6,0.06021412,0.213231647,1,0,0,0.766099999,Diorite_13,3,13,5,5,0.766,-0.116505456,-0.387198247,1,0,0,2.397700001,Pegmatite_rect,6,2.398,0,5,0,5,0,1,,,,,,,,,,,,,
6630f09152503f6a1c3130c5,SCN,2024-06-24_15h28.07.915,LearnStrategy,2023.2.3,MacIntel,120.4819277,9,1,7,0.219861938,0.072970403,1,0,0,1.074400001,Diorite_11,3,11,4,6,1.074,0.071887401,-0.270655589,1,0,0,1.0393,Diorite_rect,3,1.039,1,6,0,6,0,1,,,,,,,,,,,,,
6630f09152503f6a1c3130c5,SCN,2024-06-24_15h28.07.915,LearnStrategy,2023.2.3,MacIntel,120.4819277,9,1,8,-0.052290013,-0.10844494,1,0,0,0.574099999,Andesite_07,1,07,3,4,0.574,-0.337719081,-0.237805886,1,0,0,0.9895,Andesite_rect,1,0.989,1,7,0,7,0,1,,,,,,,,,,,,,
6630f09152503f6a1c3130c5,SCN,2024-06-24_15h28.07.915,LearnStrategy,2023.2.3,MacIntel,120.4819277,9,1,9,0.07411541,0.252029597,1,0,0,0.6068,Diorite_13,3,13,5,5,0.607,0.108916171,-0.248350694,1,0,0,0.706200001,Diorite_rect,3,0.706,1,8,0,8,0,1,,,,,,,,,,,,,
6630f09152503f6a1c3130c5,SCN,2024-06-24_15h28.07.915,LearnStrategy,2023.2.3,MacIntel,120.4819277,9,1,10,-0.230625827,-0.252893519,1,0,0,1.1913,Peridotite_04,7,04,2,3,1.191,0.06958912,-0.412214782,1,0,0,0.9395,Peridotite_rect,7,0.939,1,9,0,9,0,1,,,,,,,,,,,,,
6630f09152503f6a1c3130c5,SCN,2024-06-24_15h28.07.915,LearnStrategy,2023.2.3,MacIntel,120.4819277,9,1,11,0.403430886,0.234738757,1,0,0,0.7828,Gabbro_15,4,15,5,7,0.783,0.083072917,-0.414438657,1,0,0,0.781099999,Peridotite_rect,7,0.781,0,10,0,10,0,1,,,,,,,,,,,,,
6630f09152503f6a1c3130c5,SCN,2024-06-24_15h28.07.915,LearnStrategy,2023.2.3,MacIntel,120.4819277,9,1,12,0.107105655,0.271304563,1,0,0,0.6412,Diorite_13,3,13,5,5,0.641,-0.12911293,-0.254811508,1,0,0,0.8395,Basalt_rect,2,0.84,0,11,0,11,0,1,,,,,,,,,,,,,
6630f09152503f6a1c3130c5,SCN,2024-06-24_15h28.07.915,LearnStrategy,2023.2.3,MacIntel,120.4819277,9,1,13,-0.065893684,0.077124669,1,0,0,0.8413,Pumice_14,8,14,4,4,0.841,0.370862269,-0.244146825,1,0,0,1.0645,Gabbro_rect,4,1.064,0,12,0,12,0,1,,,,,,,,,,,,,
6630f09152503f6a1c3130c5,SCN,2024-06-24_15h28.07.915,LearnStrategy,2023.2.3,MacIntel,120.4819277,9,1,14,0.083854167,0.242042824,1,0,0,0.607599999,Diorite_13,3,13,5,5,0.608,0.084792493,-0.24958664,1,0,0,0.7644,Diorite_rect,3,0.764,1,13,0,13,0,1,,,,,,,,,,,,,
6630f09152503f6a1c3130c5,SCN,2024-06-24_15h28.07.915,LearnStrategy,2023.2.3,MacIntel,120.4819277,9,1,15,0.080510086,0.092654597,1,0,0,0.4328,Basalt_16,2,16,4,5,0.433,-0.140893684,-0.258275463,1,0,0,1.0562,Basalt_rect,2,1.056,1,14,0,14,0,1,,,,,,,,,,,,,
6630f09152503f6a1c3130c5,SCN,2024-06-24_15h28.07.915,LearnStrategy,2023.2.3,MacIntel,120.4819277,9,1,16,0.066736938,0.088603671,1,0,0,0.5323,Basalt_16,2,16,4,5,0.532,-0.113244048,-0.255865575,1,0,0,0.5895,Basalt_rect,2,0.59,1,15,0,15,0,1,,,,,,,,,,,,,
6630f09152503f6a1c3130c5,SCN,2024-06-24_15h28.07.915,LearnStrategy,2023.2.3,MacIntel,120.4819277,9,2,1,,,,,,,,5,08,,,,,,,,,,,5,1.037,1,,,,,,-0.359854497,-0.384809028,1,0,0,1.037099999,Obsidian_rect,0,0,0,0,1,
6630f09152503f6a1c3130c5,SCN,2024-06-24_15h28.07.915,LearnStrategy,2023.2.3,MacIntel,120.4819277,9,2,2,,,,,,,,7,10,,,,,,,,,,,7,1.046,1,,,,,,0.102736442,-0.415149636,1,0,0,1.0457,Peridotite_rect,1,0,1,0,1,
6630f09152503f6a1c3130c5,SCN,2024-06-24_15h28.07.915,LearnStrategy,2023.2.3,MacIntel,120.4819277,9,2,3,,,,,,,,5,02,,,,,,,,,,,5,0.797,1,,,,,,-0.385011574,-0.38676422,1,0,0,0.796599999,Obsidian_rect,2,0,2,0,1,
6630f09152503f6a1c3130c5,SCN,2024-06-24_15h28.07.915,LearnStrategy,2023.2.3,MacIntel,120.4819277,9,2,4,,,,,,,,6,07,,,,,,,,,,,6,2.847,1,,,,,,-0.14358879,-0.406671627,1,0,0,2.847299999,Pegmatite_rect,3,0,3,0,1,
6630f09152503f6a1c3130c5,SCN,2024-06-24_15h28.07.915,LearnStrategy,2023.2.3,MacIntel,120.4819277,9,2,5,,,,,,,,3,07,,,,,,,,,,,3,1.421,1,,,,,,0.153864914,-0.247883598,1,0,0,1.4205,Diorite_rect,4,0,4,0,1,
6630f09152503f6a1c3130c5,SCN,2024-06-24_15h28.07.915,LearnStrategy,2023.2.3,MacIntel,120.4819277,9,2,6,,,,,,,,8,15,,,,,,,,,,,4,4.012,0,,,,,,0.344919808,-0.257477679,1,0,0,4.0124,Gabbro_rect,5,0,5,0,1,
6630f09152503f6a1c3130c5,SCN,2024-06-24_15h28.07.915,LearnStrategy,2023.2.3,MacIntel,120.4819277,9,2,7,,,,,,,,4,10,,,,,,,,,,,1,3.804,0,,,,,,-0.343907077,-0.251066468,1,0,0,3.8041,Andesite_rect,6,0,6,0,1,
6630f09152503f6a1c3130c5,SCN,2024-06-24_15h28.07.915,LearnStrategy,2023.2.3,MacIntel,120.4819277,9,2,8,,,,,,,,6,10,,,,,,,,,,,7,0.978,0,,,,,,0.12583912,-0.412165179,1,0,0,0.9777,Peridotite_rect,7,0,7,0,1,
6630f09152503f6a1c3130c5,SCN,2024-06-24_15h28.07.915,LearnStrategy,2023.2.3,MacIntel,120.4819277,9,2,9,,,,,,,,1,06,,,,,,,,,,,1,0.912,1,,,,,,-0.351000331,-0.265352183,1,0,0,0.9124,Andesite_rect,8,0,8,0,1,
6630f09152503f6a1c3130c5,SCN,2024-06-24_15h28.07.915,LearnStrategy,2023.2.3,MacIntel,120.4819277,9,2,10,,,,,,,,1,14,,,,,,,,,,,6,1.881,0,,,,,,-0.153282077,-0.379976852,1,0,0,1.8806,Pegmatite_rect,9,0,9,0,1,
6630f09152503f6a1c3130c5,SCN,2024-06-24_15h28.07.915,LearnStrategy,2023.2.3,MacIntel,120.4819277,9,2,11,,,,,,,,7,16,,,,,,,,,,,7,0.837,1,,,,,,0.117179233,-0.410602679,1,0,0,0.836599999,Peridotite_rect,10,0,10,0,1,
6630f09152503f6a1c3130c5,SCN,2024-06-24_15h28.07.915,LearnStrategy,2023.2.3,MacIntel,120.4819277,9,2,12,,,,,,,,2,12,,,,,,,,,,,8,2.019,0,,,,,,0.347478505,-0.401037533,1,0,0,2.0192,Pumice_rect,11,0,11,0,1,
6630f09152503f6a1c3130c5,SCN,2024-06-24_15h28.07.915,LearnStrategy,2023.2.3,MacIntel,120.4819277,9,2,13,,,,,,,,4,12,,,,,,,,,,,2,1.013,0,,,,,,-0.058300265,-0.240141369,1,0,0,1.012900001,Basalt_rect,12,0,12,0,1,
6630f09152503f6a1c3130c5,SCN,2024-06-24_15h28.07.915,LearnStrategy,2023.2.3,MacIntel,120.4819277,9,2,14,,,,,,,,8,02,,,,,,,,,,,8,1.629,1,,,,,,0.307622354,-0.393828538,1,0,0,1.6292,Pumice_rect,13,0,13,0,1,
6630f09152503f6a1c3130c5,SCN,2024-06-24_15h28.07.915,LearnStrategy,2023.2.3,MacIntel,120.4819277,9,2,15,,,,,,,,2,10,,,,,,,,,,,2,1.473,1,,,,,,-0.109106316,-0.243745866,1,0,0,1.4728,Basalt_rect,14,0,14,0,1,
6630f09152503f6a1c3130c5,SCN,2024-06-24_15h28.07.915,LearnStrategy,2023.2.3,MacIntel,120.4819277,9,2,16,,,,,,,,3,02,,,,,,,,,,,3,4.38,1,,,,,,0.106712963,-0.269419643,1,0,0,4.3795,Diorite_rect,15,0,15,0,1,
6630f09152503f6a1c3130c5,SCN,2024-06-24_15h28.07.915,LearnStrategy,2023.2.3,MacIntel,120.4819277,,,,,,,,,,,,,,,,,,,,,,,,,,,,,,,,,,,,,,,,,,,1
6630f09152503f6a1c3130c5,SCN,2024-06-24_15h28.07.915,LearnStrategy,2023.2.3,MacIntel,120.4819277,,,,,,,,,,,,,,,,,,,,,,,,,,,,,,,,,,,,,,,,,,,
6630f09152503f6a1c3130c5,SCN,2024-06-24_15h28.07.915,LearnStrategy,2023.2.3,MacIntel,120.4819277,,,,,,,,,,,3,09,1,1,,,,,,,,,,,,,,,,,,,,,,,,,,,,,
6630f09152503f6a1c3130c5,SCN,2024-06-24_15h28.07.915,LearnStrategy,2023.2.3,MacIntel,120.4819277,,,,,,,,,,,6,09,1,2,,,,,,,,,,,,,,,,,,,,,,,,,,,,,
6630f09152503f6a1c3130c5,SCN,2024-06-24_15h28.07.915,LearnStrategy,2023.2.3,MacIntel,120.4819277,,,,,,,,,,,5,12,1,3,,,,,,,,,,,,,,,,,,,,,,,,,,,,,
6630f09152503f6a1c3130c5,SCN,2024-06-24_15h28.07.915,LearnStrategy,2023.2.3,MacIntel,120.4819277,,,,,,,,,,,2,01,1,4,,,,,,,,,,,,,,,,,,,,,,,,,,,,,
6630f09152503f6a1c3130c5,SCN,2024-06-24_15h28.07.915,LearnStrategy,2023.2.3,MacIntel,120.4819277,,,,,,,,,,,4,03,1,5,,,,,,,,,,,,,,,,,,,,,,,,,,,,,
6630f09152503f6a1c3130c5,SCN,2024-06-24_15h28.07.915,LearnStrategy,2023.2.3,MacIntel,120.4819277,,,,,,,,,,,4,09,1,6,,,,,,,,,,,,,,,,,,,,,,,,,,,,,
6630f09152503f6a1c3130c5,SCN,2024-06-24_15h28.07.915,LearnStrategy,2023.2.3,MacIntel,120.4819277,,,,,,,,,,,3,10,1,7,,,,,,,,,,,,,,,,,,,,,,,,,,,,,
6630f09152503f6a1c3130c5,SCN,2024-06-24_15h28.07.915,LearnStrategy,2023.2.3,MacIntel,120.4819277,,,,,,,,,,,7,06,1,8,,,,,,,,,,,,,,,,,,,,,,,,,,,,,
6630f09152503f6a1c3130c5,SCN,2024-06-24_15h28.07.915,LearnStrategy,2023.2.3,MacIntel,120.4819277,,,,,,,,,,,8,09,2,1,,,,,,,,,,,,,,,,,,,,,,,,,,,,,
6630f09152503f6a1c3130c5,SCN,2024-06-24_15h28.07.915,LearnStrategy,2023.2.3,MacIntel,120.4819277,,,,,,,,,,,1,01,2,2,,,,,,,,,,,,,,,,,,,,,,,,,,,,,
6630f09152503f6a1c3130c5,SCN,2024-06-24_15h28.07.915,LearnStrategy,2023.2.3,MacIntel,120.4819277,,,,,,,,,,,7,04,2,3,,,,,,,,,,,,,,,,,,,,,,,,,,,,,
6630f09152503f6a1c3130c5,SCN,2024-06-24_15h28.07.915,LearnStrategy,2023.2.3,MacIntel,120.4819277,,,,,,,,,,,5,14,2,4,,,,,,,,,,,,,,,,,,,,,,,,,,,,,
6630f09152503f6a1c3130c5,SCN,2024-06-24_15h28.07.915,LearnStrategy,2023.2.3,MacIntel,120.4819277,,,,,,,,,,,2,04,2,5,,,,,,,,,,,,,,,,,,,,,,,,,,,,,
6630f09152503f6a1c3130c5,SCN,2024-06-24_15h28.07.915,LearnStrategy,2023.2.3,MacIntel,120.4819277,,,,,,,,,,,8,06,2,6,,,,,,,,,,,,,,,,,,,,,,,,,,,,,
6630f09152503f6a1c3130c5,SCN,2024-06-24_15h28.07.915,LearnStrategy,2023.2.3,MacIntel,120.4819277,,,,,,,,,,,6,16,2,7,,,,,,,,,,,,,,,,,,,,,,,,,,,,,
6630f09152503f6a1c3130c5,SCN,2024-06-24_15h28.07.915,LearnStrategy,2023.2.3,MacIntel,120.4819277,,,,,,,,,,,5,06,2,8,,,,,,,,,,,,,,,,,,,,,,,,,,,,,
6630f09152503f6a1c3130c5,SCN,2024-06-24_15h28.07.915,LearnStrategy,2023.2.3,MacIntel,120.4819277,,,,,,,,,,,6,08,3,1,,,,,,,,,,,,,,,,,,,,,,,,,,,,,
6630f09152503f6a1c3130c5,SCN,2024-06-24_15h28.07.915,LearnStrategy,2023.2.3,MacIntel,120.4819277,,,,,,,,,,,4,08,3,2,,,,,,,,,,,,,,,,,,,,,,,,,,,,,
6630f09152503f6a1c3130c5,SCN,2024-06-24_15h28.07.915,LearnStrategy,2023.2.3,MacIntel,120.4819277,,,,,,,,,,,2,05,3,3,,,,,,,,,,,,,,,,,,,,,,,,,,,,,
6630f09152503f6a1c3130c5,SCN,2024-06-24_15h28.07.915,LearnStrategy,2023.2.3,MacIntel,120.4819277,,,,,,,,,,,1,07,3,4,,,,,,,,,,,,,,,,,,,,,,,,,,,,,
6630f09152503f6a1c3130c5,SCN,2024-06-24_15h28.07.915,LearnStrategy,2023.2.3,MacIntel,120.4819277,,,,,,,,,,,2,02,3,5,,,,,,,,,,,,,,,,,,,,,,,,,,,,,
6630f09152503f6a1c3130c5,SCN,2024-06-24_15h28.07.915,LearnStrategy,2023.2.3,MacIntel,120.4819277,,,,,,,,,,,1,09,3,6,,,,,,,,,,,,,,,,,,,,,,,,,,,,,
6630f09152503f6a1c3130c5,SCN,2024-06-24_15h28.07.915,LearnStrategy,2023.2.3,MacIntel,120.4819277,,,,,,,,,,,7,05,3,7,,,,,,,,,,,,,,,,,,,,,,,,,,,,,
6630f09152503f6a1c3130c5,SCN,2024-06-24_15h28.07.915,LearnStrategy,2023.2.3,MacIntel,120.4819277,,,,,,,,,,,3,15,3,8,,,,,,,,,,,,,,,,,,,,,,,,,,,,,
6630f09152503f6a1c3130c5,SCN,2024-06-24_15h28.07.915,LearnStrategy,2023.2.3,MacIntel,120.4819277,,,,,,,,,,,6,13,4,1,,,,,,,,,,,,,,,,,,,,,,,,,,,,,
6630f09152503f6a1c3130c5,SCN,2024-06-24_15h28.07.915,LearnStrategy,2023.2.3,MacIntel,120.4819277,,,,,,,,,,,5,07,4,2,,,,,,,,,,,,,,,,,,,,,,,,,,,,,
6630f09152503f6a1c3130c5,SCN,2024-06-24_15h28.07.915,LearnStrategy,2023.2.3,MacIntel,120.4819277,,,,,,,,,,,2,11,4,3,,,,,,,,,,,,,,,,,,,,,,,,,,,,,
6630f09152503f6a1c3130c5,SCN,2024-06-24_15h28.07.915,LearnStrategy,2023.2.3,MacIntel,120.4819277,,,,,,,,,,,8,14,4,4,,,,,,,,,,,,,,,,,,,,,,,,,,,,,
6630f09152503f6a1c3130c5,SCN,2024-06-24_15h28.07.915,LearnStrategy,2023.2.3,MacIntel,120.4819277,,,,,,,,,,,2,16,4,5,,,,,,,,,,,,,,,,,,,,,,,,,,,,,
6630f09152503f6a1c3130c5,SCN,2024-06-24_15h28.07.915,LearnStrategy,2023.2.3,MacIntel,120.4819277,,,,,,,,,,,3,11,4,6,,,,,,,,,,,,,,,,,,,,,,,,,,,,,
6630f09152503f6a1c3130c5,SCN,2024-06-24_15h28.07.915,LearnStrategy,2023.2.3,MacIntel,120.4819277,,,,,,,,,,,6,11,4,7,,,,,,,,,,,,,,,,,,,,,,,,,,,,,
6630f09152503f6a1c3130c5,SCN,2024-06-24_15h28.07.915,LearnStrategy,2023.2.3,MacIntel,120.4819277,,,,,,,,,,,1,10,4,8,,,,,,,,,,,,,,,,,,,,,,,,,,,,,
6630f09152503f6a1c3130c5,SCN,2024-06-24_15h28.07.915,LearnStrategy,2023.2.3,MacIntel,120.4819277,,,,,,,,,,,4,13,5,1,,,,,,,,,,,,,,,,,,,,,,,,,,,,,
6630f09152503f6a1c3130c5,SCN,2024-06-24_15h28.07.915,LearnStrategy,2023.2.3,MacIntel,120.4819277,,,,,,,,,,,7,02,5,2,,,,,,,,,,,,,,,,,,,,,,,,,,,,,
6630f09152503f6a1c3130c5,SCN,2024-06-24_15h28.07.915,LearnStrategy,2023.2.3,MacIntel,120.4819277,,,,,,,,,,,3,14,5,3,,,,,,,,,,,,,,,,,,,,,,,,,,,,,
6630f09152503f6a1c3130c5,SCN,2024-06-24_15h28.07.915,LearnStrategy,2023.2.3,MacIntel,120.4819277,,,,,,,,,,,8,13,5,4,,,,,,,,,,,,,,,,,,,,,,,,,,,,,
6630f09152503f6a1c3130c5,SCN,2024-06-24_15h28.07.915,LearnStrategy,2023.2.3,MacIntel,120.4819277,,,,,,,,,,,3,13,5,5,,,,,,,,,,,,,,,,,,,,,,,,,,,,,
6630f09152503f6a1c3130c5,SCN,2024-06-24_15h28.07.915,LearnStrategy,2023.2.3,MacIntel,120.4819277,,,,,,,,,,,4,16,5,6,,,,,,,,,,,,,,,,,,,,,,,,,,,,,
6630f09152503f6a1c3130c5,SCN,2024-06-24_15h28.07.915,LearnStrategy,2023.2.3,MacIntel,120.4819277,,,,,,,,,,,4,15,5,7,,,,,,,,,,,,,,,,,,,,,,,,,,,,,
6630f09152503f6a1c3130c5,SCN,2024-06-24_15h28.07.915,LearnStrategy,2023.2.3,MacIntel,120.4819277,,,,,,,,,,,1,16,5,8,,,,,,,,,,,,,,,,,,,,,,,,,,,,,
6630f09152503f6a1c3130c5,SCN,2024-06-24_15h28.07.915,LearnStrategy,2023.2.3,MacIntel,120.4819277,,,,,,,,,,,1,05,6,1,,,,,,,,,,,,,,,,,,,,,,,,,,,,,
6630f09152503f6a1c3130c5,SCN,2024-06-24_15h28.07.915,LearnStrategy,2023.2.3,MacIntel,120.4819277,,,,,,,,,,,8,05,6,2,,,,,,,,,,,,,,,,,,,,,,,,,,,,,
6630f09152503f6a1c3130c5,SCN,2024-06-24_15h28.07.915,LearnStrategy,2023.2.3,MacIntel,120.4819277,,,,,,,,,,,8,16,6,3,,,,,,,,,,,,,,,,,,,,,,,,,,,,,
6630f09152503f6a1c3130c5,SCN,2024-06-24_15h28.07.915,LearnStrategy,2023.2.3,MacIntel,120.4819277,,,,,,,,,,,7,12,6,4,,,,,,,,,,,,,,,,,,,,,,,,,,,,,
6630f09152503f6a1c3130c5,SCN,2024-06-24_15h28.07.915,LearnStrategy,2023.2.3,MacIntel,120.4819277,,,,,,,,,,,6,05,6,5,,,,,,,,,,,,,,,,,,,,,,,,,,,,,
6630f09152503f6a1c3130c5,SCN,2024-06-24_15h28.07.915,LearnStrategy,2023.2.3,MacIntel,120.4819277,,,,,,,,,,,5,04,6,6,,,,,,,,,,,,,,,,,,,,,,,,,,,,,
6630f09152503f6a1c3130c5,SCN,2024-06-24_15h28.07.915,LearnStrategy,2023.2.3,MacIntel,120.4819277,,,,,,,,,,,7,08,6,7,,,,,,,,,,,,,,,,,,,,,,,,,,,,,
6630f09152503f6a1c3130c5,SCN,2024-06-24_15h28.07.915,LearnStrategy,2023.2.3,MacIntel,120.4819277,,,,,,,,,,,5,11,6,8,,,,,,,,,,,,,,,,,,,,,,,,,,,,,