participant,condition,date,expName,psychopyVersion,OS,frameRate,block,phase,trial,learn_mouse.x,learn_mouse.y,learn_mouse.leftButton,learn_mouse.midButton,learn_mouse.rightButton,learn_mouse.time,learn_mouse.clicked_name,cat,token,row,col,t_select,cat_rec,token_rec,cat_mouse_l.x,cat_mouse_l.y,cat_mouse_l.leftButton,cat_mouse_l.midButton,cat_mouse_l.rightButton,cat_mouse_l.time,cat_mouse_l.clicked_name,resp,t_resp,corr,train_trials.thisRepN,train_trials.thisTrialN,train_trials.thisN,train_trials.thisIndex,train_trials.ran,cat_mouse_t.x,cat_mouse_t.y,cat_mouse_t.leftButton,cat_mouse_t.midButton,cat_mouse_t.rightButton,cat_mouse_t.time,cat_mouse_t.clicked_name,test_trials.thisRepN,test_trials.thisTrialN,test_trials.thisN,test_trials.thisIndex,test_trials.ran,Bonus
6630fcae418bde6a9e7c3b47,SCR,2024-06-25_12h41.11.090,LearnStrategy,2023.2.3,Win32,59.52380952,,,,,,,,,,,,,,,,,,,,,,,,,,,,,,,,,,,,,,,,,,,,,
6630fcae418bde6a9e7c3b47,SCR,2024-06-25_12h41.11.090,LearnStrategy,2023.2.3,Win32,59.52380952,1,1,1,-0.229166667,-0.236979167,1,0,0,2.7834,Gabbro_09,4,09,2,3,2.783,4,09,-0.381510417,-0.40625,1,0,0,9.1643,Obsidian_rect,5,9.164,0,0,0,0,0,1,,,,,,,,,,,,,
6630fcae418bde6a9e7c3b47,SCR,2024-06-25_12h41.11.090,LearnStrategy,2023.2.3,Win32,59.52380952,1,1,2,-0.565104167,0.42578125,1,0,0,1.4861,Andesite_06,1,06,6,1,1.486,1,06,-0.13671875,-0.2421875,1,0,0,2.594,Basalt_rect,2,2.594,0,1,0,1,0,1,,,,,,,,,,,,,
6630fcae418bde6a9e7c3b47,SCR,2024-06-25_12h41.11.090,LearnStrategy,2023.2.3,Win32,59.52380952,1,1,3,0.227864583,0.408854167,1,0,0,1.3138,Pumice_08,8,08,6,6,1.314,8,08,0.16015625,-0.2421875,1,0,0,1.7274,Diorite_rect,3,1.727,0,2,0,2,0,1,,,,,,,,,,,,,
6630fcae418bde6a9e7c3b47,SCR,2024-06-25_12h41.11.090,LearnStrategy,2023.2.3,Win32,59.52380952,1,1,4,-0.227864583,0.44140625,1,0,0,1.3157,Peridotite_14,7,14,6,3,1.316,7,14,-0.165364583,-0.420572917,1,0,0,2.753,Pegmatite_rect,6,2.753,0,3,0,3,0,1,,,,,,,,,,,,,
6630fcae418bde6a9e7c3b47,SCR,2024-06-25_12h41.11.090,LearnStrategy,2023.2.3,Win32,59.52380952,1,1,5,-0.1015625,0.41015625,1,0,0,1.2203,Obsidian_05,5,05,6,4,1.22,5,05,-0.36328125,-0.4140625,1,0,0,1.7196,Obsidian_rect,5,1.72,1,4,0,4,0,1,,,,,,,,,,,,,
6630fcae418bde6a9e7c3b47,SCR,2024-06-25_12h41.11.090,LearnStrategy,2023.2.3,Win32,59.52380952,1,1,6,-0.0859375,-0.399739583,1,0,0,1.3068,Basalt_09,2,09,1,4,1.307,2,09,-0.197916667,-0.2421875,1,0,0,3.3363,Basalt_rect,2,3.336,1,5,0,5,0,1,,,,,,,,,,,,,
6630fcae418bde6a9e7c3b47,SCR,2024-06-25_12h41.11.090,LearnStrategy,2023.2.3,Win32,59.52380952,1,1,7,0.533854167,0.424479167,1,0,0,1.3632,Pumice_05,8,05,6,8,1.363,8,05,0.178385417,-0.26171875,1,0,0,2.3846,Diorite_rect,3,2.385,0,6,0,6,0,1,,,,,,,,,,,,,
6630fcae418bde6a9e7c3b47,SCR,2024-06-25_12h41.11.090,LearnStrategy,2023.2.3,Win32,59.52380952,1,1,8,0.065104167,0.442708333,1,0,0,15.1261,Obsidian_14,5,14,6,5,15.126,5,14,-0.34375,-0.408854167,1,0,0,2.4023,Obsidian_rect,5,2.402,1,7,0,7,0,1,,,,,,,,,,,,,
6630fcae418bde6a9e7c3b47,SCR,2024-06-25_12h41.11.090,LearnStrategy,2023.2.3,Win32,59.52380952,1,1,9,-0.079427083,-0.084635417,1,0,0,1.0089,Andesite_07,1,07,3,4,1.009,1,07,-0.321614583,-0.25390625,1,0,0,3.1886,Andesite_rect,1,3.189,1,8,0,8,0,1,,,,,,,,,,,,,
6630fcae418bde6a9e7c3b47,SCR,2024-06-25_12h41.11.090,LearnStrategy,2023.2.3,Win32,59.52380952,1,1,10,-0.399739583,0.143229167,1,0,0,1.3755,Pegmatite_11,6,11,4,2,1.375,6,11,-0.049479167,-0.3984375,1,0,0,2.9279,Pegmatite_rect,6,2.928,1,9,0,9,0,1,,,,,,,,,,,,,
6630fcae418bde6a9e7c3b47,SCR,2024-06-25_12h41.11.090,LearnStrategy,2023.2.3,Win32,59.52380952,1,1,11,0.102864583,-0.447916667,1,0,0,1.2702,Peridotite_02,7,02,1,5,1.27,7,02,0.15625,-0.251302083,1,0,0,2.9189,Diorite_rect,3,2.919,0,10,0,10,0,1,,,,,,,,,,,,,
6630fcae418bde6a9e7c3b47,SCR,2024-06-25_12h41.11.090,LearnStrategy,2023.2.3,Win32,59.52380952,1,1,12,-0.576822917,-0.07421875,1,0,0,1.2456,Gabbro_08,4,08,3,1,1.246,4,08,-0.346354167,-0.247395833,1,0,0,1.8314,Andesite_rect,1,1.831,0,11,0,11,0,1,,,,,,,,,,,,,
6630fcae418bde6a9e7c3b47,SCR,2024-06-25_12h41.11.090,LearnStrategy,2023.2.3,Win32,59.52380952,1,1,13,0.079427083,-0.25,1,0,0,1.2086,Pegmatite_08,6,08,2,5,1.209,6,08,-0.067708333,-0.38671875,1,0,0,1.6024,Pegmatite_rect,6,1.602,1,12,0,12,0,1,,,,,,,,,,,,,
6630fcae418bde6a9e7c3b47,SCR,2024-06-25_12h41.11.090,LearnStrategy,2023.2.3,Win32,59.52380952,1,1,14,-0.083333333,-0.251302083,1,0,0,1.1844,Basalt_01,2,01,2,4,1.184,2,01,-0.139322917,-0.25390625,1,0,0,1.5481,Basalt_rect,2,1.548,1,13,0,13,0,1,,,,,,,,,,,,,
6630fcae418bde6a9e7c3b47,SCR,2024-06-25_12h41.11.090,LearnStrategy,2023.2.3,Win32,59.52380952,1,1,15,0.432291667,-0.263020833,1,0,0,1.1556,Diorite_10,3,10,2,7,1.156,3,10,0.08203125,-0.39453125,1,0,0,1.8259,Peridotite_rect,7,1.826,0,14,0,14,0,1,,,,,,,,,,,,,
6630fcae418bde6a9e7c3b47,SCR,2024-06-25_12h41.11.090,LearnStrategy,2023.2.3,Win32,59.52380952,1,1,16,0.524739583,-0.091145833,1,0,0,1.0466,Diorite_13,3,13,3,8,1.047,3,13,0.108072917,-0.397135417,1,0,0,1.6673,Peridotite_rect,7,1.667,0,15,0,15,0,1,,,,,,,,,,,,,
6630fcae418bde6a9e7c3b47,SCR,2024-06-25_12h41.11.090,LearnStrategy,2023.2.3,Win32,59.52380952,1,2,1,,,,,,,,7,07,,,,,,,,,,,,,7,31.944,1,,,,,,0.178385417,-0.39453125,1,0,0,31.9444,Peridotite_rect,0,0,0,0,1,
6630fcae418bde6a9e7c3b47,SCR,2024-06-25_12h41.11.090,LearnStrategy,2023.2.3,Win32,59.52380952,1,2,2,,,,,,,,2,02,,,,,,,,,,,,,2,5.278,1,,,,,,-0.079427083,-0.268229167,1,0,0,5.278,Basalt_rect,1,0,1,0,1,
6630fcae418bde6a9e7c3b47,SCR,2024-06-25_12h41.11.090,LearnStrategy,2023.2.3,Win32,59.52380952,1,2,3,,,,,,,,1,03,,,,,,,,,,,,,1,11.907,1,,,,,,-0.3203125,-0.259114583,1,0,0,11.9071,Andesite_rect,2,0,2,0,1,
6630fcae418bde6a9e7c3b47,SCR,2024-06-25_12h41.11.090,LearnStrategy,2023.2.3,Win32,59.52380952,1,2,4,,,,,,,,3,14,,,,,,,,,,,,,1,15.803,0,,,,,,-0.376302083,-0.251302083,1,0,0,15.8028,Andesite_rect,3,0,3,0,1,
6630fcae418bde6a9e7c3b47,SCR,2024-06-25_12h41.11.090,LearnStrategy,2023.2.3,Win32,59.52380952,1,2,5,,,,,,,,2,04,,,,,,,,,,,,,2,25.345,1,,,,,,-0.122395833,-0.264322917,1,0,0,25.3446,Basalt_rect,4,0,4,0,1,
6630fcae418bde6a9e7c3b47,SCR,2024-06-25_12h41.11.090,LearnStrategy,2023.2.3,Win32,59.52380952,1,2,6,,,,,,,,7,13,,,,,,,,,,,,,7,8.123,1,,,,,,0.12890625,-0.395833333,1,0,0,8.1227,Peridotite_rect,5,0,5,0,1,
6630fcae418bde6a9e7c3b47,SCR,2024-06-25_12h41.11.090,LearnStrategy,2023.2.3,Win32,59.52380952,1,2,7,,,,,,,,3,12,,,,,,,,,,,,,1,5.641,0,,,,,,-0.41015625,-0.235677083,1,0,0,5.6407,Andesite_rect,6,0,6,0,1,
6630fcae418bde6a9e7c3b47,SCR,2024-06-25_12h41.11.090,LearnStrategy,2023.2.3,Win32,59.52380952,1,2,8,,,,,,,,6,13,,,,,,,,,,,,,7,5.29,0,,,,,,0.1328125,-0.38671875,1,0,0,5.2899,Peridotite_rect,7,0,7,0,1,
6630fcae418bde6a9e7c3b47,SCR,2024-06-25_12h41.11.090,LearnStrategy,2023.2.3,Win32,59.52380952,1,2,9,,,,,,,,5,09,,,,,,,,,,,,,5,2.052,1,,,,,,-0.395833333,-0.411458333,1,0,0,2.0524,Obsidian_rect,8,0,8,0,1,
6630fcae418bde6a9e7c3b47,SCR,2024-06-25_12h41.11.090,LearnStrategy,2023.2.3,Win32,59.52380952,1,2,10,,,,,,,,5,11,,,,,,,,,,,,,5,0.952,1,,,,,,-0.395833333,-0.411458333,1,0,0,0.9524,Obsidian_rect,9,0,9,0,1,
6630fcae418bde6a9e7c3b47,SCR,2024-06-25_12h41.11.090,LearnStrategy,2023.2.3,Win32,59.52380952,1,2,11,,,,,,,,4,16,,,,,,,,,,,,,4,7.647,1,,,,,,0.3671875,-0.231770833,1,0,0,7.6474,Gabbro_rect,10,0,10,0,1,
6630fcae418bde6a9e7c3b47,SCR,2024-06-25_12h41.11.090,LearnStrategy,2023.2.3,Win32,59.52380952,1,2,12,,,,,,,,8,13,,,,,,,,,,,,,8,1.949,1,,,,,,0.364583333,-0.412760417,1,0,0,1.9491,Pumice_rect,11,0,11,0,1,
6630fcae418bde6a9e7c3b47,SCR,2024-06-25_12h41.11.090,LearnStrategy,2023.2.3,Win32,59.52380952,1,2,13,,,,,,,,8,04,,,,,,,,,,,,,8,1.041,1,,,,,,0.364583333,-0.412760417,1,0,0,1.0413,Pumice_rect,12,0,12,0,1,
6630fcae418bde6a9e7c3b47,SCR,2024-06-25_12h41.11.090,LearnStrategy,2023.2.3,Win32,59.52380952,1,2,14,,,,,,,,1,10,,,,,,,,,,,,,1,7.649,1,,,,,,-0.391927083,-0.243489583,1,0,0,7.6487,Andesite_rect,13,0,13,0,1,
6630fcae418bde6a9e7c3b47,SCR,2024-06-25_12h41.11.090,LearnStrategy,2023.2.3,Win32,59.52380952,1,2,15,,,,,,,,6,12,,,,,,,,,,,,,6,66.968,1,,,,,,-0.171875,-0.408854167,1,0,0,66.9677,Pegmatite_rect,14,0,14,0,1,
6630fcae418bde6a9e7c3b47,SCR,2024-06-25_12h41.11.090,LearnStrategy,2023.2.3,Win32,59.52380952,1,2,16,,,,,,,,4,14,,,,,,,,,,,,,4,3.635,1,,,,,,0.376302083,-0.243489583,1,0,0,3.6354,Gabbro_rect,15,0,15,0,1,
6630fcae418bde6a9e7c3b47,SCR,2024-06-25_12h41.11.090,LearnStrategy,2023.2.3,Win32,59.52380952,2,1,1,0.553385417,0.266927083,1,0,0,2.5315,Diorite_11,3,11,5,8,2.531,3,11,0.098958333,-0.3984375,1,0,0,13.1292,Peridotite_rect,7,13.129,0,0,0,0,0,1,,,,,,,,,,,,,
6630fcae418bde6a9e7c3b47,SCR,2024-06-25_12h41.11.090,LearnStrategy,2023.2.3,Win32,59.52380952,2,1,2,-0.186197917,0.126302083,1,0,0,1.235,Pegmatite_03,6,03,4,3,1.235,6,03,-0.110677083,-0.40234375,1,0,0,10.2243,Pegmatite_rect,6,10.224,1,1,0,1,0,1,,,,,,,,,,,,,
6630fcae418bde6a9e7c3b47,SCR,2024-06-25_12h41.11.090,LearnStrategy,2023.2.3,Win32,59.52380952,2,1,3,0.579427083,-0.434895833,1,0,0,1.3219,Obsidian_08,5,08,1,8,1.322,5,08,-0.354166667,-0.380208333,1,0,0,2.1587,Obsidian_rect,5,2.159,1,2,0,2,0,1,,,,,,,,,,,,,
6630fcae418bde6a9e7c3b47,SCR,2024-06-25_12h41.11.090,LearnStrategy,2023.2.3,Win32,59.52380952,2,1,4,0.3984375,0.122395833,1,0,0,1.1896,Diorite_16,3,16,4,7,1.19,3,16,0.032552083,-0.391927083,1,0,0,4.7563,Peridotite_rect,7,4.756,0,3,0,3,0,1,,,,,,,,,,,,,
6630fcae418bde6a9e7c3b47,SCR,2024-06-25_12h41.11.090,LearnStrategy,2023.2.3,Win32,59.52380952,2,1,5,-0.07421875,0.2578125,1,0,0,1.308,Diorite_06,3,06,5,4,1.308,3,06,0.139322917,-0.240885417,1,0,0,2.8313,Diorite_rect,3,2.831,1,4,0,4,0,1,,,,,,,,,,,,,
6630fcae418bde6a9e7c3b47,SCR,2024-06-25_12h41.11.090,LearnStrategy,2023.2.3,Win32,59.52380952,2,1,6,0.40234375,-0.399739583,1,0,0,1.2297,Diorite_09,3,09,1,7,1.23,3,09,0.1484375,-0.270833333,1,0,0,1.3067,Diorite_rect,3,1.307,1,5,0,5,0,1,,,,,,,,,,,,,
6630fcae418bde6a9e7c3b47,SCR,2024-06-25_12h41.11.090,LearnStrategy,2023.2.3,Win32,59.52380952,2,1,7,0.0546875,0.07421875,1,0,0,0.9423,Pegmatite_07,6,07,4,5,0.942,6,07,-0.115885417,-0.407552083,1,0,0,1.4376,Pegmatite_rect,6,1.438,1,6,0,6,0,1,,,,,,,,,,,,,
6630fcae418bde6a9e7c3b47,SCR,2024-06-25_12h41.11.090,LearnStrategy,2023.2.3,Win32,59.52380952,2,1,8,0.401041667,-0.260416667,1,0,0,1.1983,Diorite_10,3,10,2,7,1.198,3,10,0.141927083,-0.248697917,1,0,0,2.415,Diorite_rect,3,2.415,1,7,0,7,0,1,,,,,,,,,,,,,
6630fcae418bde6a9e7c3b47,SCR,2024-06-25_12h41.11.090,LearnStrategy,2023.2.3,Win32,59.52380952,2,1,9,-0.40625,0.290364583,1,0,0,1.3664,Andesite_05,1,05,5,2,1.366,1,05,0.131510417,-0.3828125,1,0,0,1.6476,Peridotite_rect,7,1.648,0,8,0,8,0,1,,,,,,,,,,,,,
6630fcae418bde6a9e7c3b47,SCR,2024-06-25_12h41.11.090,LearnStrategy,2023.2.3,Win32,59.52380952,2,1,10,-0.388020833,-0.083333333,1,0,0,1.1127,Peridotite_10,7,10,3,2,1.113,7,10,-0.401041667,-0.252604167,1,0,0,1.6681,Andesite_rect,1,1.668,0,9,0,9,0,1,,,,,,,,,,,,,
6630fcae418bde6a9e7c3b47,SCR,2024-06-25_12h41.11.090,LearnStrategy,2023.2.3,Win32,59.52380952,2,1,11,0.23046875,-0.407552083,1,0,0,0.8313,Gabbro_11,4,11,1,6,0.831,4,11,-0.126302083,-0.236979167,1,0,0,1.3658,Basalt_rect,2,1.366,0,10,0,10,0,1,,,,,,,,,,,,,
6630fcae418bde6a9e7c3b47,SCR,2024-06-25_12h41.11.090,LearnStrategy,2023.2.3,Win32,59.52380952,2,1,12,-0.52734375,-0.419270833,1,0,0,1.1969,Pumice_10,8,10,1,1,1.197,8,10,0.3125,-0.391927083,1,0,0,1.284,Pumice_rect,8,1.284,1,11,0,11,0,1,,,,,,,,,,,,,
6630fcae418bde6a9e7c3b47,SCR,2024-06-25_12h41.11.090,LearnStrategy,2023.2.3,Win32,59.52380952,2,1,13,-0.561197917,0.244791667,1,0,0,1.2288,Pegmatite_09,6,09,5,1,1.229,6,09,-0.1796875,-0.390625,1,0,0,1.0838,Pegmatite_rect,6,1.084,1,12,0,12,0,1,,,,,,,,,,,,,
6630fcae418bde6a9e7c3b47,SCR,2024-06-25_12h41.11.090,LearnStrategy,2023.2.3,Win32,59.52380952,2,1,14,-0.080729167,-0.4140625,1,0,0,1.1601,Basalt_09,2,09,1,4,1.16,2,09,-0.131510417,-0.24609375,1,0,0,3.3281,Basalt_rect,2,3.328,1,13,0,13,0,1,,,,,,,,,,,,,
6630fcae418bde6a9e7c3b47,SCR,2024-06-25_12h41.11.090,LearnStrategy,2023.2.3,Win32,59.52380952,2,1,15,0.395833333,-0.44921875,1,0,0,1.182,Diorite_09,3,09,1,7,1.182,3,09,0.108072917,-0.38671875,1,0,0,2.0195,Peridotite_rect,7,2.019,0,14,0,14,0,1,,,,,,,,,,,,,
6630fcae418bde6a9e7c3b47,SCR,2024-06-25_12h41.11.090,LearnStrategy,2023.2.3,Win32,59.52380952,2,1,16,-0.541666667,-0.282552083,1,0,0,1.231,Pegmatite_05,6,05,2,1,1.231,6,05,-0.419270833,-0.381510417,1,0,0,1.5419,Obsidian_rect,5,1.542,0,15,0,15,0,1,,,,,,,,,,,,,
6630fcae418bde6a9e7c3b47,SCR,2024-06-25_12h41.11.090,LearnStrategy,2023.2.3,Win32,59.52380952,2,2,1,,,,,,,,6,15,,,,,,,,,,,,,6,48.946,1,,,,,,-0.1171875,-0.403645833,1,0,0,48.9463,Pegmatite_rect,0,0,0,0,1,
6630fcae418bde6a9e7c3b47,SCR,2024-06-25_12h41.11.090,LearnStrategy,2023.2.3,Win32,59.52380952,2,2,2,,,,,,,,4,13,,,,,,,,,,,,,3,14.272,0,,,,,,0.130208333,-0.255208333,1,0,0,14.2723,Diorite_rect,1,0,1,0,1,
6630fcae418bde6a9e7c3b47,SCR,2024-06-25_12h41.11.090,LearnStrategy,2023.2.3,Win32,59.52380952,2,2,3,,,,,,,,6,10,,,,,,,,,,,,,6,1.781,1,,,,,,-0.122395833,-0.384114583,1,0,0,1.7813,Pegmatite_rect,2,0,2,0,1,
6630fcae418bde6a9e7c3b47,SCR,2024-06-25_12h41.11.090,LearnStrategy,2023.2.3,Win32,59.52380952,2,2,4,,,,,,,,3,02,,,,,,,,,,,,,3,7.38,1,,,,,,0.145833333,-0.236979167,1,0,0,7.3801,Diorite_rect,3,0,3,0,1,
6630fcae418bde6a9e7c3b47,SCR,2024-06-25_12h41.11.090,LearnStrategy,2023.2.3,Win32,59.52380952,2,2,5,,,,,,,,2,14,,,,,,,,,,,,,8,2.615,0,,,,,,0.407552083,-0.407552083,1,0,0,2.6155,Pumice_rect,4,0,4,0,1,
6630fcae418bde6a9e7c3b47,SCR,2024-06-25_12h41.11.090,LearnStrategy,2023.2.3,Win32,59.52380952,2,2,6,,,,,,,,4,10,,,,,,,,,,,,,4,2.121,1,,,,,,0.393229167,-0.252604167,1,0,0,2.1209,Gabbro_rect,5,0,5,0,1,
6630fcae418bde6a9e7c3b47,SCR,2024-06-25_12h41.11.090,LearnStrategy,2023.2.3,Win32,59.52380952,2,2,7,,,,,,,,1,14,,,,,,,,,,,,,7,7.329,0,,,,,,0.134114583,-0.401041667,1,0,0,7.3294,Peridotite_rect,6,0,6,0,1,
6630fcae418bde6a9e7c3b47,SCR,2024-06-25_12h41.11.090,LearnStrategy,2023.2.3,Win32,59.52380952,2,2,8,,,,,,,,7,08,,,,,,,,,,,,,7,2.03,1,,,,,,0.134114583,-0.401041667,1,0,0,2.0303,Peridotite_rect,7,0,7,0,1,
6630fcae418bde6a9e7c3b47,SCR,2024-06-25_12h41.11.090,LearnStrategy,2023.2.3,Win32,59.52380952,2,2,9,,,,,,,,8,15,,,,,,,,,,,,,8,1.694,1,,,,,,0.350260417,-0.393229167,1,0,0,1.6945,Pumice_rect,8,0,8,0,1,
6630fcae418bde6a9e7c3b47,SCR,2024-06-25_12h41.11.090,LearnStrategy,2023.2.3,Win32,59.52380952,2,2,10,,,,,,,,5,10,,,,,,,,,,,,,5,1.436,1,,,,,,-0.385416667,-0.401041667,1,0,0,1.4357,Obsidian_rect,9,0,9,0,1,
6630fcae418bde6a9e7c3b47,SCR,2024-06-25_12h41.11.090,LearnStrategy,2023.2.3,Win32,59.52380952,2,2,11,,,,,,,,7,06,,,,,,,,,,,,,1,6.153,0,,,,,,-0.360677083,-0.25,1,0,0,6.1534,Andesite_rect,10,0,10,0,1,
6630fcae418bde6a9e7c3b47,SCR,2024-06-25_12h41.11.090,LearnStrategy,2023.2.3,Win32,59.52380952,2,2,12,,,,,,,,5,04,,,,,,,,,,,,,5,1.397,1,,,,,,-0.369791667,-0.389322917,1,0,0,1.3968,Obsidian_rect,11,0,11,0,1,
6630fcae418bde6a9e7c3b47,SCR,2024-06-25_12h41.11.090,LearnStrategy,2023.2.3,Win32,59.52380952,2,2,13,,,,,,,,8,02,,,,,,,,,,,,,8,1.799,1,,,,,,0.358072917,-0.391927083,1,0,0,1.7986,Pumice_rect,12,0,12,0,1,
6630fcae418bde6a9e7c3b47,SCR,2024-06-25_12h41.11.090,LearnStrategy,2023.2.3,Win32,59.52380952,2,2,14,,,,,,,,2,06,,,,,,,,,,,,,4,1.721,0,,,,,,0.390625,-0.24609375,1,0,0,1.721,Gabbro_rect,13,0,13,0,1,
6630fcae418bde6a9e7c3b47,SCR,2024-06-25_12h41.11.090,LearnStrategy,2023.2.3,Win32,59.52380952,2,2,15,,,,,,,,1,11,,,,,,,,,,,,,2,9.905,0,,,,,,-0.118489583,-0.252604167,1,0,0,9.9055,Basalt_rect,14,0,14,0,1,
6630fcae418bde6a9e7c3b47,SCR,2024-06-25_12h41.11.090,LearnStrategy,2023.2.3,Win32,59.52380952,2,2,16,,,,,,,,3,15,,,,,,,,,,,,,3,3.789,1,,,,,,0.154947917,-0.24609375,1,0,0,3.7892,Diorite_rect,15,0,15,0,1,
6630fcae418bde6a9e7c3b47,SCR,2024-06-25_12h41.11.090,LearnStrategy,2023.2.3,Win32,59.52380952,3,1,1,-0.243489583,0.248697917,1,0,0,1.7372,Basalt_16,2,16,5,3,1.737,2,16,0.389322917,-0.252604167,1,0,0,4.9215,Gabbro_rect,4,4.922,0,0,0,0,0,1,,,,,,,,,,,,,
6630fcae418bde6a9e7c3b47,SCR,2024-06-25_12h41.11.090,LearnStrategy,2023.2.3,Win32,59.52380952,3,1,2,-0.041666667,-0.447916667,1,0,0,1.4507,Basalt_09,2,09,1,4,1.451,2,09,-0.13671875,-0.234375,1,0,0,1.0633,Basalt_rect,2,1.063,1,1,0,1,0,1,,,,,,,,,,,,,
6630fcae418bde6a9e7c3b47,SCR,2024-06-25_12h41.11.090,LearnStrategy,2023.2.3,Win32,59.52380952,3,1,3,-0.43359375,-0.104166667,1,0,0,1.1672,Peridotite_10,7,10,3,2,1.167,7,10,-0.38671875,-0.24609375,1,0,0,3.856,Andesite_rect,1,3.856,0,2,0,2,0,1,,,,,,,,,,,,,
6630fcae418bde6a9e7c3b47,SCR,2024-06-25_12h41.11.090,LearnStrategy,2023.2.3,Win32,59.52380952,3,1,4,-0.5234375,0.087239583,1,0,0,1.2907,Pumice_09,8,09,4,1,1.291,8,09,0.372395833,-0.38671875,1,0,0,1.7876,Pumice_rect,8,1.788,1,3,0,3,0,1,,,,,,,,,,,,,
6630fcae418bde6a9e7c3b47,SCR,2024-06-25_12h41.11.090,LearnStrategy,2023.2.3,Win32,59.52380952,3,1,5,0.41015625,0.305989583,1,0,0,1.1996,Basalt_10,2,10,5,7,1.2,2,10,0.372395833,-0.25,1,0,0,2.3322,Gabbro_rect,4,2.332,0,4,0,4,0,1,,,,,,,,,,,,,
6630fcae418bde6a9e7c3b47,SCR,2024-06-25_12h41.11.090,LearnStrategy,2023.2.3,Win32,59.52380952,3,1,6,-0.502604167,0.239583333,1,0,0,1.2844,Pegmatite_09,6,09,5,1,1.284,6,09,-0.16015625,-0.404947917,1,0,0,1.2903,Pegmatite_rect,6,1.29,1,5,0,5,0,1,,,,,,,,,,,,,
6630fcae418bde6a9e7c3b47,SCR,2024-06-25_12h41.11.090,LearnStrategy,2023.2.3,Win32,59.52380952,3,1,7,-0.397135417,0.399739583,1,0,0,1.148,Andesite_02,1,02,6,2,1.148,1,02,-0.342447917,-0.239583333,1,0,0,3.166,Andesite_rect,1,3.166,1,6,0,6,0,1,,,,,,,,,,,,,
6630fcae418bde6a9e7c3b47,SCR,2024-06-25_12h41.11.090,LearnStrategy,2023.2.3,Win32,59.52380952,3,1,8,-0.528645833,0.3828125,1,0,0,1.161,Andesite_06,1,06,6,1,1.161,1,06,-0.36328125,-0.24609375,1,0,0,10.5387,Andesite_rect,1,10.539,1,7,0,7,0,1,,,,,,,,,,,,,
6630fcae418bde6a9e7c3b47,SCR,2024-06-25_12h41.11.090,LearnStrategy,2023.2.3,Win32,59.52380952,3,1,9,-0.208333333,-0.091145833,1,0,0,1.1477,Gabbro_12,4,12,3,3,1.148,4,12,0.305989583,-0.248697917,1,0,0,1.7157,Gabbro_rect,4,1.716,1,8,0,8,0,1,,,,,,,,,,,,,
6630fcae418bde6a9e7c3b47,SCR,2024-06-25_12h41.11.090,LearnStrategy,2023.2.3,Win32,59.52380952,3,1,10,0.569010417,-0.134114583,1,0,0,1.9149,Diorite_13,3,13,3,8,1.915,3,13,0.119791667,-0.236979167,1,0,0,14.7158,Diorite_rect,3,14.716,1,9,0,9,0,1,,,,,,,,,,,,,
6630fcae418bde6a9e7c3b47,SCR,2024-06-25_12h41.11.090,LearnStrategy,2023.2.3,Win32,59.52380952,3,1,11,0.390625,0.4375,1,0,0,1.2495,Obsidian_06,5,06,6,7,1.25,5,06,-0.419270833,-0.389322917,1,0,0,1.2518,Obsidian_rect,5,1.252,1,10,0,10,0,1,,,,,,,,,,,,,
6630fcae418bde6a9e7c3b47,SCR,2024-06-25_12h41.11.090,LearnStrategy,2023.2.3,Win32,59.52380952,3,1,12,-0.233072917,-0.092447917,1,0,0,0.9975,Gabbro_12,4,12,3,3,0.997,4,12,-0.106770833,-0.23828125,1,0,0,2.0925,Basalt_rect,2,2.092,0,11,0,11,0,1,,,,,,,,,,,,,
6630fcae418bde6a9e7c3b47,SCR,2024-06-25_12h41.11.090,LearnStrategy,2023.2.3,Win32,59.52380952,3,1,13,0.234375,-0.260416667,1,0,0,0.9975,Peridotite_15,7,15,2,6,0.997,7,15,-0.4140625,-0.240885417,1,0,0,1.7,Andesite_rect,1,1.7,0,12,0,12,0,1,,,,,,,,,,,,,
6630fcae418bde6a9e7c3b47,SCR,2024-06-25_12h41.11.090,LearnStrategy,2023.2.3,Win32,59.52380952,3,1,14,-0.5390625,0.423177083,1,0,0,1.5523,Andesite_06,1,06,6,1,1.552,1,06,-0.34765625,-0.244791667,1,0,0,2.3966,Andesite_rect,1,2.397,1,13,0,13,0,1,,,,,,,,,,,,,
6630fcae418bde6a9e7c3b47,SCR,2024-06-25_12h41.11.090,LearnStrategy,2023.2.3,Win32,59.52380952,3,1,15,0.5546875,0.251302083,1,0,0,1.2282,Diorite_11,3,11,5,8,1.228,3,11,0.127604167,-0.260416667,1,0,0,1.2329,Diorite_rect,3,1.233,1,14,0,14,0,1,,,,,,,,,,,,,
6630fcae418bde6a9e7c3b47,SCR,2024-06-25_12h41.11.090,LearnStrategy,2023.2.3,Win32,59.52380952,3,1,16,0.229166667,0.239583333,1,0,0,1.2137,Andesite_01,1,01,5,6,1.214,1,01,0.375,-0.247395833,1,0,0,5.3157,Gabbro_rect,4,5.316,0,15,0,15,0,1,,,,,,,,,,,,,
6630fcae418bde6a9e7c3b47,SCR,2024-06-25_12h41.11.090,LearnStrategy,2023.2.3,Win32,59.52380952,3,2,1,,,,,,,,1,04,,,,,,,,,,,,,3,14.837,0,,,,,,0.154947917,-0.235677083,1,0,0,14.8369,Diorite_rect,0,0,0,0,1,
6630fcae418bde6a9e7c3b47,SCR,2024-06-25_12h41.11.090,LearnStrategy,2023.2.3,Win32,59.52380952,3,2,2,,,,,,,,3,08,,,,,,,,,,,,,3,5.165,1,,,,,,0.131510417,-0.259114583,1,0,0,5.1646,Diorite_rect,1,0,1,0,1,
6630fcae418bde6a9e7c3b47,SCR,2024-06-25_12h41.11.090,LearnStrategy,2023.2.3,Win32,59.52380952,3,2,3,,,,,,,,5,12,,,,,,,,,,,,,5,1.365,1,,,,,,-0.354166667,-0.37890625,1,0,0,1.3652,Obsidian_rect,2,0,2,0,1,
6630fcae418bde6a9e7c3b47,SCR,2024-06-25_12h41.11.090,LearnStrategy,2023.2.3,Win32,59.52380952,3,2,4,,,,,,,,2,11,,,,,,,,,,,,,8,2.428,0,,,,,,0.391927083,-0.399739583,1,0,0,2.4283,Pumice_rect,3,0,3,0,1,
6630fcae418bde6a9e7c3b47,SCR,2024-06-25_12h41.11.090,LearnStrategy,2023.2.3,Win32,59.52380952,3,2,5,,,,,,,,7,12,,,,,,,,,,,,,7,3.062,1,,,,,,0.135416667,-0.3984375,1,0,0,3.0621,Peridotite_rect,4,0,4,0,1,
6630fcae418bde6a9e7c3b47,SCR,2024-06-25_12h41.11.090,LearnStrategy,2023.2.3,Win32,59.52380952,3,2,6,,,,,,,,3,07,,,,,,,,,,,,,3,3.1,1,,,,,,0.084635417,-0.240885417,1,0,0,3.0999,Diorite_rect,5,0,5,0,1,
6630fcae418bde6a9e7c3b47,SCR,2024-06-25_12h41.11.090,LearnStrategy,2023.2.3,Win32,59.52380952,3,2,7,,,,,,,,5,16,,,,,,,,,,,,,5,2.09,1,,,,,,-0.416666667,-0.399739583,1,0,0,2.0904,Obsidian_rect,6,0,6,0,1,
6630fcae418bde6a9e7c3b47,SCR,2024-06-25_12h41.11.090,LearnStrategy,2023.2.3,Win32,59.52380952,3,2,8,,,,,,,,7,05,,,,,,,,,,,,,7,9.589,1,,,,,,0.134114583,-0.38671875,1,0,0,9.5893,Peridotite_rect,7,0,7,0,1,
6630fcae418bde6a9e7c3b47,SCR,2024-06-25_12h41.11.090,LearnStrategy,2023.2.3,Win32,59.52380952,3,2,9,,,,,,,,1,09,,,,,,,,,,,,,2,2.924,0,,,,,,-0.130208333,-0.255208333,1,0,0,2.9236,Basalt_rect,8,0,8,0,1,
6630fcae418bde6a9e7c3b47,SCR,2024-06-25_12h41.11.090,LearnStrategy,2023.2.3,Win32,59.52380952,3,2,10,,,,,,,,2,08,,,,,,,,,,,,,4,2.305,0,,,,,,0.428385417,-0.263020833,1,0,0,2.3045,Gabbro_rect,9,0,9,0,1,
6630fcae418bde6a9e7c3b47,SCR,2024-06-25_12h41.11.090,LearnStrategy,2023.2.3,Win32,59.52380952,3,2,11,,,,,,,,4,03,,,,,,,,,,,,,4,1.577,1,,,,,,0.391927083,-0.247395833,1,0,0,1.5771,Gabbro_rect,10,0,10,0,1,
6630fcae418bde6a9e7c3b47,SCR,2024-06-25_12h41.11.090,LearnStrategy,2023.2.3,Win32,59.52380952,3,2,12,,,,,,,,6,06,,,,,,,,,,,,,6,4.056,1,,,,,,-0.158854167,-0.403645833,1,0,0,4.0561,Pegmatite_rect,11,0,11,0,1,
6630fcae418bde6a9e7c3b47,SCR,2024-06-25_12h41.11.090,LearnStrategy,2023.2.3,Win32,59.52380952,3,2,13,,,,,,,,8,03,,,,,,,,,,,,,8,1.607,1,,,,,,0.361979167,-0.3828125,1,0,0,1.6069,Pumice_rect,12,0,12,0,1,
6630fcae418bde6a9e7c3b47,SCR,2024-06-25_12h41.11.090,LearnStrategy,2023.2.3,Win32,59.52380952,3,2,14,,,,,,,,8,06,,,,,,,,,,,,,8,1.544,1,,,,,,0.376302083,-0.39453125,1,0,0,1.5437,Pumice_rect,13,0,13,0,1,
6630fcae418bde6a9e7c3b47,SCR,2024-06-25_12h41.11.090,LearnStrategy,2023.2.3,Win32,59.52380952,3,2,15,,,,,,,,6,16,,,,,,,,,,,,,6,2.191,1,,,,,,-0.127604167,-0.40234375,1,0,0,2.1909,Pegmatite_rect,14,0,14,0,1,
6630fcae418bde6a9e7c3b47,SCR,2024-06-25_12h41.11.090,LearnStrategy,2023.2.3,Win32,59.52380952,3,2,16,,,,,,,,4,05,,,,,,,,,,,,,7,10.926,0,,,,,,0.149739583,-0.3828125,1,0,0,10.9261,Peridotite_rect,15,0,15,0,1,
6630fcae418bde6a9e7c3b47,SCR,2024-06-25_12h41.11.090,LearnStrategy,2023.2.3,Win32,59.52380952,4,1,1,0.421875,0.283854167,1,0,0,1.6325,Basalt_10,2,10,5,7,1.632,2,10,0.365885417,-0.235677083,1,0,0,1.863,Gabbro_rect,4,1.863,0,0,0,0,0,1,,,,,,,,,,,,,
6630fcae418bde6a9e7c3b47,SCR,2024-06-25_12h41.11.090,LearnStrategy,2023.2.3,Win32,59.52380952,4,1,2,0.572916667,0.278645833,1,0,0,1.2621,Diorite_11,3,11,5,8,1.262,3,11,0.126302083,-0.264322917,1,0,0,2.7088,Diorite_rect,3,2.709,1,1,0,1,0,1,,,,,,,,,,,,,
6630fcae418bde6a9e7c3b47,SCR,2024-06-25_12h41.11.090,LearnStrategy,2023.2.3,Win32,59.52380952,4,1,3,-0.092447917,-0.205729167,1,0,0,1.1851,Basalt_01,2,01,2,4,1.185,2,01,-0.10546875,-0.236979167,1,0,0,2.0294,Basalt_rect,2,2.029,1,2,0,2,0,1,,,,,,,,,,,,,
6630fcae418bde6a9e7c3b47,SCR,2024-06-25_12h41.11.090,LearnStrategy,2023.2.3,Win32,59.52380952,4,1,4,-0.388020833,-0.227864583,1,0,0,1.3307,Gabbro_15,4,15,2,2,1.331,4,15,0.106770833,-0.2578125,1,0,0,14.3429,Diorite_rect,3,14.343,0,3,0,3,0,1,,,,,,,,,,,,,
6630fcae418bde6a9e7c3b47,SCR,2024-06-25_12h41.11.090,LearnStrategy,2023.2.3,Win32,59.52380952,4,1,5,-0.065104167,-0.065104167,1,0,0,0.9646,Andesite_07,1,07,3,4,0.965,1,07,0.114583333,-0.397135417,1,0,0,1.9144,Peridotite_rect,7,1.914,0,4,0,4,0,1,,,,,,,,,,,,,
6630fcae418bde6a9e7c3b47,SCR,2024-06-25_12h41.11.090,LearnStrategy,2023.2.3,Win32,59.52380952,4,1,6,-0.201822917,0.0859375,1,0,0,1.017,Pegmatite_03,6,03,4,3,1.017,6,03,-0.1640625,-0.412760417,1,0,0,1.7415,Pegmatite_rect,6,1.742,1,5,0,5,0,1,,,,,,,,,,,,,
6630fcae418bde6a9e7c3b47,SCR,2024-06-25_12h41.11.090,LearnStrategy,2023.2.3,Win32,59.52380952,4,1,7,-0.498697917,0.40625,1,0,0,1.3062,Andesite_06,1,06,6,1,1.306,1,06,0.145833333,-0.25390625,1,0,0,1.1417,Diorite_rect,3,1.142,0,6,0,6,0,1,,,,,,,,,,,,,
6630fcae418bde6a9e7c3b47,SCR,2024-06-25_12h41.11.090,LearnStrategy,2023.2.3,Win32,59.52380952,4,1,8,-0.104166667,0.279947917,1,0,0,1.3481,Diorite_06,3,06,5,4,1.348,3,06,0.200520833,-0.24609375,1,0,0,1.7236,Diorite_rect,3,1.724,1,7,0,7,0,1,,,,,,,,,,,,,
6630fcae418bde6a9e7c3b47,SCR,2024-06-25_12h41.11.090,LearnStrategy,2023.2.3,Win32,59.52380952,4,1,9,0.243489583,-0.104166667,1,0,0,1.7649,Andesite_16,1,16,3,6,1.765,1,16,0.141927083,-0.23828125,1,0,0,1.2054,Diorite_rect,3,1.205,0,8,0,8,0,1,,,,,,,,,,,,,
6630fcae418bde6a9e7c3b47,SCR,2024-06-25_12h41.11.090,LearnStrategy,2023.2.3,Win32,59.52380952,4,1,10,-0.2421875,-0.401041667,1,0,0,1.1809,Obsidian_07,5,07,1,3,1.181,5,07,-0.341145833,-0.40234375,1,0,0,0.8683,Obsidian_rect,5,0.868,1,9,0,9,0,1,,,,,,,,,,,,,
6630fcae418bde6a9e7c3b47,SCR,2024-06-25_12h41.11.090,LearnStrategy,2023.2.3,Win32,59.52380952,4,1,11,-0.5625,-0.430989583,1,0,0,1.2129,Pumice_10,8,10,1,1,1.213,8,10,0.334635417,-0.391927083,1,0,0,1.0788,Pumice_rect,8,1.079,1,10,0,10,0,1,,,,,,,,,,,,,
6630fcae418bde6a9e7c3b47,SCR,2024-06-25_12h41.11.090,LearnStrategy,2023.2.3,Win32,59.52380952,4,1,12,-0.591145833,-0.096354167,1,0,0,1.2559,Gabbro_08,4,08,3,1,1.256,4,08,0.138020833,-0.38671875,1,0,0,3.2295,Peridotite_rect,7,3.229,0,11,0,11,0,1,,,,,,,,,,,,,
6630fcae418bde6a9e7c3b47,SCR,2024-06-25_12h41.11.090,LearnStrategy,2023.2.3,Win32,59.52380952,4,1,13,-0.236979167,0.44140625,1,0,0,1.081,Peridotite_14,7,14,6,3,1.081,7,14,0.134114583,-0.395833333,1,0,0,2.3932,Peridotite_rect,7,2.393,1,12,0,12,0,1,,,,,,,,,,,,,
6630fcae418bde6a9e7c3b47,SCR,2024-06-25_12h41.11.090,LearnStrategy,2023.2.3,Win32,59.52380952,4,1,14,-0.095052083,-0.264322917,1,0,0,1.0675,Basalt_01,2,01,2,4,1.067,2,01,-0.114583333,-0.2421875,1,0,0,1.1156,Basalt_rect,2,1.116,1,13,0,13,0,1,,,,,,,,,,,,,
6630fcae418bde6a9e7c3b47,SCR,2024-06-25_12h41.11.090,LearnStrategy,2023.2.3,Win32,59.52380952,4,1,15,-0.088541667,0.123697917,1,0,0,0.9318,Basalt_05,2,05,4,4,0.932,2,05,0.345052083,-0.26171875,1,0,0,2.0435,Gabbro_rect,4,2.043,0,14,0,14,0,1,,,,,,,,,,,,,
6630fcae418bde6a9e7c3b47,SCR,2024-06-25_12h41.11.090,LearnStrategy,2023.2.3,Win32,59.52380952,4,1,16,-0.399739583,0.231770833,1,0,0,1.1987,Andesite_05,1,05,5,2,1.199,1,05,0.147135417,-0.403645833,1,0,0,1.8251,Peridotite_rect,7,1.825,0,15,0,15,0,1,,,,,,,,,,,,,
6630fcae418bde6a9e7c3b47,SCR,2024-06-25_12h41.11.090,LearnStrategy,2023.2.3,Win32,59.52380952,4,2,1,,,,,,,,6,15,,,,,,,,,,,,,6,2.877,1,,,,,,-0.125,-0.397135417,1,0,0,2.8767,Pegmatite_rect,0,0,0,0,1,
6630fcae418bde6a9e7c3b47,SCR,2024-06-25_12h41.11.090,LearnStrategy,2023.2.3,Win32,59.52380952,4,2,2,,,,,,,,1,11,,,,,,,,,,,,,2,24.322,0,,,,,,-0.149739583,-0.229166667,1,0,0,24.3225,Basalt_rect,1,0,1,0,1,
6630fcae418bde6a9e7c3b47,SCR,2024-06-25_12h41.11.090,LearnStrategy,2023.2.3,Win32,59.52380952,4,2,3,,,,,,,,3,12,,,,,,,,,,,,,3,6.204,1,,,,,,0.141927083,-0.24609375,1,0,0,6.2044,Diorite_rect,2,0,2,0,1,
6630fcae418bde6a9e7c3b47,SCR,2024-06-25_12h41.11.090,LearnStrategy,2023.2.3,Win32,59.52380952,4,2,4,,,,,,,,1,14,,,,,,,,,,,,,3,35.247,0,,,,,,0.134114583,-0.252604167,1,0,0,35.247,Diorite_rect,3,0,3,0,1,
6630fcae418bde6a9e7c3b47,SCR,2024-06-25_12h41.11.090,LearnStrategy,2023.2.3,Win32,59.52380952,4,2,5,,,,,,,,8,06,,,,,,,,,,,,,8,1.342,1,,,,,,0.377604167,-0.391927083,1,0,0,1.3422,Pumice_rect,4,0,4,0,1,
6630fcae418bde6a9e7c3b47,SCR,2024-06-25_12h41.11.090,LearnStrategy,2023.2.3,Win32,59.52380952,4,2,6,,,,,,,,8,03,,,,,,,,,,,,,8,1.237,1,,,,,,0.37890625,-0.393229167,1,0,0,1.2373,Pumice_rect,5,0,5,0,1,
6630fcae418bde6a9e7c3b47,SCR,2024-06-25_12h41.11.090,LearnStrategy,2023.2.3,Win32,59.52380952,4,2,7,,,,,,,,2,06,,,,,,,,,,,,,4,4.563,0,,,,,,0.397135417,-0.247395833,1,0,0,4.5625,Gabbro_rect,6,0,6,0,1,
6630fcae418bde6a9e7c3b47,SCR,2024-06-25_12h41.11.090,LearnStrategy,2023.2.3,Win32,59.52380952,4,2,8,,,,,,,,5,11,,,,,,,,,,,,,5,1.411,1,,,,,,-0.399739583,-0.39453125,1,0,0,1.4114,Obsidian_rect,7,0,7,0,1,
6630fcae418bde6a9e7c3b47,SCR,2024-06-25_12h41.11.090,LearnStrategy,2023.2.3,Win32,59.52380952,4,2,9,,,,,,,,5,12,,,,,,,,,,,,,5,1.181,1,,,,,,-0.401041667,-0.390625,1,0,0,1.1808,Obsidian_rect,8,0,8,0,1,
6630fcae418bde6a9e7c3b47,SCR,2024-06-25_12h41.11.090,LearnStrategy,2023.2.3,Win32,59.52380952,4,2,10,,,,,,,,3,07,,,,,,,,,,,,,3,5.034,1,,,,,,0.130208333,-0.23046875,1,0,0,5.0339,Diorite_rect,9,0,9,0,1,
6630fcae418bde6a9e7c3b47,SCR,2024-06-25_12h41.11.090,LearnStrategy,2023.2.3,Win32,59.52380952,4,2,11,,,,,,,,2,14,,,,,,,,,,,,,8,1.664,0,,,,,,0.416666667,-0.4140625,1,0,0,1.6639,Pumice_rect,10,0,10,0,1,
6630fcae418bde6a9e7c3b47,SCR,2024-06-25_12h41.11.090,LearnStrategy,2023.2.3,Win32,59.52380952,4,2,12,,,,,,,,7,12,,,,,,,,,,,,,7,10.846,1,,,,,,0.109375,-0.407552083,1,0,0,10.8462,Peridotite_rect,11,0,11,0,1,
6630fcae418bde6a9e7c3b47,SCR,2024-06-25_12h41.11.090,LearnStrategy,2023.2.3,Win32,59.52380952,4,2,13,,,,,,,,4,16,,,,,,,,,,,,,4,1.619,1,,,,,,0.436197917,-0.247395833,1,0,0,1.6192,Gabbro_rect,12,0,12,0,1,
6630fcae418bde6a9e7c3b47,SCR,2024-06-25_12h41.11.090,LearnStrategy,2023.2.3,Win32,59.52380952,4,2,14,,,,,,,,6,10,,,,,,,,,,,,,6,1.989,1,,,,,,-0.115885417,-0.401041667,1,0,0,1.9893,Pegmatite_rect,13,0,13,0,1,
6630fcae418bde6a9e7c3b47,SCR,2024-06-25_12h41.11.090,LearnStrategy,2023.2.3,Win32,59.52380952,4,2,15,,,,,,,,4,10,,,,,,,,,,,,,4,2.136,1,,,,,,0.376302083,-0.244791667,1,0,0,2.1361,Gabbro_rect,14,0,14,0,1,
6630fcae418bde6a9e7c3b47,SCR,2024-06-25_12h41.11.090,LearnStrategy,2023.2.3,Win32,59.52380952,4,2,16,,,,,,,,7,05,,,,,,,,,,,,,7,26.114,1,,,,,,0.16015625,-0.411458333,1,0,0,26.1139,Peridotite_rect,15,0,15,0,1,
6630fcae418bde6a9e7c3b47,SCR,2024-06-25_12h41.11.090,LearnStrategy,2023.2.3,Win32,59.52380952,5,1,1,0.078125,0.2578125,1,0,0,2.9651,Basalt_12,2,12,5,5,2.965,2,12,0.35546875,-0.403645833,1,0,0,1.1964,Pumice_rect,8,1.196,0,0,0,0,0,1,,,,,,,,,,,,,
6630fcae418bde6a9e7c3b47,SCR,2024-06-25_12h41.11.090,LearnStrategy,2023.2.3,Win32,59.52380952,5,1,2,-0.0625,-0.305989583,1,0,0,1.0814,Basalt_01,2,01,2,4,1.081,2,01,-0.09375,-0.25390625,1,0,0,0.8017,Basalt_rect,2,0.802,1,1,0,1,0,1,,,,,,,,,,,,,
6630fcae418bde6a9e7c3b47,SCR,2024-06-25_12h41.11.090,LearnStrategy,2023.2.3,Win32,59.52380952,5,1,3,0.263020833,-0.145833333,1,0,0,1.1136,Andesite_16,1,16,3,6,1.114,1,16,0.151041667,-0.384114583,1,0,0,2.1907,Peridotite_rect,7,2.191,0,2,0,2,0,1,,,,,,,,,,,,,
6630fcae418bde6a9e7c3b47,SCR,2024-06-25_12h41.11.090,LearnStrategy,2023.2.3,Win32,59.52380952,5,1,4,-0.19921875,-0.247395833,1,0,0,1.2141,Gabbro_09,4,09,2,3,1.214,4,09,0.3828125,-0.255208333,1,0,0,1.8323,Gabbro_rect,4,1.832,1,3,0,3,0,1,,,,,,,,,,,,,
6630fcae418bde6a9e7c3b47,SCR,2024-06-25_12h41.11.090,LearnStrategy,2023.2.3,Win32,59.52380952,5,1,5,-0.05078125,-0.3828125,1,0,0,1.1306,Basalt_09,2,09,1,4,1.131,2,09,-0.092447917,-0.243489583,1,0,0,1.5689,Basalt_rect,2,1.569,1,4,0,4,0,1,,,,,,,,,,,,,
6630fcae418bde6a9e7c3b47,SCR,2024-06-25_12h41.11.090,LearnStrategy,2023.2.3,Win32,59.52380952,5,1,6,0.579427083,0.26953125,1,0,0,1.1973,Diorite_11,3,11,5,8,1.197,3,11,-0.3828125,-0.243489583,1,0,0,1.7183,Andesite_rect,1,1.718,0,5,0,5,0,1,,,,,,,,,,,,,
6630fcae418bde6a9e7c3b47,SCR,2024-06-25_12h41.11.090,LearnStrategy,2023.2.3,Win32,59.52380952,5,1,7,-0.227864583,-0.083333333,1,0,0,1.1524,Gabbro_12,4,12,3,3,1.152,4,12,0.403645833,-0.23828125,1,0,0,1.7433,Gabbro_rect,4,1.743,1,6,0,6,0,1,,,,,,,,,,,,,
6630fcae418bde6a9e7c3b47,SCR,2024-06-25_12h41.11.090,LearnStrategy,2023.2.3,Win32,59.52380952,5,1,8,0.063802083,0.102864583,1,0,0,0.9137,Pegmatite_07,6,07,4,5,0.914,6,07,-0.139322917,-0.395833333,1,0,0,2.4706,Pegmatite_rect,6,2.471,1,7,0,7,0,1,,,,,,,,,,,,,
6630fcae418bde6a9e7c3b47,SCR,2024-06-25_12h41.11.090,LearnStrategy,2023.2.3,Win32,59.52380952,5,1,9,-0.055989583,-0.07421875,1,0,0,0.9183,Andesite_07,1,07,3,4,0.918,1,07,0.139322917,-0.397135417,1,0,0,2.9431,Peridotite_rect,7,2.943,0,8,0,8,0,1,,,,,,,,,,,,,
6630fcae418bde6a9e7c3b47,SCR,2024-06-25_12h41.11.090,LearnStrategy,2023.2.3,Win32,59.52380952,5,1,10,-0.084635417,0.109375,1,0,0,0.9486,Basalt_05,2,05,4,4,0.949,2,05,0.376302083,-0.2421875,1,0,0,1.6347,Gabbro_rect,4,1.635,0,9,0,9,0,1,,,,,,,,,,,,,
6630fcae418bde6a9e7c3b47,SCR,2024-06-25_12h41.11.090,LearnStrategy,2023.2.3,Win32,59.52380952,5,1,11,-0.526041667,0.373697917,1,0,0,1.3926,Andesite_06,1,06,6,1,1.393,1,06,-0.391927083,-0.239583333,1,0,0,8.9637,Andesite_rect,1,8.964,1,10,0,10,0,1,,,,,,,,,,,,,
6630fcae418bde6a9e7c3b47,SCR,2024-06-25_12h41.11.090,LearnStrategy,2023.2.3,Win32,59.52380952,5,1,12,-0.052083333,-0.385416667,1,0,0,3.0157,Basalt_09,2,09,1,4,3.016,2,09,-0.07421875,-0.236979167,1,0,0,1.2125,Basalt_rect,2,1.212,1,11,0,11,0,1,,,,,,,,,,,,,
6630fcae418bde6a9e7c3b47,SCR,2024-06-25_12h41.11.090,LearnStrategy,2023.2.3,Win32,59.52380952,5,1,13,-0.049479167,-0.092447917,1,0,0,0.9332,Andesite_07,1,07,3,4,0.933,1,07,-0.34765625,-0.234375,1,0,0,1.0639,Andesite_rect,1,1.064,1,12,0,12,0,1,,,,,,,,,,,,,
6630fcae418bde6a9e7c3b47,SCR,2024-06-25_12h41.11.090,LearnStrategy,2023.2.3,Win32,59.52380952,5,1,14,-0.348958333,-0.083333333,1,0,0,1.0642,Peridotite_10,7,10,3,2,1.064,7,10,0.127604167,-0.411458333,1,0,0,1.5145,Peridotite_rect,7,1.514,1,13,0,13,0,1,,,,,,,,,,,,,
6630fcae418bde6a9e7c3b47,SCR,2024-06-25_12h41.11.090,LearnStrategy,2023.2.3,Win32,59.52380952,5,1,15,-0.09375,-0.139322917,1,0,0,0.8316,Andesite_07,1,07,3,4,0.832,1,07,-0.345052083,-0.25390625,1,0,0,0.9144,Andesite_rect,1,0.914,1,14,0,14,0,1,,,,,,,,,,,,,
6630fcae418bde6a9e7c3b47,SCR,2024-06-25_12h41.11.090,LearnStrategy,2023.2.3,Win32,59.52380952,5,1,16,-0.549479167,0.092447917,1,0,0,1.157,Pumice_09,8,09,4,1,1.157,8,09,0.389322917,-0.391927083,1,0,0,1.2766,Pumice_rect,8,1.277,1,15,0,15,0,1,,,,,,,,,,,,,
6630fcae418bde6a9e7c3b47,SCR,2024-06-25_12h41.11.090,LearnStrategy,2023.2.3,Win32,59.52380952,5,2,1,,,,,,,,4,13,,,,,,,,,,,,,4,11.404,1,,,,,,0.407552083,-0.23046875,1,0,0,11.4038,Gabbro_rect,0,0,0,0,1,
6630fcae418bde6a9e7c3b47,SCR,2024-06-25_12h41.11.090,LearnStrategy,2023.2.3,Win32,59.52380952,5,2,2,,,,,,,,6,12,,,,,,,,,,,,,6,1.233,1,,,,,,-0.091145833,-0.412760417,1,0,0,1.233,Pegmatite_rect,1,0,1,0,1,
6630fcae418bde6a9e7c3b47,SCR,2024-06-25_12h41.11.090,LearnStrategy,2023.2.3,Win32,59.52380952,5,2,3,,,,,,,,8,13,,,,,,,,,,,,,8,1.427,1,,,,,,0.403645833,-0.388020833,1,0,0,1.4273,Pumice_rect,2,0,2,0,1,
6630fcae418bde6a9e7c3b47,SCR,2024-06-25_12h41.11.090,LearnStrategy,2023.2.3,Win32,59.52380952,5,2,4,,,,,,,,5,09,,,,,,,,,,,,,5,1.748,1,,,,,,-0.384114583,-0.403645833,1,0,0,1.7478,Obsidian_rect,3,0,3,0,1,
6630fcae418bde6a9e7c3b47,SCR,2024-06-25_12h41.11.090,LearnStrategy,2023.2.3,Win32,59.52380952,5,2,5,,,,,,,,3,14,,,,,,,,,,,,,3,4.522,1,,,,,,0.078125,-0.25,1,0,0,4.522,Diorite_rect,4,0,4,0,1,
6630fcae418bde6a9e7c3b47,SCR,2024-06-25_12h41.11.090,LearnStrategy,2023.2.3,Win32,59.52380952,5,2,6,,,,,,,,7,06,,,,,,,,,,,,,7,26.233,1,,,,,,0.149739583,-0.391927083,1,0,0,26.2325,Peridotite_rect,5,0,5,0,1,
6630fcae418bde6a9e7c3b47,SCR,2024-06-25_12h41.11.090,LearnStrategy,2023.2.3,Win32,59.52380952,5,2,7,,,,,,,,4,05,,,,,,,,,,,,,4,8.317,1,,,,,,0.391927083,-0.236979167,1,0,0,8.3167,Gabbro_rect,6,0,6,0,1,
6630fcae418bde6a9e7c3b47,SCR,2024-06-25_12h41.11.090,LearnStrategy,2023.2.3,Win32,59.52380952,5,2,8,,,,,,,,1,03,,,,,,,,,,,,,2,1.796,0,,,,,,-0.115885417,-0.248697917,1,0,0,1.7957,Basalt_rect,7,0,7,0,1,
6630fcae418bde6a9e7c3b47,SCR,2024-06-25_12h41.11.090,LearnStrategy,2023.2.3,Win32,59.52380952,5,2,9,,,,,,,,3,08,,,,,,,,,,,,,3,12.39,1,,,,,,0.096354167,-0.25390625,1,0,0,12.3903,Diorite_rect,8,0,8,0,1,
6630fcae418bde6a9e7c3b47,SCR,2024-06-25_12h41.11.090,LearnStrategy,2023.2.3,Win32,59.52380952,5,2,10,,,,,,,,8,15,,,,,,,,,,,,,8,1.339,1,,,,,,0.360677083,-0.399739583,1,0,0,1.3393,Pumice_rect,9,0,9,0,1,
6630fcae418bde6a9e7c3b47,SCR,2024-06-25_12h41.11.090,LearnStrategy,2023.2.3,Win32,59.52380952,5,2,11,,,,,,,,1,04,,,,,,,,,,,,,4,6.665,0,,,,,,0.3984375,-0.25,1,0,0,6.665,Gabbro_rect,10,0,10,0,1,
6630fcae418bde6a9e7c3b47,SCR,2024-06-25_12h41.11.090,LearnStrategy,2023.2.3,Win32,59.52380952,5,2,12,,,,,,,,2,08,,,,,,,,,,,,,2,4.225,1,,,,,,-0.118489583,-0.24609375,1,0,0,4.2248,Basalt_rect,11,0,11,0,1,
6630fcae418bde6a9e7c3b47,SCR,2024-06-25_12h41.11.090,LearnStrategy,2023.2.3,Win32,59.52380952,5,2,13,,,,,,,,5,10,,,,,,,,,,,,,5,1.419,1,,,,,,-0.404947917,-0.385416667,1,0,0,1.4188,Obsidian_rect,12,0,12,0,1,
6630fcae418bde6a9e7c3b47,SCR,2024-06-25_12h41.11.090,LearnStrategy,2023.2.3,Win32,59.52380952,5,2,14,,,,,,,,6,06,,,,,,,,,,,,,6,1.465,1,,,,,,-0.126302083,-0.408854167,1,0,0,1.4652,Pegmatite_rect,13,0,13,0,1,
6630fcae418bde6a9e7c3b47,SCR,2024-06-25_12h41.11.090,LearnStrategy,2023.2.3,Win32,59.52380952,5,2,15,,,,,,,,2,11,,,,,,,,,,,,,2,1.954,1,,,,,,-0.104166667,-0.243489583,1,0,0,1.9535,Basalt_rect,14,0,14,0,1,
6630fcae418bde6a9e7c3b47,SCR,2024-06-25_12h41.11.090,LearnStrategy,2023.2.3,Win32,59.52380952,5,2,16,,,,,,,,7,07,,,,,,,,,,,,,7,5.113,1,,,,,,0.118489583,-0.40625,1,0,0,5.1127,Peridotite_rect,15,0,15,0,1,
6630fcae418bde6a9e7c3b47,SCR,2024-06-25_12h41.11.090,LearnStrategy,2023.2.3,Win32,59.52380952,6,1,1,0.095052083,-0.39453125,1,0,0,2.9861,Peridotite_02,7,02,1,5,2.986,7,02,0.119791667,-0.397135417,1,0,0,1.4898,Peridotite_rect,7,1.49,1,0,0,0,0,1,,,,,,,,,,,,,
6630fcae418bde6a9e7c3b47,SCR,2024-06-25_12h41.11.090,LearnStrategy,2023.2.3,Win32,59.52380952,6,1,2,-0.377604167,0.403645833,1,0,0,1.2322,Andesite_02,1,02,6,2,1.232,1,02,-0.08203125,-0.244791667,1,0,0,2.0105,Basalt_rect,2,2.01,0,1,0,1,0,1,,,,,,,,,,,,,
6630fcae418bde6a9e7c3b47,SCR,2024-06-25_12h41.11.090,LearnStrategy,2023.2.3,Win32,59.52380952,6,1,3,0.276041667,0.2265625,1,0,0,1.2962,Andesite_01,1,01,5,6,1.296,1,01,0.40625,-0.263020833,1,0,0,1.3001,Gabbro_rect,4,1.3,0,2,0,2,0,1,,,,,,,,,,,,,
6630fcae418bde6a9e7c3b47,SCR,2024-06-25_12h41.11.090,LearnStrategy,2023.2.3,Win32,59.52380952,6,1,4,-0.09375,-0.298177083,1,0,0,1.1731,Basalt_01,2,01,2,4,1.173,2,01,-0.109375,-0.255208333,1,0,0,1.4803,Basalt_rect,2,1.48,1,3,0,3,0,1,,,,,,,,,,,,,
6630fcae418bde6a9e7c3b47,SCR,2024-06-25_12h41.11.090,LearnStrategy,2023.2.3,Win32,59.52380952,6,1,5,0.227864583,-0.1015625,1,0,0,0.9489,Andesite_16,1,16,3,6,0.949,1,16,0.126302083,-0.41796875,1,0,0,2.1997,Peridotite_rect,7,2.2,0,4,0,4,0,1,,,,,,,,,,,,,
6630fcae418bde6a9e7c3b47,SCR,2024-06-25_12h41.11.090,LearnStrategy,2023.2.3,Win32,59.52380952,6,1,6,-0.203125,0.274739583,1,0,0,2.6826,Basalt_16,2,16,5,3,2.683,2,16,0.393229167,-0.240885417,1,0,0,1.6621,Gabbro_rect,4,1.662,0,5,0,5,0,1,,,,,,,,,,,,,
6630fcae418bde6a9e7c3b47,SCR,2024-06-25_12h41.11.090,LearnStrategy,2023.2.3,Win32,59.52380952,6,1,7,0.381510417,0.088541667,1,0,0,1.1353,Diorite_16,3,16,4,7,1.135,3,16,0.1484375,-0.25390625,1,0,0,2.7283,Diorite_rect,3,2.728,1,6,0,6,0,1,,,,,,,,,,,,,
6630fcae418bde6a9e7c3b47,SCR,2024-06-25_12h41.11.090,LearnStrategy,2023.2.3,Win32,59.52380952,6,1,8,0.244791667,0.263020833,1,0,0,1.1321,Andesite_01,1,01,5,6,1.132,1,01,0.13671875,-0.397135417,1,0,0,2.1389,Peridotite_rect,7,2.139,0,7,0,7,0,1,,,,,,,,,,,,,
6630fcae418bde6a9e7c3b47,SCR,2024-06-25_12h41.11.090,LearnStrategy,2023.2.3,Win32,59.52380952,6,1,9,0.23046875,-0.415364583,1,0,0,1.2898,Gabbro_11,4,11,1,6,1.29,4,11,-0.09765625,-0.239583333,1,0,0,1.0744,Basalt_rect,2,1.074,0,8,0,8,0,1,,,,,,,,,,,,,
6630fcae418bde6a9e7c3b47,SCR,2024-06-25_12h41.11.090,LearnStrategy,2023.2.3,Win32,59.52380952,6,1,10,0.346354167,-0.11328125,1,0,0,0.951,Gabbro_01,4,01,3,7,0.951,4,01,0.110677083,-0.389322917,1,0,0,2.5567,Peridotite_rect,7,2.557,0,9,0,9,0,1,,,,,,,,,,,,,
6630fcae418bde6a9e7c3b47,SCR,2024-06-25_12h41.11.090,LearnStrategy,2023.2.3,Win32,59.52380952,6,1,11,-0.419270833,0.393229167,1,0,0,1.2885,Andesite_02,1,02,6,2,1.289,1,02,-0.393229167,-0.244791667,1,0,0,1.7687,Andesite_rect,1,1.769,1,10,0,10,0,1,,,,,,,,,,,,,
6630fcae418bde6a9e7c3b47,SCR,2024-06-25_12h41.11.090,LearnStrategy,2023.2.3,Win32,59.52380952,6,1,12,-0.555989583,-0.255208333,1,0,0,1.1756,Pegmatite_05,6,05,2,1,1.176,6,05,-0.356770833,-0.3828125,1,0,0,1.2046,Obsidian_rect,5,1.205,0,11,0,11,0,1,,,,,,,,,,,,,
6630fcae418bde6a9e7c3b47,SCR,2024-06-25_12h41.11.090,LearnStrategy,2023.2.3,Win32,59.52380952,6,1,13,-0.2109375,0.239583333,1,0,0,2.0656,Basalt_16,2,16,5,3,2.066,2,16,-0.157552083,-0.23828125,1,0,0,1.334,Basalt_rect,2,1.334,1,12,0,12,0,1,,,,,,,,,,,,,
6630fcae418bde6a9e7c3b47,SCR,2024-06-25_12h41.11.090,LearnStrategy,2023.2.3,Win32,59.52380952,6,1,14,-0.0625,-0.084635417,1,0,0,0.8842,Andesite_07,1,07,3,4,0.884,1,07,-0.40625,-0.233072917,1,0,0,1.8795,Andesite_rect,1,1.88,1,13,0,13,0,1,,,,,,,,,,,,,
6630fcae418bde6a9e7c3b47,SCR,2024-06-25_12h41.11.090,LearnStrategy,2023.2.3,Win32,59.52380952,6,1,15,-0.06640625,-0.381510417,1,0,0,0.9824,Basalt_09,2,09,1,4,0.982,2,09,-0.122395833,-0.2421875,1,0,0,2.0922,Basalt_rect,2,2.092,1,14,0,14,0,1,,,,,,,,,,,,,
6630fcae418bde6a9e7c3b47,SCR,2024-06-25_12h41.11.090,LearnStrategy,2023.2.3,Win32,59.52380952,6,1,16,-0.377604167,-0.415364583,1,0,0,1.1317,Pumice_16,8,16,1,2,1.132,8,16,0.37890625,-0.404947917,1,0,0,0.9604,Pumice_rect,8,0.96,1,15,0,15,0,1,,,,,,,,,,,,,
6630fcae418bde6a9e7c3b47,SCR,2024-06-25_12h41.11.090,LearnStrategy,2023.2.3,Win32,59.52380952,6,2,1,,,,,,,,2,02,,,,,,,,,,,,,4,19.26,0,,,,,,0.415364583,-0.247395833,1,0,0,19.2604,Gabbro_rect,0,0,0,0,1,
6630fcae418bde6a9e7c3b47,SCR,2024-06-25_12h41.11.090,LearnStrategy,2023.2.3,Win32,59.52380952,6,2,2,,,,,,,,6,16,,,,,,,,,,,,,6,4.23,1,,,,,,-0.12890625,-0.401041667,1,0,0,4.2302,Pegmatite_rect,1,0,1,0,1,
6630fcae418bde6a9e7c3b47,SCR,2024-06-25_12h41.11.090,LearnStrategy,2023.2.3,Win32,59.52380952,6,2,3,,,,,,,,3,15,,,,,,,,,,,,,1,5.297,0,,,,,,-0.393229167,-0.255208333,1,0,0,5.2972,Andesite_rect,2,0,2,0,1,
6630fcae418bde6a9e7c3b47,SCR,2024-06-25_12h41.11.090,LearnStrategy,2023.2.3,Win32,59.52380952,6,2,4,,,,,,,,1,09,,,,,,,,,,,,,2,16.435,0,,,,,,-0.151041667,-0.266927083,1,0,0,16.4346,Basalt_rect,3,0,3,0,1,
6630fcae418bde6a9e7c3b47,SCR,2024-06-25_12h41.11.090,LearnStrategy,2023.2.3,Win32,59.52380952,6,2,5,,,,,,,,5,04,,,,,,,,,,,,,5,1.43,1,,,,,,-0.3671875,-0.3984375,1,0,0,1.4299,Obsidian_rect,4,0,4,0,1,
6630fcae418bde6a9e7c3b47,SCR,2024-06-25_12h41.11.090,LearnStrategy,2023.2.3,Win32,59.52380952,6,2,6,,,,,,,,2,04,,,,,,,,,,,,,2,6.624,1,,,,,,-0.110677083,-0.25390625,1,0,0,6.6241,Basalt_rect,5,0,5,0,1,
6630fcae418bde6a9e7c3b47,SCR,2024-06-25_12h41.11.090,LearnStrategy,2023.2.3,Win32,59.52380952,6,2,7,,,,,,,,5,16,,,,,,,,,,,,,5,1.399,1,,,,,,-0.358072917,-0.389322917,1,0,0,1.3995,Obsidian_rect,6,0,6,0,1,
6630fcae418bde6a9e7c3b47,SCR,2024-06-25_12h41.11.090,LearnStrategy,2023.2.3,Win32,59.52380952,6,2,8,,,,,,,,8,02,,,,,,,,,,,,,8,1.482,1,,,,,,0.368489583,-0.399739583,1,0,0,1.4817,Pumice_rect,7,0,7,0,1,
6630fcae418bde6a9e7c3b47,SCR,2024-06-25_12h41.11.090,LearnStrategy,2023.2.3,Win32,59.52380952,6,2,9,,,,,,,,7,08,,,,,,,,,,,,,7,1.507,1,,,,,,0.131510417,-0.391927083,1,0,0,1.5069,Peridotite_rect,8,0,8,0,1,
6630fcae418bde6a9e7c3b47,SCR,2024-06-25_12h41.11.090,LearnStrategy,2023.2.3,Win32,59.52380952,6,2,10,,,,,,,,4,14,,,,,,,,,,,,,2,11.12,0,,,,,,-0.111979167,-0.233072917,1,0,0,11.1204,Basalt_rect,9,0,9,0,1,
6630fcae418bde6a9e7c3b47,SCR,2024-06-25_12h41.11.090,LearnStrategy,2023.2.3,Win32,59.52380952,6,2,11,,,,,,,,1,10,,,,,,,,,,,,,2,12.922,0,,,,,,-0.140625,-0.234375,1,0,0,12.9221,Basalt_rect,10,0,10,0,1,
6630fcae418bde6a9e7c3b47,SCR,2024-06-25_12h41.11.090,LearnStrategy,2023.2.3,Win32,59.52380952,6,2,12,,,,,,,,7,13,,,,,,,,,,,,,7,1.604,1,,,,,,0.127604167,-0.395833333,1,0,0,1.6045,Peridotite_rect,11,0,11,0,1,
6630fcae418bde6a9e7c3b47,SCR,2024-06-25_12h41.11.090,LearnStrategy,2023.2.3,Win32,59.52380952,6,2,13,,,,,,,,8,04,,,,,,,,,,,,,8,1.455,1,,,,,,0.45703125,-0.411458333,1,0,0,1.4554,Pumice_rect,12,0,12,0,1,
6630fcae418bde6a9e7c3b47,SCR,2024-06-25_12h41.11.090,LearnStrategy,2023.2.3,Win32,59.52380952,6,2,14,,,,,,,,6,13,,,,,,,,,,,,,6,1.802,1,,,,,,-0.09765625,-0.401041667,1,0,0,1.8019,Pegmatite_rect,13,0,13,0,1,
6630fcae418bde6a9e7c3b47,SCR,2024-06-25_12h41.11.090,LearnStrategy,2023.2.3,Win32,59.52380952,6,2,15,,,,,,,,4,03,,,,,,,,,,,,,4,5.597,1,,,,,,0.41796875,-0.247395833,1,0,0,5.5966,Gabbro_rect,14,0,14,0,1,
6630fcae418bde6a9e7c3b47,SCR,2024-06-25_12h41.11.090,LearnStrategy,2023.2.3,Win32,59.52380952,6,2,16,,,,,,,,3,02,,,,,,,,,,,,,3,8.284,1,,,,,,0.12109375,-0.240885417,1,0,0,8.284,Diorite_rect,15,0,15,0,1,
6630fcae418bde6a9e7c3b47,SCR,2024-06-25_12h41.11.090,LearnStrategy,2023.2.3,Win32,59.52380952,7,1,1,0.220052083,0.270833333,1,0,0,2.1828,Andesite_01,1,01,5,6,2.183,1,01,-0.114583333,-0.26953125,1,0,0,3.8338,Basalt_rect,2,3.834,0,0,0,0,0,1,,,,,,,,,,,,,
6630fcae418bde6a9e7c3b47,SCR,2024-06-25_12h41.11.090,LearnStrategy,2023.2.3,Win32,59.52380952,7,1,2,-0.07421875,-0.260416667,1,0,0,0.8782,Basalt_01,2,01,2,4,0.878,2,01,-0.100260417,-0.23828125,1,0,0,0.8784,Basalt_rect,2,0.878,1,1,0,1,0,1,,,,,,,,,,,,,
6630fcae418bde6a9e7c3b47,SCR,2024-06-25_12h41.11.090,LearnStrategy,2023.2.3,Win32,59.52380952,7,1,3,-0.203125,0.4609375,1,0,0,1.3568,Peridotite_14,7,14,6,3,1.357,7,14,0.1640625,-0.40234375,1,0,0,1.4621,Peridotite_rect,7,1.462,1,2,0,2,0,1,,,,,,,,,,,,,
6630fcae418bde6a9e7c3b47,SCR,2024-06-25_12h41.11.090,LearnStrategy,2023.2.3,Win32,59.52380952,7,1,4,-0.065104167,-0.391927083,1,0,0,1.1657,Basalt_09,2,09,1,4,1.166,2,09,-0.131510417,-0.244791667,1,0,0,0.9441,Basalt_rect,2,0.944,1,3,0,3,0,1,,,,,,,,,,,,,
6630fcae418bde6a9e7c3b47,SCR,2024-06-25_12h41.11.090,LearnStrategy,2023.2.3,Win32,59.52380952,7,1,5,0.553385417,-0.115885417,1,0,0,1.084,Diorite_13,3,13,3,8,1.084,3,13,0.139322917,-0.231770833,1,0,0,3.5109,Diorite_rect,3,3.511,1,4,0,4,0,1,,,,,,,,,,,,,
6630fcae418bde6a9e7c3b47,SCR,2024-06-25_12h41.11.090,LearnStrategy,2023.2.3,Win32,59.52380952,7,1,6,0.055989583,0.0859375,1,0,0,0.8191,Pegmatite_07,6,07,4,5,0.819,6,07,-0.126302083,-0.41015625,1,0,0,0.9808,Pegmatite_rect,6,0.981,1,5,0,5,0,1,,,,,,,,,,,,,
6630fcae418bde6a9e7c3b47,SCR,2024-06-25_12h41.11.090,LearnStrategy,2023.2.3,Win32,59.52380952,7,1,7,0.376302083,0.26953125,1,0,0,1.1691,Basalt_10,2,10,5,7,1.169,2,10,0.388020833,-0.239583333,1,0,0,1.1645,Gabbro_rect,4,1.165,0,6,0,6,0,1,,,,,,,,,,,,,
6630fcae418bde6a9e7c3b47,SCR,2024-06-25_12h41.11.090,LearnStrategy,2023.2.3,Win32,59.52380952,7,1,8,-0.078125,-0.25,1,0,0,1.5319,Basalt_01,2,01,2,4,1.532,2,01,-0.1015625,-0.26171875,1,0,0,0.7713,Basalt_rect,2,0.771,1,7,0,7,0,1,,,,,,,,,,,,,
6630fcae418bde6a9e7c3b47,SCR,2024-06-25_12h41.11.090,LearnStrategy,2023.2.3,Win32,59.52380952,7,1,9,-0.40234375,0.45703125,1,0,0,1.0531,Andesite_02,1,02,6,2,1.053,1,02,-0.419270833,-0.234375,1,0,0,1.3905,Andesite_rect,1,1.39,1,8,0,8,0,1,,,,,,,,,,,,,
6630fcae418bde6a9e7c3b47,SCR,2024-06-25_12h41.11.090,LearnStrategy,2023.2.3,Win32,59.52380952,7,1,10,-0.369791667,-0.255208333,1,0,0,0.9116,Gabbro_15,4,15,2,2,0.912,4,15,-0.408854167,-0.25,1,0,0,2.5659,Andesite_rect,1,2.566,0,9,0,9,0,1,,,,,,,,,,,,,
6630fcae418bde6a9e7c3b47,SCR,2024-06-25_12h41.11.090,LearnStrategy,2023.2.3,Win32,59.52380952,7,1,11,0.221354167,0.412760417,1,0,0,0.9434,Pumice_08,8,08,6,6,0.943,8,08,0.40625,-0.403645833,1,0,0,1.8388,Pumice_rect,8,1.839,1,10,0,10,0,1,,,,,,,,,,,,,
6630fcae418bde6a9e7c3b47,SCR,2024-06-25_12h41.11.090,LearnStrategy,2023.2.3,Win32,59.52380952,7,1,12,-0.23828125,-0.0859375,1,0,0,1.1222,Gabbro_12,4,12,3,3,1.122,4,12,0.361979167,-0.25,1,0,0,1.7944,Gabbro_rect,4,1.794,1,11,0,11,0,1,,,,,,,,,,,,,
6630fcae418bde6a9e7c3b47,SCR,2024-06-25_12h41.11.090,LearnStrategy,2023.2.3,Win32,59.52380952,7,1,13,0.240885417,-0.126302083,1,0,0,0.8647,Andesite_16,1,16,3,6,0.865,1,16,0.143229167,-0.40234375,1,0,0,1.7624,Peridotite_rect,7,1.762,0,12,0,12,0,1,,,,,,,,,,,,,
6630fcae418bde6a9e7c3b47,SCR,2024-06-25_12h41.11.090,LearnStrategy,2023.2.3,Win32,59.52380952,7,1,14,-0.091145833,0.276041667,1,0,0,1.1148,Diorite_06,3,06,5,4,1.115,3,06,0.118489583,-0.260416667,1,0,0,2.1285,Diorite_rect,3,2.129,1,13,0,13,0,1,,,,,,,,,,,,,
6630fcae418bde6a9e7c3b47,SCR,2024-06-25_12h41.11.090,LearnStrategy,2023.2.3,Win32,59.52380952,7,1,15,-0.3671875,0.236979167,1,0,0,1.1319,Andesite_05,1,05,5,2,1.132,1,05,0.149739583,-0.401041667,1,0,0,1.3557,Peridotite_rect,7,1.356,0,14,0,14,0,1,,,,,,,,,,,,,
6630fcae418bde6a9e7c3b47,SCR,2024-06-25_12h41.11.090,LearnStrategy,2023.2.3,Win32,59.52380952,7,1,16,-0.053385417,-0.0859375,1,0,0,1.8552,Andesite_07,1,07,3,4,1.855,1,07,-0.3671875,-0.234375,1,0,0,1.9044,Andesite_rect,1,1.904,1,15,0,15,0,1,,,,,,,,,,,,,
6630fcae418bde6a9e7c3b47,SCR,2024-06-25_12h41.11.090,LearnStrategy,2023.2.3,Win32,59.52380952,7,2,1,,,,,,,,8,04,,,,,,,,,,,,,8,1.579,1,,,,,,0.40234375,-0.40234375,1,0,0,1.579,Pumice_rect,0,0,0,0,1,
6630fcae418bde6a9e7c3b47,SCR,2024-06-25_12h41.11.090,LearnStrategy,2023.2.3,Win32,59.52380952,7,2,2,,,,,,,,4,10,,,,,,,,,,,,,4,15.42,1,,,,,,0.407552083,-0.235677083,1,0,0,15.4196,Gabbro_rect,1,0,1,0,1,
6630fcae418bde6a9e7c3b47,SCR,2024-06-25_12h41.11.090,LearnStrategy,2023.2.3,Win32,59.52380952,7,2,3,,,,,,,,5,11,,,,,,,,,,,,,5,1.364,1,,,,,,-0.375,-0.403645833,1,0,0,1.3641,Obsidian_rect,2,0,2,0,1,
6630fcae418bde6a9e7c3b47,SCR,2024-06-25_12h41.11.090,LearnStrategy,2023.2.3,Win32,59.52380952,7,2,4,,,,,,,,7,08,,,,,,,,,,,,,7,1.4,1,,,,,,0.126302083,-0.395833333,1,0,0,1.3999,Peridotite_rect,3,0,3,0,1,
6630fcae418bde6a9e7c3b47,SCR,2024-06-25_12h41.11.090,LearnStrategy,2023.2.3,Win32,59.52380952,7,2,5,,,,,,,,2,04,,,,,,,,,,,,,2,2.412,1,,,,,,-0.115885417,-0.236979167,1,0,0,2.4116,Basalt_rect,4,0,4,0,1,
6630fcae418bde6a9e7c3b47,SCR,2024-06-25_12h41.11.090,LearnStrategy,2023.2.3,Win32,59.52380952,7,2,6,,,,,,,,7,07,,,,,,,,,,,,,7,1.383,1,,,,,,0.14453125,-0.39453125,1,0,0,1.3832,Peridotite_rect,5,0,5,0,1,
6630fcae418bde6a9e7c3b47,SCR,2024-06-25_12h41.11.090,LearnStrategy,2023.2.3,Win32,59.52380952,7,2,7,,,,,,,,2,14,,,,,,,,,,,,,8,3.746,0,,,,,,0.361979167,-0.404947917,1,0,0,3.7461,Pumice_rect,6,0,6,0,1,
6630fcae418bde6a9e7c3b47,SCR,2024-06-25_12h41.11.090,LearnStrategy,2023.2.3,Win32,59.52380952,7,2,8,,,,,,,,3,14,,,,,,,,,,,,,3,3.106,1,,,,,,0.108072917,-0.260416667,1,0,0,3.1059,Diorite_rect,7,0,7,0,1,
6630fcae418bde6a9e7c3b47,SCR,2024-06-25_12h41.11.090,LearnStrategy,2023.2.3,Win32,59.52380952,7,2,9,,,,,,,,5,12,,,,,,,,,,,,,5,1.322,1,,,,,,-0.373697917,-0.41796875,1,0,0,1.3218,Obsidian_rect,8,0,8,0,1,
6630fcae418bde6a9e7c3b47,SCR,2024-06-25_12h41.11.090,LearnStrategy,2023.2.3,Win32,59.52380952,7,2,10,,,,,,,,3,02,,,,,,,,,,,,,3,1.859,1,,,,,,0.119791667,-0.26171875,1,0,0,1.8589,Diorite_rect,9,0,9,0,1,
6630fcae418bde6a9e7c3b47,SCR,2024-06-25_12h41.11.090,LearnStrategy,2023.2.3,Win32,59.52380952,7,2,11,,,,,,,,1,10,,,,,,,,,,,,,1,1.598,1,,,,,,-0.373697917,-0.247395833,1,0,0,1.5977,Andesite_rect,10,0,10,0,1,
6630fcae418bde6a9e7c3b47,SCR,2024-06-25_12h41.11.090,LearnStrategy,2023.2.3,Win32,59.52380952,7,2,12,,,,,,,,4,13,,,,,,,,,,,,,1,4.242,0,,,,,,-0.377604167,-0.263020833,1,0,0,4.2421,Andesite_rect,11,0,11,0,1,
6630fcae418bde6a9e7c3b47,SCR,2024-06-25_12h41.11.090,LearnStrategy,2023.2.3,Win32,59.52380952,7,2,13,,,,,,,,1,04,,,,,,,,,,,,,1,3.793,1,,,,,,-0.359375,-0.25390625,1,0,0,3.7928,Andesite_rect,12,0,12,0,1,
6630fcae418bde6a9e7c3b47,SCR,2024-06-25_12h41.11.090,LearnStrategy,2023.2.3,Win32,59.52380952,7,2,14,,,,,,,,6,12,,,,,,,,,,,,,6,1.399,1,,,,,,-0.115885417,-0.399739583,1,0,0,1.3986,Pegmatite_rect,13,0,13,0,1,
6630fcae418bde6a9e7c3b47,SCR,2024-06-25_12h41.11.090,LearnStrategy,2023.2.3,Win32,59.52380952,7,2,15,,,,,,,,8,02,,,,,,,,,,,,,8,1.423,1,,,,,,0.41015625,-0.403645833,1,0,0,1.4229,Pumice_rect,14,0,14,0,1,
6630fcae418bde6a9e7c3b47,SCR,2024-06-25_12h41.11.090,LearnStrategy,2023.2.3,Win32,59.52380952,7,2,16,,,,,,,,6,15,,,,,,,,,,,,,6,1.315,1,,,,,,-0.125,-0.389322917,1,0,0,1.3154,Pegmatite_rect,15,0,15,0,1,
6630fcae418bde6a9e7c3b47,SCR,2024-06-25_12h41.11.090,LearnStrategy,2023.2.3,Win32,59.52380952,8,1,1,0.127604167,0.274739583,1,0,0,1.2122,Basalt_12,2,12,5,5,1.212,2,12,0.380208333,-0.395833333,1,0,0,1.0076,Pumice_rect,8,1.008,0,0,0,0,0,1,,,,,,,,,,,,,
6630fcae418bde6a9e7c3b47,SCR,2024-06-25_12h41.11.090,LearnStrategy,2023.2.3,Win32,59.52380952,8,1,2,0.231770833,-0.376302083,1,0,0,1.2211,Gabbro_11,4,11,1,6,1.221,4,11,0.403645833,-0.247395833,1,0,0,1.9282,Gabbro_rect,4,1.928,1,1,0,1,0,1,,,,,,,,,,,,,
6630fcae418bde6a9e7c3b47,SCR,2024-06-25_12h41.11.090,LearnStrategy,2023.2.3,Win32,59.52380952,8,1,3,-0.080729167,0.42578125,1,0,0,1.1654,Obsidian_05,5,05,6,4,1.165,5,05,-0.385416667,-0.3828125,1,0,0,1.2001,Obsidian_rect,5,1.2,1,2,0,2,0,1,,,,,,,,,,,,,
6630fcae418bde6a9e7c3b47,SCR,2024-06-25_12h41.11.090,LearnStrategy,2023.2.3,Win32,59.52380952,8,1,4,0.204427083,0.235677083,1,0,0,1.1703,Andesite_01,1,01,5,6,1.17,1,01,-0.381510417,-0.2421875,1,0,0,2.3827,Andesite_rect,1,2.383,1,3,0,3,0,1,,,,,,,,,,,,,
6630fcae418bde6a9e7c3b47,SCR,2024-06-25_12h41.11.090,LearnStrategy,2023.2.3,Win32,59.52380952,8,1,5,-0.569010417,0.397135417,1,0,0,14.5284,Andesite_06,1,06,6,1,14.528,1,06,-0.342447917,-0.234375,1,0,0,9.1981,Andesite_rect,1,9.198,1,4,0,4,0,1,,,,,,,,,,,,,
6630fcae418bde6a9e7c3b47,SCR,2024-06-25_12h41.11.090,LearnStrategy,2023.2.3,Win32,59.52380952,8,1,6,-0.109375,-0.432291667,1,0,0,1.1317,Basalt_09,2,09,1,4,1.132,2,09,-0.115885417,-0.260416667,1,0,0,1.0115,Basalt_rect,2,1.012,1,5,0,5,0,1,,,,,,,,,,,,,
6630fcae418bde6a9e7c3b47,SCR,2024-06-25_12h41.11.090,LearnStrategy,2023.2.3,Win32,59.52380952,8,1,7,0.419270833,-0.092447917,1,0,0,0.9446,Gabbro_01,4,01,3,7,0.945,4,01,-0.352864583,-0.239583333,1,0,0,2.0932,Andesite_rect,1,2.093,0,6,0,6,0,1,,,,,,,,,,,,,
6630fcae418bde6a9e7c3b47,SCR,2024-06-25_12h41.11.090,LearnStrategy,2023.2.3,Win32,59.52380952,8,1,8,-0.380208333,0.37890625,1,0,0,0.9982,Andesite_02,1,02,6,2,0.998,1,02,-0.416666667,-0.268229167,1,0,0,1.239,Andesite_rect,1,1.239,1,7,0,7,0,1,,,,,,,,,,,,,
6630fcae418bde6a9e7c3b47,SCR,2024-06-25_12h41.11.090,LearnStrategy,2023.2.3,Win32,59.52380952,8,1,9,0.393229167,0.259114583,1,0,0,1.1847,Basalt_10,2,10,5,7,1.185,2,10,0.359375,-0.243489583,1,0,0,1.0116,Gabbro_rect,4,1.012,0,8,0,8,0,1,,,,,,,,,,,,,
6630fcae418bde6a9e7c3b47,SCR,2024-06-25_12h41.11.090,LearnStrategy,2023.2.3,Win32,59.52380952,8,1,10,0.055989583,-0.06640625,1,0,0,0.9635,Pumice_14,8,14,3,5,0.964,8,14,0.458333333,-0.403645833,1,0,0,1.7475,Pumice_rect,8,1.747,1,9,0,9,0,1,,,,,,,,,,,,,
6630fcae418bde6a9e7c3b47,SCR,2024-06-25_12h41.11.090,LearnStrategy,2023.2.3,Win32,59.52380952,8,1,11,-0.389322917,-0.2578125,1,0,0,1.1482,Gabbro_15,4,15,2,2,1.148,4,15,-0.40234375,-0.255208333,1,0,0,2.0368,Andesite_rect,1,2.037,0,10,0,10,0,1,,,,,,,,,,,,,
6630fcae418bde6a9e7c3b47,SCR,2024-06-25_12h41.11.090,LearnStrategy,2023.2.3,Win32,59.52380952,8,1,12,0.411458333,0.067708333,1,0,0,1.0175,Diorite_16,3,16,4,7,1.018,3,16,0.151041667,-0.2421875,1,0,0,1.0602,Diorite_rect,3,1.06,1,11,0,11,0,1,,,,,,,,,,,,,
6630fcae418bde6a9e7c3b47,SCR,2024-06-25_12h41.11.090,LearnStrategy,2023.2.3,Win32,59.52380952,8,1,13,0.584635417,0.110677083,1,0,0,0.9556,Peridotite_16,7,16,4,8,0.956,7,16,0.16796875,-0.389322917,1,0,0,1.0527,Peridotite_rect,7,1.053,1,12,0,12,0,1,,,,,,,,,,,,,
6630fcae418bde6a9e7c3b47,SCR,2024-06-25_12h41.11.090,LearnStrategy,2023.2.3,Win32,59.52380952,8,1,14,-0.397135417,0.26171875,1,0,0,1.0459,Andesite_05,1,05,5,2,1.046,1,05,-0.372395833,-0.244791667,1,0,0,4.5295,Andesite_rect,1,4.53,1,13,0,13,0,1,,,,,,,,,,,,,
6630fcae418bde6a9e7c3b47,SCR,2024-06-25_12h41.11.090,LearnStrategy,2023.2.3,Win32,59.52380952,8,1,15,-0.408854167,0.08203125,1,0,0,1.1784,Pegmatite_11,6,11,4,2,1.178,6,11,-0.119791667,-0.395833333,1,0,0,1.0554,Pegmatite_rect,6,1.055,1,14,0,14,0,1,,,,,,,,,,,,,
6630fcae418bde6a9e7c3b47,SCR,2024-06-25_12h41.11.090,LearnStrategy,2023.2.3,Win32,59.52380952,8,1,16,-0.1875,0.216145833,1,0,0,1.0822,Basalt_16,2,16,5,3,1.082,2,16,0.360677083,-0.23828125,1,0,0,1.9824,Gabbro_rect,4,1.982,0,15,0,15,0,1,,,,,,,,,,,,,
6630fcae418bde6a9e7c3b47,SCR,2024-06-25_12h41.11.090,LearnStrategy,2023.2.3,Win32,59.52380952,8,2,1,,,,,,,,1,11,,,,,,,,,,,,,2,30.33,0,,,,,,-0.158854167,-0.263020833,1,0,0,30.3295,Basalt_rect,0,0,0,0,1,
6630fcae418bde6a9e7c3b47,SCR,2024-06-25_12h41.11.090,LearnStrategy,2023.2.3,Win32,59.52380952,8,2,2,,,,,,,,5,10,,,,,,,,,,,,,5,1.334,1,,,,,,-0.358072917,-0.38671875,1,0,0,1.3342,Obsidian_rect,1,0,1,0,1,
6630fcae418bde6a9e7c3b47,SCR,2024-06-25_12h41.11.090,LearnStrategy,2023.2.3,Win32,59.52380952,8,2,3,,,,,,,,4,05,,,,,,,,,,,,,4,14.696,1,,,,,,0.37109375,-0.243489583,1,0,0,14.6958,Gabbro_rect,2,0,2,0,1,
6630fcae418bde6a9e7c3b47,SCR,2024-06-25_12h41.11.090,LearnStrategy,2023.2.3,Win32,59.52380952,8,2,4,,,,,,,,1,09,,,,,,,,,,,,,2,1.811,0,,,,,,-0.098958333,-0.235677083,1,0,0,1.8113,Basalt_rect,3,0,3,0,1,
6630fcae418bde6a9e7c3b47,SCR,2024-06-25_12h41.11.090,LearnStrategy,2023.2.3,Win32,59.52380952,8,2,5,,,,,,,,8,13,,,,,,,,,,,,,8,1.458,1,,,,,,0.352864583,-0.411458333,1,0,0,1.4579,Pumice_rect,4,0,4,0,1,
6630fcae418bde6a9e7c3b47,SCR,2024-06-25_12h41.11.090,LearnStrategy,2023.2.3,Win32,59.52380952,8,2,6,,,,,,,,8,15,,,,,,,,,,,,,8,1.619,1,,,,,,0.37109375,-0.407552083,1,0,0,1.6193,Pumice_rect,5,0,5,0,1,
6630fcae418bde6a9e7c3b47,SCR,2024-06-25_12h41.11.090,LearnStrategy,2023.2.3,Win32,59.52380952,8,2,7,,,,,,,,3,08,,,,,,,,,,,,,3,1.163,1,,,,,,0.138020833,-0.25390625,1,0,0,1.1626,Diorite_rect,6,0,6,0,1,
6630fcae418bde6a9e7c3b47,SCR,2024-06-25_12h41.11.090,LearnStrategy,2023.2.3,Win32,59.52380952,8,2,8,,,,,,,,2,11,,,,,,,,,,,,,2,2.404,1,,,,,,-0.091145833,-0.25,1,0,0,2.4037,Basalt_rect,7,0,7,0,1,
6630fcae418bde6a9e7c3b47,SCR,2024-06-25_12h41.11.090,LearnStrategy,2023.2.3,Win32,59.52380952,8,2,9,,,,,,,,6,06,,,,,,,,,,,,,6,1.33,1,,,,,,-0.125,-0.397135417,1,0,0,1.3304,Pegmatite_rect,8,0,8,0,1,
6630fcae418bde6a9e7c3b47,SCR,2024-06-25_12h41.11.090,LearnStrategy,2023.2.3,Win32,59.52380952,8,2,10,,,,,,,,2,02,,,,,,,,,,,,,2,16.742,1,,,,,,-0.147135417,-0.247395833,1,0,0,16.7421,Basalt_rect,9,0,9,0,1,
6630fcae418bde6a9e7c3b47,SCR,2024-06-25_12h41.11.090,LearnStrategy,2023.2.3,Win32,59.52380952,8,2,11,,,,,,,,7,13,,,,,,,,,,,,,7,2.016,1,,,,,,0.138020833,-0.397135417,1,0,0,2.0165,Peridotite_rect,10,0,10,0,1,
6630fcae418bde6a9e7c3b47,SCR,2024-06-25_12h41.11.090,LearnStrategy,2023.2.3,Win32,59.52380952,8,2,12,,,,,,,,3,15,,,,,,,,,,,,,1,2.606,0,,,,,,-0.388020833,-0.252604167,1,0,0,2.6059,Andesite_rect,11,0,11,0,1,
6630fcae418bde6a9e7c3b47,SCR,2024-06-25_12h41.11.090,LearnStrategy,2023.2.3,Win32,59.52380952,8,2,13,,,,,,,,6,13,,,,,,,,,,,,,6,1.444,1,,,,,,-0.131510417,-0.40234375,1,0,0,1.4441,Pegmatite_rect,12,0,12,0,1,
6630fcae418bde6a9e7c3b47,SCR,2024-06-25_12h41.11.090,LearnStrategy,2023.2.3,Win32,59.52380952,8,2,14,,,,,,,,5,16,,,,,,,,,,,,,5,1.275,1,,,,,,-0.345052083,-0.381510417,1,0,0,1.2746,Obsidian_rect,13,0,13,0,1,
6630fcae418bde6a9e7c3b47,SCR,2024-06-25_12h41.11.090,LearnStrategy,2023.2.3,Win32,59.52380952,8,2,15,,,,,,,,4,14,,,,,,,,,,,,,4,2.042,1,,,,,,0.325520833,-0.240885417,1,0,0,2.0422,Gabbro_rect,14,0,14,0,1,
6630fcae418bde6a9e7c3b47,SCR,2024-06-25_12h41.11.090,LearnStrategy,2023.2.3,Win32,59.52380952,8,2,16,,,,,,,,7,05,,,,,,,,,,,,,7,1.488,1,,,,,,0.135416667,-0.401041667,1,0,0,1.4876,Peridotite_rect,15,0,15,0,1,
6630fcae418bde6a9e7c3b47,SCR,2024-06-25_12h41.11.090,LearnStrategy,2023.2.3,Win32,59.52380952,9,1,1,0.391927083,0.2734375,1,0,0,4.3995,Basalt_10,2,10,5,7,4.399,2,10,0.423177083,-0.229166667,1,0,0,4.1954,Gabbro_rect,4,4.195,0,0,0,0,0,1,,,,,,,,,,,,,
6630fcae418bde6a9e7c3b47,SCR,2024-06-25_12h41.11.090,LearnStrategy,2023.2.3,Win32,59.52380952,9,1,2,-0.088541667,-0.463541667,1,0,0,1.3335,Basalt_09,2,09,1,4,1.333,2,09,-0.1015625,-0.263020833,1,0,0,0.9353,Basalt_rect,2,0.935,1,1,0,1,0,1,,,,,,,,,,,,,
6630fcae418bde6a9e7c3b47,SCR,2024-06-25_12h41.11.090,LearnStrategy,2023.2.3,Win32,59.52380952,9,1,3,0.236979167,0.268229167,1,0,0,1.2983,Andesite_01,1,01,5,6,1.298,1,01,-0.404947917,-0.23828125,1,0,0,1.1199,Andesite_rect,1,1.12,1,2,0,2,0,1,,,,,,,,,,,,,
6630fcae418bde6a9e7c3b47,SCR,2024-06-25_12h41.11.090,LearnStrategy,2023.2.3,Win32,59.52380952,9,1,4,0.359375,-0.09765625,1,0,0,1.382,Gabbro_01,4,01,3,7,1.382,4,01,-0.377604167,-0.252604167,1,0,0,2.2052,Andesite_rect,1,2.205,0,3,0,3,0,1,,,,,,,,,,,,,
6630fcae418bde6a9e7c3b47,SCR,2024-06-25_12h41.11.090,LearnStrategy,2023.2.3,Win32,59.52380952,9,1,5,0.595052083,0.075520833,1,0,0,0.8989,Peridotite_16,7,16,4,8,0.899,7,16,0.165364583,-0.407552083,1,0,0,1.0449,Peridotite_rect,7,1.045,1,4,0,4,0,1,,,,,,,,,,,,,
6630fcae418bde6a9e7c3b47,SCR,2024-06-25_12h41.11.090,LearnStrategy,2023.2.3,Win32,59.52380952,9,1,6,0.4296875,-0.111979167,1,0,0,1.0569,Gabbro_01,4,01,3,7,1.057,4,01,0.388020833,-0.25390625,1,0,0,2.4396,Gabbro_rect,4,2.44,1,5,0,5,0,1,,,,,,,,,,,,,
6630fcae418bde6a9e7c3b47,SCR,2024-06-25_12h41.11.090,LearnStrategy,2023.2.3,Win32,59.52380952,9,1,7,-0.53125,-0.424479167,1,0,0,1.0819,Pumice_10,8,10,1,1,1.082,8,10,0.384114583,-0.415364583,1,0,0,0.9877,Pumice_rect,8,0.988,1,6,0,6,0,1,,,,,,,,,,,,,
6630fcae418bde6a9e7c3b47,SCR,2024-06-25_12h41.11.090,LearnStrategy,2023.2.3,Win32,59.52380952,9,1,8,0.427083333,-0.221354167,1,0,0,1.1648,Diorite_10,3,10,2,7,1.165,3,10,-0.352864583,-0.23828125,1,0,0,1.6463,Andesite_rect,1,1.646,0,7,0,7,0,1,,,,,,,,,,,,,
6630fcae418bde6a9e7c3b47,SCR,2024-06-25_12h41.11.090,LearnStrategy,2023.2.3,Win32,59.52380952,9,1,9,0.381510417,0.118489583,1,0,0,1.2488,Diorite_16,3,16,4,7,1.249,3,16,0.109375,-0.240885417,1,0,0,0.8535,Diorite_rect,3,0.854,1,8,0,8,0,1,,,,,,,,,,,,,
6630fcae418bde6a9e7c3b47,SCR,2024-06-25_12h41.11.090,LearnStrategy,2023.2.3,Win32,59.52380952,9,1,10,-0.040364583,0.087239583,1,0,0,0.8014,Basalt_05,2,05,4,4,0.801,2,05,-0.114583333,-0.2421875,1,0,0,1.0475,Basalt_rect,2,1.048,1,9,0,9,0,1,,,,,,,,,,,,,
6630fcae418bde6a9e7c3b47,SCR,2024-06-25_12h41.11.090,LearnStrategy,2023.2.3,Win32,59.52380952,9,1,11,0.106770833,-0.251302083,1,0,0,0.978,Pegmatite_08,6,08,2,5,0.978,6,08,-0.104166667,-0.388020833,1,0,0,0.8218,Pegmatite_rect,6,0.822,1,10,0,10,0,1,,,,,,,,,,,,,
6630fcae418bde6a9e7c3b47,SCR,2024-06-25_12h41.11.090,LearnStrategy,2023.2.3,Win32,59.52380952,9,1,12,-0.385416667,0.420572917,1,0,0,1.1861,Andesite_02,1,02,6,2,1.186,1,02,-0.377604167,-0.248697917,1,0,0,1.3221,Andesite_rect,1,1.322,1,11,0,11,0,1,,,,,,,,,,,,,
6630fcae418bde6a9e7c3b47,SCR,2024-06-25_12h41.11.090,LearnStrategy,2023.2.3,Win32,59.52380952,9,1,13,-0.05859375,0.373697917,1,0,0,0.9984,Obsidian_05,5,05,6,4,0.998,5,05,-0.330729167,-0.395833333,1,0,0,1.0942,Obsidian_rect,5,1.094,1,12,0,12,0,1,,,,,,,,,,,,,
6630fcae418bde6a9e7c3b47,SCR,2024-06-25_12h41.11.090,LearnStrategy,2023.2.3,Win32,59.52380952,9,1,14,-0.565104167,0.381510417,1,0,0,1.1819,Andesite_06,1,06,6,1,1.182,1,06,-0.397135417,-0.25390625,1,0,0,1.0187,Andesite_rect,1,1.019,1,13,0,13,0,1,,,,,,,,,,,,,
6630fcae418bde6a9e7c3b47,SCR,2024-06-25_12h41.11.090,LearnStrategy,2023.2.3,Win32,59.52380952,9,1,15,-0.07421875,-0.088541667,1,0,0,0.8318,Andesite_07,1,07,3,4,0.832,1,07,0.147135417,-0.244791667,1,0,0,1.6816,Diorite_rect,3,1.682,0,14,0,14,0,1,,,,,,,,,,,,,
6630fcae418bde6a9e7c3b47,SCR,2024-06-25_12h41.11.090,LearnStrategy,2023.2.3,Win32,59.52380952,9,1,16,-0.3671875,0.404947917,1,0,0,1.2655,Andesite_02,1,02,6,2,1.265,1,02,-0.40234375,-0.255208333,1,0,0,1.0927,Andesite_rect,1,1.093,1,15,0,15,0,1,,,,,,,,,,,,,
6630fcae418bde6a9e7c3b47,SCR,2024-06-25_12h41.11.090,LearnStrategy,2023.2.3,Win32,59.52380952,9,2,1,,,,,,,,4,16,,,,,,,,,,,,,4,12.789,1,,,,,,0.3984375,-0.243489583,1,0,0,12.7888,Gabbro_rect,0,0,0,0,1,
6630fcae418bde6a9e7c3b47,SCR,2024-06-25_12h41.11.090,LearnStrategy,2023.2.3,Win32,59.52380952,9,2,2,,,,,,,,1,14,,,,,,,,,,,,,1,2.591,1,,,,,,-0.375,-0.248697917,1,0,0,2.5912,Andesite_rect,1,0,1,0,1,
6630fcae418bde6a9e7c3b47,SCR,2024-06-25_12h41.11.090,LearnStrategy,2023.2.3,Win32,59.52380952,9,2,3,,,,,,,,1,03,,,,,,,,,,,,,2,8.503,0,,,,,,-0.19140625,-0.247395833,1,0,0,8.5033,Basalt_rect,2,0,2,0,1,
6630fcae418bde6a9e7c3b47,SCR,2024-06-25_12h41.11.090,LearnStrategy,2023.2.3,Win32,59.52380952,9,2,4,,,,,,,,6,10,,,,,,,,,,,,,6,1.582,1,,,,,,-0.123697917,-0.390625,1,0,0,1.5815,Pegmatite_rect,3,0,3,0,1,
6630fcae418bde6a9e7c3b47,SCR,2024-06-25_12h41.11.090,LearnStrategy,2023.2.3,Win32,59.52380952,9,2,5,,,,,,,,7,12,,,,,,,,,,,,,7,1.599,1,,,,,,0.108072917,-0.399739583,1,0,0,1.5992,Peridotite_rect,4,0,4,0,1,
6630fcae418bde6a9e7c3b47,SCR,2024-06-25_12h41.11.090,LearnStrategy,2023.2.3,Win32,59.52380952,9,2,6,,,,,,,,7,06,,,,,,,,,,,,,7,1.25,1,,,,,,0.123697917,-0.395833333,1,0,0,1.2501,Peridotite_rect,5,0,5,0,1,
6630fcae418bde6a9e7c3b47,SCR,2024-06-25_12h41.11.090,LearnStrategy,2023.2.3,Win32,59.52380952,9,2,7,,,,,,,,5,04,,,,,,,,,,,,,5,1.3,1,,,,,,-0.376302083,-0.397135417,1,0,0,1.2997,Obsidian_rect,6,0,6,0,1,
6630fcae418bde6a9e7c3b47,SCR,2024-06-25_12h41.11.090,LearnStrategy,2023.2.3,Win32,59.52380952,9,2,8,,,,,,,,6,16,,,,,,,,,,,,,6,1.52,1,,,,,,-0.125,-0.408854167,1,0,0,1.5198,Pegmatite_rect,7,0,7,0,1,
6630fcae418bde6a9e7c3b47,SCR,2024-06-25_12h41.11.090,LearnStrategy,2023.2.3,Win32,59.52380952,9,2,9,,,,,,,,3,07,,,,,,,,,,,,,3,1.931,1,,,,,,0.145833333,-0.24609375,1,0,0,1.9312,Diorite_rect,8,0,8,0,1,
6630fcae418bde6a9e7c3b47,SCR,2024-06-25_12h41.11.090,LearnStrategy,2023.2.3,Win32,59.52380952,9,2,10,,,,,,,,4,03,,,,,,,,,,,,,4,2.452,1,,,,,,0.376302083,-0.240885417,1,0,0,2.4524,Gabbro_rect,9,0,9,0,1,
6630fcae418bde6a9e7c3b47,SCR,2024-06-25_12h41.11.090,LearnStrategy,2023.2.3,Win32,59.52380952,9,2,11,,,,,,,,3,12,,,,,,,,,,,,,3,2.575,1,,,,,,0.114583333,-0.243489583,1,0,0,2.5745,Diorite_rect,10,0,10,0,1,
6630fcae418bde6a9e7c3b47,SCR,2024-06-25_12h41.11.090,LearnStrategy,2023.2.3,Win32,59.52380952,9,2,12,,,,,,,,8,06,,,,,,,,,,,,,8,1.451,1,,,,,,0.35546875,-0.380208333,1,0,0,1.4508,Pumice_rect,11,0,11,0,1,
6630fcae418bde6a9e7c3b47,SCR,2024-06-25_12h41.11.090,LearnStrategy,2023.2.3,Win32,59.52380952,9,2,13,,,,,,,,2,08,,,,,,,,,,,,,2,1.319,1,,,,,,-0.108072917,-0.25,1,0,0,1.3191,Basalt_rect,12,0,12,0,1,
6630fcae418bde6a9e7c3b47,SCR,2024-06-25_12h41.11.090,LearnStrategy,2023.2.3,Win32,59.52380952,9,2,14,,,,,,,,2,06,,,,,,,,,,,,,2,1.102,1,,,,,,-0.08984375,-0.252604167,1,0,0,1.1018,Basalt_rect,13,0,13,0,1,
6630fcae418bde6a9e7c3b47,SCR,2024-06-25_12h41.11.090,LearnStrategy,2023.2.3,Win32,59.52380952,9,2,15,,,,,,,,8,03,,,,,,,,,,,,,8,1.447,1,,,,,,0.45703125,-0.403645833,1,0,0,1.4471,Pumice_rect,14,0,14,0,1,
6630fcae418bde6a9e7c3b47,SCR,2024-06-25_12h41.11.090,LearnStrategy,2023.2.3,Win32,59.52380952,9,2,16,,,,,,,,5,09,,,,,,,,,,,,,5,1.483,1,,,,,,-0.373697917,-0.3984375,1,0,0,1.4831,Obsidian_rect,15,0,15,0,1,
6630fcae418bde6a9e7c3b47,SCR,2024-06-25_12h41.11.090,LearnStrategy,2023.2.3,Win32,59.52380952,,,,,,,,,,,,,,,,,,,,,,,,,,,,,,,,,,,,,,,,,,,,,1
6630fcae418bde6a9e7c3b47,SCR,2024-06-25_12h41.11.090,LearnStrategy,2023.2.3,Win32,59.52380952,,,,,,,,,,,,,,,,,,,,,,,,,,,,,,,,,,,,,,,,,,,,,
6630fcae418bde6a9e7c3b47,SCR,2024-06-25_12h41.11.090,LearnStrategy,2023.2.3,Win32,59.52380952,,,,,,,,,,,8,10,1,1,,,,,,,,,,,,,,,,,,,,,,,,,,,,,,,
6630fcae418bde6a9e7c3b47,SCR,2024-06-25_12h41.11.090,LearnStrategy,2023.2.3,Win32,59.52380952,,,,,,,,,,,8,16,1,2,,,,,,,,,,,,,,,,,,,,,,,,,,,,,,,
6630fcae418bde6a9e7c3b47,SCR,2024-06-25_12h41.11.090,LearnStrategy,2023.2.3,Win32,59.52380952,,,,,,,,,,,5,07,1,3,,,,,,,,,,,,,,,,,,,,,,,,,,,,,,,
6630fcae418bde6a9e7c3b47,SCR,2024-06-25_12h41.11.090,LearnStrategy,2023.2.3,Win32,59.52380952,,,,,,,,,,,2,09,1,4,,,,,,,,,,,,,,,,,,,,,,,,,,,,,,,
6630fcae418bde6a9e7c3b47,SCR,2024-06-25_12h41.11.090,LearnStrategy,2023.2.3,Win32,59.52380952,,,,,,,,,,,7,02,1,5,,,,,,,,,,,,,,,,,,,,,,,,,,,,,,,
6630fcae418bde6a9e7c3b47,SCR,2024-06-25_12h41.11.090,LearnStrategy,2023.2.3,Win32,59.52380952,,,,,,,,,,,4,11,1,6,,,,,,,,,,,,,,,,,,,,,,,,,,,,,,,
6630fcae418bde6a9e7c3b47,SCR,2024-06-25_12h41.11.090,LearnStrategy,2023.2.3,Win32,59.52380952,,,,,,,,,,,3,09,1,7,,,,,,,,,,,,,,,,,,,,,,,,,,,,,,,
6630fcae418bde6a9e7c3b47,SCR,2024-06-25_12h41.11.090,LearnStrategy,2023.2.3,Win32,59.52380952,,,,,,,,,,,5,08,1,8,,,,,,,,,,,,,,,,,,,,,,,,,,,,,,,
6630fcae418bde6a9e7c3b47,SCR,2024-06-25_12h41.11.090,LearnStrategy,2023.2.3,Win32,59.52380952,,,,,,,,,,,6,05,2,1,,,,,,,,,,,,,,,,,,,,,,,,,,,,,,,
6630fcae418bde6a9e7c3b47,SCR,2024-06-25_12h41.11.090,LearnStrategy,2023.2.3,Win32,59.52380952,,,,,,,,,,,4,15,2,2,,,,,,,,,,,,,,,,,,,,,,,,,,,,,,,
6630fcae418bde6a9e7c3b47,SCR,2024-06-25_12h41.11.090,LearnStrategy,2023.2.3,Win32,59.52380952,,,,,,,,,,,4,09,2,3,,,,,,,,,,,,,,,,,,,,,,,,,,,,,,,
6630fcae418bde6a9e7c3b47,SCR,2024-06-25_12h41.11.090,LearnStrategy,2023.2.3,Win32,59.52380952,,,,,,,,,,,2,01,2,4,,,,,,,,,,,,,,,,,,,,,,,,,,,,,,,
6630fcae418bde6a9e7c3b47,SCR,2024-06-25_12h41.11.090,LearnStrategy,2023.2.3,Win32,59.52380952,,,,,,,,,,,6,08,2,5,,,,,,,,,,,,,,,,,,,,,,,,,,,,,,,
6630fcae418bde6a9e7c3b47,SCR,2024-06-25_12h41.11.090,LearnStrategy,2023.2.3,Win32,59.52380952,,,,,,,,,,,7,15,2,6,,,,,,,,,,,,,,,,,,,,,,,,,,,,,,,
6630fcae418bde6a9e7c3b47,SCR,2024-06-25_12h41.11.090,LearnStrategy,2023.2.3,Win32,59.52380952,,,,,,,,,,,3,10,2,7,,,,,,,,,,,,,,,,,,,,,,,,,,,,,,,
6630fcae418bde6a9e7c3b47,SCR,2024-06-25_12h41.11.090,LearnStrategy,2023.2.3,Win32,59.52380952,,,,,,,,,,,7,04,2,8,,,,,,,,,,,,,,,,,,,,,,,,,,,,,,,
6630fcae418bde6a9e7c3b47,SCR,2024-06-25_12h41.11.090,LearnStrategy,2023.2.3,Win32,59.52380952,,,,,,,,,,,4,08,3,1,,,,,,,,,,,,,,,,,,,,,,,,,,,,,,,
6630fcae418bde6a9e7c3b47,SCR,2024-06-25_12h41.11.090,LearnStrategy,2023.2.3,Win32,59.52380952,,,,,,,,,,,7,10,3,2,,,,,,,,,,,,,,,,,,,,,,,,,,,,,,,
6630fcae418bde6a9e7c3b47,SCR,2024-06-25_12h41.11.090,LearnStrategy,2023.2.3,Win32,59.52380952,,,,,,,,,,,4,12,3,3,,,,,,,,,,,,,,,,,,,,,,,,,,,,,,,
6630fcae418bde6a9e7c3b47,SCR,2024-06-25_12h41.11.090,LearnStrategy,2023.2.3,Win32,59.52380952,,,,,,,,,,,1,07,3,4,,,,,,,,,,,,,,,,,,,,,,,,,,,,,,,
6630fcae418bde6a9e7c3b47,SCR,2024-06-25_12h41.11.090,LearnStrategy,2023.2.3,Win32,59.52380952,,,,,,,,,,,8,14,3,5,,,,,,,,,,,,,,,,,,,,,,,,,,,,,,,
6630fcae418bde6a9e7c3b47,SCR,2024-06-25_12h41.11.090,LearnStrategy,2023.2.3,Win32,59.52380952,,,,,,,,,,,1,16,3,6,,,,,,,,,,,,,,,,,,,,,,,,,,,,,,,
6630fcae418bde6a9e7c3b47,SCR,2024-06-25_12h41.11.090,LearnStrategy,2023.2.3,Win32,59.52380952,,,,,,,,,,,4,01,3,7,,,,,,,,,,,,,,,,,,,,,,,,,,,,,,,
6630fcae418bde6a9e7c3b47,SCR,2024-06-25_12h41.11.090,LearnStrategy,2023.2.3,Win32,59.52380952,,,,,,,,,,,3,13,3,8,,,,,,,,,,,,,,,,,,,,,,,,,,,,,,,
6630fcae418bde6a9e7c3b47,SCR,2024-06-25_12h41.11.090,LearnStrategy,2023.2.3,Win32,59.52380952,,,,,,,,,,,8,09,4,1,,,,,,,,,,,,,,,,,,,,,,,,,,,,,,,
6630fcae418bde6a9e7c3b47,SCR,2024-06-25_12h41.11.090,LearnStrategy,2023.2.3,Win32,59.52380952,,,,,,,,,,,6,11,4,2,,,,,,,,,,,,,,,,,,,,,,,,,,,,,,,
6630fcae418bde6a9e7c3b47,SCR,2024-06-25_12h41.11.090,LearnStrategy,2023.2.3,Win32,59.52380952,,,,,,,,,,,6,03,4,3,,,,,,,,,,,,,,,,,,,,,,,,,,,,,,,
6630fcae418bde6a9e7c3b47,SCR,2024-06-25_12h41.11.090,LearnStrategy,2023.2.3,Win32,59.52380952,,,,,,,,,,,2,05,4,4,,,,,,,,,,,,,,,,,,,,,,,,,,,,,,,
6630fcae418bde6a9e7c3b47,SCR,2024-06-25_12h41.11.090,LearnStrategy,2023.2.3,Win32,59.52380952,,,,,,,,,,,6,07,4,5,,,,,,,,,,,,,,,,,,,,,,,,,,,,,,,
6630fcae418bde6a9e7c3b47,SCR,2024-06-25_12h41.11.090,LearnStrategy,2023.2.3,Win32,59.52380952,,,,,,,,,,,5,02,4,6,,,,,,,,,,,,,,,,,,,,,,,,,,,,,,,
6630fcae418bde6a9e7c3b47,SCR,2024-06-25_12h41.11.090,LearnStrategy,2023.2.3,Win32,59.52380952,,,,,,,,,,,3,16,4,7,,,,,,,,,,,,,,,,,,,,,,,,,,,,,,,
6630fcae418bde6a9e7c3b47,SCR,2024-06-25_12h41.11.090,LearnStrategy,2023.2.3,Win32,59.52380952,,,,,,,,,,,7,16,4,8,,,,,,,,,,,,,,,,,,,,,,,,,,,,,,,
6630fcae418bde6a9e7c3b47,SCR,2024-06-25_12h41.11.090,LearnStrategy,2023.2.3,Win32,59.52380952,,,,,,,,,,,6,09,5,1,,,,,,,,,,,,,,,,,,,,,,,,,,,,,,,
6630fcae418bde6a9e7c3b47,SCR,2024-06-25_12h41.11.090,LearnStrategy,2023.2.3,Win32,59.52380952,,,,,,,,,,,1,05,5,2,,,,,,,,,,,,,,,,,,,,,,,,,,,,,,,
6630fcae418bde6a9e7c3b47,SCR,2024-06-25_12h41.11.090,LearnStrategy,2023.2.3,Win32,59.52380952,,,,,,,,,,,2,16,5,3,,,,,,,,,,,,,,,,,,,,,,,,,,,,,,,
6630fcae418bde6a9e7c3b47,SCR,2024-06-25_12h41.11.090,LearnStrategy,2023.2.3,Win32,59.52380952,,,,,,,,,,,3,06,5,4,,,,,,,,,,,,,,,,,,,,,,,,,,,,,,,
6630fcae418bde6a9e7c3b47,SCR,2024-06-25_12h41.11.090,LearnStrategy,2023.2.3,Win32,59.52380952,,,,,,,,,,,2,12,5,5,,,,,,,,,,,,,,,,,,,,,,,,,,,,,,,
6630fcae418bde6a9e7c3b47,SCR,2024-06-25_12h41.11.090,LearnStrategy,2023.2.3,Win32,59.52380952,,,,,,,,,,,1,01,5,6,,,,,,,,,,,,,,,,,,,,,,,,,,,,,,,
6630fcae418bde6a9e7c3b47,SCR,2024-06-25_12h41.11.090,LearnStrategy,2023.2.3,Win32,59.52380952,,,,,,,,,,,2,10,5,7,,,,,,,,,,,,,,,,,,,,,,,,,,,,,,,
6630fcae418bde6a9e7c3b47,SCR,2024-06-25_12h41.11.090,LearnStrategy,2023.2.3,Win32,59.52380952,,,,,,,,,,,3,11,5,8,,,,,,,,,,,,,,,,,,,,,,,,,,,,,,,
6630fcae418bde6a9e7c3b47,SCR,2024-06-25_12h41.11.090,LearnStrategy,2023.2.3,Win32,59.52380952,,,,,,,,,,,1,06,6,1,,,,,,,,,,,,,,,,,,,,,,,,,,,,,,,
6630fcae418bde6a9e7c3b47,SCR,2024-06-25_12h41.11.090,LearnStrategy,2023.2.3,Win32,59.52380952,,,,,,,,,,,1,02,6,2,,,,,,,,,,,,,,,,,,,,,,,,,,,,,,,
6630fcae418bde6a9e7c3b47,SCR,2024-06-25_12h41.11.090,LearnStrategy,2023.2.3,Win32,59.52380952,,,,,,,,,,,7,14,6,3,,,,,,,,,,,,,,,,,,,,,,,,,,,,,,,
6630fcae418bde6a9e7c3b47,SCR,2024-06-25_12h41.11.090,LearnStrategy,2023.2.3,Win32,59.52380952,,,,,,,,,,,5,05,6,4,,,,,,,,,,,,,,,,,,,,,,,,,,,,,,,
6630fcae418bde6a9e7c3b47,SCR,2024-06-25_12h41.11.090,LearnStrategy,2023.2.3,Win32,59.52380952,,,,,,,,,,,5,14,6,5,,,,,,,,,,,,,,,,,,,,,,,,,,,,,,,
6630fcae418bde6a9e7c3b47,SCR,2024-06-25_12h41.11.090,LearnStrategy,2023.2.3,Win32,59.52380952,,,,,,,,,,,8,08,6,6,,,,,,,,,,,,,,,,,,,,,,,,,,,,,,,
6630fcae418bde6a9e7c3b47,SCR,2024-06-25_12h41.11.090,LearnStrategy,2023.2.3,Win32,59.52380952,,,,,,,,,,,5,06,6,7,,,,,,,,,,,,,,,,,,,,,,,,,,,,,,,
6630fcae418bde6a9e7c3b47,SCR,2024-06-25_12h41.11.090,LearnStrategy,2023.2.3,Win32,59.52380952,,,,,,,,,,,8,05,6,8,,,,,,,,,,,,,,,,,,,,,,,,,,,,,,,