participant,condition,date,expName,psychopyVersion,OS,frameRate,block,phase,trial,learn_mouse_2.x,learn_mouse_2.y,learn_mouse_2.leftButton,learn_mouse_2.midButton,learn_mouse_2.rightButton,learn_mouse_2.time,learn_mouse_2.clicked_name,cat,token,row,col,t_select,cat_mouse_l.x,cat_mouse_l.y,cat_mouse_l.leftButton,cat_mouse_l.midButton,cat_mouse_l.rightButton,cat_mouse_l.time,cat_mouse_l.clicked_name,resp,t_resp,corr,train_trials.thisRepN,train_trials.thisTrialN,train_trials.thisN,train_trials.thisIndex,train_trials.ran,cat_mouse_t.x,cat_mouse_t.y,cat_mouse_t.leftButton,cat_mouse_t.midButton,cat_mouse_t.rightButton,cat_mouse_t.time,cat_mouse_t.clicked_name,test_trials.thisRepN,test_trials.thisTrialN,test_trials.thisN,test_trials.thisIndex,test_trials.ran,Bonus
6630f8c1f995b01de9767c7d,TCN,2024-06-11_12h20.24.762,LearnStrategy,2023.2.3,MacIntel,60.60606061,,,,,,,,,,,,,,,,,,,,,,,,,,,,,,,,,,,,,,,,,,,
6630f8c1f995b01de9767c7d,TCN,2024-06-11_12h20.24.762,LearnStrategy,2023.2.3,MacIntel,60.60606061,1,1,1,0.033198513,0.00200965,1,0,0,3.043,rock_grid_rect_2,4,14,-1,-1,3.043,-0.130276218,-0.390808716,1,0,0,5.1881,Pegmatite_rect,6,5.188,0,0,0,0,0,1,,,,,,,,,,,,,
6630f8c1f995b01de9767c7d,TCN,2024-06-11_12h20.24.762,LearnStrategy,2023.2.3,MacIntel,60.60606061,1,1,2,0.030540907,-0.00074334,1,0,0,1.163,rock_grid_rect_2,5,11,-1,-1,1.163,-0.388256022,-0.396755439,1,0,0,1.7624,Obsidian_rect,5,1.762,1,1,0,1,0,1,,,,,,,,,,,,,
6630f8c1f995b01de9767c7d,TCN,2024-06-11_12h20.24.762,LearnStrategy,2023.2.3,MacIntel,60.60606061,1,1,3,0.052830946,0.004516975,1,0,0,0.9148,rock_grid_rect_2,3,07,-1,-1,0.915,0.425732693,-0.38629815,1,0,0,2.9398,Pumice_rect,8,2.94,0,2,0,2,0,1,,,,,,,,,,,,,
6630f8c1f995b01de9767c7d,TCN,2024-06-11_12h20.24.762,LearnStrategy,2023.2.3,MacIntel,60.60606061,1,1,4,0.03629008,-0.008091058,1,0,0,1.1162,rock_grid_rect_2,1,11,-1,-1,1.116,0.113882921,-0.404843207,1,0,0,11.0233,Peridotite_rect,7,11.023,0,3,0,3,0,1,,,,,,,,,,,,,
6630f8c1f995b01de9767c7d,TCN,2024-06-11_12h20.24.762,LearnStrategy,2023.2.3,MacIntel,60.60606061,1,1,5,-0.021480781,0.011820679,1,0,0,1.1143,rock_grid_rect_2,3,10,-1,-1,1.114,-0.076357558,-0.391475016,1,0,0,7.3335,Pegmatite_rect,6,7.334,0,4,0,4,0,1,,,,,,,,,,,,,
6630f8c1f995b01de9767c7d,TCN,2024-06-11_12h20.24.762,LearnStrategy,2023.2.3,MacIntel,60.60606061,1,1,6,0.029895155,0.016797316,1,0,0,0.9195,rock_grid_rect_2,7,12,-1,-1,0.919,0.162644586,-0.402686971,1,0,0,2.1793,Peridotite_rect,7,2.179,1,5,0,5,0,1,,,,,,,,,,,,,
6630f8c1f995b01de9767c7d,TCN,2024-06-11_12h20.24.762,LearnStrategy,2023.2.3,MacIntel,60.60606061,1,1,7,0.055778944,-0.010125359,1,0,0,0.9495,rock_grid_rect_2,6,15,-1,-1,0.95,0.393924967,-0.396385498,1,0,0,3.8594,Pumice_rect,8,3.859,0,6,0,6,0,1,,,,,,,,,,,,,
6630f8c1f995b01de9767c7d,TCN,2024-06-11_12h20.24.762,LearnStrategy,2023.2.3,MacIntel,60.60606061,1,1,8,-0.00675198,-0.005046794,1,0,0,0.9801,rock_grid_rect_2,8,14,-1,-1,0.98,0.383864204,-0.393470798,1,0,0,2.1523,Pumice_rect,8,2.152,1,7,0,7,0,1,,,,,,,,,,,,,
6630f8c1f995b01de9767c7d,TCN,2024-06-11_12h20.24.762,LearnStrategy,2023.2.3,MacIntel,60.60606061,1,1,9,0.051532525,-0.009294874,1,0,0,0.9318,rock_grid_rect_2,1,01,-1,-1,0.932,-0.100968289,-0.251580607,1,0,0,1.6368,Basalt_rect,2,1.637,0,8,0,8,0,1,,,,,,,,,,,,,
6630f8c1f995b01de9767c7d,TCN,2024-06-11_12h20.24.762,LearnStrategy,2023.2.3,MacIntel,60.60606061,1,1,10,0.024032389,0.005791829,1,0,0,0.9031,rock_grid_rect_2,4,16,-1,-1,0.903,0.375939263,-0.265488892,1,0,0,3.1137,Gabbro_rect,4,3.114,1,9,0,9,0,1,,,,,,,,,,,,,
6630f8c1f995b01de9767c7d,TCN,2024-06-11_12h20.24.762,LearnStrategy,2023.2.3,MacIntel,60.60606061,1,1,11,0.103592936,-0.003652344,1,0,0,0.9655,rock_grid_rect_2,2,06,-1,-1,0.965,-0.357000258,-0.244115872,1,0,0,14.7255,Andesite_rect,1,14.726,0,10,0,10,0,1,,,,,,,,,,,,,
6630f8c1f995b01de9767c7d,TCN,2024-06-11_12h20.24.762,LearnStrategy,2023.2.3,MacIntel,60.60606061,1,1,12,0.020078803,0.005590583,1,0,0,0.8219,rock_grid_rect_2,2,11,-1,-1,0.822,0.132429877,-0.248374091,1,0,0,11.4909,Diorite_rect,3,11.491,0,11,0,11,0,1,,,,,,,,,,,,,
6630f8c1f995b01de9767c7d,TCN,2024-06-11_12h20.24.762,LearnStrategy,2023.2.3,MacIntel,60.60606061,1,1,13,0.065012478,0.001602546,1,0,0,1.0702,rock_grid_rect_2,6,06,-1,-1,1.07,-0.078831651,-0.386682671,1,0,0,5.2887,Pegmatite_rect,6,5.289,1,12,0,12,0,1,,,,,,,,,,,,,
6630f8c1f995b01de9767c7d,TCN,2024-06-11_12h20.24.762,LearnStrategy,2023.2.3,MacIntel,60.60606061,1,1,14,0.009609239,-0.013789334,1,0,0,0.9806,rock_grid_rect_2,5,04,-1,-1,0.981,-0.349909566,-0.398343506,1,0,0,1.2539,Obsidian_rect,5,1.254,1,13,0,13,0,1,,,,,,,,,,,,,
6630f8c1f995b01de9767c7d,TCN,2024-06-11_12h20.24.762,LearnStrategy,2023.2.3,MacIntel,60.60606061,1,1,15,0.088063965,-0.013718567,1,0,0,1.0157,rock_grid_rect_2,8,16,-1,-1,1.016,0.405212131,-0.404913127,1,0,0,8.4211,Pumice_rect,8,8.421,1,14,0,14,0,1,,,,,,,,,,,,,
6630f8c1f995b01de9767c7d,TCN,2024-06-11_12h20.24.762,LearnStrategy,2023.2.3,MacIntel,60.60606061,1,1,16,0.088900418,-0.007993944,1,0,0,0.815,rock_grid_rect_2,7,05,-1,-1,0.815,0.15853163,-0.242627157,1,0,0,7.6331,Diorite_rect,3,7.633,0,15,0,15,0,1,,,,,,,,,,,,,
6630f8c1f995b01de9767c7d,TCN,2024-06-11_12h20.24.762,LearnStrategy,2023.2.3,MacIntel,60.60606061,1,2,1,,,,,,,,1,16,,,,,,,,,,,7,18.373,0,,,,,,0.113077528,-0.39729404,1,0,0,18.3727,Peridotite_rect,0,0,0,0,1,
6630f8c1f995b01de9767c7d,TCN,2024-06-11_12h20.24.762,LearnStrategy,2023.2.3,MacIntel,60.60606061,1,2,2,,,,,,,,8,15,,,,,,,,,,,8,5.603,1,,,,,,0.445835368,-0.379749756,1,0,0,5.6031,Pumice_rect,1,0,1,0,1,
6630f8c1f995b01de9767c7d,TCN,2024-06-11_12h20.24.762,LearnStrategy,2023.2.3,MacIntel,60.60606061,1,2,3,,,,,,,,5,02,,,,,,,,,,,5,1.389,1,,,,,,-0.357521973,-0.386395738,1,0,0,1.3886,Obsidian_rect,2,0,2,0,1,
6630f8c1f995b01de9767c7d,TCN,2024-06-11_12h20.24.762,LearnStrategy,2023.2.3,MacIntel,60.60606061,1,2,4,,,,,,,,7,15,,,,,,,,,,,7,4.108,1,,,,,,0.109511108,-0.404018826,1,0,0,4.1075,Peridotite_rect,3,0,3,0,1,
6630f8c1f995b01de9767c7d,TCN,2024-06-11_12h20.24.762,LearnStrategy,2023.2.3,MacIntel,60.60606061,1,2,5,,,,,,,,2,09,,,,,,,,,,,2,7.141,1,,,,,,-0.153533461,-0.248416273,1,0,0,7.1414,Basalt_rect,4,0,4,0,1,
6630f8c1f995b01de9767c7d,TCN,2024-06-11_12h20.24.762,LearnStrategy,2023.2.3,MacIntel,60.60606061,1,2,6,,,,,,,,6,08,,,,,,,,,,,6,3.822,1,,,,,,-0.083702664,-0.40232137,1,0,0,3.822,Pegmatite_rect,5,0,5,0,1,
6630f8c1f995b01de9767c7d,TCN,2024-06-11_12h20.24.762,LearnStrategy,2023.2.3,MacIntel,60.60606061,1,2,7,,,,,,,,4,09,,,,,,,,,,,1,6.022,0,,,,,,-0.360156114,-0.232646077,1,0,0,6.0217,Andesite_rect,6,0,6,0,1,
6630f8c1f995b01de9767c7d,TCN,2024-06-11_12h20.24.762,LearnStrategy,2023.2.3,MacIntel,60.60606061,1,2,8,,,,,,,,6,09,,,,,,,,,,,6,4.882,1,,,,,,-0.093282335,-0.40665446,1,0,0,4.8817,Pegmatite_rect,7,0,7,0,1,
6630f8c1f995b01de9767c7d,TCN,2024-06-11_12h20.24.762,LearnStrategy,2023.2.3,MacIntel,60.60606061,1,2,9,,,,,,,,5,10,,,,,,,,,,,5,2.27,1,,,,,,-0.356627401,-0.407007311,1,0,0,2.2698,Obsidian_rect,8,0,8,0,1,
6630f8c1f995b01de9767c7d,TCN,2024-06-11_12h20.24.762,LearnStrategy,2023.2.3,MacIntel,60.60606061,1,2,10,,,,,,,,4,03,,,,,,,,,,,2,9.912,0,,,,,,-0.108995294,-0.26593472,1,0,0,9.9119,Basalt_rect,9,0,9,0,1,
6630f8c1f995b01de9767c7d,TCN,2024-06-11_12h20.24.762,LearnStrategy,2023.2.3,MacIntel,60.60606061,1,2,11,,,,,,,,8,03,,,,,,,,,,,8,1.528,1,,,,,,0.350179715,-0.418232354,1,0,0,1.5281,Pumice_rect,10,0,10,0,1,
6630f8c1f995b01de9767c7d,TCN,2024-06-11_12h20.24.762,LearnStrategy,2023.2.3,MacIntel,60.60606061,1,2,12,,,,,,,,3,13,,,,,,,,,,,7,7.426,0,,,,,,0.136475152,-0.392588704,1,0,0,7.4262,Peridotite_rect,11,0,11,0,1,
6630f8c1f995b01de9767c7d,TCN,2024-06-11_12h20.24.762,LearnStrategy,2023.2.3,MacIntel,60.60606061,1,2,13,,,,,,,,7,04,,,,,,,,,,,6,13.818,0,,,,,,-0.14709276,-0.382031318,1,0,0,13.818,Pegmatite_rect,12,0,12,0,1,
6630f8c1f995b01de9767c7d,TCN,2024-06-11_12h20.24.762,LearnStrategy,2023.2.3,MacIntel,60.60606061,1,2,14,,,,,,,,1,03,,,,,,,,,,,2,7.556,0,,,,,,-0.073159044,-0.247681546,1,0,0,7.556,Basalt_rect,13,0,13,0,1,
6630f8c1f995b01de9767c7d,TCN,2024-06-11_12h20.24.762,LearnStrategy,2023.2.3,MacIntel,60.60606061,1,2,15,,,,,,,,3,11,,,,,,,,,,,7,7.542,0,,,,,,0.09471266,-0.408022325,1,0,0,7.5415,Peridotite_rect,14,0,14,0,1,
6630f8c1f995b01de9767c7d,TCN,2024-06-11_12h20.24.762,LearnStrategy,2023.2.3,MacIntel,60.60606061,1,2,16,,,,,,,,2,04,,,,,,,,,,,1,11.14,0,,,,,,-0.380034892,-0.256354167,1,0,0,11.1402,Andesite_rect,15,0,15,0,1,
6630f8c1f995b01de9767c7d,TCN,2024-06-11_12h20.24.762,LearnStrategy,2023.2.3,MacIntel,60.60606061,2,1,1,0.026739841,-0.000472243,1,0,0,18.0964,rock_grid_rect_2,3,16,-1,-1,18.096,0.107383558,-0.26377733,1,0,0,14.9987,Diorite_rect,3,14.999,1,0,0,0,0,1,,,,,,,,,,,,,
6630f8c1f995b01de9767c7d,TCN,2024-06-11_12h20.24.762,LearnStrategy,2023.2.3,MacIntel,60.60606061,2,1,2,0.032484266,-0.017505663,1,0,0,0.8953,rock_grid_rect_2,6,03,-1,-1,0.895,-0.126479899,-0.397891235,1,0,0,59.1274,Pegmatite_rect,6,59.127,1,1,0,1,0,1,,,,,,,,,,,,,
6630f8c1f995b01de9767c7d,TCN,2024-06-11_12h20.24.762,LearnStrategy,2023.2.3,MacIntel,60.60606061,2,1,3,0.037082723,0.014335022,1,0,0,0.9479,rock_grid_rect_2,2,16,-1,-1,0.948,0.424723307,-0.24012458,1,0,0,4.1322,Gabbro_rect,4,4.132,0,2,0,2,0,1,,,,,,,,,,,,,
6630f8c1f995b01de9767c7d,TCN,2024-06-11_12h20.24.762,LearnStrategy,2023.2.3,MacIntel,60.60606061,2,1,4,0.03043335,-0.014245707,1,0,0,0.8661,rock_grid_rect_2,4,12,-1,-1,0.866,-0.165375434,-0.271186117,1,0,0,5.0965,Basalt_rect,2,5.096,0,3,0,3,0,1,,,,,,,,,,,,,
6630f8c1f995b01de9767c7d,TCN,2024-06-11_12h20.24.762,LearnStrategy,2023.2.3,MacIntel,60.60606061,2,1,5,0.037267049,-0.003685133,1,0,0,0.8647,rock_grid_rect_2,8,05,-1,-1,0.865,0.410405952,-0.402722982,1,0,0,1.9919,Pumice_rect,8,1.992,1,4,0,4,0,1,,,,,,,,,,,,,
6630f8c1f995b01de9767c7d,TCN,2024-06-11_12h20.24.762,LearnStrategy,2023.2.3,MacIntel,60.60606061,2,1,6,0.042202488,0.001106839,1,0,0,0.7819,rock_grid_rect_2,2,02,-1,-1,0.782,-0.10033393,-0.2610338,1,0,0,6.8357,Basalt_rect,2,6.836,1,5,0,5,0,1,,,,,,,,,,,,,
6630f8c1f995b01de9767c7d,TCN,2024-06-11_12h20.24.762,LearnStrategy,2023.2.3,MacIntel,60.60606061,2,1,7,-0.036452705,-0.011468302,1,0,0,0.763,rock_grid_rect_2,1,10,-1,-1,0.763,-0.054797228,-0.231162855,1,0,0,5.9506,Basalt_rect,2,5.951,0,6,0,6,0,1,,,,,,,,,,,,,
6630f8c1f995b01de9767c7d,TCN,2024-06-11_12h20.24.762,LearnStrategy,2023.2.3,MacIntel,60.60606061,2,1,8,0.033882107,-0.013585409,1,0,0,1.3487,rock_grid_rect_2,5,12,-1,-1,1.349,-0.36928304,-0.389501817,1,0,0,1.3523,Obsidian_rect,5,1.352,1,7,0,7,0,1,,,,,,,,,,,,,
6630f8c1f995b01de9767c7d,TCN,2024-06-11_12h20.24.762,LearnStrategy,2023.2.3,MacIntel,60.60606061,2,1,9,-0.103284234,-0.015383301,1,0,0,0.7835,rock_grid_rect_2,8,08,-1,-1,0.784,0.378821615,-0.39023919,1,0,0,1.792,Pumice_rect,8,1.792,1,8,0,8,0,1,,,,,,,,,,,,,
6630f8c1f995b01de9767c7d,TCN,2024-06-11_12h20.24.762,LearnStrategy,2023.2.3,MacIntel,60.60606061,2,1,10,-0.005263536,0.017567105,1,0,0,0.7503,rock_grid_rect_2,7,13,-1,-1,0.75,0.113990072,-0.258413628,1,0,0,6.9561,Diorite_rect,3,6.956,0,9,0,9,0,1,,,,,,,,,,,,,
6630f8c1f995b01de9767c7d,TCN,2024-06-11_12h20.24.762,LearnStrategy,2023.2.3,MacIntel,60.60606061,2,1,11,0.097086317,0.013788079,1,0,0,2.1661,rock_grid_rect_2,5,09,-1,-1,2.166,-0.384292976,-0.397835286,1,0,0,1.1767,Obsidian_rect,5,1.177,1,10,0,10,0,1,,,,,,,,,,,,,
6630f8c1f995b01de9767c7d,TCN,2024-06-11_12h20.24.762,LearnStrategy,2023.2.3,MacIntel,60.60606061,2,1,12,-0.021509535,-0.018829041,1,0,0,0.8998,rock_grid_rect_2,1,09,-1,-1,0.9,-0.098426921,-0.260877482,1,0,0,10.4152,Basalt_rect,2,10.415,0,11,0,11,0,1,,,,,,,,,,,,,
6630f8c1f995b01de9767c7d,TCN,2024-06-11_12h20.24.762,LearnStrategy,2023.2.3,MacIntel,60.60606061,2,1,13,0.015906236,-0.014521586,1,0,0,1.1322,rock_grid_rect_2,7,16,-1,-1,1.132,0.150804579,-0.244356418,1,0,0,15.5165,Diorite_rect,3,15.516,0,12,0,12,0,1,,,,,,,,,,,,,
6630f8c1f995b01de9767c7d,TCN,2024-06-11_12h20.24.762,LearnStrategy,2023.2.3,MacIntel,60.60606061,2,1,14,0.06776964,-0.008333062,1,0,0,0.821,rock_grid_rect_2,6,13,-1,-1,0.821,0.405687798,-0.265577325,1,0,0,2.7556,Gabbro_rect,4,2.756,0,13,0,13,0,1,,,,,,,,,,,,,
6630f8c1f995b01de9767c7d,TCN,2024-06-11_12h20.24.762,LearnStrategy,2023.2.3,MacIntel,60.60606061,2,1,15,0.088770413,0.011374308,1,0,0,0.79,rock_grid_rect_2,3,14,-1,-1,0.79,-0.402464396,-0.244307387,1,0,0,10.4989,Andesite_rect,1,10.499,0,14,0,14,0,1,,,,,,,,,,,,,
6630f8c1f995b01de9767c7d,TCN,2024-06-11_12h20.24.762,LearnStrategy,2023.2.3,MacIntel,60.60606061,2,1,16,0.076677585,0.023440552,1,0,0,0.8042,rock_grid_rect_2,4,08,-1,-1,0.804,0.13781033,-0.410090196,1,0,0,9.3315,Peridotite_rect,7,9.332,0,15,0,15,0,1,,,,,,,,,,,,,
6630f8c1f995b01de9767c7d,TCN,2024-06-11_12h20.24.762,LearnStrategy,2023.2.3,MacIntel,60.60606061,2,2,1,,,,,,,,2,01,,,,,,,,,,,4,24.51,0,,,,,,0.411836616,-0.237266778,1,0,0,24.5101,Gabbro_rect,0,0,0,0,1,
6630f8c1f995b01de9767c7d,TCN,2024-06-11_12h20.24.762,LearnStrategy,2023.2.3,MacIntel,60.60606061,2,2,2,,,,,,,,1,02,,,,,,,,,,,7,5.94,0,,,,,,0.121756253,-0.393628608,1,0,0,5.9403,Peridotite_rect,1,0,1,0,1,
6630f8c1f995b01de9767c7d,TCN,2024-06-11_12h20.24.762,LearnStrategy,2023.2.3,MacIntel,60.60606061,2,2,3,,,,,,,,5,08,,,,,,,,,,,5,1.3,1,,,,,,-0.337328152,-0.399586995,1,0,0,1.2997,Obsidian_rect,2,0,2,0,1,
6630f8c1f995b01de9767c7d,TCN,2024-06-11_12h20.24.762,LearnStrategy,2023.2.3,MacIntel,60.60606061,2,2,4,,,,,,,,7,02,,,,,,,,,,,7,2.671,1,,,,,,0.172706909,-0.40786343,1,0,0,2.6706,Peridotite_rect,3,0,3,0,1,
6630f8c1f995b01de9767c7d,TCN,2024-06-11_12h20.24.762,LearnStrategy,2023.2.3,MacIntel,60.60606061,2,2,5,,,,,,,,7,06,,,,,,,,,,,7,4.132,1,,,,,,0.145688002,-0.383180542,1,0,0,4.1325,Peridotite_rect,4,0,4,0,1,
6630f8c1f995b01de9767c7d,TCN,2024-06-11_12h20.24.762,LearnStrategy,2023.2.3,MacIntel,60.60606061,2,2,6,,,,,,,,4,01,,,,,,,,,,,3,3.134,0,,,,,,0.134447021,-0.240695462,1,0,0,3.1338,Diorite_rect,5,0,5,0,1,
6630f8c1f995b01de9767c7d,TCN,2024-06-11_12h20.24.762,LearnStrategy,2023.2.3,MacIntel,60.60606061,2,2,7,,,,,,,,2,08,,,,,,,,,,,2,3.598,1,,,,,,-0.05650255,-0.245088976,1,0,0,3.5983,Basalt_rect,6,0,6,0,1,
6630f8c1f995b01de9767c7d,TCN,2024-06-11_12h20.24.762,LearnStrategy,2023.2.3,MacIntel,60.60606061,2,2,8,,,,,,,,8,13,,,,,,,,,,,8,3.148,1,,,,,,0.406265055,-0.421897176,1,0,0,3.1482,Pumice_rect,7,0,7,0,1,
6630f8c1f995b01de9767c7d,TCN,2024-06-11_12h20.24.762,LearnStrategy,2023.2.3,MacIntel,60.60606061,2,2,9,,,,,,,,3,02,,,,,,,,,,,3,15.484,1,,,,,,0.147011719,-0.23209059,1,0,0,15.4843,Diorite_rect,8,0,8,0,1,
6630f8c1f995b01de9767c7d,TCN,2024-06-11_12h20.24.762,LearnStrategy,2023.2.3,MacIntel,60.60606061,2,2,10,,,,,,,,3,09,,,,,,,,,,,3,1.972,1,,,,,,0.160312432,-0.245070258,1,0,0,1.9722,Diorite_rect,9,0,9,0,1,
6630f8c1f995b01de9767c7d,TCN,2024-06-11_12h20.24.762,LearnStrategy,2023.2.3,MacIntel,60.60606061,2,2,11,,,,,,,,6,05,,,,,,,,,,,7,8.477,0,,,,,,0.121248847,-0.415935465,1,0,0,8.4773,Peridotite_rect,10,0,10,0,1,
6630f8c1f995b01de9767c7d,TCN,2024-06-11_12h20.24.762,LearnStrategy,2023.2.3,MacIntel,60.60606061,2,2,12,,,,,,,,6,16,,,,,,,,,,,6,5.351,1,,,,,,-0.16260064,-0.401349487,1,0,0,5.3507,Pegmatite_rect,11,0,11,0,1,
6630f8c1f995b01de9767c7d,TCN,2024-06-11_12h20.24.762,LearnStrategy,2023.2.3,MacIntel,60.60606061,2,2,13,,,,,,,,5,05,,,,,,,,,,,5,3.249,1,,,,,,-0.367781643,-0.401821425,1,0,0,3.2487,Obsidian_rect,12,0,12,0,1,
6630f8c1f995b01de9767c7d,TCN,2024-06-11_12h20.24.762,LearnStrategy,2023.2.3,MacIntel,60.60606061,2,2,14,,,,,,,,4,15,,,,,,,,,,,4,4.505,1,,,,,,0.379124756,-0.262173394,1,0,0,4.5051,Gabbro_rect,13,0,13,0,1,
6630f8c1f995b01de9767c7d,TCN,2024-06-11_12h20.24.762,LearnStrategy,2023.2.3,MacIntel,60.60606061,2,2,15,,,,,,,,1,14,,,,,,,,,,,2,5.564,0,,,,,,-0.197757636,-0.252094591,1,0,0,5.5638,Basalt_rect,14,0,14,0,1,
6630f8c1f995b01de9767c7d,TCN,2024-06-11_12h20.24.762,LearnStrategy,2023.2.3,MacIntel,60.60606061,2,2,16,,,,,,,,8,02,,,,,,,,,,,8,1.644,1,,,,,,0.365192735,-0.40653517,1,0,0,1.644,Pumice_rect,15,0,15,0,1,
6630f8c1f995b01de9767c7d,TCN,2024-06-11_12h20.24.762,LearnStrategy,2023.2.3,MacIntel,60.60606061,3,1,1,0.057868381,0.010255195,1,0,0,1.4337,rock_grid_rect_2,8,09,-1,-1,1.434,0.391092258,-0.401525608,1,0,0,9.3238,Pumice_rect,8,9.324,1,0,0,0,0,1,,,,,,,,,,,,,
6630f8c1f995b01de9767c7d,TCN,2024-06-11_12h20.24.762,LearnStrategy,2023.2.3,MacIntel,60.60606061,3,1,2,0.002706095,-0.002705722,1,0,0,0.9146,rock_grid_rect_2,2,05,-1,-1,0.915,-0.094948663,-0.25233568,1,0,0,1.4008,Basalt_rect,2,1.401,1,1,0,1,0,1,,,,,,,,,,,,,
6630f8c1f995b01de9767c7d,TCN,2024-06-11_12h20.24.762,LearnStrategy,2023.2.3,MacIntel,60.60606061,3,1,3,-0.051292046,-0.014046326,1,0,0,0.8162,rock_grid_rect_2,4,11,-1,-1,0.816,0.379293755,-0.238757867,1,0,0,2.0054,Gabbro_rect,4,2.005,1,2,0,2,0,1,,,,,,,,,,,,,
6630f8c1f995b01de9767c7d,TCN,2024-06-11_12h20.24.762,LearnStrategy,2023.2.3,MacIntel,60.60606061,3,1,4,-0.015185343,-0.018589206,1,0,0,0.8491,rock_grid_rect_2,3,15,-1,-1,0.849,-0.350936551,-0.243721042,1,0,0,3.0566,Andesite_rect,1,3.057,0,3,0,3,0,1,,,,,,,,,,,,,
6630f8c1f995b01de9767c7d,TCN,2024-06-11_12h20.24.762,LearnStrategy,2023.2.3,MacIntel,60.60606061,3,1,5,-0.023072917,-0.021961331,1,0,0,0.7483,rock_grid_rect_2,6,10,-1,-1,0.748,-0.102290717,-0.403820665,1,0,0,11.4804,Pegmatite_rect,6,11.48,1,4,0,4,0,1,,,,,,,,,,,,,
6630f8c1f995b01de9767c7d,TCN,2024-06-11_12h20.24.762,LearnStrategy,2023.2.3,MacIntel,60.60606061,3,1,6,0.021219143,0.010222609,1,0,0,0.8635,rock_grid_rect_2,5,16,-1,-1,0.863,-0.392833794,-0.40641432,1,0,0,1.1848,Obsidian_rect,5,1.185,1,5,0,5,0,1,,,,,,,,,,,,,
6630f8c1f995b01de9767c7d,TCN,2024-06-11_12h20.24.762,LearnStrategy,2023.2.3,MacIntel,60.60606061,3,1,7,-0.028378635,0.007151964,1,0,0,0.8826,rock_grid_rect_2,4,10,-1,-1,0.883,-0.102960544,-0.228846436,1,0,0,4.6652,Basalt_rect,2,4.665,0,6,0,6,0,1,,,,,,,,,,,,,
6630f8c1f995b01de9767c7d,TCN,2024-06-11_12h20.24.762,LearnStrategy,2023.2.3,MacIntel,60.60606061,3,1,8,0.010608114,-0.017994554,1,0,0,0.7222,rock_grid_rect_2,6,12,-1,-1,0.722,0.128763224,-0.250038452,1,0,0,6.0775,Diorite_rect,3,6.077,0,7,0,7,0,1,,,,,,,,,,,,,
6630f8c1f995b01de9767c7d,TCN,2024-06-11_12h20.24.762,LearnStrategy,2023.2.3,MacIntel,60.60606061,3,1,9,0.01430542,0.00693729,1,0,0,0.7793,rock_grid_rect_2,5,14,-1,-1,0.779,-0.384515788,-0.401593424,1,0,0,1.2072,Obsidian_rect,5,1.207,1,8,0,8,0,1,,,,,,,,,,,,,
6630f8c1f995b01de9767c7d,TCN,2024-06-11_12h20.24.762,LearnStrategy,2023.2.3,MacIntel,60.60606061,3,1,10,-0.014841105,-0.004429525,1,0,0,0.9157,rock_grid_rect_2,3,08,-1,-1,0.916,0.186431749,-0.24726732,1,0,0,5.7771,Diorite_rect,3,5.777,1,9,0,9,0,1,,,,,,,,,,,,,
6630f8c1f995b01de9767c7d,TCN,2024-06-11_12h20.24.762,LearnStrategy,2023.2.3,MacIntel,60.60606061,3,1,11,0.030495605,0.000977817,1,0,0,0.7466,rock_grid_rect_2,2,10,-1,-1,0.747,-0.128421563,-0.419183553,1,0,0,5.1579,Pegmatite_rect,6,5.158,0,10,0,10,0,1,,,,,,,,,,,,,
6630f8c1f995b01de9767c7d,TCN,2024-06-11_12h20.24.762,LearnStrategy,2023.2.3,MacIntel,60.60606061,3,1,12,0.005337321,0.005539246,1,0,0,0.7528,rock_grid_rect_2,7,08,-1,-1,0.753,0.093146294,-0.421208293,1,0,0,10.5828,Peridotite_rect,7,10.583,1,11,0,11,0,1,,,,,,,,,,,,,
6630f8c1f995b01de9767c7d,TCN,2024-06-11_12h20.24.762,LearnStrategy,2023.2.3,MacIntel,60.60606061,3,1,13,-0.001981947,-0.017861633,1,0,0,1.0468,rock_grid_rect_2,8,10,-1,-1,1.047,0.38303928,-0.403397759,1,0,0,1.25,Pumice_rect,8,1.25,1,12,0,12,0,1,,,,,,,,,,,,,
6630f8c1f995b01de9767c7d,TCN,2024-06-11_12h20.24.762,LearnStrategy,2023.2.3,MacIntel,60.60606061,3,1,14,-0.036806912,0.024182536,1,0,0,0.8497,rock_grid_rect_2,7,10,-1,-1,0.85,0.149368015,-0.401182997,1,0,0,1.5122,Peridotite_rect,7,1.512,1,13,0,13,0,1,,,,,,,,,,,,,
6630f8c1f995b01de9767c7d,TCN,2024-06-11_12h20.24.762,LearnStrategy,2023.2.3,MacIntel,60.60606061,3,1,15,-0.009391412,0.008135579,1,0,0,0.7158,rock_grid_rect_2,1,05,-1,-1,0.716,-0.325905626,-0.252070991,1,0,0,10.3452,Andesite_rect,1,10.345,1,14,0,14,0,1,,,,,,,,,,,,,
6630f8c1f995b01de9767c7d,TCN,2024-06-11_12h20.24.762,LearnStrategy,2023.2.3,MacIntel,60.60606061,3,1,16,0.007981093,0.001785007,1,0,0,0.8888,rock_grid_rect_2,1,06,-1,-1,0.889,0.127850342,-0.24001336,1,0,0,14.1111,Diorite_rect,3,14.111,0,15,0,15,0,1,,,,,,,,,,,,,
6630f8c1f995b01de9767c7d,TCN,2024-06-11_12h20.24.762,LearnStrategy,2023.2.3,MacIntel,60.60606061,3,2,1,,,,,,,,2,14,,,,,,,,,,,2,13.339,1,,,,,,-0.152521905,-0.253373684,1,0,0,13.3386,Basalt_rect,0,0,0,0,1,
6630f8c1f995b01de9767c7d,TCN,2024-06-11_12h20.24.762,LearnStrategy,2023.2.3,MacIntel,60.60606061,3,2,2,,,,,,,,2,12,,,,,,,,,,,8,8.188,0,,,,,,0.435785862,-0.408999227,1,0,0,8.1878,Pumice_rect,1,0,1,0,1,
6630f8c1f995b01de9767c7d,TCN,2024-06-11_12h20.24.762,LearnStrategy,2023.2.3,MacIntel,60.60606061,3,2,3,,,,,,,,3,12,,,,,,,,,,,7,27.752,0,,,,,,0.134531928,-0.382654894,1,0,0,27.752,Peridotite_rect,2,0,2,0,1,
6630f8c1f995b01de9767c7d,TCN,2024-06-11_12h20.24.762,LearnStrategy,2023.2.3,MacIntel,60.60606061,3,2,4,,,,,,,,8,06,,,,,,,,,,,8,2.348,1,,,,,,0.4203361,-0.400857205,1,0,0,2.3477,Pumice_rect,3,0,3,0,1,
6630f8c1f995b01de9767c7d,TCN,2024-06-11_12h20.24.762,LearnStrategy,2023.2.3,MacIntel,60.60606061,3,2,5,,,,,,,,8,04,,,,,,,,,,,8,1.369,1,,,,,,0.364171685,-0.40686225,1,0,0,1.3689,Pumice_rect,4,0,4,0,1,
6630f8c1f995b01de9767c7d,TCN,2024-06-11_12h20.24.762,LearnStrategy,2023.2.3,MacIntel,60.60606061,3,2,6,,,,,,,,4,13,,,,,,,,,,,3,5.762,0,,,,,,0.160945231,-0.247035387,1,0,0,5.7618,Diorite_rect,5,0,5,0,1,
6630f8c1f995b01de9767c7d,TCN,2024-06-11_12h20.24.762,LearnStrategy,2023.2.3,MacIntel,60.60606061,3,2,7,,,,,,,,1,07,,,,,,,,,,,3,13.396,0,,,,,,0.164080607,-0.258079291,1,0,0,13.3955,Diorite_rect,6,0,6,0,1,
6630f8c1f995b01de9767c7d,TCN,2024-06-11_12h20.24.762,LearnStrategy,2023.2.3,MacIntel,60.60606061,3,2,8,,,,,,,,6,11,,,,,,,,,,,6,3.721,1,,,,,,-0.080067613,-0.38457038,1,0,0,3.7213,Pegmatite_rect,7,0,7,0,1,
6630f8c1f995b01de9767c7d,TCN,2024-06-11_12h20.24.762,LearnStrategy,2023.2.3,MacIntel,60.60606061,3,2,9,,,,,,,,3,06,,,,,,,,,,,1,13.844,0,,,,,,-0.350306396,-0.252566189,1,0,0,13.8439,Andesite_rect,8,0,8,0,1,
6630f8c1f995b01de9767c7d,TCN,2024-06-11_12h20.24.762,LearnStrategy,2023.2.3,MacIntel,60.60606061,3,2,10,,,,,,,,6,07,,,,,,,,,,,6,3.67,1,,,,,,-0.118936293,-0.403342963,1,0,0,3.6695,Pegmatite_rect,9,0,9,0,1,
6630f8c1f995b01de9767c7d,TCN,2024-06-11_12h20.24.762,LearnStrategy,2023.2.3,MacIntel,60.60606061,3,2,11,,,,,,,,7,14,,,,,,,,,,,7,7.495,1,,,,,,0.177282444,-0.406696981,1,0,0,7.4946,Peridotite_rect,10,0,10,0,1,
6630f8c1f995b01de9767c7d,TCN,2024-06-11_12h20.24.762,LearnStrategy,2023.2.3,MacIntel,60.60606061,3,2,12,,,,,,,,5,07,,,,,,,,,,,5,1.473,1,,,,,,-0.370886875,-0.418569539,1,0,0,1.4732,Obsidian_rect,11,0,11,0,1,
6630f8c1f995b01de9767c7d,TCN,2024-06-11_12h20.24.762,LearnStrategy,2023.2.3,MacIntel,60.60606061,3,2,13,,,,,,,,7,07,,,,,,,,,,,3,16.039,0,,,,,,0.105025567,-0.252486098,1,0,0,16.0391,Diorite_rect,12,0,12,0,1,
6630f8c1f995b01de9767c7d,TCN,2024-06-11_12h20.24.762,LearnStrategy,2023.2.3,MacIntel,60.60606061,3,2,14,,,,,,,,1,04,,,,,,,,,,,4,3.861,0,,,,,,0.435483127,-0.241618245,1,0,0,3.8611,Gabbro_rect,13,0,13,0,1,
6630f8c1f995b01de9767c7d,TCN,2024-06-11_12h20.24.762,LearnStrategy,2023.2.3,MacIntel,60.60606061,3,2,15,,,,,,,,5,06,,,,,,,,,,,5,1.213,1,,,,,,-0.364512227,-0.397822401,1,0,0,1.2134,Obsidian_rect,14,0,14,0,1,
6630f8c1f995b01de9767c7d,TCN,2024-06-11_12h20.24.762,LearnStrategy,2023.2.3,MacIntel,60.60606061,3,2,16,,,,,,,,4,05,,,,,,,,,,,4,5.323,1,,,,,,0.449914686,-0.244112074,1,0,0,5.3226,Gabbro_rect,15,0,15,0,1,
6630f8c1f995b01de9767c7d,TCN,2024-06-11_12h20.24.762,LearnStrategy,2023.2.3,MacIntel,60.60606061,4,1,1,0.004700928,-0.009749654,1,0,0,1.8191,rock_grid_rect_2,4,08,-1,-1,1.819,0.317416857,-0.250100505,1,0,0,2.8854,Gabbro_rect,4,2.885,1,0,0,0,0,1,,,,,,,,,,,,,
6630f8c1f995b01de9767c7d,TCN,2024-06-11_12h20.24.762,LearnStrategy,2023.2.3,MacIntel,60.60606061,4,1,2,-0.017786323,-0.005742221,1,0,0,1.0006,rock_grid_rect_2,3,10,-1,-1,1.001,0.095152656,-0.394759318,1,0,0,10.8219,Peridotite_rect,7,10.822,0,1,0,1,0,1,,,,,,,,,,,,,
6630f8c1f995b01de9767c7d,TCN,2024-06-11_12h20.24.762,LearnStrategy,2023.2.3,MacIntel,60.60606061,4,1,3,0.011656426,-0.017712741,1,0,0,1.0147,rock_grid_rect_2,3,08,-1,-1,1.015,0.163062473,-0.230484687,1,0,0,3.35,Diorite_rect,3,3.35,1,2,0,2,0,1,,,,,,,,,,,,,
6630f8c1f995b01de9767c7d,TCN,2024-06-11_12h20.24.762,LearnStrategy,2023.2.3,MacIntel,60.60606061,4,1,4,0.055112101,-0.00622623,1,0,0,0.7985,rock_grid_rect_2,6,15,-1,-1,0.798,-0.11675354,-0.391993679,1,0,0,4.0869,Pegmatite_rect,6,4.087,1,3,0,3,0,1,,,,,,,,,,,,,
6630f8c1f995b01de9767c7d,TCN,2024-06-11_12h20.24.762,LearnStrategy,2023.2.3,MacIntel,60.60606061,4,1,5,-0.013813409,-0.005589769,1,0,0,0.6299,rock_grid_rect_2,2,10,-1,-1,0.63,-0.11054579,-0.230226237,1,0,0,10.8925,Basalt_rect,2,10.892,1,4,0,4,0,1,,,,,,,,,,,,,
6630f8c1f995b01de9767c7d,TCN,2024-06-11_12h20.24.762,LearnStrategy,2023.2.3,MacIntel,60.60606061,4,1,6,-0.036904297,-0.023253852,1,0,0,0.9458,rock_grid_rect_2,8,05,-1,-1,0.946,0.412901883,-0.38922031,1,0,0,1.604,Pumice_rect,8,1.604,1,5,0,5,0,1,,,,,,,,,,,,,
6630f8c1f995b01de9767c7d,TCN,2024-06-11_12h20.24.762,LearnStrategy,2023.2.3,MacIntel,60.60606061,4,1,7,-0.005620592,-0.01091963,1,0,0,0.7143,rock_grid_rect_2,2,16,-1,-1,0.714,0.456778836,-0.243425496,1,0,0,16.5389,Gabbro_rect,4,16.539,0,6,0,6,0,1,,,,,,,,,,,,,
6630f8c1f995b01de9767c7d,TCN,2024-06-11_12h20.24.762,LearnStrategy,2023.2.3,MacIntel,60.60606061,4,1,8,-0.000991075,0.002671136,1,0,0,0.8539,rock_grid_rect_2,1,11,-1,-1,0.854,-0.360548401,-0.249936117,1,0,0,5.6791,Andesite_rect,1,5.679,1,7,0,7,0,1,,,,,,,,,,,,,
6630f8c1f995b01de9767c7d,TCN,2024-06-11_12h20.24.762,LearnStrategy,2023.2.3,MacIntel,60.60606061,4,1,9,0.048921238,0.009930081,1,0,0,0.7477,rock_grid_rect_2,8,08,-1,-1,0.748,0.4137382,-0.414581638,1,0,0,1.1496,Pumice_rect,8,1.15,1,8,0,8,0,1,,,,,,,,,,,,,
6630f8c1f995b01de9767c7d,TCN,2024-06-11_12h20.24.762,LearnStrategy,2023.2.3,MacIntel,60.60606061,4,1,10,0.022909953,0.009985758,1,0,0,0.6967,rock_grid_rect_2,7,16,-1,-1,0.697,0.148660007,-0.416264377,1,0,0,7.3246,Peridotite_rect,7,7.325,1,9,0,9,0,1,,,,,,,,,,,,,
6630f8c1f995b01de9767c7d,TCN,2024-06-11_12h20.24.762,LearnStrategy,2023.2.3,MacIntel,60.60606061,4,1,11,0.071243557,0.023675401,1,0,0,0.7133,rock_grid_rect_2,1,01,-1,-1,0.713,-0.385548638,-0.260460273,1,0,0,7.9145,Andesite_rect,1,7.915,1,10,0,10,0,1,,,,,,,,,,,,,
6630f8c1f995b01de9767c7d,TCN,2024-06-11_12h20.24.762,LearnStrategy,2023.2.3,MacIntel,60.60606061,4,1,12,-0.007014025,0.00713623,1,0,0,0.8644,rock_grid_rect_2,7,13,-1,-1,0.864,0.118346083,-0.413050062,1,0,0,6.8072,Peridotite_rect,7,6.807,1,11,0,11,0,1,,,,,,,,,,,,,
6630f8c1f995b01de9767c7d,TCN,2024-06-11_12h20.24.762,LearnStrategy,2023.2.3,MacIntel,60.60606061,4,1,13,-0.047310045,-0.007115377,1,0,0,0.6867,rock_grid_rect_2,5,11,-1,-1,0.687,-0.385038927,-0.391145359,1,0,0,1.1391,Obsidian_rect,5,1.139,1,12,0,12,0,1,,,,,,,,,,,,,
6630f8c1f995b01de9767c7d,TCN,2024-06-11_12h20.24.762,LearnStrategy,2023.2.3,MacIntel,60.60606061,4,1,14,-0.014247708,-0.010497199,1,0,0,0.8506,rock_grid_rect_2,5,14,-1,-1,0.851,-0.374604357,-0.395215861,1,0,0,1.2807,Obsidian_rect,5,1.281,1,13,0,13,0,1,,,,,,,,,,,,,
6630f8c1f995b01de9767c7d,TCN,2024-06-11_12h20.24.762,LearnStrategy,2023.2.3,MacIntel,60.60606061,4,1,15,-0.052019314,-0.015049472,1,0,0,1.1684,rock_grid_rect_2,6,13,-1,-1,1.168,-0.111904433,-0.404915568,1,0,0,11.2296,Pegmatite_rect,6,11.23,1,14,0,14,0,1,,,,,,,,,,,,,
6630f8c1f995b01de9767c7d,TCN,2024-06-11_12h20.24.762,LearnStrategy,2023.2.3,MacIntel,60.60606061,4,1,16,0.000869141,-0.013879903,1,0,0,0.8634,rock_grid_rect_2,4,11,-1,-1,0.863,0.394715576,-0.249893663,1,0,0,3.6838,Gabbro_rect,4,3.684,1,15,0,15,0,1,,,,,,,,,,,,,
6630f8c1f995b01de9767c7d,TCN,2024-06-11_12h20.24.762,LearnStrategy,2023.2.3,MacIntel,60.60606061,4,2,1,,,,,,,,4,03,,,,,,,,,,,4,4.527,1,,,,,,0.374076199,-0.245159573,1,0,0,4.5269,Gabbro_rect,0,0,0,0,1,
6630f8c1f995b01de9767c7d,TCN,2024-06-11_12h20.24.762,LearnStrategy,2023.2.3,MacIntel,60.60606061,4,2,2,,,,,,,,6,05,,,,,,,,,,,6,8.421,1,,,,,,-0.146839532,-0.384646335,1,0,0,8.4212,Pegmatite_rect,1,0,1,0,1,
6630f8c1f995b01de9767c7d,TCN,2024-06-11_12h20.24.762,LearnStrategy,2023.2.3,MacIntel,60.60606061,4,2,3,,,,,,,,3,09,,,,,,,,,,,3,21.569,1,,,,,,0.122507595,-0.240266724,1,0,0,21.5688,Diorite_rect,2,0,2,0,1,
6630f8c1f995b01de9767c7d,TCN,2024-06-11_12h20.24.762,LearnStrategy,2023.2.3,MacIntel,60.60606061,4,2,4,,,,,,,,8,04,,,,,,,,,,,8,1.261,1,,,,,,0.358331434,-0.391683078,1,0,0,1.2608,Pumice_rect,3,0,3,0,1,
6630f8c1f995b01de9767c7d,TCN,2024-06-11_12h20.24.762,LearnStrategy,2023.2.3,MacIntel,60.60606061,4,2,5,,,,,,,,7,02,,,,,,,,,,,7,4.291,1,,,,,,0.105470513,-0.401934204,1,0,0,4.2907,Peridotite_rect,4,0,4,0,1,
6630f8c1f995b01de9767c7d,TCN,2024-06-11_12h20.24.762,LearnStrategy,2023.2.3,MacIntel,60.60606061,4,2,6,,,,,,,,3,13,,,,,,,,,,,3,24.817,1,,,,,,0.162959188,-0.233869968,1,0,0,24.8166,Diorite_rect,5,0,5,0,1,
6630f8c1f995b01de9767c7d,TCN,2024-06-11_12h20.24.762,LearnStrategy,2023.2.3,MacIntel,60.60606061,4,2,7,,,,,,,,1,03,,,,,,,,,,,1,8.489,1,,,,,,-0.36458313,-0.259315389,1,0,0,8.4889,Andesite_rect,6,0,6,0,1,
6630f8c1f995b01de9767c7d,TCN,2024-06-11_12h20.24.762,LearnStrategy,2023.2.3,MacIntel,60.60606061,4,2,8,,,,,,,,2,04,,,,,,,,,,,2,2.406,1,,,,,,-0.105465156,-0.245062866,1,0,0,2.4064,Basalt_rect,7,0,7,0,1,
6630f8c1f995b01de9767c7d,TCN,2024-06-11_12h20.24.762,LearnStrategy,2023.2.3,MacIntel,60.60606061,4,2,9,,,,,,,,2,09,,,,,,,,,,,2,1.534,1,,,,,,-0.087605523,-0.250609266,1,0,0,1.5345,Basalt_rect,8,0,8,0,1,
6630f8c1f995b01de9767c7d,TCN,2024-06-11_12h20.24.762,LearnStrategy,2023.2.3,MacIntel,60.60606061,4,2,10,,,,,,,,6,16,,,,,,,,,,,6,4.599,1,,,,,,-0.147620917,-0.411443888,1,0,0,4.5986,Pegmatite_rect,9,0,9,0,1,
6630f8c1f995b01de9767c7d,TCN,2024-06-11_12h20.24.762,LearnStrategy,2023.2.3,MacIntel,60.60606061,4,2,11,,,,,,,,5,08,,,,,,,,,,,5,1.308,1,,,,,,-0.334484524,-0.397249824,1,0,0,1.3082,Obsidian_rect,10,0,10,0,1,
6630f8c1f995b01de9767c7d,TCN,2024-06-11_12h20.24.762,LearnStrategy,2023.2.3,MacIntel,60.60606061,4,2,12,,,,,,,,8,15,,,,,,,,,,,8,3.125,1,,,,,,0.483989393,-0.388075629,1,0,0,3.1248,Pumice_rect,11,0,11,0,1,
6630f8c1f995b01de9767c7d,TCN,2024-06-11_12h20.24.762,LearnStrategy,2023.2.3,MacIntel,60.60606061,4,2,13,,,,,,,,5,06,,,,,,,,,,,5,1.212,1,,,,,,-0.358048977,-0.399331462,1,0,0,1.2121,Obsidian_rect,12,0,12,0,1,
6630f8c1f995b01de9767c7d,TCN,2024-06-11_12h20.24.762,LearnStrategy,2023.2.3,MacIntel,60.60606061,4,2,14,,,,,,,,4,05,,,,,,,,,,,4,4.423,1,,,,,,0.446639269,-0.242648383,1,0,0,4.4227,Gabbro_rect,13,0,13,0,1,
6630f8c1f995b01de9767c7d,TCN,2024-06-11_12h20.24.762,LearnStrategy,2023.2.3,MacIntel,60.60606061,4,2,15,,,,,,,,7,07,,,,,,,,,,,3,3.255,0,,,,,,0.171813829,-0.246004164,1,0,0,3.2548,Diorite_rect,14,0,14,0,1,
6630f8c1f995b01de9767c7d,TCN,2024-06-11_12h20.24.762,LearnStrategy,2023.2.3,MacIntel,60.60606061,4,2,16,,,,,,,,1,04,,,,,,,,,,,3,3.802,0,,,,,,0.093372531,-0.258473579,1,0,0,3.8022,Diorite_rect,15,0,15,0,1,
6630f8c1f995b01de9767c7d,TCN,2024-06-11_12h20.24.762,LearnStrategy,2023.2.3,MacIntel,60.60606061,5,1,1,0.168005439,0.010225423,1,0,0,2.5553,rock_grid_rect_2,7,08,-1,-1,2.555,0.164227973,-0.232862074,1,0,0,2.2217,Diorite_rect,3,2.222,0,0,0,0,0,1,,,,,,,,,,,,,
6630f8c1f995b01de9767c7d,TCN,2024-06-11_12h20.24.762,LearnStrategy,2023.2.3,MacIntel,60.60606061,5,1,2,0.083503147,-0.012972412,1,0,0,0.7197,rock_grid_rect_2,1,10,-1,-1,0.72,0.128859592,-0.24039761,1,0,0,56.7717,Diorite_rect,3,56.772,0,1,0,1,0,1,,,,,,,,,,,,,
6630f8c1f995b01de9767c7d,TCN,2024-06-11_12h20.24.762,LearnStrategy,2023.2.3,MacIntel,60.60606061,5,1,3,-0.075751207,-0.005147095,1,0,0,2.3213,rock_grid_rect_2,7,10,-1,-1,2.321,0.10250685,-0.404368761,1,0,0,7.9903,Peridotite_rect,7,7.99,1,2,0,2,0,1,,,,,,,,,,,,,
6630f8c1f995b01de9767c7d,TCN,2024-06-11_12h20.24.762,LearnStrategy,2023.2.3,MacIntel,60.60606061,5,1,4,-0.046109687,-0.006172045,1,0,0,1.9328,rock_grid_rect_2,3,14,-1,-1,1.933,-0.421941664,-0.238318821,1,0,0,6.9845,Andesite_rect,1,6.985,0,3,0,3,0,1,,,,,,,,,,,,,
6630f8c1f995b01de9767c7d,TCN,2024-06-11_12h20.24.762,LearnStrategy,2023.2.3,MacIntel,60.60606061,5,1,5,0.002401937,-0.011948649,1,0,0,81.9527,rock_grid_rect_2,5,16,-1,-1,81.953,-0.362297872,-0.385085449,1,0,0,1.9712,Obsidian_rect,5,1.971,1,4,0,4,0,1,,,,,,,,,,,,,
6630f8c1f995b01de9767c7d,TCN,2024-06-11_12h20.24.762,LearnStrategy,2023.2.3,MacIntel,60.60606061,5,1,6,0.001073134,-0.015977512,1,0,0,179.8937,rock_grid_rect_2,5,12,-1,-1,179.894,-0.360190294,-0.403714261,1,0,0,2.3086,Obsidian_rect,5,2.309,1,5,0,5,0,1,,,,,,,,,,,,,
6630f8c1f995b01de9767c7d,TCN,2024-06-11_12h20.24.762,LearnStrategy,2023.2.3,MacIntel,60.60606061,5,1,7,0.022789849,0.004537862,1,0,0,1.0638,rock_grid_rect_2,2,05,-1,-1,1.064,0.202398003,-0.248464084,1,0,0,3.2703,Diorite_rect,3,3.27,0,6,0,6,0,1,,,,,,,,,,,,,
6630f8c1f995b01de9767c7d,TCN,2024-06-11_12h20.24.762,LearnStrategy,2023.2.3,MacIntel,60.60606061,5,1,8,-0.025958116,-0.009016893,1,0,0,1.3002,rock_grid_rect_2,3,07,-1,-1,1.3,0.08930169,-0.24241394,1,0,0,3.5608,Diorite_rect,3,3.561,1,7,0,7,0,1,,,,,,,,,,,,,
6630f8c1f995b01de9767c7d,TCN,2024-06-11_12h20.24.762,LearnStrategy,2023.2.3,MacIntel,60.60606061,5,1,9,-0.047602132,-0.003742879,1,0,0,1.3508,rock_grid_rect_2,1,06,-1,-1,1.351,-0.395795966,-0.243865221,1,0,0,1.741,Andesite_rect,1,1.741,1,8,0,8,0,1,,,,,,,,,,,,,
6630f8c1f995b01de9767c7d,TCN,2024-06-11_12h20.24.762,LearnStrategy,2023.2.3,MacIntel,60.60606061,5,1,10,0.003674181,0.000785895,1,0,0,1.2166,rock_grid_rect_2,6,10,-1,-1,1.217,0.143517999,-0.386239895,1,0,0,56.4296,Peridotite_rect,7,56.43,0,9,0,9,0,1,,,,,,,,,,,,,
6630f8c1f995b01de9767c7d,TCN,2024-06-11_12h20.24.762,LearnStrategy,2023.2.3,MacIntel,60.60606061,5,1,11,0.132096625,0.002276713,1,0,0,1.4675,rock_grid_rect_2,8,09,-1,-1,1.467,0.396105821,-0.388361206,1,0,0,1.5413,Pumice_rect,8,1.541,1,10,0,10,0,1,,,,,,,,,,,,,
6630f8c1f995b01de9767c7d,TCN,2024-06-11_12h20.24.762,LearnStrategy,2023.2.3,MacIntel,60.60606061,5,1,12,0.020103692,-0.000584819,1,0,0,1.4006,rock_grid_rect_2,4,10,-1,-1,1.401,-0.113380941,-0.266089884,1,0,0,2.2713,Basalt_rect,2,2.271,0,11,0,11,0,1,,,,,,,,,,,,,
6630f8c1f995b01de9767c7d,TCN,2024-06-11_12h20.24.762,LearnStrategy,2023.2.3,MacIntel,60.60606061,5,1,13,0.044934285,-0.000103048,1,0,0,1.2363,rock_grid_rect_2,4,16,-1,-1,1.236,-0.144471639,-0.24274448,1,0,0,1.4669,Basalt_rect,2,1.467,0,12,0,12,0,1,,,,,,,,,,,,,
6630f8c1f995b01de9767c7d,TCN,2024-06-11_12h20.24.762,LearnStrategy,2023.2.3,MacIntel,60.60606061,5,1,14,0.039694756,-3.35015E-05,1,0,0,1.2003,rock_grid_rect_2,8,10,-1,-1,1.2,0.389713406,-0.401202732,1,0,0,2.0392,Pumice_rect,8,2.039,1,13,0,13,0,1,,,,,,,,,,,,,
6630f8c1f995b01de9767c7d,TCN,2024-06-11_12h20.24.762,LearnStrategy,2023.2.3,MacIntel,60.60606061,5,1,15,0.092508206,-0.001681519,1,0,0,1.1164,rock_grid_rect_2,6,12,-1,-1,1.116,-0.105100776,-0.387619086,1,0,0,8.5901,Pegmatite_rect,6,8.59,1,14,0,14,0,1,,,,,,,,,,,,,
6630f8c1f995b01de9767c7d,TCN,2024-06-11_12h20.24.762,LearnStrategy,2023.2.3,MacIntel,60.60606061,5,1,16,0.102446357,-0.004407077,1,0,0,1.2965,rock_grid_rect_2,2,06,-1,-1,1.296,-0.127259318,-0.249071927,1,0,0,1.627,Basalt_rect,2,1.627,1,15,0,15,0,1,,,,,,,,,,,,,
6630f8c1f995b01de9767c7d,TCN,2024-06-11_12h20.24.762,LearnStrategy,2023.2.3,MacIntel,60.60606061,5,2,1,,,,,,,,8,06,,,,,,,,,,,8,11.936,1,,,,,,0.43343967,-0.405387031,1,0,0,11.9359,Pumice_rect,0,0,0,0,1,
6630f8c1f995b01de9767c7d,TCN,2024-06-11_12h20.24.762,LearnStrategy,2023.2.3,MacIntel,60.60606061,5,2,2,,,,,,,,2,12,,,,,,,,,,,8,66.41,0,,,,,,0.416760254,-0.40967943,1,0,0,66.4103,Pumice_rect,1,0,1,0,1,
6630f8c1f995b01de9767c7d,TCN,2024-06-11_12h20.24.762,LearnStrategy,2023.2.3,MacIntel,60.60606061,5,2,3,,,,,,,,6,11,,,,,,,,,,,6,14.455,1,,,,,,-0.077798191,-0.391769816,1,0,0,14.4554,Pegmatite_rect,2,0,2,0,1,
6630f8c1f995b01de9767c7d,TCN,2024-06-11_12h20.24.762,LearnStrategy,2023.2.3,MacIntel,60.60606061,5,2,4,,,,,,,,3,12,,,,,,,,,,,3,28.046,1,,,,,,0.124067179,-0.247325168,1,0,0,28.0459,Diorite_rect,3,0,3,0,1,
6630f8c1f995b01de9767c7d,TCN,2024-06-11_12h20.24.762,LearnStrategy,2023.2.3,MacIntel,60.60606061,5,2,5,,,,,,,,1,02,,,,,,,,,,,1,6.147,1,,,,,,-0.394067247,-0.228686591,1,0,0,6.1469,Andesite_rect,4,0,4,0,1,
6630f8c1f995b01de9767c7d,TCN,2024-06-11_12h20.24.762,LearnStrategy,2023.2.3,MacIntel,60.60606061,5,2,6,,,,,,,,5,07,,,,,,,,,,,5,1.401,1,,,,,,-0.416033529,-0.402744276,1,0,0,1.4008,Obsidian_rect,5,0,5,0,1,
6630f8c1f995b01de9767c7d,TCN,2024-06-11_12h20.24.762,LearnStrategy,2023.2.3,MacIntel,60.60606061,5,2,7,,,,,,,,8,13,,,,,,,,,,,8,4.31,1,,,,,,0.418230252,-0.40724528,1,0,0,4.3104,Pumice_rect,6,0,6,0,1,
6630f8c1f995b01de9767c7d,TCN,2024-06-11_12h20.24.762,LearnStrategy,2023.2.3,MacIntel,60.60606061,5,2,8,,,,,,,,1,14,,,,,,,,,,,1,128.925,1,,,,,,-0.428608873,-0.232447306,1,0,0,128.9255,Andesite_rect,7,0,7,0,1,
6630f8c1f995b01de9767c7d,TCN,2024-06-11_12h20.24.762,LearnStrategy,2023.2.3,MacIntel,60.60606061,5,2,9,,,,,,,,3,11,,,,,,,,,,,3,5.297,1,,,,,,0.154289686,-0.236581828,1,0,0,5.2975,Diorite_rect,8,0,8,0,1,
6630f8c1f995b01de9767c7d,TCN,2024-06-11_12h20.24.762,LearnStrategy,2023.2.3,MacIntel,60.60606061,5,2,10,,,,,,,,4,09,,,,,,,,,,,2,2.251,0,,,,,,-0.148652547,-0.241068658,1,0,0,2.2514,Basalt_rect,9,0,9,0,1,
6630f8c1f995b01de9767c7d,TCN,2024-06-11_12h20.24.762,LearnStrategy,2023.2.3,MacIntel,60.60606061,5,2,11,,,,,,,,6,08,,,,,,,,,,,5,5.1,0,,,,,,-0.41801924,-0.415923937,1,0,0,5.0997,Obsidian_rect,10,0,10,0,1,
6630f8c1f995b01de9767c7d,TCN,2024-06-11_12h20.24.762,LearnStrategy,2023.2.3,MacIntel,60.60606061,5,2,12,,,,,,,,7,15,,,,,,,,,,,7,11.877,1,,,,,,0.150625543,-0.38786811,1,0,0,11.8765,Peridotite_rect,11,0,11,0,1,
6630f8c1f995b01de9767c7d,TCN,2024-06-11_12h20.24.762,LearnStrategy,2023.2.3,MacIntel,60.60606061,5,2,13,,,,,,,,2,01,,,,,,,,,,,2,20.191,1,,,,,,-0.134582994,-0.229043443,1,0,0,20.1915,Basalt_rect,12,0,12,0,1,
6630f8c1f995b01de9767c7d,TCN,2024-06-11_12h20.24.762,LearnStrategy,2023.2.3,MacIntel,60.60606061,5,2,14,,,,,,,,5,10,,,,,,,,,,,5,1.637,1,,,,,,-0.331158515,-0.407588501,1,0,0,1.6372,Obsidian_rect,13,0,13,0,1,
6630f8c1f995b01de9767c7d,TCN,2024-06-11_12h20.24.762,LearnStrategy,2023.2.3,MacIntel,60.60606061,5,2,15,,,,,,,,4,01,,,,,,,,,,,4,19.76,1,,,,,,0.415816243,-0.243563436,1,0,0,19.7602,Gabbro_rect,14,0,14,0,1,
6630f8c1f995b01de9767c7d,TCN,2024-06-11_12h20.24.762,LearnStrategy,2023.2.3,MacIntel,60.60606061,5,2,16,,,,,,,,7,04,,,,,,,,,,,1,7.801,0,,,,,,-0.329898343,-0.246844482,1,0,0,7.8013,Andesite_rect,15,0,15,0,1,
6630f8c1f995b01de9767c7d,TCN,2024-06-11_12h20.24.762,LearnStrategy,2023.2.3,MacIntel,60.60606061,6,1,1,0.061360609,-0.01491706,1,0,0,11.8643,rock_grid_rect_2,5,04,-1,-1,11.864,-0.375224643,-0.400626221,1,0,0,1.5025,Obsidian_rect,5,1.503,1,0,0,0,0,1,,,,,,,,,,,,,
6630f8c1f995b01de9767c7d,TCN,2024-06-11_12h20.24.762,LearnStrategy,2023.2.3,MacIntel,60.60606061,6,1,2,-0.009481269,-0.011400553,1,0,0,1.4665,rock_grid_rect_2,7,12,-1,-1,1.466,0.086968723,-0.39587972,1,0,0,4.767,Peridotite_rect,7,4.767,1,1,0,1,0,1,,,,,,,,,,,,,
6630f8c1f995b01de9767c7d,TCN,2024-06-11_12h20.24.762,LearnStrategy,2023.2.3,MacIntel,60.60606061,6,1,3,0.017762112,0.012659132,1,0,0,1.2137,rock_grid_rect_2,3,15,-1,-1,1.214,-0.408511658,-0.233946465,1,0,0,10.4812,Andesite_rect,1,10.481,0,2,0,2,0,1,,,,,,,,,,,,,
6630f8c1f995b01de9767c7d,TCN,2024-06-11_12h20.24.762,LearnStrategy,2023.2.3,MacIntel,60.60606061,6,1,4,0.042212796,0.005411716,1,0,0,1.2042,rock_grid_rect_2,7,05,-1,-1,1.204,0.102739122,-0.395207994,1,0,0,5.2309,Peridotite_rect,7,5.231,1,3,0,3,0,1,,,,,,,,,,,,,
6630f8c1f995b01de9767c7d,TCN,2024-06-11_12h20.24.762,LearnStrategy,2023.2.3,MacIntel,60.60606061,6,1,5,0.099896512,0.007264913,1,0,0,1.0145,rock_grid_rect_2,4,14,-1,-1,1.015,0.436966281,-0.257872993,1,0,0,7.7707,Gabbro_rect,4,7.771,1,4,0,4,0,1,,,,,,,,,,,,,
6630f8c1f995b01de9767c7d,TCN,2024-06-11_12h20.24.762,LearnStrategy,2023.2.3,MacIntel,60.60606061,6,1,6,0.084602322,-0.011800266,1,0,0,1.1153,rock_grid_rect_2,2,11,-1,-1,1.115,0.47806193,-0.406093275,1,0,0,12.8525,Pumice_rect,8,12.852,0,5,0,5,0,1,,,,,,,,,,,,,
6630f8c1f995b01de9767c7d,TCN,2024-06-11_12h20.24.762,LearnStrategy,2023.2.3,MacIntel,60.60606061,6,1,7,-0.052942166,-0.002288513,1,0,0,1.2992,rock_grid_rect_2,8,16,-1,-1,1.299,-0.096735162,-0.256757473,1,0,0,3.3144,Basalt_rect,2,3.314,0,6,0,6,0,1,,,,,,,,,,,,,
6630f8c1f995b01de9767c7d,TCN,2024-06-11_12h20.24.762,LearnStrategy,2023.2.3,MacIntel,60.60606061,6,1,8,-0.030738525,0.013275011,1,0,0,1.1496,rock_grid_rect_2,8,14,-1,-1,1.15,0.468089871,-0.386740655,1,0,0,1.3613,Pumice_rect,8,1.361,1,7,0,7,0,1,,,,,,,,,,,,,
6630f8c1f995b01de9767c7d,TCN,2024-06-11_12h20.24.762,LearnStrategy,2023.2.3,MacIntel,60.60606061,6,1,9,-0.036336195,0.001224806,1,0,0,1.2485,rock_grid_rect_2,4,12,-1,-1,1.248,0.412236871,-0.244387004,1,0,0,15.6112,Gabbro_rect,4,15.611,1,8,0,8,0,1,,,,,,,,,,,,,
6630f8c1f995b01de9767c7d,TCN,2024-06-11_12h20.24.762,LearnStrategy,2023.2.3,MacIntel,60.60606061,6,1,10,0.077071194,0.01095225,1,0,0,1.1143,rock_grid_rect_2,2,02,-1,-1,1.114,-0.107102051,-0.246514825,1,0,0,6.636,Basalt_rect,2,6.636,1,9,0,9,0,1,,,,,,,,,,,,,
6630f8c1f995b01de9767c7d,TCN,2024-06-11_12h20.24.762,LearnStrategy,2023.2.3,MacIntel,60.60606061,6,1,11,0.03401123,0.00350942,1,0,0,1.2138,rock_grid_rect_2,1,05,-1,-1,1.214,-0.423362495,-0.252149997,1,0,0,9.0988,Andesite_rect,1,9.099,1,10,0,10,0,1,,,,,,,,,,,,,
6630f8c1f995b01de9767c7d,TCN,2024-06-11_12h20.24.762,LearnStrategy,2023.2.3,MacIntel,60.60606061,6,1,12,-0.022111816,-0.02457628,1,0,0,1.1647,rock_grid_rect_2,6,06,-1,-1,1.165,-0.093210042,-0.412856784,1,0,0,2.172,Pegmatite_rect,6,2.172,1,11,0,11,0,1,,,,,,,,,,,,,
6630f8c1f995b01de9767c7d,TCN,2024-06-11_12h20.24.762,LearnStrategy,2023.2.3,MacIntel,60.60606061,6,1,13,0.002313707,0.001260037,1,0,0,1.1831,rock_grid_rect_2,6,03,-1,-1,1.183,-0.115254788,-0.393792386,1,0,0,2.9919,Pegmatite_rect,6,2.992,1,12,0,12,0,1,,,,,,,,,,,,,
6630f8c1f995b01de9767c7d,TCN,2024-06-11_12h20.24.762,LearnStrategy,2023.2.3,MacIntel,60.60606061,6,1,14,-0.04538893,-0.014765659,1,0,0,1.2169,rock_grid_rect_2,1,09,-1,-1,1.217,-0.404592862,-0.23772678,1,0,0,10.1343,Andesite_rect,1,10.134,1,13,0,13,0,1,,,,,,,,,,,,,
6630f8c1f995b01de9767c7d,TCN,2024-06-11_12h20.24.762,LearnStrategy,2023.2.3,MacIntel,60.60606061,6,1,15,0.013119846,-0.012010023,1,0,0,1.1162,rock_grid_rect_2,5,09,-1,-1,1.116,-0.414730632,-0.411965671,1,0,0,1.8575,Obsidian_rect,5,1.858,1,14,0,14,0,1,,,,,,,,,,,,,
6630f8c1f995b01de9767c7d,TCN,2024-06-11_12h20.24.762,LearnStrategy,2023.2.3,MacIntel,60.60606061,6,1,16,-0.007114936,-0.010536533,1,0,0,1.0833,rock_grid_rect_2,3,16,-1,-1,1.083,0.164692383,-0.256077067,1,0,0,5.2209,Diorite_rect,3,5.221,1,15,0,15,0,1,,,,,,,,,,,,,
6630f8c1f995b01de9767c7d,TCN,2024-06-11_12h20.24.762,LearnStrategy,2023.2.3,MacIntel,60.60606061,6,2,1,,,,,,,,5,05,,,,,,,,,,,5,1.384,1,,,,,,-0.390431586,-0.400295275,1,0,0,1.3842,Obsidian_rect,0,0,0,0,1,
6630f8c1f995b01de9767c7d,TCN,2024-06-11_12h20.24.762,LearnStrategy,2023.2.3,MacIntel,60.60606061,6,2,2,,,,,,,,3,06,,,,,,,,,,,4,30.899,0,,,,,,0.403485514,-0.24357761,1,0,0,30.8993,Gabbro_rect,1,0,1,0,1,
6630f8c1f995b01de9767c7d,TCN,2024-06-11_12h20.24.762,LearnStrategy,2023.2.3,MacIntel,60.60606061,6,2,3,,,,,,,,1,16,,,,,,,,,,,4,4.775,0,,,,,,0.376203749,-0.232208727,1,0,0,4.7748,Gabbro_rect,2,0,2,0,1,
6630f8c1f995b01de9767c7d,TCN,2024-06-11_12h20.24.762,LearnStrategy,2023.2.3,MacIntel,60.60606061,6,2,4,,,,,,,,7,14,,,,,,,,,,,7,6.301,1,,,,,,0.127024604,-0.402994317,1,0,0,6.3006,Peridotite_rect,3,0,3,0,1,
6630f8c1f995b01de9767c7d,TCN,2024-06-11_12h20.24.762,LearnStrategy,2023.2.3,MacIntel,60.60606061,6,2,5,,,,,,,,7,06,,,,,,,,,,,7,5.21,1,,,,,,0.088556383,-0.404582248,1,0,0,5.2096,Peridotite_rect,4,0,4,0,1,
6630f8c1f995b01de9767c7d,TCN,2024-06-11_12h20.24.762,LearnStrategy,2023.2.3,MacIntel,60.60606061,6,2,6,,,,,,,,8,02,,,,,,,,,,,8,2.021,1,,,,,,0.425318468,-0.410418091,1,0,0,2.0212,Pumice_rect,5,0,5,0,1,
6630f8c1f995b01de9767c7d,TCN,2024-06-11_12h20.24.762,LearnStrategy,2023.2.3,MacIntel,60.60606061,6,2,7,,,,,,,,1,07,,,,,,,,,,,1,4.925,1,,,,,,-0.393087633,-0.247213949,1,0,0,4.9254,Andesite_rect,6,0,6,0,1,
6630f8c1f995b01de9767c7d,TCN,2024-06-11_12h20.24.762,LearnStrategy,2023.2.3,MacIntel,60.60606061,6,2,8,,,,,,,,4,13,,,,,,,,,,,4,20.84,1,,,,,,0.408163927,-0.241550022,1,0,0,20.8399,Gabbro_rect,7,0,7,0,1,
6630f8c1f995b01de9767c7d,TCN,2024-06-11_12h20.24.762,LearnStrategy,2023.2.3,MacIntel,60.60606061,6,2,9,,,,,,,,2,08,,,,,,,,,,,2,1.416,1,,,,,,-0.133032701,-0.242220527,1,0,0,1.4159,Basalt_rect,8,0,8,0,1,
6630f8c1f995b01de9767c7d,TCN,2024-06-11_12h20.24.762,LearnStrategy,2023.2.3,MacIntel,60.60606061,6,2,10,,,,,,,,2,14,,,,,,,,,,,2,2.972,1,,,,,,-0.105845879,-0.261909587,1,0,0,2.9716,Basalt_rect,9,0,9,0,1,
6630f8c1f995b01de9767c7d,TCN,2024-06-11_12h20.24.762,LearnStrategy,2023.2.3,MacIntel,60.60606061,6,2,11,,,,,,,,6,07,,,,,,,,,,,6,8.085,1,,,,,,-0.140756158,-0.407659776,1,0,0,8.0852,Pegmatite_rect,10,0,10,0,1,
6630f8c1f995b01de9767c7d,TCN,2024-06-11_12h20.24.762,LearnStrategy,2023.2.3,MacIntel,60.60606061,6,2,12,,,,,,,,5,02,,,,,,,,,,,5,1.604,1,,,,,,-0.421575555,-0.411274143,1,0,0,1.6035,Obsidian_rect,11,0,11,0,1,
6630f8c1f995b01de9767c7d,TCN,2024-06-11_12h20.24.762,LearnStrategy,2023.2.3,MacIntel,60.60606061,6,2,13,,,,,,,,4,15,,,,,,,,,,,4,13.414,1,,,,,,0.40878418,-0.239650811,1,0,0,13.4145,Gabbro_rect,12,0,12,0,1,
6630f8c1f995b01de9767c7d,TCN,2024-06-11_12h20.24.762,LearnStrategy,2023.2.3,MacIntel,60.60606061,6,2,14,,,,,,,,8,03,,,,,,,,,,,8,1.598,1,,,,,,0.360724148,-0.39911872,1,0,0,1.5978,Pumice_rect,13,0,13,0,1,
6630f8c1f995b01de9767c7d,TCN,2024-06-11_12h20.24.762,LearnStrategy,2023.2.3,MacIntel,60.60606061,6,2,15,,,,,,,,3,02,,,,,,,,,,,3,5.644,1,,,,,,0.083854845,-0.25239129,1,0,0,5.6438,Diorite_rect,14,0,14,0,1,
6630f8c1f995b01de9767c7d,TCN,2024-06-11_12h20.24.762,LearnStrategy,2023.2.3,MacIntel,60.60606061,6,2,16,,,,,,,,6,09,,,,,,,,,,,6,4.116,1,,,,,,-0.106509196,-0.387252604,1,0,0,4.1161,Pegmatite_rect,15,0,15,0,1,
6630f8c1f995b01de9767c7d,TCN,2024-06-11_12h20.24.762,LearnStrategy,2023.2.3,MacIntel,60.60606061,7,1,1,0.046899278,-0.015153876,1,0,0,1.7356,rock_grid_rect_2,6,12,-1,-1,1.736,-0.078986884,-0.402896661,1,0,0,32.4776,Pegmatite_rect,6,32.478,1,0,0,0,0,1,,,,,,,,,,,,,
6630f8c1f995b01de9767c7d,TCN,2024-06-11_12h20.24.762,LearnStrategy,2023.2.3,MacIntel,60.60606061,7,1,2,-0.000791897,-0.013201463,1,0,0,3.5042,rock_grid_rect_2,1,05,-1,-1,3.504,-0.430984768,-0.23953932,1,0,0,8.0243,Andesite_rect,1,8.024,1,1,0,1,0,1,,,,,,,,,,,,,
6630f8c1f995b01de9767c7d,TCN,2024-06-11_12h20.24.762,LearnStrategy,2023.2.3,MacIntel,60.60606061,7,1,3,0.034841376,0.004005296,1,0,0,1.2483,rock_grid_rect_2,1,01,-1,-1,1.248,-0.444985318,-0.241308051,1,0,0,38.8008,Andesite_rect,1,38.801,1,2,0,2,0,1,,,,,,,,,,,,,
6630f8c1f995b01de9767c7d,TCN,2024-06-11_12h20.24.762,LearnStrategy,2023.2.3,MacIntel,60.60606061,7,1,4,0.032874959,-0.015890062,1,0,0,1.8518,rock_grid_rect_2,5,09,-1,-1,1.852,-0.372976006,-0.420648532,1,0,0,1.7588,Obsidian_rect,5,1.759,1,3,0,3,0,1,,,,,,,,,,,,,
6630f8c1f995b01de9767c7d,TCN,2024-06-11_12h20.24.762,LearnStrategy,2023.2.3,MacIntel,60.60606061,7,1,5,0.085021905,-0.009279344,1,0,0,1.299,rock_grid_rect_2,4,12,-1,-1,1.299,0.34009847,-0.230178562,1,0,0,4.9893,Gabbro_rect,4,4.989,1,4,0,4,0,1,,,,,,,,,,,,,
6630f8c1f995b01de9767c7d,TCN,2024-06-11_12h20.24.762,LearnStrategy,2023.2.3,MacIntel,60.60606061,7,1,6,0.021491767,-0.008900316,1,0,0,1.1327,rock_grid_rect_2,3,14,-1,-1,1.133,0.129023505,-0.242988688,1,0,0,2.3094,Diorite_rect,3,2.309,1,5,0,5,0,1,,,,,,,,,,,,,
6630f8c1f995b01de9767c7d,TCN,2024-06-11_12h20.24.762,LearnStrategy,2023.2.3,MacIntel,60.60606061,7,1,7,-0.026804742,0.000576375,1,0,0,1.084,rock_grid_rect_2,4,11,-1,-1,1.084,0.460040283,-0.245042996,1,0,0,4.105,Gabbro_rect,4,4.105,1,6,0,6,0,1,,,,,,,,,,,,,
6630f8c1f995b01de9767c7d,TCN,2024-06-11_12h20.24.762,LearnStrategy,2023.2.3,MacIntel,60.60606061,7,1,8,-0.034594659,0.000621474,1,0,0,1.1658,rock_grid_rect_2,5,12,-1,-1,1.166,-0.417769063,-0.404369168,1,0,0,1.8427,Obsidian_rect,5,1.843,1,7,0,7,0,1,,,,,,,,,,,,,
6630f8c1f995b01de9767c7d,TCN,2024-06-11_12h20.24.762,LearnStrategy,2023.2.3,MacIntel,60.60606061,7,1,9,0.061070353,0.003951484,1,0,0,1.2016,rock_grid_rect_2,2,16,-1,-1,1.202,-0.130826213,-0.265517714,1,0,0,1.4294,Basalt_rect,2,1.429,1,8,0,8,0,1,,,,,,,,,,,,,
6630f8c1f995b01de9767c7d,TCN,2024-06-11_12h20.24.762,LearnStrategy,2023.2.3,MacIntel,60.60606061,7,1,10,-0.000230442,-0.022669508,1,0,0,1.1315,rock_grid_rect_2,3,10,-1,-1,1.131,-0.375276557,-0.239162326,1,0,0,2.2629,Andesite_rect,1,2.263,0,9,0,9,0,1,,,,,,,,,,,,,
6630f8c1f995b01de9767c7d,TCN,2024-06-11_12h20.24.762,LearnStrategy,2023.2.3,MacIntel,60.60606061,7,1,11,-0.039902547,-0.00896186,1,0,0,24.9974,rock_grid_rect_2,8,08,-1,-1,24.997,0.419461263,-0.399814996,1,0,0,1.7171,Pumice_rect,8,1.717,1,10,0,10,0,1,,,,,,,,,,,,,
6630f8c1f995b01de9767c7d,TCN,2024-06-11_12h20.24.762,LearnStrategy,2023.2.3,MacIntel,60.60606061,7,1,12,-0.067409193,-0.012397698,1,0,0,1.218,rock_grid_rect_2,7,16,-1,-1,1.218,0.157216187,-0.383821818,1,0,0,9.6435,Peridotite_rect,7,9.643,1,11,0,11,0,1,,,,,,,,,,,,,
6630f8c1f995b01de9767c7d,TCN,2024-06-11_12h20.24.762,LearnStrategy,2023.2.3,MacIntel,60.60606061,7,1,13,-0.013314073,0.000164117,1,0,0,1.5496,rock_grid_rect_2,2,06,-1,-1,1.55,-0.115460612,-0.238862915,1,0,0,3.1455,Basalt_rect,2,3.146,1,12,0,12,0,1,,,,,,,,,,,,,
6630f8c1f995b01de9767c7d,TCN,2024-06-11_12h20.24.762,LearnStrategy,2023.2.3,MacIntel,60.60606061,7,1,14,-0.109640299,-0.015995687,1,0,0,1.6169,rock_grid_rect_2,8,16,-1,-1,1.617,0.413644884,-0.378427056,1,0,0,3.29,Pumice_rect,8,3.29,1,13,0,13,0,1,,,,,,,,,,,,,
6630f8c1f995b01de9767c7d,TCN,2024-06-11_12h20.24.762,LearnStrategy,2023.2.3,MacIntel,60.60606061,7,1,15,0.034644979,-0.00853753,1,0,0,1.4508,rock_grid_rect_2,7,08,-1,-1,1.451,0.10480896,-0.40410258,1,0,0,4.4725,Peridotite_rect,7,4.472,1,14,0,14,0,1,,,,,,,,,,,,,
6630f8c1f995b01de9767c7d,TCN,2024-06-11_12h20.24.762,LearnStrategy,2023.2.3,MacIntel,60.60606061,7,1,16,-0.094406603,-0.001470778,1,0,0,1.4149,rock_grid_rect_2,6,10,-1,-1,1.415,-0.109341159,-0.419821438,1,0,0,6.609,Pegmatite_rect,6,6.609,1,15,0,15,0,1,,,,,,,,,,,,,
6630f8c1f995b01de9767c7d,TCN,2024-06-11_12h20.24.762,LearnStrategy,2023.2.3,MacIntel,60.60606061,7,2,1,,,,,,,,8,02,,,,,,,,,,,8,2.281,1,,,,,,0.378980577,-0.387169596,1,0,0,2.2806,Pumice_rect,0,0,0,0,1,
6630f8c1f995b01de9767c7d,TCN,2024-06-11_12h20.24.762,LearnStrategy,2023.2.3,MacIntel,60.60606061,7,2,2,,,,,,,,4,01,,,,,,,,,,,4,8.043,1,,,,,,0.448661296,-0.235911187,1,0,0,8.0434,Gabbro_rect,1,0,1,0,1,
6630f8c1f995b01de9767c7d,TCN,2024-06-11_12h20.24.762,LearnStrategy,2023.2.3,MacIntel,60.60606061,7,2,3,,,,,,,,5,06,,,,,,,,,,,5,1.536,1,,,,,,-0.398202243,-0.388861016,1,0,0,1.5356,Obsidian_rect,2,0,2,0,1,
6630f8c1f995b01de9767c7d,TCN,2024-06-11_12h20.24.762,LearnStrategy,2023.2.3,MacIntel,60.60606061,7,2,4,,,,,,,,5,05,,,,,,,,,,,5,1.659,1,,,,,,-0.41878496,-0.397375149,1,0,0,1.6594,Obsidian_rect,3,0,3,0,1,
6630f8c1f995b01de9767c7d,TCN,2024-06-11_12h20.24.762,LearnStrategy,2023.2.3,MacIntel,60.60606061,7,2,5,,,,,,,,2,04,,,,,,,,,,,2,2.236,1,,,,,,-0.12715549,-0.238660617,1,0,0,2.2363,Basalt_rect,4,0,4,0,1,
6630f8c1f995b01de9767c7d,TCN,2024-06-11_12h20.24.762,LearnStrategy,2023.2.3,MacIntel,60.60606061,7,2,6,,,,,,,,6,08,,,,,,,,,,,6,2.967,1,,,,,,-0.089541558,-0.413033312,1,0,0,2.9674,Pegmatite_rect,5,0,5,0,1,
6630f8c1f995b01de9767c7d,TCN,2024-06-11_12h20.24.762,LearnStrategy,2023.2.3,MacIntel,60.60606061,7,2,7,,,,,,,,7,14,,,,,,,,,,,6,9.953,0,,,,,,-0.137830132,-0.408713718,1,0,0,9.9531,Pegmatite_rect,6,0,6,0,1,
6630f8c1f995b01de9767c7d,TCN,2024-06-11_12h20.24.762,LearnStrategy,2023.2.3,MacIntel,60.60606061,7,2,8,,,,,,,,8,03,,,,,,,,,,,8,4.247,1,,,,,,0.439896783,-0.413633898,1,0,0,4.2471,Pumice_rect,7,0,7,0,1,
6630f8c1f995b01de9767c7d,TCN,2024-06-11_12h20.24.762,LearnStrategy,2023.2.3,MacIntel,60.60606061,7,2,9,,,,,,,,3,11,,,,,,,,,,,7,5.314,0,,,,,,0.130636325,-0.408387248,1,0,0,5.3139,Peridotite_rect,8,0,8,0,1,
6630f8c1f995b01de9767c7d,TCN,2024-06-11_12h20.24.762,LearnStrategy,2023.2.3,MacIntel,60.60606061,7,2,10,,,,,,,,7,04,,,,,,,,,,,3,12.321,0,,,,,,0.186845567,-0.251675754,1,0,0,12.3211,Diorite_rect,9,0,9,0,1,
6630f8c1f995b01de9767c7d,TCN,2024-06-11_12h20.24.762,LearnStrategy,2023.2.3,MacIntel,60.60606061,7,2,11,,,,,,,,4,09,,,,,,,,,,,2,3.763,0,,,,,,-0.145652805,-0.239395955,1,0,0,3.7628,Basalt_rect,10,0,10,0,1,
6630f8c1f995b01de9767c7d,TCN,2024-06-11_12h20.24.762,LearnStrategy,2023.2.3,MacIntel,60.60606061,7,2,12,,,,,,,,1,02,,,,,,,,,,,1,21.124,1,,,,,,-0.405031908,-0.250793525,1,0,0,21.1245,Andesite_rect,11,0,11,0,1,
6630f8c1f995b01de9767c7d,TCN,2024-06-11_12h20.24.762,LearnStrategy,2023.2.3,MacIntel,60.60606061,7,2,13,,,,,,,,2,14,,,,,,,,,,,2,5.363,1,,,,,,-0.13557407,-0.259761013,1,0,0,5.3631,Basalt_rect,12,0,12,0,1,
6630f8c1f995b01de9767c7d,TCN,2024-06-11_12h20.24.762,LearnStrategy,2023.2.3,MacIntel,60.60606061,7,2,14,,,,,,,,3,09,,,,,,,,,,,3,4.45,1,,,,,,0.157832506,-0.236716105,1,0,0,4.4504,Diorite_rect,13,0,13,0,1,
6630f8c1f995b01de9767c7d,TCN,2024-06-11_12h20.24.762,LearnStrategy,2023.2.3,MacIntel,60.60606061,7,2,15,,,,,,,,1,16,,,,,,,,,,,4,3.708,0,,,,,,0.403419461,-0.233998142,1,0,0,3.7081,Gabbro_rect,14,0,14,0,1,
6630f8c1f995b01de9767c7d,TCN,2024-06-11_12h20.24.762,LearnStrategy,2023.2.3,MacIntel,60.60606061,7,2,16,,,,,,,,6,09,,,,,,,,,,,6,1.909,1,,,,,,-0.10430603,-0.394108819,1,0,0,1.9087,Pegmatite_rect,15,0,15,0,1,
6630f8c1f995b01de9767c7d,TCN,2024-06-11_12h20.24.762,LearnStrategy,2023.2.3,MacIntel,60.60606061,8,1,1,-0.003640747,-0.002476705,1,0,0,20.2178,rock_grid_rect_2,3,15,-1,-1,20.218,0.159933607,-0.241118639,1,0,0,10.6506,Diorite_rect,3,10.651,1,0,0,0,0,1,,,,,,,,,,,,,
6630f8c1f995b01de9767c7d,TCN,2024-06-11_12h20.24.762,LearnStrategy,2023.2.3,MacIntel,60.60606061,8,1,2,0.042579278,0.012604675,1,0,0,1.1667,rock_grid_rect_2,2,05,-1,-1,1.167,-0.096008708,-0.250769992,1,0,0,1.555,Basalt_rect,2,1.555,1,1,0,1,0,1,,,,,,,,,,,,,
6630f8c1f995b01de9767c7d,TCN,2024-06-11_12h20.24.762,LearnStrategy,2023.2.3,MacIntel,60.60606061,8,1,3,0.039822523,0.00276808,1,0,0,1.3506,rock_grid_rect_2,1,11,-1,-1,1.351,-0.403916694,-0.239557156,1,0,0,12.8541,Andesite_rect,1,12.854,1,2,0,2,0,1,,,,,,,,,,,,,
6630f8c1f995b01de9767c7d,TCN,2024-06-11_12h20.24.762,LearnStrategy,2023.2.3,MacIntel,60.60606061,8,1,4,0.001090156,-0.013665466,1,0,0,2.4354,rock_grid_rect_2,5,16,-1,-1,2.435,-0.326266615,-0.411540053,1,0,0,1.4227,Obsidian_rect,5,1.423,1,3,0,3,0,1,,,,,,,,,,,,,
6630f8c1f995b01de9767c7d,TCN,2024-06-11_12h20.24.762,LearnStrategy,2023.2.3,MacIntel,60.60606061,8,1,5,0.028901435,0.011451586,1,0,0,0.9496,rock_grid_rect_2,8,09,-1,-1,0.95,0.397160509,-0.384744398,1,0,0,1.3035,Pumice_rect,8,1.303,1,4,0,4,0,1,,,,,,,,,,,,,
6630f8c1f995b01de9767c7d,TCN,2024-06-11_12h20.24.762,LearnStrategy,2023.2.3,MacIntel,60.60606061,8,1,6,0.140433485,0.010808682,1,0,0,0.8846,rock_grid_rect_2,4,16,-1,-1,0.885,-0.114338243,-0.265500149,1,0,0,4.4123,Basalt_rect,2,4.412,0,5,0,5,0,1,,,,,,,,,,,,,
6630f8c1f995b01de9767c7d,TCN,2024-06-11_12h20.24.762,LearnStrategy,2023.2.3,MacIntel,60.60606061,8,1,7,0.030336846,-0.014750875,1,0,0,1.2189,rock_grid_rect_2,1,06,-1,-1,1.219,-0.398280504,-0.248906996,1,0,0,4.368,Andesite_rect,1,4.368,1,6,0,6,0,1,,,,,,,,,,,,,
6630f8c1f995b01de9767c7d,TCN,2024-06-11_12h20.24.762,LearnStrategy,2023.2.3,MacIntel,60.60606061,8,1,8,0.014499783,-0.014651862,1,0,0,1.1481,rock_grid_rect_2,6,06,-1,-1,1.148,-0.146261529,-0.39155565,1,0,0,1.6695,Pegmatite_rect,6,1.669,1,7,0,7,0,1,,,,,,,,,,,,,
6630f8c1f995b01de9767c7d,TCN,2024-06-11_12h20.24.762,LearnStrategy,2023.2.3,MacIntel,60.60606061,8,1,9,0.056688639,-0.00525394,1,0,0,1.0508,rock_grid_rect_2,5,11,-1,-1,1.051,-0.419183824,-0.38721951,1,0,0,1.7242,Obsidian_rect,5,1.724,1,8,0,8,0,1,,,,,,,,,,,,,
6630f8c1f995b01de9767c7d,TCN,2024-06-11_12h20.24.762,LearnStrategy,2023.2.3,MacIntel,60.60606061,8,1,10,0.048525526,-0.013406033,1,0,0,0.9986,rock_grid_rect_2,3,16,-1,-1,0.999,0.108437093,-0.240218981,1,0,0,1.8857,Diorite_rect,3,1.886,1,9,0,9,0,1,,,,,,,,,,,,,
6630f8c1f995b01de9767c7d,TCN,2024-06-11_12h20.24.762,LearnStrategy,2023.2.3,MacIntel,60.60606061,8,1,11,0.059595812,-0.000903931,1,0,0,1.2001,rock_grid_rect_2,7,05,-1,-1,1.2,0.129217597,-0.405634901,1,0,0,2.9657,Peridotite_rect,7,2.966,1,10,0,10,0,1,,,,,,,,,,,,,
6630f8c1f995b01de9767c7d,TCN,2024-06-11_12h20.24.762,LearnStrategy,2023.2.3,MacIntel,60.60606061,8,1,12,-0.006584201,-0.005852458,1,0,0,1.8003,rock_grid_rect_2,2,10,-1,-1,1.8,-0.11612047,-0.228834975,1,0,0,3.6501,Basalt_rect,2,3.65,1,11,0,11,0,1,,,,,,,,,,,,,
6630f8c1f995b01de9767c7d,TCN,2024-06-11_12h20.24.762,LearnStrategy,2023.2.3,MacIntel,60.60606061,8,1,13,-0.015763618,-0.006655172,1,0,0,1.0491,rock_grid_rect_2,8,05,-1,-1,1.049,0.438264974,-0.382332289,1,0,0,1.8241,Pumice_rect,8,1.824,1,12,0,12,0,1,,,,,,,,,,,,,
6630f8c1f995b01de9767c7d,TCN,2024-06-11_12h20.24.762,LearnStrategy,2023.2.3,MacIntel,60.60606061,8,1,14,0.056627062,-0.007397563,1,0,0,1.1506,rock_grid_rect_2,4,10,-1,-1,1.151,0.436272244,-0.239200439,1,0,0,3.0953,Gabbro_rect,4,3.095,1,13,0,13,0,1,,,,,,,,,,,,,
6630f8c1f995b01de9767c7d,TCN,2024-06-11_12h20.24.762,LearnStrategy,2023.2.3,MacIntel,60.60606061,8,1,15,-0.017196655,-0.00529168,1,0,0,1.3001,rock_grid_rect_2,7,13,-1,-1,1.3,0.12982666,-0.402999403,1,0,0,2.0248,Peridotite_rect,7,2.025,1,14,0,14,0,1,,,,,,,,,,,,,
6630f8c1f995b01de9767c7d,TCN,2024-06-11_12h20.24.762,LearnStrategy,2023.2.3,MacIntel,60.60606061,8,1,16,0.026315511,-0.012212118,1,0,0,1.3172,rock_grid_rect_2,6,13,-1,-1,1.317,-0.185913154,-0.393942125,1,0,0,1.7443,Pegmatite_rect,6,1.744,1,15,0,15,0,1,,,,,,,,,,,,,
6630f8c1f995b01de9767c7d,TCN,2024-06-11_12h20.24.762,LearnStrategy,2023.2.3,MacIntel,60.60606061,8,2,1,,,,,,,,5,02,,,,,,,,,,,5,1.132,1,,,,,,-0.381406318,-0.395300429,1,0,0,1.1325,Obsidian_rect,0,0,0,0,1,
6630f8c1f995b01de9767c7d,TCN,2024-06-11_12h20.24.762,LearnStrategy,2023.2.3,MacIntel,60.60606061,8,2,2,,,,,,,,1,03,,,,,,,,,,,1,1.656,1,,,,,,-0.402655809,-0.248064507,1,0,0,1.6561,Andesite_rect,1,0,1,0,1,
6630f8c1f995b01de9767c7d,TCN,2024-06-11_12h20.24.762,LearnStrategy,2023.2.3,MacIntel,60.60606061,8,2,3,,,,,,,,1,07,,,,,,,,,,,1,1.502,1,,,,,,-0.420884366,-0.234890272,1,0,0,1.5017,Andesite_rect,2,0,2,0,1,
6630f8c1f995b01de9767c7d,TCN,2024-06-11_12h20.24.762,LearnStrategy,2023.2.3,MacIntel,60.60606061,8,2,4,,,,,,,,4,15,,,,,,,,,,,4,3.04,1,,,,,,0.41625746,-0.241779039,1,0,0,3.0402,Gabbro_rect,3,0,3,0,1,
6630f8c1f995b01de9767c7d,TCN,2024-06-11_12h20.24.762,LearnStrategy,2023.2.3,MacIntel,60.60606061,8,2,5,,,,,,,,3,02,,,,,,,,,,,3,13.032,1,,,,,,0.142872518,-0.257917955,1,0,0,13.0321,Diorite_rect,4,0,4,0,1,
6630f8c1f995b01de9767c7d,TCN,2024-06-11_12h20.24.762,LearnStrategy,2023.2.3,MacIntel,60.60606061,8,2,6,,,,,,,,8,06,,,,,,,,,,,8,1.585,1,,,,,,0.37693712,-0.409302911,1,0,0,1.5848,Pumice_rect,5,0,5,0,1,
6630f8c1f995b01de9767c7d,TCN,2024-06-11_12h20.24.762,LearnStrategy,2023.2.3,MacIntel,60.60606061,8,2,7,,,,,,,,2,09,,,,,,,,,,,2,3.13,1,,,,,,-0.116690199,-0.23855245,1,0,0,3.1295,Basalt_rect,6,0,6,0,1,
6630f8c1f995b01de9767c7d,TCN,2024-06-11_12h20.24.762,LearnStrategy,2023.2.3,MacIntel,60.60606061,8,2,8,,,,,,,,2,01,,,,,,,,,,,2,2.26,1,,,,,,-0.104685465,-0.245902574,1,0,0,2.2605,Basalt_rect,7,0,7,0,1,
6630f8c1f995b01de9767c7d,TCN,2024-06-11_12h20.24.762,LearnStrategy,2023.2.3,MacIntel,60.60606061,8,2,9,,,,,,,,6,07,,,,,,,,,,,6,1.57,1,,,,,,-0.135682983,-0.391254951,1,0,0,1.5704,Pegmatite_rect,8,0,8,0,1,
6630f8c1f995b01de9767c7d,TCN,2024-06-11_12h20.24.762,LearnStrategy,2023.2.3,MacIntel,60.60606061,8,2,10,,,,,,,,7,06,,,,,,,,,,,6,3.622,0,,,,,,-0.130518188,-0.390685289,1,0,0,3.6221,Pegmatite_rect,9,0,9,0,1,
6630f8c1f995b01de9767c7d,TCN,2024-06-11_12h20.24.762,LearnStrategy,2023.2.3,MacIntel,60.60606061,8,2,11,,,,,,,,3,06,,,,,,,,,,,4,5.488,0,,,,,,0.383333198,-0.250367296,1,0,0,5.4879,Gabbro_rect,10,0,10,0,1,
6630f8c1f995b01de9767c7d,TCN,2024-06-11_12h20.24.762,LearnStrategy,2023.2.3,MacIntel,60.60606061,8,2,12,,,,,,,,4,03,,,,,,,,,,,4,3.551,1,,,,,,0.408440891,-0.249852024,1,0,0,3.5512,Gabbro_rect,11,0,11,0,1,
6630f8c1f995b01de9767c7d,TCN,2024-06-11_12h20.24.762,LearnStrategy,2023.2.3,MacIntel,60.60606061,8,2,13,,,,,,,,5,10,,,,,,,,,,,5,1.215,1,,,,,,-0.398093465,-0.39599311,1,0,0,1.2151,Obsidian_rect,12,0,12,0,1,
6630f8c1f995b01de9767c7d,TCN,2024-06-11_12h20.24.762,LearnStrategy,2023.2.3,MacIntel,60.60606061,8,2,14,,,,,,,,8,15,,,,,,,,,,,8,2.356,1,,,,,,0.411333415,-0.412809245,1,0,0,2.3564,Pumice_rect,13,0,13,0,1,
6630f8c1f995b01de9767c7d,TCN,2024-06-11_12h20.24.762,LearnStrategy,2023.2.3,MacIntel,60.60606061,8,2,15,,,,,,,,6,11,,,,,,,,,,,6,5.557,1,,,,,,-0.114992269,-0.40873013,1,0,0,5.5568,Pegmatite_rect,14,0,14,0,1,
6630f8c1f995b01de9767c7d,TCN,2024-06-11_12h20.24.762,LearnStrategy,2023.2.3,MacIntel,60.60606061,8,2,16,,,,,,,,7,15,,,,,,,,,,,7,1.319,1,,,,,,0.159849514,-0.395342136,1,0,0,1.3194,Peridotite_rect,15,0,15,0,1,
6630f8c1f995b01de9767c7d,TCN,2024-06-11_12h20.24.762,LearnStrategy,2023.2.3,MacIntel,60.60606061,9,1,1,-0.008391656,0.001638455,1,0,0,17.3459,rock_grid_rect_2,7,12,-1,-1,17.346,-0.140543891,-0.410794813,1,0,0,3.4606,Pegmatite_rect,6,3.461,0,0,0,0,0,1,,,,,,,,,,,,,
6630f8c1f995b01de9767c7d,TCN,2024-06-11_12h20.24.762,LearnStrategy,2023.2.3,MacIntel,60.60606061,9,1,2,0.043495958,0.012140266,1,0,0,1.4508,rock_grid_rect_2,7,10,-1,-1,1.451,0.166946615,-0.405531074,1,0,0,3.4664,Peridotite_rect,7,3.466,1,1,0,1,0,1,,,,,,,,,,,,,
6630f8c1f995b01de9767c7d,TCN,2024-06-11_12h20.24.762,LearnStrategy,2023.2.3,MacIntel,60.60606061,9,1,3,-0.019707303,-0.009102919,1,0,0,1.2201,rock_grid_rect_2,3,08,-1,-1,1.22,0.10151157,-0.257010769,1,0,0,4.6199,Diorite_rect,3,4.62,1,2,0,2,0,1,,,,,,,,,,,,,
6630f8c1f995b01de9767c7d,TCN,2024-06-11_12h20.24.762,LearnStrategy,2023.2.3,MacIntel,60.60606061,9,1,4,-0.024171821,0.021678704,1,0,0,1.2992,rock_grid_rect_2,2,02,-1,-1,1.299,-0.204650133,-0.254994507,1,0,0,2.4586,Basalt_rect,2,2.459,1,3,0,3,0,1,,,,,,,,,,,,,
6630f8c1f995b01de9767c7d,TCN,2024-06-11_12h20.24.762,LearnStrategy,2023.2.3,MacIntel,60.60606061,9,1,5,0.012105442,-0.006395738,1,0,0,1.1661,rock_grid_rect_2,1,09,-1,-1,1.166,-0.345840759,-0.23534417,1,0,0,1.5773,Andesite_rect,1,1.577,1,4,0,4,0,1,,,,,,,,,,,,,
6630f8c1f995b01de9767c7d,TCN,2024-06-11_12h20.24.762,LearnStrategy,2023.2.3,MacIntel,60.60606061,9,1,6,0.031880086,0.016120809,1,0,0,1.1182,rock_grid_rect_2,3,07,-1,-1,1.118,0.167928128,-0.267195163,1,0,0,1.989,Diorite_rect,3,1.989,1,5,0,5,0,1,,,,,,,,,,,,,
6630f8c1f995b01de9767c7d,TCN,2024-06-11_12h20.24.762,LearnStrategy,2023.2.3,MacIntel,60.60606061,9,1,7,-0.011428697,0.000714857,1,0,0,1.1501,rock_grid_rect_2,8,14,-1,-1,1.15,0.39585083,-0.392611559,1,0,0,2.1779,Pumice_rect,8,2.178,1,6,0,6,0,1,,,,,,,,,,,,,
6630f8c1f995b01de9767c7d,TCN,2024-06-11_12h20.24.762,LearnStrategy,2023.2.3,MacIntel,60.60606061,9,1,8,0.005155029,0.006562025,1,0,0,1.167,rock_grid_rect_2,2,11,-1,-1,1.167,0.372999946,-0.228719008,1,0,0,2.0941,Gabbro_rect,4,2.094,0,7,0,7,0,1,,,,,,,,,,,,,
6630f8c1f995b01de9767c7d,TCN,2024-06-11_12h20.24.762,LearnStrategy,2023.2.3,MacIntel,60.60606061,9,1,9,-0.038918932,-0.011639438,1,0,0,1.1997,rock_grid_rect_2,6,15,-1,-1,1.2,-0.132409125,-0.414794854,1,0,0,1.8953,Pegmatite_rect,6,1.895,1,8,0,8,0,1,,,,,,,,,,,,,
6630f8c1f995b01de9767c7d,TCN,2024-06-11_12h20.24.762,LearnStrategy,2023.2.3,MacIntel,60.60606061,9,1,10,-0.009654066,-0.00450253,1,0,0,1.2364,rock_grid_rect_2,8,10,-1,-1,1.236,0.372059191,-0.419270426,1,0,0,1.776,Pumice_rect,8,1.776,1,9,0,9,0,1,,,,,,,,,,,,,
6630f8c1f995b01de9767c7d,TCN,2024-06-11_12h20.24.762,LearnStrategy,2023.2.3,MacIntel,60.60606061,9,1,11,-0.033220418,0.012333238,1,0,0,1.118,rock_grid_rect_2,1,10,-1,-1,1.118,0.440571696,-0.256104872,1,0,0,2.022,Gabbro_rect,4,2.022,0,10,0,10,0,1,,,,,,,,,,,,,
6630f8c1f995b01de9767c7d,TCN,2024-06-11_12h20.24.762,LearnStrategy,2023.2.3,MacIntel,60.60606061,9,1,12,-0.033979424,-0.005524326,1,0,0,1.5681,rock_grid_rect_2,5,14,-1,-1,1.568,-0.405876194,-0.41008823,1,0,0,1.2025,Obsidian_rect,5,1.202,1,11,0,11,0,1,,,,,,,,,,,,,
6630f8c1f995b01de9767c7d,TCN,2024-06-11_12h20.24.762,LearnStrategy,2023.2.3,MacIntel,60.60606061,9,1,13,0.008427463,-0.015934075,1,0,0,1.2001,rock_grid_rect_2,5,04,-1,-1,1.2,-0.401630283,-0.403426921,1,0,0,1.4334,Obsidian_rect,5,1.433,1,12,0,12,0,1,,,,,,,,,,,,,
6630f8c1f995b01de9767c7d,TCN,2024-06-11_12h20.24.762,LearnStrategy,2023.2.3,MacIntel,60.60606061,9,1,14,-0.019184909,-0.014900241,1,0,0,1.2168,rock_grid_rect_2,4,14,-1,-1,1.217,0.410069987,-0.231660088,1,0,0,1.353,Gabbro_rect,4,1.353,1,13,0,13,0,1,,,,,,,,,,,,,
6630f8c1f995b01de9767c7d,TCN,2024-06-11_12h20.24.762,LearnStrategy,2023.2.3,MacIntel,60.60606061,9,1,15,-0.036858927,0.007168511,1,0,0,1.2178,rock_grid_rect_2,4,08,-1,-1,1.218,0.383075087,-0.252539808,1,0,0,2.9302,Gabbro_rect,4,2.93,1,14,0,14,0,1,,,,,,,,,,,,,
6630f8c1f995b01de9767c7d,TCN,2024-06-11_12h20.24.762,LearnStrategy,2023.2.3,MacIntel,60.60606061,9,1,16,-0.019847209,-0.010444268,1,0,0,1.0172,rock_grid_rect_2,6,03,-1,-1,1.017,-0.134539524,-0.38572937,1,0,0,1.9628,Pegmatite_rect,6,1.963,1,15,0,15,0,1,,,,,,,,,,,,,
6630f8c1f995b01de9767c7d,TCN,2024-06-11_12h20.24.762,LearnStrategy,2023.2.3,MacIntel,60.60606061,9,2,1,,,,,,,,1,04,,,,,,,,,,,1,1.7,1,,,,,,-0.386542019,-0.241166382,1,0,0,1.7003,Andesite_rect,0,0,0,0,1,
6630f8c1f995b01de9767c7d,TCN,2024-06-11_12h20.24.762,LearnStrategy,2023.2.3,MacIntel,60.60606061,9,2,2,,,,,,,,6,16,,,,,,,,,,,6,1.509,1,,,,,,-0.092615831,-0.409660916,1,0,0,1.5088,Pegmatite_rect,1,0,1,0,1,
6630f8c1f995b01de9767c7d,TCN,2024-06-11_12h20.24.762,LearnStrategy,2023.2.3,MacIntel,60.60606061,9,2,3,,,,,,,,6,05,,,,,,,,,,,6,2.516,1,,,,,,-0.095482585,-0.400616387,1,0,0,2.5157,Pegmatite_rect,2,0,2,0,1,
6630f8c1f995b01de9767c7d,TCN,2024-06-11_12h20.24.762,LearnStrategy,2023.2.3,MacIntel,60.60606061,9,2,4,,,,,,,,8,04,,,,,,,,,,,8,1.383,1,,,,,,0.389513075,-0.401477119,1,0,0,1.3827,Pumice_rect,3,0,3,0,1,
6630f8c1f995b01de9767c7d,TCN,2024-06-11_12h20.24.762,LearnStrategy,2023.2.3,MacIntel,60.60606061,9,2,5,,,,,,,,8,13,,,,,,,,,,,8,2.039,1,,,,,,0.410808919,-0.413992174,1,0,0,2.0394,Pumice_rect,4,0,4,0,1,
6630f8c1f995b01de9767c7d,TCN,2024-06-11_12h20.24.762,LearnStrategy,2023.2.3,MacIntel,60.60606061,9,2,6,,,,,,,,3,13,,,,,,,,,,,3,3.264,1,,,,,,0.15787991,-0.239683702,1,0,0,3.264,Diorite_rect,5,0,5,0,1,
6630f8c1f995b01de9767c7d,TCN,2024-06-11_12h20.24.762,LearnStrategy,2023.2.3,MacIntel,60.60606061,9,2,7,,,,,,,,1,14,,,,,,,,,,,1,4.04,1,,,,,,-0.431166382,-0.242801581,1,0,0,4.04,Andesite_rect,6,0,6,0,1,
6630f8c1f995b01de9767c7d,TCN,2024-06-11_12h20.24.762,LearnStrategy,2023.2.3,MacIntel,60.60606061,9,2,8,,,,,,,,7,02,,,,,,,,,,,7,1.573,1,,,,,,0.158687202,-0.39529697,1,0,0,1.5733,Peridotite_rect,7,0,7,0,1,
6630f8c1f995b01de9767c7d,TCN,2024-06-11_12h20.24.762,LearnStrategy,2023.2.3,MacIntel,60.60606061,9,2,9,,,,,,,,2,08,,,,,,,,,,,2,1.456,1,,,,,,-0.103642239,-0.242909139,1,0,0,1.4559,Basalt_rect,8,0,8,0,1,
6630f8c1f995b01de9767c7d,TCN,2024-06-11_12h20.24.762,LearnStrategy,2023.2.3,MacIntel,60.60606061,9,2,10,,,,,,,,3,12,,,,,,,,,,,3,3.439,1,,,,,,0.174890272,-0.249173381,1,0,0,3.4389,Diorite_rect,9,0,9,0,1,
6630f8c1f995b01de9767c7d,TCN,2024-06-11_12h20.24.762,LearnStrategy,2023.2.3,MacIntel,60.60606061,9,2,11,,,,,,,,2,12,,,,,,,,,,,4,5.375,0,,,,,,0.400491672,-0.249631009,1,0,0,5.3754,Gabbro_rect,10,0,10,0,1,
6630f8c1f995b01de9767c7d,TCN,2024-06-11_12h20.24.762,LearnStrategy,2023.2.3,MacIntel,60.60606061,9,2,12,,,,,,,,4,05,,,,,,,,,,,4,3.418,1,,,,,,0.416522624,-0.259532945,1,0,0,3.4176,Gabbro_rect,11,0,11,0,1,
6630f8c1f995b01de9767c7d,TCN,2024-06-11_12h20.24.762,LearnStrategy,2023.2.3,MacIntel,60.60606061,9,2,13,,,,,,,,7,07,,,,,,,,,,,7,1.895,1,,,,,,0.150008681,-0.391665039,1,0,0,1.8952,Peridotite_rect,12,0,12,0,1,
6630f8c1f995b01de9767c7d,TCN,2024-06-11_12h20.24.762,LearnStrategy,2023.2.3,MacIntel,60.60606061,9,2,14,,,,,,,,4,13,,,,,,,,,,,2,11.341,0,,,,,,-0.154680854,-0.256286825,1,0,0,11.3408,Basalt_rect,13,0,13,0,1,
6630f8c1f995b01de9767c7d,TCN,2024-06-11_12h20.24.762,LearnStrategy,2023.2.3,MacIntel,60.60606061,9,2,15,,,,,,,,5,07,,,,,,,,,,,5,1.138,1,,,,,,-0.355772061,-0.410763075,1,0,0,1.1383,Obsidian_rect,14,0,14,0,1,
6630f8c1f995b01de9767c7d,TCN,2024-06-11_12h20.24.762,LearnStrategy,2023.2.3,MacIntel,60.60606061,9,2,16,,,,,,,,5,08,,,,,,,,,,,5,1.3,1,,,,,,-0.369745144,-0.402750583,1,0,0,1.3005,Obsidian_rect,15,0,15,0,1,
6630f8c1f995b01de9767c7d,TCN,2024-06-11_12h20.24.762,LearnStrategy,2023.2.3,MacIntel,60.60606061,,,,,,,,,,,,,,,,,,,,,,,,,,,,,,,,,,,,,,,,,,,1
6630f8c1f995b01de9767c7d,TCN,2024-06-11_12h20.24.762,LearnStrategy,2023.2.3,MacIntel,60.60606061,,,,,,,,,,,,,,,,,,,,,,,,,,,,,,,,,,,,,,,,,,,
6630f8c1f995b01de9767c7d,TCN,2024-06-11_12h20.24.762,LearnStrategy,2023.2.3,MacIntel,60.60606061,,,,,,,,,,,4,10,1,1,,,,,,,,,,,,,,,,,,,,,,,,,,,,,
6630f8c1f995b01de9767c7d,TCN,2024-06-11_12h20.24.762,LearnStrategy,2023.2.3,MacIntel,60.60606061,,,,,,,,,,,7,16,1,2,,,,,,,,,,,,,,,,,,,,,,,,,,,,,
6630f8c1f995b01de9767c7d,TCN,2024-06-11_12h20.24.762,LearnStrategy,2023.2.3,MacIntel,60.60606061,,,,,,,,,,,2,16,1,3,,,,,,,,,,,,,,,,,,,,,,,,,,,,,
6630f8c1f995b01de9767c7d,TCN,2024-06-11_12h20.24.762,LearnStrategy,2023.2.3,MacIntel,60.60606061,,,,,,,,,,,2,05,1,4,,,,,,,,,,,,,,,,,,,,,,,,,,,,,
6630f8c1f995b01de9767c7d,TCN,2024-06-11_12h20.24.762,LearnStrategy,2023.2.3,MacIntel,60.60606061,,,,,,,,,,,2,06,1,5,,,,,,,,,,,,,,,,,,,,,,,,,,,,,
6630f8c1f995b01de9767c7d,TCN,2024-06-11_12h20.24.762,LearnStrategy,2023.2.3,MacIntel,60.60606061,,,,,,,,,,,5,09,1,6,,,,,,,,,,,,,,,,,,,,,,,,,,,,,
6630f8c1f995b01de9767c7d,TCN,2024-06-11_12h20.24.762,LearnStrategy,2023.2.3,MacIntel,60.60606061,,,,,,,,,,,4,16,1,7,,,,,,,,,,,,,,,,,,,,,,,,,,,,,
6630f8c1f995b01de9767c7d,TCN,2024-06-11_12h20.24.762,LearnStrategy,2023.2.3,MacIntel,60.60606061,,,,,,,,,,,4,14,1,8,,,,,,,,,,,,,,,,,,,,,,,,,,,,,
6630f8c1f995b01de9767c7d,TCN,2024-06-11_12h20.24.762,LearnStrategy,2023.2.3,MacIntel,60.60606061,,,,,,,,,,,7,05,2,1,,,,,,,,,,,,,,,,,,,,,,,,,,,,,
6630f8c1f995b01de9767c7d,TCN,2024-06-11_12h20.24.762,LearnStrategy,2023.2.3,MacIntel,60.60606061,,,,,,,,,,,3,08,2,2,,,,,,,,,,,,,,,,,,,,,,,,,,,,,
6630f8c1f995b01de9767c7d,TCN,2024-06-11_12h20.24.762,LearnStrategy,2023.2.3,MacIntel,60.60606061,,,,,,,,,,,8,09,2,3,,,,,,,,,,,,,,,,,,,,,,,,,,,,,
6630f8c1f995b01de9767c7d,TCN,2024-06-11_12h20.24.762,LearnStrategy,2023.2.3,MacIntel,60.60606061,,,,,,,,,,,1,09,2,4,,,,,,,,,,,,,,,,,,,,,,,,,,,,,
6630f8c1f995b01de9767c7d,TCN,2024-06-11_12h20.24.762,LearnStrategy,2023.2.3,MacIntel,60.60606061,,,,,,,,,,,5,11,2,5,,,,,,,,,,,,,,,,,,,,,,,,,,,,,
6630f8c1f995b01de9767c7d,TCN,2024-06-11_12h20.24.762,LearnStrategy,2023.2.3,MacIntel,60.60606061,,,,,,,,,,,8,16,2,6,,,,,,,,,,,,,,,,,,,,,,,,,,,,,
6630f8c1f995b01de9767c7d,TCN,2024-06-11_12h20.24.762,LearnStrategy,2023.2.3,MacIntel,60.60606061,,,,,,,,,,,5,14,2,7,,,,,,,,,,,,,,,,,,,,,,,,,,,,,
6630f8c1f995b01de9767c7d,TCN,2024-06-11_12h20.24.762,LearnStrategy,2023.2.3,MacIntel,60.60606061,,,,,,,,,,,1,11,2,8,,,,,,,,,,,,,,,,,,,,,,,,,,,,,
6630f8c1f995b01de9767c7d,TCN,2024-06-11_12h20.24.762,LearnStrategy,2023.2.3,MacIntel,60.60606061,,,,,,,,,,,8,10,3,1,,,,,,,,,,,,,,,,,,,,,,,,,,,,,
6630f8c1f995b01de9767c7d,TCN,2024-06-11_12h20.24.762,LearnStrategy,2023.2.3,MacIntel,60.60606061,,,,,,,,,,,6,13,3,2,,,,,,,,,,,,,,,,,,,,,,,,,,,,,
6630f8c1f995b01de9767c7d,TCN,2024-06-11_12h20.24.762,LearnStrategy,2023.2.3,MacIntel,60.60606061,,,,,,,,,,,4,08,3,3,,,,,,,,,,,,,,,,,,,,,,,,,,,,,
6630f8c1f995b01de9767c7d,TCN,2024-06-11_12h20.24.762,LearnStrategy,2023.2.3,MacIntel,60.60606061,,,,,,,,,,,7,08,3,4,,,,,,,,,,,,,,,,,,,,,,,,,,,,,
6630f8c1f995b01de9767c7d,TCN,2024-06-11_12h20.24.762,LearnStrategy,2023.2.3,MacIntel,60.60606061,,,,,,,,,,,6,03,3,5,,,,,,,,,,,,,,,,,,,,,,,,,,,,,
6630f8c1f995b01de9767c7d,TCN,2024-06-11_12h20.24.762,LearnStrategy,2023.2.3,MacIntel,60.60606061,,,,,,,,,,,6,06,3,6,,,,,,,,,,,,,,,,,,,,,,,,,,,,,
6630f8c1f995b01de9767c7d,TCN,2024-06-11_12h20.24.762,LearnStrategy,2023.2.3,MacIntel,60.60606061,,,,,,,,,,,8,05,3,7,,,,,,,,,,,,,,,,,,,,,,,,,,,,,
6630f8c1f995b01de9767c7d,TCN,2024-06-11_12h20.24.762,LearnStrategy,2023.2.3,MacIntel,60.60606061,,,,,,,,,,,3,14,3,8,,,,,,,,,,,,,,,,,,,,,,,,,,,,,
6630f8c1f995b01de9767c7d,TCN,2024-06-11_12h20.24.762,LearnStrategy,2023.2.3,MacIntel,60.60606061,,,,,,,,,,,8,14,4,1,,,,,,,,,,,,,,,,,,,,,,,,,,,,,
6630f8c1f995b01de9767c7d,TCN,2024-06-11_12h20.24.762,LearnStrategy,2023.2.3,MacIntel,60.60606061,,,,,,,,,,,5,16,4,2,,,,,,,,,,,,,,,,,,,,,,,,,,,,,
6630f8c1f995b01de9767c7d,TCN,2024-06-11_12h20.24.762,LearnStrategy,2023.2.3,MacIntel,60.60606061,,,,,,,,,,,7,13,4,3,,,,,,,,,,,,,,,,,,,,,,,,,,,,,
6630f8c1f995b01de9767c7d,TCN,2024-06-11_12h20.24.762,LearnStrategy,2023.2.3,MacIntel,60.60606061,,,,,,,,,,,8,08,4,4,,,,,,,,,,,,,,,,,,,,,,,,,,,,,
6630f8c1f995b01de9767c7d,TCN,2024-06-11_12h20.24.762,LearnStrategy,2023.2.3,MacIntel,60.60606061,,,,,,,,,,,7,10,4,5,,,,,,,,,,,,,,,,,,,,,,,,,,,,,
6630f8c1f995b01de9767c7d,TCN,2024-06-11_12h20.24.762,LearnStrategy,2023.2.3,MacIntel,60.60606061,,,,,,,,,,,3,16,4,6,,,,,,,,,,,,,,,,,,,,,,,,,,,,,
6630f8c1f995b01de9767c7d,TCN,2024-06-11_12h20.24.762,LearnStrategy,2023.2.3,MacIntel,60.60606061,,,,,,,,,,,1,01,4,7,,,,,,,,,,,,,,,,,,,,,,,,,,,,,
6630f8c1f995b01de9767c7d,TCN,2024-06-11_12h20.24.762,LearnStrategy,2023.2.3,MacIntel,60.60606061,,,,,,,,,,,4,12,4,8,,,,,,,,,,,,,,,,,,,,,,,,,,,,,
6630f8c1f995b01de9767c7d,TCN,2024-06-11_12h20.24.762,LearnStrategy,2023.2.3,MacIntel,60.60606061,,,,,,,,,,,2,10,5,1,,,,,,,,,,,,,,,,,,,,,,,,,,,,,
6630f8c1f995b01de9767c7d,TCN,2024-06-11_12h20.24.762,LearnStrategy,2023.2.3,MacIntel,60.60606061,,,,,,,,,,,6,12,5,2,,,,,,,,,,,,,,,,,,,,,,,,,,,,,
6630f8c1f995b01de9767c7d,TCN,2024-06-11_12h20.24.762,LearnStrategy,2023.2.3,MacIntel,60.60606061,,,,,,,,,,,5,04,5,3,,,,,,,,,,,,,,,,,,,,,,,,,,,,,
6630f8c1f995b01de9767c7d,TCN,2024-06-11_12h20.24.762,LearnStrategy,2023.2.3,MacIntel,60.60606061,,,,,,,,,,,1,05,5,4,,,,,,,,,,,,,,,,,,,,,,,,,,,,,
6630f8c1f995b01de9767c7d,TCN,2024-06-11_12h20.24.762,LearnStrategy,2023.2.3,MacIntel,60.60606061,,,,,,,,,,,1,06,5,5,,,,,,,,,,,,,,,,,,,,,,,,,,,,,
6630f8c1f995b01de9767c7d,TCN,2024-06-11_12h20.24.762,LearnStrategy,2023.2.3,MacIntel,60.60606061,,,,,,,,,,,3,10,5,6,,,,,,,,,,,,,,,,,,,,,,,,,,,,,
6630f8c1f995b01de9767c7d,TCN,2024-06-11_12h20.24.762,LearnStrategy,2023.2.3,MacIntel,60.60606061,,,,,,,,,,,7,12,5,7,,,,,,,,,,,,,,,,,,,,,,,,,,,,,
6630f8c1f995b01de9767c7d,TCN,2024-06-11_12h20.24.762,LearnStrategy,2023.2.3,MacIntel,60.60606061,,,,,,,,,,,6,15,5,8,,,,,,,,,,,,,,,,,,,,,,,,,,,,,
6630f8c1f995b01de9767c7d,TCN,2024-06-11_12h20.24.762,LearnStrategy,2023.2.3,MacIntel,60.60606061,,,,,,,,,,,2,02,6,1,,,,,,,,,,,,,,,,,,,,,,,,,,,,,
6630f8c1f995b01de9767c7d,TCN,2024-06-11_12h20.24.762,LearnStrategy,2023.2.3,MacIntel,60.60606061,,,,,,,,,,,6,10,6,2,,,,,,,,,,,,,,,,,,,,,,,,,,,,,
6630f8c1f995b01de9767c7d,TCN,2024-06-11_12h20.24.762,LearnStrategy,2023.2.3,MacIntel,60.60606061,,,,,,,,,,,1,10,6,3,,,,,,,,,,,,,,,,,,,,,,,,,,,,,
6630f8c1f995b01de9767c7d,TCN,2024-06-11_12h20.24.762,LearnStrategy,2023.2.3,MacIntel,60.60606061,,,,,,,,,,,3,07,6,4,,,,,,,,,,,,,,,,,,,,,,,,,,,,,
6630f8c1f995b01de9767c7d,TCN,2024-06-11_12h20.24.762,LearnStrategy,2023.2.3,MacIntel,60.60606061,,,,,,,,,,,3,15,6,5,,,,,,,,,,,,,,,,,,,,,,,,,,,,,
6630f8c1f995b01de9767c7d,TCN,2024-06-11_12h20.24.762,LearnStrategy,2023.2.3,MacIntel,60.60606061,,,,,,,,,,,5,12,6,6,,,,,,,,,,,,,,,,,,,,,,,,,,,,,
6630f8c1f995b01de9767c7d,TCN,2024-06-11_12h20.24.762,LearnStrategy,2023.2.3,MacIntel,60.60606061,,,,,,,,,,,2,11,6,7,,,,,,,,,,,,,,,,,,,,,,,,,,,,,
6630f8c1f995b01de9767c7d,TCN,2024-06-11_12h20.24.762,LearnStrategy,2023.2.3,MacIntel,60.60606061,,,,,,,,,,,4,11,6,8,,,,,,,,,,,,,,,,,,,,,,,,,,,,,