participant,condition,date,expName,psychopyVersion,OS,frameRate,block,phase,trial,learn_mouse_2.x,learn_mouse_2.y,learn_mouse_2.leftButton,learn_mouse_2.midButton,learn_mouse_2.rightButton,learn_mouse_2.time,learn_mouse_2.clicked_name,cat,token,row,col,t_select,cat_mouse_l.x,cat_mouse_l.y,cat_mouse_l.leftButton,cat_mouse_l.midButton,cat_mouse_l.rightButton,cat_mouse_l.time,cat_mouse_l.clicked_name,resp,t_resp,corr,train_trials.thisRepN,train_trials.thisTrialN,train_trials.thisN,train_trials.thisIndex,train_trials.ran,cat_mouse_t.x,cat_mouse_t.y,cat_mouse_t.leftButton,cat_mouse_t.midButton,cat_mouse_t.rightButton,cat_mouse_t.time,cat_mouse_t.clicked_name,test_trials.thisRepN,test_trials.thisTrialN,test_trials.thisN,test_trials.thisIndex,test_trials.ran,Bonus
663107c78dd42ba9f097a9fc,TCR,2024-06-24_17h34.20.351,LearnStrategy,2023.2.3,Win32,60.60606061,,,,,,,,,,,,,,,,,,,,,,,,,,,,,,,,,,,,,,,,,,,
663107c78dd42ba9f097a9fc,TCR,2024-06-24_17h34.20.351,LearnStrategy,2023.2.3,Win32,60.60606061,1,1,1,0.068518575,-0.012962977,1,0,0,6.6508,rock_grid_rect_2,1,07,-1,-1,6.651,-0.126851824,-0.250925954,1,0,0,7.2882,Basalt_rect,2,7.288,0,0,0,0,0,1,,,,,,,,,,,,,
663107c78dd42ba9f097a9fc,TCR,2024-06-24_17h34.20.351,LearnStrategy,2023.2.3,Win32,60.60606061,1,1,2,0.149074131,-0.013888889,1,0,0,2.0103,rock_grid_rect_2,7,13,-1,-1,2.01,0.187037065,-0.391666667,1,0,0,5.6068,Peridotite_rect,7,5.607,1,1,0,1,0,1,,,,,,,,,,,,,
663107c78dd42ba9f097a9fc,TCR,2024-06-24_17h34.20.351,LearnStrategy,2023.2.3,Win32,60.60606061,1,1,3,0.147222222,0.002777778,1,0,0,2.6945,rock_grid_rect_2,8,10,-1,-1,2.695,0.416666667,-0.410185242,1,0,0,3.0103,Pumice_rect,8,3.01,1,2,0,2,0,1,,,,,,,,,,,,,
663107c78dd42ba9f097a9fc,TCR,2024-06-24_17h34.20.351,LearnStrategy,2023.2.3,Win32,60.60606061,1,1,4,0.183333333,-0.000925954,1,0,0,1.0989,rock_grid_rect_2,2,05,-1,-1,1.099,-0.070370314,-0.250925954,1,0,0,4.9203,Basalt_rect,2,4.92,1,3,0,3,0,1,,,,,,,,,,,,,
663107c78dd42ba9f097a9fc,TCR,2024-06-24_17h34.20.351,LearnStrategy,2023.2.3,Win32,60.60606061,1,1,5,0.167592621,-0.011111111,1,0,0,1.8941,rock_grid_rect_2,6,07,-1,-1,1.894,-0.322222222,-0.418518575,1,0,0,4.3575,Obsidian_rect,5,4.358,0,4,0,4,0,1,,,,,,,,,,,,,
663107c78dd42ba9f097a9fc,TCR,2024-06-24_17h34.20.351,LearnStrategy,2023.2.3,Win32,60.60606061,1,1,6,0.208333333,-0.015740755,1,0,0,0.9721,rock_grid_rect_2,3,16,-1,-1,0.972,0.453703732,-0.230555556,1,0,0,5.0627,Gabbro_rect,4,5.063,0,5,0,5,0,1,,,,,,,,,,,,,
663107c78dd42ba9f097a9fc,TCR,2024-06-24_17h34.20.351,LearnStrategy,2023.2.3,Win32,60.60606061,1,1,7,0.158333333,-0.020370399,1,0,0,2.3008,rock_grid_rect_2,5,07,-1,-1,2.301,0.392592621,-0.228703732,1,0,0,5.3818,Gabbro_rect,4,5.382,0,6,0,6,0,1,,,,,,,,,,,,,
663107c78dd42ba9f097a9fc,TCR,2024-06-24_17h34.20.351,LearnStrategy,2023.2.3,Win32,60.60606061,1,1,8,0.116666667,-0.011111111,1,0,0,1.6692,rock_grid_rect_2,5,04,-1,-1,1.669,-0.379629601,-0.395370399,1,0,0,5.778,Obsidian_rect,5,5.778,1,7,0,7,0,1,,,,,,,,,,,,,
663107c78dd42ba9f097a9fc,TCR,2024-06-24_17h34.20.351,LearnStrategy,2023.2.3,Win32,60.60606061,1,1,9,0.187037065,-0.012037065,1,0,0,2.3857,rock_grid_rect_2,4,15,-1,-1,2.386,-0.105555556,-0.404629686,1,0,0,3.4611,Pegmatite_rect,6,3.461,0,8,0,8,0,1,,,,,,,,,,,,,
663107c78dd42ba9f097a9fc,TCR,2024-06-24_17h34.20.351,LearnStrategy,2023.2.3,Win32,60.60606061,1,1,10,0.200925954,-0.011111111,1,0,0,1.0194,rock_grid_rect_2,1,06,-1,-1,1.019,0.419444444,-0.4,1,0,0,5.32,Pumice_rect,8,5.32,0,9,0,9,0,1,,,,,,,,,,,,,
663107c78dd42ba9f097a9fc,TCR,2024-06-24_17h34.20.351,LearnStrategy,2023.2.3,Win32,60.60606061,1,1,11,0.147222222,-0.019444444,1,0,0,2.0824,rock_grid_rect_2,7,10,-1,-1,2.082,0.172222222,-0.250925954,1,0,0,3.698,Diorite_rect,3,3.698,0,10,0,10,0,1,,,,,,,,,,,,,
663107c78dd42ba9f097a9fc,TCR,2024-06-24_17h34.20.351,LearnStrategy,2023.2.3,Win32,60.60606061,1,1,12,0.165740797,-0.00648151,1,0,0,0.8852,rock_grid_rect_2,6,09,-1,-1,0.885,-0.082407379,-0.412963019,1,0,0,3.4369,Pegmatite_rect,6,3.437,1,11,0,11,0,1,,,,,,,,,,,,,
663107c78dd42ba9f097a9fc,TCR,2024-06-24_17h34.20.351,LearnStrategy,2023.2.3,Win32,60.60606061,1,1,13,0.187963019,-0.013888889,1,0,0,0.9386,rock_grid_rect_2,8,16,-1,-1,0.939,-0.088888889,-0.245370399,1,0,0,4.6117,Basalt_rect,2,4.612,0,12,0,12,0,1,,,,,,,,,,,,,
663107c78dd42ba9f097a9fc,TCR,2024-06-24_17h34.20.351,LearnStrategy,2023.2.3,Win32,60.60606061,1,1,14,0.168518575,-0.016666667,1,0,0,1.764,rock_grid_rect_2,3,12,-1,-1,1.764,-0.084259203,-0.255555556,1,0,0,7.5443,Basalt_rect,2,7.544,0,13,0,13,0,1,,,,,,,,,,,,,
663107c78dd42ba9f097a9fc,TCR,2024-06-24_17h34.20.351,LearnStrategy,2023.2.3,Win32,60.60606061,1,1,15,0.159259288,0.007407379,1,0,0,2.0656,rock_grid_rect_2,2,09,-1,-1,2.066,-0.326851824,-0.391666667,1,0,0,7.9738,Obsidian_rect,5,7.974,0,14,0,14,0,1,,,,,,,,,,,,,
663107c78dd42ba9f097a9fc,TCR,2024-06-24_17h34.20.351,LearnStrategy,2023.2.3,Win32,60.60606061,1,1,16,0.065740797,-0.008333333,1,0,0,5.3684,rock_grid_rect_2,4,09,-1,-1,5.368,0.428703732,-0.230555556,1,0,0,3.4699,Gabbro_rect,4,3.47,1,15,0,15,0,1,,,,,,,,,,,,,
663107c78dd42ba9f097a9fc,TCR,2024-06-24_17h34.20.351,LearnStrategy,2023.2.3,Win32,60.60606061,1,2,1,,,,,,,,1,16,,,,,,,,,,,4,12.674,0,,,,,,0.375925954,-0.262037065,1,0,0,12.6741,Gabbro_rect,0,0,0,0,1,
663107c78dd42ba9f097a9fc,TCR,2024-06-24_17h34.20.351,LearnStrategy,2023.2.3,Win32,60.60606061,1,2,2,,,,,,,,5,11,,,,,,,,,,,5,9.995,1,,,,,,-0.366666667,-0.4,1,0,0,9.9955,Obsidian_rect,1,0,1,0,1,
663107c78dd42ba9f097a9fc,TCR,2024-06-24_17h34.20.351,LearnStrategy,2023.2.3,Win32,60.60606061,1,2,3,,,,,,,,8,03,,,,,,,,,,,8,8.428,1,,,,,,0.395370399,-0.398148176,1,0,0,8.4277,Pumice_rect,2,0,2,0,1,
663107c78dd42ba9f097a9fc,TCR,2024-06-24_17h34.20.351,LearnStrategy,2023.2.3,Win32,60.60606061,1,2,4,,,,,,,,2,10,,,,,,,,,,,2,23.66,1,,,,,,-0.122222222,-0.25648151,1,0,0,23.6604,Basalt_rect,3,0,3,0,1,
663107c78dd42ba9f097a9fc,TCR,2024-06-24_17h34.20.351,LearnStrategy,2023.2.3,Win32,60.60606061,1,2,5,,,,,,,,4,14,,,,,,,,,,,4,19.745,1,,,,,,0.439814843,-0.246296353,1,0,0,19.7445,Gabbro_rect,4,0,4,0,1,
663107c78dd42ba9f097a9fc,TCR,2024-06-24_17h34.20.351,LearnStrategy,2023.2.3,Win32,60.60606061,1,2,6,,,,,,,,6,12,,,,,,,,,,,1,22.102,0,,,,,,-0.362037023,-0.250925954,1,0,0,22.1016,Andesite_rect,5,0,5,0,1,
663107c78dd42ba9f097a9fc,TCR,2024-06-24_17h34.20.351,LearnStrategy,2023.2.3,Win32,60.60606061,1,2,7,,,,,,,,1,05,,,,,,,,,,,1,3.905,1,,,,,,-0.367592578,-0.267592621,1,0,0,3.9049,Andesite_rect,6,0,6,0,1,
663107c78dd42ba9f097a9fc,TCR,2024-06-24_17h34.20.351,LearnStrategy,2023.2.3,Win32,60.60606061,1,2,8,,,,,,,,7,06,,,,,,,,,,,7,4.187,1,,,,,,0.137963019,-0.386111111,1,0,0,4.1874,Peridotite_rect,7,0,7,0,1,
663107c78dd42ba9f097a9fc,TCR,2024-06-24_17h34.20.351,LearnStrategy,2023.2.3,Win32,60.60606061,1,2,9,,,,,,,,3,11,,,,,,,,,,,3,9.82,1,,,,,,0.15648151,-0.238888889,1,0,0,9.8202,Diorite_rect,8,0,8,0,1,
663107c78dd42ba9f097a9fc,TCR,2024-06-24_17h34.20.351,LearnStrategy,2023.2.3,Win32,60.60606061,1,2,10,,,,,,,,6,15,,,,,,,,,,,5,5.193,0,,,,,,-0.362037023,-0.409259288,1,0,0,5.1929,Obsidian_rect,9,0,9,0,1,
663107c78dd42ba9f097a9fc,TCR,2024-06-24_17h34.20.351,LearnStrategy,2023.2.3,Win32,60.60606061,1,2,11,,,,,,,,3,09,,,,,,,,,,,1,8.879,0,,,,,,-0.392592578,-0.243518575,1,0,0,8.8793,Andesite_rect,10,0,10,0,1,
663107c78dd42ba9f097a9fc,TCR,2024-06-24_17h34.20.351,LearnStrategy,2023.2.3,Win32,60.60606061,1,2,12,,,,,,,,8,06,,,,,,,,,,,8,1.707,1,,,,,,0.408333333,-0.403703732,1,0,0,1.7075,Pumice_rect,11,0,11,0,1,
663107c78dd42ba9f097a9fc,TCR,2024-06-24_17h34.20.351,LearnStrategy,2023.2.3,Win32,60.60606061,1,2,13,,,,,,,,2,08,,,,,,,,,,,2,10.847,1,,,,,,-0.139814758,-0.230555556,1,0,0,10.847,Basalt_rect,12,0,12,0,1,
663107c78dd42ba9f097a9fc,TCR,2024-06-24_17h34.20.351,LearnStrategy,2023.2.3,Win32,60.60606061,1,2,14,,,,,,,,5,06,,,,,,,,,,,5,13.763,1,,,,,,-0.39351849,-0.4,1,0,0,13.7628,Obsidian_rect,13,0,13,0,1,
663107c78dd42ba9f097a9fc,TCR,2024-06-24_17h34.20.351,LearnStrategy,2023.2.3,Win32,60.60606061,1,2,15,,,,,,,,7,12,,,,,,,,,,,3,20.214,0,,,,,,0.129629686,-0.254629686,1,0,0,20.2144,Diorite_rect,14,0,14,0,1,
663107c78dd42ba9f097a9fc,TCR,2024-06-24_17h34.20.351,LearnStrategy,2023.2.3,Win32,60.60606061,1,2,16,,,,,,,,4,03,,,,,,,,,,,1,10.224,0,,,,,,-0.35,-0.237037065,1,0,0,10.2245,Andesite_rect,15,0,15,0,1,
663107c78dd42ba9f097a9fc,TCR,2024-06-24_17h34.20.351,LearnStrategy,2023.2.3,Win32,60.60606061,2,1,1,0.129629686,-0.014814843,1,0,0,2.2703,rock_grid_rect_2,1,10,-1,-1,2.27,-0.392592578,-0.246296353,1,0,0,29.7875,Andesite_rect,1,29.788,1,0,0,0,0,1,,,,,,,,,,,,,
663107c78dd42ba9f097a9fc,TCR,2024-06-24_17h34.20.351,LearnStrategy,2023.2.3,Win32,60.60606061,2,1,2,0.024074131,0.00370369,1,0,0,1.5357,rock_grid_rect_2,3,16,-1,-1,1.536,-0.377777778,-0.241666667,1,0,0,8.7939,Andesite_rect,1,8.794,0,1,0,1,0,1,,,,,,,,,,,,,
663107c78dd42ba9f097a9fc,TCR,2024-06-24_17h34.20.351,LearnStrategy,2023.2.3,Win32,60.60606061,2,1,3,0.125,-0.019444444,1,0,0,1.5532,rock_grid_rect_2,7,13,-1,-1,1.553,0.123148176,-0.400925954,1,0,0,21.2924,Peridotite_rect,7,21.292,1,2,0,2,0,1,,,,,,,,,,,,,
663107c78dd42ba9f097a9fc,TCR,2024-06-24_17h34.20.351,LearnStrategy,2023.2.3,Win32,60.60606061,2,1,4,0.097222222,-0.012037065,1,0,0,2.4482,rock_grid_rect_2,6,07,-1,-1,2.448,-0.134259203,-0.404629686,1,0,0,12.2394,Pegmatite_rect,6,12.239,1,3,0,3,0,1,,,,,,,,,,,,,
663107c78dd42ba9f097a9fc,TCR,2024-06-24_17h34.20.351,LearnStrategy,2023.2.3,Win32,60.60606061,2,1,5,0.100925954,-0.011111111,1,0,0,2.0995,rock_grid_rect_2,5,05,-1,-1,2.1,-0.415740712,-0.398148176,1,0,0,7.3921,Obsidian_rect,5,7.392,1,4,0,4,0,1,,,,,,,,,,,,,
663107c78dd42ba9f097a9fc,TCR,2024-06-24_17h34.20.351,LearnStrategy,2023.2.3,Win32,60.60606061,2,1,6,0.137037065,-0.005555556,1,0,0,1.0294,rock_grid_rect_2,3,12,-1,-1,1.029,0.153703732,-0.239814843,1,0,0,13.5317,Diorite_rect,3,13.532,1,5,0,5,0,1,,,,,,,,,,,,,
663107c78dd42ba9f097a9fc,TCR,2024-06-24_17h34.20.351,LearnStrategy,2023.2.3,Win32,60.60606061,2,1,7,0.139814843,-0.017592621,1,0,0,1.2808,rock_grid_rect_2,3,02,-1,-1,1.281,0.150925954,-0.242592621,1,0,0,17.3291,Diorite_rect,3,17.329,1,6,0,6,0,1,,,,,,,,,,,,,
663107c78dd42ba9f097a9fc,TCR,2024-06-24_17h34.20.351,LearnStrategy,2023.2.3,Win32,60.60606061,2,1,8,0.154629686,-0.015740755,1,0,0,1.0522,rock_grid_rect_2,6,05,-1,-1,1.052,0.13148151,-0.253703732,1,0,0,5.9207,Diorite_rect,3,5.921,0,7,0,7,0,1,,,,,,,,,,,,,
663107c78dd42ba9f097a9fc,TCR,2024-06-24_17h34.20.351,LearnStrategy,2023.2.3,Win32,60.60606061,2,1,9,0.145370399,-0.012962977,1,0,0,0.9595,rock_grid_rect_2,1,07,-1,-1,0.96,-0.409259245,-0.251851908,1,0,0,15.7045,Andesite_rect,1,15.705,1,8,0,8,0,1,,,,,,,,,,,,,
663107c78dd42ba9f097a9fc,TCR,2024-06-24_17h34.20.351,LearnStrategy,2023.2.3,Win32,60.60606061,2,1,10,0.017592621,-0.003703732,1,0,0,1.5799,rock_grid_rect_2,4,05,-1,-1,1.58,0.398148176,-0.253703732,1,0,0,7.892,Gabbro_rect,4,7.892,1,9,0,9,0,1,,,,,,,,,,,,,
663107c78dd42ba9f097a9fc,TCR,2024-06-24_17h34.20.351,LearnStrategy,2023.2.3,Win32,60.60606061,2,1,11,0.160185242,-0.023148176,1,0,0,1.1687,rock_grid_rect_2,6,11,-1,-1,1.169,-0.345370356,-0.405555556,1,0,0,4.4227,Obsidian_rect,5,4.423,0,10,0,10,0,1,,,,,,,,,,,,,
663107c78dd42ba9f097a9fc,TCR,2024-06-24_17h34.20.351,LearnStrategy,2023.2.3,Win32,60.60606061,2,1,12,0.159259288,-0.00648151,1,0,0,1.3105,rock_grid_rect_2,4,13,-1,-1,1.311,0.409259288,-0.241666667,1,0,0,15.2512,Gabbro_rect,4,15.251,1,11,0,11,0,1,,,,,,,,,,,,,
663107c78dd42ba9f097a9fc,TCR,2024-06-24_17h34.20.351,LearnStrategy,2023.2.3,Win32,60.60606061,2,1,13,0.161111111,-0.012037065,1,0,0,2.0193,rock_grid_rect_2,6,07,-1,-1,2.019,-0.1,-0.402777778,1,0,0,10.4734,Pegmatite_rect,6,10.473,1,12,0,12,0,1,,,,,,,,,,,,,
663107c78dd42ba9f097a9fc,TCR,2024-06-24_17h34.20.351,LearnStrategy,2023.2.3,Win32,60.60606061,2,1,14,0.199074131,-0.019444444,1,0,0,0.8122,rock_grid_rect_2,7,02,-1,-1,0.812,0.148148176,-0.397222222,1,0,0,10.7429,Peridotite_rect,7,10.743,1,13,0,13,0,1,,,,,,,,,,,,,
663107c78dd42ba9f097a9fc,TCR,2024-06-24_17h34.20.351,LearnStrategy,2023.2.3,Win32,60.60606061,2,1,15,0.176851908,0.001851824,1,0,0,1.1299,rock_grid_rect_2,4,12,-1,-1,1.13,0.400925954,-0.233333333,1,0,0,6.8924,Gabbro_rect,4,6.892,1,14,0,14,0,1,,,,,,,,,,,,,
663107c78dd42ba9f097a9fc,TCR,2024-06-24_17h34.20.351,LearnStrategy,2023.2.3,Win32,60.60606061,2,1,16,0.186111111,-0.010185199,1,0,0,1.2687,rock_grid_rect_2,1,06,-1,-1,1.269,-0.381481467,-0.257407464,1,0,0,15.1234,Andesite_rect,1,15.123,1,15,0,15,0,1,,,,,,,,,,,,,
663107c78dd42ba9f097a9fc,TCR,2024-06-24_17h34.20.351,LearnStrategy,2023.2.3,Win32,60.60606061,2,2,1,,,,,,,,2,16,,,,,,,,,,,2,33.685,1,,,,,,-0.14351849,-0.230555556,1,0,0,33.6853,Basalt_rect,0,0,0,0,1,
663107c78dd42ba9f097a9fc,TCR,2024-06-24_17h34.20.351,LearnStrategy,2023.2.3,Win32,60.60606061,2,2,2,,,,,,,,6,10,,,,,,,,,,,6,13.724,1,,,,,,-0.121296268,-0.404629686,1,0,0,13.7238,Pegmatite_rect,1,0,1,0,1,
663107c78dd42ba9f097a9fc,TCR,2024-06-24_17h34.20.351,LearnStrategy,2023.2.3,Win32,60.60606061,2,2,3,,,,,,,,6,08,,,,,,,,,,,6,42.523,1,,,,,,-0.115740712,-0.403703732,1,0,0,42.5232,Pegmatite_rect,2,0,2,0,1,
663107c78dd42ba9f097a9fc,TCR,2024-06-24_17h34.20.351,LearnStrategy,2023.2.3,Win32,60.60606061,2,2,4,,,,,,,,2,02,,,,,,,,,,,2,26.128,1,,,,,,-0.116666667,-0.260185242,1,0,0,26.1279,Basalt_rect,3,0,3,0,1,
663107c78dd42ba9f097a9fc,TCR,2024-06-24_17h34.20.351,LearnStrategy,2023.2.3,Win32,60.60606061,2,2,5,,,,,,,,3,14,,,,,,,,,,,1,5.092,0,,,,,,-0.37870369,-0.247222222,1,0,0,5.0922,Andesite_rect,4,0,4,0,1,
663107c78dd42ba9f097a9fc,TCR,2024-06-24_17h34.20.351,LearnStrategy,2023.2.3,Win32,60.60606061,2,2,6,,,,,,,,7,04,,,,,,,,,,,5,9.341,0,,,,,,-0.357407379,-0.409259288,1,0,0,9.3405,Obsidian_rect,5,0,5,0,1,
663107c78dd42ba9f097a9fc,TCR,2024-06-24_17h34.20.351,LearnStrategy,2023.2.3,Win32,60.60606061,2,2,7,,,,,,,,5,14,,,,,,,,,,,5,7.892,1,,,,,,-0.404629601,-0.408333333,1,0,0,7.8916,Obsidian_rect,6,0,6,0,1,
663107c78dd42ba9f097a9fc,TCR,2024-06-24_17h34.20.351,LearnStrategy,2023.2.3,Win32,60.60606061,2,2,8,,,,,,,,5,10,,,,,,,,,,,5,2.59,1,,,,,,-0.366666667,-0.402777778,1,0,0,2.5904,Obsidian_rect,7,0,7,0,1,
663107c78dd42ba9f097a9fc,TCR,2024-06-24_17h34.20.351,LearnStrategy,2023.2.3,Win32,60.60606061,2,2,9,,,,,,,,8,09,,,,,,,,,,,8,3.12,1,,,,,,0.418518575,-0.396296353,1,0,0,3.1204,Pumice_rect,8,0,8,0,1,
663107c78dd42ba9f097a9fc,TCR,2024-06-24_17h34.20.351,LearnStrategy,2023.2.3,Win32,60.60606061,2,2,10,,,,,,,,1,11,,,,,,,,,,,1,25.308,1,,,,,,-0.35370369,-0.255555556,1,0,0,25.3081,Andesite_rect,9,0,9,0,1,
663107c78dd42ba9f097a9fc,TCR,2024-06-24_17h34.20.351,LearnStrategy,2023.2.3,Win32,60.60606061,2,2,11,,,,,,,,3,10,,,,,,,,,,,1,7.475,0,,,,,,-0.35370369,-0.265740797,1,0,0,7.4752,Andesite_rect,10,0,10,0,1,
663107c78dd42ba9f097a9fc,TCR,2024-06-24_17h34.20.351,LearnStrategy,2023.2.3,Win32,60.60606061,2,2,12,,,,,,,,7,15,,,,,,,,,,,6,12.437,0,,,,,,-0.115740712,-0.407407464,1,0,0,12.4374,Pegmatite_rect,11,0,11,0,1,
663107c78dd42ba9f097a9fc,TCR,2024-06-24_17h34.20.351,LearnStrategy,2023.2.3,Win32,60.60606061,2,2,13,,,,,,,,8,05,,,,,,,,,,,8,1.317,1,,,,,,0.421296353,-0.391666667,1,0,0,1.3167,Pumice_rect,12,0,12,0,1,
663107c78dd42ba9f097a9fc,TCR,2024-06-24_17h34.20.351,LearnStrategy,2023.2.3,Win32,60.60606061,2,2,14,,,,,,,,4,01,,,,,,,,,,,3,17.246,0,,,,,,0.173148176,-0.249074131,1,0,0,17.2462,Diorite_rect,13,0,13,0,1,
663107c78dd42ba9f097a9fc,TCR,2024-06-24_17h34.20.351,LearnStrategy,2023.2.3,Win32,60.60606061,2,2,15,,,,,,,,4,10,,,,,,,,,,,2,4.642,0,,,,,,-0.132407379,-0.267592621,1,0,0,4.6423,Basalt_rect,14,0,14,0,1,
663107c78dd42ba9f097a9fc,TCR,2024-06-24_17h34.20.351,LearnStrategy,2023.2.3,Win32,60.60606061,2,2,16,,,,,,,,1,03,,,,,,,,,,,1,7.503,1,,,,,,-0.363888889,-0.247222222,1,0,0,7.5025,Andesite_rect,15,0,15,0,1,
663107c78dd42ba9f097a9fc,TCR,2024-06-24_17h34.20.351,LearnStrategy,2023.2.3,Win32,60.60606061,3,1,1,0.123148176,-0.007407422,1,0,0,2.1273,rock_grid_rect_2,3,08,-1,-1,2.127,-0.338888889,-0.262037065,1,0,0,5.758,Andesite_rect,1,5.758,0,0,0,0,0,1,,,,,,,,,,,,,
663107c78dd42ba9f097a9fc,TCR,2024-06-24_17h34.20.351,LearnStrategy,2023.2.3,Win32,60.60606061,3,1,2,0.165740797,-0.00648151,1,0,0,1.1934,rock_grid_rect_2,6,13,-1,-1,1.193,-0.086111111,-0.393518575,1,0,0,6.2761,Pegmatite_rect,6,6.276,1,1,0,1,0,1,,,,,,,,,,,,,
663107c78dd42ba9f097a9fc,TCR,2024-06-24_17h34.20.351,LearnStrategy,2023.2.3,Win32,60.60606061,3,1,3,0.175925954,0,1,0,0,2.4205,rock_grid_rect_2,3,16,-1,-1,2.42,-0.338888889,-0.250925954,1,0,0,17.7777,Andesite_rect,1,17.778,0,2,0,2,0,1,,,,,,,,,,,,,
663107c78dd42ba9f097a9fc,TCR,2024-06-24_17h34.20.351,LearnStrategy,2023.2.3,Win32,60.60606061,3,1,4,0.154629686,-0.018518533,1,0,0,1.0102,rock_grid_rect_2,4,13,-1,-1,1.01,0.442592621,-0.236111111,1,0,0,15.2596,Gabbro_rect,4,15.26,1,3,0,3,0,1,,,,,,,,,,,,,
663107c78dd42ba9f097a9fc,TCR,2024-06-24_17h34.20.351,LearnStrategy,2023.2.3,Win32,60.60606061,3,1,5,0.175,-0.014814843,1,0,0,0.9191,rock_grid_rect_2,2,01,-1,-1,0.919,-0.074074046,-0.229629686,1,0,0,2.3535,Basalt_rect,2,2.354,1,4,0,4,0,1,,,,,,,,,,,,,
663107c78dd42ba9f097a9fc,TCR,2024-06-24_17h34.20.351,LearnStrategy,2023.2.3,Win32,60.60606061,3,1,6,0.183333333,-0.010185199,1,0,0,1.4968,rock_grid_rect_2,1,07,-1,-1,1.497,-0.329629601,-0.25648151,1,0,0,1.9897,Andesite_rect,1,1.99,1,5,0,5,0,1,,,,,,,,,,,,,
663107c78dd42ba9f097a9fc,TCR,2024-06-24_17h34.20.351,LearnStrategy,2023.2.3,Win32,60.60606061,3,1,7,0.162963019,-0.013888889,1,0,0,1.4359,rock_grid_rect_2,7,02,-1,-1,1.436,-0.081481425,-0.385185242,1,0,0,1.7168,Pegmatite_rect,6,1.717,0,6,0,6,0,1,,,,,,,,,,,,,
663107c78dd42ba9f097a9fc,TCR,2024-06-24_17h34.20.351,LearnStrategy,2023.2.3,Win32,60.60606061,3,1,8,0.115740797,-0.016666667,1,0,0,1.4394,rock_grid_rect_2,7,05,-1,-1,1.439,0.130555556,-0.385185242,1,0,0,21.2766,Peridotite_rect,7,21.277,1,7,0,7,0,1,,,,,,,,,,,,,
663107c78dd42ba9f097a9fc,TCR,2024-06-24_17h34.20.351,LearnStrategy,2023.2.3,Win32,60.60606061,3,1,9,0.118518575,-0.011111111,1,0,0,1.1058,rock_grid_rect_2,4,13,-1,-1,1.106,0.435185242,-0.246296353,1,0,0,17.5591,Gabbro_rect,4,17.559,1,8,0,8,0,1,,,,,,,,,,,,,
663107c78dd42ba9f097a9fc,TCR,2024-06-24_17h34.20.351,LearnStrategy,2023.2.3,Win32,60.60606061,3,1,10,0.160185242,0,1,0,0,1.4807,rock_grid_rect_2,3,07,-1,-1,1.481,0.159259288,-0.237037065,1,0,0,17.7181,Diorite_rect,3,17.718,1,9,0,9,0,1,,,,,,,,,,,,,
663107c78dd42ba9f097a9fc,TCR,2024-06-24_17h34.20.351,LearnStrategy,2023.2.3,Win32,60.60606061,3,1,11,0.129629686,-0.020370399,1,0,0,1.5864,rock_grid_rect_2,3,15,-1,-1,1.586,0.153703732,-0.25648151,1,0,0,5.4042,Diorite_rect,3,5.404,1,10,0,10,0,1,,,,,,,,,,,,,
663107c78dd42ba9f097a9fc,TCR,2024-06-24_17h34.20.351,LearnStrategy,2023.2.3,Win32,60.60606061,3,1,12,0.146296353,-0.005555556,1,0,0,0.8217,rock_grid_rect_2,5,09,-1,-1,0.822,-0.358333333,-0.398148176,1,0,0,1.6695,Obsidian_rect,5,1.67,1,11,0,11,0,1,,,,,,,,,,,,,
663107c78dd42ba9f097a9fc,TCR,2024-06-24_17h34.20.351,LearnStrategy,2023.2.3,Win32,60.60606061,3,1,13,0.176851908,-0.015740755,1,0,0,0.8016,rock_grid_rect_2,7,10,-1,-1,0.802,0.162963019,-0.392592621,1,0,0,4.7136,Peridotite_rect,7,4.714,1,12,0,12,0,1,,,,,,,,,,,,,
663107c78dd42ba9f097a9fc,TCR,2024-06-24_17h34.20.351,LearnStrategy,2023.2.3,Win32,60.60606061,3,1,14,0.177777778,-0.010185199,1,0,0,0.787,rock_grid_rect_2,6,05,-1,-1,0.787,-0.097222222,-0.392592621,1,0,0,14.629,Pegmatite_rect,6,14.629,1,13,0,13,0,1,,,,,,,,,,,,,
663107c78dd42ba9f097a9fc,TCR,2024-06-24_17h34.20.351,LearnStrategy,2023.2.3,Win32,60.60606061,3,1,15,0.180555556,-0.023148176,1,0,0,0.6865,rock_grid_rect_2,4,09,-1,-1,0.687,-0.096296268,-0.234259288,1,0,0,5.1792,Basalt_rect,2,5.179,0,14,0,14,0,1,,,,,,,,,,,,,
663107c78dd42ba9f097a9fc,TCR,2024-06-24_17h34.20.351,LearnStrategy,2023.2.3,Win32,60.60606061,3,1,16,0.150925954,0.008333333,1,0,0,1.3108,rock_grid_rect_2,1,06,-1,-1,1.311,-0.338888889,-0.235185242,1,0,0,1.6537,Andesite_rect,1,1.654,1,15,0,15,0,1,,,,,,,,,,,,,
663107c78dd42ba9f097a9fc,TCR,2024-06-24_17h34.20.351,LearnStrategy,2023.2.3,Win32,60.60606061,3,2,1,,,,,,,,8,04,,,,,,,,,,,8,2.458,1,,,,,,0.463888889,-0.396296353,1,0,0,2.4583,Pumice_rect,0,0,0,0,1,
663107c78dd42ba9f097a9fc,TCR,2024-06-24_17h34.20.351,LearnStrategy,2023.2.3,Win32,60.60606061,3,2,2,,,,,,,,4,08,,,,,,,,,,,4,8.372,1,,,,,,0.399074131,-0.25648151,1,0,0,8.3719,Gabbro_rect,1,0,1,0,1,
663107c78dd42ba9f097a9fc,TCR,2024-06-24_17h34.20.351,LearnStrategy,2023.2.3,Win32,60.60606061,3,2,3,,,,,,,,6,16,,,,,,,,,,,6,18.241,1,,,,,,-0.117592536,-0.412037065,1,0,0,18.241,Pegmatite_rect,2,0,2,0,1,
663107c78dd42ba9f097a9fc,TCR,2024-06-24_17h34.20.351,LearnStrategy,2023.2.3,Win32,60.60606061,3,2,4,,,,,,,,6,06,,,,,,,,,,,3,8.855,0,,,,,,0.150925954,-0.232407464,1,0,0,8.8553,Diorite_rect,3,0,3,0,1,
663107c78dd42ba9f097a9fc,TCR,2024-06-24_17h34.20.351,LearnStrategy,2023.2.3,Win32,60.60606061,3,2,5,,,,,,,,3,13,,,,,,,,,,,3,3.653,1,,,,,,0.130555556,-0.241666667,1,0,0,3.6535,Diorite_rect,4,0,4,0,1,
663107c78dd42ba9f097a9fc,TCR,2024-06-24_17h34.20.351,LearnStrategy,2023.2.3,Win32,60.60606061,3,2,6,,,,,,,,2,04,,,,,,,,,,,2,4.758,1,,,,,,-0.091666667,-0.255555556,1,0,0,4.758,Basalt_rect,5,0,5,0,1,
663107c78dd42ba9f097a9fc,TCR,2024-06-24_17h34.20.351,LearnStrategy,2023.2.3,Win32,60.60606061,3,2,7,,,,,,,,7,07,,,,,,,,,,,7,12.275,1,,,,,,0.151851908,-0.408333333,1,0,0,12.2746,Peridotite_rect,6,0,6,0,1,
663107c78dd42ba9f097a9fc,TCR,2024-06-24_17h34.20.351,LearnStrategy,2023.2.3,Win32,60.60606061,3,2,8,,,,,,,,1,09,,,,,,,,,,,1,16.957,1,,,,,,-0.363888889,-0.247222222,1,0,0,16.9571,Andesite_rect,7,0,7,0,1,
663107c78dd42ba9f097a9fc,TCR,2024-06-24_17h34.20.351,LearnStrategy,2023.2.3,Win32,60.60606061,3,2,9,,,,,,,,7,08,,,,,,,,,,,7,4.113,1,,,,,,0.128703732,-0.398148176,1,0,0,4.1127,Peridotite_rect,8,0,8,0,1,
663107c78dd42ba9f097a9fc,TCR,2024-06-24_17h34.20.351,LearnStrategy,2023.2.3,Win32,60.60606061,3,2,10,,,,,,,,2,11,,,,,,,,,,,8,2.247,0,,,,,,0.424074131,-0.380555556,1,0,0,2.2471,Pumice_rect,9,0,9,0,1,
663107c78dd42ba9f097a9fc,TCR,2024-06-24_17h34.20.351,LearnStrategy,2023.2.3,Win32,60.60606061,3,2,11,,,,,,,,5,16,,,,,,,,,,,5,1.879,1,,,,,,-0.360185157,-0.398148176,1,0,0,1.8787,Obsidian_rect,10,0,10,0,1,
663107c78dd42ba9f097a9fc,TCR,2024-06-24_17h34.20.351,LearnStrategy,2023.2.3,Win32,60.60606061,3,2,12,,,,,,,,1,04,,,,,,,,,,,3,11.776,0,,,,,,0.147222222,-0.25648151,1,0,0,11.7765,Diorite_rect,11,0,11,0,1,
663107c78dd42ba9f097a9fc,TCR,2024-06-24_17h34.20.351,LearnStrategy,2023.2.3,Win32,60.60606061,3,2,13,,,,,,,,3,06,,,,,,,,,,,3,4.058,1,,,,,,0.173148176,-0.230555556,1,0,0,4.0581,Diorite_rect,12,0,12,0,1,
663107c78dd42ba9f097a9fc,TCR,2024-06-24_17h34.20.351,LearnStrategy,2023.2.3,Win32,60.60606061,3,2,14,,,,,,,,4,11,,,,,,,,,,,2,2.402,0,,,,,,-0.099074046,-0.245370399,1,0,0,2.4025,Basalt_rect,13,0,13,0,1,
663107c78dd42ba9f097a9fc,TCR,2024-06-24_17h34.20.351,LearnStrategy,2023.2.3,Win32,60.60606061,3,2,15,,,,,,,,5,12,,,,,,,,,,,5,2.222,1,,,,,,-0.370370356,-0.393518575,1,0,0,2.2223,Obsidian_rect,14,0,14,0,1,
663107c78dd42ba9f097a9fc,TCR,2024-06-24_17h34.20.351,LearnStrategy,2023.2.3,Win32,60.60606061,3,2,16,,,,,,,,8,02,,,,,,,,,,,8,1.285,1,,,,,,0.419444444,-0.384259288,1,0,0,1.2852,Pumice_rect,15,0,15,0,1,
663107c78dd42ba9f097a9fc,TCR,2024-06-24_17h34.20.351,LearnStrategy,2023.2.3,Win32,60.60606061,4,1,1,0.147222222,0.001851824,1,0,0,12.0314,rock_grid_rect_2,3,16,-1,-1,12.031,0.125,-0.23148151,1,0,0,7.368,Diorite_rect,3,7.368,1,0,0,0,0,1,,,,,,,,,,,,,
663107c78dd42ba9f097a9fc,TCR,2024-06-24_17h34.20.351,LearnStrategy,2023.2.3,Win32,60.60606061,4,1,2,0.149074131,-0.020370399,1,0,0,1.0773,rock_grid_rect_2,7,16,-1,-1,1.077,0.132407464,-0.400925954,1,0,0,10.993,Peridotite_rect,7,10.993,1,1,0,1,0,1,,,,,,,,,,,,,
663107c78dd42ba9f097a9fc,TCR,2024-06-24_17h34.20.351,LearnStrategy,2023.2.3,Win32,60.60606061,4,1,3,0.15,-0.020370399,1,0,0,0.8113,rock_grid_rect_2,1,02,-1,-1,0.811,0.148148176,-0.232407464,1,0,0,16.2534,Diorite_rect,3,16.253,0,2,0,2,0,1,,,,,,,,,,,,,
663107c78dd42ba9f097a9fc,TCR,2024-06-24_17h34.20.351,LearnStrategy,2023.2.3,Win32,60.60606061,4,1,4,0.077777778,0.007407379,1,0,0,2.4776,rock_grid_rect_2,3,08,-1,-1,2.478,0.134259288,-0.228703732,1,0,0,19.6029,Diorite_rect,3,19.603,1,3,0,3,0,1,,,,,,,,,,,,,
663107c78dd42ba9f097a9fc,TCR,2024-06-24_17h34.20.351,LearnStrategy,2023.2.3,Win32,60.60606061,4,1,5,0.151851908,0.001851824,1,0,0,0.7865,rock_grid_rect_2,1,01,-1,-1,0.786,0.425925954,-0.23148151,1,0,0,11.188,Gabbro_rect,4,11.188,0,4,0,4,0,1,,,,,,,,,,,,,
663107c78dd42ba9f097a9fc,TCR,2024-06-24_17h34.20.351,LearnStrategy,2023.2.3,Win32,60.60606061,4,1,6,0.151851908,-0.012037065,1,0,0,0.811,rock_grid_rect_2,7,16,-1,-1,0.811,0.141666667,-0.392592621,1,0,0,8.5211,Peridotite_rect,7,8.521,1,5,0,5,0,1,,,,,,,,,,,,,
663107c78dd42ba9f097a9fc,TCR,2024-06-24_17h34.20.351,LearnStrategy,2023.2.3,Win32,60.60606061,4,1,7,0.175,-0.014814843,1,0,0,0.8198,rock_grid_rect_2,3,07,-1,-1,0.82,0.154629686,-0.235185242,1,0,0,10.5465,Diorite_rect,3,10.546,1,6,0,6,0,1,,,,,,,,,,,,,
663107c78dd42ba9f097a9fc,TCR,2024-06-24_17h34.20.351,LearnStrategy,2023.2.3,Win32,60.60606061,4,1,8,0.180555556,-0.015740755,1,0,0,1.231,rock_grid_rect_2,5,07,-1,-1,1.231,-0.35,-0.407407464,1,0,0,15.11,Obsidian_rect,5,15.11,1,7,0,7,0,1,,,,,,,,,,,,,
663107c78dd42ba9f097a9fc,TCR,2024-06-24_17h34.20.351,LearnStrategy,2023.2.3,Win32,60.60606061,4,1,9,0.161111111,-0.013888889,1,0,0,2.7691,rock_grid_rect_2,4,09,-1,-1,2.769,-0.081481425,-0.228703732,1,0,0,2.9298,Basalt_rect,2,2.93,0,8,0,8,0,1,,,,,,,,,,,,,
663107c78dd42ba9f097a9fc,TCR,2024-06-24_17h34.20.351,LearnStrategy,2023.2.3,Win32,60.60606061,4,1,10,0.150925954,-0.016666667,1,0,0,1.8118,rock_grid_rect_2,8,14,-1,-1,1.812,0.426851908,-0.419444444,1,0,0,1.2982,Pumice_rect,8,1.298,1,9,0,9,0,1,,,,,,,,,,,,,
663107c78dd42ba9f097a9fc,TCR,2024-06-24_17h34.20.351,LearnStrategy,2023.2.3,Win32,60.60606061,4,1,11,0.182407464,0.011111111,1,0,0,1.2986,rock_grid_rect_2,2,01,-1,-1,1.299,-0.108333333,-0.228703732,1,0,0,27.3043,Basalt_rect,2,27.304,1,10,0,10,0,1,,,,,,,,,,,,,
663107c78dd42ba9f097a9fc,TCR,2024-06-24_17h34.20.351,LearnStrategy,2023.2.3,Win32,60.60606061,4,1,12,0.068518575,-0.014814843,1,0,0,6.9686,rock_grid_rect_2,2,01,-1,-1,6.969,-0.111111111,-0.237037065,1,0,0,2.3153,Basalt_rect,2,2.315,1,11,0,11,0,1,,,,,,,,,,,,,
663107c78dd42ba9f097a9fc,TCR,2024-06-24_17h34.20.351,LearnStrategy,2023.2.3,Win32,60.60606061,4,1,13,0.194444444,0.008333333,1,0,0,1.2537,rock_grid_rect_2,6,11,-1,-1,1.254,-0.091666667,-0.394444444,1,0,0,9.1874,Pegmatite_rect,6,9.187,1,12,0,12,0,1,,,,,,,,,,,,,
663107c78dd42ba9f097a9fc,TCR,2024-06-24_17h34.20.351,LearnStrategy,2023.2.3,Win32,60.60606061,4,1,14,0.186111111,-0.012962977,1,0,0,0.7971,rock_grid_rect_2,4,05,-1,-1,0.797,0.400925954,-0.255555556,1,0,0,17.2302,Gabbro_rect,4,17.23,1,13,0,13,0,1,,,,,,,,,,,,,
663107c78dd42ba9f097a9fc,TCR,2024-06-24_17h34.20.351,LearnStrategy,2023.2.3,Win32,60.60606061,4,1,15,0.198148176,-0.003703732,1,0,0,0.7196,rock_grid_rect_2,4,13,-1,-1,0.72,0.403703732,-0.237963019,1,0,0,29.7204,Gabbro_rect,4,29.72,1,14,0,14,0,1,,,,,,,,,,,,,
663107c78dd42ba9f097a9fc,TCR,2024-06-24_17h34.20.351,LearnStrategy,2023.2.3,Win32,60.60606061,4,1,16,0.167592621,-0.009259288,1,0,0,0.8998,rock_grid_rect_2,6,09,-1,-1,0.9,-0.090740712,-0.398148176,1,0,0,6.7465,Pegmatite_rect,6,6.746,1,15,0,15,0,1,,,,,,,,,,,,,
663107c78dd42ba9f097a9fc,TCR,2024-06-24_17h34.20.351,LearnStrategy,2023.2.3,Win32,60.60606061,4,2,1,,,,,,,,2,10,,,,,,,,,,,2,10.161,1,,,,,,-0.083333333,-0.237037065,1,0,0,10.1606,Basalt_rect,0,0,0,0,1,
663107c78dd42ba9f097a9fc,TCR,2024-06-24_17h34.20.351,LearnStrategy,2023.2.3,Win32,60.60606061,4,2,2,,,,,,,,7,15,,,,,,,,,,,7,8.424,1,,,,,,0.125,-0.409259288,1,0,0,8.4243,Peridotite_rect,1,0,1,0,1,
663107c78dd42ba9f097a9fc,TCR,2024-06-24_17h34.20.351,LearnStrategy,2023.2.3,Win32,60.60606061,4,2,3,,,,,,,,5,06,,,,,,,,,,,5,1.887,1,,,,,,-0.365740712,-0.393518575,1,0,0,1.8866,Obsidian_rect,2,0,2,0,1,
663107c78dd42ba9f097a9fc,TCR,2024-06-24_17h34.20.351,LearnStrategy,2023.2.3,Win32,60.60606061,4,2,4,,,,,,,,4,14,,,,,,,,,,,4,35.767,1,,,,,,0.417592621,-0.257407464,1,0,0,35.7669,Gabbro_rect,3,0,3,0,1,
663107c78dd42ba9f097a9fc,TCR,2024-06-24_17h34.20.351,LearnStrategy,2023.2.3,Win32,60.60606061,4,2,5,,,,,,,,3,09,,,,,,,,,,,3,8.502,1,,,,,,0.154629686,-0.235185242,1,0,0,8.5025,Diorite_rect,4,0,4,0,1,
663107c78dd42ba9f097a9fc,TCR,2024-06-24_17h34.20.351,LearnStrategy,2023.2.3,Win32,60.60606061,4,2,6,,,,,,,,8,04,,,,,,,,,,,8,1.255,1,,,,,,0.388888889,-0.389814843,1,0,0,1.2548,Pumice_rect,5,0,5,0,1,
663107c78dd42ba9f097a9fc,TCR,2024-06-24_17h34.20.351,LearnStrategy,2023.2.3,Win32,60.60606061,4,2,7,,,,,,,,4,11,,,,,,,,,,,2,46.341,0,,,,,,-0.122222222,-0.229629686,1,0,0,46.3414,Basalt_rect,6,0,6,0,1,
663107c78dd42ba9f097a9fc,TCR,2024-06-24_17h34.20.351,LearnStrategy,2023.2.3,Win32,60.60606061,4,2,8,,,,,,,,6,15,,,,,,,,,,,6,22.749,1,,,,,,-0.137036981,-0.405555556,1,0,0,22.7492,Pegmatite_rect,7,0,7,0,1,
663107c78dd42ba9f097a9fc,TCR,2024-06-24_17h34.20.351,LearnStrategy,2023.2.3,Win32,60.60606061,4,2,9,,,,,,,,5,11,,,,,,,,,,,5,24.663,1,,,,,,-0.396296268,-0.409259288,1,0,0,24.6628,Obsidian_rect,8,0,8,0,1,
663107c78dd42ba9f097a9fc,TCR,2024-06-24_17h34.20.351,LearnStrategy,2023.2.3,Win32,60.60606061,4,2,10,,,,,,,,6,16,,,,,,,,,,,6,27.913,1,,,,,,-0.115740712,-0.410185242,1,0,0,27.9133,Pegmatite_rect,9,0,9,0,1,
663107c78dd42ba9f097a9fc,TCR,2024-06-24_17h34.20.351,LearnStrategy,2023.2.3,Win32,60.60606061,4,2,11,,,,,,,,1,09,,,,,,,,,,,1,15.092,1,,,,,,-0.391666667,-0.251851908,1,0,0,15.0916,Andesite_rect,10,0,10,0,1,
663107c78dd42ba9f097a9fc,TCR,2024-06-24_17h34.20.351,LearnStrategy,2023.2.3,Win32,60.60606061,4,2,12,,,,,,,,3,13,,,,,,,,,,,1,5.157,0,,,,,,-0.362037023,-0.248148176,1,0,0,5.1573,Andesite_rect,11,0,11,0,1,
663107c78dd42ba9f097a9fc,TCR,2024-06-24_17h34.20.351,LearnStrategy,2023.2.3,Win32,60.60606061,4,2,13,,,,,,,,2,11,,,,,,,,,,,8,1.65,0,,,,,,0.388888889,-0.403703732,1,0,0,1.65,Pumice_rect,12,0,12,0,1,
663107c78dd42ba9f097a9fc,TCR,2024-06-24_17h34.20.351,LearnStrategy,2023.2.3,Win32,60.60606061,4,2,14,,,,,,,,8,06,,,,,,,,,,,8,0.953,1,,,,,,0.40648151,-0.399074131,1,0,0,0.9527,Pumice_rect,13,0,13,0,1,
663107c78dd42ba9f097a9fc,TCR,2024-06-24_17h34.20.351,LearnStrategy,2023.2.3,Win32,60.60606061,4,2,15,,,,,,,,7,06,,,,,,,,,,,7,4.369,1,,,,,,0.139814843,-0.399074131,1,0,0,4.369,Peridotite_rect,14,0,14,0,1,
663107c78dd42ba9f097a9fc,TCR,2024-06-24_17h34.20.351,LearnStrategy,2023.2.3,Win32,60.60606061,4,2,16,,,,,,,,1,04,,,,,,,,,,,1,1.99,1,,,,,,-0.359259245,-0.249074131,1,0,0,1.9899,Andesite_rect,15,0,15,0,1,
663107c78dd42ba9f097a9fc,TCR,2024-06-24_17h34.20.351,LearnStrategy,2023.2.3,Win32,60.60606061,5,1,1,0.147222222,-0.002777778,1,0,0,5.3012,rock_grid_rect_2,3,02,-1,-1,5.301,-0.410185157,-0.248148176,1,0,0,18.8321,Andesite_rect,1,18.832,0,0,0,0,0,1,,,,,,,,,,,,,
663107c78dd42ba9f097a9fc,TCR,2024-06-24_17h34.20.351,LearnStrategy,2023.2.3,Win32,60.60606061,5,1,2,0.182407464,0.005555556,1,0,0,0.9781,rock_grid_rect_2,2,01,-1,-1,0.978,-0.090740712,-0.23148151,1,0,0,29.1409,Basalt_rect,2,29.141,1,1,0,1,0,1,,,,,,,,,,,,,
663107c78dd42ba9f097a9fc,TCR,2024-06-24_17h34.20.351,LearnStrategy,2023.2.3,Win32,60.60606061,5,1,3,0.167592621,-0.012037065,1,0,0,0.8989,rock_grid_rect_2,4,12,-1,-1,0.899,-0.372222222,-0.248148176,1,0,0,7.0871,Andesite_rect,1,7.087,0,2,0,2,0,1,,,,,,,,,,,,,
663107c78dd42ba9f097a9fc,TCR,2024-06-24_17h34.20.351,LearnStrategy,2023.2.3,Win32,60.60606061,5,1,4,0.163888889,-0.024074088,1,0,0,1.8996,rock_grid_rect_2,1,01,-1,-1,1.9,-0.387037023,-0.260185242,1,0,0,10.4182,Andesite_rect,1,10.418,1,3,0,3,0,1,,,,,,,,,,,,,
663107c78dd42ba9f097a9fc,TCR,2024-06-24_17h34.20.351,LearnStrategy,2023.2.3,Win32,60.60606061,5,1,5,0.161111111,-0.002777778,1,0,0,1.5197,rock_grid_rect_2,2,05,-1,-1,1.52,-0.079629601,-0.250925954,1,0,0,2.4225,Basalt_rect,2,2.423,1,4,0,4,0,1,,,,,,,,,,,,,
663107c78dd42ba9f097a9fc,TCR,2024-06-24_17h34.20.351,LearnStrategy,2023.2.3,Win32,60.60606061,5,1,6,0.186111111,-0.018518533,1,0,0,0.7207,rock_grid_rect_2,4,13,-1,-1,0.721,0.435185242,-0.265740797,1,0,0,21.8628,Gabbro_rect,4,21.863,1,5,0,5,0,1,,,,,,,,,,,,,
663107c78dd42ba9f097a9fc,TCR,2024-06-24_17h34.20.351,LearnStrategy,2023.2.3,Win32,60.60606061,5,1,7,0.159259288,-0.00648151,1,0,0,0.9191,rock_grid_rect_2,3,08,-1,-1,0.919,-0.391666667,-0.251851908,1,0,0,14.0474,Andesite_rect,1,14.047,0,6,0,6,0,1,,,,,,,,,,,,,
663107c78dd42ba9f097a9fc,TCR,2024-06-24_17h34.20.351,LearnStrategy,2023.2.3,Win32,60.60606061,5,1,8,0.003703732,-0.016666667,1,0,0,2.1771,rock_grid_rect_2,6,13,-1,-1,2.177,-0.078703647,-0.418518575,1,0,0,25.5705,Pegmatite_rect,6,25.571,1,7,0,7,0,1,,,,,,,,,,,,,
663107c78dd42ba9f097a9fc,TCR,2024-06-24_17h34.20.351,LearnStrategy,2023.2.3,Win32,60.60606061,5,1,9,0.168518575,-0.003703732,1,0,0,0.8523,rock_grid_rect_2,6,05,-1,-1,0.852,-0.145370314,-0.414814843,1,0,0,6.2209,Pegmatite_rect,6,6.221,1,8,0,8,0,1,,,,,,,,,,,,,
663107c78dd42ba9f097a9fc,TCR,2024-06-24_17h34.20.351,LearnStrategy,2023.2.3,Win32,60.60606061,5,1,10,0.172222222,-0.013888889,1,0,0,0.8921,rock_grid_rect_2,5,09,-1,-1,0.892,-0.355555556,-0.403703732,1,0,0,1.3038,Obsidian_rect,5,1.304,1,9,0,9,0,1,,,,,,,,,,,,,
663107c78dd42ba9f097a9fc,TCR,2024-06-24_17h34.20.351,LearnStrategy,2023.2.3,Win32,60.60606061,5,1,11,0.157407464,0.010185157,1,0,0,0.704,rock_grid_rect_2,4,13,-1,-1,0.704,0.45648151,-0.257407464,1,0,0,1.2207,Gabbro_rect,4,1.221,1,10,0,10,0,1,,,,,,,,,,,,,
663107c78dd42ba9f097a9fc,TCR,2024-06-24_17h34.20.351,LearnStrategy,2023.2.3,Win32,60.60606061,5,1,12,0.177777778,-0.018518533,1,0,0,0.6873,rock_grid_rect_2,2,14,-1,-1,0.687,0.418518575,-0.25648151,1,0,0,3.3455,Gabbro_rect,4,3.345,0,11,0,11,0,1,,,,,,,,,,,,,
663107c78dd42ba9f097a9fc,TCR,2024-06-24_17h34.20.351,LearnStrategy,2023.2.3,Win32,60.60606061,5,1,13,0.144444444,-0.00648151,1,0,0,1.5375,rock_grid_rect_2,3,15,-1,-1,1.537,0.164814843,-0.237963019,1,0,0,19.0593,Diorite_rect,3,19.059,1,12,0,12,0,1,,,,,,,,,,,,,
663107c78dd42ba9f097a9fc,TCR,2024-06-24_17h34.20.351,LearnStrategy,2023.2.3,Win32,60.60606061,5,1,14,0.129629686,-0.019444444,1,0,0,1.4032,rock_grid_rect_2,7,16,-1,-1,1.403,0.137963019,-0.389814843,1,0,0,3.6698,Peridotite_rect,7,3.67,1,13,0,13,0,1,,,,,,,,,,,,,
663107c78dd42ba9f097a9fc,TCR,2024-06-24_17h34.20.351,LearnStrategy,2023.2.3,Win32,60.60606061,5,1,15,0.191666667,0.002777778,1,0,0,0.7025,rock_grid_rect_2,8,13,-1,-1,0.702,0.426851908,-0.388888889,1,0,0,1.599,Pumice_rect,8,1.599,1,14,0,14,0,1,,,,,,,,,,,,,
663107c78dd42ba9f097a9fc,TCR,2024-06-24_17h34.20.351,LearnStrategy,2023.2.3,Win32,60.60606061,5,1,16,0.152777778,-0.012037065,1,0,0,1.4206,rock_grid_rect_2,1,07,-1,-1,1.421,0.153703732,-0.249074131,1,0,0,11.4978,Diorite_rect,3,11.498,0,15,0,15,0,1,,,,,,,,,,,,,
663107c78dd42ba9f097a9fc,TCR,2024-06-24_17h34.20.351,LearnStrategy,2023.2.3,Win32,60.60606061,5,2,1,,,,,,,,7,12,,,,,,,,,,,7,21.474,1,,,,,,0.155555556,-0.387963019,1,0,0,21.4745,Peridotite_rect,0,0,0,0,1,
663107c78dd42ba9f097a9fc,TCR,2024-06-24_17h34.20.351,LearnStrategy,2023.2.3,Win32,60.60606061,5,2,2,,,,,,,,4,03,,,,,,,,,,,1,21.697,0,,,,,,-0.385185157,-0.255555556,1,0,0,21.6967,Andesite_rect,1,0,1,0,1,
663107c78dd42ba9f097a9fc,TCR,2024-06-24_17h34.20.351,LearnStrategy,2023.2.3,Win32,60.60606061,5,2,3,,,,,,,,6,12,,,,,,,,,,,3,22.95,0,,,,,,0.158333333,-0.261111111,1,0,0,22.9498,Diorite_rect,2,0,2,0,1,
663107c78dd42ba9f097a9fc,TCR,2024-06-24_17h34.20.351,LearnStrategy,2023.2.3,Win32,60.60606061,5,2,4,,,,,,,,5,16,,,,,,,,,,,5,1.273,1,,,,,,-0.401851824,-0.409259288,1,0,0,1.2726,Obsidian_rect,3,0,3,0,1,
663107c78dd42ba9f097a9fc,TCR,2024-06-24_17h34.20.351,LearnStrategy,2023.2.3,Win32,60.60606061,5,2,5,,,,,,,,8,02,,,,,,,,,,,8,1.117,1,,,,,,0.451851908,-0.392592621,1,0,0,1.1165,Pumice_rect,4,0,4,0,1,
663107c78dd42ba9f097a9fc,TCR,2024-06-24_17h34.20.351,LearnStrategy,2023.2.3,Win32,60.60606061,5,2,6,,,,,,,,6,10,,,,,,,,,,,7,3.922,0,,,,,,0.140740797,-0.409259288,1,0,0,3.9217,Peridotite_rect,5,0,5,0,1,
663107c78dd42ba9f097a9fc,TCR,2024-06-24_17h34.20.351,LearnStrategy,2023.2.3,Win32,60.60606061,5,2,7,,,,,,,,5,10,,,,,,,,,,,5,1.824,1,,,,,,-0.40370369,-0.388888889,1,0,0,1.8238,Obsidian_rect,6,0,6,0,1,
663107c78dd42ba9f097a9fc,TCR,2024-06-24_17h34.20.351,LearnStrategy,2023.2.3,Win32,60.60606061,5,2,8,,,,,,,,2,04,,,,,,,,,,,2,3.325,1,,,,,,-0.109259203,-0.247222222,1,0,0,3.325,Basalt_rect,7,0,7,0,1,
663107c78dd42ba9f097a9fc,TCR,2024-06-24_17h34.20.351,LearnStrategy,2023.2.3,Win32,60.60606061,5,2,9,,,,,,,,7,04,,,,,,,,,,,7,6,1,,,,,,0.148148176,-0.4,1,0,0,5.9999,Peridotite_rect,8,0,8,0,1,
663107c78dd42ba9f097a9fc,TCR,2024-06-24_17h34.20.351,LearnStrategy,2023.2.3,Win32,60.60606061,5,2,10,,,,,,,,4,08,,,,,,,,,,,4,5.096,1,,,,,,0.459259288,-0.232407464,1,0,0,5.0961,Gabbro_rect,9,0,9,0,1,
663107c78dd42ba9f097a9fc,TCR,2024-06-24_17h34.20.351,LearnStrategy,2023.2.3,Win32,60.60606061,5,2,11,,,,,,,,3,14,,,,,,,,,,,1,9.353,0,,,,,,-0.380555556,-0.265740797,1,0,0,9.3533,Andesite_rect,10,0,10,0,1,
663107c78dd42ba9f097a9fc,TCR,2024-06-24_17h34.20.351,LearnStrategy,2023.2.3,Win32,60.60606061,5,2,12,,,,,,,,1,16,,,,,,,,,,,1,3.774,1,,,,,,-0.369444444,-0.250925954,1,0,0,3.7745,Andesite_rect,11,0,11,0,1,
663107c78dd42ba9f097a9fc,TCR,2024-06-24_17h34.20.351,LearnStrategy,2023.2.3,Win32,60.60606061,5,2,13,,,,,,,,8,09,,,,,,,,,,,8,0.969,1,,,,,,0.446296353,-0.385185242,1,0,0,0.9695,Pumice_rect,12,0,12,0,1,
663107c78dd42ba9f097a9fc,TCR,2024-06-24_17h34.20.351,LearnStrategy,2023.2.3,Win32,60.60606061,5,2,14,,,,,,,,3,10,,,,,,,,,,,3,16.908,1,,,,,,0.151851908,-0.246296353,1,0,0,16.9084,Diorite_rect,13,0,13,0,1,
663107c78dd42ba9f097a9fc,TCR,2024-06-24_17h34.20.351,LearnStrategy,2023.2.3,Win32,60.60606061,5,2,15,,,,,,,,1,05,,,,,,,,,,,3,12.791,0,,,,,,0.124074131,-0.238888889,1,0,0,12.7907,Diorite_rect,14,0,14,0,1,
663107c78dd42ba9f097a9fc,TCR,2024-06-24_17h34.20.351,LearnStrategy,2023.2.3,Win32,60.60606061,5,2,16,,,,,,,,2,08,,,,,,,,,,,2,2.831,1,,,,,,-0.109259203,-0.229629686,1,0,0,2.8313,Basalt_rect,15,0,15,0,1,
663107c78dd42ba9f097a9fc,TCR,2024-06-24_17h34.20.351,LearnStrategy,2023.2.3,Win32,60.60606061,6,1,1,0.15648151,0.004629601,1,0,0,2.2304,rock_grid_rect_2,3,07,-1,-1,2.23,0.178703732,-0.25,1,0,0,6.9091,Diorite_rect,3,6.909,1,0,0,0,0,1,,,,,,,,,,,,,
663107c78dd42ba9f097a9fc,TCR,2024-06-24_17h34.20.351,LearnStrategy,2023.2.3,Win32,60.60606061,6,1,2,0.140740797,-0.015740755,1,0,0,0.7863,rock_grid_rect_2,6,03,-1,-1,0.786,0.137037065,-0.404629686,1,0,0,2.097,Peridotite_rect,7,2.097,0,1,0,1,0,1,,,,,,,,,,,,,
663107c78dd42ba9f097a9fc,TCR,2024-06-24_17h34.20.351,LearnStrategy,2023.2.3,Win32,60.60606061,6,1,3,0.158333333,-0.001851866,1,0,0,1.5061,rock_grid_rect_2,3,02,-1,-1,1.506,0.442592621,-0.249074131,1,0,0,6.6543,Gabbro_rect,4,6.654,0,2,0,2,0,1,,,,,,,,,,,,,
663107c78dd42ba9f097a9fc,TCR,2024-06-24_17h34.20.351,LearnStrategy,2023.2.3,Win32,60.60606061,6,1,4,0.140740797,-0.000925954,1,0,0,0.7072,rock_grid_rect_2,4,13,-1,-1,0.707,0.445370399,-0.254629686,1,0,0,1.5239,Gabbro_rect,4,1.524,1,3,0,3,0,1,,,,,,,,,,,,,
663107c78dd42ba9f097a9fc,TCR,2024-06-24_17h34.20.351,LearnStrategy,2023.2.3,Win32,60.60606061,6,1,5,0.195370399,-0.025,1,0,0,0.8534,rock_grid_rect_2,3,12,-1,-1,0.853,0.134259288,-0.250925954,1,0,0,4.5999,Diorite_rect,3,4.6,1,4,0,4,0,1,,,,,,,,,,,,,
663107c78dd42ba9f097a9fc,TCR,2024-06-24_17h34.20.351,LearnStrategy,2023.2.3,Win32,60.60606061,6,1,6,0.172222222,-0.009259288,1,0,0,1.2087,rock_grid_rect_2,1,06,-1,-1,1.209,-0.365740712,-0.234259288,1,0,0,1.5933,Andesite_rect,1,1.593,1,5,0,5,0,1,,,,,,,,,,,,,
663107c78dd42ba9f097a9fc,TCR,2024-06-24_17h34.20.351,LearnStrategy,2023.2.3,Win32,60.60606061,6,1,7,0.155555556,-0.02129631,1,0,0,0.759,rock_grid_rect_2,1,10,-1,-1,0.759,-0.309259245,-0.266666667,1,0,0,8.0037,Andesite_rect,1,8.004,1,6,0,6,0,1,,,,,,,,,,,,,
663107c78dd42ba9f097a9fc,TCR,2024-06-24_17h34.20.351,LearnStrategy,2023.2.3,Win32,60.60606061,6,1,8,0.199074131,-0.010185199,1,0,0,0.8189,rock_grid_rect_2,4,12,-1,-1,0.819,0.463888889,-0.252777778,1,0,0,4.4452,Gabbro_rect,4,4.445,1,7,0,7,0,1,,,,,,,,,,,,,
663107c78dd42ba9f097a9fc,TCR,2024-06-24_17h34.20.351,LearnStrategy,2023.2.3,Win32,60.60606061,6,1,9,0.205555556,-0.002777778,1,0,0,0.7788,rock_grid_rect_2,2,01,-1,-1,0.779,-0.078703647,-0.249074131,1,0,0,3.0706,Basalt_rect,2,3.071,1,8,0,8,0,1,,,,,,,,,,,,,
663107c78dd42ba9f097a9fc,TCR,2024-06-24_17h34.20.351,LearnStrategy,2023.2.3,Win32,60.60606061,6,1,10,0.18148151,-0.008333333,1,0,0,0.6866,rock_grid_rect_2,6,09,-1,-1,0.687,0.188888889,-0.417592621,1,0,0,2.8205,Peridotite_rect,7,2.82,0,9,0,9,0,1,,,,,,,,,,,,,
663107c78dd42ba9f097a9fc,TCR,2024-06-24_17h34.20.351,LearnStrategy,2023.2.3,Win32,60.60606061,6,1,11,0.145370399,-0.024074088,1,0,0,0.6767,rock_grid_rect_2,2,14,-1,-1,0.677,0.460185242,-0.251851908,1,0,0,6.5542,Gabbro_rect,4,6.554,0,10,0,10,0,1,,,,,,,,,,,,,
663107c78dd42ba9f097a9fc,TCR,2024-06-24_17h34.20.351,LearnStrategy,2023.2.3,Win32,60.60606061,6,1,12,0.171296353,-0.003703732,1,0,0,0.799,rock_grid_rect_2,6,11,-1,-1,0.799,-0.084259203,-0.391666667,1,0,0,29.0709,Pegmatite_rect,6,29.071,1,11,0,11,0,1,,,,,,,,,,,,,
663107c78dd42ba9f097a9fc,TCR,2024-06-24_17h34.20.351,LearnStrategy,2023.2.3,Win32,60.60606061,6,1,13,0.169444444,-0.025,1,0,0,0.9136,rock_grid_rect_2,4,16,-1,-1,0.914,0.471296353,-0.25,1,0,0,4.0821,Gabbro_rect,4,4.082,1,12,0,12,0,1,,,,,,,,,,,,,
663107c78dd42ba9f097a9fc,TCR,2024-06-24_17h34.20.351,LearnStrategy,2023.2.3,Win32,60.60606061,6,1,14,0.15648151,0.012037023,1,0,0,0.7866,rock_grid_rect_2,5,04,-1,-1,0.787,-0.377777778,-0.414814843,1,0,0,1.184,Obsidian_rect,5,1.184,1,13,0,13,0,1,,,,,,,,,,,,,
663107c78dd42ba9f097a9fc,TCR,2024-06-24_17h34.20.351,LearnStrategy,2023.2.3,Win32,60.60606061,6,1,15,0.163888889,-0.014814843,1,0,0,0.6873,rock_grid_rect_2,8,08,-1,-1,0.687,0.474074131,-0.405555556,1,0,0,2.2541,Pumice_rect,8,2.254,1,14,0,14,0,1,,,,,,,,,,,,,
663107c78dd42ba9f097a9fc,TCR,2024-06-24_17h34.20.351,LearnStrategy,2023.2.3,Win32,60.60606061,6,1,16,0.195370399,-0.024074088,1,0,0,0.8204,rock_grid_rect_2,7,13,-1,-1,0.82,0.170370399,-0.394444444,1,0,0,15.0376,Peridotite_rect,7,15.038,1,15,0,15,0,1,,,,,,,,,,,,,
663107c78dd42ba9f097a9fc,TCR,2024-06-24_17h34.20.351,LearnStrategy,2023.2.3,Win32,60.60606061,6,2,1,,,,,,,,4,10,,,,,,,,,,,4,20.358,1,,,,,,0.453703732,-0.240740797,1,0,0,20.3579,Gabbro_rect,0,0,0,0,1,
663107c78dd42ba9f097a9fc,TCR,2024-06-24_17h34.20.351,LearnStrategy,2023.2.3,Win32,60.60606061,6,2,2,,,,,,,,8,03,,,,,,,,,,,8,1.337,1,,,,,,0.457407464,-0.407407464,1,0,0,1.3366,Pumice_rect,1,0,1,0,1,
663107c78dd42ba9f097a9fc,TCR,2024-06-24_17h34.20.351,LearnStrategy,2023.2.3,Win32,60.60606061,6,2,3,,,,,,,,5,14,,,,,,,,,,,5,1.304,1,,,,,,-0.37870369,-0.404629686,1,0,0,1.3042,Obsidian_rect,2,0,2,0,1,
663107c78dd42ba9f097a9fc,TCR,2024-06-24_17h34.20.351,LearnStrategy,2023.2.3,Win32,60.60606061,6,2,4,,,,,,,,2,16,,,,,,,,,,,4,6.337,0,,,,,,0.434259288,-0.262037065,1,0,0,6.3374,Gabbro_rect,3,0,3,0,1,
663107c78dd42ba9f097a9fc,TCR,2024-06-24_17h34.20.351,LearnStrategy,2023.2.3,Win32,60.60606061,6,2,5,,,,,,,,7,07,,,,,,,,,,,7,34.064,1,,,,,,0.142592621,-0.415740797,1,0,0,34.0638,Peridotite_rect,4,0,4,0,1,
663107c78dd42ba9f097a9fc,TCR,2024-06-24_17h34.20.351,LearnStrategy,2023.2.3,Win32,60.60606061,6,2,6,,,,,,,,6,08,,,,,,,,,,,6,9.452,1,,,,,,-0.123148092,-0.4,1,0,0,9.4524,Pegmatite_rect,5,0,5,0,1,
663107c78dd42ba9f097a9fc,TCR,2024-06-24_17h34.20.351,LearnStrategy,2023.2.3,Win32,60.60606061,6,2,7,,,,,,,,1,11,,,,,,,,,,,1,11.941,1,,,,,,-0.357407379,-0.252777778,1,0,0,11.9411,Andesite_rect,6,0,6,0,1,
663107c78dd42ba9f097a9fc,TCR,2024-06-24_17h34.20.351,LearnStrategy,2023.2.3,Win32,60.60606061,6,2,8,,,,,,,,5,12,,,,,,,,,,,5,1.38,1,,,,,,-0.362037023,-0.415740797,1,0,0,1.3796,Obsidian_rect,7,0,7,0,1,
663107c78dd42ba9f097a9fc,TCR,2024-06-24_17h34.20.351,LearnStrategy,2023.2.3,Win32,60.60606061,6,2,9,,,,,,,,7,08,,,,,,,,,,,7,24.067,1,,,,,,0.136111111,-0.410185242,1,0,0,24.0668,Peridotite_rect,8,0,8,0,1,
663107c78dd42ba9f097a9fc,TCR,2024-06-24_17h34.20.351,LearnStrategy,2023.2.3,Win32,60.60606061,6,2,10,,,,,,,,1,03,,,,,,,,,,,1,18.44,1,,,,,,-0.386111111,-0.262963019,1,0,0,18.4401,Andesite_rect,9,0,9,0,1,
663107c78dd42ba9f097a9fc,TCR,2024-06-24_17h34.20.351,LearnStrategy,2023.2.3,Win32,60.60606061,6,2,11,,,,,,,,3,11,,,,,,,,,,,3,7.6,1,,,,,,0.136111111,-0.239814843,1,0,0,7.6004,Diorite_rect,10,0,10,0,1,
663107c78dd42ba9f097a9fc,TCR,2024-06-24_17h34.20.351,LearnStrategy,2023.2.3,Win32,60.60606061,6,2,12,,,,,,,,6,06,,,,,,,,,,,3,12.88,0,,,,,,0.128703732,-0.241666667,1,0,0,12.8795,Diorite_rect,11,0,11,0,1,
663107c78dd42ba9f097a9fc,TCR,2024-06-24_17h34.20.351,LearnStrategy,2023.2.3,Win32,60.60606061,6,2,13,,,,,,,,4,01,,,,,,,,,,,1,3.742,0,,,,,,-0.385185157,-0.251851908,1,0,0,3.7415,Andesite_rect,12,0,12,0,1,
663107c78dd42ba9f097a9fc,TCR,2024-06-24_17h34.20.351,LearnStrategy,2023.2.3,Win32,60.60606061,6,2,14,,,,,,,,2,02,,,,,,,,,,,2,40.765,1,,,,,,-0.134259203,-0.270370399,1,0,0,40.7653,Basalt_rect,13,0,13,0,1,
663107c78dd42ba9f097a9fc,TCR,2024-06-24_17h34.20.351,LearnStrategy,2023.2.3,Win32,60.60606061,6,2,15,,,,,,,,8,05,,,,,,,,,,,8,1.337,1,,,,,,0.439814843,-0.388888889,1,0,0,1.3365,Pumice_rect,14,0,14,0,1,
663107c78dd42ba9f097a9fc,TCR,2024-06-24_17h34.20.351,LearnStrategy,2023.2.3,Win32,60.60606061,6,2,16,,,,,,,,3,06,,,,,,,,,,,3,4.921,1,,,,,,0.160185242,-0.234259288,1,0,0,4.9214,Diorite_rect,15,0,15,0,1,
663107c78dd42ba9f097a9fc,TCR,2024-06-24_17h34.20.351,LearnStrategy,2023.2.3,Win32,60.60606061,7,1,1,0.141666667,0.009259245,1,0,0,2.5528,rock_grid_rect_2,3,15,-1,-1,2.553,0.186111111,-0.234259288,1,0,0,1.737,Diorite_rect,3,1.737,1,0,0,0,0,1,,,,,,,,,,,,,
663107c78dd42ba9f097a9fc,TCR,2024-06-24_17h34.20.351,LearnStrategy,2023.2.3,Win32,60.60606061,7,1,2,0.183333333,-0.019444444,1,0,0,0.7905,rock_grid_rect_2,4,12,-1,-1,0.79,0.459259288,-0.250925954,1,0,0,3.5778,Gabbro_rect,4,3.578,1,1,0,1,0,1,,,,,,,,,,,,,
663107c78dd42ba9f097a9fc,TCR,2024-06-24_17h34.20.351,LearnStrategy,2023.2.3,Win32,60.60606061,7,1,3,0.124074131,0.019444444,1,0,0,1.9967,rock_grid_rect_2,3,02,-1,-1,1.997,0.182407464,-0.235185242,1,0,0,15.9033,Diorite_rect,3,15.903,1,2,0,2,0,1,,,,,,,,,,,,,
663107c78dd42ba9f097a9fc,TCR,2024-06-24_17h34.20.351,LearnStrategy,2023.2.3,Win32,60.60606061,7,1,4,0.120370399,-0.012962977,1,0,0,1.4028,rock_grid_rect_2,1,02,-1,-1,1.403,-0.372222222,-0.246296353,1,0,0,1.423,Andesite_rect,1,1.423,1,3,0,3,0,1,,,,,,,,,,,,,
663107c78dd42ba9f097a9fc,TCR,2024-06-24_17h34.20.351,LearnStrategy,2023.2.3,Win32,60.60606061,7,1,5,0.15648151,-0.014814843,1,0,0,0.621,rock_grid_rect_2,6,07,-1,-1,0.621,-0.104629601,-0.392592621,1,0,0,5.0365,Pegmatite_rect,6,5.036,1,4,0,4,0,1,,,,,,,,,,,,,
663107c78dd42ba9f097a9fc,TCR,2024-06-24_17h34.20.351,LearnStrategy,2023.2.3,Win32,60.60606061,7,1,6,0.191666667,-0.012037065,1,0,0,0.7503,rock_grid_rect_2,2,06,-1,-1,0.75,-0.062962935,-0.260185242,1,0,0,2.6798,Basalt_rect,2,2.68,1,5,0,5,0,1,,,,,,,,,,,,,
663107c78dd42ba9f097a9fc,TCR,2024-06-24_17h34.20.351,LearnStrategy,2023.2.3,Win32,60.60606061,7,1,7,0.144444444,-0.010185199,1,0,0,0.6762,rock_grid_rect_2,6,07,-1,-1,0.676,-0.063888889,-0.392592621,1,0,0,4.0895,Pegmatite_rect,6,4.09,1,6,0,6,0,1,,,,,,,,,,,,,
663107c78dd42ba9f097a9fc,TCR,2024-06-24_17h34.20.351,LearnStrategy,2023.2.3,Win32,60.60606061,7,1,8,0.182407464,0.000925912,1,0,0,0.7306,rock_grid_rect_2,4,13,-1,-1,0.731,0.463888889,-0.244444444,1,0,0,1.3347,Gabbro_rect,4,1.335,1,7,0,7,0,1,,,,,,,,,,,,,
663107c78dd42ba9f097a9fc,TCR,2024-06-24_17h34.20.351,LearnStrategy,2023.2.3,Win32,60.60606061,7,1,9,0.157407464,-0.007407422,1,0,0,1.22,rock_grid_rect_2,8,16,-1,-1,1.22,0.437963019,-0.393518575,1,0,0,0.9802,Pumice_rect,8,0.98,1,8,0,8,0,1,,,,,,,,,,,,,
663107c78dd42ba9f097a9fc,TCR,2024-06-24_17h34.20.351,LearnStrategy,2023.2.3,Win32,60.60606061,7,1,10,0.168518575,-0.013888889,1,0,0,0.7193,rock_grid_rect_2,4,15,-1,-1,0.719,0.45648151,-0.253703732,1,0,0,2.2875,Gabbro_rect,4,2.287,1,9,0,9,0,1,,,,,,,,,,,,,
663107c78dd42ba9f097a9fc,TCR,2024-06-24_17h34.20.351,LearnStrategy,2023.2.3,Win32,60.60606061,7,1,11,0.166666667,-0.012962977,1,0,0,0.6523,rock_grid_rect_2,7,02,-1,-1,0.652,0.171296353,-0.412963019,1,0,0,1.9306,Peridotite_rect,7,1.931,1,10,0,10,0,1,,,,,,,,,,,,,
663107c78dd42ba9f097a9fc,TCR,2024-06-24_17h34.20.351,LearnStrategy,2023.2.3,Win32,60.60606061,7,1,12,0.176851908,-0.007407422,1,0,0,0.6533,rock_grid_rect_2,3,16,-1,-1,0.653,0.144444444,-0.25648151,1,0,0,8.4054,Diorite_rect,3,8.405,1,11,0,11,0,1,,,,,,,,,,,,,
663107c78dd42ba9f097a9fc,TCR,2024-06-24_17h34.20.351,LearnStrategy,2023.2.3,Win32,60.60606061,7,1,13,0.183333333,0.00370369,1,0,0,0.8228,rock_grid_rect_2,6,09,-1,-1,0.823,0.167592621,-0.394444444,1,0,0,3.734,Peridotite_rect,7,3.734,0,12,0,12,0,1,,,,,,,,,,,,,
663107c78dd42ba9f097a9fc,TCR,2024-06-24_17h34.20.351,LearnStrategy,2023.2.3,Win32,60.60606061,7,1,14,0.162963019,-0.00648151,1,0,0,0.7604,rock_grid_rect_2,1,07,-1,-1,0.76,0.120370399,-0.233333333,1,0,0,7.7125,Diorite_rect,3,7.713,0,13,0,13,0,1,,,,,,,,,,,,,
663107c78dd42ba9f097a9fc,TCR,2024-06-24_17h34.20.351,LearnStrategy,2023.2.3,Win32,60.60606061,7,1,15,0.157407464,0.00370369,1,0,0,0.6504,rock_grid_rect_2,5,05,-1,-1,0.65,-0.35370369,-0.410185242,1,0,0,1.4882,Obsidian_rect,5,1.488,1,14,0,14,0,1,,,,,,,,,,,,,
663107c78dd42ba9f097a9fc,TCR,2024-06-24_17h34.20.351,LearnStrategy,2023.2.3,Win32,60.60606061,7,1,16,0.158333333,-0.001851866,1,0,0,0.72,rock_grid_rect_2,2,14,-1,-1,0.72,0.415740797,-0.412963019,1,0,0,2.763,Pumice_rect,8,2.763,0,15,0,15,0,1,,,,,,,,,,,,,
663107c78dd42ba9f097a9fc,TCR,2024-06-24_17h34.20.351,LearnStrategy,2023.2.3,Win32,60.60606061,7,2,1,,,,,,,,1,05,,,,,,,,,,,1,14.067,1,,,,,,-0.367592578,-0.240740797,1,0,0,14.0674,Andesite_rect,0,0,0,0,1,
663107c78dd42ba9f097a9fc,TCR,2024-06-24_17h34.20.351,LearnStrategy,2023.2.3,Win32,60.60606061,7,2,2,,,,,,,,8,04,,,,,,,,,,,8,1.604,1,,,,,,0.426851908,-0.401851908,1,0,0,1.6038,Pumice_rect,1,0,1,0,1,
663107c78dd42ba9f097a9fc,TCR,2024-06-24_17h34.20.351,LearnStrategy,2023.2.3,Win32,60.60606061,7,2,3,,,,,,,,2,08,,,,,,,,,,,2,2.046,1,,,,,,-0.099074046,-0.235185242,1,0,0,2.0463,Basalt_rect,2,0,2,0,1,
663107c78dd42ba9f097a9fc,TCR,2024-06-24_17h34.20.351,LearnStrategy,2023.2.3,Win32,60.60606061,7,2,4,,,,,,,,1,09,,,,,,,,,,,1,2.838,1,,,,,,-0.374074046,-0.244444444,1,0,0,2.8375,Andesite_rect,3,0,3,0,1,
663107c78dd42ba9f097a9fc,TCR,2024-06-24_17h34.20.351,LearnStrategy,2023.2.3,Win32,60.60606061,7,2,5,,,,,,,,3,11,,,,,,,,,,,3,8.908,1,,,,,,0.158333333,-0.237963019,1,0,0,8.9079,Diorite_rect,4,0,4,0,1,
663107c78dd42ba9f097a9fc,TCR,2024-06-24_17h34.20.351,LearnStrategy,2023.2.3,Win32,60.60606061,7,2,6,,,,,,,,7,15,,,,,,,,,,,7,63.443,1,,,,,,0.154629686,-0.401851908,1,0,0,63.4428,Peridotite_rect,5,0,5,0,1,
663107c78dd42ba9f097a9fc,TCR,2024-06-24_17h34.20.351,LearnStrategy,2023.2.3,Win32,60.60606061,7,2,7,,,,,,,,8,09,,,,,,,,,,,8,1.035,1,,,,,,0.440740797,-0.402777778,1,0,0,1.0347,Pumice_rect,6,0,6,0,1,
663107c78dd42ba9f097a9fc,TCR,2024-06-24_17h34.20.351,LearnStrategy,2023.2.3,Win32,60.60606061,7,2,8,,,,,,,,6,08,,,,,,,,,,,6,9.649,1,,,,,,-0.121296268,-0.397222222,1,0,0,9.6491,Pegmatite_rect,7,0,7,0,1,
663107c78dd42ba9f097a9fc,TCR,2024-06-24_17h34.20.351,LearnStrategy,2023.2.3,Win32,60.60606061,7,2,9,,,,,,,,3,06,,,,,,,,,,,3,21.941,1,,,,,,0.149074131,-0.249074131,1,0,0,21.9414,Diorite_rect,8,0,8,0,1,
663107c78dd42ba9f097a9fc,TCR,2024-06-24_17h34.20.351,LearnStrategy,2023.2.3,Win32,60.60606061,7,2,10,,,,,,,,2,04,,,,,,,,,,,2,3.358,1,,,,,,-0.104629601,-0.250925954,1,0,0,3.3578,Basalt_rect,9,0,9,0,1,
663107c78dd42ba9f097a9fc,TCR,2024-06-24_17h34.20.351,LearnStrategy,2023.2.3,Win32,60.60606061,7,2,11,,,,,,,,4,11,,,,,,,,,,,4,3.245,1,,,,,,0.438888889,-0.264814843,1,0,0,3.2455,Gabbro_rect,10,0,10,0,1,
663107c78dd42ba9f097a9fc,TCR,2024-06-24_17h34.20.351,LearnStrategy,2023.2.3,Win32,60.60606061,7,2,12,,,,,,,,4,08,,,,,,,,,,,4,4.058,1,,,,,,0.414814843,-0.262037065,1,0,0,4.0578,Gabbro_rect,11,0,11,0,1,
663107c78dd42ba9f097a9fc,TCR,2024-06-24_17h34.20.351,LearnStrategy,2023.2.3,Win32,60.60606061,7,2,13,,,,,,,,5,12,,,,,,,,,,,5,1.251,1,,,,,,-0.404629601,-0.413888889,1,0,0,1.2509,Obsidian_rect,12,0,12,0,1,
663107c78dd42ba9f097a9fc,TCR,2024-06-24_17h34.20.351,LearnStrategy,2023.2.3,Win32,60.60606061,7,2,14,,,,,,,,5,06,,,,,,,,,,,5,3.128,1,,,,,,-0.401851824,-0.398148176,1,0,0,3.128,Obsidian_rect,13,0,13,0,1,
663107c78dd42ba9f097a9fc,TCR,2024-06-24_17h34.20.351,LearnStrategy,2023.2.3,Win32,60.60606061,7,2,15,,,,,,,,6,10,,,,,,,,,,,6,9.087,1,,,,,,-0.130555556,-0.411111111,1,0,0,9.0872,Pegmatite_rect,14,0,14,0,1,
663107c78dd42ba9f097a9fc,TCR,2024-06-24_17h34.20.351,LearnStrategy,2023.2.3,Win32,60.60606061,7,2,16,,,,,,,,7,07,,,,,,,,,,,7,4.007,1,,,,,,0.125925954,-0.384259288,1,0,0,4.0069,Peridotite_rect,15,0,15,0,1,
663107c78dd42ba9f097a9fc,TCR,2024-06-24_17h34.20.351,LearnStrategy,2023.2.3,Win32,60.60606061,8,1,1,0.187037065,-0.016666667,1,0,0,1.5307,rock_grid_rect_2,7,16,-1,-1,1.531,0.136111111,-0.400925954,1,0,0,20.0753,Peridotite_rect,7,20.075,1,0,0,0,0,1,,,,,,,,,,,,,
663107c78dd42ba9f097a9fc,TCR,2024-06-24_17h34.20.351,LearnStrategy,2023.2.3,Win32,60.60606061,8,1,2,0.175925954,0.012962935,1,0,0,0.7859,rock_grid_rect_2,6,07,-1,-1,0.786,-0.114814758,-0.387037065,1,0,0,10.421,Pegmatite_rect,6,10.421,1,1,0,1,0,1,,,,,,,,,,,,,
663107c78dd42ba9f097a9fc,TCR,2024-06-24_17h34.20.351,LearnStrategy,2023.2.3,Win32,60.60606061,8,1,3,0.145370399,-0.017592621,1,0,0,0.7863,rock_grid_rect_2,1,07,-1,-1,0.786,0.177777778,-0.254629686,1,0,0,7.8222,Diorite_rect,3,7.822,0,2,0,2,0,1,,,,,,,,,,,,,
663107c78dd42ba9f097a9fc,TCR,2024-06-24_17h34.20.351,LearnStrategy,2023.2.3,Win32,60.60606061,8,1,4,0.075,-0.00648151,1,0,0,1.6439,rock_grid_rect_2,3,07,-1,-1,1.644,0.132407464,-0.234259288,1,0,0,2.3869,Diorite_rect,3,2.387,1,3,0,3,0,1,,,,,,,,,,,,,
663107c78dd42ba9f097a9fc,TCR,2024-06-24_17h34.20.351,LearnStrategy,2023.2.3,Win32,60.60606061,8,1,5,0.139814843,-0.000925954,1,0,0,1.6864,rock_grid_rect_2,3,08,-1,-1,1.686,0.166666667,-0.253703732,1,0,0,20.5972,Diorite_rect,3,20.597,1,4,0,4,0,1,,,,,,,,,,,,,
663107c78dd42ba9f097a9fc,TCR,2024-06-24_17h34.20.351,LearnStrategy,2023.2.3,Win32,60.60606061,8,1,6,0.08148151,-0.014814843,1,0,0,1.6658,rock_grid_rect_2,1,02,-1,-1,1.666,-0.335185157,-0.246296353,1,0,0,2.548,Andesite_rect,1,2.548,1,5,0,5,0,1,,,,,,,,,,,,,
663107c78dd42ba9f097a9fc,TCR,2024-06-24_17h34.20.351,LearnStrategy,2023.2.3,Win32,60.60606061,8,1,7,0.103703732,-0.00648151,1,0,0,0.6362,rock_grid_rect_2,4,09,-1,-1,0.636,0.405555556,-0.248148176,1,0,0,3.1376,Gabbro_rect,4,3.138,1,6,0,6,0,1,,,,,,,,,,,,,
663107c78dd42ba9f097a9fc,TCR,2024-06-24_17h34.20.351,LearnStrategy,2023.2.3,Win32,60.60606061,8,1,8,0.137037065,0.00370369,1,0,0,0.7195,rock_grid_rect_2,3,02,-1,-1,0.72,0.175925954,-0.238888889,1,0,0,6.3475,Diorite_rect,3,6.347,1,7,0,7,0,1,,,,,,,,,,,,,
663107c78dd42ba9f097a9fc,TCR,2024-06-24_17h34.20.351,LearnStrategy,2023.2.3,Win32,60.60606061,8,1,9,0.193518575,-0.013888889,1,0,0,0.6206,rock_grid_rect_2,4,16,-1,-1,0.621,0.428703732,-0.260185242,1,0,0,1.9866,Gabbro_rect,4,1.987,1,8,0,8,0,1,,,,,,,,,,,,,
663107c78dd42ba9f097a9fc,TCR,2024-06-24_17h34.20.351,LearnStrategy,2023.2.3,Win32,60.60606061,8,1,10,0.168518575,-0.010185199,1,0,0,1.0719,rock_grid_rect_2,2,09,-1,-1,1.072,-0.067592536,-0.248148176,1,0,0,1.7966,Basalt_rect,2,1.797,1,9,0,9,0,1,,,,,,,,,,,,,
663107c78dd42ba9f097a9fc,TCR,2024-06-24_17h34.20.351,LearnStrategy,2023.2.3,Win32,60.60606061,8,1,11,0.203703732,-0.022222222,1,0,0,0.6365,rock_grid_rect_2,2,06,-1,-1,0.637,-0.074074046,-0.248148176,1,0,0,1.2043,Basalt_rect,2,1.204,1,10,0,10,0,1,,,,,,,,,,,,,
663107c78dd42ba9f097a9fc,TCR,2024-06-24_17h34.20.351,LearnStrategy,2023.2.3,Win32,60.60606061,8,1,12,0.172222222,-0.009259288,1,0,0,0.554,rock_grid_rect_2,6,07,-1,-1,0.554,-0.109259203,-0.404629686,1,0,0,16.2804,Pegmatite_rect,6,16.28,1,11,0,11,0,1,,,,,,,,,,,,,
663107c78dd42ba9f097a9fc,TCR,2024-06-24_17h34.20.351,LearnStrategy,2023.2.3,Win32,60.60606061,8,1,13,0.134259288,-0.016666667,1,0,0,0.6363,rock_grid_rect_2,4,15,-1,-1,0.636,-0.354629601,-0.251851908,1,0,0,8.8043,Andesite_rect,1,8.804,0,12,0,12,0,1,,,,,,,,,,,,,
663107c78dd42ba9f097a9fc,TCR,2024-06-24_17h34.20.351,LearnStrategy,2023.2.3,Win32,60.60606061,8,1,14,0.15,-0.022222222,1,0,0,0.7061,rock_grid_rect_2,6,03,-1,-1,0.706,-0.106481425,-0.399074131,1,0,0,8.4853,Pegmatite_rect,6,8.485,1,13,0,13,0,1,,,,,,,,,,,,,
663107c78dd42ba9f097a9fc,TCR,2024-06-24_17h34.20.351,LearnStrategy,2023.2.3,Win32,60.60606061,8,1,15,0.138888889,-0.022222222,1,0,0,0.6472,rock_grid_rect_2,8,16,-1,-1,0.647,0.450925954,-0.415740797,1,0,0,1.1254,Pumice_rect,8,1.125,1,14,0,14,0,1,,,,,,,,,,,,,
663107c78dd42ba9f097a9fc,TCR,2024-06-24_17h34.20.351,LearnStrategy,2023.2.3,Win32,60.60606061,8,1,16,0.187963019,0,1,0,0,1.0291,rock_grid_rect_2,5,02,-1,-1,1.029,-0.357407379,-0.414814843,1,0,0,1.1096,Obsidian_rect,5,1.11,1,15,0,15,0,1,,,,,,,,,,,,,
663107c78dd42ba9f097a9fc,TCR,2024-06-24_17h34.20.351,LearnStrategy,2023.2.3,Win32,60.60606061,8,2,1,,,,,,,,2,02,,,,,,,,,,,2,39.586,1,,,,,,-0.072222222,-0.251851908,1,0,0,39.5862,Basalt_rect,0,0,0,0,1,
663107c78dd42ba9f097a9fc,TCR,2024-06-24_17h34.20.351,LearnStrategy,2023.2.3,Win32,60.60606061,8,2,2,,,,,,,,7,12,,,,,,,,,,,7,9.267,1,,,,,,0.146296353,-0.397222222,1,0,0,9.2675,Peridotite_rect,1,0,1,0,1,
663107c78dd42ba9f097a9fc,TCR,2024-06-24_17h34.20.351,LearnStrategy,2023.2.3,Win32,60.60606061,8,2,3,,,,,,,,1,16,,,,,,,,,,,1,4.957,1,,,,,,-0.363888889,-0.259259288,1,0,0,4.9568,Andesite_rect,2,0,2,0,1,
663107c78dd42ba9f097a9fc,TCR,2024-06-24_17h34.20.351,LearnStrategy,2023.2.3,Win32,60.60606061,8,2,4,,,,,,,,8,05,,,,,,,,,,,8,1.007,1,,,,,,0.445370399,-0.386111111,1,0,0,1.0069,Pumice_rect,3,0,3,0,1,
663107c78dd42ba9f097a9fc,TCR,2024-06-24_17h34.20.351,LearnStrategy,2023.2.3,Win32,60.60606061,8,2,5,,,,,,,,7,04,,,,,,,,,,,3,9.558,0,,,,,,0.144444444,-0.246296353,1,0,0,9.5577,Diorite_rect,4,0,4,0,1,
663107c78dd42ba9f097a9fc,TCR,2024-06-24_17h34.20.351,LearnStrategy,2023.2.3,Win32,60.60606061,8,2,6,,,,,,,,4,03,,,,,,,,,,,3,37.52,0,,,,,,0.128703732,-0.237963019,1,0,0,37.5196,Diorite_rect,5,0,5,0,1,
663107c78dd42ba9f097a9fc,TCR,2024-06-24_17h34.20.351,LearnStrategy,2023.2.3,Win32,60.60606061,8,2,7,,,,,,,,1,04,,,,,,,,,,,1,1.708,1,,,,,,-0.370370356,-0.253703732,1,0,0,1.7079,Andesite_rect,6,0,6,0,1,
663107c78dd42ba9f097a9fc,TCR,2024-06-24_17h34.20.351,LearnStrategy,2023.2.3,Win32,60.60606061,8,2,8,,,,,,,,4,01,,,,,,,,,,,3,3.567,0,,,,,,0.160185242,-0.25648151,1,0,0,3.5669,Diorite_rect,7,0,7,0,1,
663107c78dd42ba9f097a9fc,TCR,2024-06-24_17h34.20.351,LearnStrategy,2023.2.3,Win32,60.60606061,8,2,9,,,,,,,,3,13,,,,,,,,,,,3,8.338,1,,,,,,0.159259288,-0.265740797,1,0,0,8.3376,Diorite_rect,8,0,8,0,1,
663107c78dd42ba9f097a9fc,TCR,2024-06-24_17h34.20.351,LearnStrategy,2023.2.3,Win32,60.60606061,8,2,10,,,,,,,,6,16,,,,,,,,,,,6,60.142,1,,,,,,-0.102777778,-0.40648151,1,0,0,60.1419,Pegmatite_rect,9,0,9,0,1,
663107c78dd42ba9f097a9fc,TCR,2024-06-24_17h34.20.351,LearnStrategy,2023.2.3,Win32,60.60606061,8,2,11,,,,,,,,8,03,,,,,,,,,,,8,1.002,1,,,,,,0.444444444,-0.40648151,1,0,0,1.0022,Pumice_rect,10,0,10,0,1,
663107c78dd42ba9f097a9fc,TCR,2024-06-24_17h34.20.351,LearnStrategy,2023.2.3,Win32,60.60606061,8,2,12,,,,,,,,5,14,,,,,,,,,,,5,1.368,1,,,,,,-0.386111111,-0.395370399,1,0,0,1.3677,Obsidian_rect,11,0,11,0,1,
663107c78dd42ba9f097a9fc,TCR,2024-06-24_17h34.20.351,LearnStrategy,2023.2.3,Win32,60.60606061,8,2,13,,,,,,,,6,12,,,,,,,,,,,1,31.737,0,,,,,,-0.370370356,-0.25648151,1,0,0,31.7366,Andesite_rect,12,0,12,0,1,
663107c78dd42ba9f097a9fc,TCR,2024-06-24_17h34.20.351,LearnStrategy,2023.2.3,Win32,60.60606061,8,2,14,,,,,,,,3,14,,,,,,,,,,,1,1.401,0,,,,,,-0.365740712,-0.25,1,0,0,1.4015,Andesite_rect,13,0,13,0,1,
663107c78dd42ba9f097a9fc,TCR,2024-06-24_17h34.20.351,LearnStrategy,2023.2.3,Win32,60.60606061,8,2,15,,,,,,,,2,10,,,,,,,,,,,4,11.179,0,,,,,,0.426851908,-0.240740797,1,0,0,11.1791,Gabbro_rect,14,0,14,0,1,
663107c78dd42ba9f097a9fc,TCR,2024-06-24_17h34.20.351,LearnStrategy,2023.2.3,Win32,60.60606061,8,2,16,,,,,,,,5,11,,,,,,,,,,,5,1.132,1,,,,,,-0.367592578,-0.419444444,1,0,0,1.1324,Obsidian_rect,15,0,15,0,1,
663107c78dd42ba9f097a9fc,TCR,2024-06-24_17h34.20.351,LearnStrategy,2023.2.3,Win32,60.60606061,9,1,1,0.15,-0.013888889,1,0,0,8.8137,rock_grid_rect_2,7,14,-1,-1,8.814,0.162963019,-0.395370399,1,0,0,6.8421,Peridotite_rect,7,6.842,1,0,0,0,0,1,,,,,,,,,,,,,
663107c78dd42ba9f097a9fc,TCR,2024-06-24_17h34.20.351,LearnStrategy,2023.2.3,Win32,60.60606061,9,1,2,0.153703732,0.005555556,1,0,0,0.8275,rock_grid_rect_2,4,05,-1,-1,0.827,0.433333333,-0.262037065,1,0,0,9.2709,Gabbro_rect,4,9.271,1,1,0,1,0,1,,,,,,,,,,,,,
663107c78dd42ba9f097a9fc,TCR,2024-06-24_17h34.20.351,LearnStrategy,2023.2.3,Win32,60.60606061,9,1,3,0.15648151,0.020370356,1,0,0,0.8211,rock_grid_rect_2,2,06,-1,-1,0.821,-0.103703647,-0.241666667,1,0,0,2.0729,Basalt_rect,2,2.073,1,2,0,2,0,1,,,,,,,,,,,,,
663107c78dd42ba9f097a9fc,TCR,2024-06-24_17h34.20.351,LearnStrategy,2023.2.3,Win32,60.60606061,9,1,4,0.174074131,-0.017592621,1,0,0,1.3295,rock_grid_rect_2,3,02,-1,-1,1.329,-0.373148134,-0.259259288,1,0,0,11.75,Andesite_rect,1,11.75,0,3,0,3,0,1,,,,,,,,,,,,,
663107c78dd42ba9f097a9fc,TCR,2024-06-24_17h34.20.351,LearnStrategy,2023.2.3,Win32,60.60606061,9,1,5,0.175,-0.022222222,1,0,0,2.3264,rock_grid_rect_2,1,07,-1,-1,2.326,-0.329629601,-0.239814843,1,0,0,1.7182,Andesite_rect,1,1.718,1,4,0,4,0,1,,,,,,,,,,,,,
663107c78dd42ba9f097a9fc,TCR,2024-06-24_17h34.20.351,LearnStrategy,2023.2.3,Win32,60.60606061,9,1,6,0.202777778,0.002777778,1,0,0,1.0478,rock_grid_rect_2,4,12,-1,-1,1.048,0.407407464,-0.245370399,1,0,0,2.4251,Gabbro_rect,4,2.425,1,5,0,5,0,1,,,,,,,,,,,,,
663107c78dd42ba9f097a9fc,TCR,2024-06-24_17h34.20.351,LearnStrategy,2023.2.3,Win32,60.60606061,9,1,7,0.182407464,-0.009259288,1,0,0,1.4663,rock_grid_rect_2,6,11,-1,-1,1.466,-0.136111111,-0.419444444,1,0,0,37.1526,Pegmatite_rect,6,37.153,1,6,0,6,0,1,,,,,,,,,,,,,
663107c78dd42ba9f097a9fc,TCR,2024-06-24_17h34.20.351,LearnStrategy,2023.2.3,Win32,60.60606061,9,1,8,0.128703732,-0.004629644,1,0,0,0.7192,rock_grid_rect_2,8,08,-1,-1,0.719,0.429629686,-0.408333333,1,0,0,1.1639,Pumice_rect,8,1.164,1,7,0,7,0,1,,,,,,,,,,,,,
663107c78dd42ba9f097a9fc,TCR,2024-06-24_17h34.20.351,LearnStrategy,2023.2.3,Win32,60.60606061,9,1,9,0.18148151,-0.016666667,1,0,0,1.4535,rock_grid_rect_2,4,13,-1,-1,1.454,0.443518575,-0.268518575,1,0,0,1.7973,Gabbro_rect,4,1.797,1,8,0,8,0,1,,,,,,,,,,,,,
663107c78dd42ba9f097a9fc,TCR,2024-06-24_17h34.20.351,LearnStrategy,2023.2.3,Win32,60.60606061,9,1,10,0.157407464,-0.008333333,1,0,0,0.7311,rock_grid_rect_2,3,15,-1,-1,0.731,0.162963019,-0.259259288,1,0,0,3.4084,Diorite_rect,3,3.408,1,9,0,9,0,1,,,,,,,,,,,,,
663107c78dd42ba9f097a9fc,TCR,2024-06-24_17h34.20.351,LearnStrategy,2023.2.3,Win32,60.60606061,9,1,11,0.169444444,-0.016666667,1,0,0,0.7145,rock_grid_rect_2,6,09,-1,-1,0.715,-0.112036981,-0.403703732,1,0,0,23.2363,Pegmatite_rect,6,23.236,1,10,0,10,0,1,,,,,,,,,,,,,
663107c78dd42ba9f097a9fc,TCR,2024-06-24_17h34.20.351,LearnStrategy,2023.2.3,Win32,60.60606061,9,1,12,0.167592621,-0.023148176,1,0,0,1.2092,rock_grid_rect_2,3,16,-1,-1,1.209,0.140740797,-0.268518575,1,0,0,7.6085,Diorite_rect,3,7.608,1,11,0,11,0,1,,,,,,,,,,,,,
663107c78dd42ba9f097a9fc,TCR,2024-06-24_17h34.20.351,LearnStrategy,2023.2.3,Win32,60.60606061,9,1,13,-0.15,-0.023148176,1,0,0,0.9515,rock_grid_rect_2,4,09,-1,-1,0.951,0.413888889,-0.246296353,1,0,0,3.7042,Gabbro_rect,4,3.704,1,12,0,12,0,1,,,,,,,,,,,,,
663107c78dd42ba9f097a9fc,TCR,2024-06-24_17h34.20.351,LearnStrategy,2023.2.3,Win32,60.60606061,9,1,14,-0.040740712,-0.023148176,1,0,0,0.7853,rock_grid_rect_2,2,12,-1,-1,0.785,0.424074131,-0.402777778,1,0,0,1.9684,Pumice_rect,8,1.968,0,13,0,13,0,1,,,,,,,,,,,,,
663107c78dd42ba9f097a9fc,TCR,2024-06-24_17h34.20.351,LearnStrategy,2023.2.3,Win32,60.60606061,9,1,15,0.141666667,-0.018518533,1,0,0,0.7399,rock_grid_rect_2,5,05,-1,-1,0.74,-0.367592578,-0.388888889,1,0,0,1.2486,Obsidian_rect,5,1.249,1,14,0,14,0,1,,,,,,,,,,,,,
663107c78dd42ba9f097a9fc,TCR,2024-06-24_17h34.20.351,LearnStrategy,2023.2.3,Win32,60.60606061,9,1,16,0.15648151,-0.02129631,1,0,0,0.7535,rock_grid_rect_2,7,10,-1,-1,0.754,0.142592621,-0.403703732,1,0,0,12.4799,Peridotite_rect,7,12.48,1,15,0,15,0,1,,,,,,,,,,,,,
663107c78dd42ba9f097a9fc,TCR,2024-06-24_17h34.20.351,LearnStrategy,2023.2.3,Win32,60.60606061,9,2,1,,,,,,,,3,09,,,,,,,,,,,1,19.158,0,,,,,,-0.461111111,-0.270370399,1,0,0,19.158,Andesite_rect,0,0,0,0,1,
663107c78dd42ba9f097a9fc,TCR,2024-06-24_17h34.20.351,LearnStrategy,2023.2.3,Win32,60.60606061,9,2,2,,,,,,,,3,10,,,,,,,,,,,1,6.416,0,,,,,,-0.484259245,-0.267592621,1,0,0,6.4165,Andesite_rect,1,0,1,0,1,
663107c78dd42ba9f097a9fc,TCR,2024-06-24_17h34.20.351,LearnStrategy,2023.2.3,Win32,60.60606061,9,2,3,,,,,,,,4,14,,,,,,,,,,,4,3.338,1,,,,,,0.401851908,-0.255555556,1,0,0,3.3381,Gabbro_rect,2,0,2,0,1,
663107c78dd42ba9f097a9fc,TCR,2024-06-24_17h34.20.351,LearnStrategy,2023.2.3,Win32,60.60606061,9,2,4,,,,,,,,6,06,,,,,,,,,,,6,59.4,1,,,,,,-0.128703647,-0.408333333,1,0,0,59.3997,Pegmatite_rect,3,0,3,0,1,
663107c78dd42ba9f097a9fc,TCR,2024-06-24_17h34.20.351,LearnStrategy,2023.2.3,Win32,60.60606061,9,2,5,,,,,,,,8,06,,,,,,,,,,,8,1.524,1,,,,,,0.416666667,-0.40648151,1,0,0,1.5241,Pumice_rect,4,0,4,0,1,
663107c78dd42ba9f097a9fc,TCR,2024-06-24_17h34.20.351,LearnStrategy,2023.2.3,Win32,60.60606061,9,2,6,,,,,,,,7,08,,,,,,,,,,,7,15.986,1,,,,,,0.150925954,-0.404629686,1,0,0,15.9862,Peridotite_rect,5,0,5,0,1,
663107c78dd42ba9f097a9fc,TCR,2024-06-24_17h34.20.351,LearnStrategy,2023.2.3,Win32,60.60606061,9,2,7,,,,,,,,8,02,,,,,,,,,,,8,1.519,1,,,,,,0.424074131,-0.403703732,1,0,0,1.5195,Pumice_rect,6,0,6,0,1,
663107c78dd42ba9f097a9fc,TCR,2024-06-24_17h34.20.351,LearnStrategy,2023.2.3,Win32,60.60606061,9,2,8,,,,,,,,6,15,,,,,,,,,,,6,9.968,1,,,,,,-0.113888889,-0.408333333,1,0,0,9.9679,Pegmatite_rect,7,0,7,0,1,
663107c78dd42ba9f097a9fc,TCR,2024-06-24_17h34.20.351,LearnStrategy,2023.2.3,Win32,60.60606061,9,2,9,,,,,,,,1,03,,,,,,,,,,,1,22.603,1,,,,,,-0.476851824,-0.268518575,1,0,0,22.6028,Andesite_rect,8,0,8,0,1,
663107c78dd42ba9f097a9fc,TCR,2024-06-24_17h34.20.351,LearnStrategy,2023.2.3,Win32,60.60606061,9,2,10,,,,,,,,1,11,,,,,,,,,,,1,2.602,1,,,,,,-0.452777778,-0.270370399,1,0,0,2.6018,Andesite_rect,9,0,9,0,1,
663107c78dd42ba9f097a9fc,TCR,2024-06-24_17h34.20.351,LearnStrategy,2023.2.3,Win32,60.60606061,9,2,11,,,,,,,,4,10,,,,,,,,,,,2,22.917,0,,,,,,-0.125,-0.253703732,1,0,0,22.917,Basalt_rect,10,0,10,0,1,
663107c78dd42ba9f097a9fc,TCR,2024-06-24_17h34.20.351,LearnStrategy,2023.2.3,Win32,60.60606061,9,2,12,,,,,,,,5,10,,,,,,,,,,,5,1.174,1,,,,,,-0.42870369,-0.416666667,1,0,0,1.1738,Obsidian_rect,11,0,11,0,1,
663107c78dd42ba9f097a9fc,TCR,2024-06-24_17h34.20.351,LearnStrategy,2023.2.3,Win32,60.60606061,9,2,13,,,,,,,,2,16,,,,,,,,,,,4,3.629,0,,,,,,0.393518575,-0.243518575,1,0,0,3.6289,Gabbro_rect,12,0,12,0,1,
663107c78dd42ba9f097a9fc,TCR,2024-06-24_17h34.20.351,LearnStrategy,2023.2.3,Win32,60.60606061,9,2,14,,,,,,,,5,16,,,,,,,,,,,5,2.027,1,,,,,,-0.375,-0.394444444,1,0,0,2.0274,Obsidian_rect,13,0,13,0,1,
663107c78dd42ba9f097a9fc,TCR,2024-06-24_17h34.20.351,LearnStrategy,2023.2.3,Win32,60.60606061,9,2,15,,,,,,,,2,11,,,,,,,,,,,2,12.765,1,,,,,,-0.112036981,-0.229629686,1,0,0,12.7652,Basalt_rect,14,0,14,0,1,
663107c78dd42ba9f097a9fc,TCR,2024-06-24_17h34.20.351,LearnStrategy,2023.2.3,Win32,60.60606061,9,2,16,,,,,,,,7,06,,,,,,,,,,,7,43.349,1,,,,,,0.128703732,-0.410185242,1,0,0,43.3495,Peridotite_rect,15,0,15,0,1,
663107c78dd42ba9f097a9fc,TCR,2024-06-24_17h34.20.351,LearnStrategy,2023.2.3,Win32,60.60606061,,,,,,,,,,,,,,,,,,,,,,,,,,,,,,,,,,,,,,,,,,,1
663107c78dd42ba9f097a9fc,TCR,2024-06-24_17h34.20.351,LearnStrategy,2023.2.3,Win32,60.60606061,,,,,,,,,,,,,,,,,,,,,,,,,,,,,,,,,,,,,,,,,,,
663107c78dd42ba9f097a9fc,TCR,2024-06-24_17h34.20.351,LearnStrategy,2023.2.3,Win32,60.60606061,,,,,,,,,,,4,12,1,1,,,,,,,,,,,,,,,,,,,,,,,,,,,,,
663107c78dd42ba9f097a9fc,TCR,2024-06-24_17h34.20.351,LearnStrategy,2023.2.3,Win32,60.60606061,,,,,,,,,,,1,06,1,2,,,,,,,,,,,,,,,,,,,,,,,,,,,,,
663107c78dd42ba9f097a9fc,TCR,2024-06-24_17h34.20.351,LearnStrategy,2023.2.3,Win32,60.60606061,,,,,,,,,,,6,03,1,3,,,,,,,,,,,,,,,,,,,,,,,,,,,,,
663107c78dd42ba9f097a9fc,TCR,2024-06-24_17h34.20.351,LearnStrategy,2023.2.3,Win32,60.60606061,,,,,,,,,,,6,11,1,4,,,,,,,,,,,,,,,,,,,,,,,,,,,,,
663107c78dd42ba9f097a9fc,TCR,2024-06-24_17h34.20.351,LearnStrategy,2023.2.3,Win32,60.60606061,,,,,,,,,,,7,02,1,5,,,,,,,,,,,,,,,,,,,,,,,,,,,,,
663107c78dd42ba9f097a9fc,TCR,2024-06-24_17h34.20.351,LearnStrategy,2023.2.3,Win32,60.60606061,,,,,,,,,,,5,09,1,6,,,,,,,,,,,,,,,,,,,,,,,,,,,,,
663107c78dd42ba9f097a9fc,TCR,2024-06-24_17h34.20.351,LearnStrategy,2023.2.3,Win32,60.60606061,,,,,,,,,,,3,07,1,7,,,,,,,,,,,,,,,,,,,,,,,,,,,,,
663107c78dd42ba9f097a9fc,TCR,2024-06-24_17h34.20.351,LearnStrategy,2023.2.3,Win32,60.60606061,,,,,,,,,,,5,05,1,8,,,,,,,,,,,,,,,,,,,,,,,,,,,,,
663107c78dd42ba9f097a9fc,TCR,2024-06-24_17h34.20.351,LearnStrategy,2023.2.3,Win32,60.60606061,,,,,,,,,,,5,07,2,1,,,,,,,,,,,,,,,,,,,,,,,,,,,,,
663107c78dd42ba9f097a9fc,TCR,2024-06-24_17h34.20.351,LearnStrategy,2023.2.3,Win32,60.60606061,,,,,,,,,,,4,13,2,2,,,,,,,,,,,,,,,,,,,,,,,,,,,,,
663107c78dd42ba9f097a9fc,TCR,2024-06-24_17h34.20.351,LearnStrategy,2023.2.3,Win32,60.60606061,,,,,,,,,,,8,13,2,3,,,,,,,,,,,,,,,,,,,,,,,,,,,,,
663107c78dd42ba9f097a9fc,TCR,2024-06-24_17h34.20.351,LearnStrategy,2023.2.3,Win32,60.60606061,,,,,,,,,,,4,09,2,4,,,,,,,,,,,,,,,,,,,,,,,,,,,,,
663107c78dd42ba9f097a9fc,TCR,2024-06-24_17h34.20.351,LearnStrategy,2023.2.3,Win32,60.60606061,,,,,,,,,,,5,08,2,5,,,,,,,,,,,,,,,,,,,,,,,,,,,,,
663107c78dd42ba9f097a9fc,TCR,2024-06-24_17h34.20.351,LearnStrategy,2023.2.3,Win32,60.60606061,,,,,,,,,,,7,10,2,6,,,,,,,,,,,,,,,,,,,,,,,,,,,,,
663107c78dd42ba9f097a9fc,TCR,2024-06-24_17h34.20.351,LearnStrategy,2023.2.3,Win32,60.60606061,,,,,,,,,,,8,16,2,7,,,,,,,,,,,,,,,,,,,,,,,,,,,,,
663107c78dd42ba9f097a9fc,TCR,2024-06-24_17h34.20.351,LearnStrategy,2023.2.3,Win32,60.60606061,,,,,,,,,,,2,12,2,8,,,,,,,,,,,,,,,,,,,,,,,,,,,,,
663107c78dd42ba9f097a9fc,TCR,2024-06-24_17h34.20.351,LearnStrategy,2023.2.3,Win32,60.60606061,,,,,,,,,,,6,07,3,1,,,,,,,,,,,,,,,,,,,,,,,,,,,,,
663107c78dd42ba9f097a9fc,TCR,2024-06-24_17h34.20.351,LearnStrategy,2023.2.3,Win32,60.60606061,,,,,,,,,,,3,02,3,2,,,,,,,,,,,,,,,,,,,,,,,,,,,,,
663107c78dd42ba9f097a9fc,TCR,2024-06-24_17h34.20.351,LearnStrategy,2023.2.3,Win32,60.60606061,,,,,,,,,,,4,16,3,3,,,,,,,,,,,,,,,,,,,,,,,,,,,,,
663107c78dd42ba9f097a9fc,TCR,2024-06-24_17h34.20.351,LearnStrategy,2023.2.3,Win32,60.60606061,,,,,,,,,,,5,02,3,4,,,,,,,,,,,,,,,,,,,,,,,,,,,,,
663107c78dd42ba9f097a9fc,TCR,2024-06-24_17h34.20.351,LearnStrategy,2023.2.3,Win32,60.60606061,,,,,,,,,,,3,08,3,5,,,,,,,,,,,,,,,,,,,,,,,,,,,,,
663107c78dd42ba9f097a9fc,TCR,2024-06-24_17h34.20.351,LearnStrategy,2023.2.3,Win32,60.60606061,,,,,,,,,,,1,02,3,6,,,,,,,,,,,,,,,,,,,,,,,,,,,,,
663107c78dd42ba9f097a9fc,TCR,2024-06-24_17h34.20.351,LearnStrategy,2023.2.3,Win32,60.60606061,,,,,,,,,,,8,10,3,7,,,,,,,,,,,,,,,,,,,,,,,,,,,,,
663107c78dd42ba9f097a9fc,TCR,2024-06-24_17h34.20.351,LearnStrategy,2023.2.3,Win32,60.60606061,,,,,,,,,,,1,10,3,8,,,,,,,,,,,,,,,,,,,,,,,,,,,,,
663107c78dd42ba9f097a9fc,TCR,2024-06-24_17h34.20.351,LearnStrategy,2023.2.3,Win32,60.60606061,,,,,,,,,,,2,06,4,1,,,,,,,,,,,,,,,,,,,,,,,,,,,,,
663107c78dd42ba9f097a9fc,TCR,2024-06-24_17h34.20.351,LearnStrategy,2023.2.3,Win32,60.60606061,,,,,,,,,,,1,14,4,2,,,,,,,,,,,,,,,,,,,,,,,,,,,,,
663107c78dd42ba9f097a9fc,TCR,2024-06-24_17h34.20.351,LearnStrategy,2023.2.3,Win32,60.60606061,,,,,,,,,,,2,01,4,3,,,,,,,,,,,,,,,,,,,,,,,,,,,,,
663107c78dd42ba9f097a9fc,TCR,2024-06-24_17h34.20.351,LearnStrategy,2023.2.3,Win32,60.60606061,,,,,,,,,,,2,14,4,4,,,,,,,,,,,,,,,,,,,,,,,,,,,,,
663107c78dd42ba9f097a9fc,TCR,2024-06-24_17h34.20.351,LearnStrategy,2023.2.3,Win32,60.60606061,,,,,,,,,,,4,05,4,5,,,,,,,,,,,,,,,,,,,,,,,,,,,,,
663107c78dd42ba9f097a9fc,TCR,2024-06-24_17h34.20.351,LearnStrategy,2023.2.3,Win32,60.60606061,,,,,,,,,,,6,13,4,6,,,,,,,,,,,,,,,,,,,,,,,,,,,,,
663107c78dd42ba9f097a9fc,TCR,2024-06-24_17h34.20.351,LearnStrategy,2023.2.3,Win32,60.60606061,,,,,,,,,,,7,05,4,7,,,,,,,,,,,,,,,,,,,,,,,,,,,,,
663107c78dd42ba9f097a9fc,TCR,2024-06-24_17h34.20.351,LearnStrategy,2023.2.3,Win32,60.60606061,,,,,,,,,,,7,16,4,8,,,,,,,,,,,,,,,,,,,,,,,,,,,,,
663107c78dd42ba9f097a9fc,TCR,2024-06-24_17h34.20.351,LearnStrategy,2023.2.3,Win32,60.60606061,,,,,,,,,,,3,16,5,1,,,,,,,,,,,,,,,,,,,,,,,,,,,,,
663107c78dd42ba9f097a9fc,TCR,2024-06-24_17h34.20.351,LearnStrategy,2023.2.3,Win32,60.60606061,,,,,,,,,,,5,04,5,2,,,,,,,,,,,,,,,,,,,,,,,,,,,,,
663107c78dd42ba9f097a9fc,TCR,2024-06-24_17h34.20.351,LearnStrategy,2023.2.3,Win32,60.60606061,,,,,,,,,,,8,08,5,3,,,,,,,,,,,,,,,,,,,,,,,,,,,,,
663107c78dd42ba9f097a9fc,TCR,2024-06-24_17h34.20.351,LearnStrategy,2023.2.3,Win32,60.60606061,,,,,,,,,,,3,15,5,4,,,,,,,,,,,,,,,,,,,,,,,,,,,,,
663107c78dd42ba9f097a9fc,TCR,2024-06-24_17h34.20.351,LearnStrategy,2023.2.3,Win32,60.60606061,,,,,,,,,,,8,15,5,5,,,,,,,,,,,,,,,,,,,,,,,,,,,,,
663107c78dd42ba9f097a9fc,TCR,2024-06-24_17h34.20.351,LearnStrategy,2023.2.3,Win32,60.60606061,,,,,,,,,,,3,12,5,6,,,,,,,,,,,,,,,,,,,,,,,,,,,,,
663107c78dd42ba9f097a9fc,TCR,2024-06-24_17h34.20.351,LearnStrategy,2023.2.3,Win32,60.60606061,,,,,,,,,,,2,09,5,7,,,,,,,,,,,,,,,,,,,,,,,,,,,,,
663107c78dd42ba9f097a9fc,TCR,2024-06-24_17h34.20.351,LearnStrategy,2023.2.3,Win32,60.60606061,,,,,,,,,,,4,15,5,8,,,,,,,,,,,,,,,,,,,,,,,,,,,,,
663107c78dd42ba9f097a9fc,TCR,2024-06-24_17h34.20.351,LearnStrategy,2023.2.3,Win32,60.60606061,,,,,,,,,,,8,14,6,1,,,,,,,,,,,,,,,,,,,,,,,,,,,,,
663107c78dd42ba9f097a9fc,TCR,2024-06-24_17h34.20.351,LearnStrategy,2023.2.3,Win32,60.60606061,,,,,,,,,,,1,07,6,2,,,,,,,,,,,,,,,,,,,,,,,,,,,,,
663107c78dd42ba9f097a9fc,TCR,2024-06-24_17h34.20.351,LearnStrategy,2023.2.3,Win32,60.60606061,,,,,,,,,,,1,01,6,3,,,,,,,,,,,,,,,,,,,,,,,,,,,,,
663107c78dd42ba9f097a9fc,TCR,2024-06-24_17h34.20.351,LearnStrategy,2023.2.3,Win32,60.60606061,,,,,,,,,,,2,05,6,4,,,,,,,,,,,,,,,,,,,,,,,,,,,,,
663107c78dd42ba9f097a9fc,TCR,2024-06-24_17h34.20.351,LearnStrategy,2023.2.3,Win32,60.60606061,,,,,,,,,,,7,14,6,5,,,,,,,,,,,,,,,,,,,,,,,,,,,,,
663107c78dd42ba9f097a9fc,TCR,2024-06-24_17h34.20.351,LearnStrategy,2023.2.3,Win32,60.60606061,,,,,,,,,,,6,05,6,6,,,,,,,,,,,,,,,,,,,,,,,,,,,,,
663107c78dd42ba9f097a9fc,TCR,2024-06-24_17h34.20.351,LearnStrategy,2023.2.3,Win32,60.60606061,,,,,,,,,,,7,13,6,7,,,,,,,,,,,,,,,,,,,,,,,,,,,,,
663107c78dd42ba9f097a9fc,TCR,2024-06-24_17h34.20.351,LearnStrategy,2023.2.3,Win32,60.60606061,,,,,,,,,,,6,09,6,8,,,,,,,,,,,,,,,,,,,,,,,,,,,,,