participant,condition,date,expName,psychopyVersion,OS,frameRate,block,phase,trial,learn_mouse_2.x,learn_mouse_2.y,learn_mouse_2.leftButton,learn_mouse_2.midButton,learn_mouse_2.rightButton,learn_mouse_2.time,learn_mouse_2.clicked_name,cat,token,row,col,t_select,cat_mouse_l.x,cat_mouse_l.y,cat_mouse_l.leftButton,cat_mouse_l.midButton,cat_mouse_l.rightButton,cat_mouse_l.time,cat_mouse_l.clicked_name,resp,t_resp,corr,train_trials.thisRepN,train_trials.thisTrialN,train_trials.thisN,train_trials.thisIndex,train_trials.ran,cat_mouse_t.x,cat_mouse_t.y,cat_mouse_t.leftButton,cat_mouse_t.midButton,cat_mouse_t.rightButton,cat_mouse_t.time,cat_mouse_t.clicked_name,test_trials.thisRepN,test_trials.thisTrialN,test_trials.thisN,test_trials.thisIndex,test_trials.ran,Bonus
6631dd70c1393b01137d8453,TCR,2024-06-11_09h27.15.125,LearnStrategy,2023.2.3,Win32,59.88023952,,,,,,,,,,,,,,,,,,,,,,,,,,,,,,,,,,,,,,,,,,,
6631dd70c1393b01137d8453,TCR,2024-06-11_09h27.15.125,LearnStrategy,2023.2.3,Win32,59.88023952,1,1,1,0.010416667,-0.010416667,1,0,0,2.9884,rock_grid_rect_2,2,16,-1,-1,2.988,-0.154947917,-0.234375,1,0,0,4.8361,Basalt_rect,2,4.836,1,0,0,0,0,1,,,,,,,,,,,,,
6631dd70c1393b01137d8453,TCR,2024-06-11_09h27.15.125,LearnStrategy,2023.2.3,Win32,59.88023952,1,1,2,-0.005208333,-0.015625,1,0,0,1.4207,rock_grid_rect_2,5,04,-1,-1,1.421,-0.3671875,-0.419270833,1,0,0,8.0681,Obsidian_rect,5,8.068,1,1,0,1,0,1,,,,,,,,,,,,,
6631dd70c1393b01137d8453,TCR,2024-06-11_09h27.15.125,LearnStrategy,2023.2.3,Win32,59.88023952,1,1,3,-0.053385417,-0.015625,1,0,0,1.4658,rock_grid_rect_2,8,14,-1,-1,1.466,0.424479167,-0.404947917,1,0,0,22.2893,Pumice_rect,8,22.289,1,2,0,2,0,1,,,,,,,,,,,,,
6631dd70c1393b01137d8453,TCR,2024-06-11_09h27.15.125,LearnStrategy,2023.2.3,Win32,59.88023952,1,1,4,-0.037760417,0.005208333,1,0,0,1.6295,rock_grid_rect_2,3,15,-1,-1,1.63,0.13671875,-0.421875,1,0,0,5.9363,Peridotite_rect,7,5.936,0,3,0,3,0,1,,,,,,,,,,,,,
6631dd70c1393b01137d8453,TCR,2024-06-11_09h27.15.125,LearnStrategy,2023.2.3,Win32,59.88023952,1,1,5,-0.026041667,-0.016927083,1,0,0,1.4222,rock_grid_rect_2,3,02,-1,-1,1.422,0.100260417,-0.24609375,1,0,0,3.0174,Diorite_rect,3,3.017,1,4,0,4,0,1,,,,,,,,,,,,,
6631dd70c1393b01137d8453,TCR,2024-06-11_09h27.15.125,LearnStrategy,2023.2.3,Win32,59.88023952,1,1,6,0.028645833,-0.006510417,1,0,0,2.3354,rock_grid_rect_2,7,10,-1,-1,2.335,-0.08984375,-0.25390625,1,0,0,3.1621,Basalt_rect,2,3.162,0,5,0,5,0,1,,,,,,,,,,,,,
6631dd70c1393b01137d8453,TCR,2024-06-11_09h27.15.125,LearnStrategy,2023.2.3,Win32,59.88023952,1,1,7,-0.03515625,-0.015625,1,0,0,1.4784,rock_grid_rect_2,1,09,-1,-1,1.478,-0.434895833,-0.24609375,1,0,0,4.7323,Andesite_rect,1,4.732,1,6,0,6,0,1,,,,,,,,,,,,,
6631dd70c1393b01137d8453,TCR,2024-06-11_09h27.15.125,LearnStrategy,2023.2.3,Win32,59.88023952,1,1,8,-0.131510417,-0.018229167,1,0,0,1.6597,rock_grid_rect_2,5,06,-1,-1,1.66,0.420572917,-0.243489583,1,0,0,2.331,Gabbro_rect,4,2.331,0,7,0,7,0,1,,,,,,,,,,,,,
6631dd70c1393b01137d8453,TCR,2024-06-11_09h27.15.125,LearnStrategy,2023.2.3,Win32,59.88023952,1,1,9,-0.0625,0.014322917,1,0,0,1.1887,rock_grid_rect_2,6,07,-1,-1,1.189,-0.194010417,-0.385416667,1,0,0,8.0466,Pegmatite_rect,6,8.047,1,8,0,8,0,1,,,,,,,,,,,,,
6631dd70c1393b01137d8453,TCR,2024-06-11_09h27.15.125,LearnStrategy,2023.2.3,Win32,59.88023952,1,1,10,-0.001302083,-0.005208333,1,0,0,1.0752,rock_grid_rect_2,7,07,-1,-1,1.075,-0.111979167,-0.2578125,1,0,0,7.4306,Basalt_rect,2,7.431,0,9,0,9,0,1,,,,,,,,,,,,,
6631dd70c1393b01137d8453,TCR,2024-06-11_09h27.15.125,LearnStrategy,2023.2.3,Win32,59.88023952,1,1,11,-0.059895833,-0.016927083,1,0,0,1.291,rock_grid_rect_2,1,14,-1,-1,1.291,0.06640625,-0.401041667,1,0,0,2.0111,Peridotite_rect,7,2.011,0,10,0,10,0,1,,,,,,,,,,,,,
6631dd70c1393b01137d8453,TCR,2024-06-11_09h27.15.125,LearnStrategy,2023.2.3,Win32,59.88023952,1,1,12,-0.055989583,-0.013020833,1,0,0,1.0822,rock_grid_rect_2,4,05,-1,-1,1.082,0.06640625,-0.26171875,1,0,0,11.5994,Diorite_rect,3,11.599,0,11,0,11,0,1,,,,,,,,,,,,,
6631dd70c1393b01137d8453,TCR,2024-06-11_09h27.15.125,LearnStrategy,2023.2.3,Win32,59.88023952,1,1,13,0.013020833,-0.00390625,1,0,0,1.9657,rock_grid_rect_2,4,16,-1,-1,1.966,0.381510417,-0.25,1,0,0,7.114,Gabbro_rect,4,7.114,1,12,0,12,0,1,,,,,,,,,,,,,
6631dd70c1393b01137d8453,TCR,2024-06-11_09h27.15.125,LearnStrategy,2023.2.3,Win32,59.88023952,1,1,14,0.016927083,-0.018229167,1,0,0,1.2241,rock_grid_rect_2,8,05,-1,-1,1.224,-0.41796875,-0.264322917,1,0,0,13.966,Andesite_rect,1,13.966,0,13,0,13,0,1,,,,,,,,,,,,,
6631dd70c1393b01137d8453,TCR,2024-06-11_09h27.15.125,LearnStrategy,2023.2.3,Win32,59.88023952,1,1,15,0.014322917,-0.00390625,1,0,0,1.2978,rock_grid_rect_2,2,12,-1,-1,1.298,0.076822917,-0.397135417,1,0,0,2.7795,Peridotite_rect,7,2.779,0,14,0,14,0,1,,,,,,,,,,,,,
6631dd70c1393b01137d8453,TCR,2024-06-11_09h27.15.125,LearnStrategy,2023.2.3,Win32,59.88023952,1,1,16,0.045572917,-0.005208333,1,0,0,1.5481,rock_grid_rect_2,6,12,-1,-1,1.548,-0.12890625,-0.401041667,1,0,0,8.1143,Pegmatite_rect,6,8.114,1,15,0,15,0,1,,,,,,,,,,,,,
6631dd70c1393b01137d8453,TCR,2024-06-11_09h27.15.125,LearnStrategy,2023.2.3,Win32,59.88023952,1,2,1,,,,,,,,4,03,,,,,,,,,,,6,10.981,0,,,,,,-0.208333333,-0.38671875,1,0,0,10.9809,Pegmatite_rect,0,0,0,0,1,
6631dd70c1393b01137d8453,TCR,2024-06-11_09h27.15.125,LearnStrategy,2023.2.3,Win32,59.88023952,1,2,2,,,,,,,,5,14,,,,,,,,,,,5,1.328,1,,,,,,-0.321614583,-0.393229167,1,0,0,1.3283,Obsidian_rect,1,0,1,0,1,
6631dd70c1393b01137d8453,TCR,2024-06-11_09h27.15.125,LearnStrategy,2023.2.3,Win32,59.88023952,1,2,3,,,,,,,,8,04,,,,,,,,,,,8,2.312,1,,,,,,0.384114583,-0.395833333,1,0,0,2.3115,Pumice_rect,2,0,2,0,1,
6631dd70c1393b01137d8453,TCR,2024-06-11_09h27.15.125,LearnStrategy,2023.2.3,Win32,59.88023952,1,2,4,,,,,,,,5,10,,,,,,,,,,,5,2.028,1,,,,,,-0.356770833,-0.389322917,1,0,0,2.0284,Obsidian_rect,3,0,3,0,1,
6631dd70c1393b01137d8453,TCR,2024-06-11_09h27.15.125,LearnStrategy,2023.2.3,Win32,59.88023952,1,2,5,,,,,,,,3,16,,,,,,,,,,,7,5.179,0,,,,,,0.09375,-0.393229167,1,0,0,5.1791,Peridotite_rect,4,0,4,0,1,
6631dd70c1393b01137d8453,TCR,2024-06-11_09h27.15.125,LearnStrategy,2023.2.3,Win32,59.88023952,1,2,6,,,,,,,,8,10,,,,,,,,,,,8,1.644,1,,,,,,0.341145833,-0.384114583,1,0,0,1.6441,Pumice_rect,5,0,5,0,1,
6631dd70c1393b01137d8453,TCR,2024-06-11_09h27.15.125,LearnStrategy,2023.2.3,Win32,59.88023952,1,2,7,,,,,,,,7,08,,,,,,,,,,,2,1.578,0,,,,,,-0.0703125,-0.270833333,1,0,0,1.5785,Basalt_rect,6,0,6,0,1,
6631dd70c1393b01137d8453,TCR,2024-06-11_09h27.15.125,LearnStrategy,2023.2.3,Win32,59.88023952,1,2,8,,,,,,,,2,10,,,,,,,,,,,1,3.029,0,,,,,,-0.3125,-0.268229167,1,0,0,3.0288,Andesite_rect,7,0,7,0,1,
6631dd70c1393b01137d8453,TCR,2024-06-11_09h27.15.125,LearnStrategy,2023.2.3,Win32,59.88023952,1,2,9,,,,,,,,7,05,,,,,,,,,,,1,1.629,0,,,,,,-0.359375,-0.251302083,1,0,0,1.6291,Andesite_rect,8,0,8,0,1,
6631dd70c1393b01137d8453,TCR,2024-06-11_09h27.15.125,LearnStrategy,2023.2.3,Win32,59.88023952,1,2,10,,,,,,,,4,11,,,,,,,,,,,3,1.795,0,,,,,,0.119791667,-0.235677083,1,0,0,1.7948,Diorite_rect,9,0,9,0,1,
6631dd70c1393b01137d8453,TCR,2024-06-11_09h27.15.125,LearnStrategy,2023.2.3,Win32,59.88023952,1,2,11,,,,,,,,3,11,,,,,,,,,,,4,1.727,0,,,,,,0.326822917,-0.2578125,1,0,0,1.7274,Gabbro_rect,10,0,10,0,1,
6631dd70c1393b01137d8453,TCR,2024-06-11_09h27.15.125,LearnStrategy,2023.2.3,Win32,59.88023952,1,2,12,,,,,,,,6,15,,,,,,,,,,,5,2.212,0,,,,,,-0.33203125,-0.384114583,1,0,0,2.2125,Obsidian_rect,11,0,11,0,1,
6631dd70c1393b01137d8453,TCR,2024-06-11_09h27.15.125,LearnStrategy,2023.2.3,Win32,59.88023952,1,2,13,,,,,,,,1,03,,,,,,,,,,,7,2.273,0,,,,,,0.071614583,-0.38671875,1,0,0,2.2734,Peridotite_rect,12,0,12,0,1,
6631dd70c1393b01137d8453,TCR,2024-06-11_09h27.15.125,LearnStrategy,2023.2.3,Win32,59.88023952,1,2,14,,,,,,,,2,14,,,,,,,,,,,6,1.648,0,,,,,,-0.123697917,-0.40234375,1,0,0,1.6479,Pegmatite_rect,13,0,13,0,1,
6631dd70c1393b01137d8453,TCR,2024-06-11_09h27.15.125,LearnStrategy,2023.2.3,Win32,59.88023952,1,2,15,,,,,,,,1,11,,,,,,,,,,,2,1.761,0,,,,,,-0.100260417,-0.2578125,1,0,0,1.7612,Basalt_rect,14,0,14,0,1,
6631dd70c1393b01137d8453,TCR,2024-06-11_09h27.15.125,LearnStrategy,2023.2.3,Win32,59.88023952,1,2,16,,,,,,,,6,10,,,,,,,,,,,3,2.129,0,,,,,,0.083333333,-0.263020833,1,0,0,2.1285,Diorite_rect,15,0,15,0,1,
6631dd70c1393b01137d8453,TCR,2024-06-11_09h27.15.125,LearnStrategy,2023.2.3,Win32,59.88023952,2,1,1,-0.036458333,-0.009114583,1,0,0,1.4157,rock_grid_rect_2,1,07,-1,-1,1.416,-0.389322917,-0.239583333,1,0,0,11.2986,Andesite_rect,1,11.299,1,0,0,0,0,1,,,,,,,,,,,,,
6631dd70c1393b01137d8453,TCR,2024-06-11_09h27.15.125,LearnStrategy,2023.2.3,Win32,59.88023952,2,1,2,-0.059895833,0.009114583,1,0,0,1.1819,rock_grid_rect_2,6,07,-1,-1,1.182,-0.138020833,-0.26171875,1,0,0,14.4321,Basalt_rect,2,14.432,0,1,0,1,0,1,,,,,,,,,,,,,
6631dd70c1393b01137d8453,TCR,2024-06-11_09h27.15.125,LearnStrategy,2023.2.3,Win32,59.88023952,2,1,3,-0.015625,-0.014322917,1,0,0,1.5414,rock_grid_rect_2,7,04,-1,-1,1.541,0.095052083,-0.234375,1,0,0,9.1134,Diorite_rect,3,9.113,0,2,0,2,0,1,,,,,,,,,,,,,
6631dd70c1393b01137d8453,TCR,2024-06-11_09h27.15.125,LearnStrategy,2023.2.3,Win32,59.88023952,2,1,4,0,-0.005208333,1,0,0,1.5146,rock_grid_rect_2,3,13,-1,-1,1.515,-0.05078125,-0.231770833,1,0,0,5.0944,Basalt_rect,2,5.094,0,3,0,3,0,1,,,,,,,,,,,,,
6631dd70c1393b01137d8453,TCR,2024-06-11_09h27.15.125,LearnStrategy,2023.2.3,Win32,59.88023952,2,1,5,0.022135417,0.009114583,1,0,0,1.1151,rock_grid_rect_2,4,14,-1,-1,1.115,-0.084635417,-0.247395833,1,0,0,2.8283,Basalt_rect,2,2.828,0,4,0,4,0,1,,,,,,,,,,,,,
6631dd70c1393b01137d8453,TCR,2024-06-11_09h27.15.125,LearnStrategy,2023.2.3,Win32,59.88023952,2,1,6,0.079427083,0.009114583,1,0,0,1.1978,rock_grid_rect_2,4,01,-1,-1,1.198,-0.319010417,-0.25390625,1,0,0,3.6624,Andesite_rect,1,3.662,0,5,0,5,0,1,,,,,,,,,,,,,
6631dd70c1393b01137d8453,TCR,2024-06-11_09h27.15.125,LearnStrategy,2023.2.3,Win32,59.88023952,2,1,7,-0.118489583,-0.022135417,1,0,0,1.3475,rock_grid_rect_2,2,09,-1,-1,1.347,-0.345052083,-0.270833333,1,0,0,1.7936,Andesite_rect,1,1.794,0,6,0,6,0,1,,,,,,,,,,,,,
6631dd70c1393b01137d8453,TCR,2024-06-11_09h27.15.125,LearnStrategy,2023.2.3,Win32,59.88023952,2,1,8,0.057291667,-0.005208333,1,0,0,0.9647,rock_grid_rect_2,6,13,-1,-1,0.965,0.106770833,-0.389322917,1,0,0,3.9449,Peridotite_rect,7,3.945,0,7,0,7,0,1,,,,,,,,,,,,,
6631dd70c1393b01137d8453,TCR,2024-06-11_09h27.15.125,LearnStrategy,2023.2.3,Win32,59.88023952,2,1,9,-0.045572917,0.009114583,1,0,0,1.2322,rock_grid_rect_2,3,02,-1,-1,1.232,0.114583333,-0.24609375,1,0,0,3.3268,Diorite_rect,3,3.327,1,8,0,8,0,1,,,,,,,,,,,,,
6631dd70c1393b01137d8453,TCR,2024-06-11_09h27.15.125,LearnStrategy,2023.2.3,Win32,59.88023952,2,1,10,0.055989583,-0.018229167,1,0,0,1.3305,rock_grid_rect_2,7,14,-1,-1,1.331,0.354166667,-0.265625,1,0,0,3.213,Gabbro_rect,4,3.213,0,9,0,9,0,1,,,,,,,,,,,,,
6631dd70c1393b01137d8453,TCR,2024-06-11_09h27.15.125,LearnStrategy,2023.2.3,Win32,59.88023952,2,1,11,-0.01171875,-0.006510417,1,0,0,0.8646,rock_grid_rect_2,2,11,-1,-1,0.865,-0.317708333,-0.251302083,1,0,0,5.2121,Andesite_rect,1,5.212,0,10,0,10,0,1,,,,,,,,,,,,,
6631dd70c1393b01137d8453,TCR,2024-06-11_09h27.15.125,LearnStrategy,2023.2.3,Win32,59.88023952,2,1,12,0.06640625,-0.009114583,1,0,0,0.9308,rock_grid_rect_2,2,12,-1,-1,0.931,-0.100260417,-0.235677083,1,0,0,1.2917,Basalt_rect,2,1.292,1,11,0,11,0,1,,,,,,,,,,,,,
6631dd70c1393b01137d8453,TCR,2024-06-11_09h27.15.125,LearnStrategy,2023.2.3,Win32,59.88023952,2,1,13,-0.00390625,-0.001302083,1,0,0,1.2814,rock_grid_rect_2,6,12,-1,-1,1.281,0.1796875,-0.3828125,1,0,0,3.1768,Peridotite_rect,7,3.177,0,12,0,12,0,1,,,,,,,,,,,,,
6631dd70c1393b01137d8453,TCR,2024-06-11_09h27.15.125,LearnStrategy,2023.2.3,Win32,59.88023952,2,1,14,-0.06640625,-0.006510417,1,0,0,1.1149,rock_grid_rect_2,7,07,-1,-1,1.115,-0.3515625,-0.243489583,1,0,0,4.2934,Andesite_rect,1,4.293,0,13,0,13,0,1,,,,,,,,,,,,,
6631dd70c1393b01137d8453,TCR,2024-06-11_09h27.15.125,LearnStrategy,2023.2.3,Win32,59.88023952,2,1,15,0.01171875,-0.01171875,1,0,0,0.981,rock_grid_rect_2,3,12,-1,-1,0.981,0.080729167,-0.260416667,1,0,0,1.7614,Diorite_rect,3,1.761,1,14,0,14,0,1,,,,,,,,,,,,,
6631dd70c1393b01137d8453,TCR,2024-06-11_09h27.15.125,LearnStrategy,2023.2.3,Win32,59.88023952,2,1,16,0.018229167,-0.01171875,1,0,0,1.2485,rock_grid_rect_2,1,06,-1,-1,1.248,-0.095052083,-0.40625,1,0,0,4.0126,Pegmatite_rect,6,4.013,0,15,0,15,0,1,,,,,,,,,,,,,
6631dd70c1393b01137d8453,TCR,2024-06-11_09h27.15.125,LearnStrategy,2023.2.3,Win32,59.88023952,2,2,1,,,,,,,,8,15,,,,,,,,,,,8,9.228,1,,,,,,0.358072917,-0.416666667,1,0,0,9.2278,Pumice_rect,0,0,0,0,1,
6631dd70c1393b01137d8453,TCR,2024-06-11_09h27.15.125,LearnStrategy,2023.2.3,Win32,59.88023952,2,2,2,,,,,,,,7,16,,,,,,,,,,,6,7.495,0,,,,,,-0.067708333,-0.404947917,1,0,0,7.4947,Pegmatite_rect,1,0,1,0,1,
6631dd70c1393b01137d8453,TCR,2024-06-11_09h27.15.125,LearnStrategy,2023.2.3,Win32,59.88023952,2,2,3,,,,,,,,6,16,,,,,,,,,,,4,2.729,0,,,,,,0.369791667,-0.26953125,1,0,0,2.7289,Gabbro_rect,2,0,2,0,1,
6631dd70c1393b01137d8453,TCR,2024-06-11_09h27.15.125,LearnStrategy,2023.2.3,Win32,59.88023952,2,2,4,,,,,,,,3,09,,,,,,,,,,,2,4.747,0,,,,,,-0.0859375,-0.244791667,1,0,0,4.747,Basalt_rect,3,0,3,0,1,
6631dd70c1393b01137d8453,TCR,2024-06-11_09h27.15.125,LearnStrategy,2023.2.3,Win32,59.88023952,2,2,5,,,,,,,,5,05,,,,,,,,,,,5,2.685,1,,,,,,-0.451822917,-0.391927083,1,0,0,2.6852,Obsidian_rect,4,0,4,0,1,
6631dd70c1393b01137d8453,TCR,2024-06-11_09h27.15.125,LearnStrategy,2023.2.3,Win32,59.88023952,2,2,6,,,,,,,,6,08,,,,,,,,,,,5,2.199,0,,,,,,-0.459635417,-0.395833333,1,0,0,2.1988,Obsidian_rect,5,0,5,0,1,
6631dd70c1393b01137d8453,TCR,2024-06-11_09h27.15.125,LearnStrategy,2023.2.3,Win32,59.88023952,2,2,7,,,,,,,,1,02,,,,,,,,,,,6,4.004,0,,,,,,-0.087239583,-0.399739583,1,0,0,4.0039,Pegmatite_rect,6,0,6,0,1,
6631dd70c1393b01137d8453,TCR,2024-06-11_09h27.15.125,LearnStrategy,2023.2.3,Win32,59.88023952,2,2,8,,,,,,,,1,04,,,,,,,,,,,1,3.316,1,,,,,,-0.3515625,-0.2578125,1,0,0,3.3156,Andesite_rect,7,0,7,0,1,
6631dd70c1393b01137d8453,TCR,2024-06-11_09h27.15.125,LearnStrategy,2023.2.3,Win32,59.88023952,2,2,9,,,,,,,,2,08,,,,,,,,,,,4,28.984,0,,,,,,0.359375,-0.25390625,1,0,0,28.984,Gabbro_rect,8,0,8,0,1,
6631dd70c1393b01137d8453,TCR,2024-06-11_09h27.15.125,LearnStrategy,2023.2.3,Win32,59.88023952,2,2,10,,,,,,,,5,02,,,,,,,,,,,5,1.428,1,,,,,,-0.350260417,-0.3828125,1,0,0,1.4285,Obsidian_rect,9,0,9,0,1,
6631dd70c1393b01137d8453,TCR,2024-06-11_09h27.15.125,LearnStrategy,2023.2.3,Win32,59.88023952,2,2,11,,,,,,,,2,05,,,,,,,,,,,6,4.695,0,,,,,,-0.111979167,-0.39453125,1,0,0,4.6955,Pegmatite_rect,10,0,10,0,1,
6631dd70c1393b01137d8453,TCR,2024-06-11_09h27.15.125,LearnStrategy,2023.2.3,Win32,59.88023952,2,2,12,,,,,,,,3,10,,,,,,,,,,,2,1.542,0,,,,,,-0.143229167,-0.244791667,1,0,0,1.5423,Basalt_rect,11,0,11,0,1,
6631dd70c1393b01137d8453,TCR,2024-06-11_09h27.15.125,LearnStrategy,2023.2.3,Win32,59.88023952,2,2,13,,,,,,,,4,15,,,,,,,,,,,1,3.48,0,,,,,,-0.427083333,-0.236979167,1,0,0,3.4796,Andesite_rect,12,0,12,0,1,
6631dd70c1393b01137d8453,TCR,2024-06-11_09h27.15.125,LearnStrategy,2023.2.3,Win32,59.88023952,2,2,14,,,,,,,,8,08,,,,,,,,,,,8,2.192,1,,,,,,0.34765625,-0.389322917,1,0,0,2.1915,Pumice_rect,13,0,13,0,1,
6631dd70c1393b01137d8453,TCR,2024-06-11_09h27.15.125,LearnStrategy,2023.2.3,Win32,59.88023952,2,2,15,,,,,,,,4,13,,,,,,,,,,,3,1.446,0,,,,,,0.141927083,-0.255208333,1,0,0,1.4457,Diorite_rect,14,0,14,0,1,
6631dd70c1393b01137d8453,TCR,2024-06-11_09h27.15.125,LearnStrategy,2023.2.3,Win32,59.88023952,2,2,16,,,,,,,,7,02,,,,,,,,,,,7,1.576,1,,,,,,0.108072917,-0.401041667,1,0,0,1.5757,Peridotite_rect,15,0,15,0,1,
6631dd70c1393b01137d8453,TCR,2024-06-11_09h27.15.125,LearnStrategy,2023.2.3,Win32,59.88023952,3,1,1,-0.049479167,0.0078125,1,0,0,2.0491,rock_grid_rect_2,4,01,-1,-1,2.049,-0.147135417,-0.233072917,1,0,0,2.7606,Basalt_rect,2,2.761,0,0,0,0,0,1,,,,,,,,,,,,,
6631dd70c1393b01137d8453,TCR,2024-06-11_09h27.15.125,LearnStrategy,2023.2.3,Win32,59.88023952,3,1,2,-0.010416667,-0.005208333,1,0,0,1.3975,rock_grid_rect_2,6,09,-1,-1,1.398,-0.40234375,-0.243489583,1,0,0,2.9129,Andesite_rect,1,2.913,0,1,0,1,0,1,,,,,,,,,,,,,
6631dd70c1393b01137d8453,TCR,2024-06-11_09h27.15.125,LearnStrategy,2023.2.3,Win32,59.88023952,3,1,3,0.016927083,-0.005208333,1,0,0,1.5645,rock_grid_rect_2,2,12,-1,-1,1.564,0.10546875,-0.390625,1,0,0,4.0617,Peridotite_rect,7,4.062,0,2,0,2,0,1,,,,,,,,,,,,,
6631dd70c1393b01137d8453,TCR,2024-06-11_09h27.15.125,LearnStrategy,2023.2.3,Win32,59.88023952,3,1,4,-0.024739583,-0.0078125,1,0,0,1.3976,rock_grid_rect_2,3,12,-1,-1,1.398,0.091145833,-0.26171875,1,0,0,2.3632,Diorite_rect,3,2.363,1,3,0,3,0,1,,,,,,,,,,,,,
6631dd70c1393b01137d8453,TCR,2024-06-11_09h27.15.125,LearnStrategy,2023.2.3,Win32,59.88023952,3,1,5,-0.036458333,0.002604167,1,0,0,1.1473,rock_grid_rect_2,4,05,-1,-1,1.147,-0.171875,-0.39453125,1,0,0,3.4294,Pegmatite_rect,6,3.429,0,4,0,4,0,1,,,,,,,,,,,,,
6631dd70c1393b01137d8453,TCR,2024-06-11_09h27.15.125,LearnStrategy,2023.2.3,Win32,59.88023952,3,1,6,0.045572917,0,1,0,0,1.0978,rock_grid_rect_2,1,14,-1,-1,1.098,0.07421875,-0.38671875,1,0,0,2.7604,Peridotite_rect,7,2.76,0,5,0,5,0,1,,,,,,,,,,,,,
6631dd70c1393b01137d8453,TCR,2024-06-11_09h27.15.125,LearnStrategy,2023.2.3,Win32,59.88023952,3,1,7,-0.037760417,-0.01171875,1,0,0,1.2478,rock_grid_rect_2,4,05,-1,-1,1.248,-0.123697917,-0.384114583,1,0,0,4.0443,Pegmatite_rect,6,4.044,0,6,0,6,0,1,,,,,,,,,,,,,
6631dd70c1393b01137d8453,TCR,2024-06-11_09h27.15.125,LearnStrategy,2023.2.3,Win32,59.88023952,3,1,8,0.013020833,-0.015625,1,0,0,1.0656,rock_grid_rect_2,2,12,-1,-1,1.066,-0.395833333,-0.243489583,1,0,0,2.6429,Andesite_rect,1,2.643,0,7,0,7,0,1,,,,,,,,,,,,,
6631dd70c1393b01137d8453,TCR,2024-06-11_09h27.15.125,LearnStrategy,2023.2.3,Win32,59.88023952,3,1,9,-0.049479167,-0.010416667,1,0,0,1.3476,rock_grid_rect_2,6,12,-1,-1,1.348,0.201822917,-0.266927083,1,0,0,3.2448,Diorite_rect,3,3.245,0,8,0,8,0,1,,,,,,,,,,,,,
6631dd70c1393b01137d8453,TCR,2024-06-11_09h27.15.125,LearnStrategy,2023.2.3,Win32,59.88023952,3,1,10,0.032552083,-0.01171875,1,0,0,1.0977,rock_grid_rect_2,2,01,-1,-1,1.098,0.079427083,-0.411458333,1,0,0,8.7465,Peridotite_rect,7,8.747,0,9,0,9,0,1,,,,,,,,,,,,,
6631dd70c1393b01137d8453,TCR,2024-06-11_09h27.15.125,LearnStrategy,2023.2.3,Win32,59.88023952,3,1,11,-0.061197917,-0.016927083,1,0,0,1.0641,rock_grid_rect_2,3,06,-1,-1,1.064,0.08203125,-0.256510417,1,0,0,3.3447,Diorite_rect,3,3.345,1,10,0,10,0,1,,,,,,,,,,,,,
6631dd70c1393b01137d8453,TCR,2024-06-11_09h27.15.125,LearnStrategy,2023.2.3,Win32,59.88023952,3,1,12,-0.001302083,-0.010416667,1,0,0,1.3307,rock_grid_rect_2,6,07,-1,-1,1.331,-0.1171875,-0.408854167,1,0,0,4.9791,Pegmatite_rect,6,4.979,1,11,0,11,0,1,,,,,,,,,,,,,
6631dd70c1393b01137d8453,TCR,2024-06-11_09h27.15.125,LearnStrategy,2023.2.3,Win32,59.88023952,3,1,13,-0.03515625,-0.013020833,1,0,0,1.1713,rock_grid_rect_2,7,12,-1,-1,1.171,0.138020833,-0.38671875,1,0,0,3.3937,Peridotite_rect,7,3.394,1,12,0,12,0,1,,,,,,,,,,,,,
6631dd70c1393b01137d8453,TCR,2024-06-11_09h27.15.125,LearnStrategy,2023.2.3,Win32,59.88023952,3,1,14,0.029947917,-0.005208333,1,0,0,1.3307,rock_grid_rect_2,7,14,-1,-1,1.331,0.376302083,-0.243489583,1,0,0,1.8096,Gabbro_rect,4,1.81,0,13,0,13,0,1,,,,,,,,,,,,,
6631dd70c1393b01137d8453,TCR,2024-06-11_09h27.15.125,LearnStrategy,2023.2.3,Win32,59.88023952,3,1,15,-0.046875,-0.013020833,1,0,0,1.1148,rock_grid_rect_2,1,14,-1,-1,1.115,-0.201822917,-0.259114583,1,0,0,3.5114,Basalt_rect,2,3.511,0,14,0,14,0,1,,,,,,,,,,,,,
6631dd70c1393b01137d8453,TCR,2024-06-11_09h27.15.125,LearnStrategy,2023.2.3,Win32,59.88023952,3,1,16,-0.016927083,-0.01953125,1,0,0,0.9474,rock_grid_rect_2,3,15,-1,-1,0.947,0.33203125,-0.2578125,1,0,0,3.4456,Gabbro_rect,4,3.446,0,15,0,15,0,1,,,,,,,,,,,,,
6631dd70c1393b01137d8453,TCR,2024-06-11_09h27.15.125,LearnStrategy,2023.2.3,Win32,59.88023952,3,2,1,,,,,,,,5,07,,,,,,,,,,,5,1.678,1,,,,,,-0.3828125,-0.389322917,1,0,0,1.6781,Obsidian_rect,0,0,0,0,1,
6631dd70c1393b01137d8453,TCR,2024-06-11_09h27.15.125,LearnStrategy,2023.2.3,Win32,59.88023952,3,2,2,,,,,,,,2,04,,,,,,,,,,,4,10.448,0,,,,,,0.36328125,-0.26953125,1,0,0,10.4485,Gabbro_rect,1,0,1,0,1,
6631dd70c1393b01137d8453,TCR,2024-06-11_09h27.15.125,LearnStrategy,2023.2.3,Win32,59.88023952,3,2,3,,,,,,,,6,06,,,,,,,,,,,6,5.984,1,,,,,,-0.05859375,-0.408854167,1,0,0,5.9843,Pegmatite_rect,2,0,2,0,1,
6631dd70c1393b01137d8453,TCR,2024-06-11_09h27.15.125,LearnStrategy,2023.2.3,Win32,59.88023952,3,2,4,,,,,,,,4,08,,,,,,,,,,,2,2.485,0,,,,,,-0.118489583,-0.259114583,1,0,0,2.4853,Basalt_rect,3,0,3,0,1,
6631dd70c1393b01137d8453,TCR,2024-06-11_09h27.15.125,LearnStrategy,2023.2.3,Win32,59.88023952,3,2,5,,,,,,,,2,06,,,,,,,,,,,2,1.532,1,,,,,,-0.14453125,-0.260416667,1,0,0,1.5317,Basalt_rect,4,0,4,0,1,
6631dd70c1393b01137d8453,TCR,2024-06-11_09h27.15.125,LearnStrategy,2023.2.3,Win32,59.88023952,3,2,6,,,,,,,,4,09,,,,,,,,,,,2,1.432,0,,,,,,-0.170572917,-0.24609375,1,0,0,1.4323,Basalt_rect,5,0,5,0,1,
6631dd70c1393b01137d8453,TCR,2024-06-11_09h27.15.125,LearnStrategy,2023.2.3,Win32,59.88023952,3,2,7,,,,,,,,6,03,,,,,,,,,,,4,4.163,0,,,,,,0.372395833,-0.26171875,1,0,0,4.1632,Gabbro_rect,6,0,6,0,1,
6631dd70c1393b01137d8453,TCR,2024-06-11_09h27.15.125,LearnStrategy,2023.2.3,Win32,59.88023952,3,2,8,,,,,,,,3,08,,,,,,,,,,,7,2.634,0,,,,,,0.079427083,-0.40625,1,0,0,2.6337,Peridotite_rect,7,0,7,0,1,
6631dd70c1393b01137d8453,TCR,2024-06-11_09h27.15.125,LearnStrategy,2023.2.3,Win32,59.88023952,3,2,9,,,,,,,,3,14,,,,,,,,,,,3,2.383,1,,,,,,0.049479167,-0.251302083,1,0,0,2.383,Diorite_rect,8,0,8,0,1,
6631dd70c1393b01137d8453,TCR,2024-06-11_09h27.15.125,LearnStrategy,2023.2.3,Win32,59.88023952,3,2,10,,,,,,,,7,15,,,,,,,,,,,1,1.447,0,,,,,,-0.348958333,-0.236979167,1,0,0,1.4471,Andesite_rect,9,0,9,0,1,
6631dd70c1393b01137d8453,TCR,2024-06-11_09h27.15.125,LearnStrategy,2023.2.3,Win32,59.88023952,3,2,11,,,,,,,,1,10,,,,,,,,,,,2,4.854,0,,,,,,-0.07421875,-0.248697917,1,0,0,4.854,Basalt_rect,10,0,10,0,1,
6631dd70c1393b01137d8453,TCR,2024-06-11_09h27.15.125,LearnStrategy,2023.2.3,Win32,59.88023952,3,2,12,,,,,,,,1,05,,,,,,,,,,,3,0.983,0,,,,,,0.061197917,-0.229166667,1,0,0,0.9835,Diorite_rect,11,0,11,0,1,
6631dd70c1393b01137d8453,TCR,2024-06-11_09h27.15.125,LearnStrategy,2023.2.3,Win32,59.88023952,3,2,13,,,,,,,,8,03,,,,,,,,,,,8,1.725,1,,,,,,0.3515625,-0.401041667,1,0,0,1.7254,Pumice_rect,12,0,12,0,1,
6631dd70c1393b01137d8453,TCR,2024-06-11_09h27.15.125,LearnStrategy,2023.2.3,Win32,59.88023952,3,2,14,,,,,,,,8,06,,,,,,,,,,,8,1.712,1,,,,,,0.315104167,-0.38671875,1,0,0,1.7121,Pumice_rect,13,0,13,0,1,
6631dd70c1393b01137d8453,TCR,2024-06-11_09h27.15.125,LearnStrategy,2023.2.3,Win32,59.88023952,3,2,15,,,,,,,,7,13,,,,,,,,,,,3,3.776,0,,,,,,0.21875,-0.251302083,1,0,0,3.7759,Diorite_rect,14,0,14,0,1,
6631dd70c1393b01137d8453,TCR,2024-06-11_09h27.15.125,LearnStrategy,2023.2.3,Win32,59.88023952,3,2,16,,,,,,,,5,12,,,,,,,,,,,5,1.41,1,,,,,,-0.34765625,-0.385416667,1,0,0,1.4098,Obsidian_rect,15,0,15,0,1,
6631dd70c1393b01137d8453,TCR,2024-06-11_09h27.15.125,LearnStrategy,2023.2.3,Win32,59.88023952,4,1,1,0.04296875,-0.009114583,1,0,0,1.9661,rock_grid_rect_2,3,13,-1,-1,1.966,0.075520833,-0.391927083,1,0,0,8.6624,Peridotite_rect,7,8.662,0,0,0,0,0,1,,,,,,,,,,,,,
6631dd70c1393b01137d8453,TCR,2024-06-11_09h27.15.125,LearnStrategy,2023.2.3,Win32,59.88023952,4,1,2,-0.001302083,-0.002604167,1,0,0,1.3325,rock_grid_rect_2,7,10,-1,-1,1.332,0.07421875,-0.39453125,1,0,0,3.4964,Peridotite_rect,7,3.496,1,1,0,1,0,1,,,,,,,,,,,,,
6631dd70c1393b01137d8453,TCR,2024-06-11_09h27.15.125,LearnStrategy,2023.2.3,Win32,59.88023952,4,1,3,0.010416667,0.001302083,1,0,0,1.4376,rock_grid_rect_2,4,12,-1,-1,1.438,-0.125,-0.248697917,1,0,0,3.8769,Basalt_rect,2,3.877,0,2,0,2,0,1,,,,,,,,,,,,,
6631dd70c1393b01137d8453,TCR,2024-06-11_09h27.15.125,LearnStrategy,2023.2.3,Win32,59.88023952,4,1,4,0.016927083,-0.0078125,1,0,0,1.1977,rock_grid_rect_2,2,01,-1,-1,1.198,-0.0859375,-0.2578125,1,0,0,1.2761,Basalt_rect,2,1.276,1,3,0,3,0,1,,,,,,,,,,,,,
6631dd70c1393b01137d8453,TCR,2024-06-11_09h27.15.125,LearnStrategy,2023.2.3,Win32,59.88023952,4,1,5,-0.0078125,-0.00390625,1,0,0,1.381,rock_grid_rect_2,2,01,-1,-1,1.381,-0.111979167,-0.264322917,1,0,0,1.243,Basalt_rect,2,1.243,1,4,0,4,0,1,,,,,,,,,,,,,
6631dd70c1393b01137d8453,TCR,2024-06-11_09h27.15.125,LearnStrategy,2023.2.3,Win32,59.88023952,4,1,6,-0.06640625,-0.009114583,1,0,0,1.0141,rock_grid_rect_2,3,15,-1,-1,1.014,-0.384114583,-0.244791667,1,0,0,6.4968,Andesite_rect,1,6.497,0,5,0,5,0,1,,,,,,,,,,,,,
6631dd70c1393b01137d8453,TCR,2024-06-11_09h27.15.125,LearnStrategy,2023.2.3,Win32,59.88023952,4,1,7,0.006510417,-0.010416667,1,0,0,0.98,rock_grid_rect_2,1,07,-1,-1,0.98,0.36328125,-0.252604167,1,0,0,6.9621,Gabbro_rect,4,6.962,0,6,0,6,0,1,,,,,,,,,,,,,
6631dd70c1393b01137d8453,TCR,2024-06-11_09h27.15.125,LearnStrategy,2023.2.3,Win32,59.88023952,4,1,8,0.020833333,-0.01171875,1,0,0,1.4148,rock_grid_rect_2,6,09,-1,-1,1.415,0.130208333,-0.259114583,1,0,0,6.3281,Diorite_rect,3,6.328,0,7,0,7,0,1,,,,,,,,,,,,,
6631dd70c1393b01137d8453,TCR,2024-06-11_09h27.15.125,LearnStrategy,2023.2.3,Win32,59.88023952,4,1,9,0.0546875,-0.015625,1,0,0,1.4469,rock_grid_rect_2,7,06,-1,-1,1.447,-0.139322917,-0.391927083,1,0,0,2.0775,Pegmatite_rect,6,2.077,0,8,0,8,0,1,,,,,,,,,,,,,
6631dd70c1393b01137d8453,TCR,2024-06-11_09h27.15.125,LearnStrategy,2023.2.3,Win32,59.88023952,4,1,10,0.015625,-0.016927083,1,0,0,1.0806,rock_grid_rect_2,4,14,-1,-1,1.081,-0.12109375,-0.268229167,1,0,0,5.4974,Basalt_rect,2,5.497,0,9,0,9,0,1,,,,,,,,,,,,,
6631dd70c1393b01137d8453,TCR,2024-06-11_09h27.15.125,LearnStrategy,2023.2.3,Win32,59.88023952,4,1,11,0.079427083,-0.01171875,1,0,0,0.9821,rock_grid_rect_2,4,05,-1,-1,0.982,-0.11328125,-0.23828125,1,0,0,2.3096,Basalt_rect,2,2.31,0,10,0,10,0,1,,,,,,,,,,,,,
6631dd70c1393b01137d8453,TCR,2024-06-11_09h27.15.125,LearnStrategy,2023.2.3,Win32,59.88023952,4,1,12,0.059895833,0,1,0,0,0.9307,rock_grid_rect_2,6,05,-1,-1,0.931,-0.115885417,-0.395833333,1,0,0,2.6104,Pegmatite_rect,6,2.61,1,11,0,11,0,1,,,,,,,,,,,,,
6631dd70c1393b01137d8453,TCR,2024-06-11_09h27.15.125,LearnStrategy,2023.2.3,Win32,59.88023952,4,1,13,0.009114583,-0.01171875,1,0,0,1.2472,rock_grid_rect_2,2,09,-1,-1,1.247,0.080729167,-0.38671875,1,0,0,4.1795,Peridotite_rect,7,4.18,0,12,0,12,0,1,,,,,,,,,,,,,
6631dd70c1393b01137d8453,TCR,2024-06-11_09h27.15.125,LearnStrategy,2023.2.3,Win32,59.88023952,4,1,14,0.0546875,-0.018229167,1,0,0,1.2139,rock_grid_rect_2,1,09,-1,-1,1.214,-0.1015625,-0.243489583,1,0,0,1.5613,Basalt_rect,2,1.561,0,13,0,13,0,1,,,,,,,,,,,,,
6631dd70c1393b01137d8453,TCR,2024-06-11_09h27.15.125,LearnStrategy,2023.2.3,Win32,59.88023952,4,1,15,-0.00390625,-0.013020833,1,0,0,1.2498,rock_grid_rect_2,1,14,-1,-1,1.25,-0.092447917,-0.401041667,1,0,0,2.4288,Pegmatite_rect,6,2.429,0,14,0,14,0,1,,,,,,,,,,,,,
6631dd70c1393b01137d8453,TCR,2024-06-11_09h27.15.125,LearnStrategy,2023.2.3,Win32,59.88023952,4,1,16,-0.002604167,0.020833333,1,0,0,0.88,rock_grid_rect_2,3,06,-1,-1,0.88,0.092447917,-0.388020833,1,0,0,6.5977,Peridotite_rect,7,6.598,0,15,0,15,0,1,,,,,,,,,,,,,
6631dd70c1393b01137d8453,TCR,2024-06-11_09h27.15.125,LearnStrategy,2023.2.3,Win32,59.88023952,4,2,1,,,,,,,,4,13,,,,,,,,,,,4,2.86,1,,,,,,0.364583333,-0.240885417,1,0,0,2.8601,Gabbro_rect,0,0,0,0,1,
6631dd70c1393b01137d8453,TCR,2024-06-11_09h27.15.125,LearnStrategy,2023.2.3,Win32,59.88023952,4,2,2,,,,,,,,3,08,,,,,,,,,,,6,5.096,0,,,,,,-0.157552083,-0.420572917,1,0,0,5.0964,Pegmatite_rect,1,0,1,0,1,
6631dd70c1393b01137d8453,TCR,2024-06-11_09h27.15.125,LearnStrategy,2023.2.3,Win32,59.88023952,4,2,3,,,,,,,,8,04,,,,,,,,,,,8,1.776,1,,,,,,0.322916667,-0.399739583,1,0,0,1.7764,Pumice_rect,2,0,2,0,1,
6631dd70c1393b01137d8453,TCR,2024-06-11_09h27.15.125,LearnStrategy,2023.2.3,Win32,59.88023952,4,2,4,,,,,,,,7,08,,,,,,,,,,,3,3.194,0,,,,,,0.083333333,-0.265625,1,0,0,3.1942,Diorite_rect,3,0,3,0,1,
6631dd70c1393b01137d8453,TCR,2024-06-11_09h27.15.125,LearnStrategy,2023.2.3,Win32,59.88023952,4,2,5,,,,,,,,6,16,,,,,,,,,,,6,1.442,1,,,,,,-0.192708333,-0.407552083,1,0,0,1.4418,Pegmatite_rect,4,0,4,0,1,
6631dd70c1393b01137d8453,TCR,2024-06-11_09h27.15.125,LearnStrategy,2023.2.3,Win32,59.88023952,4,2,6,,,,,,,,3,10,,,,,,,,,,,1,4.346,0,,,,,,-0.345052083,-0.248697917,1,0,0,4.3462,Andesite_rect,5,0,5,0,1,
6631dd70c1393b01137d8453,TCR,2024-06-11_09h27.15.125,LearnStrategy,2023.2.3,Win32,59.88023952,4,2,7,,,,,,,,7,16,,,,,,,,,,,2,1.512,0,,,,,,-0.0703125,-0.259114583,1,0,0,1.5116,Basalt_rect,6,0,6,0,1,
6631dd70c1393b01137d8453,TCR,2024-06-11_09h27.15.125,LearnStrategy,2023.2.3,Win32,59.88023952,4,2,8,,,,,,,,5,12,,,,,,,,,,,5,1.325,1,,,,,,-0.384114583,-0.37890625,1,0,0,1.3253,Obsidian_rect,7,0,7,0,1,
6631dd70c1393b01137d8453,TCR,2024-06-11_09h27.15.125,LearnStrategy,2023.2.3,Win32,59.88023952,4,2,9,,,,,,,,2,08,,,,,,,,,,,3,2.863,0,,,,,,0.053385417,-0.26953125,1,0,0,2.863,Diorite_rect,8,0,8,0,1,
6631dd70c1393b01137d8453,TCR,2024-06-11_09h27.15.125,LearnStrategy,2023.2.3,Win32,59.88023952,4,2,10,,,,,,,,5,10,,,,,,,,,,,5,1.827,1,,,,,,-0.455729167,-0.411458333,1,0,0,1.8269,Obsidian_rect,9,0,9,0,1,
6631dd70c1393b01137d8453,TCR,2024-06-11_09h27.15.125,LearnStrategy,2023.2.3,Win32,59.88023952,4,2,11,,,,,,,,1,11,,,,,,,,,,,7,2.556,0,,,,,,0.1484375,-0.41015625,1,0,0,2.5563,Peridotite_rect,10,0,10,0,1,
6631dd70c1393b01137d8453,TCR,2024-06-11_09h27.15.125,LearnStrategy,2023.2.3,Win32,59.88023952,4,2,12,,,,,,,,2,10,,,,,,,,,,,1,3.15,0,,,,,,-0.459635417,-0.23046875,1,0,0,3.1496,Andesite_rect,11,0,11,0,1,
6631dd70c1393b01137d8453,TCR,2024-06-11_09h27.15.125,LearnStrategy,2023.2.3,Win32,59.88023952,4,2,13,,,,,,,,8,10,,,,,,,,,,,8,2.169,1,,,,,,0.372395833,-0.395833333,1,0,0,2.1688,Pumice_rect,12,0,12,0,1,
6631dd70c1393b01137d8453,TCR,2024-06-11_09h27.15.125,LearnStrategy,2023.2.3,Win32,59.88023952,4,2,14,,,,,,,,4,03,,,,,,,,,,,2,2.253,0,,,,,,-0.078125,-0.247395833,1,0,0,2.2525,Basalt_rect,13,0,13,0,1,
6631dd70c1393b01137d8453,TCR,2024-06-11_09h27.15.125,LearnStrategy,2023.2.3,Win32,59.88023952,4,2,15,,,,,,,,1,05,,,,,,,,,,,7,3.415,0,,,,,,0.048177083,-0.390625,1,0,0,3.4149,Peridotite_rect,14,0,14,0,1,
6631dd70c1393b01137d8453,TCR,2024-06-11_09h27.15.125,LearnStrategy,2023.2.3,Win32,59.88023952,4,2,16,,,,,,,,6,15,,,,,,,,,,,6,1.792,1,,,,,,-0.08984375,-0.385416667,1,0,0,1.7922,Pegmatite_rect,15,0,15,0,1,
6631dd70c1393b01137d8453,TCR,2024-06-11_09h27.15.125,LearnStrategy,2023.2.3,Win32,59.88023952,5,1,1,0.049479167,0.01953125,1,0,0,9.485,rock_grid_rect_2,4,16,-1,-1,9.485,0.184895833,-0.234375,1,0,0,12.4472,Diorite_rect,3,12.447,0,0,0,0,0,1,,,,,,,,,,,,,
6631dd70c1393b01137d8453,TCR,2024-06-11_09h27.15.125,LearnStrategy,2023.2.3,Win32,59.88023952,5,1,2,0.09375,0.00390625,1,0,0,1.0801,rock_grid_rect_2,7,04,-1,-1,1.08,0.078125,-0.25390625,1,0,0,2.0769,Diorite_rect,3,2.077,0,1,0,1,0,1,,,,,,,,,,,,,
6631dd70c1393b01137d8453,TCR,2024-06-11_09h27.15.125,LearnStrategy,2023.2.3,Win32,59.88023952,5,1,3,0.053385417,-0.014322917,1,0,0,1.3824,rock_grid_rect_2,7,06,-1,-1,1.382,-0.1484375,-0.39453125,1,0,0,2.1624,Pegmatite_rect,6,2.162,0,2,0,2,0,1,,,,,,,,,,,,,
6631dd70c1393b01137d8453,TCR,2024-06-11_09h27.15.125,LearnStrategy,2023.2.3,Win32,59.88023952,5,1,4,0,-0.013020833,1,0,0,0.9814,rock_grid_rect_2,1,01,-1,-1,0.981,-0.481770833,-0.25390625,1,0,0,2.3628,Andesite_rect,1,2.363,1,3,0,3,0,1,,,,,,,,,,,,,
6631dd70c1393b01137d8453,TCR,2024-06-11_09h27.15.125,LearnStrategy,2023.2.3,Win32,59.88023952,5,1,5,-0.057291667,-0.014322917,1,0,0,1.1635,rock_grid_rect_2,2,09,-1,-1,1.164,-0.1171875,-0.24609375,1,0,0,5.8797,Basalt_rect,2,5.88,1,4,0,4,0,1,,,,,,,,,,,,,
6631dd70c1393b01137d8453,TCR,2024-06-11_09h27.15.125,LearnStrategy,2023.2.3,Win32,59.88023952,5,1,6,-0.03515625,-0.020833333,1,0,0,1.0805,rock_grid_rect_2,6,07,-1,-1,1.081,-0.1796875,-0.40234375,1,0,0,2.9105,Pegmatite_rect,6,2.91,1,5,0,5,0,1,,,,,,,,,,,,,
6631dd70c1393b01137d8453,TCR,2024-06-11_09h27.15.125,LearnStrategy,2023.2.3,Win32,59.88023952,5,1,7,-0.078125,0.001302083,1,0,0,0.8642,rock_grid_rect_2,4,12,-1,-1,0.864,0.295572917,-0.26171875,1,0,0,6.5458,Gabbro_rect,4,6.546,1,6,0,6,0,1,,,,,,,,,,,,,
6631dd70c1393b01137d8453,TCR,2024-06-11_09h27.15.125,LearnStrategy,2023.2.3,Win32,59.88023952,5,1,8,-0.040364583,-0.022135417,1,0,0,1.4638,rock_grid_rect_2,3,12,-1,-1,1.464,0.083333333,-0.236979167,1,0,0,1.746,Diorite_rect,3,1.746,1,7,0,7,0,1,,,,,,,,,,,,,
6631dd70c1393b01137d8453,TCR,2024-06-11_09h27.15.125,LearnStrategy,2023.2.3,Win32,59.88023952,5,1,9,0.016927083,-0.010416667,1,0,0,0.9486,rock_grid_rect_2,1,14,-1,-1,0.949,-0.1328125,-0.403645833,1,0,0,2.3139,Pegmatite_rect,6,2.314,0,8,0,8,0,1,,,,,,,,,,,,,
6631dd70c1393b01137d8453,TCR,2024-06-11_09h27.15.125,LearnStrategy,2023.2.3,Win32,59.88023952,5,1,10,-0.044270833,0,1,0,0,1.0476,rock_grid_rect_2,3,07,-1,-1,1.048,-0.11328125,-0.407552083,1,0,0,1.2598,Pegmatite_rect,6,1.26,0,9,0,9,0,1,,,,,,,,,,,,,
6631dd70c1393b01137d8453,TCR,2024-06-11_09h27.15.125,LearnStrategy,2023.2.3,Win32,59.88023952,5,1,11,-0.048177083,0.016927083,1,0,0,0.7984,rock_grid_rect_2,7,14,-1,-1,0.798,0.3046875,-0.251302083,1,0,0,4.663,Gabbro_rect,4,4.663,0,10,0,10,0,1,,,,,,,,,,,,,
6631dd70c1393b01137d8453,TCR,2024-06-11_09h27.15.125,LearnStrategy,2023.2.3,Win32,59.88023952,5,1,12,-0.016927083,-0.022135417,1,0,0,1.1138,rock_grid_rect_2,3,07,-1,-1,1.114,-0.130208333,-0.3984375,1,0,0,3.6102,Pegmatite_rect,6,3.61,0,11,0,11,0,1,,,,,,,,,,,,,
6631dd70c1393b01137d8453,TCR,2024-06-11_09h27.15.125,LearnStrategy,2023.2.3,Win32,59.88023952,5,1,13,-0.048177083,-0.001302083,1,0,0,1.1301,rock_grid_rect_2,6,07,-1,-1,1.13,-0.130208333,-0.384114583,1,0,0,2.5267,Pegmatite_rect,6,2.527,1,12,0,12,0,1,,,,,,,,,,,,,
6631dd70c1393b01137d8453,TCR,2024-06-11_09h27.15.125,LearnStrategy,2023.2.3,Win32,59.88023952,5,1,14,-0.088541667,-0.005208333,1,0,0,1.3304,rock_grid_rect_2,1,07,-1,-1,1.33,0.04296875,-0.41015625,1,0,0,3.2947,Peridotite_rect,7,3.295,0,13,0,13,0,1,,,,,,,,,,,,,
6631dd70c1393b01137d8453,TCR,2024-06-11_09h27.15.125,LearnStrategy,2023.2.3,Win32,59.88023952,5,1,15,0.022135417,-0.0078125,1,0,0,7.1831,rock_grid_rect_2,2,12,-1,-1,7.183,-0.0703125,-0.264322917,1,0,0,40.1381,Basalt_rect,2,40.138,1,14,0,14,0,1,,,,,,,,,,,,,
6631dd70c1393b01137d8453,TCR,2024-06-11_09h27.15.125,LearnStrategy,2023.2.3,Win32,59.88023952,5,1,16,-0.02734375,0.01171875,1,0,0,1.1797,rock_grid_rect_2,2,16,-1,-1,1.18,0.350260417,-0.25,1,0,0,4.8284,Gabbro_rect,4,4.828,0,15,0,15,0,1,,,,,,,,,,,,,
6631dd70c1393b01137d8453,TCR,2024-06-11_09h27.15.125,LearnStrategy,2023.2.3,Win32,59.88023952,5,2,1,,,,,,,,6,03,,,,,,,,,,,6,2.393,1,,,,,,-0.0859375,-0.3984375,1,0,0,2.3933,Pegmatite_rect,0,0,0,0,1,
6631dd70c1393b01137d8453,TCR,2024-06-11_09h27.15.125,LearnStrategy,2023.2.3,Win32,59.88023952,5,2,2,,,,,,,,2,04,,,,,,,,,,,1,6.51,0,,,,,,-0.346354167,-0.244791667,1,0,0,6.5101,Andesite_rect,1,0,1,0,1,
6631dd70c1393b01137d8453,TCR,2024-06-11_09h27.15.125,LearnStrategy,2023.2.3,Win32,59.88023952,5,2,3,,,,,,,,8,08,,,,,,,,,,,8,1.713,1,,,,,,0.40234375,-0.41015625,1,0,0,1.7127,Pumice_rect,2,0,2,0,1,
6631dd70c1393b01137d8453,TCR,2024-06-11_09h27.15.125,LearnStrategy,2023.2.3,Win32,59.88023952,5,2,4,,,,,,,,8,06,,,,,,,,,,,8,1.143,1,,,,,,0.3828125,-0.41015625,1,0,0,1.1434,Pumice_rect,3,0,3,0,1,
6631dd70c1393b01137d8453,TCR,2024-06-11_09h27.15.125,LearnStrategy,2023.2.3,Win32,59.88023952,5,2,5,,,,,,,,2,06,,,,,,,,,,,2,5.71,1,,,,,,-0.143229167,-0.247395833,1,0,0,5.7105,Basalt_rect,4,0,4,0,1,
6631dd70c1393b01137d8453,TCR,2024-06-11_09h27.15.125,LearnStrategy,2023.2.3,Win32,59.88023952,5,2,6,,,,,,,,1,04,,,,,,,,,,,4,2.793,0,,,,,,0.309895833,-0.240885417,1,0,0,2.793,Gabbro_rect,5,0,5,0,1,
6631dd70c1393b01137d8453,TCR,2024-06-11_09h27.15.125,LearnStrategy,2023.2.3,Win32,59.88023952,5,2,7,,,,,,,,4,11,,,,,,,,,,,2,2.66,0,,,,,,-0.05859375,-0.266927083,1,0,0,2.6596,Basalt_rect,6,0,6,0,1,
6631dd70c1393b01137d8453,TCR,2024-06-11_09h27.15.125,LearnStrategy,2023.2.3,Win32,59.88023952,5,2,8,,,,,,,,7,05,,,,,,,,,,,1,3.61,0,,,,,,-0.315104167,-0.259114583,1,0,0,3.6098,Andesite_rect,7,0,7,0,1,
6631dd70c1393b01137d8453,TCR,2024-06-11_09h27.15.125,LearnStrategy,2023.2.3,Win32,59.88023952,5,2,9,,,,,,,,1,03,,,,,,,,,,,3,3.61,0,,,,,,0.05078125,-0.264322917,1,0,0,3.6103,Diorite_rect,8,0,8,0,1,
6631dd70c1393b01137d8453,TCR,2024-06-11_09h27.15.125,LearnStrategy,2023.2.3,Win32,59.88023952,5,2,10,,,,,,,,6,10,,,,,,,,,,,6,2.259,1,,,,,,-0.04296875,-0.395833333,1,0,0,2.2587,Pegmatite_rect,9,0,9,0,1,
6631dd70c1393b01137d8453,TCR,2024-06-11_09h27.15.125,LearnStrategy,2023.2.3,Win32,59.88023952,5,2,11,,,,,,,,5,14,,,,,,,,,,,5,2.794,1,,,,,,-0.356770833,-0.3984375,1,0,0,2.7943,Obsidian_rect,10,0,10,0,1,
6631dd70c1393b01137d8453,TCR,2024-06-11_09h27.15.125,LearnStrategy,2023.2.3,Win32,59.88023952,5,2,12,,,,,,,,3,16,,,,,,,,,,,7,2.142,0,,,,,,0.110677083,-0.3828125,1,0,0,2.1424,Peridotite_rect,11,0,11,0,1,
6631dd70c1393b01137d8453,TCR,2024-06-11_09h27.15.125,LearnStrategy,2023.2.3,Win32,59.88023952,5,2,13,,,,,,,,4,15,,,,,,,,,,,7,1.909,0,,,,,,0.098958333,-0.388020833,1,0,0,1.9087,Peridotite_rect,12,0,12,0,1,
6631dd70c1393b01137d8453,TCR,2024-06-11_09h27.15.125,LearnStrategy,2023.2.3,Win32,59.88023952,5,2,14,,,,,,,,7,02,,,,,,,,,,,6,2.008,0,,,,,,-0.104166667,-0.384114583,1,0,0,2.0082,Pegmatite_rect,13,0,13,0,1,
6631dd70c1393b01137d8453,TCR,2024-06-11_09h27.15.125,LearnStrategy,2023.2.3,Win32,59.88023952,5,2,15,,,,,,,,3,14,,,,,,,,,,,6,1.801,0,,,,,,-0.102864583,-0.393229167,1,0,0,1.8008,Pegmatite_rect,14,0,14,0,1,
6631dd70c1393b01137d8453,TCR,2024-06-11_09h27.15.125,LearnStrategy,2023.2.3,Win32,59.88023952,5,2,16,,,,,,,,5,07,,,,,,,,,,,5,1.548,1,,,,,,-0.31640625,-0.407552083,1,0,0,1.5478,Obsidian_rect,15,0,15,0,1,
6631dd70c1393b01137d8453,TCR,2024-06-11_09h27.15.125,LearnStrategy,2023.2.3,Win32,59.88023952,6,1,1,-0.041666667,0.006510417,1,0,0,1.5816,rock_grid_rect_2,6,13,-1,-1,1.582,-0.147135417,-0.401041667,1,0,0,4.0443,Pegmatite_rect,6,4.044,1,0,0,0,0,1,,,,,,,,,,,,,
6631dd70c1393b01137d8453,TCR,2024-06-11_09h27.15.125,LearnStrategy,2023.2.3,Win32,59.88023952,6,1,2,-0.041666667,-0.009114583,1,0,0,1.3135,rock_grid_rect_2,1,01,-1,-1,1.313,0.182291667,-0.39453125,1,0,0,4.3774,Peridotite_rect,7,4.377,0,1,0,1,0,1,,,,,,,,,,,,,
6631dd70c1393b01137d8453,TCR,2024-06-11_09h27.15.125,LearnStrategy,2023.2.3,Win32,59.88023952,6,1,3,0,-0.006510417,1,0,0,1.0625,rock_grid_rect_2,7,14,-1,-1,1.063,0.420572917,-0.248697917,1,0,0,2.3773,Gabbro_rect,4,2.377,0,2,0,2,0,1,,,,,,,,,,,,,
6631dd70c1393b01137d8453,TCR,2024-06-11_09h27.15.125,LearnStrategy,2023.2.3,Win32,59.88023952,6,1,4,-0.041666667,-0.010416667,1,0,0,1.3471,rock_grid_rect_2,3,12,-1,-1,1.347,0.39453125,-0.264322917,1,0,0,3.2273,Gabbro_rect,4,3.227,0,3,0,3,0,1,,,,,,,,,,,,,
6631dd70c1393b01137d8453,TCR,2024-06-11_09h27.15.125,LearnStrategy,2023.2.3,Win32,59.88023952,6,1,5,0.010416667,-0.020833333,1,0,0,1.2306,rock_grid_rect_2,7,04,-1,-1,1.231,-0.342447917,-0.24609375,1,0,0,5.2138,Andesite_rect,1,5.214,0,4,0,4,0,1,,,,,,,,,,,,,
6631dd70c1393b01137d8453,TCR,2024-06-11_09h27.15.125,LearnStrategy,2023.2.3,Win32,59.88023952,6,1,6,0.0234375,-0.01171875,1,0,0,1.0472,rock_grid_rect_2,4,16,-1,-1,1.047,0.360677083,-0.244791667,1,0,0,5.1603,Gabbro_rect,4,5.16,1,5,0,5,0,1,,,,,,,,,,,,,
6631dd70c1393b01137d8453,TCR,2024-06-11_09h27.15.125,LearnStrategy,2023.2.3,Win32,59.88023952,6,1,7,-0.072916667,-0.002604167,1,0,0,1.1631,rock_grid_rect_2,7,12,-1,-1,1.163,-0.057291667,-0.408854167,1,0,0,5.9959,Pegmatite_rect,6,5.996,0,6,0,6,0,1,,,,,,,,,,,,,
6631dd70c1393b01137d8453,TCR,2024-06-11_09h27.15.125,LearnStrategy,2023.2.3,Win32,59.88023952,6,1,8,-0.067708333,-0.009114583,1,0,0,1.1971,rock_grid_rect_2,3,15,-1,-1,1.197,0.078125,-0.23828125,1,0,0,1.2611,Diorite_rect,3,1.261,1,7,0,7,0,1,,,,,,,,,,,,,
6631dd70c1393b01137d8453,TCR,2024-06-11_09h27.15.125,LearnStrategy,2023.2.3,Win32,59.88023952,6,1,9,-0.076822917,0.0078125,1,0,0,1.2987,rock_grid_rect_2,2,11,-1,-1,1.299,0.135416667,-0.411458333,1,0,0,57.2109,Peridotite_rect,7,57.211,0,8,0,8,0,1,,,,,,,,,,,,,
6631dd70c1393b01137d8453,TCR,2024-06-11_09h27.15.125,LearnStrategy,2023.2.3,Win32,59.88023952,6,1,10,0.033854167,-0.001302083,1,0,0,1.5133,rock_grid_rect_2,1,14,-1,-1,1.513,-0.115885417,-0.39453125,1,0,0,1.7936,Pegmatite_rect,6,1.794,0,9,0,9,0,1,,,,,,,,,,,,,
6631dd70c1393b01137d8453,TCR,2024-06-11_09h27.15.125,LearnStrategy,2023.2.3,Win32,59.88023952,6,1,11,-0.03515625,-0.005208333,1,0,0,0.948,rock_grid_rect_2,1,09,-1,-1,0.948,-0.1171875,-0.251302083,1,0,0,1.8262,Basalt_rect,2,1.826,0,10,0,10,0,1,,,,,,,,,,,,,
6631dd70c1393b01137d8453,TCR,2024-06-11_09h27.15.125,LearnStrategy,2023.2.3,Win32,59.88023952,6,1,12,-0.005208333,-0.018229167,1,0,0,1.1814,rock_grid_rect_2,1,06,-1,-1,1.181,0.1796875,-0.25,1,0,0,2.1267,Diorite_rect,3,2.127,0,11,0,11,0,1,,,,,,,,,,,,,
6631dd70c1393b01137d8453,TCR,2024-06-11_09h27.15.125,LearnStrategy,2023.2.3,Win32,59.88023952,6,1,13,0.018229167,0,1,0,0,1.0982,rock_grid_rect_2,4,10,-1,-1,1.098,-0.1171875,-0.251302083,1,0,0,2.427,Basalt_rect,2,2.427,0,12,0,12,0,1,,,,,,,,,,,,,
6631dd70c1393b01137d8453,TCR,2024-06-11_09h27.15.125,LearnStrategy,2023.2.3,Win32,59.88023952,6,1,14,0.0078125,-0.0078125,1,0,0,1.031,rock_grid_rect_2,2,09,-1,-1,1.031,0.1015625,-0.265625,1,0,0,6.628,Diorite_rect,3,6.628,0,13,0,13,0,1,,,,,,,,,,,,,
6631dd70c1393b01137d8453,TCR,2024-06-11_09h27.15.125,LearnStrategy,2023.2.3,Win32,59.88023952,6,1,15,0.032552083,-0.010416667,1,0,0,1.0475,rock_grid_rect_2,3,12,-1,-1,1.048,-0.350260417,-0.260416667,1,0,0,7.1642,Andesite_rect,1,7.164,0,14,0,14,0,1,,,,,,,,,,,,,
6631dd70c1393b01137d8453,TCR,2024-06-11_09h27.15.125,LearnStrategy,2023.2.3,Win32,59.88023952,6,1,16,0,-0.014322917,1,0,0,1.1803,rock_grid_rect_2,4,10,-1,-1,1.18,-0.135416667,-0.263020833,1,0,0,1.6435,Basalt_rect,2,1.643,0,15,0,15,0,1,,,,,,,,,,,,,
6631dd70c1393b01137d8453,TCR,2024-06-11_09h27.15.125,LearnStrategy,2023.2.3,Win32,59.88023952,6,2,1,,,,,,,,2,05,,,,,,,,,,,2,4.36,1,,,,,,-0.083333333,-0.247395833,1,0,0,4.3595,Basalt_rect,0,0,0,0,1,
6631dd70c1393b01137d8453,TCR,2024-06-11_09h27.15.125,LearnStrategy,2023.2.3,Win32,59.88023952,6,2,2,,,,,,,,5,02,,,,,,,,,,,5,1.526,1,,,,,,-0.381510417,-0.38671875,1,0,0,1.5257,Obsidian_rect,1,0,1,0,1,
6631dd70c1393b01137d8453,TCR,2024-06-11_09h27.15.125,LearnStrategy,2023.2.3,Win32,59.88023952,6,2,3,,,,,,,,8,15,,,,,,,,,,,8,1.494,1,,,,,,0.375,-0.408854167,1,0,0,1.4939,Pumice_rect,2,0,2,0,1,
6631dd70c1393b01137d8453,TCR,2024-06-11_09h27.15.125,LearnStrategy,2023.2.3,Win32,59.88023952,6,2,4,,,,,,,,7,15,,,,,,,,,,,7,4.461,1,,,,,,0.16015625,-0.415364583,1,0,0,4.4606,Peridotite_rect,3,0,3,0,1,
6631dd70c1393b01137d8453,TCR,2024-06-11_09h27.15.125,LearnStrategy,2023.2.3,Win32,59.88023952,6,2,5,,,,,,,,1,10,,,,,,,,,,,4,6.977,0,,,,,,0.319010417,-0.264322917,1,0,0,6.9774,Gabbro_rect,4,0,4,0,1,
6631dd70c1393b01137d8453,TCR,2024-06-11_09h27.15.125,LearnStrategy,2023.2.3,Win32,59.88023952,6,2,6,,,,,,,,5,05,,,,,,,,,,,5,1.457,1,,,,,,-0.428385417,-0.407552083,1,0,0,1.4571,Obsidian_rect,5,0,5,0,1,
6631dd70c1393b01137d8453,TCR,2024-06-11_09h27.15.125,LearnStrategy,2023.2.3,Win32,59.88023952,6,2,7,,,,,,,,4,08,,,,,,,,,,,1,2.125,0,,,,,,-0.305989583,-0.231770833,1,0,0,2.1254,Andesite_rect,6,0,6,0,1,
6631dd70c1393b01137d8453,TCR,2024-06-11_09h27.15.125,LearnStrategy,2023.2.3,Win32,59.88023952,6,2,8,,,,,,,,6,08,,,,,,,,,,,6,1.601,1,,,,,,-0.134114583,-0.41015625,1,0,0,1.6014,Pegmatite_rect,7,0,7,0,1,
6631dd70c1393b01137d8453,TCR,2024-06-11_09h27.15.125,LearnStrategy,2023.2.3,Win32,59.88023952,6,2,9,,,,,,,,2,14,,,,,,,,,,,3,8.964,0,,,,,,0.131510417,-0.255208333,1,0,0,8.9638,Diorite_rect,8,0,8,0,1,
6631dd70c1393b01137d8453,TCR,2024-06-11_09h27.15.125,LearnStrategy,2023.2.3,Win32,59.88023952,6,2,10,,,,,,,,3,11,,,,,,,,,,,7,6.161,0,,,,,,0.104166667,-0.388020833,1,0,0,6.1612,Peridotite_rect,9,0,9,0,1,
6631dd70c1393b01137d8453,TCR,2024-06-11_09h27.15.125,LearnStrategy,2023.2.3,Win32,59.88023952,6,2,11,,,,,,,,6,06,,,,,,,,,,,7,1.892,0,,,,,,0.102864583,-0.385416667,1,0,0,1.8924,Peridotite_rect,10,0,10,0,1,
6631dd70c1393b01137d8453,TCR,2024-06-11_09h27.15.125,LearnStrategy,2023.2.3,Win32,59.88023952,6,2,12,,,,,,,,7,13,,,,,,,,,,,4,2.266,0,,,,,,0.3203125,-0.2578125,1,0,0,2.2657,Gabbro_rect,11,0,11,0,1,
6631dd70c1393b01137d8453,TCR,2024-06-11_09h27.15.125,LearnStrategy,2023.2.3,Win32,59.88023952,6,2,13,,,,,,,,1,02,,,,,,,,,,,3,3.216,0,,,,,,0.076822917,-0.248697917,1,0,0,3.2162,Diorite_rect,12,0,12,0,1,
6631dd70c1393b01137d8453,TCR,2024-06-11_09h27.15.125,LearnStrategy,2023.2.3,Win32,59.88023952,6,2,14,,,,,,,,4,09,,,,,,,,,,,2,1.519,0,,,,,,-0.071614583,-0.25390625,1,0,0,1.5186,Basalt_rect,13,0,13,0,1,
6631dd70c1393b01137d8453,TCR,2024-06-11_09h27.15.125,LearnStrategy,2023.2.3,Win32,59.88023952,6,2,15,,,,,,,,3,09,,,,,,,,,,,6,4.516,0,,,,,,-0.095052083,-0.389322917,1,0,0,4.5165,Pegmatite_rect,14,0,14,0,1,
6631dd70c1393b01137d8453,TCR,2024-06-11_09h27.15.125,LearnStrategy,2023.2.3,Win32,59.88023952,6,2,16,,,,,,,,8,03,,,,,,,,,,,8,1.849,1,,,,,,0.40234375,-0.407552083,1,0,0,1.8492,Pumice_rect,15,0,15,0,1,
6631dd70c1393b01137d8453,TCR,2024-06-11_09h27.15.125,LearnStrategy,2023.2.3,Win32,59.88023952,7,1,1,-0.03125,-0.002604167,1,0,0,1.398,rock_grid_rect_2,3,06,-1,-1,1.398,0.329427083,-0.231770833,1,0,0,4.3103,Gabbro_rect,4,4.31,0,0,0,0,0,1,,,,,,,,,,,,,
6631dd70c1393b01137d8453,TCR,2024-06-11_09h27.15.125,LearnStrategy,2023.2.3,Win32,59.88023952,7,1,2,0.01953125,-0.024739583,1,0,0,1.0297,rock_grid_rect_2,4,14,-1,-1,1.03,-0.125,-0.235677083,1,0,0,1.6607,Basalt_rect,2,1.661,0,1,0,1,0,1,,,,,,,,,,,,,
6631dd70c1393b01137d8453,TCR,2024-06-11_09h27.15.125,LearnStrategy,2023.2.3,Win32,59.88023952,7,1,3,0.00390625,-0.020833333,1,0,0,0.9319,rock_grid_rect_2,7,14,-1,-1,0.932,-0.34765625,-0.23828125,1,0,0,4.144,Andesite_rect,1,4.144,0,2,0,2,0,1,,,,,,,,,,,,,
6631dd70c1393b01137d8453,TCR,2024-06-11_09h27.15.125,LearnStrategy,2023.2.3,Win32,59.88023952,7,1,4,0.016927083,-0.016927083,1,0,0,1.432,rock_grid_rect_2,6,05,-1,-1,1.432,-0.0859375,-0.403645833,1,0,0,1.3601,Pegmatite_rect,6,1.36,1,3,0,3,0,1,,,,,,,,,,,,,
6631dd70c1393b01137d8453,TCR,2024-06-11_09h27.15.125,LearnStrategy,2023.2.3,Win32,59.88023952,7,1,5,-0.00390625,-0.002604167,1,0,0,0.9318,rock_grid_rect_2,1,06,-1,-1,0.932,-0.342447917,-0.251302083,1,0,0,4.1955,Andesite_rect,1,4.196,1,4,0,4,0,1,,,,,,,,,,,,,
6631dd70c1393b01137d8453,TCR,2024-06-11_09h27.15.125,LearnStrategy,2023.2.3,Win32,59.88023952,7,1,6,0.03125,-0.018229167,1,0,0,1.3639,rock_grid_rect_2,4,16,-1,-1,1.364,0.166666667,-0.421875,1,0,0,6.8117,Peridotite_rect,7,6.812,0,5,0,5,0,1,,,,,,,,,,,,,
6631dd70c1393b01137d8453,TCR,2024-06-11_09h27.15.125,LearnStrategy,2023.2.3,Win32,59.88023952,7,1,7,0.033854167,-0.002604167,1,0,0,0.8471,rock_grid_rect_2,3,07,-1,-1,0.847,-0.139322917,-0.40234375,1,0,0,1.7298,Pegmatite_rect,6,1.73,0,6,0,6,0,1,,,,,,,,,,,,,
6631dd70c1393b01137d8453,TCR,2024-06-11_09h27.15.125,LearnStrategy,2023.2.3,Win32,59.88023952,7,1,8,0.018229167,0,1,0,0,1.2649,rock_grid_rect_2,1,09,-1,-1,1.265,-0.0703125,-0.244791667,1,0,0,3.0299,Basalt_rect,2,3.03,0,7,0,7,0,1,,,,,,,,,,,,,
6631dd70c1393b01137d8453,TCR,2024-06-11_09h27.15.125,LearnStrategy,2023.2.3,Win32,59.88023952,7,1,9,0.016927083,-0.018229167,1,0,0,0.9798,rock_grid_rect_2,1,16,-1,-1,0.98,-0.376302083,-0.252604167,1,0,0,1.7267,Andesite_rect,1,1.727,1,8,0,8,0,1,,,,,,,,,,,,,
6631dd70c1393b01137d8453,TCR,2024-06-11_09h27.15.125,LearnStrategy,2023.2.3,Win32,59.88023952,7,1,10,-0.075520833,-0.014322917,1,0,0,0.9813,rock_grid_rect_2,7,10,-1,-1,0.981,0.11328125,-0.393229167,1,0,0,3.3963,Peridotite_rect,7,3.396,1,9,0,9,0,1,,,,,,,,,,,,,
6631dd70c1393b01137d8453,TCR,2024-06-11_09h27.15.125,LearnStrategy,2023.2.3,Win32,59.88023952,7,1,11,0.044270833,-0.013020833,1,0,0,1.2139,rock_grid_rect_2,1,14,-1,-1,1.214,-0.361979167,-0.235677083,1,0,0,1.8283,Andesite_rect,1,1.828,1,10,0,10,0,1,,,,,,,,,,,,,
6631dd70c1393b01137d8453,TCR,2024-06-11_09h27.15.125,LearnStrategy,2023.2.3,Win32,59.88023952,7,1,12,0.01953125,-0.006510417,1,0,0,1.3329,rock_grid_rect_2,3,02,-1,-1,1.333,-0.16796875,-0.2578125,1,0,0,2.0766,Basalt_rect,2,2.077,0,11,0,11,0,1,,,,,,,,,,,,,
6631dd70c1393b01137d8453,TCR,2024-06-11_09h27.15.125,LearnStrategy,2023.2.3,Win32,59.88023952,7,1,13,-0.001302083,-0.010416667,1,0,0,1.1814,rock_grid_rect_2,2,09,-1,-1,1.181,-0.125,-0.270833333,1,0,0,1.8283,Basalt_rect,2,1.828,1,12,0,12,0,1,,,,,,,,,,,,,
6631dd70c1393b01137d8453,TCR,2024-06-11_09h27.15.125,LearnStrategy,2023.2.3,Win32,59.88023952,7,1,14,0.013020833,-0.018229167,1,0,0,1.0163,rock_grid_rect_2,4,05,-1,-1,1.016,0.302083333,-0.231770833,1,0,0,41.9944,Gabbro_rect,4,41.994,1,13,0,13,0,1,,,,,,,,,,,,,
6631dd70c1393b01137d8453,TCR,2024-06-11_09h27.15.125,LearnStrategy,2023.2.3,Win32,59.88023952,7,1,15,-0.010416667,0,1,0,0,1.2471,rock_grid_rect_2,7,12,-1,-1,1.247,0.356770833,-0.23046875,1,0,0,16.138,Gabbro_rect,4,16.138,0,14,0,14,0,1,,,,,,,,,,,,,
6631dd70c1393b01137d8453,TCR,2024-06-11_09h27.15.125,LearnStrategy,2023.2.3,Win32,59.88023952,7,1,16,0.041666667,-0.009114583,1,0,0,1.3686,rock_grid_rect_2,2,01,-1,-1,1.369,-0.075520833,-0.243489583,1,0,0,3.1776,Basalt_rect,2,3.178,1,15,0,15,0,1,,,,,,,,,,,,,
6631dd70c1393b01137d8453,TCR,2024-06-11_09h27.15.125,LearnStrategy,2023.2.3,Win32,59.88023952,7,2,1,,,,,,,,8,10,,,,,,,,,,,8,1.798,1,,,,,,0.330729167,-0.393229167,1,0,0,1.7981,Pumice_rect,0,0,0,0,1,
6631dd70c1393b01137d8453,TCR,2024-06-11_09h27.15.125,LearnStrategy,2023.2.3,Win32,59.88023952,7,2,2,,,,,,,,2,10,,,,,,,,,,,4,9.889,0,,,,,,0.360677083,-0.251302083,1,0,0,9.8893,Gabbro_rect,1,0,1,0,1,
6631dd70c1393b01137d8453,TCR,2024-06-11_09h27.15.125,LearnStrategy,2023.2.3,Win32,59.88023952,7,2,3,,,,,,,,6,03,,,,,,,,,,,6,2.269,1,,,,,,-0.079427083,-0.399739583,1,0,0,2.2691,Pegmatite_rect,2,0,2,0,1,
6631dd70c1393b01137d8453,TCR,2024-06-11_09h27.15.125,LearnStrategy,2023.2.3,Win32,59.88023952,7,2,4,,,,,,,,7,05,,,,,,,,,,,1,3.649,0,,,,,,-0.33203125,-0.266927083,1,0,0,3.6494,Andesite_rect,3,0,3,0,1,
6631dd70c1393b01137d8453,TCR,2024-06-11_09h27.15.125,LearnStrategy,2023.2.3,Win32,59.88023952,7,2,5,,,,,,,,4,15,,,,,,,,,,,3,2.267,0,,,,,,0.151041667,-0.260416667,1,0,0,2.2669,Diorite_rect,4,0,4,0,1,
6631dd70c1393b01137d8453,TCR,2024-06-11_09h27.15.125,LearnStrategy,2023.2.3,Win32,59.88023952,7,2,6,,,,,,,,5,02,,,,,,,,,,,5,1.546,1,,,,,,-0.33984375,-0.390625,1,0,0,1.5462,Obsidian_rect,5,0,5,0,1,
6631dd70c1393b01137d8453,TCR,2024-06-11_09h27.15.125,LearnStrategy,2023.2.3,Win32,59.88023952,7,2,7,,,,,,,,3,10,,,,,,,,,,,7,4.219,0,,,,,,0.075520833,-0.385416667,1,0,0,4.2192,Peridotite_rect,6,0,6,0,1,
6631dd70c1393b01137d8453,TCR,2024-06-11_09h27.15.125,LearnStrategy,2023.2.3,Win32,59.88023952,7,2,8,,,,,,,,1,04,,,,,,,,,,,7,39.771,0,,,,,,0.122395833,-0.399739583,1,0,0,39.7713,Peridotite_rect,7,0,7,0,1,
6631dd70c1393b01137d8453,TCR,2024-06-11_09h27.15.125,LearnStrategy,2023.2.3,Win32,59.88023952,7,2,9,,,,,,,,3,09,,,,,,,,,,,6,1.795,0,,,,,,-0.087239583,-0.393229167,1,0,0,1.7951,Pegmatite_rect,8,0,8,0,1,
6631dd70c1393b01137d8453,TCR,2024-06-11_09h27.15.125,LearnStrategy,2023.2.3,Win32,59.88023952,7,2,10,,,,,,,,6,15,,,,,,,,,,,6,1.179,1,,,,,,-0.104166667,-0.381510417,1,0,0,1.1788,Pegmatite_rect,9,0,9,0,1,
6631dd70c1393b01137d8453,TCR,2024-06-11_09h27.15.125,LearnStrategy,2023.2.3,Win32,59.88023952,7,2,11,,,,,,,,1,10,,,,,,,,,,,1,5.127,1,,,,,,-0.346354167,-0.255208333,1,0,0,5.1268,Andesite_rect,10,0,10,0,1,
6631dd70c1393b01137d8453,TCR,2024-06-11_09h27.15.125,LearnStrategy,2023.2.3,Win32,59.88023952,7,2,12,,,,,,,,5,05,,,,,,,,,,,5,1.459,1,,,,,,-0.369791667,-0.385416667,1,0,0,1.4589,Obsidian_rect,11,0,11,0,1,
6631dd70c1393b01137d8453,TCR,2024-06-11_09h27.15.125,LearnStrategy,2023.2.3,Win32,59.88023952,7,2,13,,,,,,,,4,11,,,,,,,,,,,2,1.31,0,,,,,,-0.170572917,-0.25390625,1,0,0,1.3103,Basalt_rect,12,0,12,0,1,
6631dd70c1393b01137d8453,TCR,2024-06-11_09h27.15.125,LearnStrategy,2023.2.3,Win32,59.88023952,7,2,14,,,,,,,,7,02,,,,,,,,,,,6,1.376,0,,,,,,-0.11328125,-0.421875,1,0,0,1.3764,Pegmatite_rect,13,0,13,0,1,
6631dd70c1393b01137d8453,TCR,2024-06-11_09h27.15.125,LearnStrategy,2023.2.3,Win32,59.88023952,7,2,15,,,,,,,,2,05,,,,,,,,,,,2,1.796,1,,,,,,-0.12109375,-0.2421875,1,0,0,1.7958,Basalt_rect,14,0,14,0,1,
6631dd70c1393b01137d8453,TCR,2024-06-11_09h27.15.125,LearnStrategy,2023.2.3,Win32,59.88023952,7,2,16,,,,,,,,8,15,,,,,,,,,,,8,1.427,1,,,,,,0.330729167,-0.403645833,1,0,0,1.4265,Pumice_rect,15,0,15,0,1,
6631dd70c1393b01137d8453,TCR,2024-06-11_09h27.15.125,LearnStrategy,2023.2.3,Win32,59.88023952,8,1,1,-0.006510417,-0.015625,1,0,0,1.5655,rock_grid_rect_2,4,14,-1,-1,1.565,0.415364583,-0.251302083,1,0,0,8.9971,Gabbro_rect,4,8.997,1,0,0,0,0,1,,,,,,,,,,,,,
6631dd70c1393b01137d8453,TCR,2024-06-11_09h27.15.125,LearnStrategy,2023.2.3,Win32,59.88023952,8,1,2,-0.044270833,-0.00390625,1,0,0,1.1799,rock_grid_rect_2,2,02,-1,-1,1.18,-0.09765625,-0.270833333,1,0,0,1.4257,Basalt_rect,2,1.426,1,1,0,1,0,1,,,,,,,,,,,,,
6631dd70c1393b01137d8453,TCR,2024-06-11_09h27.15.125,LearnStrategy,2023.2.3,Win32,59.88023952,8,1,3,-0.05078125,-0.015625,1,0,0,1.2318,rock_grid_rect_2,7,14,-1,-1,1.232,0.108072917,-0.420572917,1,0,0,6.7293,Peridotite_rect,7,6.729,1,2,0,2,0,1,,,,,,,,,,,,,
6631dd70c1393b01137d8453,TCR,2024-06-11_09h27.15.125,LearnStrategy,2023.2.3,Win32,59.88023952,8,1,4,-0.05078125,-0.018229167,1,0,0,1.114,rock_grid_rect_2,1,09,-1,-1,1.114,-0.07421875,-0.231770833,1,0,0,1.8103,Basalt_rect,2,1.81,0,3,0,3,0,1,,,,,,,,,,,,,
6631dd70c1393b01137d8453,TCR,2024-06-11_09h27.15.125,LearnStrategy,2023.2.3,Win32,59.88023952,8,1,5,-0.016927083,-0.01171875,1,0,0,1.0479,rock_grid_rect_2,2,12,-1,-1,1.048,-0.141927083,-0.234375,1,0,0,1.3952,Basalt_rect,2,1.395,1,4,0,4,0,1,,,,,,,,,,,,,
6631dd70c1393b01137d8453,TCR,2024-06-11_09h27.15.125,LearnStrategy,2023.2.3,Win32,59.88023952,8,1,6,-0.0390625,-0.005208333,1,0,0,1.0823,rock_grid_rect_2,7,06,-1,-1,1.082,-0.115885417,-0.40234375,1,0,0,1.2778,Pegmatite_rect,6,1.278,0,5,0,5,0,1,,,,,,,,,,,,,
6631dd70c1393b01137d8453,TCR,2024-06-11_09h27.15.125,LearnStrategy,2023.2.3,Win32,59.88023952,8,1,7,-0.02734375,-0.022135417,1,0,0,0.9478,rock_grid_rect_2,3,07,-1,-1,0.948,-0.127604167,-0.3828125,1,0,0,1.312,Pegmatite_rect,6,1.312,0,6,0,6,0,1,,,,,,,,,,,,,
6631dd70c1393b01137d8453,TCR,2024-06-11_09h27.15.125,LearnStrategy,2023.2.3,Win32,59.88023952,8,1,8,-0.114583333,-0.006510417,1,0,0,0.8308,rock_grid_rect_2,1,14,-1,-1,0.831,0.356770833,-0.251302083,1,0,0,3.077,Gabbro_rect,4,3.077,0,7,0,7,0,1,,,,,,,,,,,,,
6631dd70c1393b01137d8453,TCR,2024-06-11_09h27.15.125,LearnStrategy,2023.2.3,Win32,59.88023952,8,1,9,-0.05078125,-0.002604167,1,0,0,1.0804,rock_grid_rect_2,4,05,-1,-1,1.08,0.313802083,-0.236979167,1,0,0,2.6256,Gabbro_rect,4,2.626,1,8,0,8,0,1,,,,,,,,,,,,,
6631dd70c1393b01137d8453,TCR,2024-06-11_09h27.15.125,LearnStrategy,2023.2.3,Win32,59.88023952,8,1,10,-0.079427083,0.01171875,1,0,0,0.9983,rock_grid_rect_2,3,15,-1,-1,0.998,0.07421875,-0.401041667,1,0,0,2.2125,Peridotite_rect,7,2.212,0,9,0,9,0,1,,,,,,,,,,,,,
6631dd70c1393b01137d8453,TCR,2024-06-11_09h27.15.125,LearnStrategy,2023.2.3,Win32,59.88023952,8,1,11,-0.06640625,0,1,0,0,0.9311,rock_grid_rect_2,4,14,-1,-1,0.931,0.096354167,-0.233072917,1,0,0,4.8769,Diorite_rect,3,4.877,0,10,0,10,0,1,,,,,,,,,,,,,
6631dd70c1393b01137d8453,TCR,2024-06-11_09h27.15.125,LearnStrategy,2023.2.3,Win32,59.88023952,8,1,12,-0.03125,0.018229167,1,0,0,1.0648,rock_grid_rect_2,7,04,-1,-1,1.065,-0.376302083,-0.233072917,1,0,0,3.9639,Andesite_rect,1,3.964,0,11,0,11,0,1,,,,,,,,,,,,,
6631dd70c1393b01137d8453,TCR,2024-06-11_09h27.15.125,LearnStrategy,2023.2.3,Win32,59.88023952,8,1,13,0.013020833,-0.015625,1,0,0,1.047,rock_grid_rect_2,6,09,-1,-1,1.047,-0.111979167,-0.380208333,1,0,0,1.4601,Pegmatite_rect,6,1.46,1,12,0,12,0,1,,,,,,,,,,,,,
6631dd70c1393b01137d8453,TCR,2024-06-11_09h27.15.125,LearnStrategy,2023.2.3,Win32,59.88023952,8,1,14,-0.014322917,0.00390625,1,0,0,0.9815,rock_grid_rect_2,1,01,-1,-1,0.982,-0.17578125,-0.233072917,1,0,0,8.3343,Basalt_rect,2,8.334,0,13,0,13,0,1,,,,,,,,,,,,,
6631dd70c1393b01137d8453,TCR,2024-06-11_09h27.15.125,LearnStrategy,2023.2.3,Win32,59.88023952,8,1,15,-0.041666667,-0.009114583,1,0,0,1.6631,rock_grid_rect_2,3,13,-1,-1,1.663,0.157552083,-0.401041667,1,0,0,5.5519,Peridotite_rect,7,5.552,0,14,0,14,0,1,,,,,,,,,,,,,
6631dd70c1393b01137d8453,TCR,2024-06-11_09h27.15.125,LearnStrategy,2023.2.3,Win32,59.88023952,8,1,16,0.041666667,-0.013020833,1,0,0,1.1447,rock_grid_rect_2,2,09,-1,-1,1.145,-0.07421875,-0.229166667,1,0,0,1.3986,Basalt_rect,2,1.399,1,15,0,15,0,1,,,,,,,,,,,,,
6631dd70c1393b01137d8453,TCR,2024-06-11_09h27.15.125,LearnStrategy,2023.2.3,Win32,59.88023952,8,2,1,,,,,,,,1,02,,,,,,,,,,,1,3,1,,,,,,-0.334635417,-0.255208333,1,0,0,3.0003,Andesite_rect,0,0,0,0,1,
6631dd70c1393b01137d8453,TCR,2024-06-11_09h27.15.125,LearnStrategy,2023.2.3,Win32,59.88023952,8,2,2,,,,,,,,2,04,,,,,,,,,,,2,1.233,1,,,,,,-0.122395833,-0.25390625,1,0,0,1.2329,Basalt_rect,1,0,1,0,1,
6631dd70c1393b01137d8453,TCR,2024-06-11_09h27.15.125,LearnStrategy,2023.2.3,Win32,59.88023952,8,2,3,,,,,,,,1,05,,,,,,,,,,,1,1.782,1,,,,,,-0.329427083,-0.251302083,1,0,0,1.7821,Andesite_rect,2,0,2,0,1,
6631dd70c1393b01137d8453,TCR,2024-06-11_09h27.15.125,LearnStrategy,2023.2.3,Win32,59.88023952,8,2,4,,,,,,,,3,14,,,,,,,,,,,6,1.701,0,,,,,,-0.165364583,-0.395833333,1,0,0,1.7007,Pegmatite_rect,3,0,3,0,1,
6631dd70c1393b01137d8453,TCR,2024-06-11_09h27.15.125,LearnStrategy,2023.2.3,Win32,59.88023952,8,2,5,,,,,,,,4,08,,,,,,,,,,,1,2.216,0,,,,,,-0.330729167,-0.252604167,1,0,0,2.2156,Andesite_rect,4,0,4,0,1,
6631dd70c1393b01137d8453,TCR,2024-06-11_09h27.15.125,LearnStrategy,2023.2.3,Win32,59.88023952,8,2,6,,,,,,,,7,15,,,,,,,,,,,3,3.379,0,,,,,,0.083333333,-0.2578125,1,0,0,3.3786,Diorite_rect,5,0,5,0,1,
6631dd70c1393b01137d8453,TCR,2024-06-11_09h27.15.125,LearnStrategy,2023.2.3,Win32,59.88023952,8,2,7,,,,,,,,6,16,,,,,,,,,,,4,4.616,0,,,,,,0.328125,-0.260416667,1,0,0,4.6156,Gabbro_rect,6,0,6,0,1,
6631dd70c1393b01137d8453,TCR,2024-06-11_09h27.15.125,LearnStrategy,2023.2.3,Win32,59.88023952,8,2,8,,,,,,,,5,10,,,,,,,,,,,5,1.448,1,,,,,,-0.333333333,-0.404947917,1,0,0,1.4482,Obsidian_rect,7,0,7,0,1,
6631dd70c1393b01137d8453,TCR,2024-06-11_09h27.15.125,LearnStrategy,2023.2.3,Win32,59.88023952,8,2,9,,,,,,,,3,16,,,,,,,,,,,7,3.532,0,,,,,,0.0625,-0.397135417,1,0,0,3.5323,Peridotite_rect,8,0,8,0,1,
6631dd70c1393b01137d8453,TCR,2024-06-11_09h27.15.125,LearnStrategy,2023.2.3,Win32,59.88023952,8,2,10,,,,,,,,2,14,,,,,,,,,,,4,4.434,0,,,,,,0.321614583,-0.248697917,1,0,0,4.4338,Gabbro_rect,9,0,9,0,1,
6631dd70c1393b01137d8453,TCR,2024-06-11_09h27.15.125,LearnStrategy,2023.2.3,Win32,59.88023952,8,2,11,,,,,,,,5,12,,,,,,,,,,,5,1.61,1,,,,,,-0.399739583,-0.412760417,1,0,0,1.6095,Obsidian_rect,10,0,10,0,1,
6631dd70c1393b01137d8453,TCR,2024-06-11_09h27.15.125,LearnStrategy,2023.2.3,Win32,59.88023952,8,2,12,,,,,,,,4,03,,,,,,,,,,,1,3.06,0,,,,,,-0.334635417,-0.240885417,1,0,0,3.0597,Andesite_rect,11,0,11,0,1,
6631dd70c1393b01137d8453,TCR,2024-06-11_09h27.15.125,LearnStrategy,2023.2.3,Win32,59.88023952,8,2,13,,,,,,,,7,08,,,,,,,,,,,3,2.36,0,,,,,,0.06640625,-0.25390625,1,0,0,2.36,Diorite_rect,12,0,12,0,1,
6631dd70c1393b01137d8453,TCR,2024-06-11_09h27.15.125,LearnStrategy,2023.2.3,Win32,59.88023952,8,2,14,,,,,,,,8,04,,,,,,,,,,,8,1.623,1,,,,,,0.33203125,-0.393229167,1,0,0,1.6234,Pumice_rect,13,0,13,0,1,
6631dd70c1393b01137d8453,TCR,2024-06-11_09h27.15.125,LearnStrategy,2023.2.3,Win32,59.88023952,8,2,15,,,,,,,,6,06,,,,,,,,,,,3,5.777,0,,,,,,0.1171875,-0.265625,1,0,0,5.7766,Diorite_rect,14,0,14,0,1,
6631dd70c1393b01137d8453,TCR,2024-06-11_09h27.15.125,LearnStrategy,2023.2.3,Win32,59.88023952,8,2,16,,,,,,,,8,08,,,,,,,,,,,8,2.309,1,,,,,,0.359375,-0.391927083,1,0,0,2.3092,Pumice_rect,15,0,15,0,1,
6631dd70c1393b01137d8453,TCR,2024-06-11_09h27.15.125,LearnStrategy,2023.2.3,Win32,59.88023952,9,1,1,-0.01953125,-0.00390625,1,0,0,2.1497,rock_grid_rect_2,4,14,-1,-1,2.15,0.3828125,-0.26171875,1,0,0,2.8439,Gabbro_rect,4,2.844,1,0,0,0,0,1,,,,,,,,,,,,,
6631dd70c1393b01137d8453,TCR,2024-06-11_09h27.15.125,LearnStrategy,2023.2.3,Win32,59.88023952,9,1,2,-0.01953125,-0.01171875,1,0,0,1.2809,rock_grid_rect_2,2,16,-1,-1,1.281,0.388020833,-0.26953125,1,0,0,2.1932,Gabbro_rect,4,2.193,0,1,0,1,0,1,,,,,,,,,,,,,
6631dd70c1393b01137d8453,TCR,2024-06-11_09h27.15.125,LearnStrategy,2023.2.3,Win32,59.88023952,9,1,3,-0.0078125,-0.01953125,1,0,0,1.0973,rock_grid_rect_2,6,05,-1,-1,1.097,-0.122395833,-0.39453125,1,0,0,1.7622,Pegmatite_rect,6,1.762,1,2,0,2,0,1,,,,,,,,,,,,,
6631dd70c1393b01137d8453,TCR,2024-06-11_09h27.15.125,LearnStrategy,2023.2.3,Win32,59.88023952,9,1,4,-0.03125,-0.001302083,1,0,0,1.1648,rock_grid_rect_2,3,02,-1,-1,1.165,0.09765625,-0.265625,1,0,0,3.5103,Diorite_rect,3,3.51,1,3,0,3,0,1,,,,,,,,,,,,,
6631dd70c1393b01137d8453,TCR,2024-06-11_09h27.15.125,LearnStrategy,2023.2.3,Win32,59.88023952,9,1,5,-0.037760417,-0.018229167,1,0,0,1.0822,rock_grid_rect_2,4,14,-1,-1,1.082,0.455729167,-0.265625,1,0,0,1.7274,Gabbro_rect,4,1.727,1,4,0,4,0,1,,,,,,,,,,,,,
6631dd70c1393b01137d8453,TCR,2024-06-11_09h27.15.125,LearnStrategy,2023.2.3,Win32,59.88023952,9,1,6,-0.02734375,-0.006510417,1,0,0,0.8495,rock_grid_rect_2,1,16,-1,-1,0.85,-0.359375,-0.25,1,0,0,1.8444,Andesite_rect,1,1.844,1,5,0,5,0,1,,,,,,,,,,,,,
6631dd70c1393b01137d8453,TCR,2024-06-11_09h27.15.125,LearnStrategy,2023.2.3,Win32,59.88023952,9,1,7,-0.044270833,-0.018229167,1,0,0,1.0156,rock_grid_rect_2,7,14,-1,-1,1.016,0.079427083,-0.403645833,1,0,0,2.1098,Peridotite_rect,7,2.11,1,6,0,6,0,1,,,,,,,,,,,,,
6631dd70c1393b01137d8453,TCR,2024-06-11_09h27.15.125,LearnStrategy,2023.2.3,Win32,59.88023952,9,1,8,-0.015625,-0.006510417,1,0,0,0.7813,rock_grid_rect_2,3,07,-1,-1,0.781,-0.115885417,-0.389322917,1,0,0,1.3933,Pegmatite_rect,6,1.393,0,7,0,7,0,1,,,,,,,,,,,,,
6631dd70c1393b01137d8453,TCR,2024-06-11_09h27.15.125,LearnStrategy,2023.2.3,Win32,59.88023952,9,1,9,-0.002604167,-0.00390625,1,0,0,0.9158,rock_grid_rect_2,4,05,-1,-1,0.916,-0.08984375,-0.233072917,1,0,0,2.0269,Basalt_rect,2,2.027,0,8,0,8,0,1,,,,,,,,,,,,,
6631dd70c1393b01137d8453,TCR,2024-06-11_09h27.15.125,LearnStrategy,2023.2.3,Win32,59.88023952,9,1,10,-0.005208333,-0.0078125,1,0,0,1.1486,rock_grid_rect_2,7,07,-1,-1,1.149,0.087239583,-0.395833333,1,0,0,2.4607,Peridotite_rect,7,2.461,1,9,0,9,0,1,,,,,,,,,,,,,
6631dd70c1393b01137d8453,TCR,2024-06-11_09h27.15.125,LearnStrategy,2023.2.3,Win32,59.88023952,9,1,11,0.005208333,-0.001302083,1,0,0,1.0143,rock_grid_rect_2,1,06,-1,-1,1.014,-0.321614583,-0.235677083,1,0,0,2.2965,Andesite_rect,1,2.296,1,10,0,10,0,1,,,,,,,,,,,,,
6631dd70c1393b01137d8453,TCR,2024-06-11_09h27.15.125,LearnStrategy,2023.2.3,Win32,59.88023952,9,1,12,-0.033854167,0.002604167,1,0,0,0.8987,rock_grid_rect_2,7,14,-1,-1,0.899,0.109375,-0.390625,1,0,0,3.1806,Peridotite_rect,7,3.181,1,11,0,11,0,1,,,,,,,,,,,,,
6631dd70c1393b01137d8453,TCR,2024-06-11_09h27.15.125,LearnStrategy,2023.2.3,Win32,59.88023952,9,1,13,0.026041667,-0.010416667,1,0,0,0.9639,rock_grid_rect_2,3,15,-1,-1,0.964,0.1640625,-0.25390625,1,0,0,2.177,Diorite_rect,3,2.177,1,12,0,12,0,1,,,,,,,,,,,,,
6631dd70c1393b01137d8453,TCR,2024-06-11_09h27.15.125,LearnStrategy,2023.2.3,Win32,59.88023952,9,1,14,0.049479167,-0.020833333,1,0,0,0.8981,rock_grid_rect_2,6,11,-1,-1,0.898,-0.115885417,-0.40234375,1,0,0,1.611,Pegmatite_rect,6,1.611,1,13,0,13,0,1,,,,,,,,,,,,,
6631dd70c1393b01137d8453,TCR,2024-06-11_09h27.15.125,LearnStrategy,2023.2.3,Win32,59.88023952,9,1,15,-0.036458333,-0.014322917,1,0,0,0.9652,rock_grid_rect_2,2,09,-1,-1,0.965,-0.09375,-0.233072917,1,0,0,1.1932,Basalt_rect,2,1.193,1,14,0,14,0,1,,,,,,,,,,,,,
6631dd70c1393b01137d8453,TCR,2024-06-11_09h27.15.125,LearnStrategy,2023.2.3,Win32,59.88023952,9,1,16,-0.010416667,-0.024739583,1,0,0,0.9644,rock_grid_rect_2,3,06,-1,-1,0.964,0.07421875,-0.399739583,1,0,0,6.081,Peridotite_rect,7,6.081,0,15,0,15,0,1,,,,,,,,,,,,,
6631dd70c1393b01137d8453,TCR,2024-06-11_09h27.15.125,LearnStrategy,2023.2.3,Win32,59.88023952,9,2,1,,,,,,,,2,06,,,,,,,,,,,2,1.062,1,,,,,,-0.100260417,-0.26171875,1,0,0,1.0621,Basalt_rect,0,0,0,0,1,
6631dd70c1393b01137d8453,TCR,2024-06-11_09h27.15.125,LearnStrategy,2023.2.3,Win32,59.88023952,9,2,2,,,,,,,,7,13,,,,,,,,,,,3,2.976,0,,,,,,0.05078125,-0.26171875,1,0,0,2.9765,Diorite_rect,1,0,1,0,1,
6631dd70c1393b01137d8453,TCR,2024-06-11_09h27.15.125,LearnStrategy,2023.2.3,Win32,59.88023952,9,2,3,,,,,,,,1,03,,,,,,,,,,,1,3.46,1,,,,,,-0.338541667,-0.2578125,1,0,0,3.4595,Andesite_rect,2,0,2,0,1,
6631dd70c1393b01137d8453,TCR,2024-06-11_09h27.15.125,LearnStrategy,2023.2.3,Win32,59.88023952,9,2,4,,,,,,,,5,07,,,,,,,,,,,5,1.859,1,,,,,,-0.3515625,-0.416666667,1,0,0,1.8588,Obsidian_rect,3,0,3,0,1,
6631dd70c1393b01137d8453,TCR,2024-06-11_09h27.15.125,LearnStrategy,2023.2.3,Win32,59.88023952,9,2,5,,,,,,,,6,08,,,,,,,,,,,6,1.159,1,,,,,,-0.182291667,-0.39453125,1,0,0,1.1592,Pegmatite_rect,4,0,4,0,1,
6631dd70c1393b01137d8453,TCR,2024-06-11_09h27.15.125,LearnStrategy,2023.2.3,Win32,59.88023952,9,2,6,,,,,,,,2,08,,,,,,,,,,,2,1.264,1,,,,,,-0.12890625,-0.236979167,1,0,0,1.264,Basalt_rect,5,0,5,0,1,
6631dd70c1393b01137d8453,TCR,2024-06-11_09h27.15.125,LearnStrategy,2023.2.3,Win32,59.88023952,9,2,7,,,,,,,,4,13,,,,,,,,,,,4,1.984,1,,,,,,0.330729167,-0.244791667,1,0,0,1.9839,Gabbro_rect,6,0,6,0,1,
6631dd70c1393b01137d8453,TCR,2024-06-11_09h27.15.125,LearnStrategy,2023.2.3,Win32,59.88023952,9,2,8,,,,,,,,8,03,,,,,,,,,,,8,1.501,1,,,,,,0.348958333,-0.390625,1,0,0,1.5009,Pumice_rect,7,0,7,0,1,
6631dd70c1393b01137d8453,TCR,2024-06-11_09h27.15.125,LearnStrategy,2023.2.3,Win32,59.88023952,9,2,9,,,,,,,,6,10,,,,,,,,,,,7,4.701,0,,,,,,0.108072917,-0.41015625,1,0,0,4.7014,Peridotite_rect,8,0,8,0,1,
6631dd70c1393b01137d8453,TCR,2024-06-11_09h27.15.125,LearnStrategy,2023.2.3,Win32,59.88023952,9,2,10,,,,,,,,3,11,,,,,,,,,,,3,1.941,1,,,,,,0.122395833,-0.233072917,1,0,0,1.9407,Diorite_rect,9,0,9,0,1,
6631dd70c1393b01137d8453,TCR,2024-06-11_09h27.15.125,LearnStrategy,2023.2.3,Win32,59.88023952,9,2,11,,,,,,,,8,06,,,,,,,,,,,8,1.398,1,,,,,,0.334635417,-0.408854167,1,0,0,1.3977,Pumice_rect,10,0,10,0,1,
6631dd70c1393b01137d8453,TCR,2024-06-11_09h27.15.125,LearnStrategy,2023.2.3,Win32,59.88023952,9,2,12,,,,,,,,7,16,,,,,,,,,,,2,3.2,0,,,,,,-0.076822917,-0.266927083,1,0,0,3.2,Basalt_rect,11,0,11,0,1,
6631dd70c1393b01137d8453,TCR,2024-06-11_09h27.15.125,LearnStrategy,2023.2.3,Win32,59.88023952,9,2,13,,,,,,,,3,08,,,,,,,,,,,7,2.666,0,,,,,,0.095052083,-0.388020833,1,0,0,2.6661,Peridotite_rect,12,0,12,0,1,
6631dd70c1393b01137d8453,TCR,2024-06-11_09h27.15.125,LearnStrategy,2023.2.3,Win32,59.88023952,9,2,14,,,,,,,,5,14,,,,,,,,,,,5,1.532,1,,,,,,-0.34375,-0.393229167,1,0,0,1.5316,Obsidian_rect,13,0,13,0,1,
6631dd70c1393b01137d8453,TCR,2024-06-11_09h27.15.125,LearnStrategy,2023.2.3,Win32,59.88023952,9,2,15,,,,,,,,4,09,,,,,,,,,,,2,1.4,0,,,,,,-0.071614583,-0.2421875,1,0,0,1.3995,Basalt_rect,14,0,14,0,1,
6631dd70c1393b01137d8453,TCR,2024-06-11_09h27.15.125,LearnStrategy,2023.2.3,Win32,59.88023952,9,2,16,,,,,,,,1,11,,,,,,,,,,,1,3.062,1,,,,,,-0.328125,-0.244791667,1,0,0,3.0619,Andesite_rect,15,0,15,0,1,
6631dd70c1393b01137d8453,TCR,2024-06-11_09h27.15.125,LearnStrategy,2023.2.3,Win32,59.88023952,,,,,,,,,,,,,,,,,,,,,,,,,,,,,,,,,,,,,,,,,,,0
6631dd70c1393b01137d8453,TCR,2024-06-11_09h27.15.125,LearnStrategy,2023.2.3,Win32,59.88023952,,,,,,,,,,,,,,,,,,,,,,,,,,,,,,,,,,,,,,,,,,,
6631dd70c1393b01137d8453,TCR,2024-06-11_09h27.15.125,LearnStrategy,2023.2.3,Win32,59.88023952,,,,,,,,,,,8,13,1,1,,,,,,,,,,,,,,,,,,,,,,,,,,,,,
6631dd70c1393b01137d8453,TCR,2024-06-11_09h27.15.125,LearnStrategy,2023.2.3,Win32,59.88023952,,,,,,,,,,,7,12,1,2,,,,,,,,,,,,,,,,,,,,,,,,,,,,,
6631dd70c1393b01137d8453,TCR,2024-06-11_09h27.15.125,LearnStrategy,2023.2.3,Win32,59.88023952,,,,,,,,,,,7,04,1,3,,,,,,,,,,,,,,,,,,,,,,,,,,,,,
6631dd70c1393b01137d8453,TCR,2024-06-11_09h27.15.125,LearnStrategy,2023.2.3,Win32,59.88023952,,,,,,,,,,,4,14,1,4,,,,,,,,,,,,,,,,,,,,,,,,,,,,,
6631dd70c1393b01137d8453,TCR,2024-06-11_09h27.15.125,LearnStrategy,2023.2.3,Win32,59.88023952,,,,,,,,,,,5,11,1,5,,,,,,,,,,,,,,,,,,,,,,,,,,,,,
6631dd70c1393b01137d8453,TCR,2024-06-11_09h27.15.125,LearnStrategy,2023.2.3,Win32,59.88023952,,,,,,,,,,,3,12,1,6,,,,,,,,,,,,,,,,,,,,,,,,,,,,,
6631dd70c1393b01137d8453,TCR,2024-06-11_09h27.15.125,LearnStrategy,2023.2.3,Win32,59.88023952,,,,,,,,,,,8,02,1,7,,,,,,,,,,,,,,,,,,,,,,,,,,,,,
6631dd70c1393b01137d8453,TCR,2024-06-11_09h27.15.125,LearnStrategy,2023.2.3,Win32,59.88023952,,,,,,,,,,,1,14,1,8,,,,,,,,,,,,,,,,,,,,,,,,,,,,,
6631dd70c1393b01137d8453,TCR,2024-06-11_09h27.15.125,LearnStrategy,2023.2.3,Win32,59.88023952,,,,,,,,,,,1,07,2,1,,,,,,,,,,,,,,,,,,,,,,,,,,,,,
6631dd70c1393b01137d8453,TCR,2024-06-11_09h27.15.125,LearnStrategy,2023.2.3,Win32,59.88023952,,,,,,,,,,,3,06,2,2,,,,,,,,,,,,,,,,,,,,,,,,,,,,,
6631dd70c1393b01137d8453,TCR,2024-06-11_09h27.15.125,LearnStrategy,2023.2.3,Win32,59.88023952,,,,,,,,,,,2,02,2,3,,,,,,,,,,,,,,,,,,,,,,,,,,,,,
6631dd70c1393b01137d8453,TCR,2024-06-11_09h27.15.125,LearnStrategy,2023.2.3,Win32,59.88023952,,,,,,,,,,,5,09,2,4,,,,,,,,,,,,,,,,,,,,,,,,,,,,,
6631dd70c1393b01137d8453,TCR,2024-06-11_09h27.15.125,LearnStrategy,2023.2.3,Win32,59.88023952,,,,,,,,,,,7,06,2,5,,,,,,,,,,,,,,,,,,,,,,,,,,,,,
6631dd70c1393b01137d8453,TCR,2024-06-11_09h27.15.125,LearnStrategy,2023.2.3,Win32,59.88023952,,,,,,,,,,,5,04,2,6,,,,,,,,,,,,,,,,,,,,,,,,,,,,,
6631dd70c1393b01137d8453,TCR,2024-06-11_09h27.15.125,LearnStrategy,2023.2.3,Win32,59.88023952,,,,,,,,,,,7,07,2,7,,,,,,,,,,,,,,,,,,,,,,,,,,,,,
6631dd70c1393b01137d8453,TCR,2024-06-11_09h27.15.125,LearnStrategy,2023.2.3,Win32,59.88023952,,,,,,,,,,,2,12,2,8,,,,,,,,,,,,,,,,,,,,,,,,,,,,,
6631dd70c1393b01137d8453,TCR,2024-06-11_09h27.15.125,LearnStrategy,2023.2.3,Win32,59.88023952,,,,,,,,,,,1,01,3,1,,,,,,,,,,,,,,,,,,,,,,,,,,,,,
6631dd70c1393b01137d8453,TCR,2024-06-11_09h27.15.125,LearnStrategy,2023.2.3,Win32,59.88023952,,,,,,,,,,,1,16,3,2,,,,,,,,,,,,,,,,,,,,,,,,,,,,,
6631dd70c1393b01137d8453,TCR,2024-06-11_09h27.15.125,LearnStrategy,2023.2.3,Win32,59.88023952,,,,,,,,,,,1,06,3,3,,,,,,,,,,,,,,,,,,,,,,,,,,,,,
6631dd70c1393b01137d8453,TCR,2024-06-11_09h27.15.125,LearnStrategy,2023.2.3,Win32,59.88023952,,,,,,,,,,,1,09,3,4,,,,,,,,,,,,,,,,,,,,,,,,,,,,,
6631dd70c1393b01137d8453,TCR,2024-06-11_09h27.15.125,LearnStrategy,2023.2.3,Win32,59.88023952,,,,,,,,,,,8,16,3,5,,,,,,,,,,,,,,,,,,,,,,,,,,,,,
6631dd70c1393b01137d8453,TCR,2024-06-11_09h27.15.125,LearnStrategy,2023.2.3,Win32,59.88023952,,,,,,,,,,,5,08,3,6,,,,,,,,,,,,,,,,,,,,,,,,,,,,,
6631dd70c1393b01137d8453,TCR,2024-06-11_09h27.15.125,LearnStrategy,2023.2.3,Win32,59.88023952,,,,,,,,,,,6,13,3,7,,,,,,,,,,,,,,,,,,,,,,,,,,,,,
6631dd70c1393b01137d8453,TCR,2024-06-11_09h27.15.125,LearnStrategy,2023.2.3,Win32,59.88023952,,,,,,,,,,,6,07,3,8,,,,,,,,,,,,,,,,,,,,,,,,,,,,,
6631dd70c1393b01137d8453,TCR,2024-06-11_09h27.15.125,LearnStrategy,2023.2.3,Win32,59.88023952,,,,,,,,,,,2,11,4,1,,,,,,,,,,,,,,,,,,,,,,,,,,,,,
6631dd70c1393b01137d8453,TCR,2024-06-11_09h27.15.125,LearnStrategy,2023.2.3,Win32,59.88023952,,,,,,,,,,,4,16,4,2,,,,,,,,,,,,,,,,,,,,,,,,,,,,,
6631dd70c1393b01137d8453,TCR,2024-06-11_09h27.15.125,LearnStrategy,2023.2.3,Win32,59.88023952,,,,,,,,,,,2,01,4,3,,,,,,,,,,,,,,,,,,,,,,,,,,,,,
6631dd70c1393b01137d8453,TCR,2024-06-11_09h27.15.125,LearnStrategy,2023.2.3,Win32,59.88023952,,,,,,,,,,,5,06,4,4,,,,,,,,,,,,,,,,,,,,,,,,,,,,,
6631dd70c1393b01137d8453,TCR,2024-06-11_09h27.15.125,LearnStrategy,2023.2.3,Win32,59.88023952,,,,,,,,,,,7,14,4,5,,,,,,,,,,,,,,,,,,,,,,,,,,,,,
6631dd70c1393b01137d8453,TCR,2024-06-11_09h27.15.125,LearnStrategy,2023.2.3,Win32,59.88023952,,,,,,,,,,,7,10,4,6,,,,,,,,,,,,,,,,,,,,,,,,,,,,,
6631dd70c1393b01137d8453,TCR,2024-06-11_09h27.15.125,LearnStrategy,2023.2.3,Win32,59.88023952,,,,,,,,,,,3,13,4,7,,,,,,,,,,,,,,,,,,,,,,,,,,,,,
6631dd70c1393b01137d8453,TCR,2024-06-11_09h27.15.125,LearnStrategy,2023.2.3,Win32,59.88023952,,,,,,,,,,,4,01,4,8,,,,,,,,,,,,,,,,,,,,,,,,,,,,,
6631dd70c1393b01137d8453,TCR,2024-06-11_09h27.15.125,LearnStrategy,2023.2.3,Win32,59.88023952,,,,,,,,,,,2,16,5,1,,,,,,,,,,,,,,,,,,,,,,,,,,,,,
6631dd70c1393b01137d8453,TCR,2024-06-11_09h27.15.125,LearnStrategy,2023.2.3,Win32,59.88023952,,,,,,,,,,,4,12,5,2,,,,,,,,,,,,,,,,,,,,,,,,,,,,,
6631dd70c1393b01137d8453,TCR,2024-06-11_09h27.15.125,LearnStrategy,2023.2.3,Win32,59.88023952,,,,,,,,,,,6,05,5,3,,,,,,,,,,,,,,,,,,,,,,,,,,,,,
6631dd70c1393b01137d8453,TCR,2024-06-11_09h27.15.125,LearnStrategy,2023.2.3,Win32,59.88023952,,,,,,,,,,,8,09,5,4,,,,,,,,,,,,,,,,,,,,,,,,,,,,,
6631dd70c1393b01137d8453,TCR,2024-06-11_09h27.15.125,LearnStrategy,2023.2.3,Win32,59.88023952,,,,,,,,,,,3,02,5,5,,,,,,,,,,,,,,,,,,,,,,,,,,,,,
6631dd70c1393b01137d8453,TCR,2024-06-11_09h27.15.125,LearnStrategy,2023.2.3,Win32,59.88023952,,,,,,,,,,,2,09,5,6,,,,,,,,,,,,,,,,,,,,,,,,,,,,,
6631dd70c1393b01137d8453,TCR,2024-06-11_09h27.15.125,LearnStrategy,2023.2.3,Win32,59.88023952,,,,,,,,,,,6,11,5,7,,,,,,,,,,,,,,,,,,,,,,,,,,,,,
6631dd70c1393b01137d8453,TCR,2024-06-11_09h27.15.125,LearnStrategy,2023.2.3,Win32,59.88023952,,,,,,,,,,,5,16,5,8,,,,,,,,,,,,,,,,,,,,,,,,,,,,,
6631dd70c1393b01137d8453,TCR,2024-06-11_09h27.15.125,LearnStrategy,2023.2.3,Win32,59.88023952,,,,,,,,,,,4,05,6,1,,,,,,,,,,,,,,,,,,,,,,,,,,,,,
6631dd70c1393b01137d8453,TCR,2024-06-11_09h27.15.125,LearnStrategy,2023.2.3,Win32,59.88023952,,,,,,,,,,,3,15,6,2,,,,,,,,,,,,,,,,,,,,,,,,,,,,,
6631dd70c1393b01137d8453,TCR,2024-06-11_09h27.15.125,LearnStrategy,2023.2.3,Win32,59.88023952,,,,,,,,,,,8,05,6,3,,,,,,,,,,,,,,,,,,,,,,,,,,,,,
6631dd70c1393b01137d8453,TCR,2024-06-11_09h27.15.125,LearnStrategy,2023.2.3,Win32,59.88023952,,,,,,,,,,,6,12,6,4,,,,,,,,,,,,,,,,,,,,,,,,,,,,,
6631dd70c1393b01137d8453,TCR,2024-06-11_09h27.15.125,LearnStrategy,2023.2.3,Win32,59.88023952,,,,,,,,,,,3,07,6,5,,,,,,,,,,,,,,,,,,,,,,,,,,,,,
6631dd70c1393b01137d8453,TCR,2024-06-11_09h27.15.125,LearnStrategy,2023.2.3,Win32,59.88023952,,,,,,,,,,,6,09,6,6,,,,,,,,,,,,,,,,,,,,,,,,,,,,,
6631dd70c1393b01137d8453,TCR,2024-06-11_09h27.15.125,LearnStrategy,2023.2.3,Win32,59.88023952,,,,,,,,,,,4,10,6,7,,,,,,,,,,,,,,,,,,,,,,,,,,,,,
6631dd70c1393b01137d8453,TCR,2024-06-11_09h27.15.125,LearnStrategy,2023.2.3,Win32,59.88023952,,,,,,,,,,,8,14,6,8,,,,,,,,,,,,,,,,,,,,,,,,,,,,,