participant,condition,date,expName,psychopyVersion,OS,frameRate,block,phase,trial,learn_mouse_2.x,learn_mouse_2.y,learn_mouse_2.leftButton,learn_mouse_2.midButton,learn_mouse_2.rightButton,learn_mouse_2.time,learn_mouse_2.clicked_name,cat,token,row,col,t_select,cat_mouse_l.x,cat_mouse_l.y,cat_mouse_l.leftButton,cat_mouse_l.midButton,cat_mouse_l.rightButton,cat_mouse_l.time,cat_mouse_l.clicked_name,resp,t_resp,corr,train_trials.thisRepN,train_trials.thisTrialN,train_trials.thisN,train_trials.thisIndex,train_trials.ran,cat_mouse_t.x,cat_mouse_t.y,cat_mouse_t.leftButton,cat_mouse_t.midButton,cat_mouse_t.rightButton,cat_mouse_t.time,cat_mouse_t.clicked_name,test_trials.thisRepN,test_trials.thisTrialN,test_trials.thisN,test_trials.thisIndex,test_trials.ran,Bonus
663287eff8f3dda45d8a2125,TCN,2024-06-25_12h47.14.954,LearnStrategy,2023.2.3,Linux x86_64,59.88023952,,,,,,,,,,,,,,,,,,,,,,,,,,,,,,,,,,,,,,,,,,,
663287eff8f3dda45d8a2125,TCN,2024-06-25_12h47.14.954,LearnStrategy,2023.2.3,Linux x86_64,59.88023952,1,1,1,0.007912272,-0.015132731,1,0,0,25.518,rock_grid_rect_2,4,13,-1,-1,25.518,-0.165807454,-0.228584066,1,0,0,6.6382,Basalt_rect,2,6.638,0,0,0,0,0,1,,,,,,,,,,,,,
663287eff8f3dda45d8a2125,TCN,2024-06-25_12h47.14.954,LearnStrategy,2023.2.3,Linux x86_64,59.88023952,1,1,2,0.088940837,-0.013482625,1,0,0,1.7149,rock_grid_rect_2,5,09,-1,-1,1.715,-0.368533691,-0.401114176,1,0,0,4.8049,Obsidian_rect,5,4.805,1,1,0,1,0,1,,,,,,,,,,,,,
663287eff8f3dda45d8a2125,TCN,2024-06-25_12h47.14.954,LearnStrategy,2023.2.3,Linux x86_64,59.88023952,1,1,3,0.069995524,-0.002997192,1,0,0,1.3281,rock_grid_rect_2,7,15,-1,-1,1.328,0.135515218,-0.382874268,1,0,0,7.7085,Peridotite_rect,7,7.709,1,2,0,2,0,1,,,,,,,,,,,,,
663287eff8f3dda45d8a2125,TCN,2024-06-25_12h47.14.954,LearnStrategy,2023.2.3,Linux x86_64,59.88023952,1,1,4,-0.003518717,0.012876546,1,0,0,1.0142,rock_grid_rect_2,7,10,-1,-1,1.014,0.153229248,-0.232178874,1,0,0,13.8394,Diorite_rect,3,13.839,0,3,0,3,0,1,,,,,,,,,,,,,
663287eff8f3dda45d8a2125,TCN,2024-06-25_12h47.14.954,LearnStrategy,2023.2.3,Linux x86_64,59.88023952,1,1,5,0.045879557,-0.005704142,1,0,0,1.2316,rock_grid_rect_2,4,10,-1,-1,1.232,-0.412722819,-0.235052734,1,0,0,13.5512,Andesite_rect,1,13.551,0,4,0,4,0,1,,,,,,,,,,,,,
663287eff8f3dda45d8a2125,TCN,2024-06-25_12h47.14.954,LearnStrategy,2023.2.3,Linux x86_64,59.88023952,1,1,6,0.059456055,-0.009208944,1,0,0,1.7779,rock_grid_rect_2,3,15,-1,-1,1.778,0.383604411,-0.419684733,1,0,0,9.5106,Pumice_rect,8,9.511,0,5,0,5,0,1,,,,,,,,,,,,,
663287eff8f3dda45d8a2125,TCN,2024-06-25_12h47.14.954,LearnStrategy,2023.2.3,Linux x86_64,59.88023952,1,1,7,0.026765218,-0.004936727,1,0,0,1.6124,rock_grid_rect_2,6,15,-1,-1,1.612,-0.437839315,-0.232182536,1,0,0,9.8201,Andesite_rect,1,9.82,0,6,0,6,0,1,,,,,,,,,,,,,
663287eff8f3dda45d8a2125,TCN,2024-06-25_12h47.14.954,LearnStrategy,2023.2.3,Linux x86_64,59.88023952,1,1,8,0.048591471,0.005583659,1,0,0,1.212,rock_grid_rect_2,1,02,-1,-1,1.212,0.374195231,-0.401518148,1,0,0,1.7658,Pumice_rect,8,1.766,0,7,0,7,0,1,,,,,,,,,,,,,
663287eff8f3dda45d8a2125,TCN,2024-06-25_12h47.14.954,LearnStrategy,2023.2.3,Linux x86_64,59.88023952,1,1,9,-0.013664714,0.007110229,1,0,0,0.9636,rock_grid_rect_2,5,11,-1,-1,0.964,-0.346826619,-0.414520589,1,0,0,2.1623,Obsidian_rect,5,2.162,1,8,0,8,0,1,,,,,,,,,,,,,
663287eff8f3dda45d8a2125,TCN,2024-06-25_12h47.14.954,LearnStrategy,2023.2.3,Linux x86_64,59.88023952,1,1,10,0.056099772,0.008540771,1,0,0,1.2987,rock_grid_rect_2,1,07,-1,-1,1.299,-0.349069661,-0.248663656,1,0,0,8.0772,Andesite_rect,1,8.077,1,9,0,9,0,1,,,,,,,,,,,,,
663287eff8f3dda45d8a2125,TCN,2024-06-25_12h47.14.954,LearnStrategy,2023.2.3,Linux x86_64,59.88023952,1,1,11,0.118713298,-0.0057854,1,0,0,1.0434,rock_grid_rect_2,2,12,-1,-1,1.043,0.104733968,-0.24367041,1,0,0,9.9659,Diorite_rect,3,9.966,0,10,0,10,0,1,,,,,,,,,,,,,
663287eff8f3dda45d8a2125,TCN,2024-06-25_12h47.14.954,LearnStrategy,2023.2.3,Linux x86_64,59.88023952,1,1,12,0.062851562,-0.020439453,1,0,0,1.0455,rock_grid_rect_2,2,11,-1,-1,1.046,-0.117885173,-0.2546875,1,0,0,1.4276,Basalt_rect,2,1.428,1,11,0,11,0,1,,,,,,,,,,,,,
663287eff8f3dda45d8a2125,TCN,2024-06-25_12h47.14.954,LearnStrategy,2023.2.3,Linux x86_64,59.88023952,1,1,13,0.121243571,-0.005959025,1,0,0,1.0796,rock_grid_rect_2,8,13,-1,-1,1.08,0.391829834,-0.40808667,1,0,0,2.0965,Pumice_rect,8,2.096,1,12,0,12,0,1,,,,,,,,,,,,,
663287eff8f3dda45d8a2125,TCN,2024-06-25_12h47.14.954,LearnStrategy,2023.2.3,Linux x86_64,59.88023952,1,1,14,0.104387614,-0.00219283,1,0,0,0.9923,rock_grid_rect_2,6,08,-1,-1,0.992,-0.119682617,-0.388342611,1,0,0,6.1162,Pegmatite_rect,6,6.116,1,13,0,13,0,1,,,,,,,,,,,,,
663287eff8f3dda45d8a2125,TCN,2024-06-25_12h47.14.954,LearnStrategy,2023.2.3,Linux x86_64,59.88023952,1,1,15,0.027711751,0.008732463,1,0,0,0.8112,rock_grid_rect_2,3,10,-1,-1,0.811,0.4451521,-0.257949463,1,0,0,11.2139,Gabbro_rect,4,11.214,0,14,0,14,0,1,,,,,,,,,,,,,
663287eff8f3dda45d8a2125,TCN,2024-06-25_12h47.14.954,LearnStrategy,2023.2.3,Linux x86_64,59.88023952,1,1,16,-0.068886637,8.13802E-06,1,0,0,0.9609,rock_grid_rect_2,8,08,-1,-1,0.961,-0.139175863,-0.392215902,1,0,0,15.2525,Pegmatite_rect,6,15.252,0,15,0,15,0,1,,,,,,,,,,,,,
663287eff8f3dda45d8a2125,TCN,2024-06-25_12h47.14.954,LearnStrategy,2023.2.3,Linux x86_64,59.88023952,1,2,1,,,,,,,,7,06,,,,,,,,,,,6,17.393,0,,,,,,-0.169954631,-0.410241781,1,0,0,17.3926,Pegmatite_rect,0,0,0,0,1,
663287eff8f3dda45d8a2125,TCN,2024-06-25_12h47.14.954,LearnStrategy,2023.2.3,Linux x86_64,59.88023952,1,2,2,,,,,,,,5,10,,,,,,,,,,,5,1.999,1,,,,,,-0.376042643,-0.396352865,1,0,0,1.9988,Obsidian_rect,1,0,1,0,1,
663287eff8f3dda45d8a2125,TCN,2024-06-25_12h47.14.954,LearnStrategy,2023.2.3,Linux x86_64,59.88023952,1,2,3,,,,,,,,8,10,,,,,,,,,,,8,1.514,1,,,,,,0.39945402,-0.396293538,1,0,0,1.514,Pumice_rect,2,0,2,0,1,
663287eff8f3dda45d8a2125,TCN,2024-06-25_12h47.14.954,LearnStrategy,2023.2.3,Linux x86_64,59.88023952,1,2,4,,,,,,,,1,05,,,,,,,,,,,4,3.159,0,,,,,,0.442075358,-0.263664225,1,0,0,3.1589,Gabbro_rect,3,0,3,0,1,
663287eff8f3dda45d8a2125,TCN,2024-06-25_12h47.14.954,LearnStrategy,2023.2.3,Linux x86_64,59.88023952,1,2,5,,,,,,,,4,08,,,,,,,,,,,4,2.521,1,,,,,,0.444431966,-0.263081787,1,0,0,2.5212,Gabbro_rect,4,0,4,0,1,
663287eff8f3dda45d8a2125,TCN,2024-06-25_12h47.14.954,LearnStrategy,2023.2.3,Linux x86_64,59.88023952,1,2,6,,,,,,,,2,01,,,,,,,,,,,2,6.084,1,,,,,,-0.15199943,-0.255483073,1,0,0,6.0836,Basalt_rect,5,0,5,0,1,
663287eff8f3dda45d8a2125,TCN,2024-06-25_12h47.14.954,LearnStrategy,2023.2.3,Linux x86_64,59.88023952,1,2,7,,,,,,,,6,05,,,,,,,,,,,3,6.445,0,,,,,,0.129097168,-0.229230225,1,0,0,6.4445,Diorite_rect,6,0,6,0,1,
663287eff8f3dda45d8a2125,TCN,2024-06-25_12h47.14.954,LearnStrategy,2023.2.3,Linux x86_64,59.88023952,1,2,8,,,,,,,,8,16,,,,,,,,,,,8,1.479,1,,,,,,0.406198812,-0.40174113,1,0,0,1.4791,Pumice_rect,7,0,7,0,1,
663287eff8f3dda45d8a2125,TCN,2024-06-25_12h47.14.954,LearnStrategy,2023.2.3,Linux x86_64,59.88023952,1,2,9,,,,,,,,4,09,,,,,,,,,,,2,10.326,0,,,,,,-0.114248617,-0.23611499,1,0,0,10.3256,Basalt_rect,8,0,8,0,1,
663287eff8f3dda45d8a2125,TCN,2024-06-25_12h47.14.954,LearnStrategy,2023.2.3,Linux x86_64,59.88023952,1,2,10,,,,,,,,3,02,,,,,,,,,,,1,14.696,0,,,,,,-0.421471069,-0.239966146,1,0,0,14.6956,Andesite_rect,9,0,9,0,1,
663287eff8f3dda45d8a2125,TCN,2024-06-25_12h47.14.954,LearnStrategy,2023.2.3,Linux x86_64,59.88023952,1,2,11,,,,,,,,6,11,,,,,,,,,,,3,9.546,0,,,,,,0.160338542,-0.239375488,1,0,0,9.5459,Diorite_rect,10,0,10,0,1,
663287eff8f3dda45d8a2125,TCN,2024-06-25_12h47.14.954,LearnStrategy,2023.2.3,Linux x86_64,59.88023952,1,2,12,,,,,,,,7,04,,,,,,,,,,,2,4.532,0,,,,,,-0.142260783,-0.252406576,1,0,0,4.5319,Basalt_rect,11,0,11,0,1,
663287eff8f3dda45d8a2125,TCN,2024-06-25_12h47.14.954,LearnStrategy,2023.2.3,Linux x86_64,59.88023952,1,2,13,,,,,,,,3,13,,,,,,,,,,,7,4.387,0,,,,,,0.105261149,-0.398747884,1,0,0,4.3865,Peridotite_rect,12,0,12,0,1,
663287eff8f3dda45d8a2125,TCN,2024-06-25_12h47.14.954,LearnStrategy,2023.2.3,Linux x86_64,59.88023952,1,2,14,,,,,,,,1,14,,,,,,,,,,,7,6.761,0,,,,,,0.159414876,-0.387357503,1,0,0,6.7607,Peridotite_rect,13,0,13,0,1,
663287eff8f3dda45d8a2125,TCN,2024-06-25_12h47.14.954,LearnStrategy,2023.2.3,Linux x86_64,59.88023952,1,2,15,,,,,,,,2,04,,,,,,,,,,,2,1.969,1,,,,,,-0.093854736,-0.254731201,1,0,0,1.9692,Basalt_rect,14,0,14,0,1,
663287eff8f3dda45d8a2125,TCN,2024-06-25_12h47.14.954,LearnStrategy,2023.2.3,Linux x86_64,59.88023952,1,2,16,,,,,,,,5,07,,,,,,,,,,,6,8.892,0,,,,,,-0.142643066,-0.390351481,1,0,0,8.8916,Pegmatite_rect,15,0,15,0,1,
663287eff8f3dda45d8a2125,TCN,2024-06-25_12h47.14.954,LearnStrategy,2023.2.3,Linux x86_64,59.88023952,2,1,1,-0.003199463,0.004576457,1,0,0,1.563,rock_grid_rect_2,8,15,-1,-1,1.563,0.376934489,-0.390785238,1,0,0,4.0277,Pumice_rect,8,4.028,1,0,0,0,0,1,,,,,,,,,,,,,
663287eff8f3dda45d8a2125,TCN,2024-06-25_12h47.14.954,LearnStrategy,2023.2.3,Linux x86_64,59.88023952,2,1,2,-0.070715169,-0.010592448,1,0,0,1.2792,rock_grid_rect_2,6,10,-1,-1,1.279,0.087545247,-0.244124837,1,0,0,6.7496,Diorite_rect,3,6.75,0,1,0,1,0,1,,,,,,,,,,,,,
663287eff8f3dda45d8a2125,TCN,2024-06-25_12h47.14.954,LearnStrategy,2023.2.3,Linux x86_64,59.88023952,2,1,3,-0.022702799,-0.006432373,1,0,0,1.1951,rock_grid_rect_2,5,14,-1,-1,1.195,-0.389605672,-0.397775391,1,0,0,1.6846,Obsidian_rect,5,1.685,1,2,0,2,0,1,,,,,,,,,,,,,
663287eff8f3dda45d8a2125,TCN,2024-06-25_12h47.14.954,LearnStrategy,2023.2.3,Linux x86_64,59.88023952,2,1,4,-0.009304688,0.004203084,1,0,0,1.2638,rock_grid_rect_2,1,10,-1,-1,1.264,0.077213216,-0.386071777,1,0,0,15.7305,Peridotite_rect,7,15.731,0,3,0,3,0,1,,,,,,,,,,,,,
663287eff8f3dda45d8a2125,TCN,2024-06-25_12h47.14.954,LearnStrategy,2023.2.3,Linux x86_64,59.88023952,2,1,5,0.019307699,0.009596924,1,0,0,1.0951,rock_grid_rect_2,2,06,-1,-1,1.095,-0.06341097,-0.231047363,1,0,0,3.183,Basalt_rect,2,3.183,1,4,0,4,0,1,,,,,,,,,,,,,
663287eff8f3dda45d8a2125,TCN,2024-06-25_12h47.14.954,LearnStrategy,2023.2.3,Linux x86_64,59.88023952,2,1,6,0.051496012,-0.00715214,1,0,0,0.9612,rock_grid_rect_2,7,13,-1,-1,0.961,0.092243815,-0.404704671,1,0,0,5.9661,Peridotite_rect,7,5.966,1,5,0,5,0,1,,,,,,,,,,,,,
663287eff8f3dda45d8a2125,TCN,2024-06-25_12h47.14.954,LearnStrategy,2023.2.3,Linux x86_64,59.88023952,2,1,7,-0.008295085,0.009109497,1,0,0,1.4263,rock_grid_rect_2,8,03,-1,-1,1.426,0.387522705,-0.40558016,1,0,0,1.535,Pumice_rect,8,1.535,1,6,0,6,0,1,,,,,,,,,,,,,
663287eff8f3dda45d8a2125,TCN,2024-06-25_12h47.14.954,LearnStrategy,2023.2.3,Linux x86_64,59.88023952,2,1,8,0.015319417,0.002235148,1,0,0,1.2947,rock_grid_rect_2,4,16,-1,-1,1.295,0.382574544,-0.230268962,1,0,0,5.1847,Gabbro_rect,4,5.185,1,7,0,7,0,1,,,,,,,,,,,,,
663287eff8f3dda45d8a2125,TCN,2024-06-25_12h47.14.954,LearnStrategy,2023.2.3,Linux x86_64,59.88023952,2,1,9,0.058706136,0.004470866,1,0,0,0.995,rock_grid_rect_2,3,12,-1,-1,0.995,-0.136334391,-0.257900472,1,0,0,8.5822,Basalt_rect,2,8.582,0,8,0,8,0,1,,,,,,,,,,,,,
663287eff8f3dda45d8a2125,TCN,2024-06-25_12h47.14.954,LearnStrategy,2023.2.3,Linux x86_64,59.88023952,2,1,10,-0.005363118,-0.01671224,1,0,0,1.0436,rock_grid_rect_2,4,01,-1,-1,1.044,-0.091838623,-0.397771729,1,0,0,3.5014,Pegmatite_rect,6,3.501,0,9,0,9,0,1,,,,,,,,,,,,,
663287eff8f3dda45d8a2125,TCN,2024-06-25_12h47.14.954,LearnStrategy,2023.2.3,Linux x86_64,59.88023952,2,1,11,0.092282796,-0.016822103,1,0,0,1.1092,rock_grid_rect_2,7,12,-1,-1,1.109,-0.099462158,-0.403984456,1,0,0,7.7003,Pegmatite_rect,6,7.7,0,10,0,10,0,1,,,,,,,,,,,,,
663287eff8f3dda45d8a2125,TCN,2024-06-25_12h47.14.954,LearnStrategy,2023.2.3,Linux x86_64,59.88023952,2,1,12,0.012632731,0.010790365,1,0,0,0.9434,rock_grid_rect_2,6,13,-1,-1,0.943,-0.410194173,-0.229241455,1,0,0,2.403,Andesite_rect,1,2.403,0,11,0,11,0,1,,,,,,,,,,,,,
663287eff8f3dda45d8a2125,TCN,2024-06-25_12h47.14.954,LearnStrategy,2023.2.3,Linux x86_64,59.88023952,2,1,13,0.018910807,-0.014601847,1,0,0,1.1116,rock_grid_rect_2,5,02,-1,-1,1.112,-0.396673136,-0.394475179,1,0,0,1.5673,Obsidian_rect,5,1.567,1,12,0,12,0,1,,,,,,,,,,,,,
663287eff8f3dda45d8a2125,TCN,2024-06-25_12h47.14.954,LearnStrategy,2023.2.3,Linux x86_64,59.88023952,2,1,14,0.081898193,-0.005616618,1,0,0,0.9958,rock_grid_rect_2,2,02,-1,-1,0.996,-0.100560059,-0.249801921,1,0,0,1.5412,Basalt_rect,2,1.541,1,13,0,13,0,1,,,,,,,,,,,,,
663287eff8f3dda45d8a2125,TCN,2024-06-25_12h47.14.954,LearnStrategy,2023.2.3,Linux x86_64,59.88023952,2,1,15,0.02041512,-0.002147013,1,0,0,0.8467,rock_grid_rect_2,1,16,-1,-1,0.847,0.378674235,-0.234123047,1,0,0,3.6509,Gabbro_rect,4,3.651,0,14,0,14,0,1,,,,,,,,,,,,,
663287eff8f3dda45d8a2125,TCN,2024-06-25_12h47.14.954,LearnStrategy,2023.2.3,Linux x86_64,59.88023952,2,1,16,-0.00736556,-0.014631714,1,0,0,0.895,rock_grid_rect_2,3,11,-1,-1,0.895,-0.079169434,-0.40060026,1,0,0,4.473,Pegmatite_rect,6,4.473,0,15,0,15,0,1,,,,,,,,,,,,,
663287eff8f3dda45d8a2125,TCN,2024-06-25_12h47.14.954,LearnStrategy,2023.2.3,Linux x86_64,59.88023952,2,2,1,,,,,,,,2,10,,,,,,,,,,,2,1.805,1,,,,,,-0.076930176,-0.24144873,1,0,0,1.805,Basalt_rect,0,0,0,0,1,
663287eff8f3dda45d8a2125,TCN,2024-06-25_12h47.14.954,LearnStrategy,2023.2.3,Linux x86_64,59.88023952,2,2,2,,,,,,,,1,03,,,,,,,,,,,2,5.634,0,,,,,,-0.076930176,-0.24144873,1,0,0,5.6336,Basalt_rect,1,0,1,0,1,
663287eff8f3dda45d8a2125,TCN,2024-06-25_12h47.14.954,LearnStrategy,2023.2.3,Linux x86_64,59.88023952,2,2,3,,,,,,,,5,08,,,,,,,,,,,5,1.263,1,,,,,,-0.397318278,-0.382565592,1,0,0,1.2632,Obsidian_rect,2,0,2,0,1,
663287eff8f3dda45d8a2125,TCN,2024-06-25_12h47.14.954,LearnStrategy,2023.2.3,Linux x86_64,59.88023952,2,2,4,,,,,,,,3,14,,,,,,,,,,,1,6.065,0,,,,,,-0.315956421,-0.231387207,1,0,0,6.065,Andesite_rect,3,0,3,0,1,
663287eff8f3dda45d8a2125,TCN,2024-06-25_12h47.14.954,LearnStrategy,2023.2.3,Linux x86_64,59.88023952,2,2,5,,,,,,,,6,03,,,,,,,,,,,3,14.963,0,,,,,,0.114964925,-0.260142253,1,0,0,14.9629,Diorite_rect,4,0,4,0,1,
663287eff8f3dda45d8a2125,TCN,2024-06-25_12h47.14.954,LearnStrategy,2023.2.3,Linux x86_64,59.88023952,2,2,6,,,,,,,,7,07,,,,,,,,,,,2,6.15,0,,,,,,-0.155650553,-0.256708822,1,0,0,6.1504,Basalt_rect,5,0,5,0,1,
663287eff8f3dda45d8a2125,TCN,2024-06-25_12h47.14.954,LearnStrategy,2023.2.3,Linux x86_64,59.88023952,2,2,7,,,,,,,,5,12,,,,,,,,,,,5,1.283,1,,,,,,-0.430010905,-0.393615397,1,0,0,1.2833,Obsidian_rect,6,0,6,0,1,
663287eff8f3dda45d8a2125,TCN,2024-06-25_12h47.14.954,LearnStrategy,2023.2.3,Linux x86_64,59.88023952,2,2,8,,,,,,,,4,14,,,,,,,,,,,4,3.426,1,,,,,,0.401132731,-0.236256022,1,0,0,3.4262,Gabbro_rect,7,0,7,0,1,
663287eff8f3dda45d8a2125,TCN,2024-06-25_12h47.14.954,LearnStrategy,2023.2.3,Linux x86_64,59.88023952,2,2,9,,,,,,,,4,11,,,,,,,,,,,2,3.09,0,,,,,,-0.082869792,-0.235942139,1,0,0,3.0901,Basalt_rect,8,0,8,0,1,
663287eff8f3dda45d8a2125,TCN,2024-06-25_12h47.14.954,LearnStrategy,2023.2.3,Linux x86_64,59.88023952,2,2,10,,,,,,,,7,16,,,,,,,,,,,3,4.414,0,,,,,,0.074207682,-0.257967285,1,0,0,4.4138,Diorite_rect,9,0,9,0,1,
663287eff8f3dda45d8a2125,TCN,2024-06-25_12h47.14.954,LearnStrategy,2023.2.3,Linux x86_64,59.88023952,2,2,11,,,,,,,,8,09,,,,,,,,,,,8,1.331,1,,,,,,0.351569336,-0.403960775,1,0,0,1.3307,Pumice_rect,10,0,10,0,1,
663287eff8f3dda45d8a2125,TCN,2024-06-25_12h47.14.954,LearnStrategy,2023.2.3,Linux x86_64,59.88023952,2,2,12,,,,,,,,2,08,,,,,,,,,,,2,1.517,1,,,,,,-0.098883626,-0.251596598,1,0,0,1.5175,Basalt_rect,11,0,11,0,1,
663287eff8f3dda45d8a2125,TCN,2024-06-25_12h47.14.954,LearnStrategy,2023.2.3,Linux x86_64,59.88023952,2,2,13,,,,,,,,8,02,,,,,,,,,,,8,1.13,1,,,,,,0.380255208,-0.399259928,1,0,0,1.1301,Pumice_rect,12,0,12,0,1,
663287eff8f3dda45d8a2125,TCN,2024-06-25_12h47.14.954,LearnStrategy,2023.2.3,Linux x86_64,59.88023952,2,2,14,,,,,,,,6,16,,,,,,,,,,,1,8.068,0,,,,,,-0.411903727,-0.236403239,1,0,0,8.0676,Andesite_rect,13,0,13,0,1,
663287eff8f3dda45d8a2125,TCN,2024-06-25_12h47.14.954,LearnStrategy,2023.2.3,Linux x86_64,59.88023952,2,2,15,,,,,,,,1,01,,,,,,,,,,,4,6.055,0,,,,,,0.41901416,-0.241059082,1,0,0,6.0547,Gabbro_rect,14,0,14,0,1,
663287eff8f3dda45d8a2125,TCN,2024-06-25_12h47.14.954,LearnStrategy,2023.2.3,Linux x86_64,59.88023952,2,2,16,,,,,,,,3,09,,,,,,,,,,,3,2.157,1,,,,,,0.200595622,-0.247540527,1,0,0,2.1572,Diorite_rect,15,0,15,0,1,
663287eff8f3dda45d8a2125,TCN,2024-06-25_12h47.14.954,LearnStrategy,2023.2.3,Linux x86_64,59.88023952,3,1,1,-0.075466797,0.006989502,1,0,0,1.2302,rock_grid_rect_2,5,06,-1,-1,1.23,0.095593994,-0.403520996,1,0,0,3.8303,Peridotite_rect,7,3.83,0,0,0,0,0,1,,,,,,,,,,,,,
663287eff8f3dda45d8a2125,TCN,2024-06-25_12h47.14.954,LearnStrategy,2023.2.3,Linux x86_64,59.88023952,3,1,2,0.002048258,9.33838E-05,1,0,0,0.9785,rock_grid_rect_2,8,14,-1,-1,0.978,0.344793701,-0.384424154,1,0,0,1.2156,Pumice_rect,8,1.216,1,1,0,1,0,1,,,,,,,,,,,,,
663287eff8f3dda45d8a2125,TCN,2024-06-25_12h47.14.954,LearnStrategy,2023.2.3,Linux x86_64,59.88023952,3,1,3,-0.033870361,-0.000323853,1,0,0,1.0634,rock_grid_rect_2,7,08,-1,-1,1.063,0.111958333,-0.403745199,1,0,0,2.2672,Peridotite_rect,7,2.267,1,2,0,2,0,1,,,,,,,,,,,,,
663287eff8f3dda45d8a2125,TCN,2024-06-25_12h47.14.954,LearnStrategy,2023.2.3,Linux x86_64,59.88023952,3,1,4,0.024723551,-0.021896729,1,0,0,0.9153,rock_grid_rect_2,8,06,-1,-1,0.915,0.352202637,-0.387867025,1,0,0,1.5855,Pumice_rect,8,1.586,1,3,0,3,0,1,,,,,,,,,,,,,
663287eff8f3dda45d8a2125,TCN,2024-06-25_12h47.14.954,LearnStrategy,2023.2.3,Linux x86_64,59.88023952,3,1,5,-0.017447591,0.011353597,1,0,0,1.396,rock_grid_rect_2,1,09,-1,-1,1.396,0.392884847,-0.258496582,1,0,0,4.0505,Gabbro_rect,4,4.051,0,4,0,4,0,1,,,,,,,,,,,,,
663287eff8f3dda45d8a2125,TCN,2024-06-25_12h47.14.954,LearnStrategy,2023.2.3,Linux x86_64,59.88023952,3,1,6,-0.01981429,-0.001313558,1,0,0,2.2111,rock_grid_rect_2,4,15,-1,-1,2.211,0.137572347,-0.407235433,1,0,0,9.399,Peridotite_rect,7,9.399,0,5,0,5,0,1,,,,,,,,,,,,,
663287eff8f3dda45d8a2125,TCN,2024-06-25_12h47.14.954,LearnStrategy,2023.2.3,Linux x86_64,59.88023952,3,1,7,0.014092936,0.001785319,1,0,0,0.9953,rock_grid_rect_2,3,08,-1,-1,0.995,-0.378147909,-0.23995223,1,0,0,5.2919,Andesite_rect,1,5.292,0,6,0,6,0,1,,,,,,,,,,,,,
663287eff8f3dda45d8a2125,TCN,2024-06-25_12h47.14.954,LearnStrategy,2023.2.3,Linux x86_64,59.88023952,3,1,8,0.086044027,0.000774251,1,0,0,1.0124,rock_grid_rect_2,4,03,-1,-1,1.012,-0.388528442,-0.245593099,1,0,0,4.4619,Andesite_rect,1,4.462,0,7,0,7,0,1,,,,,,,,,,,,,
663287eff8f3dda45d8a2125,TCN,2024-06-25_12h47.14.954,LearnStrategy,2023.2.3,Linux x86_64,59.88023952,3,1,9,0.05212972,0.006053019,1,0,0,1.0276,rock_grid_rect_2,7,02,-1,-1,1.028,0.104476318,-0.400086182,1,0,0,10.7779,Peridotite_rect,7,10.778,1,8,0,8,0,1,,,,,,,,,,,,,
663287eff8f3dda45d8a2125,TCN,2024-06-25_12h47.14.954,LearnStrategy,2023.2.3,Linux x86_64,59.88023952,3,1,10,0.017612793,0.006062663,1,0,0,0.7777,rock_grid_rect_2,2,14,-1,-1,0.778,0.391334554,-0.256452555,1,0,0,5.1223,Gabbro_rect,4,5.122,0,9,0,9,0,1,,,,,,,,,,,,,
663287eff8f3dda45d8a2125,TCN,2024-06-25_12h47.14.954,LearnStrategy,2023.2.3,Linux x86_64,59.88023952,3,1,11,0.002794108,-0.003350789,1,0,0,0.994,rock_grid_rect_2,6,06,-1,-1,0.994,0.135927734,-0.405563558,1,0,0,6.1016,Peridotite_rect,7,6.102,0,10,0,10,0,1,,,,,,,,,,,,,
663287eff8f3dda45d8a2125,TCN,2024-06-25_12h47.14.954,LearnStrategy,2023.2.3,Linux x86_64,59.88023952,3,1,12,0.013004883,-0.011588175,1,0,0,1.2093,rock_grid_rect_2,6,12,-1,-1,1.209,0.37433016,-0.24951888,1,0,0,3.7713,Gabbro_rect,4,3.771,0,11,0,11,0,1,,,,,,,,,,,,,
663287eff8f3dda45d8a2125,TCN,2024-06-25_12h47.14.954,LearnStrategy,2023.2.3,Linux x86_64,59.88023952,3,1,13,0.017546224,0.009251343,1,0,0,1.0785,rock_grid_rect_2,1,06,-1,-1,1.079,-0.407727091,-0.255086182,1,0,0,3.6432,Andesite_rect,1,3.643,1,12,0,12,0,1,,,,,,,,,,,,,
663287eff8f3dda45d8a2125,TCN,2024-06-25_12h47.14.954,LearnStrategy,2023.2.3,Linux x86_64,59.88023952,3,1,14,0.026022461,0.012693644,1,0,0,0.9943,rock_grid_rect_2,3,06,-1,-1,0.994,-0.101136393,-0.412748372,1,0,0,7.3074,Pegmatite_rect,6,7.307,0,13,0,13,0,1,,,,,,,,,,,,,
663287eff8f3dda45d8a2125,TCN,2024-06-25_12h47.14.954,LearnStrategy,2023.2.3,Linux x86_64,59.88023952,3,1,15,0.017076579,-0.005378377,1,0,0,0.9775,rock_grid_rect_2,2,09,-1,-1,0.977,-0.10363265,-0.252795085,1,0,0,1.8018,Basalt_rect,2,1.802,1,14,0,14,0,1,,,,,,,,,,,,,
663287eff8f3dda45d8a2125,TCN,2024-06-25_12h47.14.954,LearnStrategy,2023.2.3,Linux x86_64,59.88023952,3,1,16,0.047256022,-0.000934285,1,0,0,1.0307,rock_grid_rect_2,5,16,-1,-1,1.031,-0.44110319,-0.398749349,1,0,0,1.2097,Obsidian_rect,5,1.21,1,15,0,15,0,1,,,,,,,,,,,,,
663287eff8f3dda45d8a2125,TCN,2024-06-25_12h47.14.954,LearnStrategy,2023.2.3,Linux x86_64,59.88023952,3,2,1,,,,,,,,4,05,,,,,,,,,,,6,6.033,0,,,,,,-0.134192057,-0.388353353,1,0,0,6.0331,Pegmatite_rect,0,0,0,0,1,
663287eff8f3dda45d8a2125,TCN,2024-06-25_12h47.14.954,LearnStrategy,2023.2.3,Linux x86_64,59.88023952,3,2,2,,,,,,,,1,11,,,,,,,,,,,1,1.861,1,,,,,,-0.385451701,-0.23523763,1,0,0,1.8612,Andesite_rect,1,0,1,0,1,
663287eff8f3dda45d8a2125,TCN,2024-06-25_12h47.14.954,LearnStrategy,2023.2.3,Linux x86_64,59.88023952,3,2,3,,,,,,,,6,07,,,,,,,,,,,5,5.343,0,,,,,,-0.396243937,-0.386641927,1,0,0,5.3434,Obsidian_rect,2,0,2,0,1,
663287eff8f3dda45d8a2125,TCN,2024-06-25_12h47.14.954,LearnStrategy,2023.2.3,Linux x86_64,59.88023952,3,2,4,,,,,,,,6,09,,,,,,,,,,,5,2.768,0,,,,,,-0.382010254,-0.386597982,1,0,0,2.768,Obsidian_rect,3,0,3,0,1,
663287eff8f3dda45d8a2125,TCN,2024-06-25_12h47.14.954,LearnStrategy,2023.2.3,Linux x86_64,59.88023952,3,2,5,,,,,,,,3,07,,,,,,,,,,,7,4.83,0,,,,,,0.087509684,-0.397821533,1,0,0,4.8298,Peridotite_rect,4,0,4,0,1,
663287eff8f3dda45d8a2125,TCN,2024-06-25_12h47.14.954,LearnStrategy,2023.2.3,Linux x86_64,59.88023952,3,2,6,,,,,,,,5,04,,,,,,,,,,,5,1.097,1,,,,,,-0.386897827,-0.379593018,1,0,0,1.0975,Obsidian_rect,5,0,5,0,1,
663287eff8f3dda45d8a2125,TCN,2024-06-25_12h47.14.954,LearnStrategy,2023.2.3,Linux x86_64,59.88023952,3,2,7,,,,,,,,4,12,,,,,,,,,,,4,5.019,1,,,,,,0.358793538,-0.250574707,1,0,0,5.0187,Gabbro_rect,6,0,6,0,1,
663287eff8f3dda45d8a2125,TCN,2024-06-25_12h47.14.954,LearnStrategy,2023.2.3,Linux x86_64,59.88023952,3,2,8,,,,,,,,7,14,,,,,,,,,,,4,3.24,0,,,,,,0.355818604,-0.252376465,1,0,0,3.2398,Gabbro_rect,7,0,7,0,1,
663287eff8f3dda45d8a2125,TCN,2024-06-25_12h47.14.954,LearnStrategy,2023.2.3,Linux x86_64,59.88023952,3,2,9,,,,,,,,1,04,,,,,,,,,,,3,9.461,0,,,,,,0.2067618,-0.249351074,1,0,0,9.4609,Diorite_rect,8,0,8,0,1,
663287eff8f3dda45d8a2125,TCN,2024-06-25_12h47.14.954,LearnStrategy,2023.2.3,Linux x86_64,59.88023952,3,2,10,,,,,,,,8,04,,,,,,,,,,,8,1.451,1,,,,,,0.377206217,-0.397775228,1,0,0,1.4505,Pumice_rect,9,0,9,0,1,
663287eff8f3dda45d8a2125,TCN,2024-06-25_12h47.14.954,LearnStrategy,2023.2.3,Linux x86_64,59.88023952,3,2,11,,,,,,,,2,05,,,,,,,,,,,2,1.689,1,,,,,,-0.116388509,-0.247974528,1,0,0,1.689,Basalt_rect,10,0,10,0,1,
663287eff8f3dda45d8a2125,TCN,2024-06-25_12h47.14.954,LearnStrategy,2023.2.3,Linux x86_64,59.88023952,3,2,12,,,,,,,,8,05,,,,,,,,,,,8,2.316,1,,,,,,0.344817057,-0.394793457,1,0,0,2.3161,Pumice_rect,11,0,11,0,1,
663287eff8f3dda45d8a2125,TCN,2024-06-25_12h47.14.954,LearnStrategy,2023.2.3,Linux x86_64,59.88023952,3,2,13,,,,,,,,2,16,,,,,,,,,,,3,9.568,0,,,,,,0.159996094,-0.234967529,1,0,0,9.5676,Diorite_rect,12,0,12,0,1,
663287eff8f3dda45d8a2125,TCN,2024-06-25_12h47.14.954,LearnStrategy,2023.2.3,Linux x86_64,59.88023952,3,2,14,,,,,,,,7,05,,,,,,,,,,,1,6.287,0,,,,,,-0.355459229,-0.252998779,1,0,0,6.287,Andesite_rect,13,0,13,0,1,
663287eff8f3dda45d8a2125,TCN,2024-06-25_12h47.14.954,LearnStrategy,2023.2.3,Linux x86_64,59.88023952,3,2,15,,,,,,,,3,16,,,,,,,,,,,1,1.537,0,,,,,,-0.352523641,-0.251820964,1,0,0,1.5373,Andesite_rect,14,0,14,0,1,
663287eff8f3dda45d8a2125,TCN,2024-06-25_12h47.14.954,LearnStrategy,2023.2.3,Linux x86_64,59.88023952,3,2,16,,,,,,,,5,05,,,,,,,,,,,5,1.381,1,,,,,,-0.34987675,-0.384542562,1,0,0,1.3815,Obsidian_rect,15,0,15,0,1,
663287eff8f3dda45d8a2125,TCN,2024-06-25_12h47.14.954,LearnStrategy,2023.2.3,Linux x86_64,59.88023952,4,1,1,0.060717367,-0.007075968,1,0,0,1.1969,rock_grid_rect_2,1,16,-1,-1,1.197,0.414735107,-0.235173258,1,0,0,6.647,Gabbro_rect,4,6.647,0,0,0,0,0,1,,,,,,,,,,,,,
663287eff8f3dda45d8a2125,TCN,2024-06-25_12h47.14.954,LearnStrategy,2023.2.3,Linux x86_64,59.88023952,4,1,2,0.02849707,0.004429484,1,0,0,1.4947,rock_grid_rect_2,5,16,-1,-1,1.495,-0.428569499,-0.394805664,1,0,0,2.2509,Obsidian_rect,5,2.251,1,1,0,1,0,1,,,,,,,,,,,,,
663287eff8f3dda45d8a2125,TCN,2024-06-25_12h47.14.954,LearnStrategy,2023.2.3,Linux x86_64,59.88023952,4,1,3,0.072052002,-0.001092692,1,0,0,1.2288,rock_grid_rect_2,2,14,-1,-1,1.229,0.338780843,-0.230941813,1,0,0,9.2833,Gabbro_rect,4,9.283,0,2,0,2,0,1,,,,,,,,,,,,,
663287eff8f3dda45d8a2125,TCN,2024-06-25_12h47.14.954,LearnStrategy,2023.2.3,Linux x86_64,59.88023952,4,1,4,-0.007382731,-0.000546875,1,0,0,1.2611,rock_grid_rect_2,2,12,-1,-1,1.261,-0.383872884,-0.252293701,1,0,0,3.9268,Andesite_rect,1,3.927,0,3,0,3,0,1,,,,,,,,,,,,,
663287eff8f3dda45d8a2125,TCN,2024-06-25_12h47.14.954,LearnStrategy,2023.2.3,Linux x86_64,59.88023952,4,1,5,-0.029683105,0.023973999,1,0,0,0.8459,rock_grid_rect_2,7,13,-1,-1,0.846,-0.094072428,-0.394273275,1,0,0,11.9491,Pegmatite_rect,6,11.949,0,4,0,4,0,1,,,,,,,,,,,,,
663287eff8f3dda45d8a2125,TCN,2024-06-25_12h47.14.954,LearnStrategy,2023.2.3,Linux x86_64,59.88023952,4,1,6,0.066751302,0.001970459,1,0,0,1.2101,rock_grid_rect_2,3,15,-1,-1,1.21,0.135197266,-0.268792236,1,0,0,7.9208,Diorite_rect,3,7.921,1,5,0,5,0,1,,,,,,,,,,,,,
663287eff8f3dda45d8a2125,TCN,2024-06-25_12h47.14.954,LearnStrategy,2023.2.3,Linux x86_64,59.88023952,4,1,7,0.08623877,-0.007852336,1,0,0,1.1492,rock_grid_rect_2,1,09,-1,-1,1.149,-0.34463208,-0.256235026,1,0,0,2.8496,Andesite_rect,1,2.85,1,6,0,6,0,1,,,,,,,,,,,,,
663287eff8f3dda45d8a2125,TCN,2024-06-25_12h47.14.954,LearnStrategy,2023.2.3,Linux x86_64,59.88023952,4,1,8,0.063532715,0.016579915,1,0,0,1.1783,rock_grid_rect_2,6,10,-1,-1,1.178,0.086621012,-0.394205322,1,0,0,12.2321,Peridotite_rect,7,12.232,0,7,0,7,0,1,,,,,,,,,,,,,
663287eff8f3dda45d8a2125,TCN,2024-06-25_12h47.14.954,LearnStrategy,2023.2.3,Linux x86_64,59.88023952,4,1,9,-0.023664714,-0.005025065,1,0,0,0.9295,rock_grid_rect_2,8,03,-1,-1,0.93,0.342898437,-0.405124837,1,0,0,4.4337,Pumice_rect,8,4.434,1,8,0,8,0,1,,,,,,,,,,,,,
663287eff8f3dda45d8a2125,TCN,2024-06-25_12h47.14.954,LearnStrategy,2023.2.3,Linux x86_64,59.88023952,4,1,10,-0.007130127,0.004934123,1,0,0,0.895,rock_grid_rect_2,4,10,-1,-1,0.895,0.406329102,-0.243730632,1,0,0,3.0231,Gabbro_rect,4,3.023,1,9,0,9,0,1,,,,,,,,,,,,,
663287eff8f3dda45d8a2125,TCN,2024-06-25_12h47.14.954,LearnStrategy,2023.2.3,Linux x86_64,59.88023952,4,1,11,0.014973796,0.004868937,1,0,0,0.7609,rock_grid_rect_2,6,06,-1,-1,0.761,0.170962728,-0.397605957,1,0,0,1.7167,Peridotite_rect,7,1.717,0,10,0,10,0,1,,,,,,,,,,,,,
663287eff8f3dda45d8a2125,TCN,2024-06-25_12h47.14.954,LearnStrategy,2023.2.3,Linux x86_64,59.88023952,4,1,12,0.111445394,-0.011407064,1,0,0,1.2465,rock_grid_rect_2,5,06,-1,-1,1.246,-0.417230672,-0.397993978,1,0,0,2.6398,Obsidian_rect,5,2.64,1,11,0,11,0,1,,,,,,,,,,,,,
663287eff8f3dda45d8a2125,TCN,2024-06-25_12h47.14.954,LearnStrategy,2023.2.3,Linux x86_64,59.88023952,4,1,13,0.022352783,-0.007847453,1,0,0,1.1941,rock_grid_rect_2,3,11,-1,-1,1.194,-0.094013509,-0.395961833,1,0,0,23.9542,Pegmatite_rect,6,23.954,0,12,0,12,0,1,,,,,,,,,,,,,
663287eff8f3dda45d8a2125,TCN,2024-06-25_12h47.14.954,LearnStrategy,2023.2.3,Linux x86_64,59.88023952,4,1,14,0.056184814,0.006064494,1,0,0,0.8791,rock_grid_rect_2,8,08,-1,-1,0.879,0.339106608,-0.395369059,1,0,0,2.0169,Pumice_rect,8,2.017,1,13,0,13,0,1,,,,,,,,,,,,,
663287eff8f3dda45d8a2125,TCN,2024-06-25_12h47.14.954,LearnStrategy,2023.2.3,Linux x86_64,59.88023952,4,1,15,-0.06404248,-0.010273397,1,0,0,1.0469,rock_grid_rect_2,4,03,-1,-1,1.047,-0.104487874,-0.260699056,1,0,0,5.9669,Basalt_rect,2,5.967,0,14,0,14,0,1,,,,,,,,,,,,,
663287eff8f3dda45d8a2125,TCN,2024-06-25_12h47.14.954,LearnStrategy,2023.2.3,Linux x86_64,59.88023952,4,1,16,0.096779378,-0.002011312,1,0,0,0.8941,rock_grid_rect_2,7,02,-1,-1,0.894,0.113774577,-0.394470703,1,0,0,3.8894,Peridotite_rect,7,3.889,1,15,0,15,0,1,,,,,,,,,,,,,
663287eff8f3dda45d8a2125,TCN,2024-06-25_12h47.14.954,LearnStrategy,2023.2.3,Linux x86_64,59.88023952,4,2,1,,,,,,,,4,12,,,,,,,,,,,2,1.533,0,,,,,,-0.108977946,-0.228084961,1,0,0,1.5332,Basalt_rect,0,0,0,0,1,
663287eff8f3dda45d8a2125,TCN,2024-06-25_12h47.14.954,LearnStrategy,2023.2.3,Linux x86_64,59.88023952,4,2,2,,,,,,,,6,07,,,,,,,,,,,5,11.43,0,,,,,,-0.369060791,-0.387009196,1,0,0,11.4305,Obsidian_rect,1,0,1,0,1,
663287eff8f3dda45d8a2125,TCN,2024-06-25_12h47.14.954,LearnStrategy,2023.2.3,Linux x86_64,59.88023952,4,2,3,,,,,,,,7,04,,,,,,,,,,,6,6.144,0,,,,,,-0.071686361,-0.386457031,1,0,0,6.1439,Pegmatite_rect,2,0,2,0,1,
663287eff8f3dda45d8a2125,TCN,2024-06-25_12h47.14.954,LearnStrategy,2023.2.3,Linux x86_64,59.88023952,4,2,4,,,,,,,,4,09,,,,,,,,,,,2,7.163,0,,,,,,-0.059045492,-0.242163249,1,0,0,7.1628,Basalt_rect,3,0,3,0,1,
663287eff8f3dda45d8a2125,TCN,2024-06-25_12h47.14.954,LearnStrategy,2023.2.3,Linux x86_64,59.88023952,4,2,5,,,,,,,,6,05,,,,,,,,,,,5,3.209,0,,,,,,-0.365953979,-0.393012858,1,0,0,3.2088,Obsidian_rect,4,0,4,0,1,
663287eff8f3dda45d8a2125,TCN,2024-06-25_12h47.14.954,LearnStrategy,2023.2.3,Linux x86_64,59.88023952,4,2,6,,,,,,,,8,09,,,,,,,,,,,8,1.229,1,,,,,,0.437896729,-0.4062264,1,0,0,1.2293,Pumice_rect,5,0,5,0,1,
663287eff8f3dda45d8a2125,TCN,2024-06-25_12h47.14.954,LearnStrategy,2023.2.3,Linux x86_64,59.88023952,4,2,7,,,,,,,,5,05,,,,,,,,,,,5,1.709,1,,,,,,-0.365591187,-0.409025798,1,0,0,1.7088,Obsidian_rect,6,0,6,0,1,
663287eff8f3dda45d8a2125,TCN,2024-06-25_12h47.14.954,LearnStrategy,2023.2.3,Linux x86_64,59.88023952,4,2,8,,,,,,,,3,14,,,,,,,,,,,1,2.995,0,,,,,,-0.384755941,-0.247870931,1,0,0,2.9955,Andesite_rect,7,0,7,0,1,
663287eff8f3dda45d8a2125,TCN,2024-06-25_12h47.14.954,LearnStrategy,2023.2.3,Linux x86_64,59.88023952,4,2,9,,,,,,,,2,16,,,,,,,,,,,4,1.826,0,,,,,,0.43363444,-0.248446208,1,0,0,1.8256,Gabbro_rect,8,0,8,0,1,
663287eff8f3dda45d8a2125,TCN,2024-06-25_12h47.14.954,LearnStrategy,2023.2.3,Linux x86_64,59.88023952,4,2,10,,,,,,,,5,12,,,,,,,,,,,5,1.18,1,,,,,,-0.36244043,-0.395574137,1,0,0,1.1798,Obsidian_rect,9,0,9,0,1,
663287eff8f3dda45d8a2125,TCN,2024-06-25_12h47.14.954,LearnStrategy,2023.2.3,Linux x86_64,59.88023952,4,2,11,,,,,,,,7,16,,,,,,,,,,,6,5.568,0,,,,,,-0.089864176,-0.389371257,1,0,0,5.5677,Pegmatite_rect,10,0,10,0,1,
663287eff8f3dda45d8a2125,TCN,2024-06-25_12h47.14.954,LearnStrategy,2023.2.3,Linux x86_64,59.88023952,4,2,12,,,,,,,,1,14,,,,,,,,,,,3,2.248,0,,,,,,0.194543376,-0.247640951,1,0,0,2.2483,Diorite_rect,11,0,11,0,1,
663287eff8f3dda45d8a2125,TCN,2024-06-25_12h47.14.954,LearnStrategy,2023.2.3,Linux x86_64,59.88023952,4,2,13,,,,,,,,8,04,,,,,,,,,,,8,1.061,1,,,,,,0.385652344,-0.380577311,1,0,0,1.0611,Pumice_rect,12,0,12,0,1,
663287eff8f3dda45d8a2125,TCN,2024-06-25_12h47.14.954,LearnStrategy,2023.2.3,Linux x86_64,59.88023952,4,2,14,,,,,,,,1,11,,,,,,,,,,,1,2.481,1,,,,,,-0.362267578,-0.24393807,1,0,0,2.4814,Andesite_rect,13,0,13,0,1,
663287eff8f3dda45d8a2125,TCN,2024-06-25_12h47.14.954,LearnStrategy,2023.2.3,Linux x86_64,59.88023952,4,2,15,,,,,,,,3,02,,,,,,,,,,,3,2.628,1,,,,,,0.165763265,-0.259016276,1,0,0,2.6276,Diorite_rect,14,0,14,0,1,
663287eff8f3dda45d8a2125,TCN,2024-06-25_12h47.14.954,LearnStrategy,2023.2.3,Linux x86_64,59.88023952,4,2,16,,,,,,,,2,10,,,,,,,,,,,2,1.315,1,,,,,,-0.112658936,-0.250691976,1,0,0,1.3148,Basalt_rect,15,0,15,0,1,
663287eff8f3dda45d8a2125,TCN,2024-06-25_12h47.14.954,LearnStrategy,2023.2.3,Linux x86_64,59.88023952,5,1,1,0.090357178,0.000158244,1,0,0,1.3136,rock_grid_rect_2,8,13,-1,-1,1.314,0.417033773,-0.406424316,1,0,0,1.8316,Pumice_rect,8,1.832,1,0,0,0,0,1,,,,,,,,,,,,,
663287eff8f3dda45d8a2125,TCN,2024-06-25_12h47.14.954,LearnStrategy,2023.2.3,Linux x86_64,59.88023952,5,1,2,0.033526367,-0.00208313,1,0,0,1.2128,rock_grid_rect_2,3,10,-1,-1,1.213,0.149936117,-0.391561605,1,0,0,16.4514,Peridotite_rect,7,16.451,0,1,0,1,0,1,,,,,,,,,,,,,
663287eff8f3dda45d8a2125,TCN,2024-06-25_12h47.14.954,LearnStrategy,2023.2.3,Linux x86_64,59.88023952,5,1,3,-0.002368327,0.010201009,1,0,0,1.2273,rock_grid_rect_2,2,09,-1,-1,1.227,-0.139178101,-0.269139893,1,0,0,3.0854,Basalt_rect,2,3.085,1,2,0,2,0,1,,,,,,,,,,,,,
663287eff8f3dda45d8a2125,TCN,2024-06-25_12h47.14.954,LearnStrategy,2023.2.3,Linux x86_64,59.88023952,5,1,4,0.022058105,-0.001184692,1,0,0,1.1454,rock_grid_rect_2,4,13,-1,-1,1.145,0.383648437,-0.238769043,1,0,0,7.7991,Gabbro_rect,4,7.799,1,3,0,3,0,1,,,,,,,,,,,,,
663287eff8f3dda45d8a2125,TCN,2024-06-25_12h47.14.954,LearnStrategy,2023.2.3,Linux x86_64,59.88023952,5,1,5,-0.002526123,0.011622721,1,0,0,1.1297,rock_grid_rect_2,6,15,-1,-1,1.13,0.129474365,-0.413098226,1,0,0,14.7662,Peridotite_rect,7,14.766,0,4,0,4,0,1,,,,,,,,,,,,,
663287eff8f3dda45d8a2125,TCN,2024-06-25_12h47.14.954,LearnStrategy,2023.2.3,Linux x86_64,59.88023952,5,1,6,0.059800537,0.005512736,1,0,0,1.095,rock_grid_rect_2,5,11,-1,-1,1.095,-0.403674357,-0.383495361,1,0,0,1.7849,Obsidian_rect,5,1.785,1,5,0,5,0,1,,,,,,,,,,,,,
663287eff8f3dda45d8a2125,TCN,2024-06-25_12h47.14.954,LearnStrategy,2023.2.3,Linux x86_64,59.88023952,5,1,7,0.110067952,0.000789022,1,0,0,0.8969,rock_grid_rect_2,7,12,-1,-1,0.897,0.411011556,-0.245802083,1,0,0,6.5493,Gabbro_rect,4,6.549,0,6,0,6,0,1,,,,,,,,,,,,,
663287eff8f3dda45d8a2125,TCN,2024-06-25_12h47.14.954,LearnStrategy,2023.2.3,Linux x86_64,59.88023952,5,1,8,0.02616276,0.000146525,1,0,0,1.0116,rock_grid_rect_2,7,10,-1,-1,1.012,0.134329915,-0.408039632,1,0,0,3.2165,Peridotite_rect,7,3.216,1,7,0,7,0,1,,,,,,,,,,,,,
663287eff8f3dda45d8a2125,TCN,2024-06-25_12h47.14.954,LearnStrategy,2023.2.3,Linux x86_64,59.88023952,5,1,9,-0.009599447,0.013952474,1,0,0,1.078,rock_grid_rect_2,1,10,-1,-1,1.078,-0.422511597,-0.253246338,1,0,0,3.768,Andesite_rect,1,3.768,1,8,0,8,0,1,,,,,,,,,,,,,
663287eff8f3dda45d8a2125,TCN,2024-06-25_12h47.14.954,LearnStrategy,2023.2.3,Linux x86_64,59.88023952,5,1,10,0.078688232,0.001094808,1,0,0,1.1624,rock_grid_rect_2,5,02,-1,-1,1.162,-0.406886312,-0.398187256,1,0,0,1.1152,Obsidian_rect,5,1.115,1,9,0,9,0,1,,,,,,,,,,,,,
663287eff8f3dda45d8a2125,TCN,2024-06-25_12h47.14.954,LearnStrategy,2023.2.3,Linux x86_64,59.88023952,5,1,11,0.055222168,-0.002422852,1,0,0,1.2126,rock_grid_rect_2,4,16,-1,-1,1.213,0.381538249,-0.254590658,1,0,0,1.9166,Gabbro_rect,4,1.917,1,10,0,10,0,1,,,,,,,,,,,,,
663287eff8f3dda45d8a2125,TCN,2024-06-25_12h47.14.954,LearnStrategy,2023.2.3,Linux x86_64,59.88023952,5,1,12,7.82064E-05,-0.011410278,1,0,0,0.8635,rock_grid_rect_2,3,06,-1,-1,0.863,0.113241781,-0.398696615,1,0,0,1.4536,Peridotite_rect,7,1.454,0,11,0,11,0,1,,,,,,,,,,,,,
663287eff8f3dda45d8a2125,TCN,2024-06-25_12h47.14.954,LearnStrategy,2023.2.3,Linux x86_64,59.88023952,5,1,13,0.046181722,-0.000770874,1,0,0,1.546,rock_grid_rect_2,2,11,-1,-1,1.546,-0.330912313,-0.237650391,1,0,0,5.0235,Andesite_rect,1,5.024,0,12,0,12,0,1,,,,,,,,,,,,,
663287eff8f3dda45d8a2125,TCN,2024-06-25_12h47.14.954,LearnStrategy,2023.2.3,Linux x86_64,59.88023952,5,1,14,0.061393148,-0.013933879,1,0,0,1.1787,rock_grid_rect_2,1,02,-1,-1,1.179,-0.085692627,-0.40949235,1,0,0,21.16,Pegmatite_rect,6,21.16,0,13,0,13,0,1,,,,,,,,,,,,,
663287eff8f3dda45d8a2125,TCN,2024-06-25_12h47.14.954,LearnStrategy,2023.2.3,Linux x86_64,59.88023952,5,1,15,0.148104248,0.010378866,1,0,0,0.9463,rock_grid_rect_2,8,14,-1,-1,0.946,0.359325684,-0.391906657,1,0,0,1.2385,Pumice_rect,8,1.238,1,14,0,14,0,1,,,,,,,,,,,,,
663287eff8f3dda45d8a2125,TCN,2024-06-25_12h47.14.954,LearnStrategy,2023.2.3,Linux x86_64,59.88023952,5,1,16,-0.008029297,-0.003517253,1,0,0,0.796,rock_grid_rect_2,6,13,-1,-1,0.796,0.194279297,-0.247975179,1,0,0,8.1173,Diorite_rect,3,8.117,0,15,0,15,0,1,,,,,,,,,,,,,
663287eff8f3dda45d8a2125,TCN,2024-06-25_12h47.14.954,LearnStrategy,2023.2.3,Linux x86_64,59.88023952,5,2,1,,,,,,,,6,03,,,,,,,,,,,6,2.33,1,,,,,,-0.083749756,-0.395974202,1,0,0,2.3296,Pegmatite_rect,0,0,0,0,1,
663287eff8f3dda45d8a2125,TCN,2024-06-25_12h47.14.954,LearnStrategy,2023.2.3,Linux x86_64,59.88023952,5,2,2,,,,,,,,3,13,,,,,,,,,,,6,6.067,0,,,,,,-0.13672408,-0.405390137,1,0,0,6.067,Pegmatite_rect,1,0,1,0,1,
663287eff8f3dda45d8a2125,TCN,2024-06-25_12h47.14.954,LearnStrategy,2023.2.3,Linux x86_64,59.88023952,5,2,3,,,,,,,,2,05,,,,,,,,,,,2,1.194,1,,,,,,-0.09475472,-0.262426839,1,0,0,1.1943,Basalt_rect,2,0,2,0,1,
663287eff8f3dda45d8a2125,TCN,2024-06-25_12h47.14.954,LearnStrategy,2023.2.3,Linux x86_64,59.88023952,5,2,4,,,,,,,,7,07,,,,,,,,,,,1,5.094,0,,,,,,-0.343128499,-0.255724121,1,0,0,5.0944,Andesite_rect,3,0,3,0,1,
663287eff8f3dda45d8a2125,TCN,2024-06-25_12h47.14.954,LearnStrategy,2023.2.3,Linux x86_64,59.88023952,5,2,5,,,,,,,,4,14,,,,,,,,,,,3,2.4,0,,,,,,0.172357747,-0.250996826,1,0,0,2.3996,Diorite_rect,4,0,4,0,1,
663287eff8f3dda45d8a2125,TCN,2024-06-25_12h47.14.954,LearnStrategy,2023.2.3,Linux x86_64,59.88023952,5,2,6,,,,,,,,7,05,,,,,,,,,,,6,10.679,0,,,,,,-0.118309733,-0.407837077,1,0,0,10.679,Pegmatite_rect,5,0,5,0,1,
663287eff8f3dda45d8a2125,TCN,2024-06-25_12h47.14.954,LearnStrategy,2023.2.3,Linux x86_64,59.88023952,5,2,7,,,,,,,,5,04,,,,,,,,,,,5,1.081,1,,,,,,-0.359578817,-0.389777751,1,0,0,1.0809,Obsidian_rect,6,0,6,0,1,
663287eff8f3dda45d8a2125,TCN,2024-06-25_12h47.14.954,LearnStrategy,2023.2.3,Linux x86_64,59.88023952,5,2,8,,,,,,,,5,07,,,,,,,,,,,5,0.986,1,,,,,,-0.35307959,-0.389193441,1,0,0,0.9856,Obsidian_rect,7,0,7,0,1,
663287eff8f3dda45d8a2125,TCN,2024-06-25_12h47.14.954,LearnStrategy,2023.2.3,Linux x86_64,59.88023952,5,2,9,,,,,,,,8,05,,,,,,,,,,,8,1.215,1,,,,,,0.409207845,-0.393595378,1,0,0,1.2146,Pumice_rect,8,0,8,0,1,
663287eff8f3dda45d8a2125,TCN,2024-06-25_12h47.14.954,LearnStrategy,2023.2.3,Linux x86_64,59.88023952,5,2,10,,,,,,,,2,04,,,,,,,,,,,2,1.338,1,,,,,,-0.064736003,-0.245307943,1,0,0,1.3377,Basalt_rect,9,0,9,0,1,
663287eff8f3dda45d8a2125,TCN,2024-06-25_12h47.14.954,LearnStrategy,2023.2.3,Linux x86_64,59.88023952,5,2,11,,,,,,,,6,16,,,,,,,,,,,7,3.719,0,,,,,,0.173948486,-0.39529777,1,0,0,3.7185,Peridotite_rect,10,0,10,0,1,
663287eff8f3dda45d8a2125,TCN,2024-06-25_12h47.14.954,LearnStrategy,2023.2.3,Linux x86_64,59.88023952,5,2,12,,,,,,,,8,10,,,,,,,,,,,8,1.185,1,,,,,,0.343530192,-0.403938965,1,0,0,1.1851,Pumice_rect,11,0,11,0,1,
663287eff8f3dda45d8a2125,TCN,2024-06-25_12h47.14.954,LearnStrategy,2023.2.3,Linux x86_64,59.88023952,5,2,13,,,,,,,,1,03,,,,,,,,,,,6,10.681,0,,,,,,-0.095935303,-0.387239095,1,0,0,10.6811,Pegmatite_rect,12,0,12,0,1,
663287eff8f3dda45d8a2125,TCN,2024-06-25_12h47.14.954,LearnStrategy,2023.2.3,Linux x86_64,59.88023952,5,2,14,,,,,,,,1,01,,,,,,,,,,,4,6.118,0,,,,,,0.371667643,-0.245000081,1,0,0,6.118,Gabbro_rect,13,0,13,0,1,
663287eff8f3dda45d8a2125,TCN,2024-06-25_12h47.14.954,LearnStrategy,2023.2.3,Linux x86_64,59.88023952,5,2,15,,,,,,,,4,05,,,,,,,,,,,1,4.798,0,,,,,,-0.35415804,-0.240452067,1,0,0,4.7977,Andesite_rect,14,0,14,0,1,
663287eff8f3dda45d8a2125,TCN,2024-06-25_12h47.14.954,LearnStrategy,2023.2.3,Linux x86_64,59.88023952,5,2,16,,,,,,,,3,07,,,,,,,,,,,1,0.885,0,,,,,,-0.352966675,-0.240452067,1,0,0,0.8851,Andesite_rect,15,0,15,0,1,
663287eff8f3dda45d8a2125,TCN,2024-06-25_12h47.14.954,LearnStrategy,2023.2.3,Linux x86_64,59.88023952,6,1,1,0.0833007,0.003440348,1,0,0,1.329,rock_grid_rect_2,7,08,-1,-1,1.329,-0.118801473,-0.402834554,1,0,0,34.1917,Pegmatite_rect,6,34.192,0,0,0,0,0,1,,,,,,,,,,,,,
663287eff8f3dda45d8a2125,TCN,2024-06-25_12h47.14.954,LearnStrategy,2023.2.3,Linux x86_64,59.88023952,6,1,2,0.142939046,-0.010299642,1,0,0,1.2787,rock_grid_rect_2,6,12,-1,-1,1.279,-0.45210909,-0.230625895,1,0,0,3.8276,Andesite_rect,1,3.828,0,1,0,1,0,1,,,,,,,,,,,,,
663287eff8f3dda45d8a2125,TCN,2024-06-25_12h47.14.954,LearnStrategy,2023.2.3,Linux x86_64,59.88023952,6,1,3,0.137068848,0.001180745,1,0,0,1.2781,rock_grid_rect_2,3,12,-1,-1,1.278,0.12269279,-0.258449707,1,0,0,4.2862,Diorite_rect,3,4.286,1,2,0,2,0,1,,,,,,,,,,,,,
663287eff8f3dda45d8a2125,TCN,2024-06-25_12h47.14.954,LearnStrategy,2023.2.3,Linux x86_64,59.88023952,6,1,4,0.076560465,0.001163289,1,0,0,0.9333,rock_grid_rect_2,4,15,-1,-1,0.933,0.142378255,-0.24948291,1,0,0,2.1063,Diorite_rect,3,2.106,0,3,0,3,0,1,,,,,,,,,,,,,
663287eff8f3dda45d8a2125,TCN,2024-06-25_12h47.14.954,LearnStrategy,2023.2.3,Linux x86_64,59.88023952,6,1,5,0.029349202,0.012215617,1,0,0,0.8298,rock_grid_rect_2,5,14,-1,-1,0.83,-0.44666333,-0.395286051,1,0,0,1.0402,Obsidian_rect,5,1.04,1,4,0,4,0,1,,,,,,,,,,,,,
663287eff8f3dda45d8a2125,TCN,2024-06-25_12h47.14.954,LearnStrategy,2023.2.3,Linux x86_64,59.88023952,6,1,6,0.070870361,-0.001064046,1,0,0,1.114,rock_grid_rect_2,8,06,-1,-1,1.114,0.414719971,-0.39116862,1,0,0,1.1868,Pumice_rect,8,1.187,1,5,0,5,0,1,,,,,,,,,,,,,
663287eff8f3dda45d8a2125,TCN,2024-06-25_12h47.14.954,LearnStrategy,2023.2.3,Linux x86_64,59.88023952,6,1,7,0.039429362,-0.005182902,1,0,0,1.0303,rock_grid_rect_2,4,01,-1,-1,1.03,-0.363979126,-0.24668099,1,0,0,5.5995,Andesite_rect,1,5.6,0,6,0,6,0,1,,,,,,,,,,,,,
663287eff8f3dda45d8a2125,TCN,2024-06-25_12h47.14.954,LearnStrategy,2023.2.3,Linux x86_64,59.88023952,6,1,8,0.109335856,0.004193034,1,0,0,0.8606,rock_grid_rect_2,7,15,-1,-1,0.861,0.102644775,-0.416403076,1,0,0,3.5211,Peridotite_rect,7,3.521,1,7,0,7,0,1,,,,,,,,,,,,,
663287eff8f3dda45d8a2125,TCN,2024-06-25_12h47.14.954,LearnStrategy,2023.2.3,Linux x86_64,59.88023952,6,1,9,0.071412109,0.019112752,1,0,0,0.7436,rock_grid_rect_2,2,02,-1,-1,0.744,-0.124104248,-0.251816325,1,0,0,1.3387,Basalt_rect,2,1.339,1,8,0,8,0,1,,,,,,,,,,,,,
663287eff8f3dda45d8a2125,TCN,2024-06-25_12h47.14.954,LearnStrategy,2023.2.3,Linux x86_64,59.88023952,6,1,10,0.041525635,-0.000112549,1,0,0,0.83,rock_grid_rect_2,1,06,-1,-1,0.83,-0.334161336,-0.237912435,1,0,0,9.7349,Andesite_rect,1,9.735,1,9,0,9,0,1,,,,,,,,,,,,,
663287eff8f3dda45d8a2125,TCN,2024-06-25_12h47.14.954,LearnStrategy,2023.2.3,Linux x86_64,59.88023952,6,1,11,0.006048665,-0.008700195,1,0,0,0.9444,rock_grid_rect_2,2,06,-1,-1,0.944,-0.110557454,-0.247402995,1,0,0,1.0676,Basalt_rect,2,1.068,1,10,0,10,0,1,,,,,,,,,,,,,
663287eff8f3dda45d8a2125,TCN,2024-06-25_12h47.14.954,LearnStrategy,2023.2.3,Linux x86_64,59.88023952,6,1,12,0.03527417,-0.009077718,1,0,0,1.1472,rock_grid_rect_2,1,07,-1,-1,1.147,-0.067467204,-0.392836833,1,0,0,42.588,Pegmatite_rect,6,42.588,0,11,0,11,0,1,,,,,,,,,,,,,
663287eff8f3dda45d8a2125,TCN,2024-06-25_12h47.14.954,LearnStrategy,2023.2.3,Linux x86_64,59.88023952,6,1,13,0.119208171,0.022198934,1,0,0,0.8608,rock_grid_rect_2,6,08,-1,-1,0.861,0.179743571,-0.398450439,1,0,0,8.7163,Peridotite_rect,7,8.716,0,12,0,12,0,1,,,,,,,,,,,,,
663287eff8f3dda45d8a2125,TCN,2024-06-25_12h47.14.954,LearnStrategy,2023.2.3,Linux x86_64,59.88023952,6,1,14,0.041210205,0.002970581,1,0,0,1.2275,rock_grid_rect_2,3,08,-1,-1,1.227,-0.419048991,-0.243928711,1,0,0,5.3181,Andesite_rect,1,5.318,0,13,0,13,0,1,,,,,,,,,,,,,
663287eff8f3dda45d8a2125,TCN,2024-06-25_12h47.14.954,LearnStrategy,2023.2.3,Linux x86_64,59.88023952,6,1,15,0.029207438,-0.018009237,1,0,0,0.845,rock_grid_rect_2,5,09,-1,-1,0.845,-0.390795451,-0.421599854,1,0,0,1.0243,Obsidian_rect,5,1.024,1,14,0,14,0,1,,,,,,,,,,,,,
663287eff8f3dda45d8a2125,TCN,2024-06-25_12h47.14.954,LearnStrategy,2023.2.3,Linux x86_64,59.88023952,6,1,16,0.032781657,-0.006613322,1,0,0,1.0298,rock_grid_rect_2,8,15,-1,-1,1.03,0.366698324,-0.402329183,1,0,0,1.1847,Pumice_rect,8,1.185,1,15,0,15,0,1,,,,,,,,,,,,,
663287eff8f3dda45d8a2125,TCN,2024-06-25_12h47.14.954,LearnStrategy,2023.2.3,Linux x86_64,59.88023952,6,2,1,,,,,,,,5,08,,,,,,,,,,,5,1.234,1,,,,,,-0.354468384,-0.38710734,1,0,0,1.2341,Obsidian_rect,0,0,0,0,1,
663287eff8f3dda45d8a2125,TCN,2024-06-25_12h47.14.954,LearnStrategy,2023.2.3,Linux x86_64,59.88023952,6,2,2,,,,,,,,3,16,,,,,,,,,,,6,4.042,0,,,,,,-0.13735791,-0.398561198,1,0,0,4.042,Pegmatite_rect,1,0,1,0,1,
663287eff8f3dda45d8a2125,TCN,2024-06-25_12h47.14.954,LearnStrategy,2023.2.3,Linux x86_64,59.88023952,6,2,3,,,,,,,,7,06,,,,,,,,,,,6,8.033,0,,,,,,-0.138004354,-0.39665682,1,0,0,8.0334,Pegmatite_rect,2,0,2,0,1,
663287eff8f3dda45d8a2125,TCN,2024-06-25_12h47.14.954,LearnStrategy,2023.2.3,Linux x86_64,59.88023952,6,2,4,,,,,,,,2,01,,,,,,,,,,,2,1.181,1,,,,,,-0.09620638,-0.258167643,1,0,0,1.1813,Basalt_rect,3,0,3,0,1,
663287eff8f3dda45d8a2125,TCN,2024-06-25_12h47.14.954,LearnStrategy,2023.2.3,Linux x86_64,59.88023952,6,2,5,,,,,,,,5,10,,,,,,,,,,,5,1.152,1,,,,,,-0.345351481,-0.419445394,1,0,0,1.1523,Obsidian_rect,4,0,4,0,1,
663287eff8f3dda45d8a2125,TCN,2024-06-25_12h47.14.954,LearnStrategy,2023.2.3,Linux x86_64,59.88023952,6,2,6,,,,,,,,8,02,,,,,,,,,,,8,1.19,1,,,,,,0.474208089,-0.406485352,1,0,0,1.19,Pumice_rect,5,0,5,0,1,
663287eff8f3dda45d8a2125,TCN,2024-06-25_12h47.14.954,LearnStrategy,2023.2.3,Linux x86_64,59.88023952,6,2,7,,,,,,,,4,11,,,,,,,,,,,2,5.124,0,,,,,,-0.118548787,-0.244341715,1,0,0,5.1243,Basalt_rect,6,0,6,0,1,
663287eff8f3dda45d8a2125,TCN,2024-06-25_12h47.14.954,LearnStrategy,2023.2.3,Linux x86_64,59.88023952,6,2,8,,,,,,,,1,04,,,,,,,,,,,4,2.478,0,,,,,,0.392904134,-0.250998698,1,0,0,2.4785,Gabbro_rect,7,0,7,0,1,
663287eff8f3dda45d8a2125,TCN,2024-06-25_12h47.14.954,LearnStrategy,2023.2.3,Linux x86_64,59.88023952,6,2,9,,,,,,,,4,08,,,,,,,,,,,1,24.3,0,,,,,,-0.381260457,-0.239268717,1,0,0,24.3005,Andesite_rect,8,0,8,0,1,
663287eff8f3dda45d8a2125,TCN,2024-06-25_12h47.14.954,LearnStrategy,2023.2.3,Linux x86_64,59.88023952,6,2,10,,,,,,,,2,08,,,,,,,,,,,2,2.073,1,,,,,,-0.10954484,-0.250532308,1,0,0,2.0732,Basalt_rect,9,0,9,0,1,
663287eff8f3dda45d8a2125,TCN,2024-06-25_12h47.14.954,LearnStrategy,2023.2.3,Linux x86_64,59.88023952,6,2,11,,,,,,,,3,09,,,,,,,,,,,6,5.589,0,,,,,,-0.129707682,-0.415129395,1,0,0,5.5889,Pegmatite_rect,10,0,10,0,1,
663287eff8f3dda45d8a2125,TCN,2024-06-25_12h47.14.954,LearnStrategy,2023.2.3,Linux x86_64,59.88023952,6,2,12,,,,,,,,7,14,,,,,,,,,,,7,12.801,1,,,,,,0.135568848,-0.401656087,1,0,0,12.8007,Peridotite_rect,11,0,11,0,1,
663287eff8f3dda45d8a2125,TCN,2024-06-25_12h47.14.954,LearnStrategy,2023.2.3,Linux x86_64,59.88023952,6,2,13,,,,,,,,6,11,,,,,,,,,,,5,3.735,0,,,,,,-0.348072713,-0.401091309,1,0,0,3.7349,Obsidian_rect,12,0,12,0,1,
663287eff8f3dda45d8a2125,TCN,2024-06-25_12h47.14.954,LearnStrategy,2023.2.3,Linux x86_64,59.88023952,6,2,14,,,,,,,,1,05,,,,,,,,,,,6,3.367,0,,,,,,-0.116984538,-0.389038249,1,0,0,3.3666,Pegmatite_rect,13,0,13,0,1,
663287eff8f3dda45d8a2125,TCN,2024-06-25_12h47.14.954,LearnStrategy,2023.2.3,Linux x86_64,59.88023952,6,2,15,,,,,,,,6,09,,,,,,,,,,,7,3.384,0,,,,,,0.102110352,-0.398677165,1,0,0,3.3845,Peridotite_rect,14,0,14,0,1,
663287eff8f3dda45d8a2125,TCN,2024-06-25_12h47.14.954,LearnStrategy,2023.2.3,Linux x86_64,59.88023952,6,2,16,,,,,,,,8,16,,,,,,,,,,,8,2.322,1,,,,,,0.39756429,-0.407000814,1,0,0,2.3217,Pumice_rect,15,0,15,0,1,
663287eff8f3dda45d8a2125,TCN,2024-06-25_12h47.14.954,LearnStrategy,2023.2.3,Linux x86_64,59.88023952,7,1,1,0.002257243,0.009488281,1,0,0,1.3459,rock_grid_rect_2,1,09,-1,-1,1.346,-0.367731689,-0.240910319,1,0,0,4.5854,Andesite_rect,1,4.585,1,0,0,0,0,1,,,,,,,,,,,,,
663287eff8f3dda45d8a2125,TCN,2024-06-25_12h47.14.954,LearnStrategy,2023.2.3,Linux x86_64,59.88023952,7,1,2,0.017370199,-0.000513509,1,0,0,1.1989,rock_grid_rect_2,6,13,-1,-1,1.199,0.393518229,-0.247139974,1,0,0,7.6013,Gabbro_rect,4,7.601,0,1,0,1,0,1,,,,,,,,,,,,,
663287eff8f3dda45d8a2125,TCN,2024-06-25_12h47.14.954,LearnStrategy,2023.2.3,Linux x86_64,59.88023952,7,1,3,0.02706307,-0.005831462,1,0,0,1.1182,rock_grid_rect_2,5,06,-1,-1,1.118,-0.434742228,-0.418092122,1,0,0,1.3275,Obsidian_rect,5,1.328,1,2,0,2,0,1,,,,,,,,,,,,,
663287eff8f3dda45d8a2125,TCN,2024-06-25_12h47.14.954,LearnStrategy,2023.2.3,Linux x86_64,59.88023952,7,1,4,0.028908203,0.015310669,1,0,0,0.914,rock_grid_rect_2,3,08,-1,-1,0.914,0.138644287,-0.395358398,1,0,0,4.8219,Peridotite_rect,7,4.822,0,3,0,3,0,1,,,,,,,,,,,,,
663287eff8f3dda45d8a2125,TCN,2024-06-25_12h47.14.954,LearnStrategy,2023.2.3,Linux x86_64,59.88023952,7,1,5,0.01615804,0.006907593,1,0,0,1.1157,rock_grid_rect_2,2,14,-1,-1,1.116,0.395024495,-0.247177409,1,0,0,2.9472,Gabbro_rect,4,2.947,0,4,0,4,0,1,,,,,,,,,,,,,
663287eff8f3dda45d8a2125,TCN,2024-06-25_12h47.14.954,LearnStrategy,2023.2.3,Linux x86_64,59.88023952,7,1,6,0.085440186,0.00342806,1,0,0,0.9292,rock_grid_rect_2,8,03,-1,-1,0.929,0.330493083,-0.400937988,1,0,0,1.2983,Pumice_rect,8,1.298,1,5,0,5,0,1,,,,,,,,,,,,,
663287eff8f3dda45d8a2125,TCN,2024-06-25_12h47.14.954,LearnStrategy,2023.2.3,Linux x86_64,59.88023952,7,1,7,-0.002777018,0.014098551,1,0,0,0.9471,rock_grid_rect_2,4,16,-1,-1,0.947,0.351455485,-0.262576253,1,0,0,2.9557,Gabbro_rect,4,2.956,1,6,0,6,0,1,,,,,,,,,,,,,
663287eff8f3dda45d8a2125,TCN,2024-06-25_12h47.14.954,LearnStrategy,2023.2.3,Linux x86_64,59.88023952,7,1,8,0.033676595,-0.016880046,1,0,0,1.2611,rock_grid_rect_2,7,10,-1,-1,1.261,0.115052572,-0.253395508,1,0,0,14.2186,Diorite_rect,3,14.219,0,7,0,7,0,1,,,,,,,,,,,,,
663287eff8f3dda45d8a2125,TCN,2024-06-25_12h47.14.954,LearnStrategy,2023.2.3,Linux x86_64,59.88023952,7,1,9,0.089108398,0.011753092,1,0,0,1.2124,rock_grid_rect_2,6,15,-1,-1,1.212,-0.13196106,-0.386688314,1,0,0,11.8164,Pegmatite_rect,6,11.816,1,8,0,8,0,1,,,,,,,,,,,,,
663287eff8f3dda45d8a2125,TCN,2024-06-25_12h47.14.954,LearnStrategy,2023.2.3,Linux x86_64,59.88023952,7,1,10,0.030714274,0.009516642,1,0,0,0.7627,rock_grid_rect_2,4,15,-1,-1,0.763,0.128266764,-0.269006022,1,0,0,9.117,Diorite_rect,3,9.117,0,9,0,9,0,1,,,,,,,,,,,,,
663287eff8f3dda45d8a2125,TCN,2024-06-25_12h47.14.954,LearnStrategy,2023.2.3,Linux x86_64,59.88023952,7,1,11,0.069490967,-0.001524618,1,0,0,1.1951,rock_grid_rect_2,3,11,-1,-1,1.195,-0.154388062,-0.392273356,1,0,0,9.0979,Pegmatite_rect,6,9.098,0,10,0,10,0,1,,,,,,,,,,,,,
663287eff8f3dda45d8a2125,TCN,2024-06-25_12h47.14.954,LearnStrategy,2023.2.3,Linux x86_64,59.88023952,7,1,12,0.10577002,0.013560018,1,0,0,0.7961,rock_grid_rect_2,5,09,-1,-1,0.796,-0.405003418,-0.420690186,1,0,0,1.5493,Obsidian_rect,5,1.549,1,11,0,11,0,1,,,,,,,,,,,,,
663287eff8f3dda45d8a2125,TCN,2024-06-25_12h47.14.954,LearnStrategy,2023.2.3,Linux x86_64,59.88023952,7,1,13,0.019313314,-0.006830607,1,0,0,1.1131,rock_grid_rect_2,1,07,-1,-1,1.113,-0.0762146,-0.401006185,1,0,0,13.3215,Pegmatite_rect,6,13.322,0,12,0,12,0,1,,,,,,,,,,,,,
663287eff8f3dda45d8a2125,TCN,2024-06-25_12h47.14.954,LearnStrategy,2023.2.3,Linux x86_64,59.88023952,7,1,14,-0.02040861,-0.010830078,1,0,0,0.8956,rock_grid_rect_2,2,09,-1,-1,0.896,-0.170309245,-0.252136882,1,0,0,2.1465,Basalt_rect,2,2.147,1,13,0,13,0,1,,,,,,,,,,,,,
663287eff8f3dda45d8a2125,TCN,2024-06-25_12h47.14.954,LearnStrategy,2023.2.3,Linux x86_64,59.88023952,7,1,15,-0.023701009,0.014480184,1,0,0,0.8959,rock_grid_rect_2,8,06,-1,-1,0.896,0.388654704,-0.417762777,1,0,0,1.2031,Pumice_rect,8,1.203,1,14,0,14,0,1,,,,,,,,,,,,,
663287eff8f3dda45d8a2125,TCN,2024-06-25_12h47.14.954,LearnStrategy,2023.2.3,Linux x86_64,59.88023952,7,1,16,0.048625651,-0.007230876,1,0,0,1.0628,rock_grid_rect_2,7,15,-1,-1,1.063,0.138731771,-0.404113281,1,0,0,7.4829,Peridotite_rect,7,7.483,1,15,0,15,0,1,,,,,,,,,,,,,
663287eff8f3dda45d8a2125,TCN,2024-06-25_12h47.14.954,LearnStrategy,2023.2.3,Linux x86_64,59.88023952,7,2,1,,,,,,,,5,08,,,,,,,,,,,5,1.634,1,,,,,,-0.368948893,-0.390563558,1,0,0,1.6343,Obsidian_rect,0,0,0,0,1,
663287eff8f3dda45d8a2125,TCN,2024-06-25_12h47.14.954,LearnStrategy,2023.2.3,Linux x86_64,59.88023952,7,2,2,,,,,,,,1,03,,,,,,,,,,,2,11.14,0,,,,,,-0.140673869,-0.243614746,1,0,0,11.1403,Basalt_rect,1,0,1,0,1,
663287eff8f3dda45d8a2125,TCN,2024-06-25_12h47.14.954,LearnStrategy,2023.2.3,Linux x86_64,59.88023952,7,2,3,,,,,,,,3,07,,,,,,,,,,,3,17.667,1,,,,,,0.07180013,-0.261101562,1,0,0,17.6671,Diorite_rect,2,0,2,0,1,
663287eff8f3dda45d8a2125,TCN,2024-06-25_12h47.14.954,LearnStrategy,2023.2.3,Linux x86_64,59.88023952,7,2,4,,,,,,,,1,05,,,,,,,,,,,1,4.932,1,,,,,,-0.410723145,-0.261930257,1,0,0,4.9322,Andesite_rect,3,0,3,0,1,
663287eff8f3dda45d8a2125,TCN,2024-06-25_12h47.14.954,LearnStrategy,2023.2.3,Linux x86_64,59.88023952,7,2,5,,,,,,,,7,14,,,,,,,,,,,3,20.811,0,,,,,,0.149505941,-0.258401774,1,0,0,20.8107,Diorite_rect,4,0,4,0,1,
663287eff8f3dda45d8a2125,TCN,2024-06-25_12h47.14.954,LearnStrategy,2023.2.3,Linux x86_64,59.88023952,7,2,6,,,,,,,,4,05,,,,,,,,,,,7,14.194,0,,,,,,0.146123454,-0.394385173,1,0,0,14.1941,Peridotite_rect,5,0,5,0,1,
663287eff8f3dda45d8a2125,TCN,2024-06-25_12h47.14.954,LearnStrategy,2023.2.3,Linux x86_64,59.88023952,7,2,7,,,,,,,,3,14,,,,,,,,,,,1,2.543,0,,,,,,-0.397061768,-0.245251628,1,0,0,2.5432,Andesite_rect,6,0,6,0,1,
663287eff8f3dda45d8a2125,TCN,2024-06-25_12h47.14.954,LearnStrategy,2023.2.3,Linux x86_64,59.88023952,7,2,8,,,,,,,,5,12,,,,,,,,,,,5,1.093,1,,,,,,-0.378384155,-0.399809896,1,0,0,1.0933,Obsidian_rect,7,0,7,0,1,
663287eff8f3dda45d8a2125,TCN,2024-06-25_12h47.14.954,LearnStrategy,2023.2.3,Linux x86_64,59.88023952,7,2,9,,,,,,,,6,03,,,,,,,,,,,6,10.234,1,,,,,,-0.093112223,-0.40515861,1,0,0,10.2342,Pegmatite_rect,8,0,8,0,1,
663287eff8f3dda45d8a2125,TCN,2024-06-25_12h47.14.954,LearnStrategy,2023.2.3,Linux x86_64,59.88023952,7,2,10,,,,,,,,2,05,,,,,,,,,,,2,1.182,1,,,,,,-0.142897135,-0.228470947,1,0,0,1.1819,Basalt_rect,9,0,9,0,1,
663287eff8f3dda45d8a2125,TCN,2024-06-25_12h47.14.954,LearnStrategy,2023.2.3,Linux x86_64,59.88023952,7,2,11,,,,,,,,8,05,,,,,,,,,,,8,1.22,1,,,,,,0.329226156,-0.415439779,1,0,0,1.2199,Pumice_rect,10,0,10,0,1,
663287eff8f3dda45d8a2125,TCN,2024-06-25_12h47.14.954,LearnStrategy,2023.2.3,Linux x86_64,59.88023952,7,2,12,,,,,,,,6,11,,,,,,,,,,,5,3.349,0,,,,,,-0.369221517,-0.401259277,1,0,0,3.3487,Obsidian_rect,11,0,11,0,1,
663287eff8f3dda45d8a2125,TCN,2024-06-25_12h47.14.954,LearnStrategy,2023.2.3,Linux x86_64,59.88023952,7,2,13,,,,,,,,8,02,,,,,,,,,,,8,1.348,1,,,,,,0.369051514,-0.420303467,1,0,0,1.348,Pumice_rect,12,0,12,0,1,
663287eff8f3dda45d8a2125,TCN,2024-06-25_12h47.14.954,LearnStrategy,2023.2.3,Linux x86_64,59.88023952,7,2,14,,,,,,,,2,16,,,,,,,,,,,4,2.231,0,,,,,,0.388786947,-0.242961995,1,0,0,2.2314,Gabbro_rect,13,0,13,0,1,
663287eff8f3dda45d8a2125,TCN,2024-06-25_12h47.14.954,LearnStrategy,2023.2.3,Linux x86_64,59.88023952,7,2,15,,,,,,,,7,16,,,,,,,,,,,2,16.628,0,,,,,,-0.126301921,-0.234302165,1,0,0,16.6284,Basalt_rect,14,0,14,0,1,
663287eff8f3dda45d8a2125,TCN,2024-06-25_12h47.14.954,LearnStrategy,2023.2.3,Linux x86_64,59.88023952,7,2,16,,,,,,,,4,08,,,,,,,,,,,4,2.068,1,,,,,,0.388974609,-0.247050049,1,0,0,2.0682,Gabbro_rect,15,0,15,0,1,
663287eff8f3dda45d8a2125,TCN,2024-06-25_12h47.14.954,LearnStrategy,2023.2.3,Linux x86_64,59.88023952,8,1,1,0.047794271,0.011244507,1,0,0,1.1804,rock_grid_rect_2,5,02,-1,-1,1.18,-0.363021973,-0.410145264,1,0,0,1.1216,Obsidian_rect,5,1.122,1,0,0,0,0,1,,,,,,,,,,,,,
663287eff8f3dda45d8a2125,TCN,2024-06-25_12h47.14.954,LearnStrategy,2023.2.3,Linux x86_64,59.88023952,8,1,2,0.063420329,0.003767944,1,0,0,1.0967,rock_grid_rect_2,7,13,-1,-1,1.097,0.156505941,-0.242995117,1,0,0,31.164,Diorite_rect,3,31.164,0,1,0,1,0,1,,,,,,,,,,,,,
663287eff8f3dda45d8a2125,TCN,2024-06-25_12h47.14.954,LearnStrategy,2023.2.3,Linux x86_64,59.88023952,8,1,3,0.060967692,0.005134033,1,0,0,1.2269,rock_grid_rect_2,2,02,-1,-1,1.227,-0.092081543,-0.244518962,1,0,0,1.4181,Basalt_rect,2,1.418,1,2,0,2,0,1,,,,,,,,,,,,,
663287eff8f3dda45d8a2125,TCN,2024-06-25_12h47.14.954,LearnStrategy,2023.2.3,Linux x86_64,59.88023952,8,1,4,0.061356934,0.017012939,1,0,0,0.8134,rock_grid_rect_2,1,10,-1,-1,0.813,-0.385644287,-0.231134766,1,0,0,5.8602,Andesite_rect,1,5.86,1,3,0,3,0,1,,,,,,,,,,,,,
663287eff8f3dda45d8a2125,TCN,2024-06-25_12h47.14.954,LearnStrategy,2023.2.3,Linux x86_64,59.88023952,8,1,5,0.025383789,0.009296672,1,0,0,0.8429,rock_grid_rect_2,6,06,-1,-1,0.843,-0.156719116,-0.393673991,1,0,0,6.4917,Pegmatite_rect,6,6.492,1,4,0,4,0,1,,,,,,,,,,,,,
663287eff8f3dda45d8a2125,TCN,2024-06-25_12h47.14.954,LearnStrategy,2023.2.3,Linux x86_64,59.88023952,8,1,6,0.091504069,0.014762614,1,0,0,0.7283,rock_grid_rect_2,2,06,-1,-1,0.728,-0.103287272,-0.246374023,1,0,0,1.4547,Basalt_rect,2,1.455,1,5,0,5,0,1,,,,,,,,,,,,,
663287eff8f3dda45d8a2125,TCN,2024-06-25_12h47.14.954,LearnStrategy,2023.2.3,Linux x86_64,59.88023952,8,1,7,0.087256836,-0.011690715,1,0,0,1.0142,rock_grid_rect_2,5,14,-1,-1,1.014,-0.424758952,-0.406881185,1,0,0,1.1759,Obsidian_rect,5,1.176,1,6,0,6,0,1,,,,,,,,,,,,,
663287eff8f3dda45d8a2125,TCN,2024-06-25_12h47.14.954,LearnStrategy,2023.2.3,Linux x86_64,59.88023952,8,1,8,0.118319417,-0.024438517,1,0,0,0.8642,rock_grid_rect_2,4,13,-1,-1,0.864,0.395430908,-0.23127124,1,0,0,1.7143,Gabbro_rect,4,1.714,1,7,0,7,0,1,,,,,,,,,,,,,
663287eff8f3dda45d8a2125,TCN,2024-06-25_12h47.14.954,LearnStrategy,2023.2.3,Linux x86_64,59.88023952,8,1,9,0.071186117,0.007282552,1,0,0,0.6971,rock_grid_rect_2,3,10,-1,-1,0.697,0.107091471,-0.247972656,1,0,0,11.8722,Diorite_rect,3,11.872,1,8,0,8,0,1,,,,,,,,,,,,,
663287eff8f3dda45d8a2125,TCN,2024-06-25_12h47.14.954,LearnStrategy,2023.2.3,Linux x86_64,59.88023952,8,1,10,0.096877441,0.003052938,1,0,0,1.0114,rock_grid_rect_2,8,08,-1,-1,1.011,0.390789551,-0.384625,1,0,0,1.2565,Pumice_rect,8,1.257,1,9,0,9,0,1,,,,,,,,,,,,,
663287eff8f3dda45d8a2125,TCN,2024-06-25_12h47.14.954,LearnStrategy,2023.2.3,Linux x86_64,59.88023952,8,1,11,0.06051359,0.000340129,1,0,0,0.9626,rock_grid_rect_2,1,02,-1,-1,0.963,0.119010742,-0.2322618,1,0,0,9.7841,Diorite_rect,3,9.784,0,10,0,10,0,1,,,,,,,,,,,,,
663287eff8f3dda45d8a2125,TCN,2024-06-25_12h47.14.954,LearnStrategy,2023.2.3,Linux x86_64,59.88023952,8,1,12,0.035652995,0.00853418,1,0,0,0.8956,rock_grid_rect_2,4,03,-1,-1,0.896,-0.379339681,-0.252882161,1,0,0,11.6622,Andesite_rect,1,11.662,0,11,0,11,0,1,,,,,,,,,,,,,
663287eff8f3dda45d8a2125,TCN,2024-06-25_12h47.14.954,LearnStrategy,2023.2.3,Linux x86_64,59.88023952,8,1,13,0.137488281,0.011951457,1,0,0,1.2285,rock_grid_rect_2,3,15,-1,-1,1.229,-0.380392212,-0.267934896,1,0,0,19.3368,Andesite_rect,1,19.337,0,12,0,12,0,1,,,,,,,,,,,,,
663287eff8f3dda45d8a2125,TCN,2024-06-25_12h47.14.954,LearnStrategy,2023.2.3,Linux x86_64,59.88023952,8,1,14,0.038350911,-0.001291911,1,0,0,1.0459,rock_grid_rect_2,6,12,-1,-1,1.046,-0.354011393,-0.23081665,1,0,0,2.3371,Andesite_rect,1,2.337,0,13,0,13,0,1,,,,,,,,,,,,,
663287eff8f3dda45d8a2125,TCN,2024-06-25_12h47.14.954,LearnStrategy,2023.2.3,Linux x86_64,59.88023952,8,1,15,0.037590658,-0.016525553,1,0,0,1.0614,rock_grid_rect_2,7,02,-1,-1,1.061,0.136596842,-0.406969076,1,0,0,4.7159,Peridotite_rect,7,4.716,1,14,0,14,0,1,,,,,,,,,,,,,
663287eff8f3dda45d8a2125,TCN,2024-06-25_12h47.14.954,LearnStrategy,2023.2.3,Linux x86_64,59.88023952,8,1,16,0.050873128,0.023990234,1,0,0,0.8448,rock_grid_rect_2,8,15,-1,-1,0.845,0.374148112,-0.421109619,1,0,0,1.9102,Pumice_rect,8,1.91,1,15,0,15,0,1,,,,,,,,,,,,,
663287eff8f3dda45d8a2125,TCN,2024-06-25_12h47.14.954,LearnStrategy,2023.2.3,Linux x86_64,59.88023952,8,2,1,,,,,,,,7,07,,,,,,,,,,,3,5.427,0,,,,,,0.136559408,-0.237227214,1,0,0,5.4271,Diorite_rect,0,0,0,0,1,
663287eff8f3dda45d8a2125,TCN,2024-06-25_12h47.14.954,LearnStrategy,2023.2.3,Linux x86_64,59.88023952,8,2,2,,,,,,,,8,04,,,,,,,,,,,8,1.168,1,,,,,,0.414673014,-0.405075277,1,0,0,1.168,Pumice_rect,1,0,1,0,1,
663287eff8f3dda45d8a2125,TCN,2024-06-25_12h47.14.954,LearnStrategy,2023.2.3,Linux x86_64,59.88023952,8,2,3,,,,,,,,3,16,,,,,,,,,,,1,11.415,0,,,,,,-0.361886597,-0.240009766,1,0,0,11.4152,Andesite_rect,2,0,2,0,1,
663287eff8f3dda45d8a2125,TCN,2024-06-25_12h47.14.954,LearnStrategy,2023.2.3,Linux x86_64,59.88023952,8,2,4,,,,,,,,4,12,,,,,,,,,,,2,7.079,0,,,,,,-0.108007161,-0.24132373,1,0,0,7.0791,Basalt_rect,3,0,3,0,1,
663287eff8f3dda45d8a2125,TCN,2024-06-25_12h47.14.954,LearnStrategy,2023.2.3,Linux x86_64,59.88023952,8,2,5,,,,,,,,8,09,,,,,,,,,,,8,1.218,1,,,,,,0.367260254,-0.398411947,1,0,0,1.2178,Pumice_rect,4,0,4,0,1,
663287eff8f3dda45d8a2125,TCN,2024-06-25_12h47.14.954,LearnStrategy,2023.2.3,Linux x86_64,59.88023952,8,2,6,,,,,,,,4,14,,,,,,,,,,,4,2.991,1,,,,,,0.385657471,-0.253817627,1,0,0,2.9909,Gabbro_rect,5,0,5,0,1,
663287eff8f3dda45d8a2125,TCN,2024-06-25_12h47.14.954,LearnStrategy,2023.2.3,Linux x86_64,59.88023952,8,2,7,,,,,,,,7,05,,,,,,,,,,,7,6.849,1,,,,,,0.164469564,-0.399464844,1,0,0,6.8489,Peridotite_rect,6,0,6,0,1,
663287eff8f3dda45d8a2125,TCN,2024-06-25_12h47.14.954,LearnStrategy,2023.2.3,Linux x86_64,59.88023952,8,2,8,,,,,,,,5,07,,,,,,,,,,,5,1.148,1,,,,,,-0.369140869,-0.397401449,1,0,0,1.1484,Obsidian_rect,7,0,7,0,1,
663287eff8f3dda45d8a2125,TCN,2024-06-25_12h47.14.954,LearnStrategy,2023.2.3,Linux x86_64,59.88023952,8,2,9,,,,,,,,6,07,,,,,,,,,,,5,1.142,0,,,,,,-0.365641846,-0.39681901,1,0,0,1.1418,Obsidian_rect,8,0,8,0,1,
663287eff8f3dda45d8a2125,TCN,2024-06-25_12h47.14.954,LearnStrategy,2023.2.3,Linux x86_64,59.88023952,8,2,10,,,,,,,,5,05,,,,,,,,,,,5,0.948,1,,,,,,-0.365641846,-0.39681901,1,0,0,0.9477,Obsidian_rect,9,0,9,0,1,
663287eff8f3dda45d8a2125,TCN,2024-06-25_12h47.14.954,LearnStrategy,2023.2.3,Linux x86_64,59.88023952,8,2,11,,,,,,,,2,04,,,,,,,,,,,2,1.095,1,,,,,,-0.120550171,-0.252066081,1,0,0,1.0947,Basalt_rect,10,0,10,0,1,
663287eff8f3dda45d8a2125,TCN,2024-06-25_12h47.14.954,LearnStrategy,2023.2.3,Linux x86_64,59.88023952,8,2,12,,,,,,,,3,09,,,,,,,,,,,1,9.99,0,,,,,,-0.372945882,-0.25828418,1,0,0,9.9901,Andesite_rect,11,0,11,0,1,
663287eff8f3dda45d8a2125,TCN,2024-06-25_12h47.14.954,LearnStrategy,2023.2.3,Linux x86_64,59.88023952,8,2,13,,,,,,,,6,16,,,,,,,,,,,6,5.686,1,,,,,,-0.139075521,-0.390960205,1,0,0,5.6855,Pegmatite_rect,12,0,12,0,1,
663287eff8f3dda45d8a2125,TCN,2024-06-25_12h47.14.954,LearnStrategy,2023.2.3,Linux x86_64,59.88023952,8,2,14,,,,,,,,1,04,,,,,,,,,,,4,7.379,0,,,,,,0.442834066,-0.232526693,1,0,0,7.3792,Gabbro_rect,13,0,13,0,1,
663287eff8f3dda45d8a2125,TCN,2024-06-25_12h47.14.954,LearnStrategy,2023.2.3,Linux x86_64,59.88023952,8,2,15,,,,,,,,1,14,,,,,,,,,,,1,8.2,1,,,,,,-0.353761759,-0.250670492,1,0,0,8.2001,Andesite_rect,14,0,14,0,1,
663287eff8f3dda45d8a2125,TCN,2024-06-25_12h47.14.954,LearnStrategy,2023.2.3,Linux x86_64,59.88023952,8,2,16,,,,,,,,2,10,,,,,,,,,,,4,3.636,0,,,,,,0.343732829,-0.264174398,1,0,0,3.6363,Gabbro_rect,15,0,15,0,1,
663287eff8f3dda45d8a2125,TCN,2024-06-25_12h47.14.954,LearnStrategy,2023.2.3,Linux x86_64,59.88023952,9,1,1,-0.058686849,-0.007059163,1,0,0,1.0974,rock_grid_rect_2,7,12,-1,-1,1.097,0.126846191,-0.398874919,1,0,0,18.2001,Peridotite_rect,7,18.2,1,0,0,0,0,1,,,,,,,,,,,,,
663287eff8f3dda45d8a2125,TCN,2024-06-25_12h47.14.954,LearnStrategy,2023.2.3,Linux x86_64,59.88023952,9,1,2,0.105561035,0.005091187,1,0,0,0.9626,rock_grid_rect_2,7,08,-1,-1,0.963,0.116476156,-0.413378906,1,0,0,3.2934,Peridotite_rect,7,3.293,1,1,0,1,0,1,,,,,,,,,,,,,
663287eff8f3dda45d8a2125,TCN,2024-06-25_12h47.14.954,LearnStrategy,2023.2.3,Linux x86_64,59.88023952,9,1,3,0.072700602,-0.006000977,1,0,0,0.9458,rock_grid_rect_2,6,10,-1,-1,0.946,0.092659912,-0.396389079,1,0,0,1.4105,Peridotite_rect,7,1.41,0,2,0,2,0,1,,,,,,,,,,,,,
663287eff8f3dda45d8a2125,TCN,2024-06-25_12h47.14.954,LearnStrategy,2023.2.3,Linux x86_64,59.88023952,9,1,4,0.062729085,0.004634033,1,0,0,1.7503,rock_grid_rect_2,5,16,-1,-1,1.75,-0.434585327,-0.394900309,1,0,0,1.4004,Obsidian_rect,5,1.4,1,3,0,3,0,1,,,,,,,,,,,,,
663287eff8f3dda45d8a2125,TCN,2024-06-25_12h47.14.954,LearnStrategy,2023.2.3,Linux x86_64,59.88023952,9,1,5,0.016462972,-0.010086629,1,0,0,0.9135,rock_grid_rect_2,3,12,-1,-1,0.914,0.12548291,-0.236342122,1,0,0,10.0834,Diorite_rect,3,10.083,1,4,0,4,0,1,,,,,,,,,,,,,
663287eff8f3dda45d8a2125,TCN,2024-06-25_12h47.14.954,LearnStrategy,2023.2.3,Linux x86_64,59.88023952,9,1,6,0.070454508,-0.010717122,1,0,0,0.8782,rock_grid_rect_2,3,06,-1,-1,0.878,-0.463410217,-0.243239339,1,0,0,4.3844,Andesite_rect,1,4.384,0,5,0,5,0,1,,,,,,,,,,,,,
663287eff8f3dda45d8a2125,TCN,2024-06-25_12h47.14.954,LearnStrategy,2023.2.3,Linux x86_64,59.88023952,9,1,7,0.04890861,0.004859212,1,0,0,0.8456,rock_grid_rect_2,4,01,-1,-1,0.846,-0.411794108,-0.245616862,1,0,0,3.1823,Andesite_rect,1,3.182,0,6,0,6,0,1,,,,,,,,,,,,,
663287eff8f3dda45d8a2125,TCN,2024-06-25_12h47.14.954,LearnStrategy,2023.2.3,Linux x86_64,59.88023952,9,1,8,0.154656576,-0.000911011,1,0,0,1.1106,rock_grid_rect_2,5,11,-1,-1,1.111,-0.394622721,-0.392813395,1,0,0,1.0996,Obsidian_rect,5,1.1,1,7,0,7,0,1,,,,,,,,,,,,,
663287eff8f3dda45d8a2125,TCN,2024-06-25_12h47.14.954,LearnStrategy,2023.2.3,Linux x86_64,59.88023952,9,1,9,0.064078695,0.005068115,1,0,0,0.7968,rock_grid_rect_2,4,10,-1,-1,0.797,0.445454427,-0.258210124,1,0,0,13.343,Gabbro_rect,4,13.343,1,8,0,8,0,1,,,,,,,,,,,,,
663287eff8f3dda45d8a2125,TCN,2024-06-25_12h47.14.954,LearnStrategy,2023.2.3,Linux x86_64,59.88023952,9,1,10,-0.015707031,-0.009993164,1,0,0,1.3953,rock_grid_rect_2,1,16,-1,-1,1.395,-0.386259196,-0.233053141,1,0,0,3.6455,Andesite_rect,1,3.646,1,9,0,9,0,1,,,,,,,,,,,,,
663287eff8f3dda45d8a2125,TCN,2024-06-25_12h47.14.954,LearnStrategy,2023.2.3,Linux x86_64,59.88023952,9,1,11,0.028969076,-0.002648071,1,0,0,1.0122,rock_grid_rect_2,2,12,-1,-1,1.012,-0.081922038,-0.251817627,1,0,0,4.4508,Basalt_rect,2,4.451,1,10,0,10,0,1,,,,,,,,,,,,,
663287eff8f3dda45d8a2125,TCN,2024-06-25_12h47.14.954,LearnStrategy,2023.2.3,Linux x86_64,59.88023952,9,1,12,0.059479085,0.004813151,1,0,0,0.9277,rock_grid_rect_2,8,14,-1,-1,0.928,0.330711589,-0.384516683,1,0,0,1.1338,Pumice_rect,8,1.134,1,11,0,11,0,1,,,,,,,,,,,,,
663287eff8f3dda45d8a2125,TCN,2024-06-25_12h47.14.954,LearnStrategy,2023.2.3,Linux x86_64,59.88023952,9,1,13,0.040185221,0.01036613,1,0,0,0.8475,rock_grid_rect_2,2,11,-1,-1,0.847,0.403332845,-0.257460449,1,0,0,7.1662,Gabbro_rect,4,7.166,0,12,0,12,0,1,,,,,,,,,,,,,
663287eff8f3dda45d8a2125,TCN,2024-06-25_12h47.14.954,LearnStrategy,2023.2.3,Linux x86_64,59.88023952,9,1,14,0.019069743,-0.012041667,1,0,0,0.7445,rock_grid_rect_2,1,06,-1,-1,0.745,-0.404977987,-0.228166748,1,0,0,5.6121,Andesite_rect,1,5.612,1,13,0,13,0,1,,,,,,,,,,,,,
663287eff8f3dda45d8a2125,TCN,2024-06-25_12h47.14.954,LearnStrategy,2023.2.3,Linux x86_64,59.88023952,9,1,15,0.045166585,0.012629395,1,0,0,0.8783,rock_grid_rect_2,8,13,-1,-1,0.878,0.401469076,-0.383068034,1,0,0,3.0753,Pumice_rect,8,3.075,1,14,0,14,0,1,,,,,,,,,,,,,
663287eff8f3dda45d8a2125,TCN,2024-06-25_12h47.14.954,LearnStrategy,2023.2.3,Linux x86_64,59.88023952,9,1,16,0.014254557,-0.011506917,1,0,0,0.9945,rock_grid_rect_2,6,08,-1,-1,0.995,-0.336143026,-0.408227132,1,0,0,9.0851,Obsidian_rect,5,9.085,0,15,0,15,0,1,,,,,,,,,,,,,
663287eff8f3dda45d8a2125,TCN,2024-06-25_12h47.14.954,LearnStrategy,2023.2.3,Linux x86_64,59.88023952,9,2,1,,,,,,,,6,05,,,,,,,,,,,6,2.116,1,,,,,,-0.147872681,-0.408407389,1,0,0,2.1157,Pegmatite_rect,0,0,0,0,1,
663287eff8f3dda45d8a2125,TCN,2024-06-25_12h47.14.954,LearnStrategy,2023.2.3,Linux x86_64,59.88023952,9,2,2,,,,,,,,1,11,,,,,,,,,,,4,8.767,0,,,,,,0.479161133,-0.259577311,1,0,0,8.7674,Gabbro_rect,1,0,1,0,1,
663287eff8f3dda45d8a2125,TCN,2024-06-25_12h47.14.954,LearnStrategy,2023.2.3,Linux x86_64,59.88023952,9,2,3,,,,,,,,1,01,,,,,,,,,,,1,18.421,1,,,,,,-0.366912638,-0.252078939,1,0,0,18.4206,Andesite_rect,2,0,2,0,1,
663287eff8f3dda45d8a2125,TCN,2024-06-25_12h47.14.954,LearnStrategy,2023.2.3,Linux x86_64,59.88023952,9,2,4,,,,,,,,2,01,,,,,,,,,,,2,1.19,1,,,,,,-0.127352743,-0.271942546,1,0,0,1.19,Basalt_rect,3,0,3,0,1,
663287eff8f3dda45d8a2125,TCN,2024-06-25_12h47.14.954,LearnStrategy,2023.2.3,Linux x86_64,59.88023952,9,2,5,,,,,,,,8,16,,,,,,,,,,,8,2.449,1,,,,,,0.388231771,-0.381462891,1,0,0,2.4495,Pumice_rect,4,0,4,0,1,
663287eff8f3dda45d8a2125,TCN,2024-06-25_12h47.14.954,LearnStrategy,2023.2.3,Linux x86_64,59.88023952,9,2,6,,,,,,,,5,04,,,,,,,,,,,5,1.136,1,,,,,,-0.459618001,-0.39441333,1,0,0,1.1357,Obsidian_rect,5,0,5,0,1,
663287eff8f3dda45d8a2125,TCN,2024-06-25_12h47.14.954,LearnStrategy,2023.2.3,Linux x86_64,59.88023952,9,2,7,,,,,,,,6,09,,,,,,,,,,,7,1.332,0,,,,,,0.120947998,-0.40142985,1,0,0,1.3321,Peridotite_rect,6,0,6,0,1,
663287eff8f3dda45d8a2125,TCN,2024-06-25_12h47.14.954,LearnStrategy,2023.2.3,Linux x86_64,59.88023952,9,2,8,,,,,,,,2,08,,,,,,,,,,,2,2.338,1,,,,,,-0.155656128,-0.240141846,1,0,0,2.338,Basalt_rect,7,0,7,0,1,
663287eff8f3dda45d8a2125,TCN,2024-06-25_12h47.14.954,LearnStrategy,2023.2.3,Linux x86_64,59.88023952,9,2,9,,,,,,,,4,11,,,,,,,,,,,4,16.052,1,,,,,,0.420552083,-0.255632812,1,0,0,16.0525,Gabbro_rect,8,0,8,0,1,
663287eff8f3dda45d8a2125,TCN,2024-06-25_12h47.14.954,LearnStrategy,2023.2.3,Linux x86_64,59.88023952,9,2,10,,,,,,,,4,09,,,,,,,,,,,4,12.735,1,,,,,,0.420241618,-0.259274414,1,0,0,12.7349,Gabbro_rect,9,0,9,0,1,
663287eff8f3dda45d8a2125,TCN,2024-06-25_12h47.14.954,LearnStrategy,2023.2.3,Linux x86_64,59.88023952,9,2,11,,,,,,,,8,10,,,,,,,,,,,8,1.047,1,,,,,,0.396195964,-0.386880371,1,0,0,1.0469,Pumice_rect,10,0,10,0,1,
663287eff8f3dda45d8a2125,TCN,2024-06-25_12h47.14.954,LearnStrategy,2023.2.3,Linux x86_64,59.88023952,9,2,12,,,,,,,,3,02,,,,,,,,,,,3,3.142,1,,,,,,0.134167643,-0.25097998,1,0,0,3.1416,Diorite_rect,11,0,11,0,1,
663287eff8f3dda45d8a2125,TCN,2024-06-25_12h47.14.954,LearnStrategy,2023.2.3,Linux x86_64,59.88023952,9,2,13,,,,,,,,7,04,,,,,,,,,,,7,8.466,1,,,,,,0.132707845,-0.384264242,1,0,0,8.4658,Peridotite_rect,12,0,12,0,1,
663287eff8f3dda45d8a2125,TCN,2024-06-25_12h47.14.954,LearnStrategy,2023.2.3,Linux x86_64,59.88023952,9,2,14,,,,,,,,7,06,,,,,,,,,,,7,1.432,1,,,,,,0.132707845,-0.384264242,1,0,0,1.4316,Peridotite_rect,13,0,13,0,1,
663287eff8f3dda45d8a2125,TCN,2024-06-25_12h47.14.954,LearnStrategy,2023.2.3,Linux x86_64,59.88023952,9,2,15,,,,,,,,5,10,,,,,,,,,,,5,1.984,1,,,,,,-0.441404948,-0.384596273,1,0,0,1.9839,Obsidian_rect,14,0,14,0,1,
663287eff8f3dda45d8a2125,TCN,2024-06-25_12h47.14.954,LearnStrategy,2023.2.3,Linux x86_64,59.88023952,9,2,16,,,,,,,,3,13,,,,,,,,,,,3,3.679,1,,,,,,0.105643717,-0.257355632,1,0,0,3.6793,Diorite_rect,15,0,15,0,1,
663287eff8f3dda45d8a2125,TCN,2024-06-25_12h47.14.954,LearnStrategy,2023.2.3,Linux x86_64,59.88023952,,,,,,,,,,,,,,,,,,,,,,,,,,,,,,,,,,,,,,,,,,,1
663287eff8f3dda45d8a2125,TCN,2024-06-25_12h47.14.954,LearnStrategy,2023.2.3,Linux x86_64,59.88023952,,,,,,,,,,,,,,,,,,,,,,,,,,,,,,,,,,,,,,,,,,,
663287eff8f3dda45d8a2125,TCN,2024-06-25_12h47.14.954,LearnStrategy,2023.2.3,Linux x86_64,59.88023952,,,,,,,,,,,1,10,1,1,,,,,,,,,,,,,,,,,,,,,,,,,,,,,
663287eff8f3dda45d8a2125,TCN,2024-06-25_12h47.14.954,LearnStrategy,2023.2.3,Linux x86_64,59.88023952,,,,,,,,,,,2,06,1,2,,,,,,,,,,,,,,,,,,,,,,,,,,,,,
663287eff8f3dda45d8a2125,TCN,2024-06-25_12h47.14.954,LearnStrategy,2023.2.3,Linux x86_64,59.88023952,,,,,,,,,,,5,06,1,3,,,,,,,,,,,,,,,,,,,,,,,,,,,,,
663287eff8f3dda45d8a2125,TCN,2024-06-25_12h47.14.954,LearnStrategy,2023.2.3,Linux x86_64,59.88023952,,,,,,,,,,,5,11,1,4,,,,,,,,,,,,,,,,,,,,,,,,,,,,,
663287eff8f3dda45d8a2125,TCN,2024-06-25_12h47.14.954,LearnStrategy,2023.2.3,Linux x86_64,59.88023952,,,,,,,,,,,1,07,1,5,,,,,,,,,,,,,,,,,,,,,,,,,,,,,
663287eff8f3dda45d8a2125,TCN,2024-06-25_12h47.14.954,LearnStrategy,2023.2.3,Linux x86_64,59.88023952,,,,,,,,,,,1,02,1,6,,,,,,,,,,,,,,,,,,,,,,,,,,,,,
663287eff8f3dda45d8a2125,TCN,2024-06-25_12h47.14.954,LearnStrategy,2023.2.3,Linux x86_64,59.88023952,,,,,,,,,,,4,15,1,7,,,,,,,,,,,,,,,,,,,,,,,,,,,,,
663287eff8f3dda45d8a2125,TCN,2024-06-25_12h47.14.954,LearnStrategy,2023.2.3,Linux x86_64,59.88023952,,,,,,,,,,,1,06,1,8,,,,,,,,,,,,,,,,,,,,,,,,,,,,,
663287eff8f3dda45d8a2125,TCN,2024-06-25_12h47.14.954,LearnStrategy,2023.2.3,Linux x86_64,59.88023952,,,,,,,,,,,7,08,2,1,,,,,,,,,,,,,,,,,,,,,,,,,,,,,
663287eff8f3dda45d8a2125,TCN,2024-06-25_12h47.14.954,LearnStrategy,2023.2.3,Linux x86_64,59.88023952,,,,,,,,,,,2,11,2,2,,,,,,,,,,,,,,,,,,,,,,,,,,,,,
663287eff8f3dda45d8a2125,TCN,2024-06-25_12h47.14.954,LearnStrategy,2023.2.3,Linux x86_64,59.88023952,,,,,,,,,,,7,12,2,3,,,,,,,,,,,,,,,,,,,,,,,,,,,,,
663287eff8f3dda45d8a2125,TCN,2024-06-25_12h47.14.954,LearnStrategy,2023.2.3,Linux x86_64,59.88023952,,,,,,,,,,,3,11,2,4,,,,,,,,,,,,,,,,,,,,,,,,,,,,,
663287eff8f3dda45d8a2125,TCN,2024-06-25_12h47.14.954,LearnStrategy,2023.2.3,Linux x86_64,59.88023952,,,,,,,,,,,1,16,2,5,,,,,,,,,,,,,,,,,,,,,,,,,,,,,
663287eff8f3dda45d8a2125,TCN,2024-06-25_12h47.14.954,LearnStrategy,2023.2.3,Linux x86_64,59.88023952,,,,,,,,,,,7,15,2,6,,,,,,,,,,,,,,,,,,,,,,,,,,,,,
663287eff8f3dda45d8a2125,TCN,2024-06-25_12h47.14.954,LearnStrategy,2023.2.3,Linux x86_64,59.88023952,,,,,,,,,,,6,12,2,7,,,,,,,,,,,,,,,,,,,,,,,,,,,,,
663287eff8f3dda45d8a2125,TCN,2024-06-25_12h47.14.954,LearnStrategy,2023.2.3,Linux x86_64,59.88023952,,,,,,,,,,,3,10,2,8,,,,,,,,,,,,,,,,,,,,,,,,,,,,,
663287eff8f3dda45d8a2125,TCN,2024-06-25_12h47.14.954,LearnStrategy,2023.2.3,Linux x86_64,59.88023952,,,,,,,,,,,6,08,3,1,,,,,,,,,,,,,,,,,,,,,,,,,,,,,
663287eff8f3dda45d8a2125,TCN,2024-06-25_12h47.14.954,LearnStrategy,2023.2.3,Linux x86_64,59.88023952,,,,,,,,,,,8,08,3,2,,,,,,,,,,,,,,,,,,,,,,,,,,,,,
663287eff8f3dda45d8a2125,TCN,2024-06-25_12h47.14.954,LearnStrategy,2023.2.3,Linux x86_64,59.88023952,,,,,,,,,,,3,06,3,3,,,,,,,,,,,,,,,,,,,,,,,,,,,,,
663287eff8f3dda45d8a2125,TCN,2024-06-25_12h47.14.954,LearnStrategy,2023.2.3,Linux x86_64,59.88023952,,,,,,,,,,,8,03,3,4,,,,,,,,,,,,,,,,,,,,,,,,,,,,,
663287eff8f3dda45d8a2125,TCN,2024-06-25_12h47.14.954,LearnStrategy,2023.2.3,Linux x86_64,59.88023952,,,,,,,,,,,6,13,3,5,,,,,,,,,,,,,,,,,,,,,,,,,,,,,
663287eff8f3dda45d8a2125,TCN,2024-06-25_12h47.14.954,LearnStrategy,2023.2.3,Linux x86_64,59.88023952,,,,,,,,,,,5,16,3,6,,,,,,,,,,,,,,,,,,,,,,,,,,,,,
663287eff8f3dda45d8a2125,TCN,2024-06-25_12h47.14.954,LearnStrategy,2023.2.3,Linux x86_64,59.88023952,,,,,,,,,,,6,10,3,7,,,,,,,,,,,,,,,,,,,,,,,,,,,,,
663287eff8f3dda45d8a2125,TCN,2024-06-25_12h47.14.954,LearnStrategy,2023.2.3,Linux x86_64,59.88023952,,,,,,,,,,,5,09,3,8,,,,,,,,,,,,,,,,,,,,,,,,,,,,,
663287eff8f3dda45d8a2125,TCN,2024-06-25_12h47.14.954,LearnStrategy,2023.2.3,Linux x86_64,59.88023952,,,,,,,,,,,7,13,4,1,,,,,,,,,,,,,,,,,,,,,,,,,,,,,
663287eff8f3dda45d8a2125,TCN,2024-06-25_12h47.14.954,LearnStrategy,2023.2.3,Linux x86_64,59.88023952,,,,,,,,,,,8,15,4,2,,,,,,,,,,,,,,,,,,,,,,,,,,,,,
663287eff8f3dda45d8a2125,TCN,2024-06-25_12h47.14.954,LearnStrategy,2023.2.3,Linux x86_64,59.88023952,,,,,,,,,,,4,03,4,3,,,,,,,,,,,,,,,,,,,,,,,,,,,,,
663287eff8f3dda45d8a2125,TCN,2024-06-25_12h47.14.954,LearnStrategy,2023.2.3,Linux x86_64,59.88023952,,,,,,,,,,,8,13,4,4,,,,,,,,,,,,,,,,,,,,,,,,,,,,,
663287eff8f3dda45d8a2125,TCN,2024-06-25_12h47.14.954,LearnStrategy,2023.2.3,Linux x86_64,59.88023952,,,,,,,,,,,5,14,4,5,,,,,,,,,,,,,,,,,,,,,,,,,,,,,
663287eff8f3dda45d8a2125,TCN,2024-06-25_12h47.14.954,LearnStrategy,2023.2.3,Linux x86_64,59.88023952,,,,,,,,,,,4,16,4,6,,,,,,,,,,,,,,,,,,,,,,,,,,,,,
663287eff8f3dda45d8a2125,TCN,2024-06-25_12h47.14.954,LearnStrategy,2023.2.3,Linux x86_64,59.88023952,,,,,,,,,,,8,06,4,7,,,,,,,,,,,,,,,,,,,,,,,,,,,,,
663287eff8f3dda45d8a2125,TCN,2024-06-25_12h47.14.954,LearnStrategy,2023.2.3,Linux x86_64,59.88023952,,,,,,,,,,,2,02,4,8,,,,,,,,,,,,,,,,,,,,,,,,,,,,,
663287eff8f3dda45d8a2125,TCN,2024-06-25_12h47.14.954,LearnStrategy,2023.2.3,Linux x86_64,59.88023952,,,,,,,,,,,6,15,5,1,,,,,,,,,,,,,,,,,,,,,,,,,,,,,
663287eff8f3dda45d8a2125,TCN,2024-06-25_12h47.14.954,LearnStrategy,2023.2.3,Linux x86_64,59.88023952,,,,,,,,,,,4,10,5,2,,,,,,,,,,,,,,,,,,,,,,,,,,,,,
663287eff8f3dda45d8a2125,TCN,2024-06-25_12h47.14.954,LearnStrategy,2023.2.3,Linux x86_64,59.88023952,,,,,,,,,,,7,02,5,3,,,,,,,,,,,,,,,,,,,,,,,,,,,,,
663287eff8f3dda45d8a2125,TCN,2024-06-25_12h47.14.954,LearnStrategy,2023.2.3,Linux x86_64,59.88023952,,,,,,,,,,,3,08,5,4,,,,,,,,,,,,,,,,,,,,,,,,,,,,,
663287eff8f3dda45d8a2125,TCN,2024-06-25_12h47.14.954,LearnStrategy,2023.2.3,Linux x86_64,59.88023952,,,,,,,,,,,2,09,5,5,,,,,,,,,,,,,,,,,,,,,,,,,,,,,
663287eff8f3dda45d8a2125,TCN,2024-06-25_12h47.14.954,LearnStrategy,2023.2.3,Linux x86_64,59.88023952,,,,,,,,,,,5,02,5,6,,,,,,,,,,,,,,,,,,,,,,,,,,,,,
663287eff8f3dda45d8a2125,TCN,2024-06-25_12h47.14.954,LearnStrategy,2023.2.3,Linux x86_64,59.88023952,,,,,,,,,,,8,14,5,7,,,,,,,,,,,,,,,,,,,,,,,,,,,,,
663287eff8f3dda45d8a2125,TCN,2024-06-25_12h47.14.954,LearnStrategy,2023.2.3,Linux x86_64,59.88023952,,,,,,,,,,,4,01,5,8,,,,,,,,,,,,,,,,,,,,,,,,,,,,,
663287eff8f3dda45d8a2125,TCN,2024-06-25_12h47.14.954,LearnStrategy,2023.2.3,Linux x86_64,59.88023952,,,,,,,,,,,6,06,6,1,,,,,,,,,,,,,,,,,,,,,,,,,,,,,
663287eff8f3dda45d8a2125,TCN,2024-06-25_12h47.14.954,LearnStrategy,2023.2.3,Linux x86_64,59.88023952,,,,,,,,,,,3,15,6,2,,,,,,,,,,,,,,,,,,,,,,,,,,,,,
663287eff8f3dda45d8a2125,TCN,2024-06-25_12h47.14.954,LearnStrategy,2023.2.3,Linux x86_64,59.88023952,,,,,,,,,,,1,09,6,3,,,,,,,,,,,,,,,,,,,,,,,,,,,,,
663287eff8f3dda45d8a2125,TCN,2024-06-25_12h47.14.954,LearnStrategy,2023.2.3,Linux x86_64,59.88023952,,,,,,,,,,,7,10,6,4,,,,,,,,,,,,,,,,,,,,,,,,,,,,,
663287eff8f3dda45d8a2125,TCN,2024-06-25_12h47.14.954,LearnStrategy,2023.2.3,Linux x86_64,59.88023952,,,,,,,,,,,3,12,6,5,,,,,,,,,,,,,,,,,,,,,,,,,,,,,
663287eff8f3dda45d8a2125,TCN,2024-06-25_12h47.14.954,LearnStrategy,2023.2.3,Linux x86_64,59.88023952,,,,,,,,,,,4,13,6,6,,,,,,,,,,,,,,,,,,,,,,,,,,,,,
663287eff8f3dda45d8a2125,TCN,2024-06-25_12h47.14.954,LearnStrategy,2023.2.3,Linux x86_64,59.88023952,,,,,,,,,,,2,12,6,7,,,,,,,,,,,,,,,,,,,,,,,,,,,,,
663287eff8f3dda45d8a2125,TCN,2024-06-25_12h47.14.954,LearnStrategy,2023.2.3,Linux x86_64,59.88023952,,,,,,,,,,,2,14,6,8,,,,,,,,,,,,,,,,,,,,,,,,,,,,,