participant,condition,date,expName,psychopyVersion,OS,frameRate,block,phase,trial,learn_mouse.x,learn_mouse.y,learn_mouse.leftButton,learn_mouse.midButton,learn_mouse.rightButton,learn_mouse.time,learn_mouse.clicked_name,cat,token,row,col,t_select,cat_mouse_l.x,cat_mouse_l.y,cat_mouse_l.leftButton,cat_mouse_l.midButton,cat_mouse_l.rightButton,cat_mouse_l.time,cat_mouse_l.clicked_name,resp,t_resp,corr,train_trials.thisRepN,train_trials.thisTrialN,train_trials.thisN,train_trials.thisIndex,train_trials.ran,cat_mouse_t.x,cat_mouse_t.y,cat_mouse_t.leftButton,cat_mouse_t.midButton,cat_mouse_t.rightButton,cat_mouse_t.time,cat_mouse_t.clicked_name,test_trials.thisRepN,test_trials.thisTrialN,test_trials.thisN,test_trials.thisIndex,test_trials.ran,Bonus
663295a01a39525231bede4e,SCN,2024-06-20_16h31.47.660,LearnStrategy,2023.2.3,Win32,60.24096386,,,,,,,,,,,,,,,,,,,,,,,,,,,,,,,,,,,,,,,,,,,
663295a01a39525231bede4e,SCN,2024-06-20_16h31.47.660,LearnStrategy,2023.2.3,Win32,60.24096386,1,1,1,-0.569444444,0.419444446,1,0,0,5.8478,Obsidian_06,5,06,6,1,5.848,-0.405555548,-0.255555541,1,0,0,13.1828,Andesite_rect,1,13.183,0,0,0,0,0,1,,,,,,,,,,,,,
663295a01a39525231bede4e,SCN,2024-06-20_16h31.47.660,LearnStrategy,2023.2.3,Win32,60.24096386,1,1,2,-0.383333312,0.421296296,1,0,0,2.2296,Basalt_06,2,06,6,2,2.23,-0.385185171,-0.247222265,1,0,0,7.2457,Andesite_rect,1,7.246,0,1,0,1,0,1,,,,,,,,,,,,,
663295a01a39525231bede4e,SCN,2024-06-20_16h31.47.660,LearnStrategy,2023.2.3,Win32,60.24096386,1,1,3,-0.242592564,0.401851848,1,0,0,1.8639,Diorite_15,3,15,6,3,1.864,-0.378703683,-0.24537037,1,0,0,7.0446,Andesite_rect,1,7.045,0,2,0,2,0,1,,,,,,,,,,,,,
663295a01a39525231bede4e,SCN,2024-06-20_16h31.47.660,LearnStrategy,2023.2.3,Win32,60.24096386,1,1,4,-0.087962963,0.414814817,1,0,0,5.6476,Peridotite_12,7,12,6,4,5.648,-0.409259266,-0.237963005,1,0,0,4.3218,Andesite_rect,1,4.322,0,3,0,3,0,1,,,,,,,,,,,,,
663295a01a39525231bede4e,SCN,2024-06-20_16h31.47.660,LearnStrategy,2023.2.3,Win32,60.24096386,1,1,5,0.087962963,0.398148148,1,0,0,3.1479,Obsidian_11,5,11,6,5,3.148,0.383333418,-0.243518547,1,0,0,7.3454,Gabbro_rect,4,7.345,0,4,0,4,0,1,,,,,,,,,,,,,
663295a01a39525231bede4e,SCN,2024-06-20_16h31.47.660,LearnStrategy,2023.2.3,Win32,60.24096386,1,1,6,0.223148134,0.398148148,1,0,0,1.5811,Pumice_14,8,14,6,6,1.581,0.386111083,-0.390740783,1,0,0,2.2449,Pumice_rect,8,2.245,1,5,0,5,0,1,,,,,,,,,,,,,
663295a01a39525231bede4e,SCN,2024-06-20_16h31.47.660,LearnStrategy,2023.2.3,Win32,60.24096386,1,1,7,0.395370342,0.410185187,1,0,0,2.4143,Pumice_03,8,03,6,7,2.414,-0.365740741,-0.24537037,1,0,0,4.7619,Andesite_rect,1,4.762,0,6,0,6,0,1,,,,,,,,,,,,,
663295a01a39525231bede4e,SCN,2024-06-20_16h31.47.660,LearnStrategy,2023.2.3,Win32,60.24096386,1,1,8,0.558333362,0.406481478,1,0,0,2.7312,Diorite_14,3,14,6,8,2.731,-0.376851859,-0.238888917,1,0,0,2.8614,Andesite_rect,1,2.861,0,7,0,7,0,1,,,,,,,,,,,,,
663295a01a39525231bede4e,SCN,2024-06-20_16h31.47.660,LearnStrategy,2023.2.3,Win32,60.24096386,1,1,9,-0.546296296,0.252777771,1,0,0,3.1648,Basalt_04,2,04,5,1,3.165,-0.417592578,-0.238888917,1,0,0,5.9236,Andesite_rect,1,5.924,0,8,0,8,0,1,,,,,,,,,,,,,
663295a01a39525231bede4e,SCN,2024-06-20_16h31.47.660,LearnStrategy,2023.2.3,Win32,60.24096386,1,1,10,-0.377777771,0.259259259,1,0,0,4.6481,Gabbro_13,4,13,5,2,4.648,-0.398148148,-0.240740741,1,0,0,3.2402,Andesite_rect,1,3.24,0,9,0,9,0,1,,,,,,,,,,,,,
663295a01a39525231bede4e,SCN,2024-06-20_16h31.47.660,LearnStrategy,2023.2.3,Win32,60.24096386,1,1,11,-0.217592593,0.2537037,1,0,0,2.3635,Gabbro_10,4,10,5,3,2.364,-0.375,-0.251851894,1,0,0,2.2448,Andesite_rect,1,2.245,0,10,0,10,0,1,,,,,,,,,,,,,
663295a01a39525231bede4e,SCN,2024-06-20_16h31.47.660,LearnStrategy,2023.2.3,Win32,60.24096386,1,1,12,-0.094444416,0.2462963,1,0,0,3.997,Peridotite_16,7,16,5,4,3.997,0.116666653,-0.418518561,1,0,0,3.789,Peridotite_rect,7,3.789,1,11,0,11,0,1,,,,,,,,,,,,,
663295a01a39525231bede4e,SCN,2024-06-20_16h31.47.660,LearnStrategy,2023.2.3,Win32,60.24096386,1,1,13,0.077777792,0.274074078,1,0,0,2.4156,Andesite_11,1,11,5,5,2.416,-0.401851831,-0.246296282,1,0,0,3.9598,Andesite_rect,1,3.96,1,12,0,12,0,1,,,,,,,,,,,,,
663295a01a39525231bede4e,SCN,2024-06-20_16h31.47.660,LearnStrategy,2023.2.3,Win32,60.24096386,1,1,14,0.226851852,0.252777771,1,0,0,2.7484,Pegmatite_09,6,09,5,6,2.748,-0.137036995,-0.39907406,1,0,0,3.4396,Pegmatite_rect,6,3.44,1,13,0,13,0,1,,,,,,,,,,,,,
663295a01a39525231bede4e,SCN,2024-06-20_16h31.47.660,LearnStrategy,2023.2.3,Win32,60.24096386,1,1,15,0.246296282,0.2537037,1,0,0,8.5472,Pegmatite_09,6,09,5,6,8.547,-0.137962977,-0.410185213,1,0,0,1.8049,Pegmatite_rect,6,1.805,1,14,0,14,0,1,,,,,,,,,,,,,
663295a01a39525231bede4e,SCN,2024-06-20_16h31.47.660,LearnStrategy,2023.2.3,Win32,60.24096386,1,1,16,0.386111083,0.252777771,1,0,0,1.9645,Peridotite_14,7,14,5,7,1.964,0.10555557,-0.249074088,1,0,0,8.0776,Diorite_rect,3,8.078,0,15,0,15,0,1,,,,,,,,,,,,,
663295a01a39525231bede4e,SCN,2024-06-20_16h31.47.660,LearnStrategy,2023.2.3,Win32,60.24096386,1,2,1,,,,,,,,2,01,,,,,,,,,,,2,9.914,1,,,,,,-0.150925884,-0.255555541,1,0,0,9.9145,Basalt_rect,0,0,0,0,1,
663295a01a39525231bede4e,SCN,2024-06-20_16h31.47.660,LearnStrategy,2023.2.3,Win32,60.24096386,1,2,2,,,,,,,,4,01,,,,,,,,,,,7,12.071,0,,,,,,0.10555557,-0.411111125,1,0,0,12.071,Peridotite_rect,1,0,1,0,1,
663295a01a39525231bede4e,SCN,2024-06-20_16h31.47.660,LearnStrategy,2023.2.3,Win32,60.24096386,1,2,3,,,,,,,,5,04,,,,,,,,,,,2,5.229,0,,,,,,-0.127777735,-0.252777806,1,0,0,5.2289,Basalt_rect,2,0,2,0,1,
663295a01a39525231bede4e,SCN,2024-06-20_16h31.47.660,LearnStrategy,2023.2.3,Win32,60.24096386,1,2,4,,,,,,,,1,04,,,,,,,,,,,6,3.375,0,,,,,,-0.165740755,-0.410185213,1,0,0,3.3752,Pegmatite_rect,3,0,3,0,1,
663295a01a39525231bede4e,SCN,2024-06-20_16h31.47.660,LearnStrategy,2023.2.3,Win32,60.24096386,1,2,5,,,,,,,,5,16,,,,,,,,,,,2,1.624,0,,,,,,-0.143518519,-0.246296282,1,0,0,1.6242,Basalt_rect,4,0,4,0,1,
663295a01a39525231bede4e,SCN,2024-06-20_16h31.47.660,LearnStrategy,2023.2.3,Win32,60.24096386,1,2,6,,,,,,,,8,10,,,,,,,,,,,8,3.541,1,,,,,,0.420370455,-0.387037065,1,0,0,3.5413,Pumice_rect,5,0,5,0,1,
663295a01a39525231bede4e,SCN,2024-06-20_16h31.47.660,LearnStrategy,2023.2.3,Win32,60.24096386,1,2,7,,,,,,,,1,05,,,,,,,,,,,7,5.541,0,,,,,,0.151851866,-0.400000042,1,0,0,5.5413,Peridotite_rect,6,0,6,0,1,
663295a01a39525231bede4e,SCN,2024-06-20_16h31.47.660,LearnStrategy,2023.2.3,Win32,60.24096386,1,2,8,,,,,,,,3,12,,,,,,,,,,,6,5.215,0,,,,,,-0.112037023,-0.401851866,1,0,0,5.2148,Pegmatite_rect,7,0,7,0,1,
663295a01a39525231bede4e,SCN,2024-06-20_16h31.47.660,LearnStrategy,2023.2.3,Win32,60.24096386,1,2,9,,,,,,,,8,16,,,,,,,,,,,8,1.482,1,,,,,,0.381481453,-0.393518519,1,0,0,1.4821,Pumice_rect,8,0,8,0,1,
663295a01a39525231bede4e,SCN,2024-06-20_16h31.47.660,LearnStrategy,2023.2.3,Win32,60.24096386,1,2,10,,,,,,,,6,16,,,,,,,,,,,3,3.784,0,,,,,,0.155555584,-0.259259259,1,0,0,3.7838,Diorite_rect,9,0,9,0,1,
663295a01a39525231bede4e,SCN,2024-06-20_16h31.47.660,LearnStrategy,2023.2.3,Win32,60.24096386,1,2,11,,,,,,,,4,09,,,,,,,,,,,2,3.47,0,,,,,,-0.145370342,-0.246296282,1,0,0,3.4695,Basalt_rect,10,0,10,0,1,
663295a01a39525231bede4e,SCN,2024-06-20_16h31.47.660,LearnStrategy,2023.2.3,Win32,60.24096386,1,2,12,,,,,,,,6,13,,,,,,,,,,,4,3.483,0,,,,,,0.412963019,-0.237963005,1,0,0,3.4825,Gabbro_rect,11,0,11,0,1,
663295a01a39525231bede4e,SCN,2024-06-20_16h31.47.660,LearnStrategy,2023.2.3,Win32,60.24096386,1,2,13,,,,,,,,7,02,,,,,,,,,,,3,2.946,0,,,,,,0.161111125,-0.252777806,1,0,0,2.9458,Diorite_rect,12,0,12,0,1,
663295a01a39525231bede4e,SCN,2024-06-20_16h31.47.660,LearnStrategy,2023.2.3,Win32,60.24096386,1,2,14,,,,,,,,3,06,,,,,,,,,,,6,3.617,0,,,,,,-0.111111111,-0.405555584,1,0,0,3.6169,Pegmatite_rect,13,0,13,0,1,
663295a01a39525231bede4e,SCN,2024-06-20_16h31.47.660,LearnStrategy,2023.2.3,Win32,60.24096386,1,2,15,,,,,,,,7,10,,,,,,,,,,,3,3.501,0,,,,,,0.12037037,-0.234259288,1,0,0,3.5009,Diorite_rect,14,0,14,0,1,
663295a01a39525231bede4e,SCN,2024-06-20_16h31.47.660,LearnStrategy,2023.2.3,Win32,60.24096386,1,2,16,,,,,,,,2,12,,,,,,,,,,,8,3.584,0,,,,,,0.44722225,-0.409259302,1,0,0,3.5844,Pumice_rect,15,0,15,0,1,
663295a01a39525231bede4e,SCN,2024-06-20_16h31.47.660,LearnStrategy,2023.2.3,Win32,60.24096386,2,1,1,-0.542592578,0.429629631,1,0,0,5.6971,Obsidian_06,5,06,6,1,5.697,-0.410185178,-0.405555584,1,0,0,10.1792,Obsidian_rect,5,10.179,1,0,0,0,0,1,,,,,,,,,,,,,
663295a01a39525231bede4e,SCN,2024-06-20_16h31.47.660,LearnStrategy,2023.2.3,Win32,60.24096386,2,1,2,-0.404629637,0.412037037,1,0,0,3.6005,Basalt_06,2,06,6,2,3.601,-0.167592578,-0.253703718,1,0,0,1.8097,Basalt_rect,2,1.81,1,1,0,1,0,1,,,,,,,,,,,,,
663295a01a39525231bede4e,SCN,2024-06-20_16h31.47.660,LearnStrategy,2023.2.3,Win32,60.24096386,2,1,3,-0.256481453,0.435185185,1,0,0,1.6567,Diorite_15,3,15,6,3,1.657,0.125,-0.255555541,1,0,0,5.6157,Diorite_rect,3,5.616,1,2,0,2,0,1,,,,,,,,,,,,,
663295a01a39525231bede4e,SCN,2024-06-20_16h31.47.660,LearnStrategy,2023.2.3,Win32,60.24096386,2,1,4,0.064814815,0.412037037,1,0,0,3.1136,Obsidian_11,5,11,6,5,3.114,-0.143518519,-0.238888917,1,0,0,1.472,Basalt_rect,2,1.472,0,3,0,3,0,1,,,,,,,,,,,,,
663295a01a39525231bede4e,SCN,2024-06-20_16h31.47.660,LearnStrategy,2023.2.3,Win32,60.24096386,2,1,5,0.225000028,0.405555557,1,0,0,1.6309,Pumice_14,8,14,6,6,1.631,0.368518547,-0.400000042,1,0,0,1.6945,Pumice_rect,8,1.694,1,4,0,4,0,1,,,,,,,,,,,,,
663295a01a39525231bede4e,SCN,2024-06-20_16h31.47.660,LearnStrategy,2023.2.3,Win32,60.24096386,2,1,6,0.382407436,0.424074076,1,0,0,1.8944,Pumice_03,8,03,6,7,1.894,0.387037065,-0.390740783,1,0,0,2.8262,Pumice_rect,8,2.826,1,5,0,5,0,1,,,,,,,,,,,,,
663295a01a39525231bede4e,SCN,2024-06-20_16h31.47.660,LearnStrategy,2023.2.3,Win32,60.24096386,2,1,7,0.559259344,0.422222217,1,0,0,1.9475,Diorite_14,3,14,6,8,1.947,0.12962963,-0.235185199,1,0,0,8.2791,Diorite_rect,3,8.279,1,6,0,6,0,1,,,,,,,,,,,,,
663295a01a39525231bede4e,SCN,2024-06-20_16h31.47.660,LearnStrategy,2023.2.3,Win32,60.24096386,2,1,8,-0.554629608,0.24537037,1,0,0,3.7895,Basalt_04,2,04,5,1,3.789,-0.163888861,-0.248148176,1,0,0,1.5447,Basalt_rect,2,1.545,1,7,0,7,0,1,,,,,,,,,,,,,
663295a01a39525231bede4e,SCN,2024-06-20_16h31.47.660,LearnStrategy,2023.2.3,Win32,60.24096386,2,1,9,-0.418518526,0.263888889,1,0,0,1.4471,Gabbro_13,4,13,5,2,1.447,-0.159259231,-0.401851866,1,0,0,5.81,Pegmatite_rect,6,5.81,0,8,0,8,0,1,,,,,,,,,,,,,
663295a01a39525231bede4e,SCN,2024-06-20_16h31.47.660,LearnStrategy,2023.2.3,Win32,60.24096386,2,1,10,-0.233333305,0.264814818,1,0,0,2.0301,Gabbro_10,4,10,5,3,2.03,-0.171296296,-0.239814829,1,0,0,3.444,Basalt_rect,2,3.444,0,9,0,9,0,1,,,,,,,,,,,,,
663295a01a39525231bede4e,SCN,2024-06-20_16h31.47.660,LearnStrategy,2023.2.3,Win32,60.24096386,2,1,11,-0.073148162,0.238888882,1,0,0,5.4305,Peridotite_16,7,16,5,4,5.431,0.156481496,-0.407407407,1,0,0,2.1214,Peridotite_rect,7,2.121,1,10,0,10,0,1,,,,,,,,,,,,,
663295a01a39525231bede4e,SCN,2024-06-20_16h31.47.660,LearnStrategy,2023.2.3,Win32,60.24096386,2,1,12,0.084259245,0.247222212,1,0,0,1.9909,Andesite_11,1,11,5,5,1.991,-0.086111069,-0.408333319,1,0,0,5.7606,Pegmatite_rect,6,5.761,0,11,0,11,0,1,,,,,,,,,,,,,
663295a01a39525231bede4e,SCN,2024-06-20_16h31.47.660,LearnStrategy,2023.2.3,Win32,60.24096386,2,1,13,0.200925968,0.260185189,1,0,0,2.3206,Pegmatite_09,6,09,5,6,2.321,-0.112962935,-0.388888889,1,0,0,2.8591,Pegmatite_rect,6,2.859,1,12,0,12,0,1,,,,,,,,,,,,,
663295a01a39525231bede4e,SCN,2024-06-20_16h31.47.660,LearnStrategy,2023.2.3,Win32,60.24096386,2,1,14,0.405555584,0.225925922,1,0,0,3.564,Peridotite_14,7,14,5,7,3.564,0.152777778,-0.255555541,1,0,0,2.9886,Diorite_rect,3,2.989,0,13,0,13,0,1,,,,,,,,,,,,,
663295a01a39525231bede4e,SCN,2024-06-20_16h31.47.660,LearnStrategy,2023.2.3,Win32,60.24096386,2,1,15,0.385185242,0.226851852,1,0,0,2.7146,Peridotite_14,7,14,5,7,2.715,0.121296282,-0.398148148,1,0,0,1.6784,Peridotite_rect,7,1.678,1,14,0,14,0,1,,,,,,,,,,,,,
663295a01a39525231bede4e,SCN,2024-06-20_16h31.47.660,LearnStrategy,2023.2.3,Win32,60.24096386,2,1,16,0.530555584,0.233333323,1,0,0,1.557,Pumice_05,8,05,5,8,1.557,0.349074046,-0.396296325,1,0,0,1.4914,Pumice_rect,8,1.491,1,15,0,15,0,1,,,,,,,,,,,,,
663295a01a39525231bede4e,SCN,2024-06-20_16h31.47.660,LearnStrategy,2023.2.3,Win32,60.24096386,2,2,1,,,,,,,,5,14,,,,,,,,,,,5,5.474,1,,,,,,-0.404629637,-0.39907406,1,0,0,5.4745,Obsidian_rect,0,0,0,0,1,
663295a01a39525231bede4e,SCN,2024-06-20_16h31.47.660,LearnStrategy,2023.2.3,Win32,60.24096386,2,2,2,,,,,,,,4,03,,,,,,,,,,,1,12.712,0,,,,,,-0.402777778,-0.242592635,1,0,0,12.7123,Andesite_rect,1,0,1,0,1,
663295a01a39525231bede4e,SCN,2024-06-20_16h31.47.660,LearnStrategy,2023.2.3,Win32,60.24096386,2,2,3,,,,,,,,7,05,,,,,,,,,,,7,7.842,1,,,,,,0.104629658,-0.400925954,1,0,0,7.8419,Peridotite_rect,2,0,2,0,1,
663295a01a39525231bede4e,SCN,2024-06-20_16h31.47.660,LearnStrategy,2023.2.3,Win32,60.24096386,2,2,4,,,,,,,,6,03,,,,,,,,,,,6,8.492,1,,,,,,-0.148148148,-0.407407407,1,0,0,8.4924,Pegmatite_rect,3,0,3,0,1,
663295a01a39525231bede4e,SCN,2024-06-20_16h31.47.660,LearnStrategy,2023.2.3,Win32,60.24096386,2,2,5,,,,,,,,8,15,,,,,,,,,,,8,1.775,1,,,,,,0.399999972,-0.410185213,1,0,0,1.7748,Pumice_rect,4,0,4,0,1,
663295a01a39525231bede4e,SCN,2024-06-20_16h31.47.660,LearnStrategy,2023.2.3,Win32,60.24096386,2,2,6,,,,,,,,2,10,,,,,,,,,,,2,3.208,1,,,,,,-0.132407365,-0.253703718,1,0,0,3.2078,Basalt_rect,5,0,5,0,1,
663295a01a39525231bede4e,SCN,2024-06-20_16h31.47.660,LearnStrategy,2023.2.3,Win32,60.24096386,2,2,7,,,,,,,,1,07,,,,,,,,,,,3,4.807,0,,,,,,0.091666681,-0.246296282,1,0,0,4.8069,Diorite_rect,6,0,6,0,1,
663295a01a39525231bede4e,SCN,2024-06-20_16h31.47.660,LearnStrategy,2023.2.3,Win32,60.24096386,2,2,8,,,,,,,,8,09,,,,,,,,,,,8,1.557,1,,,,,,0.407407407,-0.397222236,1,0,0,1.5571,Pumice_rect,7,0,7,0,1,
663295a01a39525231bede4e,SCN,2024-06-20_16h31.47.660,LearnStrategy,2023.2.3,Win32,60.24096386,2,2,9,,,,,,,,3,13,,,,,,,,,,,3,4.341,1,,,,,,0.146296325,-0.241666653,1,0,0,4.3414,Diorite_rect,8,0,8,0,1,
663295a01a39525231bede4e,SCN,2024-06-20_16h31.47.660,LearnStrategy,2023.2.3,Win32,60.24096386,2,2,10,,,,,,,,7,15,,,,,,,,,,,7,1.902,1,,,,,,0.147222236,-0.401851866,1,0,0,1.9017,Peridotite_rect,9,0,9,0,1,
663295a01a39525231bede4e,SCN,2024-06-20_16h31.47.660,LearnStrategy,2023.2.3,Win32,60.24096386,2,2,11,,,,,,,,6,07,,,,,,,,,,,6,3.414,1,,,,,,-0.166666667,-0.398148148,1,0,0,3.4137,Pegmatite_rect,10,0,10,0,1,
663295a01a39525231bede4e,SCN,2024-06-20_16h31.47.660,LearnStrategy,2023.2.3,Win32,60.24096386,2,2,12,,,,,,,,2,14,,,,,,,,,,,2,3.534,1,,,,,,-0.137962977,-0.25,1,0,0,3.5336,Basalt_rect,11,0,11,0,1,
663295a01a39525231bede4e,SCN,2024-06-20_16h31.47.660,LearnStrategy,2023.2.3,Win32,60.24096386,2,2,13,,,,,,,,5,05,,,,,,,,,,,5,5.6,1,,,,,,-0.409259266,-0.406481496,1,0,0,5.5997,Obsidian_rect,12,0,12,0,1,
663295a01a39525231bede4e,SCN,2024-06-20_16h31.47.660,LearnStrategy,2023.2.3,Win32,60.24096386,2,2,14,,,,,,,,3,07,,,,,,,,,,,4,5.15,0,,,,,,0.351851852,-0.266666695,1,0,0,5.1497,Gabbro_rect,13,0,13,0,1,
663295a01a39525231bede4e,SCN,2024-06-20_16h31.47.660,LearnStrategy,2023.2.3,Win32,60.24096386,2,2,15,,,,,,,,4,05,,,,,,,,,,,6,6.986,0,,,,,,-0.10092594,-0.408333319,1,0,0,6.9862,Pegmatite_rect,14,0,14,0,1,
663295a01a39525231bede4e,SCN,2024-06-20_16h31.47.660,LearnStrategy,2023.2.3,Win32,60.24096386,2,2,16,,,,,,,,1,03,,,,,,,,,,,3,10.792,0,,,,,,0.110185199,-0.258333347,1,0,0,10.7915,Diorite_rect,15,0,15,0,1,
663295a01a39525231bede4e,SCN,2024-06-20_16h31.47.660,LearnStrategy,2023.2.3,Win32,60.24096386,3,1,1,-0.54074072,-0.400000042,1,0,0,3.1986,Pegmatite_08,6,08,1,1,3.199,-0.154629601,-0.401851866,1,0,0,6.6736,Pegmatite_rect,6,6.674,1,0,0,0,0,1,,,,,,,,,,,,,
663295a01a39525231bede4e,SCN,2024-06-20_16h31.47.660,LearnStrategy,2023.2.3,Win32,60.24096386,3,1,2,-0.371296282,-0.405555584,1,0,0,2.5965,Obsidian_09,5,09,1,2,2.597,-0.373148141,-0.390740783,1,0,0,2.1953,Obsidian_rect,5,2.195,1,1,0,1,0,1,,,,,,,,,,,,,
663295a01a39525231bede4e,SCN,2024-06-20_16h31.47.660,LearnStrategy,2023.2.3,Win32,60.24096386,3,1,3,-0.227777764,-0.387962977,1,0,0,1.4255,Pegmatite_06,6,06,1,3,1.425,-0.146296254,-0.407407407,1,0,0,5.0616,Pegmatite_rect,6,5.062,1,2,0,2,0,1,,,,,,,,,,,,,
663295a01a39525231bede4e,SCN,2024-06-20_16h31.47.660,LearnStrategy,2023.2.3,Win32,60.24096386,3,1,4,-0.081481439,-0.39907406,1,0,0,1.3564,Basalt_16,2,16,1,4,1.356,-0.167592578,-0.240740741,1,0,0,2.3097,Basalt_rect,2,2.31,1,3,0,3,0,1,,,,,,,,,,,,,
663295a01a39525231bede4e,SCN,2024-06-20_16h31.47.660,LearnStrategy,2023.2.3,Win32,60.24096386,3,1,5,0.079629616,-0.422222208,1,0,0,1.5218,Pegmatite_11,6,11,1,5,1.522,-0.110185199,-0.389814801,1,0,0,4.161,Pegmatite_rect,6,4.161,1,4,0,4,0,1,,,,,,,,,,,,,
663295a01a39525231bede4e,SCN,2024-06-20_16h31.47.660,LearnStrategy,2023.2.3,Win32,60.24096386,3,1,6,0.241666653,-0.411111125,1,0,0,2.1093,Gabbro_14,4,14,1,6,2.109,0.139814801,-0.24537037,1,0,0,3.1459,Diorite_rect,3,3.146,0,5,0,5,0,1,,,,,,,,,,,,,
663295a01a39525231bede4e,SCN,2024-06-20_16h31.47.660,LearnStrategy,2023.2.3,Win32,60.24096386,3,1,7,0.384259259,-0.411111125,1,0,0,1.5636,Peridotite_13,7,13,1,7,1.564,0.131481524,-0.395370413,1,0,0,1.6622,Peridotite_rect,7,1.662,1,6,0,6,0,1,,,,,,,,,,,,,
663295a01a39525231bede4e,SCN,2024-06-20_16h31.47.660,LearnStrategy,2023.2.3,Win32,60.24096386,3,1,8,0.553703732,-0.421296296,1,0,0,1.2652,Andesite_01,1,01,1,8,1.265,-0.09629631,-0.387962977,1,0,0,4.7258,Pegmatite_rect,6,4.726,0,7,0,7,0,1,,,,,,,,,,,,,
663295a01a39525231bede4e,SCN,2024-06-20_16h31.47.660,LearnStrategy,2023.2.3,Win32,60.24096386,3,1,9,-0.535185178,-0.251851894,1,0,0,2.0292,Peridotite_07,7,07,2,1,2.029,-0.115740741,-0.400000042,1,0,0,5.879,Pegmatite_rect,6,5.879,0,8,0,8,0,1,,,,,,,,,,,,,
663295a01a39525231bede4e,SCN,2024-06-20_16h31.47.660,LearnStrategy,2023.2.3,Win32,60.24096386,3,1,10,-0.215740698,-0.25,1,0,0,3.2071,Pumice_13,8,13,2,3,3.207,0.411111196,-0.392592607,1,0,0,1.6771,Pumice_rect,8,1.677,1,9,0,9,0,1,,,,,,,,,,,,,
663295a01a39525231bede4e,SCN,2024-06-20_16h31.47.660,LearnStrategy,2023.2.3,Win32,60.24096386,3,1,11,0.073148162,-0.275925954,1,0,0,2.8636,Pegmatite_05,6,05,2,5,2.864,0.422222279,-0.236111111,1,0,0,5.3738,Gabbro_rect,4,5.374,0,10,0,10,0,1,,,,,,,,,,,,,
663295a01a39525231bede4e,SCN,2024-06-20_16h31.47.660,LearnStrategy,2023.2.3,Win32,60.24096386,3,1,12,0.398148148,-0.260185171,1,0,0,1.4416,Basalt_09,2,09,2,7,1.442,-0.167592578,-0.25462963,1,0,0,2.3598,Basalt_rect,2,2.36,1,11,0,11,0,1,,,,,,,,,,,,,
663295a01a39525231bede4e,SCN,2024-06-20_16h31.47.660,LearnStrategy,2023.2.3,Win32,60.24096386,3,1,13,0.559259344,-0.266666695,1,0,0,1.4317,Peridotite_04,7,04,2,8,1.432,-0.125,-0.398148148,1,0,0,4.1096,Pegmatite_rect,6,4.11,0,12,0,12,0,1,,,,,,,,,,,,,
663295a01a39525231bede4e,SCN,2024-06-20_16h31.47.660,LearnStrategy,2023.2.3,Win32,60.24096386,3,1,14,-0.544444437,-0.085185192,1,0,0,2.1165,Diorite_11,3,11,3,1,2.116,-0.430555556,-0.238888917,1,0,0,7.8785,Andesite_rect,1,7.879,0,13,0,13,0,1,,,,,,,,,,,,,
663295a01a39525231bede4e,SCN,2024-06-20_16h31.47.660,LearnStrategy,2023.2.3,Win32,60.24096386,3,1,15,-0.385185171,-0.083333333,1,0,0,2.3837,Andesite_09,1,09,3,2,2.384,-0.162037037,-0.407407407,1,0,0,8.3516,Pegmatite_rect,6,8.352,0,14,0,14,0,1,,,,,,,,,,,,,
663295a01a39525231bede4e,SCN,2024-06-20_16h31.47.660,LearnStrategy,2023.2.3,Win32,60.24096386,3,1,16,0.099074116,-0.118518547,1,0,0,4.214,Diorite_08,3,08,3,5,4.214,-0.389814801,-0.258333347,1,0,0,3.1071,Andesite_rect,1,3.107,0,15,0,15,0,1,,,,,,,,,,,,,
663295a01a39525231bede4e,SCN,2024-06-20_16h31.47.660,LearnStrategy,2023.2.3,Win32,60.24096386,3,2,1,,,,,,,,5,07,,,,,,,,,,,5,6.042,1,,,,,,-0.410185178,-0.402777778,1,0,0,6.0417,Obsidian_rect,0,0,0,0,1,
663295a01a39525231bede4e,SCN,2024-06-20_16h31.47.660,LearnStrategy,2023.2.3,Win32,60.24096386,3,2,2,,,,,,,,2,02,,,,,,,,,,,2,2.024,1,,,,,,-0.139814801,-0.25462963,1,0,0,2.0239,Basalt_rect,1,0,1,0,1,
663295a01a39525231bede4e,SCN,2024-06-20_16h31.47.660,LearnStrategy,2023.2.3,Win32,60.24096386,3,2,3,,,,,,,,4,16,,,,,,,,,,,2,4.152,0,,,,,,-0.137036995,-0.241666653,1,0,0,4.1522,Basalt_rect,2,0,2,0,1,
663295a01a39525231bede4e,SCN,2024-06-20_16h31.47.660,LearnStrategy,2023.2.3,Win32,60.24096386,3,2,4,,,,,,,,2,11,,,,,,,,,,,8,2.723,0,,,,,,0.405555584,-0.421296296,1,0,0,2.7233,Pumice_rect,3,0,3,0,1,
663295a01a39525231bede4e,SCN,2024-06-20_16h31.47.660,LearnStrategy,2023.2.3,Win32,60.24096386,3,2,5,,,,,,,,3,02,,,,,,,,,,,3,11.309,1,,,,,,0.140740783,-0.25462963,1,0,0,11.3092,Diorite_rect,4,0,4,0,1,
663295a01a39525231bede4e,SCN,2024-06-20_16h31.47.660,LearnStrategy,2023.2.3,Win32,60.24096386,3,2,6,,,,,,,,7,06,,,,,,,,,,,7,2.024,1,,,,,,0.124074088,-0.409259302,1,0,0,2.0245,Peridotite_rect,5,0,5,0,1,
663295a01a39525231bede4e,SCN,2024-06-20_16h31.47.660,LearnStrategy,2023.2.3,Win32,60.24096386,3,2,7,,,,,,,,3,16,,,,,,,,,,,4,6.419,0,,,,,,0.369444529,-0.255555541,1,0,0,6.4192,Gabbro_rect,6,0,6,0,1,
663295a01a39525231bede4e,SCN,2024-06-20_16h31.47.660,LearnStrategy,2023.2.3,Win32,60.24096386,3,2,8,,,,,,,,6,12,,,,,,,,,,,1,5.575,0,,,,,,-0.430555556,-0.249074088,1,0,0,5.5751,Andesite_rect,7,0,7,0,1,
663295a01a39525231bede4e,SCN,2024-06-20_16h31.47.660,LearnStrategy,2023.2.3,Win32,60.24096386,3,2,9,,,,,,,,7,08,,,,,,,,,,,7,2.042,1,,,,,,0.114814829,-0.405555584,1,0,0,2.042,Peridotite_rect,8,0,8,0,1,
663295a01a39525231bede4e,SCN,2024-06-20_16h31.47.660,LearnStrategy,2023.2.3,Win32,60.24096386,3,2,10,,,,,,,,6,10,,,,,,,,,,,7,4.41,0,,,,,,0.112037023,-0.412962949,1,0,0,4.4101,Peridotite_rect,9,0,9,0,1,
663295a01a39525231bede4e,SCN,2024-06-20_16h31.47.660,LearnStrategy,2023.2.3,Win32,60.24096386,3,2,11,,,,,,,,8,02,,,,,,,,,,,8,1.507,1,,,,,,0.421296296,-0.402777778,1,0,0,1.5068,Pumice_rect,10,0,10,0,1,
663295a01a39525231bede4e,SCN,2024-06-20_16h31.47.660,LearnStrategy,2023.2.3,Win32,60.24096386,3,2,12,,,,,,,,1,14,,,,,,,,,,,1,4.858,1,,,,,,-0.392592571,-0.253703718,1,0,0,4.8577,Andesite_rect,11,0,11,0,1,
663295a01a39525231bede4e,SCN,2024-06-20_16h31.47.660,LearnStrategy,2023.2.3,Win32,60.24096386,3,2,13,,,,,,,,8,06,,,,,,,,,,,8,1.741,1,,,,,,0.386111083,-0.400925954,1,0,0,1.7411,Pumice_rect,12,0,12,0,1,
663295a01a39525231bede4e,SCN,2024-06-20_16h31.47.660,LearnStrategy,2023.2.3,Win32,60.24096386,3,2,14,,,,,,,,4,15,,,,,,,,,,,4,4.736,1,,,,,,0.369444529,-0.244444459,1,0,0,4.7364,Gabbro_rect,13,0,13,0,1,
663295a01a39525231bede4e,SCN,2024-06-20_16h31.47.660,LearnStrategy,2023.2.3,Win32,60.24096386,3,2,15,,,,,,,,1,10,,,,,,,,,,,8,5.592,0,,,,,,0.376851824,-0.402777778,1,0,0,5.5916,Pumice_rect,14,0,14,0,1,
663295a01a39525231bede4e,SCN,2024-06-20_16h31.47.660,LearnStrategy,2023.2.3,Win32,60.24096386,3,2,16,,,,,,,,5,08,,,,,,,,,,,5,5.941,1,,,,,,-0.405555548,-0.40370369,1,0,0,5.9409,Obsidian_rect,15,0,15,0,1,
663295a01a39525231bede4e,SCN,2024-06-20_16h31.47.660,LearnStrategy,2023.2.3,Win32,60.24096386,4,1,1,-0.563888868,-0.095370399,1,0,0,4.5144,Diorite_11,3,11,3,1,4.514,0.365740741,-0.238888917,1,0,0,6.3896,Gabbro_rect,4,6.39,0,0,0,0,0,1,,,,,,,,,,,,,
663295a01a39525231bede4e,SCN,2024-06-20_16h31.47.660,LearnStrategy,2023.2.3,Win32,60.24096386,4,1,2,-0.377777771,-0.089814822,1,0,0,3.564,Andesite_09,1,09,3,2,3.564,-0.383333312,-0.241666653,1,0,0,4.3398,Andesite_rect,1,4.34,1,1,0,1,0,1,,,,,,,,,,,,,
663295a01a39525231bede4e,SCN,2024-06-20_16h31.47.660,LearnStrategy,2023.2.3,Win32,60.24096386,4,1,3,-0.076851809,-0.092592593,1,0,0,2.0129,Gabbro_12,4,12,3,4,2.013,-0.361111111,-0.242592635,1,0,0,3.5277,Andesite_rect,1,3.528,0,2,0,2,0,1,,,,,,,,,,,,,
663295a01a39525231bede4e,SCN,2024-06-20_16h31.47.660,LearnStrategy,2023.2.3,Win32,60.24096386,4,1,4,0.062037079,-0.083333333,1,0,0,1.2627,Diorite_08,3,08,3,5,1.263,0.156481496,-0.249074088,1,0,0,2.4434,Diorite_rect,3,2.443,1,3,0,3,0,1,,,,,,,,,,,,,
663295a01a39525231bede4e,SCN,2024-06-20_16h31.47.660,LearnStrategy,2023.2.3,Win32,60.24096386,4,1,5,0.237963005,-0.087037051,1,0,0,1.6243,Basalt_08,2,08,3,6,1.624,-0.154629601,-0.259259259,1,0,0,2.0089,Basalt_rect,2,2.009,1,4,0,4,0,1,,,,,,,,,,,,,
663295a01a39525231bede4e,SCN,2024-06-20_16h31.47.660,LearnStrategy,2023.2.3,Win32,60.24096386,4,1,6,0.573148233,-0.124074088,1,0,0,1.5596,Andesite_02,1,02,3,8,1.56,0.388888889,-0.406481496,1,0,0,1.8116,Pumice_rect,8,1.812,0,5,0,5,0,1,,,,,,,,,,,,,
663295a01a39525231bede4e,SCN,2024-06-20_16h31.47.660,LearnStrategy,2023.2.3,Win32,60.24096386,4,1,7,-0.547222208,0.103703711,1,0,0,3.2138,Pumice_08,8,08,4,1,3.214,0.393518519,-0.400000042,1,0,0,1.3448,Pumice_rect,8,1.345,1,6,0,6,0,1,,,,,,,,,,,,,
663295a01a39525231bede4e,SCN,2024-06-20_16h31.47.660,LearnStrategy,2023.2.3,Win32,60.24096386,4,1,8,-0.37962963,0.104629623,1,0,0,2.1492,Andesite_06,1,06,4,2,2.149,-0.38703703,-0.259259259,1,0,0,2.2093,Andesite_rect,1,2.209,1,7,0,7,0,1,,,,,,,,,,,,,
663295a01a39525231bede4e,SCN,2024-06-20_16h31.47.660,LearnStrategy,2023.2.3,Win32,60.24096386,4,1,9,-0.084259245,0.073148127,1,0,0,4.0308,Gabbro_08,4,08,4,4,4.031,-0.389814801,-0.238888917,1,0,0,9.8191,Andesite_rect,1,9.819,0,8,0,8,0,1,,,,,,,,,,,,,
663295a01a39525231bede4e,SCN,2024-06-20_16h31.47.660,LearnStrategy,2023.2.3,Win32,60.24096386,4,1,10,0.256481524,0.238888882,1,0,0,3.3889,Pegmatite_09,6,09,5,6,3.389,0.141666695,-0.40370369,1,0,0,2.2451,Peridotite_rect,7,2.245,0,9,0,9,0,1,,,,,,,,,,,,,
663295a01a39525231bede4e,SCN,2024-06-20_16h31.47.660,LearnStrategy,2023.2.3,Win32,60.24096386,4,1,11,-0.075925898,0.242592582,1,0,0,3.8302,Peridotite_16,7,16,5,4,3.83,0.124074088,-0.398148148,1,0,0,1.5074,Peridotite_rect,7,1.507,1,10,0,10,0,1,,,,,,,,,,,,,
663295a01a39525231bede4e,SCN,2024-06-20_16h31.47.660,LearnStrategy,2023.2.3,Win32,60.24096386,4,1,12,0.078703704,-0.234259288,1,0,0,4.6993,Pegmatite_05,6,05,2,5,4.699,-0.110185199,-0.393518519,1,0,0,1.9861,Pegmatite_rect,6,1.986,1,11,0,11,0,1,,,,,,,,,,,,,
663295a01a39525231bede4e,SCN,2024-06-20_16h31.47.660,LearnStrategy,2023.2.3,Win32,60.24096386,4,1,13,0.411111196,0.081481474,1,0,0,1.8486,Gabbro_11,4,11,4,7,1.849,-0.409259266,-0.261111153,1,0,0,4.6939,Andesite_rect,1,4.694,0,12,0,12,0,1,,,,,,,,,,,,,
663295a01a39525231bede4e,SCN,2024-06-20_16h31.47.660,LearnStrategy,2023.2.3,Win32,60.24096386,4,1,14,0.387037065,0.236111111,1,0,0,3.6121,Peridotite_14,7,14,5,7,3.612,-0.122222194,-0.405555584,1,0,0,4.0742,Pegmatite_rect,6,4.074,0,13,0,13,0,1,,,,,,,,,,,,,
663295a01a39525231bede4e,SCN,2024-06-20_16h31.47.660,LearnStrategy,2023.2.3,Win32,60.24096386,4,1,15,-0.547222208,-0.095370399,1,0,0,2.1633,Diorite_11,3,11,3,1,2.163,-0.375,-0.242592635,1,0,0,3.8081,Andesite_rect,1,3.808,0,14,0,14,0,1,,,,,,,,,,,,,
663295a01a39525231bede4e,SCN,2024-06-20_16h31.47.660,LearnStrategy,2023.2.3,Win32,60.24096386,4,1,16,0.57685188,-0.097222222,1,0,0,3.4562,Andesite_02,1,02,3,8,3.456,0.155555584,-0.237963005,1,0,0,4.1109,Diorite_rect,3,4.111,0,15,0,15,0,1,,,,,,,,,,,,,
663295a01a39525231bede4e,SCN,2024-06-20_16h31.47.660,LearnStrategy,2023.2.3,Win32,60.24096386,4,2,1,,,,,,,,4,16,,,,,,,,,,,2,5.675,0,,,,,,-0.121296282,-0.243518547,1,0,0,5.6746,Basalt_rect,0,0,0,0,1,
663295a01a39525231bede4e,SCN,2024-06-20_16h31.47.660,LearnStrategy,2023.2.3,Win32,60.24096386,4,2,2,,,,,,,,1,07,,,,,,,,,,,1,8.128,1,,,,,,-0.387962942,-0.241666653,1,0,0,8.1279,Andesite_rect,1,0,1,0,1,
663295a01a39525231bede4e,SCN,2024-06-20_16h31.47.660,LearnStrategy,2023.2.3,Win32,60.24096386,4,2,3,,,,,,,,8,02,,,,,,,,,,,8,2.024,1,,,,,,0.405555584,-0.400000042,1,0,0,2.0235,Pumice_rect,2,0,2,0,1,
663295a01a39525231bede4e,SCN,2024-06-20_16h31.47.660,LearnStrategy,2023.2.3,Win32,60.24096386,4,2,4,,,,,,,,7,10,,,,,,,,,,,6,8.392,0,,,,,,-0.071296268,-0.400925954,1,0,0,8.3923,Pegmatite_rect,3,0,3,0,1,
663295a01a39525231bede4e,SCN,2024-06-20_16h31.47.660,LearnStrategy,2023.2.3,Win32,60.24096386,4,2,5,,,,,,,,3,02,,,,,,,,,,,1,1.706,0,,,,,,-0.400925919,-0.246296282,1,0,0,1.7063,Andesite_rect,4,0,4,0,1,
663295a01a39525231bede4e,SCN,2024-06-20_16h31.47.660,LearnStrategy,2023.2.3,Win32,60.24096386,4,2,6,,,,,,,,2,14,,,,,,,,,,,8,4.475,0,,,,,,0.396296325,-0.40370369,1,0,0,4.4745,Pumice_rect,5,0,5,0,1,
663295a01a39525231bede4e,SCN,2024-06-20_16h31.47.660,LearnStrategy,2023.2.3,Win32,60.24096386,4,2,7,,,,,,,,4,05,,,,,,,,,,,4,13.73,1,,,,,,0.410185213,-0.259259259,1,0,0,13.7297,Gabbro_rect,6,0,6,0,1,
663295a01a39525231bede4e,SCN,2024-06-20_16h31.47.660,LearnStrategy,2023.2.3,Win32,60.24096386,4,2,8,,,,,,,,2,02,,,,,,,,,,,2,2.176,1,,,,,,-0.139814801,-0.253703718,1,0,0,2.1758,Basalt_rect,7,0,7,0,1,
663295a01a39525231bede4e,SCN,2024-06-20_16h31.47.660,LearnStrategy,2023.2.3,Win32,60.24096386,4,2,9,,,,,,,,5,05,,,,,,,,,,,5,4.125,1,,,,,,-0.398148148,-0.396296325,1,0,0,4.1245,Obsidian_rect,8,0,8,0,1,
663295a01a39525231bede4e,SCN,2024-06-20_16h31.47.660,LearnStrategy,2023.2.3,Win32,60.24096386,4,2,10,,,,,,,,6,10,,,,,,,,,,,6,3.713,1,,,,,,-0.152777778,-0.412962949,1,0,0,3.7125,Pegmatite_rect,9,0,9,0,1,
663295a01a39525231bede4e,SCN,2024-06-20_16h31.47.660,LearnStrategy,2023.2.3,Win32,60.24096386,4,2,11,,,,,,,,7,15,,,,,,,,,,,1,4.795,0,,,,,,-0.413888896,-0.25462963,1,0,0,4.795,Andesite_rect,10,0,10,0,1,
663295a01a39525231bede4e,SCN,2024-06-20_16h31.47.660,LearnStrategy,2023.2.3,Win32,60.24096386,4,2,12,,,,,,,,6,03,,,,,,,,,,,6,3.358,1,,,,,,-0.149999972,-0.411111125,1,0,0,3.3582,Pegmatite_rect,11,0,11,0,1,
663295a01a39525231bede4e,SCN,2024-06-20_16h31.47.660,LearnStrategy,2023.2.3,Win32,60.24096386,4,2,13,,,,,,,,8,06,,,,,,,,,,,8,2.058,1,,,,,,0.440740797,-0.413888931,1,0,0,2.0582,Pumice_rect,12,0,12,0,1,
663295a01a39525231bede4e,SCN,2024-06-20_16h31.47.660,LearnStrategy,2023.2.3,Win32,60.24096386,4,2,14,,,,,,,,3,12,,,,,,,,,,,1,3.218,0,,,,,,-0.407407407,-0.252777806,1,0,0,3.2183,Andesite_rect,13,0,13,0,1,
663295a01a39525231bede4e,SCN,2024-06-20_16h31.47.660,LearnStrategy,2023.2.3,Win32,60.24096386,4,2,15,,,,,,,,5,16,,,,,,,,,,,5,6.109,1,,,,,,-0.400925919,-0.400000042,1,0,0,6.1091,Obsidian_rect,14,0,14,0,1,
663295a01a39525231bede4e,SCN,2024-06-20_16h31.47.660,LearnStrategy,2023.2.3,Win32,60.24096386,4,2,16,,,,,,,,1,03,,,,,,,,,,,3,5.458,0,,,,,,0.116666653,-0.262962977,1,0,0,5.4585,Diorite_rect,15,0,15,0,1,
663295a01a39525231bede4e,SCN,2024-06-20_16h31.47.660,LearnStrategy,2023.2.3,Win32,60.24096386,5,1,1,-0.562962956,0.414814817,1,0,0,2.7308,Obsidian_06,5,06,6,1,2.731,-0.371296282,-0.410185213,1,0,0,6.485,Obsidian_rect,5,6.485,1,0,0,0,0,1,,,,,,,,,,,,,
663295a01a39525231bede4e,SCN,2024-06-20_16h31.47.660,LearnStrategy,2023.2.3,Win32,60.24096386,5,1,2,-0.388888889,0.406481478,1,0,0,1.1805,Basalt_06,2,06,6,2,1.18,-0.136111083,-0.244444459,1,0,0,1.3923,Basalt_rect,2,1.392,1,1,0,1,0,1,,,,,,,,,,,,,
663295a01a39525231bede4e,SCN,2024-06-20_16h31.47.660,LearnStrategy,2023.2.3,Win32,60.24096386,5,1,3,-0.233333305,0.399999998,1,0,0,3.0716,Diorite_15,3,15,6,3,3.072,0.121296282,-0.262962977,1,0,0,6.1278,Diorite_rect,3,6.128,1,2,0,2,0,1,,,,,,,,,,,,,
663295a01a39525231bede4e,SCN,2024-06-20_16h31.47.660,LearnStrategy,2023.2.3,Win32,60.24096386,5,1,4,0.073148162,0.404629628,1,0,0,5.3822,Obsidian_11,5,11,6,5,5.382,-0.419444437,-0.39444443,1,0,0,2.6846,Obsidian_rect,5,2.685,1,3,0,3,0,1,,,,,,,,,,,,,
663295a01a39525231bede4e,SCN,2024-06-20_16h31.47.660,LearnStrategy,2023.2.3,Win32,60.24096386,5,1,5,0.085185228,0.259259259,1,0,0,3.9293,Andesite_11,1,11,5,5,3.929,-0.373148141,-0.242592635,1,0,0,4.4727,Andesite_rect,1,4.473,1,4,0,4,0,1,,,,,,,,,,,,,
663295a01a39525231bede4e,SCN,2024-06-20_16h31.47.660,LearnStrategy,2023.2.3,Win32,60.24096386,5,1,6,-0.070370356,0.090740734,1,0,0,4.2056,Gabbro_08,4,08,4,4,4.206,0.075925968,-0.237037023,1,0,0,4.9227,Diorite_rect,3,4.923,0,5,0,5,0,1,,,,,,,,,,,,,
663295a01a39525231bede4e,SCN,2024-06-20_16h31.47.660,LearnStrategy,2023.2.3,Win32,60.24096386,5,1,7,-0.066666638,-0.079629651,1,0,0,2.7099,Gabbro_12,4,12,3,4,2.71,0.395370342,-0.252777806,1,0,0,2.0291,Gabbro_rect,4,2.029,1,6,0,6,0,1,,,,,,,,,,,,,
663295a01a39525231bede4e,SCN,2024-06-20_16h31.47.660,LearnStrategy,2023.2.3,Win32,60.24096386,5,1,8,-0.385185171,-0.100000028,1,0,0,2.1473,Andesite_09,1,09,3,2,2.147,-0.423148155,-0.248148176,1,0,0,1.6471,Andesite_rect,1,1.647,1,7,0,7,0,1,,,,,,,,,,,,,
663295a01a39525231bede4e,SCN,2024-06-20_16h31.47.660,LearnStrategy,2023.2.3,Win32,60.24096386,5,1,9,-0.547222208,-0.102777764,1,0,0,1.7393,Diorite_11,3,11,3,1,1.739,0.135185171,-0.244444459,1,0,0,2.4943,Diorite_rect,3,2.494,1,8,0,8,0,1,,,,,,,,,,,,,
663295a01a39525231bede4e,SCN,2024-06-20_16h31.47.660,LearnStrategy,2023.2.3,Win32,60.24096386,5,1,10,-0.376851859,-0.263888889,1,0,0,2.4812,Diorite_10,3,10,2,2,2.481,0.102777764,-0.232407393,1,0,0,3.0955,Diorite_rect,3,3.095,1,9,0,9,0,1,,,,,,,,,,,,,
663295a01a39525231bede4e,SCN,2024-06-20_16h31.47.660,LearnStrategy,2023.2.3,Win32,60.24096386,5,1,11,0.093518504,-0.246296282,1,0,0,1.8418,Pegmatite_05,6,05,2,5,1.842,-0.088888875,-0.413888931,1,0,0,8.1607,Pegmatite_rect,6,8.161,1,10,0,10,0,1,,,,,,,,,,,,,
663295a01a39525231bede4e,SCN,2024-06-20_16h31.47.660,LearnStrategy,2023.2.3,Win32,60.24096386,5,1,12,-0.085185157,-0.27407406,1,0,0,1.4035,Diorite_09,3,09,2,4,1.403,0.173148191,-0.250925912,1,0,0,1.9118,Diorite_rect,3,1.912,1,11,0,11,0,1,,,,,,,,,,,,,
663295a01a39525231bede4e,SCN,2024-06-20_16h31.47.660,LearnStrategy,2023.2.3,Win32,60.24096386,5,1,13,0.073148162,-0.414814843,1,0,0,1.5423,Pegmatite_11,6,11,1,5,1.542,-0.141666624,-0.386111153,1,0,0,1.9582,Pegmatite_rect,6,1.958,1,12,0,12,0,1,,,,,,,,,,,,,
663295a01a39525231bede4e,SCN,2024-06-20_16h31.47.660,LearnStrategy,2023.2.3,Win32,60.24096386,5,1,14,0.402777778,-0.409259302,1,0,0,1.9095,Peridotite_13,7,13,1,7,1.909,0.147222236,-0.407407407,1,0,0,4.426,Peridotite_rect,7,4.426,1,13,0,13,0,1,,,,,,,,,,,,,
663295a01a39525231bede4e,SCN,2024-06-20_16h31.47.660,LearnStrategy,2023.2.3,Win32,60.24096386,5,1,15,0.219444487,-0.401851866,1,0,0,2.0628,Gabbro_14,4,14,1,6,2.063,0.424074102,-0.24537037,1,0,0,2.0953,Gabbro_rect,4,2.095,1,14,0,14,0,1,,,,,,,,,,,,,
663295a01a39525231bede4e,SCN,2024-06-20_16h31.47.660,LearnStrategy,2023.2.3,Win32,60.24096386,5,1,16,0.078703704,-0.087962963,1,0,0,2.2595,Diorite_08,3,08,3,5,2.259,0.156481496,-0.239814829,1,0,0,4.0272,Diorite_rect,3,4.027,1,15,0,15,0,1,,,,,,,,,,,,,
663295a01a39525231bede4e,SCN,2024-06-20_16h31.47.660,LearnStrategy,2023.2.3,Win32,60.24096386,5,2,1,,,,,,,,6,12,,,,,,,,,,,1,4.309,0,,,,,,-0.40370369,-0.256481524,1,0,0,4.3087,Andesite_rect,0,0,0,0,1,
663295a01a39525231bede4e,SCN,2024-06-20_16h31.47.660,LearnStrategy,2023.2.3,Win32,60.24096386,5,2,2,,,,,,,,6,07,,,,,,,,,,,1,11.992,0,,,,,,-0.398148148,-0.258333347,1,0,0,11.9921,Andesite_rect,1,0,1,0,1,
663295a01a39525231bede4e,SCN,2024-06-20_16h31.47.660,LearnStrategy,2023.2.3,Win32,60.24096386,5,2,3,,,,,,,,7,05,,,,,,,,,,,7,3.991,1,,,,,,0.138888889,-0.410185213,1,0,0,3.9905,Peridotite_rect,2,0,2,0,1,
663295a01a39525231bede4e,SCN,2024-06-20_16h31.47.660,LearnStrategy,2023.2.3,Win32,60.24096386,5,2,4,,,,,,,,4,03,,,,,,,,,,,3,3.258,0,,,,,,0.14907406,-0.249074088,1,0,0,3.2581,Diorite_rect,3,0,3,0,1,
663295a01a39525231bede4e,SCN,2024-06-20_16h31.47.660,LearnStrategy,2023.2.3,Win32,60.24096386,5,2,5,,,,,,,,3,07,,,,,,,,,,,3,2.975,1,,,,,,0.14907406,-0.249074088,1,0,0,2.9753,Diorite_rect,4,0,4,0,1,
663295a01a39525231bede4e,SCN,2024-06-20_16h31.47.660,LearnStrategy,2023.2.3,Win32,60.24096386,5,2,6,,,,,,,,5,04,,,,,,,,,,,5,2.007,1,,,,,,-0.381481489,-0.397222236,1,0,0,2.0066,Obsidian_rect,5,0,5,0,1,
663295a01a39525231bede4e,SCN,2024-06-20_16h31.47.660,LearnStrategy,2023.2.3,Win32,60.24096386,5,2,7,,,,,,,,1,14,,,,,,,,,,,1,6.059,1,,,,,,-0.402777778,-0.24537037,1,0,0,6.0592,Andesite_rect,6,0,6,0,1,
663295a01a39525231bede4e,SCN,2024-06-20_16h31.47.660,LearnStrategy,2023.2.3,Win32,60.24096386,5,2,8,,,,,,,,5,08,,,,,,,,,,,5,3.458,1,,,,,,-0.407407407,-0.40370369,1,0,0,3.4581,Obsidian_rect,7,0,7,0,1,
663295a01a39525231bede4e,SCN,2024-06-20_16h31.47.660,LearnStrategy,2023.2.3,Win32,60.24096386,5,2,9,,,,,,,,2,12,,,,,,,,,,,8,1.826,0,,,,,,0.430555556,-0.406481496,1,0,0,1.8261,Pumice_rect,8,0,8,0,1,
663295a01a39525231bede4e,SCN,2024-06-20_16h31.47.660,LearnStrategy,2023.2.3,Win32,60.24096386,5,2,10,,,,,,,,7,06,,,,,,,,,,,7,2.986,1,,,,,,0.156481496,-0.400925954,1,0,0,2.9856,Peridotite_rect,9,0,9,0,1,
663295a01a39525231bede4e,SCN,2024-06-20_16h31.47.660,LearnStrategy,2023.2.3,Win32,60.24096386,5,2,11,,,,,,,,4,09,,,,,,,,,,,2,6.458,0,,,,,,-0.099999958,-0.241666653,1,0,0,6.4578,Basalt_rect,10,0,10,0,1,
663295a01a39525231bede4e,SCN,2024-06-20_16h31.47.660,LearnStrategy,2023.2.3,Win32,60.24096386,5,2,12,,,,,,,,2,10,,,,,,,,,,,2,1.925,1,,,,,,-0.125,-0.253703718,1,0,0,1.9245,Basalt_rect,11,0,11,0,1,
663295a01a39525231bede4e,SCN,2024-06-20_16h31.47.660,LearnStrategy,2023.2.3,Win32,60.24096386,5,2,13,,,,,,,,1,04,,,,,,,,,,,3,5.959,0,,,,,,0.109259288,-0.23055557,1,0,0,5.9588,Diorite_rect,12,0,12,0,1,
663295a01a39525231bede4e,SCN,2024-06-20_16h31.47.660,LearnStrategy,2023.2.3,Win32,60.24096386,5,2,14,,,,,,,,8,15,,,,,,,,,,,8,1.641,1,,,,,,0.404629601,-0.410185213,1,0,0,1.6409,Pumice_rect,13,0,13,0,1,
663295a01a39525231bede4e,SCN,2024-06-20_16h31.47.660,LearnStrategy,2023.2.3,Win32,60.24096386,5,2,15,,,,,,,,3,13,,,,,,,,,,,3,9.398,1,,,,,,0.146296325,-0.255555541,1,0,0,9.3982,Diorite_rect,14,0,14,0,1,
663295a01a39525231bede4e,SCN,2024-06-20_16h31.47.660,LearnStrategy,2023.2.3,Win32,60.24096386,5,2,16,,,,,,,,8,09,,,,,,,,,,,8,1.4,1,,,,,,0.392592677,-0.404629672,1,0,0,1.4005,Pumice_rect,15,0,15,0,1,
663295a01a39525231bede4e,SCN,2024-06-20_16h31.47.660,LearnStrategy,2023.2.3,Win32,60.24096386,6,1,1,-0.228703675,0.398148148,1,0,0,4.1089,Diorite_15,3,15,6,3,4.109,0.130555541,-0.243518547,1,0,0,5.3177,Diorite_rect,3,5.318,1,0,0,0,0,1,,,,,,,,,,,,,
663295a01a39525231bede4e,SCN,2024-06-20_16h31.47.660,LearnStrategy,2023.2.3,Win32,60.24096386,6,1,2,-0.073148162,0.099074081,1,0,0,1.6693,Gabbro_08,4,08,4,4,1.669,-0.148148148,-0.243518547,1,0,0,3.4941,Basalt_rect,2,3.494,0,1,0,1,0,1,,,,,,,,,,,,,
663295a01a39525231bede4e,SCN,2024-06-20_16h31.47.660,LearnStrategy,2023.2.3,Win32,60.24096386,6,1,3,-0.080555527,-0.238888917,1,0,0,3.3733,Diorite_09,3,09,2,4,3.373,0.089814857,-0.25462963,1,0,0,2.6288,Diorite_rect,3,2.629,1,2,0,2,0,1,,,,,,,,,,,,,
663295a01a39525231bede4e,SCN,2024-06-20_16h31.47.660,LearnStrategy,2023.2.3,Win32,60.24096386,6,1,4,-0.389814801,-0.252777806,1,0,0,1.8462,Diorite_10,3,10,2,2,1.846,0.080555598,-0.264814801,1,0,0,5.729,Diorite_rect,3,5.729,1,3,0,3,0,1,,,,,,,,,,,,,
663295a01a39525231bede4e,SCN,2024-06-20_16h31.47.660,LearnStrategy,2023.2.3,Win32,60.24096386,6,1,5,0.239814829,-0.099074116,1,0,0,1.7595,Basalt_08,2,08,3,6,1.759,-0.121296282,-0.235185199,1,0,0,2.4605,Basalt_rect,2,2.46,1,4,0,4,0,1,,,,,,,,,,,,,
663295a01a39525231bede4e,SCN,2024-06-20_16h31.47.660,LearnStrategy,2023.2.3,Win32,60.24096386,6,1,6,0.228703746,-0.233333376,1,0,0,1.5254,Pegmatite_15,6,15,2,6,1.525,-0.349999993,-0.241666653,1,0,0,5.5618,Andesite_rect,1,5.562,0,5,0,5,0,1,,,,,,,,,,,,,
663295a01a39525231bede4e,SCN,2024-06-20_16h31.47.660,LearnStrategy,2023.2.3,Win32,60.24096386,6,1,7,0.425925926,0.089814822,1,0,0,1.9571,Gabbro_11,4,11,4,7,1.957,-0.425925926,-0.237037023,1,0,0,4.2622,Andesite_rect,1,4.262,0,6,0,6,0,1,,,,,,,,,,,,,
663295a01a39525231bede4e,SCN,2024-06-20_16h31.47.660,LearnStrategy,2023.2.3,Win32,60.24096386,6,1,8,0.53333339,0.084259245,1,0,0,2.5092,Andesite_16,1,16,4,8,2.509,0.12037037,-0.237037023,1,0,0,2.3105,Diorite_rect,3,2.311,0,7,0,7,0,1,,,,,,,,,,,,,
663295a01a39525231bede4e,SCN,2024-06-20_16h31.47.660,LearnStrategy,2023.2.3,Win32,60.24096386,6,1,9,-0.078703704,0.222222222,1,0,0,2.0323,Peridotite_16,7,16,5,4,2.032,0.107407393,-0.392592607,1,0,0,1.5101,Peridotite_rect,7,1.51,1,8,0,8,0,1,,,,,,,,,,,,,
663295a01a39525231bede4e,SCN,2024-06-20_16h31.47.660,LearnStrategy,2023.2.3,Win32,60.24096386,6,1,10,0.545370455,-0.111111111,1,0,0,1.6433,Andesite_02,1,02,3,8,1.643,-0.398148148,-0.231481481,1,0,0,3.7933,Andesite_rect,1,3.793,1,9,0,9,0,1,,,,,,,,,,,,,
663295a01a39525231bede4e,SCN,2024-06-20_16h31.47.660,LearnStrategy,2023.2.3,Win32,60.24096386,6,1,11,0.3648149,0.090740734,1,0,0,2.1638,Gabbro_11,4,11,4,7,2.164,-0.417592578,-0.248148176,1,0,0,5.4744,Andesite_rect,1,5.474,0,10,0,10,0,1,,,,,,,,,,,,,
663295a01a39525231bede4e,SCN,2024-06-20_16h31.47.660,LearnStrategy,2023.2.3,Win32,60.24096386,6,1,12,0.084259245,0.236111111,1,0,0,1.7582,Andesite_11,1,11,5,5,1.758,-0.404629637,-0.233333376,1,0,0,1.4443,Andesite_rect,1,1.444,1,11,0,11,0,1,,,,,,,,,,,,,
663295a01a39525231bede4e,SCN,2024-06-20_16h31.47.660,LearnStrategy,2023.2.3,Win32,60.24096386,6,1,13,0.531481566,0.076851845,1,0,0,1.8657,Andesite_16,1,16,4,8,1.866,-0.400000007,-0.236111111,1,0,0,3.3776,Andesite_rect,1,3.378,1,12,0,12,0,1,,,,,,,,,,,,,
663295a01a39525231bede4e,SCN,2024-06-20_16h31.47.660,LearnStrategy,2023.2.3,Win32,60.24096386,6,1,14,0.530555584,-0.103703746,1,0,0,2.6766,Andesite_02,1,02,3,8,2.677,-0.388888889,-0.25,1,0,0,3.2111,Andesite_rect,1,3.211,1,13,0,13,0,1,,,,,,,,,,,,,
663295a01a39525231bede4e,SCN,2024-06-20_16h31.47.660,LearnStrategy,2023.2.3,Win32,60.24096386,6,1,15,-0.073148162,0.074074074,1,0,0,3.0309,Gabbro_08,4,08,4,4,3.031,0.380555612,-0.244444459,1,0,0,1.7899,Gabbro_rect,4,1.79,1,14,0,14,0,1,,,,,,,,,,,,,
663295a01a39525231bede4e,SCN,2024-06-20_16h31.47.660,LearnStrategy,2023.2.3,Win32,60.24096386,6,1,16,0.232407393,-0.095370399,1,0,0,3.2154,Basalt_08,2,08,3,6,3.215,-0.389814801,-0.232407393,1,0,0,6.2562,Andesite_rect,1,6.256,0,15,0,15,0,1,,,,,,,,,,,,,
663295a01a39525231bede4e,SCN,2024-06-20_16h31.47.660,LearnStrategy,2023.2.3,Win32,60.24096386,6,2,1,,,,,,,,7,08,,,,,,,,,,,7,11.112,1,,,,,,0.117592635,-0.40370369,1,0,0,11.1116,Peridotite_rect,0,0,0,0,1,
663295a01a39525231bede4e,SCN,2024-06-20_16h31.47.660,LearnStrategy,2023.2.3,Win32,60.24096386,6,2,2,,,,,,,,7,02,,,,,,,,,,,7,4.309,1,,,,,,0.12962963,-0.411111125,1,0,0,4.3087,Peridotite_rect,1,0,1,0,1,
663295a01a39525231bede4e,SCN,2024-06-20_16h31.47.660,LearnStrategy,2023.2.3,Win32,60.24096386,6,2,3,,,,,,,,3,06,,,,,,,,,,,1,3.585,0,,,,,,-0.409259266,-0.248148176,1,0,0,3.5846,Andesite_rect,2,0,2,0,1,
663295a01a39525231bede4e,SCN,2024-06-20_16h31.47.660,LearnStrategy,2023.2.3,Win32,60.24096386,6,2,4,,,,,,,,8,16,,,,,,,,,,,8,4.052,1,,,,,,0.415740826,-0.398148148,1,0,0,4.0515,Pumice_rect,3,0,3,0,1,
663295a01a39525231bede4e,SCN,2024-06-20_16h31.47.660,LearnStrategy,2023.2.3,Win32,60.24096386,6,2,5,,,,,,,,8,10,,,,,,,,,,,8,1.299,1,,,,,,0.415740826,-0.398148148,1,0,0,1.2991,Pumice_rect,4,0,4,0,1,
663295a01a39525231bede4e,SCN,2024-06-20_16h31.47.660,LearnStrategy,2023.2.3,Win32,60.24096386,6,2,6,,,,,,,,1,05,,,,,,,,,,,1,3.115,1,,,,,,-0.390740748,-0.249074088,1,0,0,3.115,Andesite_rect,5,0,5,0,1,
663295a01a39525231bede4e,SCN,2024-06-20_16h31.47.660,LearnStrategy,2023.2.3,Win32,60.24096386,6,2,7,,,,,,,,1,10,,,,,,,,,,,1,10.837,1,,,,,,-0.438888868,-0.249074088,1,0,0,10.8374,Andesite_rect,6,0,6,0,1,
663295a01a39525231bede4e,SCN,2024-06-20_16h31.47.660,LearnStrategy,2023.2.3,Win32,60.24096386,6,2,8,,,,,,,,6,13,,,,,,,,,,,6,4.201,1,,,,,,-0.121296282,-0.401851866,1,0,0,4.2008,Pegmatite_rect,7,0,7,0,1,
663295a01a39525231bede4e,SCN,2024-06-20_16h31.47.660,LearnStrategy,2023.2.3,Win32,60.24096386,6,2,9,,,,,,,,5,07,,,,,,,,,,,5,2.367,1,,,,,,-0.440740727,-0.410185213,1,0,0,2.3674,Obsidian_rect,8,0,8,0,1,
663295a01a39525231bede4e,SCN,2024-06-20_16h31.47.660,LearnStrategy,2023.2.3,Win32,60.24096386,6,2,10,,,,,,,,2,11,,,,,,,,,,,1,6.061,0,,,,,,-0.426851838,-0.246296282,1,0,0,6.0613,Andesite_rect,9,0,9,0,1,
663295a01a39525231bede4e,SCN,2024-06-20_16h31.47.660,LearnStrategy,2023.2.3,Win32,60.24096386,6,2,11,,,,,,,,5,14,,,,,,,,,,,5,3.87,1,,,,,,-0.41111109,-0.407407407,1,0,0,3.8697,Obsidian_rect,10,0,10,0,1,
663295a01a39525231bede4e,SCN,2024-06-20_16h31.47.660,LearnStrategy,2023.2.3,Win32,60.24096386,6,2,12,,,,,,,,2,01,,,,,,,,,,,1,11.5,0,,,,,,-0.442592586,-0.259259259,1,0,0,11.5002,Andesite_rect,11,0,11,0,1,
663295a01a39525231bede4e,SCN,2024-06-20_16h31.47.660,LearnStrategy,2023.2.3,Win32,60.24096386,6,2,13,,,,,,,,6,16,,,,,,,,,,,6,3.3,1,,,,,,-0.140740712,-0.410185213,1,0,0,3.3001,Pegmatite_rect,12,0,12,0,1,
663295a01a39525231bede4e,SCN,2024-06-20_16h31.47.660,LearnStrategy,2023.2.3,Win32,60.24096386,6,2,14,,,,,,,,4,15,,,,,,,,,,,4,4.301,1,,,,,,0.434259344,-0.246296282,1,0,0,4.3011,Gabbro_rect,13,0,13,0,1,
663295a01a39525231bede4e,SCN,2024-06-20_16h31.47.660,LearnStrategy,2023.2.3,Win32,60.24096386,6,2,15,,,,,,,,3,16,,,,,,,,,,,3,1.875,1,,,,,,0.162962949,-0.252777806,1,0,0,1.875,Diorite_rect,14,0,14,0,1,
663295a01a39525231bede4e,SCN,2024-06-20_16h31.47.660,LearnStrategy,2023.2.3,Win32,60.24096386,6,2,16,,,,,,,,4,01,,,,,,,,,,,3,3.592,0,,,,,,0.102777764,-0.25,1,0,0,3.592,Diorite_rect,15,0,15,0,1,
663295a01a39525231bede4e,SCN,2024-06-20_16h31.47.660,LearnStrategy,2023.2.3,Win32,60.24096386,7,1,1,-0.384259259,0.401851848,1,0,0,1.8084,Basalt_06,2,06,6,2,1.808,-0.158333319,-0.247222265,1,0,0,13.7815,Basalt_rect,2,13.782,1,0,0,0,0,1,,,,,,,,,,,,,
663295a01a39525231bede4e,SCN,2024-06-20_16h31.47.660,LearnStrategy,2023.2.3,Win32,60.24096386,7,1,2,0.091666681,0.26574073,1,0,0,2.4963,Andesite_11,1,11,5,5,2.496,-0.376851859,-0.246296282,1,0,0,3.8619,Andesite_rect,1,3.862,1,1,0,1,0,1,,,,,,,,,,,,,
663295a01a39525231bede4e,SCN,2024-06-20_16h31.47.660,LearnStrategy,2023.2.3,Win32,60.24096386,7,1,3,0.25462963,-0.087037051,1,0,0,1.5956,Basalt_08,2,08,3,6,1.596,-0.162962949,-0.246296282,1,0,0,1.612,Basalt_rect,2,1.612,1,2,0,2,0,1,,,,,,,,,,,,,
663295a01a39525231bede4e,SCN,2024-06-20_16h31.47.660,LearnStrategy,2023.2.3,Win32,60.24096386,7,1,4,0.556481538,-0.104629658,1,0,0,1.4313,Andesite_02,1,02,3,8,1.431,-0.392592571,-0.252777806,1,0,0,3.5129,Andesite_rect,1,3.513,1,3,0,3,0,1,,,,,,,,,,,,,
663295a01a39525231bede4e,SCN,2024-06-20_16h31.47.660,LearnStrategy,2023.2.3,Win32,60.24096386,7,1,5,0.393518519,0.065740727,1,0,0,1.413,Gabbro_11,4,11,4,7,1.413,-0.365740741,-0.25,1,0,0,5.9435,Andesite_rect,1,5.943,0,4,0,4,0,1,,,,,,,,,,,,,
663295a01a39525231bede4e,SCN,2024-06-20_16h31.47.660,LearnStrategy,2023.2.3,Win32,60.24096386,7,1,6,0.388888889,0.078703704,1,0,0,1.6068,Gabbro_11,4,11,4,7,1.607,0.353703675,-0.234259288,1,0,0,2.1782,Gabbro_rect,4,2.178,1,5,0,5,0,1,,,,,,,,,,,,,
663295a01a39525231bede4e,SCN,2024-06-20_16h31.47.660,LearnStrategy,2023.2.3,Win32,60.24096386,7,1,7,0.070370356,0.247222212,1,0,0,1.9655,Andesite_11,1,11,5,5,1.965,-0.377777771,-0.237963005,1,0,0,0.9773,Andesite_rect,1,0.977,1,6,0,6,0,1,,,,,,,,,,,,,
663295a01a39525231bede4e,SCN,2024-06-20_16h31.47.660,LearnStrategy,2023.2.3,Win32,60.24096386,7,1,8,-0.397222201,-0.09629631,1,0,0,1.7399,Andesite_09,1,09,3,2,1.74,-0.444444444,-0.249074088,1,0,0,1.6788,Andesite_rect,1,1.679,1,7,0,7,0,1,,,,,,,,,,,,,
663295a01a39525231bede4e,SCN,2024-06-20_16h31.47.660,LearnStrategy,2023.2.3,Win32,60.24096386,7,1,9,0.530555584,-0.249074088,1,0,0,2.9565,Peridotite_04,7,04,2,8,2.957,0.141666695,-0.401851866,1,0,0,3.4787,Peridotite_rect,7,3.479,1,8,0,8,0,1,,,,,,,,,,,,,
663295a01a39525231bede4e,SCN,2024-06-20_16h31.47.660,LearnStrategy,2023.2.3,Win32,60.24096386,7,1,10,-0.108333305,-0.257407436,1,0,0,1.9319,Diorite_09,3,09,2,4,1.932,0.106481481,-0.261111153,1,0,0,3.6597,Diorite_rect,3,3.66,1,9,0,9,0,1,,,,,,,,,,,,,
663295a01a39525231bede4e,SCN,2024-06-20_16h31.47.660,LearnStrategy,2023.2.3,Win32,60.24096386,7,1,11,-0.39907406,-0.287037037,1,0,0,2.0726,Diorite_10,3,10,2,2,2.073,0.114814829,-0.246296282,1,0,0,1.7941,Diorite_rect,3,1.794,1,10,0,10,0,1,,,,,,,,,,,,,
663295a01a39525231bede4e,SCN,2024-06-20_16h31.47.660,LearnStrategy,2023.2.3,Win32,60.24096386,7,1,12,-0.567592586,0.276851848,1,0,0,2.525,Basalt_04,2,04,5,1,2.525,-0.136111083,-0.239814829,1,0,0,1.5288,Basalt_rect,2,1.529,1,11,0,11,0,1,,,,,,,,,,,,,
663295a01a39525231bede4e,SCN,2024-06-20_16h31.47.660,LearnStrategy,2023.2.3,Win32,60.24096386,7,1,13,0.409259231,-0.08888891,1,0,0,2.4232,Basalt_05,2,05,3,7,2.423,-0.146296254,-0.238888917,1,0,0,1.9286,Basalt_rect,2,1.929,1,12,0,12,0,1,,,,,,,,,,,,,
663295a01a39525231bede4e,SCN,2024-06-20_16h31.47.660,LearnStrategy,2023.2.3,Win32,60.24096386,7,1,14,-0.076851809,-0.08425928,1,0,0,4.3249,Gabbro_12,4,12,3,4,4.325,0.387963048,-0.250925912,1,0,0,4.0757,Gabbro_rect,4,4.076,1,13,0,13,0,1,,,,,,,,,,,,,
663295a01a39525231bede4e,SCN,2024-06-20_16h31.47.660,LearnStrategy,2023.2.3,Win32,60.24096386,7,1,15,0.259259259,0.230555552,1,0,0,3.0775,Pegmatite_09,6,09,5,6,3.077,-0.12962963,-0.402777778,1,0,0,1.7287,Pegmatite_rect,6,1.729,1,14,0,14,0,1,,,,,,,,,,,,,
663295a01a39525231bede4e,SCN,2024-06-20_16h31.47.660,LearnStrategy,2023.2.3,Win32,60.24096386,7,1,16,-0.407407407,-0.273148148,1,0,0,1.4677,Diorite_10,3,10,2,2,1.468,0.160185213,-0.265740783,1,0,0,2.7489,Diorite_rect,3,2.749,1,15,0,15,0,1,,,,,,,,,,,,,
663295a01a39525231bede4e,SCN,2024-06-20_16h31.47.660,LearnStrategy,2023.2.3,Win32,60.24096386,7,2,1,,,,,,,,5,04,,,,,,,,,,,5,7.058,1,,,,,,-0.385185171,-0.395370413,1,0,0,7.0575,Obsidian_rect,0,0,0,0,1,
663295a01a39525231bede4e,SCN,2024-06-20_16h31.47.660,LearnStrategy,2023.2.3,Win32,60.24096386,7,2,2,,,,,,,,6,16,,,,,,,,,,,6,2.691,1,,,,,,-0.149999972,-0.393518519,1,0,0,2.6912,Pegmatite_rect,1,0,1,0,1,
663295a01a39525231bede4e,SCN,2024-06-20_16h31.47.660,LearnStrategy,2023.2.3,Win32,60.24096386,7,2,3,,,,,,,,7,02,,,,,,,,,,,7,1.594,1,,,,,,0.155555584,-0.412962949,1,0,0,1.5937,Peridotite_rect,2,0,2,0,1,
663295a01a39525231bede4e,SCN,2024-06-20_16h31.47.660,LearnStrategy,2023.2.3,Win32,60.24096386,7,2,4,,,,,,,,2,14,,,,,,,,,,,8,1.958,0,,,,,,0.40833339,-0.412037037,1,0,0,1.9582,Pumice_rect,3,0,3,0,1,
663295a01a39525231bede4e,SCN,2024-06-20_16h31.47.660,LearnStrategy,2023.2.3,Win32,60.24096386,7,2,5,,,,,,,,6,10,,,,,,,,,,,6,3.641,1,,,,,,-0.145370342,-0.413888931,1,0,0,3.6414,Pegmatite_rect,4,0,4,0,1,
663295a01a39525231bede4e,SCN,2024-06-20_16h31.47.660,LearnStrategy,2023.2.3,Win32,60.24096386,7,2,6,,,,,,,,7,06,,,,,,,,,,,7,5.713,1,,,,,,0.112963005,-0.390740783,1,0,0,5.7127,Peridotite_rect,5,0,5,0,1,
663295a01a39525231bede4e,SCN,2024-06-20_16h31.47.660,LearnStrategy,2023.2.3,Win32,60.24096386,7,2,7,,,,,,,,3,07,,,,,,,,,,,1,6.224,0,,,,,,-0.405555548,-0.260185171,1,0,0,6.2241,Andesite_rect,6,0,6,0,1,
663295a01a39525231bede4e,SCN,2024-06-20_16h31.47.660,LearnStrategy,2023.2.3,Win32,60.24096386,7,2,8,,,,,,,,8,10,,,,,,,,,,,8,1.391,1,,,,,,0.428703732,-0.39907406,1,0,0,1.3907,Pumice_rect,7,0,7,0,1,
663295a01a39525231bede4e,SCN,2024-06-20_16h31.47.660,LearnStrategy,2023.2.3,Win32,60.24096386,7,2,9,,,,,,,,4,15,,,,,,,,,,,4,3.142,1,,,,,,0.409259231,-0.241666653,1,0,0,3.1417,Gabbro_rect,8,0,8,0,1,
663295a01a39525231bede4e,SCN,2024-06-20_16h31.47.660,LearnStrategy,2023.2.3,Win32,60.24096386,7,2,10,,,,,,,,4,01,,,,,,,,,,,1,7.608,0,,,,,,-0.413888896,-0.263888889,1,0,0,7.6078,Andesite_rect,9,0,9,0,1,
663295a01a39525231bede4e,SCN,2024-06-20_16h31.47.660,LearnStrategy,2023.2.3,Win32,60.24096386,7,2,11,,,,,,,,1,14,,,,,,,,,,,1,2.191,1,,,,,,-0.412037037,-0.259259259,1,0,0,2.1906,Andesite_rect,10,0,10,0,1,
663295a01a39525231bede4e,SCN,2024-06-20_16h31.47.660,LearnStrategy,2023.2.3,Win32,60.24096386,7,2,12,,,,,,,,3,13,,,,,,,,,,,3,7.029,1,,,,,,0.143518519,-0.255555541,1,0,0,7.0288,Diorite_rect,11,0,11,0,1,
663295a01a39525231bede4e,SCN,2024-06-20_16h31.47.660,LearnStrategy,2023.2.3,Win32,60.24096386,7,2,13,,,,,,,,1,10,,,,,,,,,,,8,7.296,0,,,,,,0.395370342,-0.412962949,1,0,0,7.2959,Pumice_rect,12,0,12,0,1,
663295a01a39525231bede4e,SCN,2024-06-20_16h31.47.660,LearnStrategy,2023.2.3,Win32,60.24096386,7,2,14,,,,,,,,5,08,,,,,,,,,,,5,2.007,1,,,,,,-0.412037037,-0.396296325,1,0,0,2.0072,Obsidian_rect,13,0,13,0,1,
663295a01a39525231bede4e,SCN,2024-06-20_16h31.47.660,LearnStrategy,2023.2.3,Win32,60.24096386,7,2,15,,,,,,,,8,16,,,,,,,,,,,8,1.407,1,,,,,,0.433333362,-0.406481496,1,0,0,1.4074,Pumice_rect,14,0,14,0,1,
663295a01a39525231bede4e,SCN,2024-06-20_16h31.47.660,LearnStrategy,2023.2.3,Win32,60.24096386,7,2,16,,,,,,,,2,02,,,,,,,,,,,4,5.894,0,,,,,,0.395370342,-0.246296282,1,0,0,5.8942,Gabbro_rect,15,0,15,0,1,
663295a01a39525231bede4e,SCN,2024-06-20_16h31.47.660,LearnStrategy,2023.2.3,Win32,60.24096386,8,1,1,-0.538888896,0.25833333,1,0,0,2.5475,Basalt_04,2,04,5,1,2.548,-0.115740741,-0.244444459,1,0,0,2.6786,Basalt_rect,2,2.679,1,0,0,0,0,1,,,,,,,,,,,,,
663295a01a39525231bede4e,SCN,2024-06-20_16h31.47.660,LearnStrategy,2023.2.3,Win32,60.24096386,8,1,2,-0.375925912,0.419444446,1,0,0,1.1478,Basalt_06,2,06,6,2,1.148,-0.121296282,-0.242592635,1,0,0,1.2269,Basalt_rect,2,1.227,1,1,0,1,0,1,,,,,,,,,,,,,
663295a01a39525231bede4e,SCN,2024-06-20_16h31.47.660,LearnStrategy,2023.2.3,Win32,60.24096386,8,1,3,0.069444444,0.26666666,1,0,0,2.1433,Andesite_11,1,11,5,5,2.143,-0.423148155,-0.243518547,1,0,0,1.5784,Andesite_rect,1,1.578,1,2,0,2,0,1,,,,,,,,,,,,,
663295a01a39525231bede4e,SCN,2024-06-20_16h31.47.660,LearnStrategy,2023.2.3,Win32,60.24096386,8,1,4,0.077777792,0.080555563,1,0,0,1.7712,Pumice_04,8,04,4,5,1.771,0.405555584,-0.393518519,1,0,0,1.4957,Pumice_rect,8,1.496,1,3,0,3,0,1,,,,,,,,,,,,,
663295a01a39525231bede4e,SCN,2024-06-20_16h31.47.660,LearnStrategy,2023.2.3,Win32,60.24096386,8,1,5,0.411111196,0.094444452,1,0,0,4.1072,Gabbro_11,4,11,4,7,4.107,0.390740712,-0.243518547,1,0,0,3.1907,Gabbro_rect,4,3.191,1,4,0,4,0,1,,,,,,,,,,,,,
663295a01a39525231bede4e,SCN,2024-06-20_16h31.47.660,LearnStrategy,2023.2.3,Win32,60.24096386,8,1,6,0.222222222,-0.271296325,1,0,0,1.4413,Pegmatite_15,6,15,2,6,1.441,-0.136111083,-0.409259302,1,0,0,1.4285,Pegmatite_rect,6,1.428,1,5,0,5,0,1,,,,,,,,,,,,,
663295a01a39525231bede4e,SCN,2024-06-20_16h31.47.660,LearnStrategy,2023.2.3,Win32,60.24096386,8,1,7,-0.234259217,-0.253703718,1,0,0,1.2712,Pumice_13,8,13,2,3,1.271,0.380555612,-0.402777778,1,0,0,1.3787,Pumice_rect,8,1.379,1,6,0,6,0,1,,,,,,,,,,,,,
663295a01a39525231bede4e,SCN,2024-06-20_16h31.47.660,LearnStrategy,2023.2.3,Win32,60.24096386,8,1,8,0.398148148,-0.250925912,1,0,0,2.566,Basalt_09,2,09,2,7,2.566,0.401851937,-0.240740741,1,0,0,1.5594,Gabbro_rect,4,1.559,0,7,0,7,0,1,,,,,,,,,,,,,
663295a01a39525231bede4e,SCN,2024-06-20_16h31.47.660,LearnStrategy,2023.2.3,Win32,60.24096386,8,1,9,-0.082407422,-0.079629651,1,0,0,1.4821,Gabbro_12,4,12,3,4,1.482,-0.393518519,-0.250925912,1,0,0,4.1603,Andesite_rect,1,4.16,0,8,0,8,0,1,,,,,,,,,,,,,
663295a01a39525231bede4e,SCN,2024-06-20_16h31.47.660,LearnStrategy,2023.2.3,Win32,60.24096386,8,1,10,-0.062962921,0.109259252,1,0,0,1.1924,Gabbro_08,4,08,4,4,1.192,-0.473148134,-0.244444459,1,0,0,4.0612,Andesite_rect,1,4.061,0,9,0,9,0,1,,,,,,,,,,,,,
663295a01a39525231bede4e,SCN,2024-06-20_16h31.47.660,LearnStrategy,2023.2.3,Win32,60.24096386,8,1,11,0.389814871,0.249074071,1,0,0,2.147,Peridotite_14,7,14,5,7,2.147,0.141666695,-0.250925912,1,0,0,2.3269,Diorite_rect,3,2.327,0,10,0,10,0,1,,,,,,,,,,,,,
663295a01a39525231bede4e,SCN,2024-06-20_16h31.47.660,LearnStrategy,2023.2.3,Win32,60.24096386,8,1,12,0.22592594,-0.405555584,1,0,0,3.539,Gabbro_14,4,14,1,6,3.539,0.395370342,-0.25,1,0,0,1.9124,Gabbro_rect,4,1.912,1,11,0,11,0,1,,,,,,,,,,,,,
663295a01a39525231bede4e,SCN,2024-06-20_16h31.47.660,LearnStrategy,2023.2.3,Win32,60.24096386,8,1,13,-0.407407407,-0.090740734,1,0,0,1.8756,Andesite_09,1,09,3,2,1.876,-0.405555548,-0.248148176,1,0,0,2.2951,Andesite_rect,1,2.295,1,12,0,12,0,1,,,,,,,,,,,,,
663295a01a39525231bede4e,SCN,2024-06-20_16h31.47.660,LearnStrategy,2023.2.3,Win32,60.24096386,8,1,14,-0.563888868,-0.12037037,1,0,0,3.492,Diorite_11,3,11,3,1,3.492,-0.428703697,-0.253703718,1,0,0,3.6097,Andesite_rect,1,3.61,0,13,0,13,0,1,,,,,,,,,,,,,
663295a01a39525231bede4e,SCN,2024-06-20_16h31.47.660,LearnStrategy,2023.2.3,Win32,60.24096386,8,1,15,-0.066666638,-0.076851845,1,0,0,2.8735,Gabbro_12,4,12,3,4,2.874,0.397222307,-0.244444459,1,0,0,5.162,Gabbro_rect,4,5.162,1,14,0,14,0,1,,,,,,,,,,,,,
663295a01a39525231bede4e,SCN,2024-06-20_16h31.47.660,LearnStrategy,2023.2.3,Win32,60.24096386,8,1,16,-0.376851859,-0.392592607,1,0,0,1.9304,Obsidian_09,5,09,1,2,1.93,-0.41574072,-0.40370369,1,0,0,1.2452,Obsidian_rect,5,1.245,1,15,0,15,0,1,,,,,,,,,,,,,
663295a01a39525231bede4e,SCN,2024-06-20_16h31.47.660,LearnStrategy,2023.2.3,Win32,60.24096386,8,2,1,,,,,,,,2,12,,,,,,,,,,,8,6.942,0,,,,,,0.397222307,-0.401851866,1,0,0,6.9417,Pumice_rect,0,0,0,0,1,
663295a01a39525231bede4e,SCN,2024-06-20_16h31.47.660,LearnStrategy,2023.2.3,Win32,60.24096386,8,2,2,,,,,,,,3,06,,,,,,,,,,,3,5.592,1,,,,,,0.12962963,-0.244444459,1,0,0,5.5916,Diorite_rect,1,0,1,0,1,
663295a01a39525231bede4e,SCN,2024-06-20_16h31.47.660,LearnStrategy,2023.2.3,Win32,60.24096386,8,2,3,,,,,,,,6,12,,,,,,,,,,,6,3.225,1,,,,,,-0.159259231,-0.405555584,1,0,0,3.2251,Pegmatite_rect,2,0,2,0,1,
663295a01a39525231bede4e,SCN,2024-06-20_16h31.47.660,LearnStrategy,2023.2.3,Win32,60.24096386,8,2,4,,,,,,,,4,09,,,,,,,,,,,2,8.113,0,,,,,,-0.143518519,-0.237963005,1,0,0,8.1128,Basalt_rect,3,0,3,0,1,
663295a01a39525231bede4e,SCN,2024-06-20_16h31.47.660,LearnStrategy,2023.2.3,Win32,60.24096386,8,2,5,,,,,,,,4,03,,,,,,,,,,,3,9.043,0,,,,,,0.109259288,-0.241666653,1,0,0,9.0425,Diorite_rect,4,0,4,0,1,
663295a01a39525231bede4e,SCN,2024-06-20_16h31.47.660,LearnStrategy,2023.2.3,Win32,60.24096386,8,2,6,,,,,,,,2,11,,,,,,,,,,,8,4.859,0,,,,,,0.412963019,-0.39907406,1,0,0,4.8592,Pumice_rect,5,0,5,0,1,
663295a01a39525231bede4e,SCN,2024-06-20_16h31.47.660,LearnStrategy,2023.2.3,Win32,60.24096386,8,2,7,,,,,,,,1,07,,,,,,,,,,,1,2.542,1,,,,,,-0.39907406,-0.249074088,1,0,0,2.5416,Andesite_rect,6,0,6,0,1,
663295a01a39525231bede4e,SCN,2024-06-20_16h31.47.660,LearnStrategy,2023.2.3,Win32,60.24096386,8,2,8,,,,,,,,1,04,,,,,,,,,,,1,2.842,1,,,,,,-0.39907406,-0.249074088,1,0,0,2.8419,Andesite_rect,7,0,7,0,1,
663295a01a39525231bede4e,SCN,2024-06-20_16h31.47.660,LearnStrategy,2023.2.3,Win32,60.24096386,8,2,9,,,,,,,,8,06,,,,,,,,,,,8,1.409,1,,,,,,0.378703788,-0.410185213,1,0,0,1.4085,Pumice_rect,8,0,8,0,1,
663295a01a39525231bede4e,SCN,2024-06-20_16h31.47.660,LearnStrategy,2023.2.3,Win32,60.24096386,8,2,10,,,,,,,,5,14,,,,,,,,,,,5,1.878,1,,,,,,-0.402777778,-0.400000042,1,0,0,1.8781,Obsidian_rect,9,0,9,0,1,
663295a01a39525231bede4e,SCN,2024-06-20_16h31.47.660,LearnStrategy,2023.2.3,Win32,60.24096386,8,2,11,,,,,,,,8,09,,,,,,,,,,,8,1.294,1,,,,,,0.413888861,-0.401851866,1,0,0,1.2945,Pumice_rect,10,0,10,0,1,
663295a01a39525231bede4e,SCN,2024-06-20_16h31.47.660,LearnStrategy,2023.2.3,Win32,60.24096386,8,2,12,,,,,,,,7,08,,,,,,,,,,,7,4.318,1,,,,,,0.134259259,-0.406481496,1,0,0,4.3176,Peridotite_rect,11,0,11,0,1,
663295a01a39525231bede4e,SCN,2024-06-20_16h31.47.660,LearnStrategy,2023.2.3,Win32,60.24096386,8,2,13,,,,,,,,7,15,,,,,,,,,,,7,2.02,1,,,,,,0.134259259,-0.406481496,1,0,0,2.0202,Peridotite_rect,12,0,12,0,1,
663295a01a39525231bede4e,SCN,2024-06-20_16h31.47.660,LearnStrategy,2023.2.3,Win32,60.24096386,8,2,14,,,,,,,,5,05,,,,,,,,,,,5,1.728,1,,,,,,-0.400925919,-0.401851866,1,0,0,1.7283,Obsidian_rect,13,0,13,0,1,
663295a01a39525231bede4e,SCN,2024-06-20_16h31.47.660,LearnStrategy,2023.2.3,Win32,60.24096386,8,2,15,,,,,,,,6,07,,,,,,,,,,,6,2.658,1,,,,,,-0.117592564,-0.396296325,1,0,0,2.6578,Pegmatite_rect,14,0,14,0,1,
663295a01a39525231bede4e,SCN,2024-06-20_16h31.47.660,LearnStrategy,2023.2.3,Win32,60.24096386,8,2,16,,,,,,,,3,02,,,,,,,,,,,3,8.175,1,,,,,,0.116666653,-0.258333347,1,0,0,8.1751,Diorite_rect,15,0,15,0,1,
663295a01a39525231bede4e,SCN,2024-06-20_16h31.47.660,LearnStrategy,2023.2.3,Win32,60.24096386,9,1,1,-0.562962956,0.2574074,1,0,0,5.2923,Basalt_04,2,04,5,1,5.292,-0.140740712,-0.24537037,1,0,0,3.1075,Basalt_rect,2,3.108,1,0,0,0,0,1,,,,,,,,,,,,,
663295a01a39525231bede4e,SCN,2024-06-20_16h31.47.660,LearnStrategy,2023.2.3,Win32,60.24096386,9,1,2,-0.375925912,0.417592587,1,0,0,0.9572,Basalt_06,2,06,6,2,0.957,-0.119444459,-0.248148176,1,0,0,2.5951,Basalt_rect,2,2.595,1,1,0,1,0,1,,,,,,,,,,,,,
663295a01a39525231bede4e,SCN,2024-06-20_16h31.47.660,LearnStrategy,2023.2.3,Win32,60.24096386,9,1,3,-0.065740727,0.096296275,1,0,0,4.4516,Gabbro_08,4,08,4,4,4.452,0.445370427,-0.247222265,1,0,0,4.9904,Gabbro_rect,4,4.99,1,2,0,2,0,1,,,,,,,,,,,,,
663295a01a39525231bede4e,SCN,2024-06-20_16h31.47.660,LearnStrategy,2023.2.3,Win32,60.24096386,9,1,4,0.380555612,0.096296275,1,0,0,2.4233,Gabbro_11,4,11,4,7,2.423,0.405555584,-0.247222265,1,0,0,2.6283,Gabbro_rect,4,2.628,1,3,0,3,0,1,,,,,,,,,,,,,
663295a01a39525231bede4e,SCN,2024-06-20_16h31.47.660,LearnStrategy,2023.2.3,Win32,60.24096386,9,1,5,0.219444487,-0.087037051,1,0,0,2.0624,Basalt_08,2,08,3,6,2.062,-0.151851866,-0.260185171,1,0,0,1.5621,Basalt_rect,2,1.562,1,4,0,4,0,1,,,,,,,,,,,,,
663295a01a39525231bede4e,SCN,2024-06-20_16h31.47.660,LearnStrategy,2023.2.3,Win32,60.24096386,9,1,6,0.416666667,-0.264814801,1,0,0,1.2488,Basalt_09,2,09,2,7,1.249,0.405555584,-0.237037023,1,0,0,1.3282,Gabbro_rect,4,1.328,0,5,0,5,0,1,,,,,,,,,,,,,
663295a01a39525231bede4e,SCN,2024-06-20_16h31.47.660,LearnStrategy,2023.2.3,Win32,60.24096386,9,1,7,0.57685188,-0.416666667,1,0,0,2.4761,Andesite_01,1,01,1,8,2.476,-0.372222229,-0.238888917,1,0,0,5.0456,Andesite_rect,1,5.046,1,6,0,6,0,1,,,,,,,,,,,,,
663295a01a39525231bede4e,SCN,2024-06-20_16h31.47.660,LearnStrategy,2023.2.3,Win32,60.24096386,9,1,8,-0.074074074,-0.39444443,1,0,0,3.3067,Basalt_16,2,16,1,4,3.307,0.376851824,-0.243518547,1,0,0,3.2948,Gabbro_rect,4,3.295,0,7,0,7,0,1,,,,,,,,,,,,,
663295a01a39525231bede4e,SCN,2024-06-20_16h31.47.660,LearnStrategy,2023.2.3,Win32,60.24096386,9,1,9,-0.551851838,-0.114814829,1,0,0,6.4297,Diorite_11,3,11,3,1,6.43,0.140740783,-0.25462963,1,0,0,1.4738,Diorite_rect,3,1.474,1,8,0,8,0,1,,,,,,,,,,,,,
663295a01a39525231bede4e,SCN,2024-06-20_16h31.47.660,LearnStrategy,2023.2.3,Win32,60.24096386,9,1,10,0.549074102,-0.097222222,1,0,0,2.1652,Andesite_02,1,02,3,8,2.165,-0.425925926,-0.235185199,1,0,0,2.4438,Andesite_rect,1,2.444,1,9,0,9,0,1,,,,,,,,,,,,,
663295a01a39525231bede4e,SCN,2024-06-20_16h31.47.660,LearnStrategy,2023.2.3,Win32,60.24096386,9,1,11,0.395370342,0.091666645,1,0,0,4.0645,Gabbro_11,4,11,4,7,4.064,0.400925954,-0.234259288,1,0,0,2.107,Gabbro_rect,4,2.107,1,10,0,10,0,1,,,,,,,,,,,,,
663295a01a39525231bede4e,SCN,2024-06-20_16h31.47.660,LearnStrategy,2023.2.3,Win32,60.24096386,9,1,12,-0.07222218,-0.093518504,1,0,0,1.3142,Gabbro_12,4,12,3,4,1.314,0.366666723,-0.247222265,1,0,0,2.6795,Gabbro_rect,4,2.679,1,11,0,11,0,1,,,,,,,,,,,,,
663295a01a39525231bede4e,SCN,2024-06-20_16h31.47.660,LearnStrategy,2023.2.3,Win32,60.24096386,9,1,13,-0.083333333,-0.244444459,1,0,0,2.4958,Diorite_09,3,09,2,4,2.496,0.079629616,-0.238888917,1,0,0,2.0288,Diorite_rect,3,2.029,1,12,0,12,0,1,,,,,,,,,,,,,
663295a01a39525231bede4e,SCN,2024-06-20_16h31.47.660,LearnStrategy,2023.2.3,Win32,60.24096386,9,1,14,-0.398148148,-0.260185171,1,0,0,2.0909,Diorite_10,3,10,2,2,2.091,0.169444473,-0.24537037,1,0,0,1.6762,Diorite_rect,3,1.676,1,13,0,13,0,1,,,,,,,,,,,,,
663295a01a39525231bede4e,SCN,2024-06-20_16h31.47.660,LearnStrategy,2023.2.3,Win32,60.24096386,9,1,15,0.412963019,0.10833334,1,0,0,4.5245,Gabbro_11,4,11,4,7,4.524,0.415740826,-0.248148176,1,0,0,4.6235,Gabbro_rect,4,4.623,1,14,0,14,0,1,,,,,,,,,,,,,
663295a01a39525231bede4e,SCN,2024-06-20_16h31.47.660,LearnStrategy,2023.2.3,Win32,60.24096386,9,1,16,0.059259273,-0.101851852,1,0,0,2.2797,Diorite_08,3,08,3,5,2.28,0.140740783,-0.262037065,1,0,0,6.7912,Diorite_rect,3,6.791,1,15,0,15,0,1,,,,,,,,,,,,,
663295a01a39525231bede4e,SCN,2024-06-20_16h31.47.660,LearnStrategy,2023.2.3,Win32,60.24096386,9,2,1,,,,,,,,1,05,,,,,,,,,,,3,11.325,0,,,,,,0.115740741,-0.260185171,1,0,0,11.3255,Diorite_rect,0,0,0,0,1,
663295a01a39525231bede4e,SCN,2024-06-20_16h31.47.660,LearnStrategy,2023.2.3,Win32,60.24096386,9,2,2,,,,,,,,7,05,,,,,,,,,,,7,2.711,1,,,,,,0.108333376,-0.412037037,1,0,0,2.7106,Peridotite_rect,1,0,1,0,1,
663295a01a39525231bede4e,SCN,2024-06-20_16h31.47.660,LearnStrategy,2023.2.3,Win32,60.24096386,9,2,3,,,,,,,,5,16,,,,,,,,,,,5,2.41,1,,,,,,-0.400000007,-0.412037037,1,0,0,2.4104,Obsidian_rect,2,0,2,0,1,
663295a01a39525231bede4e,SCN,2024-06-20_16h31.47.660,LearnStrategy,2023.2.3,Win32,60.24096386,9,2,4,,,,,,,,2,01,,,,,,,,,,,4,8.085,0,,,,,,0.430555556,-0.248148176,1,0,0,8.0853,Gabbro_rect,3,0,3,0,1,
663295a01a39525231bede4e,SCN,2024-06-20_16h31.47.660,LearnStrategy,2023.2.3,Win32,60.24096386,9,2,5,,,,,,,,3,16,,,,,,,,,,,3,1.842,1,,,,,,0.148148148,-0.255555541,1,0,0,1.8423,Diorite_rect,4,0,4,0,1,
663295a01a39525231bede4e,SCN,2024-06-20_16h31.47.660,LearnStrategy,2023.2.3,Win32,60.24096386,9,2,6,,,,,,,,1,03,,,,,,,,,,,1,9.58,1,,,,,,-0.408333319,-0.248148176,1,0,0,9.5799,Andesite_rect,5,0,5,0,1,
663295a01a39525231bede4e,SCN,2024-06-20_16h31.47.660,LearnStrategy,2023.2.3,Win32,60.24096386,9,2,7,,,,,,,,8,15,,,,,,,,,,,8,1.728,1,,,,,,0.367592564,-0.412037037,1,0,0,1.7282,Pumice_rect,6,0,6,0,1,
663295a01a39525231bede4e,SCN,2024-06-20_16h31.47.660,LearnStrategy,2023.2.3,Win32,60.24096386,9,2,8,,,,,,,,7,10,,,,,,,,,,,7,2.392,1,,,,,,0.122222265,-0.416666667,1,0,0,2.3922,Peridotite_rect,7,0,7,0,1,
663295a01a39525231bede4e,SCN,2024-06-20_16h31.47.660,LearnStrategy,2023.2.3,Win32,60.24096386,9,2,9,,,,,,,,2,10,,,,,,,,,,,2,3.809,1,,,,,,-0.116666653,-0.255555541,1,0,0,3.8087,Basalt_rect,8,0,8,0,1,
663295a01a39525231bede4e,SCN,2024-06-20_16h31.47.660,LearnStrategy,2023.2.3,Win32,60.24096386,9,2,10,,,,,,,,8,02,,,,,,,,,,,8,9.031,1,,,,,,0.382407436,-0.398148148,1,0,0,9.031,Pumice_rect,9,0,9,0,1,
663295a01a39525231bede4e,SCN,2024-06-20_16h31.47.660,LearnStrategy,2023.2.3,Win32,60.24096386,9,2,11,,,,,,,,6,13,,,,,,,,,,,6,2.859,1,,,,,,-0.147222236,-0.400000042,1,0,0,2.8586,Pegmatite_rect,10,0,10,0,1,
663295a01a39525231bede4e,SCN,2024-06-20_16h31.47.660,LearnStrategy,2023.2.3,Win32,60.24096386,9,2,12,,,,,,,,4,05,,,,,,,,,,,4,3.225,1,,,,,,0.375925982,-0.253703718,1,0,0,3.2249,Gabbro_rect,11,0,11,0,1,
663295a01a39525231bede4e,SCN,2024-06-20_16h31.47.660,LearnStrategy,2023.2.3,Win32,60.24096386,9,2,13,,,,,,,,3,12,,,,,,,,,,,3,3.579,1,,,,,,0.14907406,-0.241666653,1,0,0,3.5795,Diorite_rect,12,0,12,0,1,
663295a01a39525231bede4e,SCN,2024-06-20_16h31.47.660,LearnStrategy,2023.2.3,Win32,60.24096386,9,2,14,,,,,,,,5,07,,,,,,,,,,,5,2.611,1,,,,,,-0.433333326,-0.40370369,1,0,0,2.611,Obsidian_rect,13,0,13,0,1,
663295a01a39525231bede4e,SCN,2024-06-20_16h31.47.660,LearnStrategy,2023.2.3,Win32,60.24096386,9,2,15,,,,,,,,6,03,,,,,,,,,,,6,5.943,1,,,,,,-0.110185199,-0.400000042,1,0,0,5.9433,Pegmatite_rect,14,0,14,0,1,
663295a01a39525231bede4e,SCN,2024-06-20_16h31.47.660,LearnStrategy,2023.2.3,Win32,60.24096386,9,2,16,,,,,,,,4,16,,,,,,,,,,,2,7.891,0,,,,,,-0.14907406,-0.237963005,1,0,0,7.8912,Basalt_rect,15,0,15,0,1,
663295a01a39525231bede4e,SCN,2024-06-20_16h31.47.660,LearnStrategy,2023.2.3,Win32,60.24096386,,,,,,,,,,,,,,,,,,,,,,,,,,,,,,,,,,,,,,,,,,,1
663295a01a39525231bede4e,SCN,2024-06-20_16h31.47.660,LearnStrategy,2023.2.3,Win32,60.24096386,,,,,,,,,,,,,,,,,,,,,,,,,,,,,,,,,,,,,,,,,,,
663295a01a39525231bede4e,SCN,2024-06-20_16h31.47.660,LearnStrategy,2023.2.3,Win32,60.24096386,,,,,,,,,,,6,08,1,1,,,,,,,,,,,,,,,,,,,,,,,,,,,,,
663295a01a39525231bede4e,SCN,2024-06-20_16h31.47.660,LearnStrategy,2023.2.3,Win32,60.24096386,,,,,,,,,,,5,09,1,2,,,,,,,,,,,,,,,,,,,,,,,,,,,,,
663295a01a39525231bede4e,SCN,2024-06-20_16h31.47.660,LearnStrategy,2023.2.3,Win32,60.24096386,,,,,,,,,,,6,06,1,3,,,,,,,,,,,,,,,,,,,,,,,,,,,,,
663295a01a39525231bede4e,SCN,2024-06-20_16h31.47.660,LearnStrategy,2023.2.3,Win32,60.24096386,,,,,,,,,,,2,16,1,4,,,,,,,,,,,,,,,,,,,,,,,,,,,,,
663295a01a39525231bede4e,SCN,2024-06-20_16h31.47.660,LearnStrategy,2023.2.3,Win32,60.24096386,,,,,,,,,,,6,11,1,5,,,,,,,,,,,,,,,,,,,,,,,,,,,,,
663295a01a39525231bede4e,SCN,2024-06-20_16h31.47.660,LearnStrategy,2023.2.3,Win32,60.24096386,,,,,,,,,,,4,14,1,6,,,,,,,,,,,,,,,,,,,,,,,,,,,,,
663295a01a39525231bede4e,SCN,2024-06-20_16h31.47.660,LearnStrategy,2023.2.3,Win32,60.24096386,,,,,,,,,,,7,13,1,7,,,,,,,,,,,,,,,,,,,,,,,,,,,,,
663295a01a39525231bede4e,SCN,2024-06-20_16h31.47.660,LearnStrategy,2023.2.3,Win32,60.24096386,,,,,,,,,,,1,01,1,8,,,,,,,,,,,,,,,,,,,,,,,,,,,,,
663295a01a39525231bede4e,SCN,2024-06-20_16h31.47.660,LearnStrategy,2023.2.3,Win32,60.24096386,,,,,,,,,,,7,07,2,1,,,,,,,,,,,,,,,,,,,,,,,,,,,,,
663295a01a39525231bede4e,SCN,2024-06-20_16h31.47.660,LearnStrategy,2023.2.3,Win32,60.24096386,,,,,,,,,,,3,10,2,2,,,,,,,,,,,,,,,,,,,,,,,,,,,,,
663295a01a39525231bede4e,SCN,2024-06-20_16h31.47.660,LearnStrategy,2023.2.3,Win32,60.24096386,,,,,,,,,,,8,13,2,3,,,,,,,,,,,,,,,,,,,,,,,,,,,,,
663295a01a39525231bede4e,SCN,2024-06-20_16h31.47.660,LearnStrategy,2023.2.3,Win32,60.24096386,,,,,,,,,,,3,09,2,4,,,,,,,,,,,,,,,,,,,,,,,,,,,,,
663295a01a39525231bede4e,SCN,2024-06-20_16h31.47.660,LearnStrategy,2023.2.3,Win32,60.24096386,,,,,,,,,,,6,05,2,5,,,,,,,,,,,,,,,,,,,,,,,,,,,,,
663295a01a39525231bede4e,SCN,2024-06-20_16h31.47.660,LearnStrategy,2023.2.3,Win32,60.24096386,,,,,,,,,,,6,15,2,6,,,,,,,,,,,,,,,,,,,,,,,,,,,,,
663295a01a39525231bede4e,SCN,2024-06-20_16h31.47.660,LearnStrategy,2023.2.3,Win32,60.24096386,,,,,,,,,,,2,09,2,7,,,,,,,,,,,,,,,,,,,,,,,,,,,,,
663295a01a39525231bede4e,SCN,2024-06-20_16h31.47.660,LearnStrategy,2023.2.3,Win32,60.24096386,,,,,,,,,,,7,04,2,8,,,,,,,,,,,,,,,,,,,,,,,,,,,,,
663295a01a39525231bede4e,SCN,2024-06-20_16h31.47.660,LearnStrategy,2023.2.3,Win32,60.24096386,,,,,,,,,,,3,11,3,1,,,,,,,,,,,,,,,,,,,,,,,,,,,,,
663295a01a39525231bede4e,SCN,2024-06-20_16h31.47.660,LearnStrategy,2023.2.3,Win32,60.24096386,,,,,,,,,,,1,09,3,2,,,,,,,,,,,,,,,,,,,,,,,,,,,,,
663295a01a39525231bede4e,SCN,2024-06-20_16h31.47.660,LearnStrategy,2023.2.3,Win32,60.24096386,,,,,,,,,,,5,10,3,3,,,,,,,,,,,,,,,,,,,,,,,,,,,,,
663295a01a39525231bede4e,SCN,2024-06-20_16h31.47.660,LearnStrategy,2023.2.3,Win32,60.24096386,,,,,,,,,,,4,12,3,4,,,,,,,,,,,,,,,,,,,,,,,,,,,,,
663295a01a39525231bede4e,SCN,2024-06-20_16h31.47.660,LearnStrategy,2023.2.3,Win32,60.24096386,,,,,,,,,,,3,08,3,5,,,,,,,,,,,,,,,,,,,,,,,,,,,,,
663295a01a39525231bede4e,SCN,2024-06-20_16h31.47.660,LearnStrategy,2023.2.3,Win32,60.24096386,,,,,,,,,,,2,08,3,6,,,,,,,,,,,,,,,,,,,,,,,,,,,,,
663295a01a39525231bede4e,SCN,2024-06-20_16h31.47.660,LearnStrategy,2023.2.3,Win32,60.24096386,,,,,,,,,,,2,05,3,7,,,,,,,,,,,,,,,,,,,,,,,,,,,,,
663295a01a39525231bede4e,SCN,2024-06-20_16h31.47.660,LearnStrategy,2023.2.3,Win32,60.24096386,,,,,,,,,,,1,02,3,8,,,,,,,,,,,,,,,,,,,,,,,,,,,,,
663295a01a39525231bede4e,SCN,2024-06-20_16h31.47.660,LearnStrategy,2023.2.3,Win32,60.24096386,,,,,,,,,,,8,08,4,1,,,,,,,,,,,,,,,,,,,,,,,,,,,,,
663295a01a39525231bede4e,SCN,2024-06-20_16h31.47.660,LearnStrategy,2023.2.3,Win32,60.24096386,,,,,,,,,,,1,06,4,2,,,,,,,,,,,,,,,,,,,,,,,,,,,,,
663295a01a39525231bede4e,SCN,2024-06-20_16h31.47.660,LearnStrategy,2023.2.3,Win32,60.24096386,,,,,,,,,,,5,12,4,3,,,,,,,,,,,,,,,,,,,,,,,,,,,,,
663295a01a39525231bede4e,SCN,2024-06-20_16h31.47.660,LearnStrategy,2023.2.3,Win32,60.24096386,,,,,,,,,,,4,08,4,4,,,,,,,,,,,,,,,,,,,,,,,,,,,,,
663295a01a39525231bede4e,SCN,2024-06-20_16h31.47.660,LearnStrategy,2023.2.3,Win32,60.24096386,,,,,,,,,,,8,04,4,5,,,,,,,,,,,,,,,,,,,,,,,,,,,,,
663295a01a39525231bede4e,SCN,2024-06-20_16h31.47.660,LearnStrategy,2023.2.3,Win32,60.24096386,,,,,,,,,,,5,02,4,6,,,,,,,,,,,,,,,,,,,,,,,,,,,,,
663295a01a39525231bede4e,SCN,2024-06-20_16h31.47.660,LearnStrategy,2023.2.3,Win32,60.24096386,,,,,,,,,,,4,11,4,7,,,,,,,,,,,,,,,,,,,,,,,,,,,,,
663295a01a39525231bede4e,SCN,2024-06-20_16h31.47.660,LearnStrategy,2023.2.3,Win32,60.24096386,,,,,,,,,,,1,16,4,8,,,,,,,,,,,,,,,,,,,,,,,,,,,,,
663295a01a39525231bede4e,SCN,2024-06-20_16h31.47.660,LearnStrategy,2023.2.3,Win32,60.24096386,,,,,,,,,,,2,04,5,1,,,,,,,,,,,,,,,,,,,,,,,,,,,,,
663295a01a39525231bede4e,SCN,2024-06-20_16h31.47.660,LearnStrategy,2023.2.3,Win32,60.24096386,,,,,,,,,,,4,13,5,2,,,,,,,,,,,,,,,,,,,,,,,,,,,,,
663295a01a39525231bede4e,SCN,2024-06-20_16h31.47.660,LearnStrategy,2023.2.3,Win32,60.24096386,,,,,,,,,,,4,10,5,3,,,,,,,,,,,,,,,,,,,,,,,,,,,,,
663295a01a39525231bede4e,SCN,2024-06-20_16h31.47.660,LearnStrategy,2023.2.3,Win32,60.24096386,,,,,,,,,,,7,16,5,4,,,,,,,,,,,,,,,,,,,,,,,,,,,,,
663295a01a39525231bede4e,SCN,2024-06-20_16h31.47.660,LearnStrategy,2023.2.3,Win32,60.24096386,,,,,,,,,,,1,11,5,5,,,,,,,,,,,,,,,,,,,,,,,,,,,,,
663295a01a39525231bede4e,SCN,2024-06-20_16h31.47.660,LearnStrategy,2023.2.3,Win32,60.24096386,,,,,,,,,,,6,09,5,6,,,,,,,,,,,,,,,,,,,,,,,,,,,,,
663295a01a39525231bede4e,SCN,2024-06-20_16h31.47.660,LearnStrategy,2023.2.3,Win32,60.24096386,,,,,,,,,,,7,14,5,7,,,,,,,,,,,,,,,,,,,,,,,,,,,,,
663295a01a39525231bede4e,SCN,2024-06-20_16h31.47.660,LearnStrategy,2023.2.3,Win32,60.24096386,,,,,,,,,,,8,05,5,8,,,,,,,,,,,,,,,,,,,,,,,,,,,,,
663295a01a39525231bede4e,SCN,2024-06-20_16h31.47.660,LearnStrategy,2023.2.3,Win32,60.24096386,,,,,,,,,,,5,06,6,1,,,,,,,,,,,,,,,,,,,,,,,,,,,,,
663295a01a39525231bede4e,SCN,2024-06-20_16h31.47.660,LearnStrategy,2023.2.3,Win32,60.24096386,,,,,,,,,,,2,06,6,2,,,,,,,,,,,,,,,,,,,,,,,,,,,,,
663295a01a39525231bede4e,SCN,2024-06-20_16h31.47.660,LearnStrategy,2023.2.3,Win32,60.24096386,,,,,,,,,,,3,15,6,3,,,,,,,,,,,,,,,,,,,,,,,,,,,,,
663295a01a39525231bede4e,SCN,2024-06-20_16h31.47.660,LearnStrategy,2023.2.3,Win32,60.24096386,,,,,,,,,,,7,12,6,4,,,,,,,,,,,,,,,,,,,,,,,,,,,,,
663295a01a39525231bede4e,SCN,2024-06-20_16h31.47.660,LearnStrategy,2023.2.3,Win32,60.24096386,,,,,,,,,,,5,11,6,5,,,,,,,,,,,,,,,,,,,,,,,,,,,,,
663295a01a39525231bede4e,SCN,2024-06-20_16h31.47.660,LearnStrategy,2023.2.3,Win32,60.24096386,,,,,,,,,,,8,14,6,6,,,,,,,,,,,,,,,,,,,,,,,,,,,,,
663295a01a39525231bede4e,SCN,2024-06-20_16h31.47.660,LearnStrategy,2023.2.3,Win32,60.24096386,,,,,,,,,,,8,03,6,7,,,,,,,,,,,,,,,,,,,,,,,,,,,,,
663295a01a39525231bede4e,SCN,2024-06-20_16h31.47.660,LearnStrategy,2023.2.3,Win32,60.24096386,,,,,,,,,,,3,14,6,8,,,,,,,,,,,,,,,,,,,,,,,,,,,,,