participant,condition,date,expName,psychopyVersion,OS,frameRate,block,phase,trial,learn_mouse.x,learn_mouse.y,learn_mouse.leftButton,learn_mouse.midButton,learn_mouse.rightButton,learn_mouse.time,learn_mouse.clicked_name,cat,token,row,col,t_select,cat_rec,token_rec,cat_mouse_l.x,cat_mouse_l.y,cat_mouse_l.leftButton,cat_mouse_l.midButton,cat_mouse_l.rightButton,cat_mouse_l.time,cat_mouse_l.clicked_name,resp,t_resp,corr,train_trials.thisRepN,train_trials.thisTrialN,train_trials.thisN,train_trials.thisIndex,train_trials.ran,cat_mouse_t.x,cat_mouse_t.y,cat_mouse_t.leftButton,cat_mouse_t.midButton,cat_mouse_t.rightButton,cat_mouse_t.time,cat_mouse_t.clicked_name,test_trials.thisRepN,test_trials.thisTrialN,test_trials.thisN,test_trials.thisIndex,test_trials.ran,Bonus
663282cdd80779eca86e436d,SCR,2024-06-24_19h47.38.365,LearnStrategy,2023.2.3,Win32,60.24096386,,,,,,,,,,,,,,,,,,,,,,,,,,,,,,,,,,,,,,,,,,,,,
663282cdd80779eca86e436d,SCR,2024-06-24_19h47.38.365,LearnStrategy,2023.2.3,Win32,60.24096386,1,1,1,-0.236805545,0.108333323,1,0,0,8.8507,Diorite_02,3,02,4,3,8.851,6,03,0.137500021,-0.39652782,1,0,0,15.123,Peridotite_rect,7,15.123,0,0,0,0,0,1,,,,,,,,,,,,,
663282cdd80779eca86e436d,SCR,2024-06-24_19h47.38.365,LearnStrategy,2023.2.3,Win32,60.24096386,1,1,2,0.232638889,-0.106944455,1,0,0,3.664,Peridotite_13,7,13,3,6,3.664,1,02,0.441666709,-0.253472222,1,0,0,6.4891,Gabbro_rect,4,6.489,0,1,0,1,0,1,,,,,,,,,,,,,
663282cdd80779eca86e436d,SCR,2024-06-24_19h47.38.365,LearnStrategy,2023.2.3,Win32,60.24096386,1,1,3,-0.057638857,0.416666667,1,0,0,6.1273,Andesite_01,1,01,6,4,6.127,7,13,0.359722243,-0.402777778,1,0,0,5.3399,Pumice_rect,8,5.34,0,2,0,2,0,1,,,,,,,,,,,,,
663282cdd80779eca86e436d,SCR,2024-06-24_19h47.38.365,LearnStrategy,2023.2.3,Win32,60.24096386,1,1,4,0.53611109,-0.441666709,1,0,0,4.7131,Diorite_10,3,10,1,8,4.713,1,14,-0.068055524,-0.247222212,1,0,0,7.5071,Basalt_rect,2,7.507,0,3,0,3,0,1,,,,,,,,,,,,,
663282cdd80779eca86e436d,SCR,2024-06-24_19h47.38.365,LearnStrategy,2023.2.3,Win32,60.24096386,1,1,5,-0.085416635,-0.104861101,1,0,0,1.6782,Basalt_16,2,16,3,4,1.678,5,14,-0.093055566,-0.393749979,1,0,0,5.6126,Pegmatite_rect,6,5.613,0,4,0,4,0,1,,,,,,,,,,,,,
663282cdd80779eca86e436d,SCR,2024-06-24_19h47.38.365,LearnStrategy,2023.2.3,Win32,60.24096386,1,1,6,-0.549305558,0.109027783,1,0,0,3.3194,Obsidian_07,5,07,4,1,3.319,8,04,0.39166673,-0.405555619,1,0,0,3.9158,Pumice_rect,8,3.916,0,5,0,5,0,1,,,,,,,,,,,,,
663282cdd80779eca86e436d,SCR,2024-06-24_19h47.38.365,LearnStrategy,2023.2.3,Win32,60.24096386,1,1,7,0.400694423,0.43263889,1,0,0,4.871,Gabbro_01,4,01,6,7,4.871,4,01,-0.376388894,-0.231250021,1,0,0,6.8953,Andesite_rect,1,6.895,0,6,0,6,0,1,,,,,,,,,,,,,
663282cdd80779eca86e436d,SCR,2024-06-24_19h47.38.365,LearnStrategy,2023.2.3,Win32,60.24096386,1,1,8,-0.522222228,-0.411805577,1,0,0,5.1829,Diorite_14,3,14,1,1,5.183,4,14,-0.418055561,-0.24513891,1,0,0,7.0392,Andesite_rect,1,7.039,0,7,0,7,0,1,,,,,,,,,,,,,
663282cdd80779eca86e436d,SCR,2024-06-24_19h47.38.365,LearnStrategy,2023.2.3,Win32,60.24096386,1,1,9,0.247916645,-0.139583323,1,0,0,1.7819,Peridotite_13,7,13,3,6,1.782,3,11,0.133333365,-0.404861132,1,0,0,11.0201,Peridotite_rect,7,11.02,1,8,0,8,0,1,,,,,,,,,,,,,
663282cdd80779eca86e436d,SCR,2024-06-24_19h47.38.365,LearnStrategy,2023.2.3,Win32,60.24096386,1,1,10,-0.415972206,0.257638878,1,0,0,5.2571,Obsidian_11,5,11,5,2,5.257,2,09,0.410416709,-0.415972286,1,0,0,10.6238,Pumice_rect,8,10.624,0,9,0,9,0,1,,,,,,,,,,,,,
663282cdd80779eca86e436d,SCR,2024-06-24_19h47.38.365,LearnStrategy,2023.2.3,Win32,60.24096386,1,1,11,0.092361132,-0.114583333,1,0,0,2.0421,Obsidian_16,5,16,3,5,2.042,2,06,-0.089583344,-0.405555619,1,0,0,3.9295,Pegmatite_rect,6,3.929,0,10,0,10,0,1,,,,,,,,,,,,,
663282cdd80779eca86e436d,SCR,2024-06-24_19h47.38.365,LearnStrategy,2023.2.3,Win32,60.24096386,1,1,12,0.555555556,0.27569445,1,0,0,1.4845,Basalt_06,2,06,5,8,1.485,7,07,-0.072222233,-0.268055545,1,0,0,5.5911,Basalt_rect,2,5.591,1,11,0,11,0,1,,,,,,,,,,,,,
663282cdd80779eca86e436d,SCR,2024-06-24_19h47.38.365,LearnStrategy,2023.2.3,Win32,60.24096386,1,1,13,0.535416709,0.08819445,1,0,0,2.4563,Peridotite_16,7,16,4,8,2.456,3,12,0.416666667,-0.259027799,1,0,0,3.933,Gabbro_rect,4,3.933,0,12,0,12,0,1,,,,,,,,,,,,,
663282cdd80779eca86e436d,SCR,2024-06-24_19h47.38.365,LearnStrategy,2023.2.3,Win32,60.24096386,1,1,14,-0.073611101,0.270138873,1,0,0,1.4329,Pumice_04,8,04,5,4,1.433,5,07,-0.364583333,-0.264583323,1,0,0,3.8068,Andesite_rect,1,3.807,0,13,0,13,0,1,,,,,,,,,,,,,
663282cdd80779eca86e436d,SCR,2024-06-24_19h47.38.365,LearnStrategy,2023.2.3,Win32,60.24096386,1,1,15,-0.208333333,0.28680555,1,0,0,3.3837,Pumice_02,8,02,5,3,3.384,6,11,-0.399305556,-0.231250021,1,0,0,6.5958,Andesite_rect,1,6.596,0,14,0,14,0,1,,,,,,,,,,,,,
663282cdd80779eca86e436d,SCR,2024-06-24_19h47.38.365,LearnStrategy,2023.2.3,Win32,60.24096386,1,1,16,0.388194508,-0.268055545,1,0,0,3.0247,Pegmatite_09,6,09,2,7,3.025,8,02,-0.324305561,-0.397222201,1,0,0,9.0948,Obsidian_rect,5,9.095,0,15,0,15,0,1,,,,,,,,,,,,,
663282cdd80779eca86e436d,SCR,2024-06-24_19h47.38.365,LearnStrategy,2023.2.3,Win32,60.24096386,1,2,1,,,,,,,,4,09,,,,,,,,,,,,,1,20.48,0,,,,,,-0.393055545,-0.264583323,1,0,0,20.4803,Andesite_rect,0,0,0,0,1,
663282cdd80779eca86e436d,SCR,2024-06-24_19h47.38.365,LearnStrategy,2023.2.3,Win32,60.24096386,1,2,2,,,,,,,,7,14,,,,,,,,,,,,,7,6.636,1,,,,,,0.114583333,-0.381250011,1,0,0,6.6365,Peridotite_rect,1,0,1,0,1,
663282cdd80779eca86e436d,SCR,2024-06-24_19h47.38.365,LearnStrategy,2023.2.3,Win32,60.24096386,1,2,3,,,,,,,,6,13,,,,,,,,,,,,,6,20.076,1,,,,,,-0.190277788,-0.404166645,1,0,0,20.0755,Pegmatite_rect,2,0,2,0,1,
663282cdd80779eca86e436d,SCR,2024-06-24_19h47.38.365,LearnStrategy,2023.2.3,Win32,60.24096386,1,2,4,,,,,,,,7,10,,,,,,,,,,,,,7,10.658,1,,,,,,0.130555577,-0.413194444,1,0,0,10.6578,Peridotite_rect,3,0,3,0,1,
663282cdd80779eca86e436d,SCR,2024-06-24_19h47.38.365,LearnStrategy,2023.2.3,Win32,60.24096386,1,2,5,,,,,,,,1,09,,,,,,,,,,,,,4,8.485,0,,,,,,0.417361153,-0.251388921,1,0,0,8.4853,Gabbro_rect,4,0,4,0,1,
663282cdd80779eca86e436d,SCR,2024-06-24_19h47.38.365,LearnStrategy,2023.2.3,Win32,60.24096386,1,2,6,,,,,,,,3,07,,,,,,,,,,,,,3,14.348,1,,,,,,0.161805577,-0.240277767,1,0,0,14.348,Diorite_rect,5,0,5,0,1,
663282cdd80779eca86e436d,SCR,2024-06-24_19h47.38.365,LearnStrategy,2023.2.3,Win32,60.24096386,1,2,7,,,,,,,,4,05,,,,,,,,,,,,,1,16.459,0,,,,,,-0.347916656,-0.263194455,1,0,0,16.4589,Andesite_rect,6,0,6,0,1,
663282cdd80779eca86e436d,SCR,2024-06-24_19h47.38.365,LearnStrategy,2023.2.3,Win32,60.24096386,1,2,8,,,,,,,,3,16,,,,,,,,,,,,,3,9.741,1,,,,,,0.14652782,-0.234722243,1,0,0,9.7408,Diorite_rect,7,0,7,0,1,
663282cdd80779eca86e436d,SCR,2024-06-24_19h47.38.365,LearnStrategy,2023.2.3,Win32,60.24096386,1,2,9,,,,,,,,2,02,,,,,,,,,,,,,6,5.971,0,,,,,,-0.122222212,-0.395138952,1,0,0,5.9705,Pegmatite_rect,8,0,8,0,1,
663282cdd80779eca86e436d,SCR,2024-06-24_19h47.38.365,LearnStrategy,2023.2.3,Win32,60.24096386,1,2,10,,,,,,,,8,03,,,,,,,,,,,,,8,16.297,1,,,,,,0.404861132,-0.397222201,1,0,0,16.297,Pumice_rect,9,0,9,0,1,
663282cdd80779eca86e436d,SCR,2024-06-24_19h47.38.365,LearnStrategy,2023.2.3,Win32,60.24096386,1,2,11,,,,,,,,5,10,,,,,,,,,,,,,5,8.164,1,,,,,,-0.375,-0.394444466,1,0,0,8.1636,Obsidian_rect,10,0,10,0,1,
663282cdd80779eca86e436d,SCR,2024-06-24_19h47.38.365,LearnStrategy,2023.2.3,Win32,60.24096386,1,2,12,,,,,,,,1,06,,,,,,,,,,,,,3,5.409,0,,,,,,0.136805587,-0.230555587,1,0,0,5.4093,Diorite_rect,11,0,11,0,1,
663282cdd80779eca86e436d,SCR,2024-06-24_19h47.38.365,LearnStrategy,2023.2.3,Win32,60.24096386,1,2,13,,,,,,,,6,05,,,,,,,,,,,,,4,4.513,0,,,,,,0.451388889,-0.259722233,1,0,0,4.5132,Gabbro_rect,12,0,12,0,1,
663282cdd80779eca86e436d,SCR,2024-06-24_19h47.38.365,LearnStrategy,2023.2.3,Win32,60.24096386,1,2,14,,,,,,,,2,11,,,,,,,,,,,,,7,3.83,0,,,,,,0.162500064,-0.409722222,1,0,0,3.8303,Peridotite_rect,13,0,13,0,1,
663282cdd80779eca86e436d,SCR,2024-06-24_19h47.38.365,LearnStrategy,2023.2.3,Win32,60.24096386,1,2,15,,,,,,,,8,09,,,,,,,,,,,,,1,20.075,0,,,,,,-0.329861111,-0.261111101,1,0,0,20.0748,Andesite_rect,14,0,14,0,1,
663282cdd80779eca86e436d,SCR,2024-06-24_19h47.38.365,LearnStrategy,2023.2.3,Win32,60.24096386,1,2,16,,,,,,,,5,02,,,,,,,,,,,,,5,9.561,1,,,,,,-0.34375,-0.404166645,1,0,0,9.5612,Obsidian_rect,15,0,15,0,1,
663282cdd80779eca86e436d,SCR,2024-06-24_19h47.38.365,LearnStrategy,2023.2.3,Win32,60.24096386,2,1,1,-0.079861111,-0.268055545,1,0,0,5.0702,Obsidian_05,5,05,2,4,5.07,1,02,-0.361111111,-0.392361111,1,0,0,13.7845,Obsidian_rect,5,13.784,1,0,0,0,0,1,,,,,,,,,,,,,
663282cdd80779eca86e436d,SCR,2024-06-24_19h47.38.365,LearnStrategy,2023.2.3,Win32,60.24096386,2,1,2,0.531944487,0.440277775,1,0,0,5.9978,Gabbro_13,4,13,6,8,5.998,2,08,0.36041673,-0.246527778,1,0,0,3.8283,Gabbro_rect,4,3.828,1,1,0,1,0,1,,,,,,,,,,,,,
663282cdd80779eca86e436d,SCR,2024-06-24_19h47.38.365,LearnStrategy,2023.2.3,Win32,60.24096386,2,1,3,-0.088888857,0.110416651,1,0,0,2.0514,Basalt_08,2,08,4,4,2.051,6,11,0.194444444,-0.412500064,1,0,0,6.057,Peridotite_rect,7,6.057,0,2,0,2,0,1,,,,,,,,,,,,,
663282cdd80779eca86e436d,SCR,2024-06-24_19h47.38.365,LearnStrategy,2023.2.3,Win32,60.24096386,2,1,4,-0.40625,0.252777762,1,0,0,2.1579,Obsidian_11,5,11,5,2,2.158,4,14,-0.365972228,-0.40138891,1,0,0,7.3019,Obsidian_rect,5,7.302,1,3,0,3,0,1,,,,,,,,,,,,,
663282cdd80779eca86e436d,SCR,2024-06-24_19h47.38.365,LearnStrategy,2023.2.3,Win32,60.24096386,2,1,5,0.069444444,-0.10902781,1,0,0,1.4047,Obsidian_16,5,16,3,5,1.405,8,15,-0.345138894,-0.398611175,1,0,0,1.292,Obsidian_rect,5,1.292,1,4,0,4,0,1,,,,,,,,,,,,,
663282cdd80779eca86e436d,SCR,2024-06-24_19h47.38.365,LearnStrategy,2023.2.3,Win32,60.24096386,2,1,6,-0.399999989,-0.280555566,1,0,0,2.5808,Basalt_09,2,09,2,2,2.581,1,14,-0.156944434,-0.255555577,1,0,0,3.1822,Basalt_rect,2,3.182,1,5,0,5,0,1,,,,,,,,,,,,,
663282cdd80779eca86e436d,SCR,2024-06-24_19h47.38.365,LearnStrategy,2023.2.3,Win32,60.24096386,2,1,7,-0.195138878,0.08819445,1,0,0,2.6346,Diorite_02,3,02,4,3,2.635,6,09,0.42777782,-0.39166673,1,0,0,2.857,Pumice_rect,8,2.857,0,6,0,6,0,1,,,,,,,,,,,,,
663282cdd80779eca86e436d,SCR,2024-06-24_19h47.38.365,LearnStrategy,2023.2.3,Win32,60.24096386,2,1,8,-0.55277778,0.108333323,1,0,0,4.6099,Obsidian_07,5,07,4,1,4.61,4,14,-0.113194413,-0.402777778,1,0,0,3.4436,Pegmatite_rect,6,3.444,0,7,0,7,0,1,,,,,,,,,,,,,
663282cdd80779eca86e436d,SCR,2024-06-24_19h47.38.365,LearnStrategy,2023.2.3,Win32,60.24096386,2,1,9,0.563194487,0.385416667,1,0,0,4.2941,Gabbro_13,4,13,6,8,4.294,4,12,0.154166645,-0.260416667,1,0,0,5.4259,Diorite_rect,3,5.426,0,8,0,8,0,1,,,,,,,,,,,,,
663282cdd80779eca86e436d,SCR,2024-06-24_19h47.38.365,LearnStrategy,2023.2.3,Win32,60.24096386,2,1,10,0.561111132,-0.098611143,1,0,0,1.9617,Pegmatite_15,6,15,3,8,1.962,2,08,-0.390277783,-0.389583376,1,0,0,6.8355,Obsidian_rect,5,6.836,0,9,0,9,0,1,,,,,,,,,,,,,
663282cdd80779eca86e436d,SCR,2024-06-24_19h47.38.365,LearnStrategy,2023.2.3,Win32,60.24096386,2,1,11,-0.370138884,-0.234722243,1,0,0,1.6924,Basalt_09,2,09,2,2,1.692,2,09,-0.104861101,-0.237500032,1,0,0,0.9978,Basalt_rect,2,0.998,1,10,0,10,0,1,,,,,,,,,,,,,
663282cdd80779eca86e436d,SCR,2024-06-24_19h47.38.365,LearnStrategy,2023.2.3,Win32,60.24096386,2,1,12,-0.243055556,-0.242361122,1,0,0,1.4768,Gabbro_12,4,12,2,3,1.477,8,04,-0.145138899,-0.25,1,0,0,1.7216,Basalt_rect,2,1.722,0,11,0,11,0,1,,,,,,,,,,,,,
663282cdd80779eca86e436d,SCR,2024-06-24_19h47.38.365,LearnStrategy,2023.2.3,Win32,60.24096386,2,1,13,-0.248611079,0.108333323,1,0,0,1.7535,Diorite_02,3,02,4,3,1.754,3,12,-0.395138873,-0.40625,1,0,0,6.1191,Obsidian_rect,5,6.119,0,12,0,12,0,1,,,,,,,,,,,,,
663282cdd80779eca86e436d,SCR,2024-06-24_19h47.38.365,LearnStrategy,2023.2.3,Win32,60.24096386,2,1,14,-0.234027757,0.116666661,1,0,0,1.4449,Diorite_02,3,02,4,3,1.445,1,01,0.106250021,-0.243749989,1,0,0,1.2871,Diorite_rect,3,1.287,1,13,0,13,0,1,,,,,,,,,,,,,
663282cdd80779eca86e436d,SCR,2024-06-24_19h47.38.365,LearnStrategy,2023.2.3,Win32,60.24096386,2,1,15,-0.073611101,-0.415277799,1,0,0,6.7117,Pumice_10,8,10,1,4,6.712,1,14,0.155555619,-0.403472265,1,0,0,2.9858,Peridotite_rect,7,2.986,0,14,0,14,0,1,,,,,,,,,,,,,
663282cdd80779eca86e436d,SCR,2024-06-24_19h47.38.365,LearnStrategy,2023.2.3,Win32,60.24096386,2,1,16,-0.068055524,0.243055556,1,0,0,4.0232,Pumice_04,8,04,5,4,4.023,4,11,0.349305577,-0.40138891,1,0,0,1.7295,Pumice_rect,8,1.729,1,15,0,15,0,1,,,,,,,,,,,,,
663282cdd80779eca86e436d,SCR,2024-06-24_19h47.38.365,LearnStrategy,2023.2.3,Win32,60.24096386,2,2,1,,,,,,,,6,12,,,,,,,,,,,,,5,12.355,0,,,,,,-0.386111101,-0.400000042,1,0,0,12.3552,Obsidian_rect,0,0,0,0,1,
663282cdd80779eca86e436d,SCR,2024-06-24_19h47.38.365,LearnStrategy,2023.2.3,Win32,60.24096386,2,2,2,,,,,,,,7,06,,,,,,,,,,,,,5,3.639,0,,,,,,-0.375694434,-0.40625,1,0,0,3.6392,Obsidian_rect,1,0,1,0,1,
663282cdd80779eca86e436d,SCR,2024-06-24_19h47.38.365,LearnStrategy,2023.2.3,Win32,60.24096386,2,2,3,,,,,,,,6,16,,,,,,,,,,,,,7,2.78,0,,,,,,0.119444476,-0.409027841,1,0,0,2.7804,Peridotite_rect,2,0,2,0,1,
663282cdd80779eca86e436d,SCR,2024-06-24_19h47.38.365,LearnStrategy,2023.2.3,Win32,60.24096386,2,2,4,,,,,,,,4,16,,,,,,,,,,,,,4,11.864,1,,,,,,0.409722222,-0.251388921,1,0,0,11.8644,Gabbro_rect,3,0,3,0,1,
663282cdd80779eca86e436d,SCR,2024-06-24_19h47.38.365,LearnStrategy,2023.2.3,Win32,60.24096386,2,2,5,,,,,,,,3,06,,,,,,,,,,,,,3,5.99,1,,,,,,0.147916688,-0.255555577,1,0,0,5.9904,Diorite_rect,4,0,4,0,1,
663282cdd80779eca86e436d,SCR,2024-06-24_19h47.38.365,LearnStrategy,2023.2.3,Win32,60.24096386,2,2,6,,,,,,,,8,13,,,,,,,,,,,,,8,9.487,1,,,,,,0.379166709,-0.413888931,1,0,0,9.4874,Pumice_rect,5,0,5,0,1,
663282cdd80779eca86e436d,SCR,2024-06-24_19h47.38.365,LearnStrategy,2023.2.3,Win32,60.24096386,2,2,7,,,,,,,,1,10,,,,,,,,,,,,,4,31.642,0,,,,,,0.419444508,-0.254166656,1,0,0,31.6421,Gabbro_rect,6,0,6,0,1,
663282cdd80779eca86e436d,SCR,2024-06-24_19h47.38.365,LearnStrategy,2023.2.3,Win32,60.24096386,2,2,8,,,,,,,,1,11,,,,,,,,,,,,,4,11.487,0,,,,,,0.370833397,-0.256944444,1,0,0,11.4872,Gabbro_rect,7,0,7,0,1,
663282cdd80779eca86e436d,SCR,2024-06-24_19h47.38.365,LearnStrategy,2023.2.3,Win32,60.24096386,2,2,9,,,,,,,,5,04,,,,,,,,,,,,,5,10.32,1,,,,,,-0.384027772,-0.39652782,1,0,0,10.3196,Obsidian_rect,8,0,8,0,1,
663282cdd80779eca86e436d,SCR,2024-06-24_19h47.38.365,LearnStrategy,2023.2.3,Win32,60.24096386,2,2,10,,,,,,,,7,02,,,,,,,,,,,,,3,6.256,0,,,,,,0.168055534,-0.269444466,1,0,0,6.2564,Diorite_rect,9,0,9,0,1,
663282cdd80779eca86e436d,SCR,2024-06-24_19h47.38.365,LearnStrategy,2023.2.3,Win32,60.24096386,2,2,11,,,,,,,,2,05,,,,,,,,,,,,,2,2.903,1,,,,,,-0.095138868,-0.243749989,1,0,0,2.9026,Basalt_rect,10,0,10,0,1,
663282cdd80779eca86e436d,SCR,2024-06-24_19h47.38.365,LearnStrategy,2023.2.3,Win32,60.24096386,2,2,12,,,,,,,,4,08,,,,,,,,,,,,,3,25.646,0,,,,,,0.144444466,-0.246527778,1,0,0,25.6463,Diorite_rect,11,0,11,0,1,
663282cdd80779eca86e436d,SCR,2024-06-24_19h47.38.365,LearnStrategy,2023.2.3,Win32,60.24096386,2,2,13,,,,,,,,5,12,,,,,,,,,,,,,5,4.208,1,,,,,,-0.385416667,-0.398611175,1,0,0,4.2077,Obsidian_rect,12,0,12,0,1,
663282cdd80779eca86e436d,SCR,2024-06-24_19h47.38.365,LearnStrategy,2023.2.3,Win32,60.24096386,2,2,14,,,,,,,,8,06,,,,,,,,,,,,,8,16.886,1,,,,,,0.426388952,-0.395833333,1,0,0,16.886,Pumice_rect,13,0,13,0,1,
663282cdd80779eca86e436d,SCR,2024-06-24_19h47.38.365,LearnStrategy,2023.2.3,Win32,60.24096386,2,2,15,,,,,,,,3,13,,,,,,,,,,,,,6,11.037,0,,,,,,-0.142361111,-0.390972243,1,0,0,11.0374,Pegmatite_rect,14,0,14,0,1,
663282cdd80779eca86e436d,SCR,2024-06-24_19h47.38.365,LearnStrategy,2023.2.3,Win32,60.24096386,2,2,16,,,,,,,,2,14,,,,,,,,,,,,,4,10.292,0,,,,,,0.402083397,-0.243055556,1,0,0,10.2921,Gabbro_rect,15,0,15,0,1,
663282cdd80779eca86e436d,SCR,2024-06-24_19h47.38.365,LearnStrategy,2023.2.3,Win32,60.24096386,3,1,1,-0.543749995,0.100694444,1,0,0,3.7192,Obsidian_07,5,07,4,1,3.719,7,07,-0.40555554,-0.405555619,1,0,0,60.7964,Obsidian_rect,5,60.796,1,0,0,0,0,1,,,,,,,,,,,,,
663282cdd80779eca86e436d,SCR,2024-06-24_19h47.38.365,LearnStrategy,2023.2.3,Win32,60.24096386,3,1,2,-0.284027788,0.082638873,1,0,0,1.9785,Diorite_02,3,02,4,3,1.978,4,10,0.126388921,-0.241666688,1,0,0,1.5121,Diorite_rect,3,1.512,1,1,0,1,0,1,,,,,,,,,,,,,
663282cdd80779eca86e436d,SCR,2024-06-24_19h47.38.365,LearnStrategy,2023.2.3,Win32,60.24096386,3,1,3,-0.231249968,0.079861111,1,0,0,0.8307,Diorite_02,3,02,4,3,0.831,6,09,0.136111101,-0.247916698,1,0,0,0.7832,Diorite_rect,3,0.783,1,2,0,2,0,1,,,,,,,,,,,,,
663282cdd80779eca86e436d,SCR,2024-06-24_19h47.38.365,LearnStrategy,2023.2.3,Win32,60.24096386,3,1,4,-0.199999968,0.091666672,1,0,0,0.7634,Diorite_02,3,02,4,3,0.763,8,02,0.159027841,-0.254166656,1,0,0,1.31,Diorite_rect,3,1.31,1,3,0,3,0,1,,,,,,,,,,,,,
663282cdd80779eca86e436d,SCR,2024-06-24_19h47.38.365,LearnStrategy,2023.2.3,Win32,60.24096386,3,1,5,-0.063194434,0.381944444,1,0,0,1.6396,Andesite_01,1,01,6,4,1.64,1,01,0.137500021,-0.408333355,1,0,0,2.1329,Peridotite_rect,7,2.133,0,4,0,4,0,1,,,,,,,,,,,,,
663282cdd80779eca86e436d,SCR,2024-06-24_19h47.38.365,LearnStrategy,2023.2.3,Win32,60.24096386,3,1,6,-0.10972219,0.43819444,1,0,0,1.3027,Andesite_01,1,01,6,4,1.303,6,09,-0.33819445,-0.257638878,1,0,0,1.5589,Andesite_rect,1,1.559,1,5,0,5,0,1,,,,,,,,,,,,,
663282cdd80779eca86e436d,SCR,2024-06-24_19h47.38.365,LearnStrategy,2023.2.3,Win32,60.24096386,3,1,7,-0.070833312,0.40138889,1,0,0,0.7446,Andesite_01,1,01,6,4,0.745,2,12,-0.406944434,-0.265972243,1,0,0,0.8312,Andesite_rect,1,0.831,1,6,0,6,0,1,,,,,,,,,,,,,
663282cdd80779eca86e436d,SCR,2024-06-24_19h47.38.365,LearnStrategy,2023.2.3,Win32,60.24096386,3,1,8,-0.090972212,0.409722222,1,0,0,0.7531,Andesite_01,1,01,6,4,0.753,4,01,-0.393055545,-0.261111101,1,0,0,1.1374,Andesite_rect,1,1.137,1,7,0,7,0,1,,,,,,,,,,,,,
663282cdd80779eca86e436d,SCR,2024-06-24_19h47.38.365,LearnStrategy,2023.2.3,Win32,60.24096386,3,1,9,-0.080555545,0.399999996,1,0,0,1.6983,Andesite_01,1,01,6,4,1.698,3,12,-0.404861106,-0.25,1,0,0,1.4147,Andesite_rect,1,1.415,1,8,0,8,0,1,,,,,,,,,,,,,
663282cdd80779eca86e436d,SCR,2024-06-24_19h47.38.365,LearnStrategy,2023.2.3,Win32,60.24096386,3,1,10,0.073611101,-0.089583344,1,0,0,2.9446,Obsidian_16,5,16,3,5,2.945,7,15,-0.372916672,-0.386111101,1,0,0,1.1898,Obsidian_rect,5,1.19,1,9,0,9,0,1,,,,,,,,,,,,,
663282cdd80779eca86e436d,SCR,2024-06-24_19h47.38.365,LearnStrategy,2023.2.3,Win32,60.24096386,3,1,11,-0.084027767,0.414583332,1,0,0,0.8372,Andesite_01,1,01,6,4,0.837,1,05,-0.404861106,-0.245833344,1,0,0,1.1043,Andesite_rect,1,1.104,1,10,0,10,0,1,,,,,,,,,,,,,
663282cdd80779eca86e436d,SCR,2024-06-24_19h47.38.365,LearnStrategy,2023.2.3,Win32,60.24096386,3,1,12,-0.375694434,0.231944429,1,0,0,4.3709,Obsidian_11,5,11,5,2,4.371,1,04,-0.40625,-0.411805577,1,0,0,1.0098,Obsidian_rect,5,1.01,1,11,0,11,0,1,,,,,,,,,,,,,
663282cdd80779eca86e436d,SCR,2024-06-24_19h47.38.365,LearnStrategy,2023.2.3,Win32,60.24096386,3,1,13,-0.054861122,-0.113194466,1,0,0,3.098,Basalt_16,2,16,3,4,3.098,2,16,-0.063194434,-0.252083355,1,0,0,1.7978,Basalt_rect,2,1.798,1,12,0,12,0,1,,,,,,,,,,,,,
663282cdd80779eca86e436d,SCR,2024-06-24_19h47.38.365,LearnStrategy,2023.2.3,Win32,60.24096386,3,1,14,-0.070833312,-0.268750032,1,0,0,3.9168,Obsidian_05,5,05,2,4,3.917,4,14,0.145138952,-0.250694434,1,0,0,3.3075,Diorite_rect,3,3.307,0,13,0,13,0,1,,,,,,,,,,,,,
663282cdd80779eca86e436d,SCR,2024-06-24_19h47.38.365,LearnStrategy,2023.2.3,Win32,60.24096386,3,1,15,0.079861111,-0.093055566,1,0,0,1.1084,Obsidian_16,5,16,3,5,1.108,6,09,-0.395833333,-0.394444466,1,0,0,1.0505,Obsidian_rect,5,1.051,1,14,0,14,0,1,,,,,,,,,,,,,
663282cdd80779eca86e436d,SCR,2024-06-24_19h47.38.365,LearnStrategy,2023.2.3,Win32,60.24096386,3,1,16,-0.561805553,-0.397916688,1,0,0,1.4857,Diorite_14,3,14,1,1,1.486,5,05,0.122916698,-0.261805587,1,0,0,1.5904,Diorite_rect,3,1.59,1,15,0,15,0,1,,,,,,,,,,,,,
663282cdd80779eca86e436d,SCR,2024-06-24_19h47.38.365,LearnStrategy,2023.2.3,Win32,60.24096386,3,2,1,,,,,,,,3,15,,,,,,,,,,,,,3,5.015,1,,,,,,0.036805577,-0.263888889,1,0,0,5.015,Diorite_rect,0,0,0,0,1,
663282cdd80779eca86e436d,SCR,2024-06-24_19h47.38.365,LearnStrategy,2023.2.3,Win32,60.24096386,3,2,2,,,,,,,,2,10,,,,,,,,,,,,,2,4.292,1,,,,,,-0.119444423,-0.261805587,1,0,0,4.2922,Basalt_rect,1,0,1,0,1,
663282cdd80779eca86e436d,SCR,2024-06-24_19h47.38.365,LearnStrategy,2023.2.3,Win32,60.24096386,3,2,3,,,,,,,,4,15,,,,,,,,,,,,,3,2.737,0,,,,,,0.068055577,-0.253472222,1,0,0,2.7369,Diorite_rect,2,0,2,0,1,
663282cdd80779eca86e436d,SCR,2024-06-24_19h47.38.365,LearnStrategy,2023.2.3,Win32,60.24096386,3,2,4,,,,,,,,4,03,,,,,,,,,,,,,7,4.289,0,,,,,,0.065972222,-0.41111109,1,0,0,4.2885,Peridotite_rect,3,0,3,0,1,
663282cdd80779eca86e436d,SCR,2024-06-24_19h47.38.365,LearnStrategy,2023.2.3,Win32,60.24096386,3,2,5,,,,,,,,6,07,,,,,,,,,,,,,3,3.63,0,,,,,,0.043055587,-0.24513891,1,0,0,3.6298,Diorite_rect,4,0,4,0,1,
663282cdd80779eca86e436d,SCR,2024-06-24_19h47.38.365,LearnStrategy,2023.2.3,Win32,60.24096386,3,2,6,,,,,,,,8,08,,,,,,,,,,,,,8,4.734,1,,,,,,0.381250064,-0.400000042,1,0,0,4.7337,Pumice_rect,5,0,5,0,1,
663282cdd80779eca86e436d,SCR,2024-06-24_19h47.38.365,LearnStrategy,2023.2.3,Win32,60.24096386,3,2,7,,,,,,,,7,05,,,,,,,,,,,,,3,2.485,0,,,,,,0.159027841,-0.238888899,1,0,0,2.4851,Diorite_rect,6,0,6,0,1,
663282cdd80779eca86e436d,SCR,2024-06-24_19h47.38.365,LearnStrategy,2023.2.3,Win32,60.24096386,3,2,8,,,,,,,,5,08,,,,,,,,,,,,,5,1.985,1,,,,,,-0.365277767,-0.41111109,1,0,0,1.9846,Obsidian_rect,7,0,7,0,1,
663282cdd80779eca86e436d,SCR,2024-06-24_19h47.38.365,LearnStrategy,2023.2.3,Win32,60.24096386,3,2,9,,,,,,,,8,05,,,,,,,,,,,,,8,3.888,1,,,,,,0.40625,-0.404166645,1,0,0,3.8881,Pumice_rect,8,0,8,0,1,
663282cdd80779eca86e436d,SCR,2024-06-24_19h47.38.365,LearnStrategy,2023.2.3,Win32,60.24096386,3,2,10,,,,,,,,6,10,,,,,,,,,,,,,3,3.827,0,,,,,,0.121527778,-0.251388921,1,0,0,3.8275,Diorite_rect,9,0,9,0,1,
663282cdd80779eca86e436d,SCR,2024-06-24_19h47.38.365,LearnStrategy,2023.2.3,Win32,60.24096386,3,2,11,,,,,,,,5,06,,,,,,,,,,,,,5,1.851,1,,,,,,-0.427083333,-0.413888931,1,0,0,1.851,Obsidian_rect,10,0,10,0,1,
663282cdd80779eca86e436d,SCR,2024-06-24_19h47.38.365,LearnStrategy,2023.2.3,Win32,60.24096386,3,2,12,,,,,,,,2,01,,,,,,,,,,,,,2,1.813,1,,,,,,-0.133333312,-0.252777788,1,0,0,1.8127,Basalt_rect,11,0,11,0,1,
663282cdd80779eca86e436d,SCR,2024-06-24_19h47.38.365,LearnStrategy,2023.2.3,Win32,60.24096386,3,2,13,,,,,,,,3,08,,,,,,,,,,,,,3,11.722,1,,,,,,0.159027841,-0.235416677,1,0,0,11.7216,Diorite_rect,12,0,12,0,1,
663282cdd80779eca86e436d,SCR,2024-06-24_19h47.38.365,LearnStrategy,2023.2.3,Win32,60.24096386,3,2,14,,,,,,,,1,03,,,,,,,,,,,,,2,1.379,0,,,,,,-0.111111111,-0.249305566,1,0,0,1.3794,Basalt_rect,13,0,13,0,1,
663282cdd80779eca86e436d,SCR,2024-06-24_19h47.38.365,LearnStrategy,2023.2.3,Win32,60.24096386,3,2,15,,,,,,,,7,04,,,,,,,,,,,,,7,2.977,1,,,,,,0.134027799,-0.405555619,1,0,0,2.9773,Peridotite_rect,14,0,14,0,1,
663282cdd80779eca86e436d,SCR,2024-06-24_19h47.38.365,LearnStrategy,2023.2.3,Win32,60.24096386,3,2,16,,,,,,,,1,07,,,,,,,,,,,,,4,3.012,0,,,,,,0.413194444,-0.266666677,1,0,0,3.012,Gabbro_rect,15,0,15,0,1,
663282cdd80779eca86e436d,SCR,2024-06-24_19h47.38.365,LearnStrategy,2023.2.3,Win32,60.24096386,4,1,1,0.085416688,0.117361095,1,0,0,1.5147,Diorite_11,3,11,4,5,1.515,6,09,0.115277767,-0.257638878,1,0,0,0.8957,Diorite_rect,3,0.896,1,0,0,0,0,1,,,,,,,,,,,,,
663282cdd80779eca86e436d,SCR,2024-06-24_19h47.38.365,LearnStrategy,2023.2.3,Win32,60.24096386,4,1,2,0.085416688,0.098611116,1,0,0,0.7781,Diorite_11,3,11,4,5,0.778,6,11,0.110416677,-0.271527767,1,0,0,0.7929,Diorite_rect,3,0.793,1,1,0,1,0,1,,,,,,,,,,,,,
663282cdd80779eca86e436d,SCR,2024-06-24_19h47.38.365,LearnStrategy,2023.2.3,Win32,60.24096386,4,1,3,0.066666656,0.103472206,1,0,0,0.7348,Diorite_11,3,11,4,5,0.735,4,01,0.143749979,-0.240972254,1,0,0,0.7233,Diorite_rect,3,0.723,1,2,0,2,0,1,,,,,,,,,,,,,
663282cdd80779eca86e436d,SCR,2024-06-24_19h47.38.365,LearnStrategy,2023.2.3,Win32,60.24096386,4,1,4,0.081944466,0.097222222,1,0,0,0.6696,Diorite_11,3,11,4,5,0.67,4,14,0.140972243,-0.24513891,1,0,0,0.622,Diorite_rect,3,0.622,1,3,0,3,0,1,,,,,,,,,,,,,
663282cdd80779eca86e436d,SCR,2024-06-24_19h47.38.365,LearnStrategy,2023.2.3,Win32,60.24096386,4,1,5,0.061805566,0.105555561,1,0,0,0.6655,Diorite_11,3,11,4,5,0.666,6,03,0.137500021,-0.249305566,1,0,0,0.6781,Diorite_rect,3,0.678,1,4,0,4,0,1,,,,,,,,,,,,,
663282cdd80779eca86e436d,SCR,2024-06-24_19h47.38.365,LearnStrategy,2023.2.3,Win32,60.24096386,4,1,6,0.05763891,0.095138894,1,0,0,0.6175,Diorite_11,3,11,4,5,0.618,1,04,0.144444466,-0.250694434,1,0,0,0.7947,Diorite_rect,3,0.795,1,5,0,5,0,1,,,,,,,,,,,,,
663282cdd80779eca86e436d,SCR,2024-06-24_19h47.38.365,LearnStrategy,2023.2.3,Win32,60.24096386,4,1,7,0.064583355,0.084722228,1,0,0,0.6409,Diorite_11,3,11,4,5,0.641,3,11,0.149305556,-0.243055556,1,0,0,0.7365,Diorite_rect,3,0.736,1,6,0,6,0,1,,,,,,,,,,,,,
663282cdd80779eca86e436d,SCR,2024-06-24_19h47.38.365,LearnStrategy,2023.2.3,Win32,60.24096386,4,1,8,-0.061111079,0.261111101,1,0,0,1.436,Pumice_04,8,04,5,4,1.436,4,10,0.383333312,-0.40138891,1,0,0,2.596,Pumice_rect,8,2.596,1,7,0,7,0,1,,,,,,,,,,,,,
663282cdd80779eca86e436d,SCR,2024-06-24_19h47.38.365,LearnStrategy,2023.2.3,Win32,60.24096386,4,1,9,0.118055556,-0.102777799,1,0,0,1.3239,Obsidian_16,5,16,3,5,1.324,7,08,-0.397222228,-0.413888931,1,0,0,0.8633,Obsidian_rect,5,0.863,1,8,0,8,0,1,,,,,,,,,,,,,
663282cdd80779eca86e436d,SCR,2024-06-24_19h47.38.365,LearnStrategy,2023.2.3,Win32,60.24096386,4,1,10,0.070833365,-0.107638889,1,0,0,0.8877,Obsidian_16,5,16,3,5,0.888,8,02,-0.355555561,-0.405555619,1,0,0,2.0689,Obsidian_rect,5,2.069,1,9,0,9,0,1,,,,,,,,,,,,,
663282cdd80779eca86e436d,SCR,2024-06-24_19h47.38.365,LearnStrategy,2023.2.3,Win32,60.24096386,4,1,11,-0.212499989,-0.077083323,1,0,0,1.6794,Gabbro_11,4,11,3,3,1.679,1,02,-0.105555534,-0.261111101,1,0,0,1.3886,Basalt_rect,2,1.389,0,10,0,10,0,1,,,,,,,,,,,,,
663282cdd80779eca86e436d,SCR,2024-06-24_19h47.38.365,LearnStrategy,2023.2.3,Win32,60.24096386,4,1,12,-0.225694444,-0.102777799,1,0,0,0.7361,Gabbro_11,4,11,3,3,0.736,2,09,0.400694423,-0.250694434,1,0,0,1.1717,Gabbro_rect,4,1.172,1,11,0,11,0,1,,,,,,,,,,,,,
663282cdd80779eca86e436d,SCR,2024-06-24_19h47.38.365,LearnStrategy,2023.2.3,Win32,60.24096386,4,1,13,0.070833365,-0.117361122,1,0,0,1.3552,Obsidian_16,5,16,3,5,1.355,7,08,-0.367361095,-0.382638878,1,0,0,0.9879,Obsidian_rect,5,0.988,1,12,0,12,0,1,,,,,,,,,,,,,
663282cdd80779eca86e436d,SCR,2024-06-24_19h47.38.365,LearnStrategy,2023.2.3,Win32,60.24096386,4,1,14,-0.072222233,0.434722218,1,0,0,1.5717,Andesite_01,1,01,6,4,1.572,5,09,-0.124305566,-0.255555577,1,0,0,4.3341,Basalt_rect,2,4.334,0,13,0,13,0,1,,,,,,,,,,,,,
663282cdd80779eca86e436d,SCR,2024-06-24_19h47.38.365,LearnStrategy,2023.2.3,Win32,60.24096386,4,1,15,-0.04722219,0.424999999,1,0,0,1.2475,Andesite_01,1,01,6,4,1.247,1,02,-0.363888873,-0.249305566,1,0,0,1.2348,Andesite_rect,1,1.235,1,14,0,14,0,1,,,,,,,,,,,,,
663282cdd80779eca86e436d,SCR,2024-06-24_19h47.38.365,LearnStrategy,2023.2.3,Win32,60.24096386,4,1,16,0.52152782,0.41597222,1,0,0,1.6421,Gabbro_13,4,13,6,8,1.642,2,04,0.129861143,-0.393749979,1,0,0,2.9365,Peridotite_rect,7,2.937,0,15,0,15,0,1,,,,,,,,,,,,,
663282cdd80779eca86e436d,SCR,2024-06-24_19h47.38.365,LearnStrategy,2023.2.3,Win32,60.24096386,4,2,1,,,,,,,,3,16,,,,,,,,,,,,,3,5.306,1,,,,,,0.147916688,-0.231944455,1,0,0,5.306,Diorite_rect,0,0,0,0,1,
663282cdd80779eca86e436d,SCR,2024-06-24_19h47.38.365,LearnStrategy,2023.2.3,Win32,60.24096386,4,2,2,,,,,,,,5,12,,,,,,,,,,,,,5,1.377,1,,,,,,-0.403472212,-0.409027841,1,0,0,1.3774,Obsidian_rect,1,0,1,0,1,
663282cdd80779eca86e436d,SCR,2024-06-24_19h47.38.365,LearnStrategy,2023.2.3,Win32,60.24096386,4,2,3,,,,,,,,6,13,,,,,,,,,,,,,7,5.133,0,,,,,,0.067361143,-0.386805587,1,0,0,5.1328,Peridotite_rect,2,0,2,0,1,
663282cdd80779eca86e436d,SCR,2024-06-24_19h47.38.365,LearnStrategy,2023.2.3,Win32,60.24096386,4,2,4,,,,,,,,2,10,,,,,,,,,,,,,2,3.447,1,,,,,,-0.14097219,-0.26527781,1,0,0,3.447,Basalt_rect,3,0,3,0,1,
663282cdd80779eca86e436d,SCR,2024-06-24_19h47.38.365,LearnStrategy,2023.2.3,Win32,60.24096386,4,2,5,,,,,,,,7,10,,,,,,,,,,,,,1,5.343,0,,,,,,-0.332638873,-0.258333365,1,0,0,5.3431,Andesite_rect,4,0,4,0,1,
663282cdd80779eca86e436d,SCR,2024-06-24_19h47.38.365,LearnStrategy,2023.2.3,Win32,60.24096386,4,2,6,,,,,,,,1,03,,,,,,,,,,,,,2,1.56,0,,,,,,-0.132638878,-0.268055545,1,0,0,1.5604,Basalt_rect,5,0,5,0,1,
663282cdd80779eca86e436d,SCR,2024-06-24_19h47.38.365,LearnStrategy,2023.2.3,Win32,60.24096386,4,2,7,,,,,,,,7,06,,,,,,,,,,,,,7,1.718,1,,,,,,0.183333397,-0.390277757,1,0,0,1.718,Peridotite_rect,6,0,6,0,1,
663282cdd80779eca86e436d,SCR,2024-06-24_19h47.38.365,LearnStrategy,2023.2.3,Win32,60.24096386,4,2,8,,,,,,,,8,09,,,,,,,,,,,,,8,1.879,1,,,,,,0.418055534,-0.418055534,1,0,0,1.8788,Pumice_rect,7,0,7,0,1,
663282cdd80779eca86e436d,SCR,2024-06-24_19h47.38.365,LearnStrategy,2023.2.3,Win32,60.24096386,4,2,9,,,,,,,,5,04,,,,,,,,,,,,,5,1.137,1,,,,,,-0.454166651,-0.390972243,1,0,0,1.1373,Obsidian_rect,8,0,8,0,1,
663282cdd80779eca86e436d,SCR,2024-06-24_19h47.38.365,LearnStrategy,2023.2.3,Win32,60.24096386,4,2,10,,,,,,,,1,11,,,,,,,,,,,,,4,3.091,0,,,,,,0.380555577,-0.264583323,1,0,0,3.0912,Gabbro_rect,9,0,9,0,1,
663282cdd80779eca86e436d,SCR,2024-06-24_19h47.38.365,LearnStrategy,2023.2.3,Win32,60.24096386,4,2,11,,,,,,,,3,06,,,,,,,,,,,,,3,4.149,1,,,,,,0.110416677,-0.268055545,1,0,0,4.149,Diorite_rect,10,0,10,0,1,
663282cdd80779eca86e436d,SCR,2024-06-24_19h47.38.365,LearnStrategy,2023.2.3,Win32,60.24096386,4,2,12,,,,,,,,4,03,,,,,,,,,,,,,1,3.167,0,,,,,,-0.352083339,-0.26527781,1,0,0,3.1672,Andesite_rect,11,0,11,0,1,
663282cdd80779eca86e436d,SCR,2024-06-24_19h47.38.365,LearnStrategy,2023.2.3,Win32,60.24096386,4,2,13,,,,,,,,6,05,,,,,,,,,,,,,6,3.347,1,,,,,,-0.025694423,-0.383333365,1,0,0,3.3469,Pegmatite_rect,12,0,12,0,1,
663282cdd80779eca86e436d,SCR,2024-06-24_19h47.38.365,LearnStrategy,2023.2.3,Win32,60.24096386,4,2,14,,,,,,,,2,02,,,,,,,,,,,,,4,3.208,0,,,,,,0.380555577,-0.254861143,1,0,0,3.2085,Gabbro_rect,13,0,13,0,1,
663282cdd80779eca86e436d,SCR,2024-06-24_19h47.38.365,LearnStrategy,2023.2.3,Win32,60.24096386,4,2,15,,,,,,,,8,08,,,,,,,,,,,,,8,1.76,1,,,,,,0.343055619,-0.379861143,1,0,0,1.7603,Pumice_rect,14,0,14,0,1,
663282cdd80779eca86e436d,SCR,2024-06-24_19h47.38.365,LearnStrategy,2023.2.3,Win32,60.24096386,4,2,16,,,,,,,,4,16,,,,,,,,,,,,,2,5.738,0,,,,,,-0.133333312,-0.251388921,1,0,0,5.7379,Basalt_rect,15,0,15,0,1,
663282cdd80779eca86e436d,SCR,2024-06-24_19h47.38.365,LearnStrategy,2023.2.3,Win32,60.24096386,5,1,1,0.079166677,-0.087499989,1,0,0,2.7602,Obsidian_16,5,16,3,5,2.76,4,13,-0.368749989,-0.400000042,1,0,0,1.6744,Obsidian_rect,5,1.674,1,0,0,0,0,1,,,,,,,,,,,,,
663282cdd80779eca86e436d,SCR,2024-06-24_19h47.38.365,LearnStrategy,2023.2.3,Win32,60.24096386,5,1,2,0.104166667,-0.111111111,1,0,0,1.1512,Obsidian_16,5,16,3,5,1.151,7,16,-0.452083323,-0.413194444,1,0,0,0.8729,Obsidian_rect,5,0.873,1,1,0,1,0,1,,,,,,,,,,,,,
663282cdd80779eca86e436d,SCR,2024-06-24_19h47.38.365,LearnStrategy,2023.2.3,Win32,60.24096386,5,1,3,0.074305587,-0.098611143,1,0,0,0.8582,Obsidian_16,5,16,3,5,0.858,4,01,-0.386111101,-0.40625,1,0,0,0.992,Obsidian_rect,5,0.992,1,2,0,2,0,1,,,,,,,,,,,,,
663282cdd80779eca86e436d,SCR,2024-06-24_19h47.38.365,LearnStrategy,2023.2.3,Win32,60.24096386,5,1,4,0.07777781,-0.086111122,1,0,0,0.6729,Obsidian_16,5,16,3,5,0.673,6,15,-0.425694439,-0.420138889,1,0,0,0.8691,Obsidian_rect,5,0.869,1,3,0,3,0,1,,,,,,,,,,,,,
663282cdd80779eca86e436d,SCR,2024-06-24_19h47.38.365,LearnStrategy,2023.2.3,Win32,60.24096386,5,1,5,0.102777799,-0.095833355,1,0,0,0.7515,Obsidian_16,5,16,3,5,0.752,1,02,-0.395833333,-0.405555619,1,0,0,0.7832,Obsidian_rect,5,0.783,1,4,0,4,0,1,,,,,,,,,,,,,
663282cdd80779eca86e436d,SCR,2024-06-24_19h47.38.365,LearnStrategy,2023.2.3,Win32,60.24096386,5,1,6,-0.104166667,0.463194443,1,0,0,1.3229,Andesite_01,1,01,6,4,1.323,4,13,-0.368055556,-0.232638889,1,0,0,1.33,Andesite_rect,1,1.33,1,5,0,5,0,1,,,,,,,,,,,,,
663282cdd80779eca86e436d,SCR,2024-06-24_19h47.38.365,LearnStrategy,2023.2.3,Win32,60.24096386,5,1,7,-0.254166656,0.425694446,1,0,0,1.5061,Pegmatite_03,6,03,6,3,1.506,6,06,0.155555619,-0.26527781,1,0,0,1.4029,Diorite_rect,3,1.403,0,6,0,6,0,1,,,,,,,,,,,,,
663282cdd80779eca86e436d,SCR,2024-06-24_19h47.38.365,LearnStrategy,2023.2.3,Win32,60.24096386,5,1,8,-0.243055556,0.446527776,1,0,0,0.986,Pegmatite_03,6,03,6,3,0.986,1,05,-0.09375,-0.393749979,1,0,0,1.7066,Pegmatite_rect,6,1.707,1,7,0,7,0,1,,,,,,,,,,,,,
663282cdd80779eca86e436d,SCR,2024-06-24_19h47.38.365,LearnStrategy,2023.2.3,Win32,60.24096386,5,1,9,-0.074999968,0.393055552,1,0,0,1.1228,Andesite_01,1,01,6,4,1.123,4,11,-0.41180555,-0.256250011,1,0,0,1.1855,Andesite_rect,1,1.186,1,8,0,8,0,1,,,,,,,,,,,,,
663282cdd80779eca86e436d,SCR,2024-06-24_19h47.38.365,LearnStrategy,2023.2.3,Win32,60.24096386,5,1,10,-0.58402778,0.446527776,1,0,0,1.1474,Gabbro_14,4,14,6,1,1.147,2,06,0.400000042,-0.247916698,1,0,0,1.9343,Gabbro_rect,4,1.934,1,9,0,9,0,1,,,,,,,,,,,,,
663282cdd80779eca86e436d,SCR,2024-06-24_19h47.38.365,LearnStrategy,2023.2.3,Win32,60.24096386,5,1,11,-0.061111079,-0.109722243,1,0,0,1.0584,Basalt_16,2,16,3,4,1.058,1,01,-0.149305556,-0.234722243,1,0,0,2.282,Basalt_rect,2,2.282,1,10,0,10,0,1,,,,,,,,,,,,,
663282cdd80779eca86e436d,SCR,2024-06-24_19h47.38.365,LearnStrategy,2023.2.3,Win32,60.24096386,5,1,12,0.551388952,-0.263888889,1,0,0,2.1084,Pegmatite_11,6,11,2,8,2.108,2,08,0.166666667,-0.254166656,1,0,0,1.375,Diorite_rect,3,1.375,0,11,0,11,0,1,,,,,,,,,,,,,
663282cdd80779eca86e436d,SCR,2024-06-24_19h47.38.365,LearnStrategy,2023.2.3,Win32,60.24096386,5,1,13,0.505555577,-0.255555577,1,0,0,1.2029,Pegmatite_11,6,11,2,8,1.203,7,16,-0.116666635,-0.400000042,1,0,0,2.1619,Pegmatite_rect,6,2.162,1,12,0,12,0,1,,,,,,,,,,,,,
663282cdd80779eca86e436d,SCR,2024-06-24_19h47.38.365,LearnStrategy,2023.2.3,Win32,60.24096386,5,1,14,0.234722243,-0.118055556,1,0,0,1.1168,Peridotite_13,7,13,3,6,1.117,1,01,0.181944423,-0.399305556,1,0,0,1.6562,Peridotite_rect,7,1.656,1,13,0,13,0,1,,,,,,,,,,,,,
663282cdd80779eca86e436d,SCR,2024-06-24_19h47.38.365,LearnStrategy,2023.2.3,Win32,60.24096386,5,1,15,0.23541673,-0.075000021,1,0,0,1.0922,Peridotite_13,7,13,3,6,1.092,6,06,0.164583312,-0.399305556,1,0,0,0.9896,Peridotite_rect,7,0.99,1,14,0,14,0,1,,,,,,,,,,,,,
663282cdd80779eca86e436d,SCR,2024-06-24_19h47.38.365,LearnStrategy,2023.2.3,Win32,60.24096386,5,1,16,0.241666688,-0.09375,1,0,0,0.8935,Peridotite_13,7,13,3,6,0.893,3,11,0.163194444,-0.414583312,1,0,0,0.7898,Peridotite_rect,7,0.79,1,15,0,15,0,1,,,,,,,,,,,,,
663282cdd80779eca86e436d,SCR,2024-06-24_19h47.38.365,LearnStrategy,2023.2.3,Win32,60.24096386,5,2,1,,,,,,,,1,09,,,,,,,,,,,,,6,8.532,0,,,,,,-0.133333312,-0.409722222,1,0,0,8.5323,Pegmatite_rect,0,0,0,0,1,
663282cdd80779eca86e436d,SCR,2024-06-24_19h47.38.365,LearnStrategy,2023.2.3,Win32,60.24096386,5,2,2,,,,,,,,6,16,,,,,,,,,,,,,6,2.509,1,,,,,,-0.107638889,-0.398611175,1,0,0,2.5092,Pegmatite_rect,1,0,1,0,1,
663282cdd80779eca86e436d,SCR,2024-06-24_19h47.38.365,LearnStrategy,2023.2.3,Win32,60.24096386,5,2,3,,,,,,,,4,09,,,,,,,,,,,,,4,4.2,1,,,,,,0.446527799,-0.238888899,1,0,0,4.2002,Gabbro_rect,2,0,2,0,1,
663282cdd80779eca86e436d,SCR,2024-06-24_19h47.38.365,LearnStrategy,2023.2.3,Win32,60.24096386,5,2,4,,,,,,,,2,11,,,,,,,,,,,,,6,3.811,0,,,,,,-0.064583302,-0.394444466,1,0,0,3.8111,Pegmatite_rect,3,0,3,0,1,
663282cdd80779eca86e436d,SCR,2024-06-24_19h47.38.365,LearnStrategy,2023.2.3,Win32,60.24096386,5,2,5,,,,,,,,8,06,,,,,,,,,,,,,8,1.834,1,,,,,,0.434722265,-0.400694423,1,0,0,1.8337,Pumice_rect,4,0,4,0,1,
663282cdd80779eca86e436d,SCR,2024-06-24_19h47.38.365,LearnStrategy,2023.2.3,Win32,60.24096386,5,2,6,,,,,,,,5,02,,,,,,,,,,,,,5,1.244,1,,,,,,-0.337499989,-0.380555577,1,0,0,1.2439,Obsidian_rect,5,0,5,0,1,
663282cdd80779eca86e436d,SCR,2024-06-24_19h47.38.365,LearnStrategy,2023.2.3,Win32,60.24096386,5,2,7,,,,,,,,6,12,,,,,,,,,,,,,6,3.578,1,,,,,,-0.100694444,-0.394444466,1,0,0,3.578,Pegmatite_rect,6,0,6,0,1,
663282cdd80779eca86e436d,SCR,2024-06-24_19h47.38.365,LearnStrategy,2023.2.3,Win32,60.24096386,5,2,8,,,,,,,,2,14,,,,,,,,,,,,,2,7.739,1,,,,,,-0.100000011,-0.247222212,1,0,0,7.7393,Basalt_rect,7,0,7,0,1,
663282cdd80779eca86e436d,SCR,2024-06-24_19h47.38.365,LearnStrategy,2023.2.3,Win32,60.24096386,5,2,9,,,,,,,,1,07,,,,,,,,,,,,,7,3.568,0,,,,,,0.081250032,-0.390972243,1,0,0,3.5678,Peridotite_rect,8,0,8,0,1,
663282cdd80779eca86e436d,SCR,2024-06-24_19h47.38.365,LearnStrategy,2023.2.3,Win32,60.24096386,5,2,10,,,,,,,,7,02,,,,,,,,,,,,,7,2.529,1,,,,,,0.081250032,-0.389583376,1,0,0,2.5287,Peridotite_rect,9,0,9,0,1,
663282cdd80779eca86e436d,SCR,2024-06-24_19h47.38.365,LearnStrategy,2023.2.3,Win32,60.24096386,5,2,11,,,,,,,,8,03,,,,,,,,,,,,,8,1.749,1,,,,,,0.373611132,-0.409722222,1,0,0,1.7494,Pumice_rect,10,0,10,0,1,
663282cdd80779eca86e436d,SCR,2024-06-24_19h47.38.365,LearnStrategy,2023.2.3,Win32,60.24096386,5,2,12,,,,,,,,4,08,,,,,,,,,,,,,3,6.84,0,,,,,,0.110416677,-0.268055545,1,0,0,6.8395,Diorite_rect,11,0,11,0,1,
663282cdd80779eca86e436d,SCR,2024-06-24_19h47.38.365,LearnStrategy,2023.2.3,Win32,60.24096386,5,2,13,,,,,,,,3,13,,,,,,,,,,,,,7,3.879,0,,,,,,0.150000042,-0.406944487,1,0,0,3.8794,Peridotite_rect,12,0,12,0,1,
663282cdd80779eca86e436d,SCR,2024-06-24_19h47.38.365,LearnStrategy,2023.2.3,Win32,60.24096386,5,2,14,,,,,,,,7,05,,,,,,,,,,,,,7,1.788,1,,,,,,0.150000042,-0.40625,1,0,0,1.788,Peridotite_rect,13,0,13,0,1,
663282cdd80779eca86e436d,SCR,2024-06-24_19h47.38.365,LearnStrategy,2023.2.3,Win32,60.24096386,5,2,15,,,,,,,,5,08,,,,,,,,,,,,,5,1.191,1,,,,,,-0.359027783,-0.398611175,1,0,0,1.1908,Obsidian_rect,14,0,14,0,1,
663282cdd80779eca86e436d,SCR,2024-06-24_19h47.38.365,LearnStrategy,2023.2.3,Win32,60.24096386,5,2,16,,,,,,,,3,08,,,,,,,,,,,,,3,4.18,1,,,,,,0.15625,-0.25,1,0,0,4.1805,Diorite_rect,15,0,15,0,1,
663282cdd80779eca86e436d,SCR,2024-06-24_19h47.38.365,LearnStrategy,2023.2.3,Win32,60.24096386,6,1,1,0.592361132,0.105555561,1,0,0,1.4765,Peridotite_16,7,16,4,8,1.476,1,14,0.163194444,-0.39166673,1,0,0,6.3888,Peridotite_rect,7,6.389,1,0,0,0,0,1,,,,,,,,,,,,,
663282cdd80779eca86e436d,SCR,2024-06-24_19h47.38.365,LearnStrategy,2023.2.3,Win32,60.24096386,6,1,2,0.589583397,0.099999984,1,0,0,1.2314,Peridotite_16,7,16,4,8,1.231,2,09,0.147222201,-0.387500021,1,0,0,0.9625,Peridotite_rect,7,0.962,1,1,0,1,0,1,,,,,,,,,,,,,
663282cdd80779eca86e436d,SCR,2024-06-24_19h47.38.365,LearnStrategy,2023.2.3,Win32,60.24096386,6,1,3,-0.056249989,-0.082638899,1,0,0,1.0779,Basalt_16,2,16,3,4,1.078,1,02,-0.141666677,-0.240277767,1,0,0,0.9259,Basalt_rect,2,0.926,1,2,0,2,0,1,,,,,,,,,,,,,
663282cdd80779eca86e436d,SCR,2024-06-24_19h47.38.365,LearnStrategy,2023.2.3,Win32,60.24096386,6,1,4,-0.547222217,0.40625,1,0,0,1.4447,Gabbro_14,4,14,6,1,1.445,8,10,0.385416667,-0.258333365,1,0,0,1.6697,Gabbro_rect,4,1.67,1,3,0,3,0,1,,,,,,,,,,,,,
663282cdd80779eca86e436d,SCR,2024-06-24_19h47.38.365,LearnStrategy,2023.2.3,Win32,60.24096386,6,1,5,-0.050694413,-0.090972212,1,0,0,0.78,Basalt_16,2,16,3,4,0.78,7,15,-0.09861109,-0.264583323,1,0,0,0.7217,Basalt_rect,2,0.722,1,4,0,4,0,1,,,,,,,,,,,,,
663282cdd80779eca86e436d,SCR,2024-06-24_19h47.38.365,LearnStrategy,2023.2.3,Win32,60.24096386,6,1,6,0.095833355,-0.259722233,1,0,0,1.2909,Pumice_16,8,16,2,5,1.291,4,13,-0.096527788,-0.420833376,1,0,0,3.7551,Pegmatite_rect,6,3.755,0,5,0,5,0,1,,,,,,,,,,,,,
663282cdd80779eca86e436d,SCR,2024-06-24_19h47.38.365,LearnStrategy,2023.2.3,Win32,60.24096386,6,1,7,0.0625,-0.26527781,1,0,0,0.9448,Pumice_16,8,16,2,5,0.945,3,11,0.480555534,-0.406944487,1,0,0,0.8414,Pumice_rect,8,0.841,1,6,0,6,0,1,,,,,,,,,,,,,
663282cdd80779eca86e436d,SCR,2024-06-24_19h47.38.365,LearnStrategy,2023.2.3,Win32,60.24096386,6,1,8,-0.255555524,0.25,1,0,0,1.7985,Pumice_02,8,02,5,3,1.798,6,08,0.366666688,-0.420138889,1,0,0,1.2957,Pumice_rect,8,1.296,1,7,0,7,0,1,,,,,,,,,,,,,
663282cdd80779eca86e436d,SCR,2024-06-24_19h47.38.365,LearnStrategy,2023.2.3,Win32,60.24096386,6,1,9,-0.103472233,0.238888873,1,0,0,1.1789,Pumice_04,8,04,5,4,1.179,6,11,0.438888868,-0.397916688,1,0,0,1.0026,Pumice_rect,8,1.003,1,8,0,8,0,1,,,,,,,,,,,,,
663282cdd80779eca86e436d,SCR,2024-06-24_19h47.38.365,LearnStrategy,2023.2.3,Win32,60.24096386,6,1,10,-0.541666667,-0.102083365,1,0,0,3.7264,Andesite_02,1,02,3,1,3.726,4,10,0.367361175,-0.403472265,1,0,0,1.519,Pumice_rect,8,1.519,0,9,0,9,0,1,,,,,,,,,,,,,
663282cdd80779eca86e436d,SCR,2024-06-24_19h47.38.365,LearnStrategy,2023.2.3,Win32,60.24096386,6,1,11,-0.554166661,-0.09375,1,0,0,1.884,Andesite_02,1,02,3,1,1.884,2,06,-0.428472228,-0.245833344,1,0,0,2.2145,Andesite_rect,1,2.215,1,10,0,10,0,1,,,,,,,,,,,,,
663282cdd80779eca86e436d,SCR,2024-06-24_19h47.38.365,LearnStrategy,2023.2.3,Win32,60.24096386,6,1,12,-0.077083323,0.409027775,1,0,0,2.3618,Andesite_01,1,01,6,4,2.362,1,14,-0.443749984,-0.258333365,1,0,0,1.2816,Andesite_rect,1,1.282,1,11,0,11,0,1,,,,,,,,,,,,,
663282cdd80779eca86e436d,SCR,2024-06-24_19h47.38.365,LearnStrategy,2023.2.3,Win32,60.24096386,6,1,13,-0.560416659,0.097222222,1,0,0,4.04,Obsidian_07,5,07,4,1,4.04,1,05,-0.426388873,-0.414583312,1,0,0,1.4844,Obsidian_rect,5,1.484,1,12,0,12,0,1,,,,,,,,,,,,,
663282cdd80779eca86e436d,SCR,2024-06-24_19h47.38.365,LearnStrategy,2023.2.3,Win32,60.24096386,6,1,14,0.25486109,0.27569445,1,0,0,1.5855,Obsidian_09,5,09,5,6,1.586,7,12,-0.384027772,-0.415972286,1,0,0,1.8257,Obsidian_rect,5,1.826,1,13,0,13,0,1,,,,,,,,,,,,,
663282cdd80779eca86e436d,SCR,2024-06-24_19h47.38.365,LearnStrategy,2023.2.3,Win32,60.24096386,6,1,15,0.249305619,0.219444434,1,0,0,1.0549,Obsidian_09,5,09,5,6,1.055,3,02,-0.434722212,-0.404166645,1,0,0,1.2542,Obsidian_rect,5,1.254,1,14,0,14,0,1,,,,,,,,,,,,,
663282cdd80779eca86e436d,SCR,2024-06-24_19h47.38.365,LearnStrategy,2023.2.3,Win32,60.24096386,6,1,16,-0.061111079,-0.266666677,1,0,0,0.9466,Obsidian_05,5,05,2,4,0.947,4,01,-0.367361095,-0.399305556,1,0,0,2.418,Obsidian_rect,5,2.418,1,15,0,15,0,1,,,,,,,,,,,,,
663282cdd80779eca86e436d,SCR,2024-06-24_19h47.38.365,LearnStrategy,2023.2.3,Win32,60.24096386,6,2,1,,,,,,,,4,15,,,,,,,,,,,,,2,5.583,0,,,,,,-0.09861109,-0.240277767,1,0,0,5.5828,Basalt_rect,0,0,0,0,1,
663282cdd80779eca86e436d,SCR,2024-06-24_19h47.38.365,LearnStrategy,2023.2.3,Win32,60.24096386,6,2,2,,,,,,,,1,06,,,,,,,,,,,,,1,10.453,1,,,,,,-0.404861106,-0.238888899,1,0,0,10.4533,Andesite_rect,1,0,1,0,1,
663282cdd80779eca86e436d,SCR,2024-06-24_19h47.38.365,LearnStrategy,2023.2.3,Win32,60.24096386,6,2,3,,,,,,,,2,05,,,,,,,,,,,,,2,2.814,1,,,,,,-0.126388868,-0.250694434,1,0,0,2.8142,Basalt_rect,2,0,2,0,1,
663282cdd80779eca86e436d,SCR,2024-06-24_19h47.38.365,LearnStrategy,2023.2.3,Win32,60.24096386,6,2,4,,,,,,,,5,06,,,,,,,,,,,,,5,1.25,1,,,,,,-0.351388878,-0.415277799,1,0,0,1.2505,Obsidian_rect,3,0,3,0,1,
663282cdd80779eca86e436d,SCR,2024-06-24_19h47.38.365,LearnStrategy,2023.2.3,Win32,60.24096386,6,2,5,,,,,,,,2,01,,,,,,,,,,,,,2,1.925,1,,,,,,-0.095138868,-0.266666677,1,0,0,1.925,Basalt_rect,4,0,4,0,1,
663282cdd80779eca86e436d,SCR,2024-06-24_19h47.38.365,LearnStrategy,2023.2.3,Win32,60.24096386,6,2,6,,,,,,,,7,14,,,,,,,,,,,,,6,5.743,0,,,,,,-0.085416635,-0.404861132,1,0,0,5.743,Pegmatite_rect,5,0,5,0,1,
663282cdd80779eca86e436d,SCR,2024-06-24_19h47.38.365,LearnStrategy,2023.2.3,Win32,60.24096386,6,2,7,,,,,,,,6,10,,,,,,,,,,,,,6,0.961,1,,,,,,-0.085416635,-0.404861132,1,0,0,0.961,Pegmatite_rect,6,0,6,0,1,
663282cdd80779eca86e436d,SCR,2024-06-24_19h47.38.365,LearnStrategy,2023.2.3,Win32,60.24096386,6,2,8,,,,,,,,8,13,,,,,,,,,,,,,8,1.565,1,,,,,,0.357638889,-0.399305556,1,0,0,1.5654,Pumice_rect,7,0,7,0,1,
663282cdd80779eca86e436d,SCR,2024-06-24_19h47.38.365,LearnStrategy,2023.2.3,Win32,60.24096386,6,2,9,,,,,,,,1,10,,,,,,,,,,,,,1,4.665,1,,,,,,-0.368055556,-0.259027799,1,0,0,4.6655,Andesite_rect,8,0,8,0,1,
663282cdd80779eca86e436d,SCR,2024-06-24_19h47.38.365,LearnStrategy,2023.2.3,Win32,60.24096386,6,2,10,,,,,,,,3,07,,,,,,,,,,,,,3,4.556,1,,,,,,0.16111109,-0.245833344,1,0,0,4.5562,Diorite_rect,9,0,9,0,1,
663282cdd80779eca86e436d,SCR,2024-06-24_19h47.38.365,LearnStrategy,2023.2.3,Win32,60.24096386,6,2,11,,,,,,,,7,04,,,,,,,,,,,,,4,4.43,0,,,,,,0.388194508,-0.231250021,1,0,0,4.43,Gabbro_rect,10,0,10,0,1,
663282cdd80779eca86e436d,SCR,2024-06-24_19h47.38.365,LearnStrategy,2023.2.3,Win32,60.24096386,6,2,12,,,,,,,,3,15,,,,,,,,,,,,,3,2.776,1,,,,,,0.140972243,-0.263888889,1,0,0,2.7756,Diorite_rect,11,0,11,0,1,
663282cdd80779eca86e436d,SCR,2024-06-24_19h47.38.365,LearnStrategy,2023.2.3,Win32,60.24096386,6,2,13,,,,,,,,4,05,,,,,,,,,,,,,1,2.806,0,,,,,,-0.452777783,-0.24513891,1,0,0,2.8056,Andesite_rect,12,0,12,0,1,
663282cdd80779eca86e436d,SCR,2024-06-24_19h47.38.365,LearnStrategy,2023.2.3,Win32,60.24096386,6,2,14,,,,,,,,8,05,,,,,,,,,,,,,8,1.38,1,,,,,,0.428472201,-0.414583312,1,0,0,1.3804,Pumice_rect,13,0,13,0,1,
663282cdd80779eca86e436d,SCR,2024-06-24_19h47.38.365,LearnStrategy,2023.2.3,Win32,60.24096386,6,2,15,,,,,,,,6,07,,,,,,,,,,,,,3,3.151,0,,,,,,0.160416709,-0.256944444,1,0,0,3.1514,Diorite_rect,14,0,14,0,1,
663282cdd80779eca86e436d,SCR,2024-06-24_19h47.38.365,LearnStrategy,2023.2.3,Win32,60.24096386,6,2,16,,,,,,,,5,10,,,,,,,,,,,,,5,1.943,1,,,,,,-0.34375,-0.39652782,1,0,0,1.9425,Obsidian_rect,15,0,15,0,1,
663282cdd80779eca86e436d,SCR,2024-06-24_19h47.38.365,LearnStrategy,2023.2.3,Win32,60.24096386,7,1,1,-0.061111079,-0.110416677,1,0,0,1.3933,Basalt_16,2,16,3,4,1.393,7,15,-0.115972201,-0.256944444,1,0,0,1.0721,Basalt_rect,2,1.072,1,0,0,0,0,1,,,,,,,,,,,,,
663282cdd80779eca86e436d,SCR,2024-06-24_19h47.38.365,LearnStrategy,2023.2.3,Win32,60.24096386,7,1,2,-0.058333344,-0.104861101,1,0,0,0.7934,Basalt_16,2,16,3,4,0.793,3,12,-0.134027746,-0.235416677,1,0,0,1.0938,Basalt_rect,2,1.094,1,1,0,1,0,1,,,,,,,,,,,,,
663282cdd80779eca86e436d,SCR,2024-06-24_19h47.38.365,LearnStrategy,2023.2.3,Win32,60.24096386,7,1,3,-0.083333333,-0.108333323,1,0,0,4.0842,Basalt_16,2,16,3,4,4.084,1,05,-0.102777746,-0.244444476,1,0,0,0.8146,Basalt_rect,2,0.815,1,2,0,2,0,1,,,,,,,,,,,,,
663282cdd80779eca86e436d,SCR,2024-06-24_19h47.38.365,LearnStrategy,2023.2.3,Win32,60.24096386,7,1,4,0.400694423,-0.404166645,1,0,0,1.4968,Basalt_12,2,12,1,7,1.497,8,02,0.377777841,-0.252777788,1,0,0,2.2995,Gabbro_rect,4,2.299,0,3,0,3,0,1,,,,,,,,,,,,,
663282cdd80779eca86e436d,SCR,2024-06-24_19h47.38.365,LearnStrategy,2023.2.3,Win32,60.24096386,7,1,5,-0.199305534,-0.243749989,1,0,0,3.8393,Gabbro_12,4,12,2,3,3.839,4,10,-0.103472233,-0.240277767,1,0,0,0.9051,Basalt_rect,2,0.905,0,4,0,4,0,1,,,,,,,,,,,,,
663282cdd80779eca86e436d,SCR,2024-06-24_19h47.38.365,LearnStrategy,2023.2.3,Win32,60.24096386,7,1,6,-0.235416677,-0.255555577,1,0,0,0.8568,Gabbro_12,4,12,2,3,0.857,7,08,0.386111153,-0.258333365,1,0,0,2.2356,Gabbro_rect,4,2.236,1,5,0,5,0,1,,,,,,,,,,,,,
663282cdd80779eca86e436d,SCR,2024-06-24_19h47.38.365,LearnStrategy,2023.2.3,Win32,60.24096386,7,1,7,0.093055566,-0.133333365,1,0,0,0.8742,Obsidian_16,5,16,3,5,0.874,2,09,-0.411111116,-0.408333355,1,0,0,1.2134,Obsidian_rect,5,1.213,1,6,0,6,0,1,,,,,,,,,,,,,
663282cdd80779eca86e436d,SCR,2024-06-24_19h47.38.365,LearnStrategy,2023.2.3,Win32,60.24096386,7,1,8,-0.220138868,0.434722218,1,0,0,0.9448,Pegmatite_03,6,03,6,3,0.945,2,06,-0.102777746,-0.263888889,1,0,0,1.352,Basalt_rect,2,1.352,0,7,0,7,0,1,,,,,,,,,,,,,
663282cdd80779eca86e436d,SCR,2024-06-24_19h47.38.365,LearnStrategy,2023.2.3,Win32,60.24096386,7,1,9,0.093055566,-0.117361122,1,0,0,1.0102,Obsidian_16,5,16,3,5,1.01,6,08,-0.097222222,-0.418750021,1,0,0,4.9327,Pegmatite_rect,6,4.933,0,8,0,8,0,1,,,,,,,,,,,,,
663282cdd80779eca86e436d,SCR,2024-06-24_19h47.38.365,LearnStrategy,2023.2.3,Win32,60.24096386,7,1,10,-0.090972212,-0.097916656,1,0,0,1.3724,Basalt_16,2,16,3,4,1.372,4,12,-0.120833344,-0.25,1,0,0,0.6316,Basalt_rect,2,0.632,1,9,0,9,0,1,,,,,,,,,,,,,
663282cdd80779eca86e436d,SCR,2024-06-24_19h47.38.365,LearnStrategy,2023.2.3,Win32,60.24096386,7,1,11,0.247916645,-0.103472233,1,0,0,1.2396,Peridotite_13,7,13,3,6,1.24,6,15,0.176388952,-0.254166656,1,0,0,1.0166,Diorite_rect,3,1.017,0,10,0,10,0,1,,,,,,,,,,,,,
663282cdd80779eca86e436d,SCR,2024-06-24_19h47.38.365,LearnStrategy,2023.2.3,Win32,60.24096386,7,1,12,0.221527841,-0.112500032,1,0,0,1.1588,Peridotite_13,7,13,3,6,1.159,1,16,0.1875,-0.402083397,1,0,0,2.226,Peridotite_rect,7,2.226,1,11,0,11,0,1,,,,,,,,,,,,,
663282cdd80779eca86e436d,SCR,2024-06-24_19h47.38.365,LearnStrategy,2023.2.3,Win32,60.24096386,7,1,13,0.244444423,-0.392361111,1,0,0,3.3275,Gabbro_10,4,10,1,6,3.328,4,10,-0.339583317,-0.258333365,1,0,0,2.2663,Andesite_rect,1,2.266,0,12,0,12,0,1,,,,,,,,,,,,,
663282cdd80779eca86e436d,SCR,2024-06-24_19h47.38.365,LearnStrategy,2023.2.3,Win32,60.24096386,7,1,14,-0.199305534,-0.239583333,1,0,0,1.7453,Gabbro_12,4,12,2,3,1.745,4,12,0.40625,-0.253472222,1,0,0,2.1761,Gabbro_rect,4,2.176,1,13,0,13,0,1,,,,,,,,,,,,,
663282cdd80779eca86e436d,SCR,2024-06-24_19h47.38.365,LearnStrategy,2023.2.3,Win32,60.24096386,7,1,15,0.076388889,-0.099305577,1,0,0,2.1751,Obsidian_16,5,16,3,5,2.175,1,04,-0.390972217,-0.404166645,1,0,0,1.6472,Obsidian_rect,5,1.647,1,14,0,14,0,1,,,,,,,,,,,,,
663282cdd80779eca86e436d,SCR,2024-06-24_19h47.38.365,LearnStrategy,2023.2.3,Win32,60.24096386,7,1,16,-0.089583344,-0.090972212,1,0,0,1.5112,Basalt_16,2,16,3,4,1.511,7,07,-0.191666656,-0.256250011,1,0,0,1.1645,Basalt_rect,2,1.164,1,15,0,15,0,1,,,,,,,,,,,,,
663282cdd80779eca86e436d,SCR,2024-06-24_19h47.38.365,LearnStrategy,2023.2.3,Win32,60.24096386,7,2,1,,,,,,,,7,05,,,,,,,,,,,,,6,7.123,0,,,,,,-0.131250011,-0.412500064,1,0,0,7.1232,Pegmatite_rect,0,0,0,0,1,
663282cdd80779eca86e436d,SCR,2024-06-24_19h47.38.365,LearnStrategy,2023.2.3,Win32,60.24096386,7,2,2,,,,,,,,7,04,,,,,,,,,,,,,6,1.93,0,,,,,,-0.136805534,-0.393749979,1,0,0,1.9302,Pegmatite_rect,1,0,1,0,1,
663282cdd80779eca86e436d,SCR,2024-06-24_19h47.38.365,LearnStrategy,2023.2.3,Win32,60.24096386,7,2,3,,,,,,,,5,10,,,,,,,,,,,,,5,1.331,1,,,,,,-0.43680554,-0.402083397,1,0,0,1.3305,Obsidian_rect,2,0,2,0,1,
663282cdd80779eca86e436d,SCR,2024-06-24_19h47.38.365,LearnStrategy,2023.2.3,Win32,60.24096386,7,2,4,,,,,,,,6,13,,,,,,,,,,,,,6,3.069,1,,,,,,-0.190972222,-0.389583376,1,0,0,3.069,Pegmatite_rect,3,0,3,0,1,
663282cdd80779eca86e436d,SCR,2024-06-24_19h47.38.365,LearnStrategy,2023.2.3,Win32,60.24096386,7,2,5,,,,,,,,1,11,,,,,,,,,,,,,1,3.179,1,,,,,,-0.465277778,-0.247916698,1,0,0,3.1791,Andesite_rect,4,0,4,0,1,
663282cdd80779eca86e436d,SCR,2024-06-24_19h47.38.365,LearnStrategy,2023.2.3,Win32,60.24096386,7,2,6,,,,,,,,5,06,,,,,,,,,,,,,5,1.19,1,,,,,,-0.420138889,-0.420138889,1,0,0,1.1897,Obsidian_rect,5,0,5,0,1,
663282cdd80779eca86e436d,SCR,2024-06-24_19h47.38.365,LearnStrategy,2023.2.3,Win32,60.24096386,7,2,7,,,,,,,,8,13,,,,,,,,,,,,,8,1.331,1,,,,,,0.409722222,-0.404166645,1,0,0,1.3306,Pumice_rect,6,0,6,0,1,
663282cdd80779eca86e436d,SCR,2024-06-24_19h47.38.365,LearnStrategy,2023.2.3,Win32,60.24096386,7,2,8,,,,,,,,8,03,,,,,,,,,,,,,8,1.045,1,,,,,,0.386111153,-0.417361153,1,0,0,1.0451,Pumice_rect,7,0,7,0,1,
663282cdd80779eca86e436d,SCR,2024-06-24_19h47.38.365,LearnStrategy,2023.2.3,Win32,60.24096386,7,2,9,,,,,,,,1,09,,,,,,,,,,,,,1,5.034,1,,,,,,-0.337499989,-0.261111101,1,0,0,5.0336,Andesite_rect,8,0,8,0,1,
663282cdd80779eca86e436d,SCR,2024-06-24_19h47.38.365,LearnStrategy,2023.2.3,Win32,60.24096386,7,2,10,,,,,,,,4,16,,,,,,,,,,,,,2,2.347,0,,,,,,-0.126388868,-0.258333365,1,0,0,2.347,Basalt_rect,9,0,9,0,1,
663282cdd80779eca86e436d,SCR,2024-06-24_19h47.38.365,LearnStrategy,2023.2.3,Win32,60.24096386,7,2,11,,,,,,,,3,06,,,,,,,,,,,,,3,3.732,1,,,,,,0.114583333,-0.232638889,1,0,0,3.7323,Diorite_rect,10,0,10,0,1,
663282cdd80779eca86e436d,SCR,2024-06-24_19h47.38.365,LearnStrategy,2023.2.3,Win32,60.24096386,7,2,12,,,,,,,,2,05,,,,,,,,,,,,,2,3.467,1,,,,,,-0.182638857,-0.270833333,1,0,0,3.4669,Basalt_rect,11,0,11,0,1,
663282cdd80779eca86e436d,SCR,2024-06-24_19h47.38.365,LearnStrategy,2023.2.3,Win32,60.24096386,7,2,13,,,,,,,,3,08,,,,,,,,,,,,,3,2.751,1,,,,,,0.160416709,-0.263194455,1,0,0,2.7506,Diorite_rect,12,0,12,0,1,
663282cdd80779eca86e436d,SCR,2024-06-24_19h47.38.365,LearnStrategy,2023.2.3,Win32,60.24096386,7,2,14,,,,,,,,6,10,,,,,,,,,,,,,7,3.963,0,,,,,,0.126388921,-0.408333355,1,0,0,3.9631,Peridotite_rect,13,0,13,0,1,
663282cdd80779eca86e436d,SCR,2024-06-24_19h47.38.365,LearnStrategy,2023.2.3,Win32,60.24096386,7,2,15,,,,,,,,4,03,,,,,,,,,,,,,4,2.355,1,,,,,,0.363888952,-0.237500032,1,0,0,2.3553,Gabbro_rect,14,0,14,0,1,
663282cdd80779eca86e436d,SCR,2024-06-24_19h47.38.365,LearnStrategy,2023.2.3,Win32,60.24096386,7,2,16,,,,,,,,2,10,,,,,,,,,,,,,2,3.974,1,,,,,,-0.092361079,-0.256944444,1,0,0,3.9742,Basalt_rect,15,0,15,0,1,
663282cdd80779eca86e436d,SCR,2024-06-24_19h47.38.365,LearnStrategy,2023.2.3,Win32,60.24096386,8,1,1,0.088194476,-0.251388921,1,0,0,1.8009,Pumice_16,8,16,2,5,1.801,7,16,0.456944466,-0.413194444,1,0,0,1.7134,Pumice_rect,8,1.713,1,0,0,0,0,1,,,,,,,,,,,,,
663282cdd80779eca86e436d,SCR,2024-06-24_19h47.38.365,LearnStrategy,2023.2.3,Win32,60.24096386,8,1,2,0.094444434,-0.293055587,1,0,0,0.8818,Pumice_16,8,16,2,5,0.882,4,14,0.415972286,-0.407638868,1,0,0,0.7,Pumice_rect,8,0.7,1,1,0,1,0,1,,,,,,,,,,,,,
663282cdd80779eca86e436d,SCR,2024-06-24_19h47.38.365,LearnStrategy,2023.2.3,Win32,60.24096386,8,1,3,-0.082638899,-0.103472233,1,0,0,1.1215,Basalt_16,2,16,3,4,1.121,1,05,-0.143055545,-0.234722243,1,0,0,3.2401,Basalt_rect,2,3.24,1,2,0,2,0,1,,,,,,,,,,,,,
663282cdd80779eca86e436d,SCR,2024-06-24_19h47.38.365,LearnStrategy,2023.2.3,Win32,60.24096386,8,1,4,-0.565277775,0.109722217,1,0,0,1.0664,Obsidian_07,5,07,4,1,1.066,4,10,-0.381944444,-0.402777778,1,0,0,0.8859,Obsidian_rect,5,0.886,1,3,0,3,0,1,,,,,,,,,,,,,
663282cdd80779eca86e436d,SCR,2024-06-24_19h47.38.365,LearnStrategy,2023.2.3,Win32,60.24096386,8,1,5,-0.090972212,0.424305552,1,0,0,1.1992,Andesite_01,1,01,6,4,1.199,1,04,-0.355555561,-0.236805545,1,0,0,2.2217,Andesite_rect,1,2.222,1,4,0,4,0,1,,,,,,,,,,,,,
663282cdd80779eca86e436d,SCR,2024-06-24_19h47.38.365,LearnStrategy,2023.2.3,Win32,60.24096386,8,1,6,0.068055577,0.439583335,1,0,0,1.1128,Basalt_04,2,04,6,5,1.113,4,01,-0.088194423,-0.248611132,1,0,0,1.7237,Basalt_rect,2,1.724,1,5,0,5,0,1,,,,,,,,,,,,,
663282cdd80779eca86e436d,SCR,2024-06-24_19h47.38.365,LearnStrategy,2023.2.3,Win32,60.24096386,8,1,7,0.259722286,0.414583332,1,0,0,1.18,Pegmatite_08,6,08,6,6,1.18,7,15,0.145833333,-0.414583312,1,0,0,1.9155,Peridotite_rect,7,1.915,0,6,0,6,0,1,,,,,,,,,,,,,
663282cdd80779eca86e436d,SCR,2024-06-24_19h47.38.365,LearnStrategy,2023.2.3,Win32,60.24096386,8,1,8,0.272916688,0.428472221,1,0,0,1.0981,Pegmatite_08,6,08,6,6,1.098,2,12,-0.12986109,-0.415277799,1,0,0,1.6799,Pegmatite_rect,6,1.68,1,7,0,7,0,1,,,,,,,,,,,,,
663282cdd80779eca86e436d,SCR,2024-06-24_19h47.38.365,LearnStrategy,2023.2.3,Win32,60.24096386,8,1,9,0.270833333,0.436111112,1,0,0,0.8762,Pegmatite_08,6,08,6,6,0.876,8,15,-0.142361111,-0.393749979,1,0,0,1.3976,Pegmatite_rect,6,1.398,1,8,0,8,0,1,,,,,,,,,,,,,
663282cdd80779eca86e436d,SCR,2024-06-24_19h47.38.365,LearnStrategy,2023.2.3,Win32,60.24096386,8,1,10,0.107638889,0.116666661,1,0,0,1.0908,Diorite_11,3,11,4,5,1.091,4,14,-0.101388878,-0.397222201,1,0,0,2.1553,Pegmatite_rect,6,2.155,0,9,0,9,0,1,,,,,,,,,,,,,
663282cdd80779eca86e436d,SCR,2024-06-24_19h47.38.365,LearnStrategy,2023.2.3,Win32,60.24096386,8,1,11,0.063194434,0.084027767,1,0,0,0.7557,Diorite_11,3,11,4,5,0.756,7,07,0.147916688,-0.25,1,0,0,0.698,Diorite_rect,3,0.698,1,10,0,10,0,1,,,,,,,,,,,,,
663282cdd80779eca86e436d,SCR,2024-06-24_19h47.38.365,LearnStrategy,2023.2.3,Win32,60.24096386,8,1,12,0.252777841,0.409027775,1,0,0,1.3158,Pegmatite_08,6,08,6,6,1.316,6,08,-0.103472233,-0.420138889,1,0,0,1.415,Pegmatite_rect,6,1.415,1,11,0,11,0,1,,,,,,,,,,,,,
663282cdd80779eca86e436d,SCR,2024-06-24_19h47.38.365,LearnStrategy,2023.2.3,Win32,60.24096386,8,1,13,0.109722243,0.102777772,1,0,0,0.7889,Diorite_11,3,11,4,5,0.789,7,13,0.105555587,-0.268750032,1,0,0,3.8431,Diorite_rect,3,3.843,1,12,0,12,0,1,,,,,,,,,,,,,
663282cdd80779eca86e436d,SCR,2024-06-24_19h47.38.365,LearnStrategy,2023.2.3,Win32,60.24096386,8,1,14,0.563194487,-0.117361122,1,0,0,1.6388,Pegmatite_15,6,15,3,8,1.639,6,11,0.163194444,-0.414583312,1,0,0,5.4714,Peridotite_rect,7,5.471,0,13,0,13,0,1,,,,,,,,,,,,,
663282cdd80779eca86e436d,SCR,2024-06-24_19h47.38.365,LearnStrategy,2023.2.3,Win32,60.24096386,8,1,15,0.554861175,-0.098611143,1,0,0,1.6124,Pegmatite_15,6,15,3,8,1.612,3,10,-0.155555566,-0.420833376,1,0,0,0.9936,Pegmatite_rect,6,0.994,1,14,0,14,0,1,,,,,,,,,,,,,
663282cdd80779eca86e436d,SCR,2024-06-24_19h47.38.365,LearnStrategy,2023.2.3,Win32,60.24096386,8,1,16,0.578472243,-0.097916656,1,0,0,1.3046,Pegmatite_15,6,15,3,8,1.305,6,15,-0.077083323,-0.400694423,1,0,0,0.9747,Pegmatite_rect,6,0.975,1,15,0,15,0,1,,,,,,,,,,,,,
663282cdd80779eca86e436d,SCR,2024-06-24_19h47.38.365,LearnStrategy,2023.2.3,Win32,60.24096386,8,2,1,,,,,,,,7,10,,,,,,,,,,,,,7,10.09,1,,,,,,0.14166673,-0.387500021,1,0,0,10.09,Peridotite_rect,0,0,0,0,1,
663282cdd80779eca86e436d,SCR,2024-06-24_19h47.38.365,LearnStrategy,2023.2.3,Win32,60.24096386,8,2,2,,,,,,,,6,07,,,,,,,,,,,,,6,2.422,1,,,,,,-0.143749979,-0.395833333,1,0,0,2.4223,Pegmatite_rect,1,0,1,0,1,
663282cdd80779eca86e436d,SCR,2024-06-24_19h47.38.365,LearnStrategy,2023.2.3,Win32,60.24096386,8,2,3,,,,,,,,5,02,,,,,,,,,,,,,5,1.093,1,,,,,,-0.407638894,-0.387500021,1,0,0,1.093,Obsidian_rect,2,0,2,0,1,
663282cdd80779eca86e436d,SCR,2024-06-24_19h47.38.365,LearnStrategy,2023.2.3,Win32,60.24096386,8,2,4,,,,,,,,5,12,,,,,,,,,,,,,5,0.882,1,,,,,,-0.40555554,-0.395138952,1,0,0,0.8822,Obsidian_rect,3,0,3,0,1,
663282cdd80779eca86e436d,SCR,2024-06-24_19h47.38.365,LearnStrategy,2023.2.3,Win32,60.24096386,8,2,5,,,,,,,,6,12,,,,,,,,,,,,,6,6.924,1,,,,,,-0.097916656,-0.410416709,1,0,0,6.9242,Pegmatite_rect,4,0,4,0,1,
663282cdd80779eca86e436d,SCR,2024-06-24_19h47.38.365,LearnStrategy,2023.2.3,Win32,60.24096386,8,2,6,,,,,,,,2,11,,,,,,,,,,,,,4,3.769,0,,,,,,0.34861109,-0.24513891,1,0,0,3.7686,Gabbro_rect,5,0,5,0,1,
663282cdd80779eca86e436d,SCR,2024-06-24_19h47.38.365,LearnStrategy,2023.2.3,Win32,60.24096386,8,2,7,,,,,,,,2,01,,,,,,,,,,,,,2,1.06,1,,,,,,-0.081944413,-0.245833344,1,0,0,1.0601,Basalt_rect,6,0,6,0,1,
663282cdd80779eca86e436d,SCR,2024-06-24_19h47.38.365,LearnStrategy,2023.2.3,Win32,60.24096386,8,2,8,,,,,,,,3,07,,,,,,,,,,,,,6,10.033,0,,,,,,-0.208333333,-0.410416709,1,0,0,10.0333,Pegmatite_rect,7,0,7,0,1,
663282cdd80779eca86e436d,SCR,2024-06-24_19h47.38.365,LearnStrategy,2023.2.3,Win32,60.24096386,8,2,9,,,,,,,,1,10,,,,,,,,,,,,,1,3.144,1,,,,,,-0.336805556,-0.256944444,1,0,0,3.1442,Andesite_rect,8,0,8,0,1,
663282cdd80779eca86e436d,SCR,2024-06-24_19h47.38.365,LearnStrategy,2023.2.3,Win32,60.24096386,8,2,10,,,,,,,,8,06,,,,,,,,,,,,,8,1.317,1,,,,,,0.409027841,-0.404166645,1,0,0,1.3172,Pumice_rect,9,0,9,0,1,
663282cdd80779eca86e436d,SCR,2024-06-24_19h47.38.365,LearnStrategy,2023.2.3,Win32,60.24096386,8,2,11,,,,,,,,4,05,,,,,,,,,,,,,1,8.87,0,,,,,,-0.371527778,-0.259722233,1,0,0,8.8703,Andesite_rect,10,0,10,0,1,
663282cdd80779eca86e436d,SCR,2024-06-24_19h47.38.365,LearnStrategy,2023.2.3,Win32,60.24096386,8,2,12,,,,,,,,1,03,,,,,,,,,,,,,2,1.459,0,,,,,,-0.113194413,-0.266666677,1,0,0,1.4589,Basalt_rect,11,0,11,0,1,
663282cdd80779eca86e436d,SCR,2024-06-24_19h47.38.365,LearnStrategy,2023.2.3,Win32,60.24096386,8,2,13,,,,,,,,4,15,,,,,,,,,,,,,1,5.55,0,,,,,,-0.397916661,-0.252777788,1,0,0,5.5495,Andesite_rect,12,0,12,0,1,
663282cdd80779eca86e436d,SCR,2024-06-24_19h47.38.365,LearnStrategy,2023.2.3,Win32,60.24096386,8,2,14,,,,,,,,8,05,,,,,,,,,,,,,8,1.499,1,,,,,,0.472916709,-0.410416709,1,0,0,1.4994,Pumice_rect,13,0,13,0,1,
663282cdd80779eca86e436d,SCR,2024-06-24_19h47.38.365,LearnStrategy,2023.2.3,Win32,60.24096386,8,2,15,,,,,,,,7,02,,,,,,,,,,,,,3,7.414,0,,,,,,0.136111101,-0.235416677,1,0,0,7.4138,Diorite_rect,14,0,14,0,1,
663282cdd80779eca86e436d,SCR,2024-06-24_19h47.38.365,LearnStrategy,2023.2.3,Win32,60.24096386,8,2,16,,,,,,,,3,16,,,,,,,,,,,,,7,10.484,0,,,,,,0.174305598,-0.400000042,1,0,0,10.4845,Peridotite_rect,15,0,15,0,1,
663282cdd80779eca86e436d,SCR,2024-06-24_19h47.38.365,LearnStrategy,2023.2.3,Win32,60.24096386,9,1,1,0.400694423,-0.272222254,1,0,0,4.0154,Pegmatite_09,6,09,2,7,4.015,4,12,-0.070138878,-0.406944487,1,0,0,2.5736,Pegmatite_rect,6,2.574,1,0,0,0,0,1,,,,,,,,,,,,,
663282cdd80779eca86e436d,SCR,2024-06-24_19h47.38.365,LearnStrategy,2023.2.3,Win32,60.24096386,9,1,2,0.416666667,-0.247916698,1,0,0,0.8798,Pegmatite_09,6,09,2,7,0.88,4,11,-0.110416677,-0.419444508,1,0,0,0.7903,Pegmatite_rect,6,0.79,1,1,0,1,0,1,,,,,,,,,,,,,
663282cdd80779eca86e436d,SCR,2024-06-24_19h47.38.365,LearnStrategy,2023.2.3,Win32,60.24096386,9,1,3,0.577083376,-0.076388889,1,0,0,1.7441,Pegmatite_15,6,15,3,8,1.744,3,11,-0.100694444,-0.402083397,1,0,0,0.8948,Pegmatite_rect,6,0.895,1,2,0,2,0,1,,,,,,,,,,,,,
663282cdd80779eca86e436d,SCR,2024-06-24_19h47.38.365,LearnStrategy,2023.2.3,Win32,60.24096386,9,1,4,-0.088888857,0.45347222,1,0,0,1.1553,Andesite_01,1,01,6,4,1.155,4,13,-0.439583328,-0.233333323,1,0,0,2.1688,Andesite_rect,1,2.169,1,3,0,3,0,1,,,,,,,,,,,,,
663282cdd80779eca86e436d,SCR,2024-06-24_19h47.38.365,LearnStrategy,2023.2.3,Win32,60.24096386,9,1,5,-0.112499979,-0.106944455,1,0,0,0.9821,Basalt_16,2,16,3,4,0.982,8,15,-0.166666667,-0.253472222,1,0,0,0.7088,Basalt_rect,2,0.709,1,4,0,4,0,1,,,,,,,,,,,,,
663282cdd80779eca86e436d,SCR,2024-06-24_19h47.38.365,LearnStrategy,2023.2.3,Win32,60.24096386,9,1,6,-0.239583333,-0.109722243,1,0,0,0.9961,Gabbro_11,4,11,3,3,0.996,7,15,0.47361109,-0.241666688,1,0,0,1.9598,Gabbro_rect,4,1.96,1,5,0,5,0,1,,,,,,,,,,,,,
663282cdd80779eca86e436d,SCR,2024-06-24_19h47.38.365,LearnStrategy,2023.2.3,Win32,60.24096386,9,1,7,-0.242361122,-0.10902781,1,0,0,1.0961,Gabbro_11,4,11,3,3,1.096,6,09,0.434722265,-0.241666688,1,0,0,0.8765,Gabbro_rect,4,0.877,1,6,0,6,0,1,,,,,,,,,,,,,
663282cdd80779eca86e436d,SCR,2024-06-24_19h47.38.365,LearnStrategy,2023.2.3,Win32,60.24096386,9,1,8,-0.232638889,-0.085416688,1,0,0,0.7808,Gabbro_11,4,11,3,3,0.781,3,02,0.446527799,-0.267361111,1,0,0,0.6167,Gabbro_rect,4,0.617,1,7,0,7,0,1,,,,,,,,,,,,,
663282cdd80779eca86e436d,SCR,2024-06-24_19h47.38.365,LearnStrategy,2023.2.3,Win32,60.24096386,9,1,9,-0.230555534,-0.104166667,1,0,0,0.8744,Gabbro_11,4,11,3,3,0.874,7,07,0.429861175,-0.262500021,1,0,0,0.618,Gabbro_rect,4,0.618,1,8,0,8,0,1,,,,,,,,,,,,,
663282cdd80779eca86e436d,SCR,2024-06-24_19h47.38.365,LearnStrategy,2023.2.3,Win32,60.24096386,9,1,10,-0.218055566,0.081944439,1,0,0,0.8908,Diorite_02,3,02,4,3,0.891,2,08,0.137500021,-0.412500064,1,0,0,1.4329,Peridotite_rect,7,1.433,0,9,0,9,0,1,,,,,,,,,,,,,
663282cdd80779eca86e436d,SCR,2024-06-24_19h47.38.365,LearnStrategy,2023.2.3,Win32,60.24096386,9,1,11,-0.25486109,0.078472217,1,0,0,0.8658,Diorite_02,3,02,4,3,0.866,2,06,0.129166656,-0.249305566,1,0,0,1.3373,Diorite_rect,3,1.337,1,10,0,10,0,1,,,,,,,,,,,,,
663282cdd80779eca86e436d,SCR,2024-06-24_19h47.38.365,LearnStrategy,2023.2.3,Win32,60.24096386,9,1,12,-0.246527778,0.115277767,1,0,0,1.0517,Diorite_02,3,02,4,3,1.052,1,02,0.176388952,-0.254166656,1,0,0,1.2972,Diorite_rect,3,1.297,1,11,0,11,0,1,,,,,,,,,,,,,
663282cdd80779eca86e436d,SCR,2024-06-24_19h47.38.365,LearnStrategy,2023.2.3,Win32,60.24096386,9,1,13,-0.398611095,0.087499989,1,0,0,0.7536,Peridotite_07,7,07,4,2,0.754,6,15,0.160416709,-0.398611175,1,0,0,1.9582,Peridotite_rect,7,1.958,1,12,0,12,0,1,,,,,,,,,,,,,
663282cdd80779eca86e436d,SCR,2024-06-24_19h47.38.365,LearnStrategy,2023.2.3,Win32,60.24096386,9,1,14,-0.237499979,0.095833328,1,0,0,1.3633,Diorite_02,3,02,4,3,1.363,7,15,0.163888931,-0.24513891,1,0,0,1.0766,Diorite_rect,3,1.077,1,13,0,13,0,1,,,,,,,,,,,,,
663282cdd80779eca86e436d,SCR,2024-06-24_19h47.38.365,LearnStrategy,2023.2.3,Win32,60.24096386,9,1,15,-0.231249968,0.109027783,1,0,0,0.9475,Diorite_02,3,02,4,3,0.948,4,14,0.14652782,-0.254861143,1,0,0,0.7892,Diorite_rect,3,0.789,1,14,0,14,0,1,,,,,,,,,,,,,
663282cdd80779eca86e436d,SCR,2024-06-24_19h47.38.365,LearnStrategy,2023.2.3,Win32,60.24096386,9,1,16,-0.373611106,0.138194429,1,0,0,1.1521,Peridotite_07,7,07,4,2,1.152,1,04,0.152777778,-0.402777778,1,0,0,2.6085,Peridotite_rect,7,2.608,1,15,0,15,0,1,,,,,,,,,,,,,
663282cdd80779eca86e436d,SCR,2024-06-24_19h47.38.365,LearnStrategy,2023.2.3,Win32,60.24096386,9,2,1,,,,,,,,1,07,,,,,,,,,,,,,7,12.471,0,,,,,,0.129166656,-0.409027841,1,0,0,12.4708,Peridotite_rect,0,0,0,0,1,
663282cdd80779eca86e436d,SCR,2024-06-24_19h47.38.365,LearnStrategy,2023.2.3,Win32,60.24096386,9,2,2,,,,,,,,8,08,,,,,,,,,,,,,8,1.176,1,,,,,,0.400000042,-0.385416667,1,0,0,1.1759,Pumice_rect,1,0,1,0,1,
663282cdd80779eca86e436d,SCR,2024-06-24_19h47.38.365,LearnStrategy,2023.2.3,Win32,60.24096386,9,2,3,,,,,,,,7,14,,,,,,,,,,,,,3,4.859,0,,,,,,0.118055556,-0.255555577,1,0,0,4.8591,Diorite_rect,2,0,2,0,1,
663282cdd80779eca86e436d,SCR,2024-06-24_19h47.38.365,LearnStrategy,2023.2.3,Win32,60.24096386,9,2,4,,,,,,,,1,06,,,,,,,,,,,,,4,6.475,0,,,,,,0.404166645,-0.24513891,1,0,0,6.4749,Gabbro_rect,3,0,3,0,1,
663282cdd80779eca86e436d,SCR,2024-06-24_19h47.38.365,LearnStrategy,2023.2.3,Win32,60.24096386,9,2,5,,,,,,,,5,08,,,,,,,,,,,,,5,1.37,1,,,,,,-0.34375,-0.407638868,1,0,0,1.3699,Obsidian_rect,4,0,4,0,1,
663282cdd80779eca86e436d,SCR,2024-06-24_19h47.38.365,LearnStrategy,2023.2.3,Win32,60.24096386,9,2,6,,,,,,,,2,02,,,,,,,,,,,,,2,2.483,1,,,,,,-0.170833323,-0.253472222,1,0,0,2.4833,Basalt_rect,5,0,5,0,1,
663282cdd80779eca86e436d,SCR,2024-06-24_19h47.38.365,LearnStrategy,2023.2.3,Win32,60.24096386,9,2,7,,,,,,,,6,05,,,,,,,,,,,,,6,5.654,1,,,,,,-0.113888899,-0.402083397,1,0,0,5.6537,Pegmatite_rect,6,0,6,0,1,
663282cdd80779eca86e436d,SCR,2024-06-24_19h47.38.365,LearnStrategy,2023.2.3,Win32,60.24096386,9,2,8,,,,,,,,4,08,,,,,,,,,,,,,7,4.122,0,,,,,,0.115277767,-0.398611175,1,0,0,4.1222,Peridotite_rect,7,0,7,0,1,
663282cdd80779eca86e436d,SCR,2024-06-24_19h47.38.365,LearnStrategy,2023.2.3,Win32,60.24096386,9,2,9,,,,,,,,3,13,,,,,,,,,,,,,7,3.35,0,,,,,,0.115277767,-0.398611175,1,0,0,3.3497,Peridotite_rect,8,0,8,0,1,
663282cdd80779eca86e436d,SCR,2024-06-24_19h47.38.365,LearnStrategy,2023.2.3,Win32,60.24096386,9,2,10,,,,,,,,2,14,,,,,,,,,,,,,2,2.907,1,,,,,,-0.159027788,-0.248611132,1,0,0,2.9069,Basalt_rect,9,0,9,0,1,
663282cdd80779eca86e436d,SCR,2024-06-24_19h47.38.365,LearnStrategy,2023.2.3,Win32,60.24096386,9,2,11,,,,,,,,7,06,,,,,,,,,,,,,6,5.603,0,,,,,,-0.131944444,-0.411805577,1,0,0,5.6026,Pegmatite_rect,10,0,10,0,1,
663282cdd80779eca86e436d,SCR,2024-06-24_19h47.38.365,LearnStrategy,2023.2.3,Win32,60.24096386,9,2,12,,,,,,,,3,15,,,,,,,,,,,,,7,3.338,0,,,,,,0.123611132,-0.392361111,1,0,0,3.3377,Peridotite_rect,11,0,11,0,1,
663282cdd80779eca86e436d,SCR,2024-06-24_19h47.38.365,LearnStrategy,2023.2.3,Win32,60.24096386,9,2,13,,,,,,,,5,04,,,,,,,,,,,,,5,1.212,1,,,,,,-0.426388873,-0.393055598,1,0,0,1.2117,Obsidian_rect,12,0,12,0,1,
663282cdd80779eca86e436d,SCR,2024-06-24_19h47.38.365,LearnStrategy,2023.2.3,Win32,60.24096386,9,2,14,,,,,,,,6,16,,,,,,,,,,,,,6,2.28,1,,,,,,-0.118055556,-0.411805577,1,0,0,2.2804,Pegmatite_rect,13,0,13,0,1,
663282cdd80779eca86e436d,SCR,2024-06-24_19h47.38.365,LearnStrategy,2023.2.3,Win32,60.24096386,9,2,15,,,,,,,,4,09,,,,,,,,,,,,,4,4.954,1,,,,,,0.390277757,-0.258333365,1,0,0,4.9538,Gabbro_rect,14,0,14,0,1,
663282cdd80779eca86e436d,SCR,2024-06-24_19h47.38.365,LearnStrategy,2023.2.3,Win32,60.24096386,9,2,16,,,,,,,,8,09,,,,,,,,,,,,,8,1.68,1,,,,,,0.379166709,-0.413194444,1,0,0,1.6803,Pumice_rect,15,0,15,0,1,
663282cdd80779eca86e436d,SCR,2024-06-24_19h47.38.365,LearnStrategy,2023.2.3,Win32,60.24096386,,,,,,,,,,,,,,,,,,,,,,,,,,,,,,,,,,,,,,,,,,,,,0
663282cdd80779eca86e436d,SCR,2024-06-24_19h47.38.365,LearnStrategy,2023.2.3,Win32,60.24096386,,,,,,,,,,,,,,,,,,,,,,,,,,,,,,,,,,,,,,,,,,,,,
663282cdd80779eca86e436d,SCR,2024-06-24_19h47.38.365,LearnStrategy,2023.2.3,Win32,60.24096386,,,,,,,,,,,3,14,1,1,,,,,,,,,,,,,,,,,,,,,,,,,,,,,,,
663282cdd80779eca86e436d,SCR,2024-06-24_19h47.38.365,LearnStrategy,2023.2.3,Win32,60.24096386,,,,,,,,,,,7,15,1,2,,,,,,,,,,,,,,,,,,,,,,,,,,,,,,,
663282cdd80779eca86e436d,SCR,2024-06-24_19h47.38.365,LearnStrategy,2023.2.3,Win32,60.24096386,,,,,,,,,,,5,14,1,3,,,,,,,,,,,,,,,,,,,,,,,,,,,,,,,
663282cdd80779eca86e436d,SCR,2024-06-24_19h47.38.365,LearnStrategy,2023.2.3,Win32,60.24096386,,,,,,,,,,,8,10,1,4,,,,,,,,,,,,,,,,,,,,,,,,,,,,,,,
663282cdd80779eca86e436d,SCR,2024-06-24_19h47.38.365,LearnStrategy,2023.2.3,Win32,60.24096386,,,,,,,,,,,3,09,1,5,,,,,,,,,,,,,,,,,,,,,,,,,,,,,,,
663282cdd80779eca86e436d,SCR,2024-06-24_19h47.38.365,LearnStrategy,2023.2.3,Win32,60.24096386,,,,,,,,,,,4,10,1,6,,,,,,,,,,,,,,,,,,,,,,,,,,,,,,,
663282cdd80779eca86e436d,SCR,2024-06-24_19h47.38.365,LearnStrategy,2023.2.3,Win32,60.24096386,,,,,,,,,,,2,12,1,7,,,,,,,,,,,,,,,,,,,,,,,,,,,,,,,
663282cdd80779eca86e436d,SCR,2024-06-24_19h47.38.365,LearnStrategy,2023.2.3,Win32,60.24096386,,,,,,,,,,,3,10,1,8,,,,,,,,,,,,,,,,,,,,,,,,,,,,,,,
663282cdd80779eca86e436d,SCR,2024-06-24_19h47.38.365,LearnStrategy,2023.2.3,Win32,60.24096386,,,,,,,,,,,1,16,2,1,,,,,,,,,,,,,,,,,,,,,,,,,,,,,,,
663282cdd80779eca86e436d,SCR,2024-06-24_19h47.38.365,LearnStrategy,2023.2.3,Win32,60.24096386,,,,,,,,,,,2,09,2,2,,,,,,,,,,,,,,,,,,,,,,,,,,,,,,,
663282cdd80779eca86e436d,SCR,2024-06-24_19h47.38.365,LearnStrategy,2023.2.3,Win32,60.24096386,,,,,,,,,,,4,12,2,3,,,,,,,,,,,,,,,,,,,,,,,,,,,,,,,
663282cdd80779eca86e436d,SCR,2024-06-24_19h47.38.365,LearnStrategy,2023.2.3,Win32,60.24096386,,,,,,,,,,,5,05,2,4,,,,,,,,,,,,,,,,,,,,,,,,,,,,,,,
663282cdd80779eca86e436d,SCR,2024-06-24_19h47.38.365,LearnStrategy,2023.2.3,Win32,60.24096386,,,,,,,,,,,8,16,2,5,,,,,,,,,,,,,,,,,,,,,,,,,,,,,,,
663282cdd80779eca86e436d,SCR,2024-06-24_19h47.38.365,LearnStrategy,2023.2.3,Win32,60.24096386,,,,,,,,,,,1,04,2,6,,,,,,,,,,,,,,,,,,,,,,,,,,,,,,,
663282cdd80779eca86e436d,SCR,2024-06-24_19h47.38.365,LearnStrategy,2023.2.3,Win32,60.24096386,,,,,,,,,,,6,09,2,7,,,,,,,,,,,,,,,,,,,,,,,,,,,,,,,
663282cdd80779eca86e436d,SCR,2024-06-24_19h47.38.365,LearnStrategy,2023.2.3,Win32,60.24096386,,,,,,,,,,,6,11,2,8,,,,,,,,,,,,,,,,,,,,,,,,,,,,,,,
663282cdd80779eca86e436d,SCR,2024-06-24_19h47.38.365,LearnStrategy,2023.2.3,Win32,60.24096386,,,,,,,,,,,1,02,3,1,,,,,,,,,,,,,,,,,,,,,,,,,,,,,,,
663282cdd80779eca86e436d,SCR,2024-06-24_19h47.38.365,LearnStrategy,2023.2.3,Win32,60.24096386,,,,,,,,,,,1,14,3,2,,,,,,,,,,,,,,,,,,,,,,,,,,,,,,,
663282cdd80779eca86e436d,SCR,2024-06-24_19h47.38.365,LearnStrategy,2023.2.3,Win32,60.24096386,,,,,,,,,,,4,11,3,3,,,,,,,,,,,,,,,,,,,,,,,,,,,,,,,
663282cdd80779eca86e436d,SCR,2024-06-24_19h47.38.365,LearnStrategy,2023.2.3,Win32,60.24096386,,,,,,,,,,,2,16,3,4,,,,,,,,,,,,,,,,,,,,,,,,,,,,,,,
663282cdd80779eca86e436d,SCR,2024-06-24_19h47.38.365,LearnStrategy,2023.2.3,Win32,60.24096386,,,,,,,,,,,5,16,3,5,,,,,,,,,,,,,,,,,,,,,,,,,,,,,,,
663282cdd80779eca86e436d,SCR,2024-06-24_19h47.38.365,LearnStrategy,2023.2.3,Win32,60.24096386,,,,,,,,,,,7,13,3,6,,,,,,,,,,,,,,,,,,,,,,,,,,,,,,,
663282cdd80779eca86e436d,SCR,2024-06-24_19h47.38.365,LearnStrategy,2023.2.3,Win32,60.24096386,,,,,,,,,,,3,12,3,7,,,,,,,,,,,,,,,,,,,,,,,,,,,,,,,
663282cdd80779eca86e436d,SCR,2024-06-24_19h47.38.365,LearnStrategy,2023.2.3,Win32,60.24096386,,,,,,,,,,,6,15,3,8,,,,,,,,,,,,,,,,,,,,,,,,,,,,,,,
663282cdd80779eca86e436d,SCR,2024-06-24_19h47.38.365,LearnStrategy,2023.2.3,Win32,60.24096386,,,,,,,,,,,5,07,4,1,,,,,,,,,,,,,,,,,,,,,,,,,,,,,,,
663282cdd80779eca86e436d,SCR,2024-06-24_19h47.38.365,LearnStrategy,2023.2.3,Win32,60.24096386,,,,,,,,,,,7,07,4,2,,,,,,,,,,,,,,,,,,,,,,,,,,,,,,,
663282cdd80779eca86e436d,SCR,2024-06-24_19h47.38.365,LearnStrategy,2023.2.3,Win32,60.24096386,,,,,,,,,,,3,02,4,3,,,,,,,,,,,,,,,,,,,,,,,,,,,,,,,
663282cdd80779eca86e436d,SCR,2024-06-24_19h47.38.365,LearnStrategy,2023.2.3,Win32,60.24096386,,,,,,,,,,,2,08,4,4,,,,,,,,,,,,,,,,,,,,,,,,,,,,,,,
663282cdd80779eca86e436d,SCR,2024-06-24_19h47.38.365,LearnStrategy,2023.2.3,Win32,60.24096386,,,,,,,,,,,3,11,4,5,,,,,,,,,,,,,,,,,,,,,,,,,,,,,,,
663282cdd80779eca86e436d,SCR,2024-06-24_19h47.38.365,LearnStrategy,2023.2.3,Win32,60.24096386,,,,,,,,,,,6,06,4,6,,,,,,,,,,,,,,,,,,,,,,,,,,,,,,,
663282cdd80779eca86e436d,SCR,2024-06-24_19h47.38.365,LearnStrategy,2023.2.3,Win32,60.24096386,,,,,,,,,,,7,08,4,7,,,,,,,,,,,,,,,,,,,,,,,,,,,,,,,
663282cdd80779eca86e436d,SCR,2024-06-24_19h47.38.365,LearnStrategy,2023.2.3,Win32,60.24096386,,,,,,,,,,,7,16,4,8,,,,,,,,,,,,,,,,,,,,,,,,,,,,,,,
663282cdd80779eca86e436d,SCR,2024-06-24_19h47.38.365,LearnStrategy,2023.2.3,Win32,60.24096386,,,,,,,,,,,8,15,5,1,,,,,,,,,,,,,,,,,,,,,,,,,,,,,,,
663282cdd80779eca86e436d,SCR,2024-06-24_19h47.38.365,LearnStrategy,2023.2.3,Win32,60.24096386,,,,,,,,,,,5,11,5,2,,,,,,,,,,,,,,,,,,,,,,,,,,,,,,,
663282cdd80779eca86e436d,SCR,2024-06-24_19h47.38.365,LearnStrategy,2023.2.3,Win32,60.24096386,,,,,,,,,,,8,02,5,3,,,,,,,,,,,,,,,,,,,,,,,,,,,,,,,
663282cdd80779eca86e436d,SCR,2024-06-24_19h47.38.365,LearnStrategy,2023.2.3,Win32,60.24096386,,,,,,,,,,,8,04,5,4,,,,,,,,,,,,,,,,,,,,,,,,,,,,,,,
663282cdd80779eca86e436d,SCR,2024-06-24_19h47.38.365,LearnStrategy,2023.2.3,Win32,60.24096386,,,,,,,,,,,8,14,5,5,,,,,,,,,,,,,,,,,,,,,,,,,,,,,,,
663282cdd80779eca86e436d,SCR,2024-06-24_19h47.38.365,LearnStrategy,2023.2.3,Win32,60.24096386,,,,,,,,,,,5,09,5,6,,,,,,,,,,,,,,,,,,,,,,,,,,,,,,,
663282cdd80779eca86e436d,SCR,2024-06-24_19h47.38.365,LearnStrategy,2023.2.3,Win32,60.24096386,,,,,,,,,,,1,05,5,7,,,,,,,,,,,,,,,,,,,,,,,,,,,,,,,
663282cdd80779eca86e436d,SCR,2024-06-24_19h47.38.365,LearnStrategy,2023.2.3,Win32,60.24096386,,,,,,,,,,,2,06,5,8,,,,,,,,,,,,,,,,,,,,,,,,,,,,,,,
663282cdd80779eca86e436d,SCR,2024-06-24_19h47.38.365,LearnStrategy,2023.2.3,Win32,60.24096386,,,,,,,,,,,4,14,6,1,,,,,,,,,,,,,,,,,,,,,,,,,,,,,,,
663282cdd80779eca86e436d,SCR,2024-06-24_19h47.38.365,LearnStrategy,2023.2.3,Win32,60.24096386,,,,,,,,,,,7,12,6,2,,,,,,,,,,,,,,,,,,,,,,,,,,,,,,,
663282cdd80779eca86e436d,SCR,2024-06-24_19h47.38.365,LearnStrategy,2023.2.3,Win32,60.24096386,,,,,,,,,,,6,03,6,3,,,,,,,,,,,,,,,,,,,,,,,,,,,,,,,
663282cdd80779eca86e436d,SCR,2024-06-24_19h47.38.365,LearnStrategy,2023.2.3,Win32,60.24096386,,,,,,,,,,,1,01,6,4,,,,,,,,,,,,,,,,,,,,,,,,,,,,,,,
663282cdd80779eca86e436d,SCR,2024-06-24_19h47.38.365,LearnStrategy,2023.2.3,Win32,60.24096386,,,,,,,,,,,2,04,6,5,,,,,,,,,,,,,,,,,,,,,,,,,,,,,,,
663282cdd80779eca86e436d,SCR,2024-06-24_19h47.38.365,LearnStrategy,2023.2.3,Win32,60.24096386,,,,,,,,,,,6,08,6,6,,,,,,,,,,,,,,,,,,,,,,,,,,,,,,,
663282cdd80779eca86e436d,SCR,2024-06-24_19h47.38.365,LearnStrategy,2023.2.3,Win32,60.24096386,,,,,,,,,,,4,01,6,7,,,,,,,,,,,,,,,,,,,,,,,,,,,,,,,
663282cdd80779eca86e436d,SCR,2024-06-24_19h47.38.365,LearnStrategy,2023.2.3,Win32,60.24096386,,,,,,,,,,,4,13,6,8,,,,,,,,,,,,,,,,,,,,,,,,,,,,,,,