participant,condition,date,expName,psychopyVersion,OS,frameRate,block,phase,trial,learn_mouse.x,learn_mouse.y,learn_mouse.leftButton,learn_mouse.midButton,learn_mouse.rightButton,learn_mouse.time,learn_mouse.clicked_name,cat,token,row,col,t_select,cat_mouse_l.x,cat_mouse_l.y,cat_mouse_l.leftButton,cat_mouse_l.midButton,cat_mouse_l.rightButton,cat_mouse_l.time,cat_mouse_l.clicked_name,resp,t_resp,corr,train_trials.thisRepN,train_trials.thisTrialN,train_trials.thisN,train_trials.thisIndex,train_trials.ran,cat_mouse_t.x,cat_mouse_t.y,cat_mouse_t.leftButton,cat_mouse_t.midButton,cat_mouse_t.rightButton,cat_mouse_t.time,cat_mouse_t.clicked_name,test_trials.thisRepN,test_trials.thisTrialN,test_trials.thisN,test_trials.thisIndex,test_trials.ran,Bonus
6638f3d967d2828b285f176d,SCN,2024-06-11_19h47.59.811,LearnStrategy,2023.2.3,MacIntel,60.0240096,,,,,,,,,,,,,,,,,,,,,,,,,,,,,,,,,,,,,,,,,,,
6638f3d967d2828b285f176d,SCN,2024-06-11_19h47.59.811,LearnStrategy,2023.2.3,MacIntel,60.0240096,1,1,1,0.045795171,0.102830974,1,0,0,2.152,Gabbro_14,4,14,4,5,2.152,0.089092423,-0.230224813,1,0,0,1.107,Diorite_rect,3,1.107,0,0,0,0,0,1,,,,,,,,,,,,,
6638f3d967d2828b285f176d,SCN,2024-06-11_19h47.59.811,LearnStrategy,2023.2.3,MacIntel,60.0240096,1,1,2,-0.069109076,-0.098667777,1,0,0,1.399,Diorite_07,3,07,3,4,1.399,-0.090757702,-0.244379684,1,0,0,0.918,Basalt_rect,2,0.918,0,1,0,1,0,1,,,,,,,,,,,,,
6638f3d967d2828b285f176d,SCN,2024-06-11_19h47.59.811,LearnStrategy,2023.2.3,MacIntel,60.0240096,1,1,3,0.032472939,0.090341382,1,0,0,1.275,Gabbro_14,4,14,4,5,1.275,0.06244796,-0.267693589,1,0,0,0.847,Diorite_rect,3,0.847,0,2,0,2,0,1,,,,,,,,,,,,,
6638f3d967d2828b285f176d,SCN,2024-06-11_19h47.59.811,LearnStrategy,2023.2.3,MacIntel,60.0240096,1,1,4,-0.223147377,-0.111157369,1,0,0,0.649,Diorite_11,3,11,3,3,0.649,-0.378018318,-0.25020816,1,0,0,1.171,Andesite_rect,1,1.171,0,3,0,3,0,1,,,,,,,,,,,,,
6638f3d967d2828b285f176d,SCN,2024-06-11_19h47.59.811,LearnStrategy,2023.2.3,MacIntel,60.0240096,1,1,5,-0.052456286,-0.118651124,1,0,0,0.448,Diorite_07,3,07,3,4,0.448,-0.057452123,-0.257701915,1,0,0,0.438,Basalt_rect,2,0.438,0,4,0,4,0,1,,,,,,,,,,,,,
6638f3d967d2828b285f176d,SCN,2024-06-11_19h47.59.811,LearnStrategy,2023.2.3,MacIntel,60.0240096,1,1,6,0.024146545,-0.063696919,1,0,0,0.248,Basalt_11,2,11,3,5,0.248,0.144046628,-0.251873439,1,0,0,0.537,Diorite_rect,3,0.537,0,5,0,5,0,1,,,,,,,,,,,,,
6638f3d967d2828b285f176d,SCN,2024-06-11_19h47.59.811,LearnStrategy,2023.2.3,MacIntel,60.0240096,1,1,7,0.243130724,-0.116153206,1,0,0,0.315,Gabbro_01,4,01,3,6,0.315,0.139050791,-0.231890092,1,0,0,1.437,Diorite_rect,3,1.437,0,6,0,6,0,1,,,,,,,,,,,,,
6638f3d967d2828b285f176d,SCN,2024-06-11_19h47.59.811,LearnStrategy,2023.2.3,MacIntel,60.0240096,1,1,8,-0.10990841,-0.054537885,1,0,0,0.382,Diorite_07,3,07,3,4,0.382,-0.154870941,-0.230224813,1,0,0,0.617,Basalt_rect,2,0.617,0,7,0,7,0,1,,,,,,,,,,,,,
6638f3d967d2828b285f176d,SCN,2024-06-11_19h47.59.811,LearnStrategy,2023.2.3,MacIntel,60.0240096,1,1,9,-0.213155704,0.057868443,1,0,0,0.332,Andesite_11,1,11,4,3,0.332,-0.395503747,-0.229392173,1,0,0,1.322,Andesite_rect,1,1.322,1,8,0,8,0,1,,,,,,,,,,,,,
6638f3d967d2828b285f176d,SCN,2024-06-11_19h47.59.811,LearnStrategy,2023.2.3,MacIntel,60.0240096,1,1,10,0.043297252,0.24937552,1,0,0,0.866,Gabbro_11,4,11,5,5,0.866,0.090757702,-0.420066611,1,0,0,1.086,Peridotite_rect,7,1.086,0,9,0,9,0,1,,,,,,,,,,,,,
6638f3d967d2828b285f176d,SCN,2024-06-11_19h47.59.811,LearnStrategy,2023.2.3,MacIntel,60.0240096,1,1,11,-0.051623647,0.091174022,1,0,0,0.581,Andesite_14,1,14,4,4,0.581,-0.104912573,-0.240216486,1,0,0,0.923,Basalt_rect,2,0.923,0,10,0,10,0,1,,,,,,,,,,,,,
6638f3d967d2828b285f176d,SCN,2024-06-11_19h47.59.811,LearnStrategy,2023.2.3,MacIntel,60.0240096,1,1,12,0.067443797,0.295170691,1,0,0,0.682,Gabbro_11,4,11,5,5,0.682,-0.076602831,-0.24937552,1,0,0,1.07,Basalt_rect,2,1.07,0,11,0,11,0,1,,,,,,,,,,,,,
6638f3d967d2828b285f176d,SCN,2024-06-11_19h47.59.811,LearnStrategy,2023.2.3,MacIntel,60.0240096,1,1,13,0.098251457,0.43755204,1,0,0,0.481,Peridotite_02,7,02,6,5,0.481,0.170691091,-0.268526228,1,0,0,1.151,Diorite_rect,3,1.151,0,12,0,12,0,1,,,,,,,,,,,,,
6638f3d967d2828b285f176d,SCN,2024-06-11_19h47.59.811,LearnStrategy,2023.2.3,MacIntel,60.0240096,1,1,14,0.389675271,0.09450458,1,0,0,0.333,Obsidian_14,5,14,4,7,0.333,-0.356369692,-0.398417985,1,0,0,2.088,Obsidian_rect,5,2.088,1,13,0,13,0,1,,,,,,,,,,,,,
6638f3d967d2828b285f176d,SCN,2024-06-11_19h47.59.811,LearnStrategy,2023.2.3,MacIntel,60.0240096,1,1,15,0.511240633,0.136136553,1,0,0,0.816,Obsidian_12,5,12,4,8,0.816,-0.346378018,-0.40591174,1,0,0,1.321,Obsidian_rect,5,1.321,1,14,0,14,0,1,,,,,,,,,,,,,
6638f3d967d2828b285f176d,SCN,2024-06-11_19h47.59.811,LearnStrategy,2023.2.3,MacIntel,60.0240096,1,1,16,-0.053288926,0.146960866,1,0,0,0.616,Andesite_14,1,14,4,4,0.616,-0.142381349,-0.268526228,1,0,0,1.204,Basalt_rect,2,1.204,0,15,0,15,0,1,,,,,,,,,,,,,
6638f3d967d2828b285f176d,SCN,2024-06-11_19h47.59.811,LearnStrategy,2023.2.3,MacIntel,60.0240096,1,2,1,,,,,,,,6,11,,,,,,,,,,,3,1.108,0,,,,,,0.153205662,-0.252706078,1,0,0,1.108,Diorite_rect,0,0,0,0,1,
6638f3d967d2828b285f176d,SCN,2024-06-11_19h47.59.811,LearnStrategy,2023.2.3,MacIntel,60.0240096,1,2,2,,,,,,,,2,05,,,,,,,,,,,2,0.557,1,,,,,,-0.104079933,-0.26519567,1,0,0,0.557,Basalt_rect,1,0,1,0,1,
6638f3d967d2828b285f176d,SCN,2024-06-11_19h47.59.811,LearnStrategy,2023.2.3,MacIntel,60.0240096,1,2,3,,,,,,,,5,02,,,,,,,,,,,6,0.139,0,,,,,,-0.120732723,-0.400083264,1,0,0,0.139,Pegmatite_rect,2,0,2,0,1,
6638f3d967d2828b285f176d,SCN,2024-06-11_19h47.59.811,LearnStrategy,2023.2.3,MacIntel,60.0240096,1,2,4,,,,,,,,8,02,,,,,,,,,,,7,0.071,0,,,,,,0.083263947,-0.39092423,1,0,0,0.071,Peridotite_rect,3,0,3,0,1,
6638f3d967d2828b285f176d,SCN,2024-06-11_19h47.59.811,LearnStrategy,2023.2.3,MacIntel,60.0240096,1,2,5,,,,,,,,4,05,,,,,,,,,,,3,0.155,0,,,,,,0.101582015,-0.26602831,1,0,0,0.155,Diorite_rect,4,0,4,0,1,
6638f3d967d2828b285f176d,SCN,2024-06-11_19h47.59.811,LearnStrategy,2023.2.3,MacIntel,60.0240096,1,2,6,,,,,,,,7,15,,,,,,,,,,,4,0.269,0,,,,,,0.34304746,-0.269358868,1,0,0,0.269,Gabbro_rect,5,0,5,0,1,
6638f3d967d2828b285f176d,SCN,2024-06-11_19h47.59.811,LearnStrategy,2023.2.3,MacIntel,60.0240096,1,2,7,,,,,,,,8,14,,,,,,,,,,,8,0.026,1,,,,,,0.363030808,-0.394254788,1,0,0,0.026,Pumice_rect,6,0,6,0,1,
6638f3d967d2828b285f176d,SCN,2024-06-11_19h47.59.811,LearnStrategy,2023.2.3,MacIntel,60.0240096,1,2,8,,,,,,,,4,12,,,,,,,,,,,8,0.054,0,,,,,,0.362198168,-0.395087427,1,0,0,0.054,Pumice_rect,7,0,7,0,1,
6638f3d967d2828b285f176d,SCN,2024-06-11_19h47.59.811,LearnStrategy,2023.2.3,MacIntel,60.0240096,1,2,9,,,,,,,,7,06,,,,,,,,,,,3,0.06,0,,,,,,0.131557036,-0.232722731,1,0,0,0.06,Diorite_rect,8,0,8,0,1,
6638f3d967d2828b285f176d,SCN,2024-06-11_19h47.59.811,LearnStrategy,2023.2.3,MacIntel,60.0240096,1,2,10,,,,,,,,1,16,,,,,,,,,,,2,0.203,0,,,,,,-0.135720233,-0.258534555,1,0,0,0.203,Basalt_rect,9,0,9,0,1,
6638f3d967d2828b285f176d,SCN,2024-06-11_19h47.59.811,LearnStrategy,2023.2.3,MacIntel,60.0240096,1,2,11,,,,,,,,2,14,,,,,,,,,,,5,0.222,0,,,,,,-0.388009992,-0.381765196,1,0,0,0.222,Obsidian_rect,10,0,10,0,1,
6638f3d967d2828b285f176d,SCN,2024-06-11_19h47.59.811,LearnStrategy,2023.2.3,MacIntel,60.0240096,1,2,12,,,,,,,,3,09,,,,,,,,,,,1,0.202,0,,,,,,-0.376353039,-0.252706078,1,0,0,0.202,Andesite_rect,11,0,11,0,1,
6638f3d967d2828b285f176d,SCN,2024-06-11_19h47.59.811,LearnStrategy,2023.2.3,MacIntel,60.0240096,1,2,13,,,,,,,,3,12,,,,,,,,,,,2,0.119,0,,,,,,-0.086594505,-0.253538718,1,0,0,0.119,Basalt_rect,12,0,12,0,1,
6638f3d967d2828b285f176d,SCN,2024-06-11_19h47.59.811,LearnStrategy,2023.2.3,MacIntel,60.0240096,1,2,14,,,,,,,,5,05,,,,,,,,,,,3,0.439,0,,,,,,0.108243131,-0.247710241,1,0,0,0.439,Diorite_rect,13,0,13,0,1,
6638f3d967d2828b285f176d,SCN,2024-06-11_19h47.59.811,LearnStrategy,2023.2.3,MacIntel,60.0240096,1,2,15,,,,,,,,6,10,,,,,,,,,,,7,0.086,0,,,,,,0.139050791,-0.410907577,1,0,0,0.086,Peridotite_rect,14,0,14,0,1,
6638f3d967d2828b285f176d,SCN,2024-06-11_19h47.59.811,LearnStrategy,2023.2.3,MacIntel,60.0240096,1,2,16,,,,,,,,1,10,,,,,,,,,,,6,0.141,0,,,,,,-0.09408826,-0.402581182,1,0,0,0.141,Pegmatite_rect,15,0,15,0,1,
6638f3d967d2828b285f176d,SCN,2024-06-11_19h47.59.811,LearnStrategy,2023.2.3,MacIntel,60.0240096,2,1,1,-0.049125729,0.119483764,1,0,0,0.346,Andesite_14,1,14,4,4,0.346,-0.108243131,-0.260199833,1,0,0,0.965,Basalt_rect,2,0.965,0,0,0,0,0,1,,,,,,,,,,,,,
6638f3d967d2828b285f176d,SCN,2024-06-11_19h47.59.811,LearnStrategy,2023.2.3,MacIntel,60.0240096,2,1,2,0.212323064,0.264363031,1,0,0,0.466,Pegmatite_09,6,09,5,6,0.466,0.102414654,-0.246044963,1,0,0,0.905,Diorite_rect,3,0.905,0,1,0,1,0,1,,,,,,,,,,,,,
6638f3d967d2828b285f176d,SCN,2024-06-11_19h47.59.811,LearnStrategy,2023.2.3,MacIntel,60.0240096,2,1,3,-0.070774355,0.246877602,1,0,0,0.766,Pegmatite_15,6,15,5,4,0.766,-0.342214821,-0.256036636,1,0,0,1.572,Andesite_rect,1,1.572,0,2,0,2,0,1,,,,,,,,,,,,,
6638f3d967d2828b285f176d,SCN,2024-06-11_19h47.59.811,LearnStrategy,2023.2.3,MacIntel,60.0240096,2,1,4,0.376353039,-0.224396336,1,0,0,1.065,Pegmatite_16,6,16,2,7,1.065,0.173189009,-0.260199833,1,0,0,0.722,Diorite_rect,3,0.722,0,3,0,3,0,1,,,,,,,,,,,,,
6638f3d967d2828b285f176d,SCN,2024-06-11_19h47.59.811,LearnStrategy,2023.2.3,MacIntel,60.0240096,2,1,5,0.360532889,-0.104496253,1,0,0,0.365,Pumice_10,8,10,3,7,0.365,0.368026644,-0.233555371,1,0,0,0.637,Gabbro_rect,4,0.637,0,4,0,4,0,1,,,,,,,,,,,,,
6638f3d967d2828b285f176d,SCN,2024-06-11_19h47.59.811,LearnStrategy,2023.2.3,MacIntel,60.0240096,2,1,6,0.407160699,-0.044546211,1,0,0,0.399,Pumice_10,8,10,3,7,0.399,0.183180683,-0.259367194,1,0,0,0.989,Diorite_rect,3,0.989,0,5,0,5,0,1,,,,,,,,,,,,,
6638f3d967d2828b285f176d,SCN,2024-06-11_19h47.59.811,LearnStrategy,2023.2.3,MacIntel,60.0240096,2,1,7,0.54704413,-0.209408826,1,0,0,0.315,Pumice_05,8,05,2,8,0.315,0.416319734,-0.241881765,1,0,0,0.887,Gabbro_rect,4,0.887,0,6,0,6,0,1,,,,,,,,,,,,,
6638f3d967d2828b285f176d,SCN,2024-06-11_19h47.59.811,LearnStrategy,2023.2.3,MacIntel,60.0240096,2,1,8,0.43713572,0.047876769,1,0,0,0.849,Obsidian_14,5,14,4,7,0.849,0.130724396,-0.254371357,1,0,0,0.736,Diorite_rect,3,0.736,0,7,0,7,0,1,,,,,,,,,,,,,
6638f3d967d2828b285f176d,SCN,2024-06-11_19h47.59.811,LearnStrategy,2023.2.3,MacIntel,60.0240096,2,1,9,0.517901749,-0.07868443,1,0,0,0.949,Diorite_06,3,06,3,8,0.949,0.181515404,-0.230224813,1,0,0,0.673,Diorite_rect,3,0.673,1,8,0,8,0,1,,,,,,,,,,,,,
6638f3d967d2828b285f176d,SCN,2024-06-11_19h47.59.811,LearnStrategy,2023.2.3,MacIntel,60.0240096,2,1,10,0.217318901,-0.267693589,1,0,0,0.696,Peridotite_10,7,10,2,6,0.696,0.23480433,-0.24937552,1,0,0,0.131,Diorite_rect,3,0.131,0,9,0,9,0,1,,,,,,,,,,,,,
6638f3d967d2828b285f176d,SCN,2024-06-11_19h47.59.811,LearnStrategy,2023.2.3,MacIntel,60.0240096,2,1,11,0.186511241,-0.276852623,1,0,0,0.466,Peridotite_10,7,10,2,6,0.466,0.088259784,-0.261032473,1,0,0,0.486,Diorite_rect,3,0.486,0,10,0,10,0,1,,,,,,,,,,,,,
6638f3d967d2828b285f176d,SCN,2024-06-11_19h47.59.811,LearnStrategy,2023.2.3,MacIntel,60.0240096,2,1,12,-0.04746045,-0.371773522,1,0,0,3.099,Peridotite_16,7,16,1,4,3.099,-0.162364696,-0.403413822,1,0,0,0.604,Pegmatite_rect,6,0.604,0,11,0,11,0,1,,,,,,,,,,,,,
6638f3d967d2828b285f176d,SCN,2024-06-11_19h47.59.811,LearnStrategy,2023.2.3,MacIntel,60.0240096,2,1,13,-0.193172356,-0.117818485,1,0,0,0.582,Diorite_11,3,11,3,3,0.582,-0.290591174,-0.251873439,1,0,0,0.338,Andesite_rect,1,0.338,0,12,0,12,0,1,,,,,,,,,,,,,
6638f3d967d2828b285f176d,SCN,2024-06-11_19h47.59.811,LearnStrategy,2023.2.3,MacIntel,60.0240096,2,1,14,-0.565362198,-0.06286428,1,0,0,0.932,Peridotite_05,7,05,3,1,0.932,-0.380516236,-0.267693589,1,0,0,1.438,Andesite_rect,1,1.438,0,13,0,13,0,1,,,,,,,,,,,,,
6638f3d967d2828b285f176d,SCN,2024-06-11_19h47.59.811,LearnStrategy,2023.2.3,MacIntel,60.0240096,2,1,15,-0.508742714,-0.263530391,1,0,0,0.382,Peridotite_07,7,07,2,1,0.382,-0.358034971,-0.24937552,1,0,0,0.571,Andesite_rect,1,0.571,0,14,0,14,0,1,,,,,,,,,,,,,
6638f3d967d2828b285f176d,SCN,2024-06-11_19h47.59.811,LearnStrategy,2023.2.3,MacIntel,60.0240096,2,1,16,0.055786844,-0.21856786,1,0,0,0.316,Gabbro_08,4,08,2,5,0.316,0.060782681,-0.228559534,1,0,0,0.122,Diorite_rect,3,0.122,0,15,0,15,0,1,,,,,,,,,,,,,
6638f3d967d2828b285f176d,SCN,2024-06-11_19h47.59.811,LearnStrategy,2023.2.3,MacIntel,60.0240096,2,2,1,,,,,,,,4,13,,,,,,,,,,,7,0.521,0,,,,,,0.174021649,-0.414238135,1,0,0,0.521,Peridotite_rect,0,0,0,0,1,
6638f3d967d2828b285f176d,SCN,2024-06-11_19h47.59.811,LearnStrategy,2023.2.3,MacIntel,60.0240096,2,2,2,,,,,,,,1,06,,,,,,,,,,,3,0.54,0,,,,,,0.089925062,-0.231057452,1,0,0,0.54,Diorite_rect,1,0,1,0,1,
6638f3d967d2828b285f176d,SCN,2024-06-11_19h47.59.811,LearnStrategy,2023.2.3,MacIntel,60.0240096,2,2,3,,,,,,,,6,08,,,,,,,,,,,6,0.638,1,,,,,,-0.097418818,-0.402581182,1,0,0,0.638,Pegmatite_rect,2,0,2,0,1,
6638f3d967d2828b285f176d,SCN,2024-06-11_19h47.59.811,LearnStrategy,2023.2.3,MacIntel,60.0240096,2,2,4,,,,,,,,6,07,,,,,,,,,,,7,0.072,0,,,,,,0.199000833,-0.400083264,1,0,0,0.072,Peridotite_rect,3,0,3,0,1,
6638f3d967d2828b285f176d,SCN,2024-06-11_19h47.59.811,LearnStrategy,2023.2.3,MacIntel,60.0240096,2,2,5,,,,,,,,1,02,,,,,,,,,,,8,0.306,0,,,,,,0.39050791,-0.381765196,1,0,0,0.306,Pumice_rect,4,0,4,0,1,
6638f3d967d2828b285f176d,SCN,2024-06-11_19h47.59.811,LearnStrategy,2023.2.3,MacIntel,60.0240096,2,2,6,,,,,,,,3,13,,,,,,,,,,,4,0.319,0,,,,,,0.394671107,-0.266860949,1,0,0,0.319,Gabbro_rect,5,0,5,0,1,
6638f3d967d2828b285f176d,SCN,2024-06-11_19h47.59.811,LearnStrategy,2023.2.3,MacIntel,60.0240096,2,2,7,,,,,,,,5,16,,,,,,,,,,,3,0.028,0,,,,,,0.135720233,-0.248542881,1,0,0,0.028,Diorite_rect,6,0,6,0,1,
6638f3d967d2828b285f176d,SCN,2024-06-11_19h47.59.811,LearnStrategy,2023.2.3,MacIntel,60.0240096,2,2,8,,,,,,,,8,13,,,,,,,,,,,3,0.17,0,,,,,,0.141548709,-0.246877602,1,0,0,0.17,Diorite_rect,7,0,7,0,1,
6638f3d967d2828b285f176d,SCN,2024-06-11_19h47.59.811,LearnStrategy,2023.2.3,MacIntel,60.0240096,2,2,9,,,,,,,,3,08,,,,,,,,,,,2,0.069,0,,,,,,-0.096586178,-0.240216486,1,0,0,0.069,Basalt_rect,8,0,8,0,1,
6638f3d967d2828b285f176d,SCN,2024-06-11_19h47.59.811,LearnStrategy,2023.2.3,MacIntel,60.0240096,2,2,10,,,,,,,,5,08,,,,,,,,,,,3,0.155,0,,,,,,0.193172356,-0.246044963,1,0,0,0.155,Diorite_rect,9,0,9,0,1,
6638f3d967d2828b285f176d,SCN,2024-06-11_19h47.59.811,LearnStrategy,2023.2.3,MacIntel,60.0240096,2,2,11,,,,,,,,7,04,,,,,,,,,,,7,0.073,1,,,,,,0.137385512,-0.418401332,1,0,0,0.073,Peridotite_rect,10,0,10,0,1,
6638f3d967d2828b285f176d,SCN,2024-06-11_19h47.59.811,LearnStrategy,2023.2.3,MacIntel,60.0240096,2,2,12,,,,,,,,2,02,,,,,,,,,,,8,0.082,0,,,,,,0.35970025,-0.383430475,1,0,0,0.082,Pumice_rect,11,0,11,0,1,
6638f3d967d2828b285f176d,SCN,2024-06-11_19h47.59.811,LearnStrategy,2023.2.3,MacIntel,60.0240096,2,2,13,,,,,,,,7,13,,,,,,,,,,,4,0.154,0,,,,,,0.346378018,-0.269358868,1,0,0,0.154,Gabbro_rect,12,0,12,0,1,
6638f3d967d2828b285f176d,SCN,2024-06-11_19h47.59.811,LearnStrategy,2023.2.3,MacIntel,60.0240096,2,2,14,,,,,,,,4,09,,,,,,,,,,,3,0.039,0,,,,,,0.124063281,-0.232722731,1,0,0,0.039,Diorite_rect,13,0,13,0,1,
6638f3d967d2828b285f176d,SCN,2024-06-11_19h47.59.811,LearnStrategy,2023.2.3,MacIntel,60.0240096,2,2,15,,,,,,,,2,08,,,,,,,,,,,7,0.048,0,,,,,,0.134887594,-0.400915903,1,0,0,0.048,Peridotite_rect,14,0,14,0,1,
6638f3d967d2828b285f176d,SCN,2024-06-11_19h47.59.811,LearnStrategy,2023.2.3,MacIntel,60.0240096,2,2,16,,,,,,,,8,09,,,,,,,,,,,3,0.071,0,,,,,,0.21898418,-0.264363031,1,0,0,0.071,Diorite_rect,15,0,15,0,1,
6638f3d967d2828b285f176d,SCN,2024-06-11_19h47.59.811,LearnStrategy,2023.2.3,MacIntel,60.0240096,3,1,1,-0.111573689,-0.088676103,1,0,0,0.565,Diorite_07,3,07,3,4,0.565,-0.145711907,-0.232722731,1,0,0,0.886,Basalt_rect,2,0.886,0,0,0,0,0,1,,,,,,,,,,,,,
6638f3d967d2828b285f176d,SCN,2024-06-11_19h47.59.811,LearnStrategy,2023.2.3,MacIntel,60.0240096,3,1,2,-0.582847627,-0.379267277,1,0,0,1.999,Pumice_15,8,15,1,1,1.999,-0.454621149,-0.383430475,1,0,0,0.588,Obsidian_rect,5,0.588,0,1,0,1,0,1,,,,,,,,,,,,,
6638f3d967d2828b285f176d,SCN,2024-06-11_19h47.59.811,LearnStrategy,2023.2.3,MacIntel,60.0240096,3,1,3,-0.091590341,-0.057868443,1,0,0,0.4,Diorite_07,3,07,3,4,0.4,-0.388009992,-0.239383847,1,0,0,3.088,Andesite_rect,1,3.088,0,2,0,2,0,1,,,,,,,,,,,,,
6638f3d967d2828b285f176d,SCN,2024-06-11_19h47.59.811,LearnStrategy,2023.2.3,MacIntel,60.0240096,3,1,4,0.561199001,-0.07785179,1,0,0,0.781,Diorite_06,3,06,3,8,0.781,0.35886761,-0.241049126,1,0,0,0.903,Gabbro_rect,4,0.903,0,3,0,3,0,1,,,,,,,,,,,,,
6638f3d967d2828b285f176d,SCN,2024-06-11_19h47.59.811,LearnStrategy,2023.2.3,MacIntel,60.0240096,3,1,5,0.427144047,0.04621149,1,0,0,0.916,Obsidian_14,5,14,4,7,0.916,-0.408825978,-0.383430475,1,0,0,1.405,Obsidian_rect,5,1.405,1,4,0,4,0,1,,,,,,,,,,,,,
6638f3d967d2828b285f176d,SCN,2024-06-11_19h47.59.811,LearnStrategy,2023.2.3,MacIntel,60.0240096,3,1,6,0.079100749,0.145295587,1,0,0,2.365,Gabbro_14,4,14,4,5,2.365,0.099916736,-0.236885928,1,0,0,1.087,Diorite_rect,3,1.087,0,5,0,5,0,1,,,,,,,,,,,,,
6638f3d967d2828b285f176d,SCN,2024-06-11_19h47.59.811,LearnStrategy,2023.2.3,MacIntel,60.0240096,3,1,7,0.340549542,0.090341382,1,0,0,0.515,Obsidian_14,5,14,4,7,0.515,-0.472106578,-0.416736053,1,0,0,1.895,Obsidian_rect,5,1.895,1,6,0,6,0,1,,,,,,,,,,,,,
6638f3d967d2828b285f176d,SCN,2024-06-11_19h47.59.811,LearnStrategy,2023.2.3,MacIntel,60.0240096,3,1,8,-0.542880933,0.381765196,1,0,0,2.166,Pumice_08,8,08,6,1,2.166,-0.407160699,-0.253538718,1,0,0,1.203,Andesite_rect,1,1.203,0,7,0,7,0,1,,,,,,,,,,,,,
6638f3d967d2828b285f176d,SCN,2024-06-11_19h47.59.811,LearnStrategy,2023.2.3,MacIntel,60.0240096,3,1,9,0.212323064,-0.143630308,1,0,0,0.45,Gabbro_01,4,01,3,6,0.45,0.199000833,-0.261032473,1,0,0,0.689,Diorite_rect,3,0.689,0,8,0,8,0,1,,,,,,,,,,,,,
6638f3d967d2828b285f176d,SCN,2024-06-11_19h47.59.811,LearnStrategy,2023.2.3,MacIntel,60.0240096,3,1,10,0.10907577,-0.054537885,1,0,0,0.35,Basalt_11,2,11,3,5,0.35,0.43713572,-0.235220649,1,0,0,0.503,Gabbro_rect,4,0.503,0,9,0,9,0,1,,,,,,,,,,,,,
6638f3d967d2828b285f176d,SCN,2024-06-11_19h47.59.811,LearnStrategy,2023.2.3,MacIntel,60.0240096,3,1,11,0.549542048,-0.405079101,1,0,0,1.984,Andesite_01,1,01,1,8,1.984,0.388009992,-0.399250624,1,0,0,0.798,Pumice_rect,8,0.798,0,10,0,10,0,1,,,,,,,,,,,,,
6638f3d967d2828b285f176d,SCN,2024-06-11_19h47.59.811,LearnStrategy,2023.2.3,MacIntel,60.0240096,3,1,12,0.079933389,0.212739384,1,0,0,1.648,Gabbro_11,4,11,5,5,1.648,-0.206494588,-0.254371357,1,0,0,0.788,Basalt_rect,2,0.788,0,11,0,11,0,1,,,,,,,,,,,,,
6638f3d967d2828b285f176d,SCN,2024-06-11_19h47.59.811,LearnStrategy,2023.2.3,MacIntel,60.0240096,3,1,13,-0.341382182,0.044546211,1,0,0,0.466,Pumice_16,8,16,4,2,0.466,-0.389675271,-0.251040799,1,0,0,0.671,Andesite_rect,1,0.671,0,12,0,12,0,1,,,,,,,,,,,,,
6638f3d967d2828b285f176d,SCN,2024-06-11_19h47.59.811,LearnStrategy,2023.2.3,MacIntel,60.0240096,3,1,14,0.051623647,0.058701082,1,0,0,0.816,Gabbro_14,4,14,4,5,0.816,-0.098251457,-0.270191507,1,0,0,0.957,Basalt_rect,2,0.957,0,13,0,13,0,1,,,,,,,,,,,,,
6638f3d967d2828b285f176d,SCN,2024-06-11_19h47.59.811,LearnStrategy,2023.2.3,MacIntel,60.0240096,3,1,15,0.184845962,-0.39009159,1,0,0,1.76,Pegmatite_05,6,05,1,6,1.76,0.147377186,-0.402581182,1,0,0,0.65,Peridotite_rect,7,0.65,0,14,0,14,0,1,,,,,,,,,,,,,
6638f3d967d2828b285f176d,SCN,2024-06-11_19h47.59.811,LearnStrategy,2023.2.3,MacIntel,60.0240096,3,1,16,0.373855121,-0.240216486,1,0,0,0.567,Pegmatite_16,6,16,2,7,0.567,0.337218984,-0.257701915,1,0,0,0.536,Gabbro_rect,4,0.536,0,15,0,15,0,1,,,,,,,,,,,,,
6638f3d967d2828b285f176d,SCN,2024-06-11_19h47.59.811,LearnStrategy,2023.2.3,MacIntel,60.0240096,3,2,1,,,,,,,,4,15,,,,,,,,,,,8,0.105,0,,,,,,0.355537052,-0.400083264,1,0,0,0.105,Pumice_rect,0,0,0,0,1,
6638f3d967d2828b285f176d,SCN,2024-06-11_19h47.59.811,LearnStrategy,2023.2.3,MacIntel,60.0240096,3,2,2,,,,,,,,4,16,,,,,,,,,,,3,0.654,0,,,,,,0.173189009,-0.271856786,1,0,0,0.654,Diorite_rect,1,0,1,0,1,
6638f3d967d2828b285f176d,SCN,2024-06-11_19h47.59.811,LearnStrategy,2023.2.3,MacIntel,60.0240096,3,2,3,,,,,,,,6,03,,,,,,,,,,,7,0.636,0,,,,,,0.149875104,-0.394254788,1,0,0,0.636,Peridotite_rect,2,0,2,0,1,
6638f3d967d2828b285f176d,SCN,2024-06-11_19h47.59.811,LearnStrategy,2023.2.3,MacIntel,60.0240096,3,2,4,,,,,,,,1,07,,,,,,,,,,,2,0.605,0,,,,,,-0.149042465,-0.254371357,1,0,0,0.605,Basalt_rect,3,0,3,0,1,
6638f3d967d2828b285f176d,SCN,2024-06-11_19h47.59.811,LearnStrategy,2023.2.3,MacIntel,60.0240096,3,2,5,,,,,,,,6,13,,,,,,,,,,,2,0.083,0,,,,,,-0.240632806,-0.262697752,1,0,0,0.083,Basalt_rect,4,0,4,0,1,
6638f3d967d2828b285f176d,SCN,2024-06-11_19h47.59.811,LearnStrategy,2023.2.3,MacIntel,60.0240096,3,2,6,,,,,,,,5,10,,,,,,,,,,,6,1.188,0,,,,,,-0.099916736,-0.385095754,1,0,0,1.188,Pegmatite_rect,5,0,5,0,1,
6638f3d967d2828b285f176d,SCN,2024-06-11_19h47.59.811,LearnStrategy,2023.2.3,MacIntel,60.0240096,3,2,7,,,,,,,,5,06,,,,,,,,,,,5,1.791,1,,,,,,-0.357202331,-0.410074938,1,0,0,1.791,Obsidian_rect,6,0,6,0,1,
6638f3d967d2828b285f176d,SCN,2024-06-11_19h47.59.811,LearnStrategy,2023.2.3,MacIntel,60.0240096,3,2,8,,,,,,,,2,04,,,,,,,,,,,4,1.953,0,,,,,,0.349708576,-0.243547044,1,0,0,1.953,Gabbro_rect,7,0,7,0,1,
6638f3d967d2828b285f176d,SCN,2024-06-11_19h47.59.811,LearnStrategy,2023.2.3,MacIntel,60.0240096,3,2,9,,,,,,,,3,02,,,,,,,,,,,7,1.723,0,,,,,,0.133222315,-0.420899251,1,0,0,1.723,Peridotite_rect,8,0,8,0,1,
6638f3d967d2828b285f176d,SCN,2024-06-11_19h47.59.811,LearnStrategy,2023.2.3,MacIntel,60.0240096,3,2,10,,,,,,,,7,12,,,,,,,,,,,8,0.075,0,,,,,,0.293921732,-0.39092423,1,0,0,0.075,Pumice_rect,9,0,9,0,1,
6638f3d967d2828b285f176d,SCN,2024-06-11_19h47.59.811,LearnStrategy,2023.2.3,MacIntel,60.0240096,3,2,11,,,,,,,,8,06,,,,,,,,,,,6,0.57,0,,,,,,-0.14071607,-0.385095754,1,0,0,0.57,Pegmatite_rect,10,0,10,0,1,
6638f3d967d2828b285f176d,SCN,2024-06-11_19h47.59.811,LearnStrategy,2023.2.3,MacIntel,60.0240096,3,2,12,,,,,,,,7,14,,,,,,,,,,,2,0.139,0,,,,,,-0.159034138,-0.261865112,1,0,0,0.139,Basalt_rect,11,0,11,0,1,
6638f3d967d2828b285f176d,SCN,2024-06-11_19h47.59.811,LearnStrategy,2023.2.3,MacIntel,60.0240096,3,2,13,,,,,,,,3,10,,,,,,,,,,,1,0.072,0,,,,,,-0.348043297,-0.254371357,1,0,0,0.072,Andesite_rect,12,0,12,0,1,
6638f3d967d2828b285f176d,SCN,2024-06-11_19h47.59.811,LearnStrategy,2023.2.3,MacIntel,60.0240096,3,2,14,,,,,,,,8,03,,,,,,,,,,,3,0.455,0,,,,,,0.143213988,-0.244379684,1,0,0,0.455,Diorite_rect,13,0,13,0,1,
6638f3d967d2828b285f176d,SCN,2024-06-11_19h47.59.811,LearnStrategy,2023.2.3,MacIntel,60.0240096,3,2,15,,,,,,,,2,06,,,,,,,,,,,4,0.086,0,,,,,,0.323064113,-0.254371357,1,0,0,0.086,Gabbro_rect,14,0,14,0,1,
6638f3d967d2828b285f176d,SCN,2024-06-11_19h47.59.811,LearnStrategy,2023.2.3,MacIntel,60.0240096,3,2,16,,,,,,,,1,05,,,,,,,,,,,3,0.024,0,,,,,,0.163197336,-0.266860949,1,0,0,0.024,Diorite_rect,15,0,15,0,1,
6638f3d967d2828b285f176d,SCN,2024-06-11_19h47.59.811,LearnStrategy,2023.2.3,MacIntel,60.0240096,4,1,1,-0.241465445,0.21856786,1,0,0,0.9,Peridotite_08,7,08,5,3,0.9,-0.241465445,-0.252706078,1,0,0,0.739,Basalt_rect,2,0.739,0,0,0,0,0,1,,,,,,,,,,,,,
6638f3d967d2828b285f176d,SCN,2024-06-11_19h47.59.811,LearnStrategy,2023.2.3,MacIntel,60.0240096,4,1,2,-0.24979184,0.221898418,1,0,0,0.416,Peridotite_08,7,08,5,3,0.416,-0.451290591,-0.271856786,1,0,0,0.971,Andesite_rect,1,0.971,0,1,0,1,0,1,,,,,,,,,,,,,
6638f3d967d2828b285f176d,SCN,2024-06-11_19h47.59.811,LearnStrategy,2023.2.3,MacIntel,60.0240096,4,1,3,0.227310575,0.086178185,1,0,0,0.367,Andesite_03,1,03,4,6,0.367,0.290591174,-0.256869276,1,0,0,0.736,Gabbro_rect,4,0.736,0,2,0,2,0,1,,,,,,,,,,,,,
6638f3d967d2828b285f176d,SCN,2024-06-11_19h47.59.811,LearnStrategy,2023.2.3,MacIntel,60.0240096,4,1,4,0.572855953,-0.236053289,1,0,0,1.228,Pumice_05,8,05,2,8,1.228,0.434637802,-0.238551207,1,0,0,0.48,Gabbro_rect,4,0.48,0,3,0,3,0,1,,,,,,,,,,,,,
6638f3d967d2828b285f176d,SCN,2024-06-11_19h47.59.811,LearnStrategy,2023.2.3,MacIntel,60.0240096,4,1,5,0.553705246,0.273522065,1,0,0,1.482,Diorite_15,3,15,5,8,1.482,0.430474604,-0.23438801,1,0,0,1.055,Gabbro_rect,4,1.055,0,4,0,4,0,1,,,,,,,,,,,,,
6638f3d967d2828b285f176d,SCN,2024-06-11_19h47.59.811,LearnStrategy,2023.2.3,MacIntel,60.0240096,4,1,6,0.581182348,-0.400083264,1,0,0,1.615,Andesite_01,1,01,1,8,1.615,0.457119067,-0.271856786,1,0,0,0.488,Gabbro_rect,4,0.488,0,5,0,5,0,1,,,,,,,,,,,,,
6638f3d967d2828b285f176d,SCN,2024-06-11_19h47.59.811,LearnStrategy,2023.2.3,MacIntel,60.0240096,4,1,7,0.0632806,0.383430475,1,0,0,1.799,Peridotite_02,7,02,6,5,1.799,-0.114071607,-0.271856786,1,0,0,0.986,Basalt_rect,2,0.986,0,6,0,6,0,1,,,,,,,,,,,,,
6638f3d967d2828b285f176d,SCN,2024-06-11_19h47.59.811,LearnStrategy,2023.2.3,MacIntel,60.0240096,4,1,8,-0.363863447,-0.059533722,1,0,0,0.748,Basalt_12,2,12,3,2,0.748,-0.40632806,-0.255203997,1,0,0,0.886,Andesite_rect,1,0.886,0,7,0,7,0,1,,,,,,,,,,,,,
6638f3d967d2828b285f176d,SCN,2024-06-11_19h47.59.811,LearnStrategy,2023.2.3,MacIntel,60.0240096,4,1,9,-0.059117402,-0.063696919,1,0,0,0.366,Diorite_07,3,07,3,4,0.366,-0.136552873,-0.25020816,1,0,0,0.521,Basalt_rect,2,0.521,0,8,0,8,0,1,,,,,,,,,,,,,
6638f3d967d2828b285f176d,SCN,2024-06-11_19h47.59.811,LearnStrategy,2023.2.3,MacIntel,60.0240096,4,1,10,0.383014155,0.221898418,1,0,0,2.066,Diorite_16,3,16,5,7,2.066,0.134054954,-0.260199833,1,0,0,0.854,Diorite_rect,3,0.854,1,9,0,9,0,1,,,,,,,,,,,,,
6638f3d967d2828b285f176d,SCN,2024-06-11_19h47.59.811,LearnStrategy,2023.2.3,MacIntel,60.0240096,4,1,11,0.107410491,-0.248542881,1,0,0,0.283,Gabbro_08,4,08,2,5,0.283,0.167360533,-0.379267277,1,0,0,0.836,Peridotite_rect,7,0.836,0,10,0,10,0,1,,,,,,,,,,,,,
6638f3d967d2828b285f176d,SCN,2024-06-11_19h47.59.811,LearnStrategy,2023.2.3,MacIntel,60.0240096,4,1,12,0.199833472,-0.152789342,1,0,0,0.311,Gabbro_01,4,01,3,6,0.311,0.362198168,-0.396752706,1,0,0,0.565,Pumice_rect,8,0.565,0,11,0,11,0,1,,,,,,,,,,,,,
6638f3d967d2828b285f176d,SCN,2024-06-11_19h47.59.811,LearnStrategy,2023.2.3,MacIntel,60.0240096,4,1,13,0.529558701,-0.394254788,1,0,0,0.832,Andesite_01,1,01,1,8,0.832,0.139050791,-0.258534555,1,0,0,0.919,Diorite_rect,3,0.919,0,12,0,12,0,1,,,,,,,,,,,,,
6638f3d967d2828b285f176d,SCN,2024-06-11_19h47.59.811,LearnStrategy,2023.2.3,MacIntel,60.0240096,4,1,14,-0.227310575,-0.415070774,1,0,0,1.115,Pegmatite_06,6,06,1,3,1.115,-0.227310575,-0.414238135,1,0,0,0.154,Pegmatite_rect,6,0.154,1,13,0,13,0,1,,,,,,,,,,,,,
6638f3d967d2828b285f176d,SCN,2024-06-11_19h47.59.811,LearnStrategy,2023.2.3,MacIntel,60.0240096,4,1,15,-0.219816819,-0.151956703,1,0,0,1.032,Diorite_11,3,11,3,3,1.032,-0.176519567,-0.255203997,1,0,0,0.538,Basalt_rect,2,0.538,0,14,0,14,0,1,,,,,,,,,,,,,
6638f3d967d2828b285f176d,SCN,2024-06-11_19h47.59.811,LearnStrategy,2023.2.3,MacIntel,60.0240096,4,1,16,0.038301415,-0.07868443,1,0,0,0.648,Basalt_11,2,11,3,5,0.648,0.070774355,-0.236885928,1,0,0,0.836,Diorite_rect,3,0.836,0,15,0,15,0,1,,,,,,,,,,,,,
6638f3d967d2828b285f176d,SCN,2024-06-11_19h47.59.811,LearnStrategy,2023.2.3,MacIntel,60.0240096,4,2,1,,,,,,,,1,07,,,,,,,,,,,2,0.983,0,,,,,,-0.15653622,-0.241049126,1,0,0,0.983,Basalt_rect,0,0,0,0,1,
6638f3d967d2828b285f176d,SCN,2024-06-11_19h47.59.811,LearnStrategy,2023.2.3,MacIntel,60.0240096,4,2,2,,,,,,,,1,05,,,,,,,,,,,1,0.053,1,,,,,,-0.427976686,-0.254371357,1,0,0,0.053,Andesite_rect,1,0,1,0,1,
6638f3d967d2828b285f176d,SCN,2024-06-11_19h47.59.811,LearnStrategy,2023.2.3,MacIntel,60.0240096,4,2,3,,,,,,,,4,05,,,,,,,,,,,6,0.222,0,,,,,,-0.144879267,-0.409242298,1,0,0,0.222,Pegmatite_rect,2,0,2,0,1,
6638f3d967d2828b285f176d,SCN,2024-06-11_19h47.59.811,LearnStrategy,2023.2.3,MacIntel,60.0240096,4,2,4,,,,,,,,7,06,,,,,,,,,,,7,0.789,1,,,,,,0.15570358,-0.387593672,1,0,0,0.789,Peridotite_rect,3,0,3,0,1,
6638f3d967d2828b285f176d,SCN,2024-06-11_19h47.59.811,LearnStrategy,2023.2.3,MacIntel,60.0240096,4,2,5,,,,,,,,4,09,,,,,,,,,,,4,0.056,1,,,,,,0.386344713,-0.241049126,1,0,0,0.056,Gabbro_rect,4,0,4,0,1,
6638f3d967d2828b285f176d,SCN,2024-06-11_19h47.59.811,LearnStrategy,2023.2.3,MacIntel,60.0240096,4,2,6,,,,,,,,8,03,,,,,,,,,,,1,0.043,0,,,,,,-0.366361366,-0.229392173,1,0,0,0.043,Andesite_rect,5,0,5,0,1,
6638f3d967d2828b285f176d,SCN,2024-06-11_19h47.59.811,LearnStrategy,2023.2.3,MacIntel,60.0240096,4,2,7,,,,,,,,2,02,,,,,,,,,,,2,0.07,1,,,,,,-0.223980017,-0.253538718,1,0,0,0.07,Basalt_rect,6,0,6,0,1,
6638f3d967d2828b285f176d,SCN,2024-06-11_19h47.59.811,LearnStrategy,2023.2.3,MacIntel,60.0240096,4,2,8,,,,,,,,8,06,,,,,,,,,,,5,0.768,0,,,,,,-0.364696087,-0.392589509,1,0,0,0.768,Obsidian_rect,7,0,7,0,1,
6638f3d967d2828b285f176d,SCN,2024-06-11_19h47.59.811,LearnStrategy,2023.2.3,MacIntel,60.0240096,4,2,9,,,,,,,,2,05,,,,,,,,,,,6,0.043,0,,,,,,-0.165695254,-0.415903414,1,0,0,0.043,Pegmatite_rect,8,0,8,0,1,
6638f3d967d2828b285f176d,SCN,2024-06-11_19h47.59.811,LearnStrategy,2023.2.3,MacIntel,60.0240096,4,2,10,,,,,,,,6,10,,,,,,,,,,,7,0.088,0,,,,,,0.051623647,-0.380932556,1,0,0,0.088,Peridotite_rect,9,0,9,0,1,
6638f3d967d2828b285f176d,SCN,2024-06-11_19h47.59.811,LearnStrategy,2023.2.3,MacIntel,60.0240096,4,2,11,,,,,,,,3,12,,,,,,,,,,,3,0.737,1,,,,,,0.120732723,-0.228559534,1,0,0,0.737,Diorite_rect,10,0,10,0,1,
6638f3d967d2828b285f176d,SCN,2024-06-11_19h47.59.811,LearnStrategy,2023.2.3,MacIntel,60.0240096,4,2,12,,,,,,,,7,04,,,,,,,,,,,2,0.286,0,,,,,,-0.154870941,-0.241881765,1,0,0,0.286,Basalt_rect,11,0,11,0,1,
6638f3d967d2828b285f176d,SCN,2024-06-11_19h47.59.811,LearnStrategy,2023.2.3,MacIntel,60.0240096,4,2,13,,,,,,,,5,06,,,,,,,,,,,3,0.152,0,,,,,,0.079100749,-0.23438801,1,0,0,0.152,Diorite_rect,12,0,12,0,1,
6638f3d967d2828b285f176d,SCN,2024-06-11_19h47.59.811,LearnStrategy,2023.2.3,MacIntel,60.0240096,4,2,14,,,,,,,,3,08,,,,,,,,,,,4,0.071,0,,,,,,0.363030808,-0.233555371,1,0,0,0.071,Gabbro_rect,13,0,13,0,1,
6638f3d967d2828b285f176d,SCN,2024-06-11_19h47.59.811,LearnStrategy,2023.2.3,MacIntel,60.0240096,4,2,15,,,,,,,,5,08,,,,,,,,,,,4,0.088,0,,,,,,0.363863447,-0.23438801,1,0,0,0.088,Gabbro_rect,14,0,14,0,1,
6638f3d967d2828b285f176d,SCN,2024-06-11_19h47.59.811,LearnStrategy,2023.2.3,MacIntel,60.0240096,4,2,16,,,,,,,,6,07,,,,,,,,,,,4,0.771,0,,,,,,0.382181515,-0.26519567,1,0,0,0.771,Gabbro_rect,15,0,15,0,1,
6638f3d967d2828b285f176d,SCN,2024-06-11_19h47.59.811,LearnStrategy,2023.2.3,MacIntel,60.0240096,5,1,1,0.040799334,0.105328893,1,0,0,1.745,Gabbro_14,4,14,4,5,1.745,0.111573689,-0.235220649,1,0,0,0.895,Diorite_rect,3,0.895,0,0,0,0,0,1,,,,,,,,,,,,,
6638f3d967d2828b285f176d,SCN,2024-06-11_19h47.59.811,LearnStrategy,2023.2.3,MacIntel,60.0240096,5,1,2,-0.081598668,-0.116153206,1,0,0,0.429,Diorite_07,3,07,3,4,0.429,-0.110741049,-0.260199833,1,0,0,0.915,Basalt_rect,2,0.915,0,1,0,1,0,1,,,,,,,,,,,,,
6638f3d967d2828b285f176d,SCN,2024-06-11_19h47.59.811,LearnStrategy,2023.2.3,MacIntel,60.0240096,5,1,3,0.509575354,-0.07785179,1,0,0,1.814,Diorite_06,3,06,3,8,1.814,0.119900083,-0.270191507,1,0,0,1.102,Diorite_rect,3,1.102,1,2,0,2,0,1,,,,,,,,,,,,,
6638f3d967d2828b285f176d,SCN,2024-06-11_19h47.59.811,LearnStrategy,2023.2.3,MacIntel,60.0240096,5,1,4,0.054121565,-0.220233139,1,0,0,0.799,Gabbro_08,4,08,2,5,0.799,0.06244796,-0.26602831,1,0,0,0.137,Diorite_rect,3,0.137,0,3,0,3,0,1,,,,,,,,,,,,,
6638f3d967d2828b285f176d,SCN,2024-06-11_19h47.59.811,LearnStrategy,2023.2.3,MacIntel,60.0240096,5,1,5,0.442964197,-0.071190674,1,0,0,0.699,Pumice_10,8,10,3,7,0.699,0.361365529,-0.268526228,1,0,0,0.871,Gabbro_rect,4,0.871,0,4,0,4,0,1,,,,,,,,,,,,,
6638f3d967d2828b285f176d,SCN,2024-06-11_19h47.59.811,LearnStrategy,2023.2.3,MacIntel,60.0240096,5,1,6,0.091590341,-0.215237302,1,0,0,0.382,Gabbro_08,4,08,2,5,0.382,0.129891757,-0.389258951,1,0,0,0.671,Peridotite_rect,7,0.671,0,5,0,5,0,1,,,,,,,,,,,,,
6638f3d967d2828b285f176d,SCN,2024-06-11_19h47.59.811,LearnStrategy,2023.2.3,MacIntel,60.0240096,5,1,7,-0.194837635,-0.370108243,1,0,0,1.005,Pegmatite_06,6,06,1,3,1.005,-0.205661948,-0.386761032,1,0,0,0.255,Pegmatite_rect,6,0.255,1,6,0,6,0,1,,,,,,,,,,,,,
6638f3d967d2828b285f176d,SCN,2024-06-11_19h47.59.811,LearnStrategy,2023.2.3,MacIntel,60.0240096,5,1,8,-0.370524563,-0.35928393,1,0,0,1,Obsidian_09,5,09,1,2,1,-0.3755204,-0.380099917,1,0,0,0.805,Obsidian_rect,5,0.805,1,7,0,7,0,1,,,,,,,,,,,,,
6638f3d967d2828b285f176d,SCN,2024-06-11_19h47.59.811,LearnStrategy,2023.2.3,MacIntel,60.0240096,5,1,9,-0.087427144,-0.086178185,1,0,0,0.567,Diorite_07,3,07,3,4,0.567,-0.134054954,-0.380099917,1,0,0,0.72,Pegmatite_rect,6,0.72,0,8,0,8,0,1,,,,,,,,,,,,,
6638f3d967d2828b285f176d,SCN,2024-06-11_19h47.59.811,LearnStrategy,2023.2.3,MacIntel,60.0240096,5,1,10,0.042464613,-0.101165695,1,0,0,0.362,Basalt_11,2,11,3,5,0.362,0.09325562,-0.231057452,1,0,0,0.414,Diorite_rect,3,0.414,0,9,0,9,0,1,,,,,,,,,,,,,
6638f3d967d2828b285f176d,SCN,2024-06-11_19h47.59.811,LearnStrategy,2023.2.3,MacIntel,60.0240096,5,1,11,0.086594505,-0.113655287,1,0,0,0.349,Basalt_11,2,11,3,5,0.349,0.142381349,-0.271856786,1,0,0,0.617,Diorite_rect,3,0.617,0,10,0,10,0,1,,,,,,,,,,,,,
6638f3d967d2828b285f176d,SCN,2024-06-11_19h47.59.811,LearnStrategy,2023.2.3,MacIntel,60.0240096,5,1,12,0.395503747,-0.26602831,1,0,0,1.016,Pegmatite_16,6,16,2,7,1.016,0.395503747,-0.26602831,1,0,0,0.087,Gabbro_rect,4,0.087,0,11,0,11,0,1,,,,,,,,,,,,,
6638f3d967d2828b285f176d,SCN,2024-06-11_19h47.59.811,LearnStrategy,2023.2.3,MacIntel,60.0240096,5,1,13,0.208992506,-0.047876769,1,0,0,0.314,Gabbro_01,4,01,3,6,0.314,0.398834305,-0.266860949,1,0,0,0.986,Gabbro_rect,4,0.986,1,12,0,12,0,1,,,,,,,,,,,,,
6638f3d967d2828b285f176d,SCN,2024-06-11_19h47.59.811,LearnStrategy,2023.2.3,MacIntel,60.0240096,5,1,14,0.572023314,-0.368442964,1,0,0,2.133,Andesite_01,1,01,1,8,2.133,0.380516236,-0.414238135,1,0,0,1.038,Pumice_rect,8,1.038,0,13,0,13,0,1,,,,,,,,,,,,,
6638f3d967d2828b285f176d,SCN,2024-06-11_19h47.59.811,LearnStrategy,2023.2.3,MacIntel,60.0240096,5,1,15,0.055786844,0.387593672,1,0,0,2.616,Peridotite_02,7,02,6,5,2.616,-0.104079933,-0.248542881,1,0,0,0.821,Basalt_rect,2,0.821,0,14,0,14,0,1,,,,,,,,,,,,,
6638f3d967d2828b285f176d,SCN,2024-06-11_19h47.59.811,LearnStrategy,2023.2.3,MacIntel,60.0240096,5,1,16,0.20316403,0.122814321,1,0,0,0.732,Andesite_03,1,03,4,6,0.732,-0.116569525,-0.245212323,1,0,0,0.904,Basalt_rect,2,0.904,0,15,0,15,0,1,,,,,,,,,,,,,
6638f3d967d2828b285f176d,SCN,2024-06-11_19h47.59.811,LearnStrategy,2023.2.3,MacIntel,60.0240096,5,2,1,,,,,,,,8,02,,,,,,,,,,,3,0.553,0,,,,,,0.166527893,-0.236053289,1,0,0,0.553,Diorite_rect,0,0,0,0,1,
6638f3d967d2828b285f176d,SCN,2024-06-11_19h47.59.811,LearnStrategy,2023.2.3,MacIntel,60.0240096,5,2,2,,,,,,,,5,10,,,,,,,,,,,4,0.388,0,,,,,,0.371357202,-0.242714405,1,0,0,0.388,Gabbro_rect,1,0,1,0,1,
6638f3d967d2828b285f176d,SCN,2024-06-11_19h47.59.811,LearnStrategy,2023.2.3,MacIntel,60.0240096,5,2,3,,,,,,,,2,14,,,,,,,,,,,2,1.087,1,,,,,,-0.10907577,-0.26602831,1,0,0,1.087,Basalt_rect,2,0,2,0,1,
6638f3d967d2828b285f176d,SCN,2024-06-11_19h47.59.811,LearnStrategy,2023.2.3,MacIntel,60.0240096,5,2,4,,,,,,,,2,08,,,,,,,,,,,1,0.133,0,,,,,,-0.378018318,-0.267693589,1,0,0,0.133,Andesite_rect,3,0,3,0,1,
6638f3d967d2828b285f176d,SCN,2024-06-11_19h47.59.811,LearnStrategy,2023.2.3,MacIntel,60.0240096,5,2,5,,,,,,,,3,09,,,,,,,,,,,5,0.528,0,,,,,,-0.362198168,-0.407577019,1,0,0,0.528,Obsidian_rect,4,0,4,0,1,
6638f3d967d2828b285f176d,SCN,2024-06-11_19h47.59.811,LearnStrategy,2023.2.3,MacIntel,60.0240096,5,2,6,,,,,,,,4,15,,,,,,,,,,,6,0.071,0,,,,,,-0.18734388,-0.391756869,1,0,0,0.071,Pegmatite_rect,5,0,5,0,1,
6638f3d967d2828b285f176d,SCN,2024-06-11_19h47.59.811,LearnStrategy,2023.2.3,MacIntel,60.0240096,5,2,7,,,,,,,,3,13,,,,,,,,,,,7,0.088,0,,,,,,0.124063281,-0.378434638,1,0,0,0.088,Peridotite_rect,6,0,6,0,1,
6638f3d967d2828b285f176d,SCN,2024-06-11_19h47.59.811,LearnStrategy,2023.2.3,MacIntel,60.0240096,5,2,8,,,,,,,,4,12,,,,,,,,,,,2,0.354,0,,,,,,-0.072439634,-0.257701915,1,0,0,0.354,Basalt_rect,7,0,7,0,1,
6638f3d967d2828b285f176d,SCN,2024-06-11_19h47.59.811,LearnStrategy,2023.2.3,MacIntel,60.0240096,5,2,9,,,,,,,,6,08,,,,,,,,,,,3,0.171,0,,,,,,0.09325562,-0.243547044,1,0,0,0.171,Diorite_rect,8,0,8,0,1,
6638f3d967d2828b285f176d,SCN,2024-06-11_19h47.59.811,LearnStrategy,2023.2.3,MacIntel,60.0240096,5,2,10,,,,,,,,8,09,,,,,,,,,,,4,0.554,0,,,,,,0.369691923,-0.245212323,1,0,0,0.554,Gabbro_rect,9,0,9,0,1,
6638f3d967d2828b285f176d,SCN,2024-06-11_19h47.59.811,LearnStrategy,2023.2.3,MacIntel,60.0240096,5,2,11,,,,,,,,5,05,,,,,,,,,,,8,0.091,0,,,,,,0.418817652,-0.410074938,1,0,0,0.091,Pumice_rect,10,0,10,0,1,
6638f3d967d2828b285f176d,SCN,2024-06-11_19h47.59.811,LearnStrategy,2023.2.3,MacIntel,60.0240096,5,2,12,,,,,,,,1,10,,,,,,,,,,,1,0.268,1,,,,,,-0.381348876,-0.271856786,1,0,0,0.268,Andesite_rect,11,0,11,0,1,
6638f3d967d2828b285f176d,SCN,2024-06-11_19h47.59.811,LearnStrategy,2023.2.3,MacIntel,60.0240096,5,2,13,,,,,,,,6,11,,,,,,,,,,,2,0.101,0,,,,,,-0.193172356,-0.241881765,1,0,0,0.101,Basalt_rect,12,0,12,0,1,
6638f3d967d2828b285f176d,SCN,2024-06-11_19h47.59.811,LearnStrategy,2023.2.3,MacIntel,60.0240096,5,2,14,,,,,,,,7,15,,,,,,,,,,,5,0.587,0,,,,,,-0.402997502,-0.411740216,1,0,0,0.587,Obsidian_rect,13,0,13,0,1,
6638f3d967d2828b285f176d,SCN,2024-06-11_19h47.59.811,LearnStrategy,2023.2.3,MacIntel,60.0240096,5,2,15,,,,,,,,7,13,,,,,,,,,,,2,0.518,0,,,,,,-0.042464613,-0.253538718,1,0,0,0.518,Basalt_rect,14,0,14,0,1,
6638f3d967d2828b285f176d,SCN,2024-06-11_19h47.59.811,LearnStrategy,2023.2.3,MacIntel,60.0240096,5,2,16,,,,,,,,1,16,,,,,,,,,,,2,0.553,0,,,,,,-0.229808493,-0.26519567,1,0,0,0.553,Basalt_rect,15,0,15,0,1,
6638f3d967d2828b285f176d,SCN,2024-06-11_19h47.59.811,LearnStrategy,2023.2.3,MacIntel,60.0240096,6,1,1,-0.110741049,-0.06203164,1,0,0,0.382,Diorite_07,3,07,3,4,0.382,-0.160699417,-0.23438801,1,0,0,0.591,Basalt_rect,2,0.591,0,0,0,0,0,1,,,,,,,,,,,,,
6638f3d967d2828b285f176d,SCN,2024-06-11_19h47.59.811,LearnStrategy,2023.2.3,MacIntel,60.0240096,6,1,2,0.230641132,0.257701915,1,0,0,1.665,Pegmatite_09,6,09,5,6,1.665,-0.096586178,-0.247710241,1,0,0,0.504,Basalt_rect,2,0.504,0,1,0,1,0,1,,,,,,,,,,,,,
6638f3d967d2828b285f176d,SCN,2024-06-11_19h47.59.811,LearnStrategy,2023.2.3,MacIntel,60.0240096,6,1,3,0.235636969,-0.086178185,1,0,0,0.982,Gabbro_01,4,01,3,6,0.982,0.075770192,-0.236885928,1,0,0,0.906,Diorite_rect,3,0.906,0,2,0,2,0,1,,,,,,,,,,,,,
6638f3d967d2828b285f176d,SCN,2024-06-11_19h47.59.811,LearnStrategy,2023.2.3,MacIntel,60.0240096,6,1,4,0.416319734,-0.097835137,1,0,0,1.033,Pumice_10,8,10,3,7,1.033,0.025811823,-0.271856786,1,0,0,0.505,Diorite_rect,3,0.505,0,3,0,3,0,1,,,,,,,,,,,,,
6638f3d967d2828b285f176d,SCN,2024-06-11_19h47.59.811,LearnStrategy,2023.2.3,MacIntel,60.0240096,6,1,5,0.073272273,-0.147793505,1,0,0,0.495,Basalt_11,2,11,3,5,0.495,0.083263947,-0.241881765,1,0,0,0.631,Diorite_rect,3,0.631,0,4,0,4,0,1,,,,,,,,,,,,,
6638f3d967d2828b285f176d,SCN,2024-06-11_19h47.59.811,LearnStrategy,2023.2.3,MacIntel,60.0240096,6,1,6,0.42131557,-0.118651124,1,0,0,0.516,Pumice_10,8,10,3,7,0.516,0.355537052,-0.251873439,1,0,0,0.886,Gabbro_rect,4,0.886,0,5,0,5,0,1,,,,,,,,,,,,,
6638f3d967d2828b285f176d,SCN,2024-06-11_19h47.59.811,LearnStrategy,2023.2.3,MacIntel,60.0240096,6,1,7,0.074104913,-0.122814321,1,0,0,0.382,Basalt_11,2,11,3,5,0.382,0.052456286,-0.241049126,1,0,0,0.486,Diorite_rect,3,0.486,0,6,0,6,0,1,,,,,,,,,,,,,
6638f3d967d2828b285f176d,SCN,2024-06-11_19h47.59.811,LearnStrategy,2023.2.3,MacIntel,60.0240096,6,1,8,0.56203164,-0.247710241,1,0,0,2.083,Pumice_05,8,05,2,8,2.083,0.347210658,-0.247710241,1,0,0,0.37,Gabbro_rect,4,0.37,0,7,0,7,0,1,,,,,,,,,,,,,
6638f3d967d2828b285f176d,SCN,2024-06-11_19h47.59.811,LearnStrategy,2023.2.3,MacIntel,60.0240096,6,1,9,0.027477102,0.150291424,1,0,0,1,Gabbro_14,4,14,4,5,1,-0.151540383,-0.25020816,1,0,0,1.037,Basalt_rect,2,1.037,0,8,0,8,0,1,,,,,,,,,,,,,
6638f3d967d2828b285f176d,SCN,2024-06-11_19h47.59.811,LearnStrategy,2023.2.3,MacIntel,60.0240096,6,1,10,-0.033305579,-0.068692756,1,0,0,0.333,Diorite_07,3,07,3,4,0.333,-0.115736886,-0.416736053,1,0,0,0.702,Pegmatite_rect,6,0.702,0,9,0,9,0,1,,,,,,,,,,,,,
6638f3d967d2828b285f176d,SCN,2024-06-11_19h47.59.811,LearnStrategy,2023.2.3,MacIntel,60.0240096,6,1,11,-0.271440466,-0.069525396,1,0,0,0.499,Diorite_11,3,11,3,3,0.499,-0.384679434,-0.254371357,1,0,0,1.905,Andesite_rect,1,1.905,0,10,0,10,0,1,,,,,,,,,,,,,
6638f3d967d2828b285f176d,SCN,2024-06-11_19h47.59.811,LearnStrategy,2023.2.3,MacIntel,60.0240096,6,1,12,-0.582847627,-0.067860117,1,0,0,0.781,Peridotite_05,7,05,3,1,0.781,-0.473771857,-0.256036636,1,0,0,0.637,Andesite_rect,1,0.637,0,11,0,11,0,1,,,,,,,,,,,,,
6638f3d967d2828b285f176d,SCN,2024-06-11_19h47.59.811,LearnStrategy,2023.2.3,MacIntel,60.0240096,6,1,13,-0.210657785,-0.262697752,1,0,0,0.367,Pumice_04,8,04,2,3,0.367,-0.362198168,-0.402581182,1,0,0,0.87,Obsidian_rect,5,0.87,0,12,0,12,0,1,,,,,,,,,,,,,
6638f3d967d2828b285f176d,SCN,2024-06-11_19h47.59.811,LearnStrategy,2023.2.3,MacIntel,60.0240096,6,1,14,-0.044129892,-0.072023314,1,0,0,0.378,Diorite_07,3,07,3,4,0.378,0.164862614,-0.25020816,1,0,0,1.043,Diorite_rect,3,1.043,1,13,0,13,0,1,,,,,,,,,,,,,
6638f3d967d2828b285f176d,SCN,2024-06-11_19h47.59.811,LearnStrategy,2023.2.3,MacIntel,60.0240096,6,1,15,0.185678601,-0.083680266,1,0,0,0.347,Gabbro_01,4,01,3,6,0.347,0.347210658,-0.254371357,1,0,0,0.621,Gabbro_rect,4,0.621,1,14,0,14,0,1,,,,,,,,,,,,,
6638f3d967d2828b285f176d,SCN,2024-06-11_19h47.59.811,LearnStrategy,2023.2.3,MacIntel,60.0240096,6,1,16,0.129891757,0.067860117,1,0,0,0.349,Gabbro_14,4,14,4,5,0.349,-0.081598668,-0.24937552,1,0,0,1.589,Basalt_rect,2,1.589,0,15,0,15,0,1,,,,,,,,,,,,,
6638f3d967d2828b285f176d,SCN,2024-06-11_19h47.59.811,LearnStrategy,2023.2.3,MacIntel,60.0240096,6,2,1,,,,,,,,4,13,,,,,,,,,,,3,1.285,0,,,,,,0.111573689,-0.233555371,1,0,0,1.285,Diorite_rect,0,0,0,0,1,
6638f3d967d2828b285f176d,SCN,2024-06-11_19h47.59.811,LearnStrategy,2023.2.3,MacIntel,60.0240096,6,2,2,,,,,,,,4,16,,,,,,,,,,,4,0.738,1,,,,,,0.310574521,-0.231890092,1,0,0,0.738,Gabbro_rect,1,0,1,0,1,
6638f3d967d2828b285f176d,SCN,2024-06-11_19h47.59.811,LearnStrategy,2023.2.3,MacIntel,60.0240096,6,2,3,,,,,,,,2,04,,,,,,,,,,,2,0.088,1,,,,,,-0.198168193,-0.251873439,1,0,0,0.088,Basalt_rect,2,0,2,0,1,
6638f3d967d2828b285f176d,SCN,2024-06-11_19h47.59.811,LearnStrategy,2023.2.3,MacIntel,60.0240096,6,2,4,,,,,,,,2,06,,,,,,,,,,,1,0.52,0,,,,,,-0.346378018,-0.260199833,1,0,0,0.52,Andesite_rect,3,0,3,0,1,
6638f3d967d2828b285f176d,SCN,2024-06-11_19h47.59.811,LearnStrategy,2023.2.3,MacIntel,60.0240096,6,2,5,,,,,,,,6,03,,,,,,,,,,,6,0.138,1,,,,,,-0.122398002,-0.380932556,1,0,0,0.138,Pegmatite_rect,4,0,4,0,1,
6638f3d967d2828b285f176d,SCN,2024-06-11_19h47.59.811,LearnStrategy,2023.2.3,MacIntel,60.0240096,6,2,6,,,,,,,,8,14,,,,,,,,,,,7,1.086,0,,,,,,0.052456286,-0.385928393,1,0,0,1.086,Peridotite_rect,5,0,5,0,1,
6638f3d967d2828b285f176d,SCN,2024-06-11_19h47.59.811,LearnStrategy,2023.2.3,MacIntel,60.0240096,6,2,7,,,,,,,,1,02,,,,,,,,,,,1,0.104,1,,,,,,-0.396336386,-0.246044963,1,0,0,0.104,Andesite_rect,6,0,6,0,1,
6638f3d967d2828b285f176d,SCN,2024-06-11_19h47.59.811,LearnStrategy,2023.2.3,MacIntel,60.0240096,6,2,8,,,,,,,,6,13,,,,,,,,,,,5,0.072,0,,,,,,-0.392173189,-0.401748543,1,0,0,0.072,Obsidian_rect,7,0,7,0,1,
6638f3d967d2828b285f176d,SCN,2024-06-11_19h47.59.811,LearnStrategy,2023.2.3,MacIntel,60.0240096,6,2,9,,,,,,,,8,13,,,,,,,,,,,4,1.603,0,,,,,,0.415487094,-0.271024147,1,0,0,1.603,Gabbro_rect,8,0,8,0,1,
6638f3d967d2828b285f176d,SCN,2024-06-11_19h47.59.811,LearnStrategy,2023.2.3,MacIntel,60.0240096,6,2,10,,,,,,,,1,06,,,,,,,,,,,3,0.691,0,,,,,,0.189841799,-0.248542881,1,0,0,0.691,Diorite_rect,9,0,9,0,1,
6638f3d967d2828b285f176d,SCN,2024-06-11_19h47.59.811,LearnStrategy,2023.2.3,MacIntel,60.0240096,6,2,11,,,,,,,,3,02,,,,,,,,,,,8,0.387,0,,,,,,0.401332223,-0.413405495,1,0,0,0.387,Pumice_rect,10,0,10,0,1,
6638f3d967d2828b285f176d,SCN,2024-06-11_19h47.59.811,LearnStrategy,2023.2.3,MacIntel,60.0240096,6,2,12,,,,,,,,7,14,,,,,,,,,,,2,0.047,0,,,,,,-0.09325562,-0.264363031,1,0,0,0.047,Basalt_rect,11,0,11,0,1,
6638f3d967d2828b285f176d,SCN,2024-06-11_19h47.59.811,LearnStrategy,2023.2.3,MacIntel,60.0240096,6,2,13,,,,,,,,3,10,,,,,,,,,,,6,0.572,0,,,,,,-0.194004996,-0.415903414,1,0,0,0.572,Pegmatite_rect,12,0,12,0,1,
6638f3d967d2828b285f176d,SCN,2024-06-11_19h47.59.811,LearnStrategy,2023.2.3,MacIntel,60.0240096,6,2,14,,,,,,,,5,02,,,,,,,,,,,1,0.046,0,,,,,,-0.360532889,-0.232722731,1,0,0,0.046,Andesite_rect,13,0,13,0,1,
6638f3d967d2828b285f176d,SCN,2024-06-11_19h47.59.811,LearnStrategy,2023.2.3,MacIntel,60.0240096,6,2,15,,,,,,,,7,12,,,,,,,,,,,3,0.787,0,,,,,,0.094920899,-0.236053289,1,0,0,0.787,Diorite_rect,14,0,14,0,1,
6638f3d967d2828b285f176d,SCN,2024-06-11_19h47.59.811,LearnStrategy,2023.2.3,MacIntel,60.0240096,6,2,16,,,,,,,,5,16,,,,,,,,,,,4,0.086,0,,,,,,0.422980849,-0.231057452,1,0,0,0.086,Gabbro_rect,15,0,15,0,1,
6638f3d967d2828b285f176d,SCN,2024-06-11_19h47.59.811,LearnStrategy,2023.2.3,MacIntel,60.0240096,7,1,1,0.069109076,0.143630308,1,0,0,0.497,Gabbro_14,4,14,4,5,0.497,-0.128226478,-0.238551207,1,0,0,1.631,Basalt_rect,2,1.631,0,0,0,0,0,1,,,,,,,,,,,,,
6638f3d967d2828b285f176d,SCN,2024-06-11_19h47.59.811,LearnStrategy,2023.2.3,MacIntel,60.0240096,7,1,2,0.210657785,-0.059533722,1,0,0,0.831,Gabbro_01,4,01,3,6,0.831,0.15653622,-0.244379684,1,0,0,1.222,Diorite_rect,3,1.222,0,1,0,1,0,1,,,,,,,,,,,,,
6638f3d967d2828b285f176d,SCN,2024-06-11_19h47.59.811,LearnStrategy,2023.2.3,MacIntel,60.0240096,7,1,3,-0.283930058,-0.149458784,1,0,0,0.599,Diorite_11,3,11,3,3,0.599,-0.357202331,-0.251040799,1,0,0,0.721,Andesite_rect,1,0.721,0,2,0,2,0,1,,,,,,,,,,,,,
6638f3d967d2828b285f176d,SCN,2024-06-11_19h47.59.811,LearnStrategy,2023.2.3,MacIntel,60.0240096,7,1,4,-0.059117402,0.102830974,1,0,0,0.45,Andesite_14,1,14,4,4,0.45,-0.410491257,-0.229392173,1,0,0,0.988,Andesite_rect,1,0.988,1,3,0,3,0,1,,,,,,,,,,,,,
6638f3d967d2828b285f176d,SCN,2024-06-11_19h47.59.811,LearnStrategy,2023.2.3,MacIntel,60.0240096,7,1,5,0.194837635,-0.246877602,1,0,0,0.983,Peridotite_10,7,10,2,6,0.983,0.207327227,-0.271024147,1,0,0,0.33,Diorite_rect,3,0.33,0,4,0,4,0,1,,,,,,,,,,,,,
6638f3d967d2828b285f176d,SCN,2024-06-11_19h47.59.811,LearnStrategy,2023.2.3,MacIntel,60.0240096,7,1,6,0.388842631,-0.126144879,1,0,0,0.766,Pumice_10,8,10,3,7,0.766,0.379683597,-0.393422148,1,0,0,0.687,Pumice_rect,8,0.687,1,5,0,5,0,1,,,,,,,,,,,,,
6638f3d967d2828b285f176d,SCN,2024-06-11_19h47.59.811,LearnStrategy,2023.2.3,MacIntel,60.0240096,7,1,7,0.056619484,-0.375936719,1,0,0,0.648,Obsidian_11,5,11,1,5,0.648,-0.344712739,-0.382597835,1,0,0,0.954,Obsidian_rect,5,0.954,1,6,0,6,0,1,,,,,,,,,,,,,
6638f3d967d2828b285f176d,SCN,2024-06-11_19h47.59.811,LearnStrategy,2023.2.3,MacIntel,60.0240096,7,1,8,0.253122398,0.045378851,1,0,0,0.966,Andesite_03,1,03,4,6,0.966,0.056619484,-0.248542881,1,0,0,1.187,Diorite_rect,3,1.187,0,7,0,7,0,1,,,,,,,,,,,,,
6638f3d967d2828b285f176d,SCN,2024-06-11_19h47.59.811,LearnStrategy,2023.2.3,MacIntel,60.0240096,7,1,9,-0.071606994,-0.04621149,1,0,0,0.715,Diorite_07,3,07,3,4,0.715,-0.147377186,-0.243547044,1,0,0,0.577,Basalt_rect,2,0.577,0,8,0,8,0,1,,,,,,,,,,,,,
6638f3d967d2828b285f176d,SCN,2024-06-11_19h47.59.811,LearnStrategy,2023.2.3,MacIntel,60.0240096,7,1,10,-0.388009992,-0.084512906,1,0,0,1.049,Basalt_12,2,12,3,2,1.049,-0.137385512,-0.268526228,1,0,0,0.87,Basalt_rect,2,0.87,1,9,0,9,0,1,,,,,,,,,,,,,
6638f3d967d2828b285f176d,SCN,2024-06-11_19h47.59.811,LearnStrategy,2023.2.3,MacIntel,60.0240096,7,1,11,0.18817652,0.229392173,1,0,0,1.249,Pegmatite_09,6,09,5,6,1.249,0.056619484,-0.256869276,1,0,0,1.134,Diorite_rect,3,1.134,0,10,0,10,0,1,,,,,,,,,,,,,
6638f3d967d2828b285f176d,SCN,2024-06-11_19h47.59.811,LearnStrategy,2023.2.3,MacIntel,60.0240096,7,1,12,0.340549542,0.133638634,1,0,0,0.483,Obsidian_14,5,14,4,7,0.483,-0.344712739,-0.405079101,1,0,0,2.67,Obsidian_rect,5,2.67,1,11,0,11,0,1,,,,,,,,,,,,,
6638f3d967d2828b285f176d,SCN,2024-06-11_19h47.59.811,LearnStrategy,2023.2.3,MacIntel,60.0240096,7,1,13,0.262281432,0.104496253,1,0,0,0.315,Andesite_03,1,03,4,6,0.315,-0.051623647,-0.263530391,1,0,0,1.105,Basalt_rect,2,1.105,0,12,0,12,0,1,,,,,,,,,,,,,
6638f3d967d2828b285f176d,SCN,2024-06-11_19h47.59.811,LearnStrategy,2023.2.3,MacIntel,60.0240096,7,1,14,0.205661948,0.095337219,1,0,0,0.564,Andesite_03,1,03,4,6,0.564,-0.417985012,-0.246044963,1,0,0,2.604,Andesite_rect,1,2.604,1,13,0,13,0,1,,,,,,,,,,,,,
6638f3d967d2828b285f176d,SCN,2024-06-11_19h47.59.811,LearnStrategy,2023.2.3,MacIntel,60.0240096,7,1,15,0.074937552,0.044546211,1,0,0,0.3,Gabbro_14,4,14,4,5,0.3,0.118234804,-0.256036636,1,0,0,1.122,Diorite_rect,3,1.122,0,14,0,14,0,1,,,,,,,,,,,,,
6638f3d967d2828b285f176d,SCN,2024-06-11_19h47.59.811,LearnStrategy,2023.2.3,MacIntel,60.0240096,7,1,16,0.37468776,-0.209408826,1,0,0,0.482,Pegmatite_16,6,16,2,7,0.482,0.174854288,-0.264363031,1,0,0,0.619,Diorite_rect,3,0.619,0,15,0,15,0,1,,,,,,,,,,,,,
6638f3d967d2828b285f176d,SCN,2024-06-11_19h47.59.811,LearnStrategy,2023.2.3,MacIntel,60.0240096,7,2,1,,,,,,,,6,10,,,,,,,,,,,3,0.904,0,,,,,,0.104912573,-0.263530391,1,0,0,0.904,Diorite_rect,0,0,0,0,1,
6638f3d967d2828b285f176d,SCN,2024-06-11_19h47.59.811,LearnStrategy,2023.2.3,MacIntel,60.0240096,7,2,2,,,,,,,,3,10,,,,,,,,,,,3,0.036,1,,,,,,0.07826811,-0.270191507,1,0,0,0.036,Diorite_rect,1,0,1,0,1,
6638f3d967d2828b285f176d,SCN,2024-06-11_19h47.59.811,LearnStrategy,2023.2.3,MacIntel,60.0240096,7,2,3,,,,,,,,5,02,,,,,,,,,,,6,0.204,0,,,,,,-0.119900083,-0.39092423,1,0,0,0.204,Pegmatite_rect,2,0,2,0,1,
6638f3d967d2828b285f176d,SCN,2024-06-11_19h47.59.811,LearnStrategy,2023.2.3,MacIntel,60.0240096,7,2,4,,,,,,,,6,08,,,,,,,,,,,1,0.163,0,,,,,,-0.308076603,-0.251040799,1,0,0,0.163,Andesite_rect,3,0,3,0,1,
6638f3d967d2828b285f176d,SCN,2024-06-11_19h47.59.811,LearnStrategy,2023.2.3,MacIntel,60.0240096,7,2,5,,,,,,,,1,02,,,,,,,,,,,2,0.497,0,,,,,,-0.136552873,-0.271024147,1,0,0,0.497,Basalt_rect,4,0,4,0,1,
6638f3d967d2828b285f176d,SCN,2024-06-11_19h47.59.811,LearnStrategy,2023.2.3,MacIntel,60.0240096,7,2,6,,,,,,,,2,14,,,,,,,,,,,3,0.236,0,,,,,,0.134887594,-0.251873439,1,0,0,0.236,Diorite_rect,5,0,5,0,1,
6638f3d967d2828b285f176d,SCN,2024-06-11_19h47.59.811,LearnStrategy,2023.2.3,MacIntel,60.0240096,7,2,7,,,,,,,,7,15,,,,,,,,,,,4,0.171,0,,,,,,0.40632806,-0.263530391,1,0,0,0.171,Gabbro_rect,6,0,6,0,1,
6638f3d967d2828b285f176d,SCN,2024-06-11_19h47.59.811,LearnStrategy,2023.2.3,MacIntel,60.0240096,7,2,8,,,,,,,,8,13,,,,,,,,,,,4,0.038,0,,,,,,0.417152373,-0.232722731,1,0,0,0.038,Gabbro_rect,7,0,7,0,1,
6638f3d967d2828b285f176d,SCN,2024-06-11_19h47.59.811,LearnStrategy,2023.2.3,MacIntel,60.0240096,7,2,9,,,,,,,,8,03,,,,,,,,,,,8,0.306,1,,,,,,0.387177352,-0.387593672,1,0,0,0.306,Pumice_rect,8,0,8,0,1,
6638f3d967d2828b285f176d,SCN,2024-06-11_19h47.59.811,LearnStrategy,2023.2.3,MacIntel,60.0240096,7,2,10,,,,,,,,3,08,,,,,,,,,,,8,0.121,0,,,,,,0.383846794,-0.393422148,1,0,0,0.121,Pumice_rect,9,0,9,0,1,
6638f3d967d2828b285f176d,SCN,2024-06-11_19h47.59.811,LearnStrategy,2023.2.3,MacIntel,60.0240096,7,2,11,,,,,,,,4,09,,,,,,,,,,,7,0.235,0,,,,,,0.07743547,-0.402581182,1,0,0,0.235,Peridotite_rect,10,0,10,0,1,
6638f3d967d2828b285f176d,SCN,2024-06-11_19h47.59.811,LearnStrategy,2023.2.3,MacIntel,60.0240096,7,2,12,,,,,,,,4,05,,,,,,,,,,,6,0.209,0,,,,,,-0.182348043,-0.411740216,1,0,0,0.209,Pegmatite_rect,11,0,11,0,1,
6638f3d967d2828b285f176d,SCN,2024-06-11_19h47.59.811,LearnStrategy,2023.2.3,MacIntel,60.0240096,7,2,13,,,,,,,,7,04,,,,,,,,,,,3,0.57,0,,,,,,0.158201499,-0.228559534,1,0,0,0.57,Diorite_rect,12,0,12,0,1,
6638f3d967d2828b285f176d,SCN,2024-06-11_19h47.59.811,LearnStrategy,2023.2.3,MacIntel,60.0240096,7,2,14,,,,,,,,2,06,,,,,,,,,,,4,0.087,0,,,,,,0.336386345,-0.246044963,1,0,0,0.087,Gabbro_rect,13,0,13,0,1,
6638f3d967d2828b285f176d,SCN,2024-06-11_19h47.59.811,LearnStrategy,2023.2.3,MacIntel,60.0240096,7,2,15,,,,,,,,5,16,,,,,,,,,,,2,0.138,0,,,,,,-0.09408826,-0.235220649,1,0,0,0.138,Basalt_rect,14,0,14,0,1,
6638f3d967d2828b285f176d,SCN,2024-06-11_19h47.59.811,LearnStrategy,2023.2.3,MacIntel,60.0240096,7,2,16,,,,,,,,1,10,,,,,,,,,,,1,0.088,1,,,,,,-0.308076603,-0.255203997,1,0,0,0.088,Andesite_rect,15,0,15,0,1,
6638f3d967d2828b285f176d,SCN,2024-06-11_19h47.59.811,LearnStrategy,2023.2.3,MacIntel,60.0240096,8,1,1,-0.079100749,-0.064529559,1,0,0,0.116,Diorite_07,3,07,3,4,0.116,-0.338884263,-0.241881765,1,0,0,1.187,Andesite_rect,1,1.187,0,0,0,0,0,1,,,,,,,,,,,,,
6638f3d967d2828b285f176d,SCN,2024-06-11_19h47.59.811,LearnStrategy,2023.2.3,MacIntel,60.0240096,8,1,2,0.051623647,-0.112822648,1,0,0,0.315,Basalt_11,2,11,3,5,0.315,0.113238968,-0.244379684,1,0,0,1.086,Diorite_rect,3,1.086,0,1,0,1,0,1,,,,,,,,,,,,,
6638f3d967d2828b285f176d,SCN,2024-06-11_19h47.59.811,LearnStrategy,2023.2.3,MacIntel,60.0240096,8,1,3,0.222314738,-0.252706078,1,0,0,1.165,Peridotite_10,7,10,2,6,1.165,0.159034138,-0.259367194,1,0,0,0.545,Diorite_rect,3,0.545,0,2,0,2,0,1,,,,,,,,,,,,,
6638f3d967d2828b285f176d,SCN,2024-06-11_19h47.59.811,LearnStrategy,2023.2.3,MacIntel,60.0240096,8,1,4,0.239800167,0.405079101,1,0,0,1.083,Obsidian_07,5,07,6,6,1.083,-0.367194005,-0.401748543,1,0,0,1.234,Obsidian_rect,5,1.234,1,3,0,3,0,1,,,,,,,,,,,,,
6638f3d967d2828b285f176d,SCN,2024-06-11_19h47.59.811,LearnStrategy,2023.2.3,MacIntel,60.0240096,8,1,5,-0.380516236,0.400915903,1,0,0,1.113,Gabbro_10,4,10,6,2,1.113,-0.385512073,-0.261865112,1,0,0,1.359,Andesite_rect,1,1.359,0,4,0,4,0,1,,,,,,,,,,,,,
6638f3d967d2828b285f176d,SCN,2024-06-11_19h47.59.811,LearnStrategy,2023.2.3,MacIntel,60.0240096,8,1,6,-0.388842631,0.407577019,1,0,0,1.294,Gabbro_10,4,10,6,2,1.294,0.392173189,-0.25020816,1,0,0,1.701,Gabbro_rect,4,1.701,1,5,0,5,0,1,,,,,,,,,,,,,
6638f3d967d2828b285f176d,SCN,2024-06-11_19h47.59.811,LearnStrategy,2023.2.3,MacIntel,60.0240096,8,1,7,0.24979184,0.261032473,1,0,0,1.298,Pegmatite_09,6,09,5,6,1.298,-0.058284763,-0.235220649,1,0,0,0.876,Basalt_rect,2,0.876,0,6,0,6,0,1,,,,,,,,,,,,,
6638f3d967d2828b285f176d,SCN,2024-06-11_19h47.59.811,LearnStrategy,2023.2.3,MacIntel,60.0240096,8,1,8,0.198168193,0.069525396,1,0,0,0.682,Andesite_03,1,03,4,6,0.682,-0.061615321,-0.235220649,1,0,0,1.895,Basalt_rect,2,1.895,0,7,0,7,0,1,,,,,,,,,,,,,
6638f3d967d2828b285f176d,SCN,2024-06-11_19h47.59.811,LearnStrategy,2023.2.3,MacIntel,60.0240096,8,1,9,0.096586178,-0.080349709,1,0,0,0.684,Basalt_11,2,11,3,5,0.684,0.089092423,-0.251040799,1,0,0,0.823,Diorite_rect,3,0.823,0,8,0,8,0,1,,,,,,,,,,,,,
6638f3d967d2828b285f176d,SCN,2024-06-11_19h47.59.811,LearnStrategy,2023.2.3,MacIntel,60.0240096,8,1,10,0.370524563,-0.087843464,1,0,0,1.216,Pumice_10,8,10,3,7,1.216,0.162364696,-0.239383847,1,0,0,0.897,Diorite_rect,3,0.897,0,9,0,9,0,1,,,,,,,,,,,,,
6638f3d967d2828b285f176d,SCN,2024-06-11_19h47.59.811,LearnStrategy,2023.2.3,MacIntel,60.0240096,8,1,11,0.080766028,-0.39092423,1,0,0,0.965,Obsidian_11,5,11,1,5,0.965,-0.430474604,-0.415903414,1,0,0,0.865,Obsidian_rect,5,0.865,1,10,0,10,0,1,,,,,,,,,,,,,
6638f3d967d2828b285f176d,SCN,2024-06-11_19h47.59.811,LearnStrategy,2023.2.3,MacIntel,60.0240096,8,1,12,-0.064945878,-0.266860949,1,0,0,1.53,Obsidian_04,5,04,2,4,1.53,-0.384679434,-0.404246461,1,0,0,1.521,Obsidian_rect,5,1.521,1,11,0,11,0,1,,,,,,,,,,,,,
6638f3d967d2828b285f176d,SCN,2024-06-11_19h47.59.811,LearnStrategy,2023.2.3,MacIntel,60.0240096,8,1,13,0.084096586,-0.423397169,1,0,0,0.912,Obsidian_11,5,11,1,5,0.912,-0.385512073,-0.415903414,1,0,0,1.387,Obsidian_rect,5,1.387,1,12,0,12,0,1,,,,,,,,,,,,,
6638f3d967d2828b285f176d,SCN,2024-06-11_19h47.59.811,LearnStrategy,2023.2.3,MacIntel,60.0240096,8,1,14,-0.087427144,-0.266860949,1,0,0,1.014,Obsidian_04,5,04,2,4,1.014,-0.384679434,-0.407577019,1,0,0,1.864,Obsidian_rect,5,1.864,1,13,0,13,0,1,,,,,,,,,,,,,
6638f3d967d2828b285f176d,SCN,2024-06-11_19h47.59.811,LearnStrategy,2023.2.3,MacIntel,60.0240096,8,1,15,0.089092423,-0.420066611,1,0,0,1.097,Obsidian_11,5,11,1,5,1.097,-0.344712739,-0.415070774,1,0,0,0.998,Obsidian_rect,5,0.998,1,14,0,14,0,1,,,,,,,,,,,,,
6638f3d967d2828b285f176d,SCN,2024-06-11_19h47.59.811,LearnStrategy,2023.2.3,MacIntel,60.0240096,8,1,16,-0.10907577,-0.261865112,1,0,0,0.964,Obsidian_04,5,04,2,4,0.964,-0.378850958,-0.410907577,1,0,0,2.182,Obsidian_rect,5,2.182,1,15,0,15,0,1,,,,,,,,,,,,,
6638f3d967d2828b285f176d,SCN,2024-06-11_19h47.59.811,LearnStrategy,2023.2.3,MacIntel,60.0240096,8,2,1,,,,,,,,3,12,,,,,,,,,,,2,1.741,0,,,,,,-0.134054954,-0.246877602,1,0,0,1.741,Basalt_rect,0,0,0,0,1,
6638f3d967d2828b285f176d,SCN,2024-06-11_19h47.59.811,LearnStrategy,2023.2.3,MacIntel,60.0240096,8,2,2,,,,,,,,6,11,,,,,,,,,,,1,0.107,0,,,,,,-0.370524563,-0.23438801,1,0,0,0.107,Andesite_rect,1,0,1,0,1,
6638f3d967d2828b285f176d,SCN,2024-06-11_19h47.59.811,LearnStrategy,2023.2.3,MacIntel,60.0240096,8,2,3,,,,,,,,7,06,,,,,,,,,,,6,0.773,0,,,,,,-0.092422981,-0.389258951,1,0,0,0.773,Pegmatite_rect,2,0,2,0,1,
6638f3d967d2828b285f176d,SCN,2024-06-11_19h47.59.811,LearnStrategy,2023.2.3,MacIntel,60.0240096,8,2,4,,,,,,,,8,14,,,,,,,,,,,7,0.387,0,,,,,,0.126561199,-0.40591174,1,0,0,0.387,Peridotite_rect,3,0,3,0,1,
6638f3d967d2828b285f176d,SCN,2024-06-11_19h47.59.811,LearnStrategy,2023.2.3,MacIntel,60.0240096,8,2,5,,,,,,,,2,04,,,,,,,,,,,3,0.088,0,,,,,,0.184013322,-0.231890092,1,0,0,0.088,Diorite_rect,4,0,4,0,1,
6638f3d967d2828b285f176d,SCN,2024-06-11_19h47.59.811,LearnStrategy,2023.2.3,MacIntel,60.0240096,8,2,6,,,,,,,,1,06,,,,,,,,,,,3,0.084,0,,,,,,0.213988343,-0.247710241,1,0,0,0.084,Diorite_rect,5,0,5,0,1,
6638f3d967d2828b285f176d,SCN,2024-06-11_19h47.59.811,LearnStrategy,2023.2.3,MacIntel,60.0240096,8,2,7,,,,,,,,7,14,,,,,,,,,,,3,2.276,0,,,,,,0.134887594,-0.243547044,1,0,0,2.276,Diorite_rect,6,0,6,0,1,
6638f3d967d2828b285f176d,SCN,2024-06-11_19h47.59.811,LearnStrategy,2023.2.3,MacIntel,60.0240096,8,2,8,,,,,,,,8,06,,,,,,,,,,,2,4.057,0,,,,,,-0.123230641,-0.237718568,1,0,0,4.057,Basalt_rect,7,0,7,0,1,
6638f3d967d2828b285f176d,SCN,2024-06-11_19h47.59.811,LearnStrategy,2023.2.3,MacIntel,60.0240096,8,2,9,,,,,,,,5,08,,,,,,,,,,,6,0.068,0,,,,,,-0.119067444,-0.40591174,1,0,0,0.068,Pegmatite_rect,8,0,8,0,1,
6638f3d967d2828b285f176d,SCN,2024-06-11_19h47.59.811,LearnStrategy,2023.2.3,MacIntel,60.0240096,8,2,10,,,,,,,,4,13,,,,,,,,,,,7,1.067,0,,,,,,0.136552873,-0.416736053,1,0,0,1.067,Peridotite_rect,9,0,9,0,1,
6638f3d967d2828b285f176d,SCN,2024-06-11_19h47.59.811,LearnStrategy,2023.2.3,MacIntel,60.0240096,8,2,11,,,,,,,,1,07,,,,,,,,,,,3,0.74,0,,,,,,0.160699417,-0.258534555,1,0,0,0.74,Diorite_rect,10,0,10,0,1,
6638f3d967d2828b285f176d,SCN,2024-06-11_19h47.59.811,LearnStrategy,2023.2.3,MacIntel,60.0240096,8,2,12,,,,,,,,2,08,,,,,,,,,,,4,0.073,0,,,,,,0.323064113,-0.259367194,1,0,0,0.073,Gabbro_rect,11,0,11,0,1,
6638f3d967d2828b285f176d,SCN,2024-06-11_19h47.59.811,LearnStrategy,2023.2.3,MacIntel,60.0240096,8,2,13,,,,,,,,4,16,,,,,,,,,,,4,0.323,1,,,,,,0.37468776,-0.271024147,1,0,0,0.323,Gabbro_rect,12,0,12,0,1,
6638f3d967d2828b285f176d,SCN,2024-06-11_19h47.59.811,LearnStrategy,2023.2.3,MacIntel,60.0240096,8,2,14,,,,,,,,5,10,,,,,,,,,,,8,0.087,0,,,,,,0.339716903,-0.389258951,1,0,0,0.087,Pumice_rect,13,0,13,0,1,
6638f3d967d2828b285f176d,SCN,2024-06-11_19h47.59.811,LearnStrategy,2023.2.3,MacIntel,60.0240096,8,2,15,,,,,,,,3,13,,,,,,,,,,,3,0.587,1,,,,,,0.079933389,-0.235220649,1,0,0,0.587,Diorite_rect,14,0,14,0,1,
6638f3d967d2828b285f176d,SCN,2024-06-11_19h47.59.811,LearnStrategy,2023.2.3,MacIntel,60.0240096,8,2,16,,,,,,,,6,07,,,,,,,,,,,2,0.136,0,,,,,,-0.086594505,-0.236053289,1,0,0,0.136,Basalt_rect,15,0,15,0,1,
6638f3d967d2828b285f176d,SCN,2024-06-11_19h47.59.811,LearnStrategy,2023.2.3,MacIntel,60.0240096,9,1,1,-0.208159867,-0.382597835,1,0,0,1.164,Pegmatite_06,6,06,1,3,1.164,-0.224812656,-0.392589509,1,0,0,0.256,Pegmatite_rect,6,0.256,1,0,0,0,0,1,,,,,,,,,,,,,
6638f3d967d2828b285f176d,SCN,2024-06-11_19h47.59.811,LearnStrategy,2023.2.3,MacIntel,60.0240096,9,1,2,-0.427976686,0.050374688,1,0,0,0.664,Pumice_16,8,16,4,2,0.664,-0.331390508,-0.239383847,1,0,0,0.504,Andesite_rect,1,0.504,0,1,0,1,0,1,,,,,,,,,,,,,
6638f3d967d2828b285f176d,SCN,2024-06-11_19h47.59.811,LearnStrategy,2023.2.3,MacIntel,60.0240096,9,1,3,0.245628643,0.099500416,1,0,0,0.582,Andesite_03,1,03,4,6,0.582,-0.069941715,-0.239383847,1,0,0,0.77,Basalt_rect,2,0.77,0,2,0,2,0,1,,,,,,,,,,,,,
6638f3d967d2828b285f176d,SCN,2024-06-11_19h47.59.811,LearnStrategy,2023.2.3,MacIntel,60.0240096,9,1,4,0.186511241,-0.071190674,1,0,0,0.498,Gabbro_01,4,01,3,6,0.498,0.228143214,-0.233555371,1,0,0,0.356,Diorite_rect,3,0.356,0,3,0,3,0,1,,,,,,,,,,,,,
6638f3d967d2828b285f176d,SCN,2024-06-11_19h47.59.811,LearnStrategy,2023.2.3,MacIntel,60.0240096,9,1,5,0.268109908,-0.267693589,1,0,0,0.582,Peridotite_10,7,10,2,6,0.582,0.235636969,-0.264363031,1,0,0,0.336,Diorite_rect,3,0.336,0,4,0,4,0,1,,,,,,,,,,,,,
6638f3d967d2828b285f176d,SCN,2024-06-11_19h47.59.811,LearnStrategy,2023.2.3,MacIntel,60.0240096,9,1,6,0.42214821,-0.138634471,1,0,0,0.516,Pumice_10,8,10,3,7,0.516,0.325562032,-0.232722731,1,0,0,0.555,Gabbro_rect,4,0.555,0,5,0,5,0,1,,,,,,,,,,,,,
6638f3d967d2828b285f176d,SCN,2024-06-11_19h47.59.811,LearnStrategy,2023.2.3,MacIntel,60.0240096,9,1,7,0.37468776,-0.225228976,1,0,0,0.415,Pegmatite_16,6,16,2,7,0.415,0.387177352,-0.244379684,1,0,0,0.139,Gabbro_rect,4,0.139,0,6,0,6,0,1,,,,,,,,,,,,,
6638f3d967d2828b285f176d,SCN,2024-06-11_19h47.59.811,LearnStrategy,2023.2.3,MacIntel,60.0240096,9,1,8,0.368026644,-0.393422148,1,0,0,1.183,Gabbro_03,4,03,1,7,1.183,0.368026644,-0.393422148,1,0,0,0.076,Pumice_rect,8,0.076,0,7,0,7,0,1,,,,,,,,,,,,,
6638f3d967d2828b285f176d,SCN,2024-06-11_19h47.59.811,LearnStrategy,2023.2.3,MacIntel,60.0240096,9,1,9,0.041631973,-0.145295587,1,0,0,0.364,Basalt_11,2,11,3,5,0.364,0.144879267,-0.39092423,1,0,0,0.537,Peridotite_rect,7,0.537,0,8,0,8,0,1,,,,,,,,,,,,,
6638f3d967d2828b285f176d,SCN,2024-06-11_19h47.59.811,LearnStrategy,2023.2.3,MacIntel,60.0240096,9,1,10,0.378018318,-0.215237302,1,0,0,0.466,Pegmatite_16,6,16,2,7,0.466,0.487094088,-0.243547044,1,0,0,0.254,Gabbro_rect,4,0.254,0,9,0,9,0,1,,,,,,,,,,,,,
6638f3d967d2828b285f176d,SCN,2024-06-11_19h47.59.811,LearnStrategy,2023.2.3,MacIntel,60.0240096,9,1,11,0.229808493,-0.128642798,1,0,0,0.333,Gabbro_01,4,01,3,6,0.333,0.368026644,-0.396752706,1,0,0,0.787,Pumice_rect,8,0.787,0,10,0,10,0,1,,,,,,,,,,,,,
6638f3d967d2828b285f176d,SCN,2024-06-11_19h47.59.811,LearnStrategy,2023.2.3,MacIntel,60.0240096,9,1,12,0.037468776,-0.105328893,1,0,0,0.515,Basalt_11,2,11,3,5,0.515,0.065778518,-0.241881765,1,0,0,0.738,Diorite_rect,3,0.738,0,11,0,11,0,1,,,,,,,,,,,,,
6638f3d967d2828b285f176d,SCN,2024-06-11_19h47.59.811,LearnStrategy,2023.2.3,MacIntel,60.0240096,9,1,13,0.104912573,-0.221898418,1,0,0,0.767,Gabbro_08,4,08,2,5,0.767,0.091590341,-0.23438801,1,0,0,0.154,Diorite_rect,3,0.154,0,12,0,12,0,1,,,,,,,,,,,,,
6638f3d967d2828b285f176d,SCN,2024-06-11_19h47.59.811,LearnStrategy,2023.2.3,MacIntel,60.0240096,9,1,14,0.069109076,-0.073688593,1,0,0,0.282,Basalt_11,2,11,3,5,0.282,0.355537052,-0.383430475,1,0,0,1.07,Pumice_rect,8,1.07,0,13,0,13,0,1,,,,,,,,,,,,,
6638f3d967d2828b285f176d,SCN,2024-06-11_19h47.59.811,LearnStrategy,2023.2.3,MacIntel,60.0240096,9,1,15,0.029142381,-0.051207327,1,0,0,0.383,Basalt_11,2,11,3,5,0.383,0.108243131,-0.256869276,1,0,0,0.57,Diorite_rect,3,0.57,0,14,0,14,0,1,,,,,,,,,,,,,
6638f3d967d2828b285f176d,SCN,2024-06-11_19h47.59.811,LearnStrategy,2023.2.3,MacIntel,60.0240096,9,1,16,0.389675271,-0.049542048,1,0,0,0.483,Pumice_10,8,10,3,7,0.483,0.043297252,-0.271024147,1,0,0,0.67,Diorite_rect,3,0.67,0,15,0,15,0,1,,,,,,,,,,,,,
6638f3d967d2828b285f176d,SCN,2024-06-11_19h47.59.811,LearnStrategy,2023.2.3,MacIntel,60.0240096,9,2,1,,,,,,,,1,05,,,,,,,,,,,3,0.701,0,,,,,,0.087427144,-0.236885928,1,0,0,0.701,Diorite_rect,0,0,0,0,1,
6638f3d967d2828b285f176d,SCN,2024-06-11_19h47.59.811,LearnStrategy,2023.2.3,MacIntel,60.0240096,9,2,2,,,,,,,,7,13,,,,,,,,,,,2,0.117,0,,,,,,-0.169858451,-0.270191507,1,0,0,0.117,Basalt_rect,1,0,1,0,1,
6638f3d967d2828b285f176d,SCN,2024-06-11_19h47.59.811,LearnStrategy,2023.2.3,MacIntel,60.0240096,9,2,3,,,,,,,,5,05,,,,,,,,,,,1,0.055,0,,,,,,-0.364696087,-0.271856786,1,0,0,0.055,Andesite_rect,2,0,2,0,1,
6638f3d967d2828b285f176d,SCN,2024-06-11_19h47.59.811,LearnStrategy,2023.2.3,MacIntel,60.0240096,9,2,4,,,,,,,,5,06,,,,,,,,,,,6,0.204,0,,,,,,-0.196502914,-0.394254788,1,0,0,0.204,Pegmatite_rect,3,0,3,0,1,
6638f3d967d2828b285f176d,SCN,2024-06-11_19h47.59.811,LearnStrategy,2023.2.3,MacIntel,60.0240096,9,2,5,,,,,,,,6,13,,,,,,,,,,,5,0.089,0,,,,,,-0.428809326,-0.385928393,1,0,0,0.089,Obsidian_rect,4,0,4,0,1,
6638f3d967d2828b285f176d,SCN,2024-06-11_19h47.59.811,LearnStrategy,2023.2.3,MacIntel,60.0240096,9,2,6,,,,,,,,4,15,,,,,,,,,,,2,0.721,0,,,,,,-0.217318901,-0.239383847,1,0,0,0.721,Basalt_rect,5,0,5,0,1,
6638f3d967d2828b285f176d,SCN,2024-06-11_19h47.59.811,LearnStrategy,2023.2.3,MacIntel,60.0240096,9,2,7,,,,,,,,7,12,,,,,,,,,,,1,0.552,0,,,,,,-0.295587011,-0.241881765,1,0,0,0.552,Andesite_rect,6,0,6,0,1,
6638f3d967d2828b285f176d,SCN,2024-06-11_19h47.59.811,LearnStrategy,2023.2.3,MacIntel,60.0240096,9,2,8,,,,,,,,8,02,,,,,,,,,,,3,0.073,0,,,,,,0.103247294,-0.236885928,1,0,0,0.073,Diorite_rect,7,0,7,0,1,
6638f3d967d2828b285f176d,SCN,2024-06-11_19h47.59.811,LearnStrategy,2023.2.3,MacIntel,60.0240096,9,2,9,,,,,,,,2,02,,,,,,,,,,,3,0.028,0,,,,,,0.103247294,-0.236885928,1,0,0,0.028,Diorite_rect,8,0,8,0,1,
6638f3d967d2828b285f176d,SCN,2024-06-11_19h47.59.811,LearnStrategy,2023.2.3,MacIntel,60.0240096,9,2,10,,,,,,,,3,09,,,,,,,,,,,4,0.114,0,,,,,,0.333055787,-0.238551207,1,0,0,0.114,Gabbro_rect,9,0,9,0,1,
6638f3d967d2828b285f176d,SCN,2024-06-11_19h47.59.811,LearnStrategy,2023.2.3,MacIntel,60.0240096,9,2,11,,,,,,,,8,09,,,,,,,,,,,7,0.58,0,,,,,,0.13988343,-0.39092423,1,0,0,0.58,Peridotite_rect,10,0,10,0,1,
6638f3d967d2828b285f176d,SCN,2024-06-11_19h47.59.811,LearnStrategy,2023.2.3,MacIntel,60.0240096,9,2,12,,,,,,,,3,02,,,,,,,,,,,3,0.485,1,,,,,,0.149875104,-0.237718568,1,0,0,0.485,Diorite_rect,11,0,11,0,1,
6638f3d967d2828b285f176d,SCN,2024-06-11_19h47.59.811,LearnStrategy,2023.2.3,MacIntel,60.0240096,9,2,13,,,,,,,,2,05,,,,,,,,,,,2,0.072,1,,,,,,-0.091590341,-0.246877602,1,0,0,0.072,Basalt_rect,12,0,12,0,1,
6638f3d967d2828b285f176d,SCN,2024-06-11_19h47.59.811,LearnStrategy,2023.2.3,MacIntel,60.0240096,9,2,14,,,,,,,,6,03,,,,,,,,,,,3,0.255,0,,,,,,0.0316403,-0.26602831,1,0,0,0.255,Diorite_rect,13,0,13,0,1,
6638f3d967d2828b285f176d,SCN,2024-06-11_19h47.59.811,LearnStrategy,2023.2.3,MacIntel,60.0240096,9,2,15,,,,,,,,1,16,,,,,,,,,,,7,0.685,0,,,,,,0.050791007,-0.395087427,1,0,0,0.685,Peridotite_rect,14,0,14,0,1,
6638f3d967d2828b285f176d,SCN,2024-06-11_19h47.59.811,LearnStrategy,2023.2.3,MacIntel,60.0240096,9,2,16,,,,,,,,4,12,,,,,,,,,,,8,0.439,0,,,,,,0.322231474,-0.389258951,1,0,0,0.439,Pumice_rect,15,0,15,0,1,
6638f3d967d2828b285f176d,SCN,2024-06-11_19h47.59.811,LearnStrategy,2023.2.3,MacIntel,60.0240096,,,,,,,,,,,,,,,,,,,,,,,,,,,,,,,,,,,,,,,,,,,0
6638f3d967d2828b285f176d,SCN,2024-06-11_19h47.59.811,LearnStrategy,2023.2.3,MacIntel,60.0240096,,,,,,,,,,,,,,,,,,,,,,,,,,,,,,,,,,,,,,,,,,,
6638f3d967d2828b285f176d,SCN,2024-06-11_19h47.59.811,LearnStrategy,2023.2.3,MacIntel,60.0240096,,,,,,,,,,,8,15,1,1,,,,,,,,,,,,,,,,,,,,,,,,,,,,,
6638f3d967d2828b285f176d,SCN,2024-06-11_19h47.59.811,LearnStrategy,2023.2.3,MacIntel,60.0240096,,,,,,,,,,,5,09,1,2,,,,,,,,,,,,,,,,,,,,,,,,,,,,,
6638f3d967d2828b285f176d,SCN,2024-06-11_19h47.59.811,LearnStrategy,2023.2.3,MacIntel,60.0240096,,,,,,,,,,,6,06,1,3,,,,,,,,,,,,,,,,,,,,,,,,,,,,,
6638f3d967d2828b285f176d,SCN,2024-06-11_19h47.59.811,LearnStrategy,2023.2.3,MacIntel,60.0240096,,,,,,,,,,,7,16,1,4,,,,,,,,,,,,,,,,,,,,,,,,,,,,,
6638f3d967d2828b285f176d,SCN,2024-06-11_19h47.59.811,LearnStrategy,2023.2.3,MacIntel,60.0240096,,,,,,,,,,,5,11,1,5,,,,,,,,,,,,,,,,,,,,,,,,,,,,,
6638f3d967d2828b285f176d,SCN,2024-06-11_19h47.59.811,LearnStrategy,2023.2.3,MacIntel,60.0240096,,,,,,,,,,,6,05,1,6,,,,,,,,,,,,,,,,,,,,,,,,,,,,,
6638f3d967d2828b285f176d,SCN,2024-06-11_19h47.59.811,LearnStrategy,2023.2.3,MacIntel,60.0240096,,,,,,,,,,,4,03,1,7,,,,,,,,,,,,,,,,,,,,,,,,,,,,,
6638f3d967d2828b285f176d,SCN,2024-06-11_19h47.59.811,LearnStrategy,2023.2.3,MacIntel,60.0240096,,,,,,,,,,,1,01,1,8,,,,,,,,,,,,,,,,,,,,,,,,,,,,,
6638f3d967d2828b285f176d,SCN,2024-06-11_19h47.59.811,LearnStrategy,2023.2.3,MacIntel,60.0240096,,,,,,,,,,,7,07,2,1,,,,,,,,,,,,,,,,,,,,,,,,,,,,,
6638f3d967d2828b285f176d,SCN,2024-06-11_19h47.59.811,LearnStrategy,2023.2.3,MacIntel,60.0240096,,,,,,,,,,,2,09,2,2,,,,,,,,,,,,,,,,,,,,,,,,,,,,,
6638f3d967d2828b285f176d,SCN,2024-06-11_19h47.59.811,LearnStrategy,2023.2.3,MacIntel,60.0240096,,,,,,,,,,,8,04,2,3,,,,,,,,,,,,,,,,,,,,,,,,,,,,,
6638f3d967d2828b285f176d,SCN,2024-06-11_19h47.59.811,LearnStrategy,2023.2.3,MacIntel,60.0240096,,,,,,,,,,,5,04,2,4,,,,,,,,,,,,,,,,,,,,,,,,,,,,,
6638f3d967d2828b285f176d,SCN,2024-06-11_19h47.59.811,LearnStrategy,2023.2.3,MacIntel,60.0240096,,,,,,,,,,,4,08,2,5,,,,,,,,,,,,,,,,,,,,,,,,,,,,,
6638f3d967d2828b285f176d,SCN,2024-06-11_19h47.59.811,LearnStrategy,2023.2.3,MacIntel,60.0240096,,,,,,,,,,,7,10,2,6,,,,,,,,,,,,,,,,,,,,,,,,,,,,,
6638f3d967d2828b285f176d,SCN,2024-06-11_19h47.59.811,LearnStrategy,2023.2.3,MacIntel,60.0240096,,,,,,,,,,,6,16,2,7,,,,,,,,,,,,,,,,,,,,,,,,,,,,,
6638f3d967d2828b285f176d,SCN,2024-06-11_19h47.59.811,LearnStrategy,2023.2.3,MacIntel,60.0240096,,,,,,,,,,,8,05,2,8,,,,,,,,,,,,,,,,,,,,,,,,,,,,,
6638f3d967d2828b285f176d,SCN,2024-06-11_19h47.59.811,LearnStrategy,2023.2.3,MacIntel,60.0240096,,,,,,,,,,,7,05,3,1,,,,,,,,,,,,,,,,,,,,,,,,,,,,,
6638f3d967d2828b285f176d,SCN,2024-06-11_19h47.59.811,LearnStrategy,2023.2.3,MacIntel,60.0240096,,,,,,,,,,,2,12,3,2,,,,,,,,,,,,,,,,,,,,,,,,,,,,,
6638f3d967d2828b285f176d,SCN,2024-06-11_19h47.59.811,LearnStrategy,2023.2.3,MacIntel,60.0240096,,,,,,,,,,,3,11,3,3,,,,,,,,,,,,,,,,,,,,,,,,,,,,,
6638f3d967d2828b285f176d,SCN,2024-06-11_19h47.59.811,LearnStrategy,2023.2.3,MacIntel,60.0240096,,,,,,,,,,,3,07,3,4,,,,,,,,,,,,,,,,,,,,,,,,,,,,,
6638f3d967d2828b285f176d,SCN,2024-06-11_19h47.59.811,LearnStrategy,2023.2.3,MacIntel,60.0240096,,,,,,,,,,,2,11,3,5,,,,,,,,,,,,,,,,,,,,,,,,,,,,,
6638f3d967d2828b285f176d,SCN,2024-06-11_19h47.59.811,LearnStrategy,2023.2.3,MacIntel,60.0240096,,,,,,,,,,,4,01,3,6,,,,,,,,,,,,,,,,,,,,,,,,,,,,,
6638f3d967d2828b285f176d,SCN,2024-06-11_19h47.59.811,LearnStrategy,2023.2.3,MacIntel,60.0240096,,,,,,,,,,,8,10,3,7,,,,,,,,,,,,,,,,,,,,,,,,,,,,,
6638f3d967d2828b285f176d,SCN,2024-06-11_19h47.59.811,LearnStrategy,2023.2.3,MacIntel,60.0240096,,,,,,,,,,,3,06,3,8,,,,,,,,,,,,,,,,,,,,,,,,,,,,,
6638f3d967d2828b285f176d,SCN,2024-06-11_19h47.59.811,LearnStrategy,2023.2.3,MacIntel,60.0240096,,,,,,,,,,,2,10,4,1,,,,,,,,,,,,,,,,,,,,,,,,,,,,,
6638f3d967d2828b285f176d,SCN,2024-06-11_19h47.59.811,LearnStrategy,2023.2.3,MacIntel,60.0240096,,,,,,,,,,,8,16,4,2,,,,,,,,,,,,,,,,,,,,,,,,,,,,,
6638f3d967d2828b285f176d,SCN,2024-06-11_19h47.59.811,LearnStrategy,2023.2.3,MacIntel,60.0240096,,,,,,,,,,,1,11,4,3,,,,,,,,,,,,,,,,,,,,,,,,,,,,,
6638f3d967d2828b285f176d,SCN,2024-06-11_19h47.59.811,LearnStrategy,2023.2.3,MacIntel,60.0240096,,,,,,,,,,,1,14,4,4,,,,,,,,,,,,,,,,,,,,,,,,,,,,,
6638f3d967d2828b285f176d,SCN,2024-06-11_19h47.59.811,LearnStrategy,2023.2.3,MacIntel,60.0240096,,,,,,,,,,,4,14,4,5,,,,,,,,,,,,,,,,,,,,,,,,,,,,,
6638f3d967d2828b285f176d,SCN,2024-06-11_19h47.59.811,LearnStrategy,2023.2.3,MacIntel,60.0240096,,,,,,,,,,,1,03,4,6,,,,,,,,,,,,,,,,,,,,,,,,,,,,,
6638f3d967d2828b285f176d,SCN,2024-06-11_19h47.59.811,LearnStrategy,2023.2.3,MacIntel,60.0240096,,,,,,,,,,,5,14,4,7,,,,,,,,,,,,,,,,,,,,,,,,,,,,,
6638f3d967d2828b285f176d,SCN,2024-06-11_19h47.59.811,LearnStrategy,2023.2.3,MacIntel,60.0240096,,,,,,,,,,,5,12,4,8,,,,,,,,,,,,,,,,,,,,,,,,,,,,,
6638f3d967d2828b285f176d,SCN,2024-06-11_19h47.59.811,LearnStrategy,2023.2.3,MacIntel,60.0240096,,,,,,,,,,,6,12,5,1,,,,,,,,,,,,,,,,,,,,,,,,,,,,,
6638f3d967d2828b285f176d,SCN,2024-06-11_19h47.59.811,LearnStrategy,2023.2.3,MacIntel,60.0240096,,,,,,,,,,,2,01,5,2,,,,,,,,,,,,,,,,,,,,,,,,,,,,,
6638f3d967d2828b285f176d,SCN,2024-06-11_19h47.59.811,LearnStrategy,2023.2.3,MacIntel,60.0240096,,,,,,,,,,,7,08,5,3,,,,,,,,,,,,,,,,,,,,,,,,,,,,,
6638f3d967d2828b285f176d,SCN,2024-06-11_19h47.59.811,LearnStrategy,2023.2.3,MacIntel,60.0240096,,,,,,,,,,,6,15,5,4,,,,,,,,,,,,,,,,,,,,,,,,,,,,,
6638f3d967d2828b285f176d,SCN,2024-06-11_19h47.59.811,LearnStrategy,2023.2.3,MacIntel,60.0240096,,,,,,,,,,,4,11,5,5,,,,,,,,,,,,,,,,,,,,,,,,,,,,,
6638f3d967d2828b285f176d,SCN,2024-06-11_19h47.59.811,LearnStrategy,2023.2.3,MacIntel,60.0240096,,,,,,,,,,,6,09,5,6,,,,,,,,,,,,,,,,,,,,,,,,,,,,,
6638f3d967d2828b285f176d,SCN,2024-06-11_19h47.59.811,LearnStrategy,2023.2.3,MacIntel,60.0240096,,,,,,,,,,,3,16,5,7,,,,,,,,,,,,,,,,,,,,,,,,,,,,,
6638f3d967d2828b285f176d,SCN,2024-06-11_19h47.59.811,LearnStrategy,2023.2.3,MacIntel,60.0240096,,,,,,,,,,,3,15,5,8,,,,,,,,,,,,,,,,,,,,,,,,,,,,,
6638f3d967d2828b285f176d,SCN,2024-06-11_19h47.59.811,LearnStrategy,2023.2.3,MacIntel,60.0240096,,,,,,,,,,,8,08,6,1,,,,,,,,,,,,,,,,,,,,,,,,,,,,,
6638f3d967d2828b285f176d,SCN,2024-06-11_19h47.59.811,LearnStrategy,2023.2.3,MacIntel,60.0240096,,,,,,,,,,,4,10,6,2,,,,,,,,,,,,,,,,,,,,,,,,,,,,,
6638f3d967d2828b285f176d,SCN,2024-06-11_19h47.59.811,LearnStrategy,2023.2.3,MacIntel,60.0240096,,,,,,,,,,,3,14,6,3,,,,,,,,,,,,,,,,,,,,,,,,,,,,,
6638f3d967d2828b285f176d,SCN,2024-06-11_19h47.59.811,LearnStrategy,2023.2.3,MacIntel,60.0240096,,,,,,,,,,,1,04,6,4,,,,,,,,,,,,,,,,,,,,,,,,,,,,,
6638f3d967d2828b285f176d,SCN,2024-06-11_19h47.59.811,LearnStrategy,2023.2.3,MacIntel,60.0240096,,,,,,,,,,,7,02,6,5,,,,,,,,,,,,,,,,,,,,,,,,,,,,,
6638f3d967d2828b285f176d,SCN,2024-06-11_19h47.59.811,LearnStrategy,2023.2.3,MacIntel,60.0240096,,,,,,,,,,,5,07,6,6,,,,,,,,,,,,,,,,,,,,,,,,,,,,,
6638f3d967d2828b285f176d,SCN,2024-06-11_19h47.59.811,LearnStrategy,2023.2.3,MacIntel,60.0240096,,,,,,,,,,,1,09,6,7,,,,,,,,,,,,,,,,,,,,,,,,,,,,,
6638f3d967d2828b285f176d,SCN,2024-06-11_19h47.59.811,LearnStrategy,2023.2.3,MacIntel,60.0240096,,,,,,,,,,,2,16,6,8,,,,,,,,,,,,,,,,,,,,,,,,,,,,,