participant,condition,date,expName,psychopyVersion,OS,frameRate,block,phase,trial,learn_mouse.x,learn_mouse.y,learn_mouse.leftButton,learn_mouse.midButton,learn_mouse.rightButton,learn_mouse.time,learn_mouse.clicked_name,cat,token,row,col,t_select,cat_mouse_l.x,cat_mouse_l.y,cat_mouse_l.leftButton,cat_mouse_l.midButton,cat_mouse_l.rightButton,cat_mouse_l.time,cat_mouse_l.clicked_name,resp,t_resp,corr,train_trials.thisRepN,train_trials.thisTrialN,train_trials.thisN,train_trials.thisIndex,train_trials.ran,cat_mouse_t.x,cat_mouse_t.y,cat_mouse_t.leftButton,cat_mouse_t.midButton,cat_mouse_t.rightButton,cat_mouse_t.time,cat_mouse_t.clicked_name,test_trials.thisRepN,test_trials.thisTrialN,test_trials.thisN,test_trials.thisIndex,test_trials.ran,Bonus
663ab8a4d5bff4596f9a9de7,SCN,2024-06-11_12h11.16.589,LearnStrategy,2023.2.3,Win32,10.91703057,,,,,,,,,,,,,,,,,,,,,,,,,,,,,,,,,,,,,,,,,,,
663ab8a4d5bff4596f9a9de7,SCN,2024-06-11_12h11.16.589,LearnStrategy,2023.2.3,Win32,10.91703057,1,1,1,0.246296296,0.25,1,0,0,4.54,Pegmatite_11,6,11,5,6,4.54,0.073148148,-0.402777778,1,0,0,4.989,Peridotite_rect,7,4.989,0,0,0,0,0,1,,,,,,,,,,,,,
663ab8a4d5bff4596f9a9de7,SCN,2024-06-11_12h11.16.589,LearnStrategy,2023.2.3,Win32,10.91703057,1,1,2,-0.249074074,-0.272222222,1,0,0,2.6853,Pegmatite_06,6,06,2,3,2.685,0.07037037,-0.247222222,1,0,0,4.5148,Diorite_rect,3,4.515,0,1,0,1,0,1,,,,,,,,,,,,,
663ab8a4d5bff4596f9a9de7,SCN,2024-06-11_12h11.16.589,LearnStrategy,2023.2.3,Win32,10.91703057,1,1,3,0.562962963,0.22962963,1,0,0,4.3326,Basalt_06,2,06,5,8,4.333,-0.105555556,-0.240740741,1,0,0,3.0469,Basalt_rect,2,3.047,1,2,0,2,0,1,,,,,,,,,,,,,
663ab8a4d5bff4596f9a9de7,SCN,2024-06-11_12h11.16.589,LearnStrategy,2023.2.3,Win32,10.91703057,1,1,4,-0.253703704,0.107407407,1,0,0,2.4114,Obsidian_06,5,06,4,3,2.411,-0.336111111,-0.381481481,1,0,0,1.6686,Obsidian_rect,5,1.669,1,3,0,3,0,1,,,,,,,,,,,,,
663ab8a4d5bff4596f9a9de7,SCN,2024-06-11_12h11.16.589,LearnStrategy,2023.2.3,Win32,10.91703057,1,1,5,-0.075925926,-0.108333333,1,0,0,2.053,Pumice_02,8,02,3,4,2.053,-0.080555556,-0.235185185,1,0,0,1.2498,Basalt_rect,2,1.25,0,4,0,4,0,1,,,,,,,,,,,,,
663ab8a4d5bff4596f9a9de7,SCN,2024-06-11_12h11.16.589,LearnStrategy,2023.2.3,Win32,10.91703057,1,1,6,-0.530555556,-0.261111111,1,0,0,2.0816,Gabbro_11,4,11,2,1,2.082,0.394444444,-0.242592593,1,0,0,5.7031,Gabbro_rect,4,5.703,1,5,0,5,0,1,,,,,,,,,,,,,
663ab8a4d5bff4596f9a9de7,SCN,2024-06-11_12h11.16.589,LearnStrategy,2023.2.3,Win32,10.91703057,1,1,7,0.227777778,0.089814815,1,0,0,1.7141,Andesite_03,1,03,4,6,1.714,-0.42962963,-0.247222222,1,0,0,2.3161,Andesite_rect,1,2.316,1,6,0,6,0,1,,,,,,,,,,,,,
663ab8a4d5bff4596f9a9de7,SCN,2024-06-11_12h11.16.589,LearnStrategy,2023.2.3,Win32,10.91703057,1,1,8,0.559259259,0.425925926,1,0,0,2.1871,Pegmatite_12,6,12,6,8,2.187,0.109259259,-0.246296296,1,0,0,7.6358,Diorite_rect,3,7.636,0,7,0,7,0,1,,,,,,,,,,,,,
663ab8a4d5bff4596f9a9de7,SCN,2024-06-11_12h11.16.589,LearnStrategy,2023.2.3,Win32,10.91703057,1,1,9,-0.380555556,-0.391666667,1,0,0,2.9406,Diorite_11,3,11,1,2,2.941,0.133333333,-0.240740741,1,0,0,2.2931,Diorite_rect,3,2.293,1,8,0,8,0,1,,,,,,,,,,,,,
663ab8a4d5bff4596f9a9de7,SCN,2024-06-11_12h11.16.589,LearnStrategy,2023.2.3,Win32,10.91703057,1,1,10,0.07962963,-0.10462963,1,0,0,1.7161,Basalt_16,2,16,3,5,1.716,-0.134259259,-0.234259259,1,0,0,9.6593,Basalt_rect,2,9.659,1,9,0,9,0,1,,,,,,,,,,,,,
663ab8a4d5bff4596f9a9de7,SCN,2024-06-11_12h11.16.589,LearnStrategy,2023.2.3,Win32,10.91703057,1,1,11,-0.525925926,0.075,1,0,0,2.2213,Gabbro_15,4,15,4,1,2.221,-0.400925926,-0.24537037,1,0,0,2.8426,Andesite_rect,1,2.843,0,10,0,10,0,1,,,,,,,,,,,,,
663ab8a4d5bff4596f9a9de7,SCN,2024-06-11_12h11.16.589,LearnStrategy,2023.2.3,Win32,10.91703057,1,1,12,-0.530555556,0.375,1,0,0,4.3371,Basalt_01,2,01,6,1,4.337,-0.400925926,-0.252777778,1,0,0,3.6412,Andesite_rect,1,3.641,0,11,0,11,0,1,,,,,,,,,,,,,
663ab8a4d5bff4596f9a9de7,SCN,2024-06-11_12h11.16.589,LearnStrategy,2023.2.3,Win32,10.91703057,1,1,13,0.568518519,-0.27962963,1,0,0,3.1686,Andesite_07,1,07,2,8,3.169,-0.1,-0.403703704,1,0,0,3.4875,Pegmatite_rect,6,3.488,0,12,0,12,0,1,,,,,,,,,,,,,
663ab8a4d5bff4596f9a9de7,SCN,2024-06-11_12h11.16.589,LearnStrategy,2023.2.3,Win32,10.91703057,1,1,14,-0.069444444,-0.435185185,1,0,0,3.2916,Andesite_01,1,01,1,4,3.292,0.132407407,-0.409259259,1,0,0,7.2381,Peridotite_rect,7,7.238,0,13,0,13,0,1,,,,,,,,,,,,,
663ab8a4d5bff4596f9a9de7,SCN,2024-06-11_12h11.16.589,LearnStrategy,2023.2.3,Win32,10.91703057,1,1,15,-0.396296296,0.416666667,1,0,0,1.4956,Pegmatite_13,6,13,6,2,1.496,-0.093518519,-0.403703704,1,0,0,2.2157,Pegmatite_rect,6,2.216,1,14,0,14,0,1,,,,,,,,,,,,,
663ab8a4d5bff4596f9a9de7,SCN,2024-06-11_12h11.16.589,LearnStrategy,2023.2.3,Win32,10.91703057,1,1,16,-0.256481481,0.401851852,1,0,0,2.8954,Andesite_09,1,09,6,3,2.895,-0.377777778,-0.250925926,1,0,0,6.177,Andesite_rect,1,6.177,1,15,0,15,0,1,,,,,,,,,,,,,
663ab8a4d5bff4596f9a9de7,SCN,2024-06-11_12h11.16.589,LearnStrategy,2023.2.3,Win32,10.91703057,1,2,1,,,,,,,,8,10,,,,,,,,,,,8,2.644,1,,,,,,0.436111111,-0.399074074,1,0,0,2.6435,Pumice_rect,0,0,0,0,1,
663ab8a4d5bff4596f9a9de7,SCN,2024-06-11_12h11.16.589,LearnStrategy,2023.2.3,Win32,10.91703057,1,2,2,,,,,,,,7,13,,,,,,,,,,,7,2.845,1,,,,,,0.127777778,-0.400925926,1,0,0,2.8448,Peridotite_rect,1,0,1,0,1,
663ab8a4d5bff4596f9a9de7,SCN,2024-06-11_12h11.16.589,LearnStrategy,2023.2.3,Win32,10.91703057,1,2,3,,,,,,,,1,11,,,,,,,,,,,3,5.021,0,,,,,,0.115740741,-0.260185185,1,0,0,5.0208,Diorite_rect,2,0,2,0,1,
663ab8a4d5bff4596f9a9de7,SCN,2024-06-11_12h11.16.589,LearnStrategy,2023.2.3,Win32,10.91703057,1,2,4,,,,,,,,6,05,,,,,,,,,,,4,3.519,0,,,,,,0.396296296,-0.259259259,1,0,0,3.5192,Gabbro_rect,3,0,3,0,1,
663ab8a4d5bff4596f9a9de7,SCN,2024-06-11_12h11.16.589,LearnStrategy,2023.2.3,Win32,10.91703057,1,2,5,,,,,,,,7,07,,,,,,,,,,,6,2.603,0,,,,,,-0.09537037,-0.413888889,1,0,0,2.6033,Pegmatite_rect,4,0,4,0,1,
663ab8a4d5bff4596f9a9de7,SCN,2024-06-11_12h11.16.589,LearnStrategy,2023.2.3,Win32,10.91703057,1,2,6,,,,,,,,3,13,,,,,,,,,,,6,1.046,0,,,,,,-0.094444444,-0.412037037,1,0,0,1.0456,Pegmatite_rect,5,0,5,0,1,
663ab8a4d5bff4596f9a9de7,SCN,2024-06-11_12h11.16.589,LearnStrategy,2023.2.3,Win32,10.91703057,1,2,7,,,,,,,,4,03,,,,,,,,,,,3,3.168,0,,,,,,0.141666667,-0.25,1,0,0,3.1676,Diorite_rect,6,0,6,0,1,
663ab8a4d5bff4596f9a9de7,SCN,2024-06-11_12h11.16.589,LearnStrategy,2023.2.3,Win32,10.91703057,1,2,8,,,,,,,,8,06,,,,,,,,,,,4,5.442,0,,,,,,0.347222222,-0.24537037,1,0,0,5.4415,Gabbro_rect,7,0,7,0,1,
663ab8a4d5bff4596f9a9de7,SCN,2024-06-11_12h11.16.589,LearnStrategy,2023.2.3,Win32,10.91703057,1,2,9,,,,,,,,5,10,,,,,,,,,,,5,3.231,1,,,,,,-0.399074074,-0.387962963,1,0,0,3.2307,Obsidian_rect,8,0,8,0,1,
663ab8a4d5bff4596f9a9de7,SCN,2024-06-11_12h11.16.589,LearnStrategy,2023.2.3,Win32,10.91703057,1,2,10,,,,,,,,4,05,,,,,,,,,,,6,3.668,0,,,,,,-0.108333333,-0.40462963,1,0,0,3.6685,Pegmatite_rect,9,0,9,0,1,
663ab8a4d5bff4596f9a9de7,SCN,2024-06-11_12h11.16.589,LearnStrategy,2023.2.3,Win32,10.91703057,1,2,11,,,,,,,,3,07,,,,,,,,,,,3,1.851,1,,,,,,0.100925926,-0.252777778,1,0,0,1.8506,Diorite_rect,10,0,10,0,1,
663ab8a4d5bff4596f9a9de7,SCN,2024-06-11_12h11.16.589,LearnStrategy,2023.2.3,Win32,10.91703057,1,2,12,,,,,,,,2,10,,,,,,,,,,,4,2.228,0,,,,,,0.394444444,-0.263888889,1,0,0,2.228,Gabbro_rect,11,0,11,0,1,
663ab8a4d5bff4596f9a9de7,SCN,2024-06-11_12h11.16.589,LearnStrategy,2023.2.3,Win32,10.91703057,1,2,13,,,,,,,,2,09,,,,,,,,,,,1,4.551,0,,,,,,-0.35,-0.259259259,1,0,0,4.5515,Andesite_rect,12,0,12,0,1,
663ab8a4d5bff4596f9a9de7,SCN,2024-06-11_12h11.16.589,LearnStrategy,2023.2.3,Win32,10.91703057,1,2,14,,,,,,,,5,04,,,,,,,,,,,5,1.179,1,,,,,,-0.387962963,-0.390740741,1,0,0,1.1787,Obsidian_rect,13,0,13,0,1,
663ab8a4d5bff4596f9a9de7,SCN,2024-06-11_12h11.16.589,LearnStrategy,2023.2.3,Win32,10.91703057,1,2,15,,,,,,,,1,06,,,,,,,,,,,2,2.949,0,,,,,,-0.164814815,-0.25,1,0,0,2.9486,Basalt_rect,14,0,14,0,1,
663ab8a4d5bff4596f9a9de7,SCN,2024-06-11_12h11.16.589,LearnStrategy,2023.2.3,Win32,10.91703057,1,2,16,,,,,,,,6,08,,,,,,,,,,,2,3.071,0,,,,,,-0.163888889,-0.25,1,0,0,3.0709,Basalt_rect,15,0,15,0,1,
663ab8a4d5bff4596f9a9de7,SCN,2024-06-11_12h11.16.589,LearnStrategy,2023.2.3,Win32,10.91703057,2,1,1,0.247222222,0.255555556,1,0,0,4.0112,Pegmatite_11,6,11,5,6,4.011,-0.089814815,-0.39537037,1,0,0,3.8894,Pegmatite_rect,6,3.889,1,0,0,0,0,1,,,,,,,,,,,,,
663ab8a4d5bff4596f9a9de7,SCN,2024-06-11_12h11.16.589,LearnStrategy,2023.2.3,Win32,10.91703057,2,1,2,-0.051851852,-0.280555556,1,0,0,1.3394,Andesite_05,1,05,2,4,1.339,0.075,-0.244444444,1,0,0,2.4427,Diorite_rect,3,2.443,0,1,0,1,0,1,,,,,,,,,,,,,
663ab8a4d5bff4596f9a9de7,SCN,2024-06-11_12h11.16.589,LearnStrategy,2023.2.3,Win32,10.91703057,2,1,3,0.566666667,-0.112037037,1,0,0,2.5318,Pegmatite_15,6,15,3,8,2.532,-0.109259259,-0.382407407,1,0,0,2.6596,Pegmatite_rect,6,2.66,1,2,0,2,0,1,,,,,,,,,,,,,
663ab8a4d5bff4596f9a9de7,SCN,2024-06-11_12h11.16.589,LearnStrategy,2023.2.3,Win32,10.91703057,2,1,4,-0.242592593,-0.244444444,1,0,0,1.34,Pegmatite_06,6,06,2,3,1.34,-0.22037037,-0.242592593,1,0,0,1.6961,Basalt_rect,2,1.696,0,3,0,3,0,1,,,,,,,,,,,,,
663ab8a4d5bff4596f9a9de7,SCN,2024-06-11_12h11.16.589,LearnStrategy,2023.2.3,Win32,10.91703057,2,1,5,-0.544444444,-0.410185185,1,0,0,3.0746,Pumice_15,8,15,1,1,3.075,0.417592593,-0.389814815,1,0,0,1.2801,Pumice_rect,8,1.28,1,4,0,4,0,1,,,,,,,,,,,,,
663ab8a4d5bff4596f9a9de7,SCN,2024-06-11_12h11.16.589,LearnStrategy,2023.2.3,Win32,10.91703057,2,1,6,-0.233333333,0.252777778,1,0,0,3.3552,Pumice_04,8,04,5,3,3.355,0.375,-0.390740741,1,0,0,1.5284,Pumice_rect,8,1.528,1,5,0,5,0,1,,,,,,,,,,,,,
663ab8a4d5bff4596f9a9de7,SCN,2024-06-11_12h11.16.589,LearnStrategy,2023.2.3,Win32,10.91703057,2,1,7,0.255555556,-0.252777778,1,0,0,1.6881,Obsidian_14,5,14,2,6,1.688,-0.394444444,-0.411111111,1,0,0,1.2727,Obsidian_rect,5,1.273,1,6,0,6,0,1,,,,,,,,,,,,,
663ab8a4d5bff4596f9a9de7,SCN,2024-06-11_12h11.16.589,LearnStrategy,2023.2.3,Win32,10.91703057,2,1,8,0.243518519,-0.424074074,1,0,0,3.8771,Gabbro_09,4,09,1,6,3.877,-0.121296296,-0.247222222,1,0,0,1.3769,Basalt_rect,2,1.377,0,7,0,7,0,1,,,,,,,,,,,,,
663ab8a4d5bff4596f9a9de7,SCN,2024-06-11_12h11.16.589,LearnStrategy,2023.2.3,Win32,10.91703057,2,1,9,-0.086111111,-0.435185185,1,0,0,2.0862,Andesite_01,1,01,1,4,2.086,0.369444444,-0.241666667,1,0,0,1.1529,Gabbro_rect,4,1.153,0,8,0,8,0,1,,,,,,,,,,,,,
663ab8a4d5bff4596f9a9de7,SCN,2024-06-11_12h11.16.589,LearnStrategy,2023.2.3,Win32,10.91703057,2,1,10,-0.073148148,-0.111111111,1,0,0,1.9432,Pumice_02,8,02,3,4,1.943,0.394444444,-0.400925926,1,0,0,1.969,Pumice_rect,8,1.969,1,9,0,9,0,1,,,,,,,,,,,,,
663ab8a4d5bff4596f9a9de7,SCN,2024-06-11_12h11.16.589,LearnStrategy,2023.2.3,Win32,10.91703057,2,1,11,-0.422222222,0.106481481,1,0,0,2.5591,Peridotite_02,7,02,4,2,2.559,0.134259259,-0.398148148,1,0,0,2.4322,Peridotite_rect,7,2.432,1,10,0,10,0,1,,,,,,,,,,,,,
663ab8a4d5bff4596f9a9de7,SCN,2024-06-11_12h11.16.589,LearnStrategy,2023.2.3,Win32,10.91703057,2,1,12,0.556481481,0.236111111,1,0,0,4.5532,Basalt_06,2,06,5,8,4.553,-0.131481481,-0.255555556,1,0,0,1.5119,Basalt_rect,2,1.512,1,11,0,11,0,1,,,,,,,,,,,,,
663ab8a4d5bff4596f9a9de7,SCN,2024-06-11_12h11.16.589,LearnStrategy,2023.2.3,Win32,10.91703057,2,1,13,-0.559259259,0.231481481,1,0,0,2.5348,Pegmatite_09,6,09,5,1,2.535,-0.142592593,-0.412037037,1,0,0,2.537,Pegmatite_rect,6,2.537,1,12,0,12,0,1,,,,,,,,,,,,,
663ab8a4d5bff4596f9a9de7,SCN,2024-06-11_12h11.16.589,LearnStrategy,2023.2.3,Win32,10.91703057,2,1,14,-0.52962963,-0.091666667,1,0,0,1.4631,Andesite_02,1,02,3,1,1.463,-0.116666667,-0.251851852,1,0,0,3.0701,Basalt_rect,2,3.07,0,13,0,13,0,1,,,,,,,,,,,,,
663ab8a4d5bff4596f9a9de7,SCN,2024-06-11_12h11.16.589,LearnStrategy,2023.2.3,Win32,10.91703057,2,1,15,0.094444444,-0.117592593,1,0,0,2.0559,Basalt_16,2,16,3,5,2.056,0.400925926,-0.257407407,1,0,0,2.6036,Gabbro_rect,4,2.604,0,14,0,14,0,1,,,,,,,,,,,,,
663ab8a4d5bff4596f9a9de7,SCN,2024-06-11_12h11.16.589,LearnStrategy,2023.2.3,Win32,10.91703057,2,1,16,0.218518519,0.100925926,1,0,0,5.09,Andesite_03,1,03,4,6,5.09,-0.438888889,-0.259259259,1,0,0,3.1125,Andesite_rect,1,3.113,1,15,0,15,0,1,,,,,,,,,,,,,
663ab8a4d5bff4596f9a9de7,SCN,2024-06-11_12h11.16.589,LearnStrategy,2023.2.3,Win32,10.91703057,2,2,1,,,,,,,,5,12,,,,,,,,,,,5,1.53,1,,,,,,-0.380555556,-0.40462963,1,0,0,1.5299,Obsidian_rect,0,0,0,0,1,
663ab8a4d5bff4596f9a9de7,SCN,2024-06-11_12h11.16.589,LearnStrategy,2023.2.3,Win32,10.91703057,2,2,2,,,,,,,,1,04,,,,,,,,,,,1,9.941,1,,,,,,-0.44537037,-0.25,1,0,0,9.941,Andesite_rect,1,0,1,0,1,
663ab8a4d5bff4596f9a9de7,SCN,2024-06-11_12h11.16.589,LearnStrategy,2023.2.3,Win32,10.91703057,2,2,3,,,,,,,,8,08,,,,,,,,,,,8,2.074,1,,,,,,0.419444444,-0.391666667,1,0,0,2.0737,Pumice_rect,2,0,2,0,1,
663ab8a4d5bff4596f9a9de7,SCN,2024-06-11_12h11.16.589,LearnStrategy,2023.2.3,Win32,10.91703057,2,2,4,,,,,,,,1,14,,,,,,,,,,,6,4.271,0,,,,,,-0.119444444,-0.398148148,1,0,0,4.2708,Pegmatite_rect,3,0,3,0,1,
663ab8a4d5bff4596f9a9de7,SCN,2024-06-11_12h11.16.589,LearnStrategy,2023.2.3,Win32,10.91703057,2,2,5,,,,,,,,3,12,,,,,,,,,,,3,3.487,1,,,,,,0.123148148,-0.265740741,1,0,0,3.4871,Diorite_rect,4,0,4,0,1,
663ab8a4d5bff4596f9a9de7,SCN,2024-06-11_12h11.16.589,LearnStrategy,2023.2.3,Win32,10.91703057,2,2,6,,,,,,,,4,16,,,,,,,,,,,2,3.522,0,,,,,,-0.116666667,-0.253703704,1,0,0,3.5222,Basalt_rect,5,0,5,0,1,
663ab8a4d5bff4596f9a9de7,SCN,2024-06-11_12h11.16.589,LearnStrategy,2023.2.3,Win32,10.91703057,2,2,7,,,,,,,,6,16,,,,,,,,,,,6,3.312,1,,,,,,-0.127777778,-0.400925926,1,0,0,3.3116,Pegmatite_rect,6,0,6,0,1,
663ab8a4d5bff4596f9a9de7,SCN,2024-06-11_12h11.16.589,LearnStrategy,2023.2.3,Win32,10.91703057,2,2,8,,,,,,,,3,02,,,,,,,,,,,3,2.717,1,,,,,,0.146296296,-0.237962963,1,0,0,2.7175,Diorite_rect,7,0,7,0,1,
663ab8a4d5bff4596f9a9de7,SCN,2024-06-11_12h11.16.589,LearnStrategy,2023.2.3,Win32,10.91703057,2,2,9,,,,,,,,6,07,,,,,,,,,,,6,2.078,1,,,,,,-0.131481481,-0.390740741,1,0,0,2.0776,Pegmatite_rect,8,0,8,0,1,
663ab8a4d5bff4596f9a9de7,SCN,2024-06-11_12h11.16.589,LearnStrategy,2023.2.3,Win32,10.91703057,2,2,10,,,,,,,,2,14,,,,,,,,,,,8,4.133,0,,,,,,0.387962963,-0.388888889,1,0,0,4.1326,Pumice_rect,9,0,9,0,1,
663ab8a4d5bff4596f9a9de7,SCN,2024-06-11_12h11.16.589,LearnStrategy,2023.2.3,Win32,10.91703057,2,2,11,,,,,,,,5,08,,,,,,,,,,,5,1.565,1,,,,,,-0.364814815,-0.411111111,1,0,0,1.5649,Obsidian_rect,10,0,10,0,1,
663ab8a4d5bff4596f9a9de7,SCN,2024-06-11_12h11.16.589,LearnStrategy,2023.2.3,Win32,10.91703057,2,2,12,,,,,,,,7,16,,,,,,,,,,,4,4.47,0,,,,,,0.410185185,-0.257407407,1,0,0,4.4701,Gabbro_rect,11,0,11,0,1,
663ab8a4d5bff4596f9a9de7,SCN,2024-06-11_12h11.16.589,LearnStrategy,2023.2.3,Win32,10.91703057,2,2,13,,,,,,,,8,05,,,,,,,,,,,8,5.411,1,,,,,,0.39537037,-0.4,1,0,0,5.4108,Pumice_rect,12,0,12,0,1,
663ab8a4d5bff4596f9a9de7,SCN,2024-06-11_12h11.16.589,LearnStrategy,2023.2.3,Win32,10.91703057,2,2,14,,,,,,,,4,13,,,,,,,,,,,2,4.134,0,,,,,,-0.156481481,-0.251851852,1,0,0,4.1335,Basalt_rect,13,0,13,0,1,
663ab8a4d5bff4596f9a9de7,SCN,2024-06-11_12h11.16.589,LearnStrategy,2023.2.3,Win32,10.91703057,2,2,15,,,,,,,,2,04,,,,,,,,,,,1,5.74,0,,,,,,-0.362037037,-0.253703704,1,0,0,5.7398,Andesite_rect,14,0,14,0,1,
663ab8a4d5bff4596f9a9de7,SCN,2024-06-11_12h11.16.589,LearnStrategy,2023.2.3,Win32,10.91703057,2,2,16,,,,,,,,7,15,,,,,,,,,,,7,6.114,1,,,,,,0.137962963,-0.39537037,1,0,0,6.1142,Peridotite_rect,15,0,15,0,1,
663ab8a4d5bff4596f9a9de7,SCN,2024-06-11_12h11.16.589,LearnStrategy,2023.2.3,Win32,10.91703057,3,1,1,0.067592593,0.25462963,1,0,0,5.5084,Basalt_08,2,08,5,5,5.508,-0.163888889,-0.253703704,1,0,0,3.6266,Basalt_rect,2,3.627,1,0,0,0,0,1,,,,,,,,,,,,,
663ab8a4d5bff4596f9a9de7,SCN,2024-06-11_12h11.16.589,LearnStrategy,2023.2.3,Win32,10.91703057,3,1,2,-0.226851852,-0.240740741,1,0,0,2.1798,Pegmatite_06,6,06,2,3,2.18,0.133333333,-0.408333333,1,0,0,3.5315,Peridotite_rect,7,3.531,0,1,0,1,0,1,,,,,,,,,,,,,
663ab8a4d5bff4596f9a9de7,SCN,2024-06-11_12h11.16.589,LearnStrategy,2023.2.3,Win32,10.91703057,3,1,3,-0.382407407,-0.412037037,1,0,0,2.7781,Diorite_11,3,11,1,2,2.778,0.081481481,-0.246296296,1,0,0,2.0316,Diorite_rect,3,2.032,1,2,0,2,0,1,,,,,,,,,,,,,
663ab8a4d5bff4596f9a9de7,SCN,2024-06-11_12h11.16.589,LearnStrategy,2023.2.3,Win32,10.91703057,3,1,4,0.400925926,-0.432407407,1,0,0,4.3642,Diorite_06,3,06,1,7,4.364,0.111111111,-0.239814815,1,0,0,1.4196,Diorite_rect,3,1.42,1,3,0,3,0,1,,,,,,,,,,,,,
663ab8a4d5bff4596f9a9de7,SCN,2024-06-11_12h11.16.589,LearnStrategy,2023.2.3,Win32,10.91703057,3,1,5,0.236111111,-0.421296296,1,0,0,1.1006,Gabbro_09,4,09,1,6,1.101,-0.118518519,-0.251851852,1,0,0,1.254,Basalt_rect,2,1.254,0,4,0,4,0,1,,,,,,,,,,,,,
663ab8a4d5bff4596f9a9de7,SCN,2024-06-11_12h11.16.589,LearnStrategy,2023.2.3,Win32,10.91703057,3,1,6,0.415740741,0.412037037,1,0,0,3.2845,Diorite_16,3,16,6,7,3.284,0.1,-0.236111111,1,0,0,1.0237,Diorite_rect,3,1.024,1,5,0,5,0,1,,,,,,,,,,,,,
663ab8a4d5bff4596f9a9de7,SCN,2024-06-11_12h11.16.589,LearnStrategy,2023.2.3,Win32,10.91703057,3,1,7,0.203703704,0.396296296,1,0,0,1.0045,Peridotite_04,7,04,6,6,1.005,0.114814815,-0.406481481,1,0,0,1.5303,Peridotite_rect,7,1.53,1,6,0,6,0,1,,,,,,,,,,,,,
663ab8a4d5bff4596f9a9de7,SCN,2024-06-11_12h11.16.589,LearnStrategy,2023.2.3,Win32,10.91703057,3,1,8,0.062962963,0.396296296,1,0,0,1.2159,Diorite_09,3,09,6,5,1.216,0.108333333,-0.259259259,1,0,0,2.2053,Diorite_rect,3,2.205,1,7,0,7,0,1,,,,,,,,,,,,,
663ab8a4d5bff4596f9a9de7,SCN,2024-06-11_12h11.16.589,LearnStrategy,2023.2.3,Win32,10.91703057,3,1,9,-0.07962963,0.37962963,1,0,0,1.0995,Diorite_10,3,10,6,4,1.1,-0.111111111,-0.410185185,1,0,0,4.4384,Pegmatite_rect,6,4.438,0,8,0,8,0,1,,,,,,,,,,,,,
663ab8a4d5bff4596f9a9de7,SCN,2024-06-11_12h11.16.589,LearnStrategy,2023.2.3,Win32,10.91703057,3,1,10,-0.212037037,0.402777778,1,0,0,1.8412,Andesite_09,1,09,6,3,1.841,-0.380555556,-0.237962963,1,0,0,2.6969,Andesite_rect,1,2.697,1,9,0,9,0,1,,,,,,,,,,,,,
663ab8a4d5bff4596f9a9de7,SCN,2024-06-11_12h11.16.589,LearnStrategy,2023.2.3,Win32,10.91703057,3,1,11,-0.393518519,0.4,1,0,0,1.1052,Pegmatite_13,6,13,6,2,1.105,0.109259259,-0.410185185,1,0,0,2.8587,Peridotite_rect,7,2.859,0,10,0,10,0,1,,,,,,,,,,,,,
663ab8a4d5bff4596f9a9de7,SCN,2024-06-11_12h11.16.589,LearnStrategy,2023.2.3,Win32,10.91703057,3,1,12,-0.547222222,0.378703704,1,0,0,2.551,Basalt_01,2,01,6,1,2.551,-0.443518519,-0.242592593,1,0,0,1.4141,Andesite_rect,1,1.414,0,11,0,11,0,1,,,,,,,,,,,,,
663ab8a4d5bff4596f9a9de7,SCN,2024-06-11_12h11.16.589,LearnStrategy,2023.2.3,Win32,10.91703057,3,1,13,-0.527777778,0.071296296,1,0,0,1.8906,Gabbro_15,4,15,4,1,1.891,0.410185185,-0.259259259,1,0,0,5.3038,Gabbro_rect,4,5.304,1,12,0,12,0,1,,,,,,,,,,,,,
663ab8a4d5bff4596f9a9de7,SCN,2024-06-11_12h11.16.589,LearnStrategy,2023.2.3,Win32,10.91703057,3,1,14,-0.398148148,0.108333333,1,0,0,6.2088,Peridotite_02,7,02,4,2,6.209,0.137962963,-0.399074074,1,0,0,2.5927,Peridotite_rect,7,2.593,1,13,0,13,0,1,,,,,,,,,,,,,
663ab8a4d5bff4596f9a9de7,SCN,2024-06-11_12h11.16.589,LearnStrategy,2023.2.3,Win32,10.91703057,3,1,15,0.378703704,-0.299074074,1,0,0,2.9019,Peridotite_08,7,08,2,7,2.902,0.147222222,-0.401851852,1,0,0,1.81,Peridotite_rect,7,1.81,1,14,0,14,0,1,,,,,,,,,,,,,
663ab8a4d5bff4596f9a9de7,SCN,2024-06-11_12h11.16.589,LearnStrategy,2023.2.3,Win32,10.91703057,3,1,16,-0.222222222,-0.42037037,1,0,0,4.6515,Gabbro_10,4,10,1,3,4.652,-0.137037037,-0.25,1,0,0,2.0703,Basalt_rect,2,2.07,0,15,0,15,0,1,,,,,,,,,,,,,
663ab8a4d5bff4596f9a9de7,SCN,2024-06-11_12h11.16.589,LearnStrategy,2023.2.3,Win32,10.91703057,3,2,1,,,,,,,,1,16,,,,,,,,,,,3,3.423,0,,,,,,0.116666667,-0.251851852,1,0,0,3.4233,Diorite_rect,0,0,0,0,1,
663ab8a4d5bff4596f9a9de7,SCN,2024-06-11_12h11.16.589,LearnStrategy,2023.2.3,Win32,10.91703057,3,2,2,,,,,,,,7,12,,,,,,,,,,,6,7.208,0,,,,,,-0.151851852,-0.4,1,0,0,7.2076,Pegmatite_rect,1,0,1,0,1,
663ab8a4d5bff4596f9a9de7,SCN,2024-06-11_12h11.16.589,LearnStrategy,2023.2.3,Win32,10.91703057,3,2,3,,,,,,,,8,13,,,,,,,,,,,8,2.145,1,,,,,,0.392592593,-0.405555556,1,0,0,2.1451,Pumice_rect,2,0,2,0,1,
663ab8a4d5bff4596f9a9de7,SCN,2024-06-11_12h11.16.589,LearnStrategy,2023.2.3,Win32,10.91703057,3,2,4,,,,,,,,8,09,,,,,,,,,,,8,1.413,1,,,,,,0.397222222,-0.397222222,1,0,0,1.4127,Pumice_rect,3,0,3,0,1,
663ab8a4d5bff4596f9a9de7,SCN,2024-06-11_12h11.16.589,LearnStrategy,2023.2.3,Win32,10.91703057,3,2,5,,,,,,,,5,07,,,,,,,,,,,5,10.473,1,,,,,,-0.40462963,-0.4,1,0,0,10.4732,Obsidian_rect,4,0,4,0,1,
663ab8a4d5bff4596f9a9de7,SCN,2024-06-11_12h11.16.589,LearnStrategy,2023.2.3,Win32,10.91703057,3,2,6,,,,,,,,4,08,,,,,,,,,,,6,9.385,0,,,,,,-0.137962963,-0.400925926,1,0,0,9.3846,Pegmatite_rect,5,0,5,0,1,
663ab8a4d5bff4596f9a9de7,SCN,2024-06-11_12h11.16.589,LearnStrategy,2023.2.3,Win32,10.91703057,3,2,7,,,,,,,,1,10,,,,,,,,,,,6,2.878,0,,,,,,-0.135185185,-0.39537037,1,0,0,2.878,Pegmatite_rect,6,0,6,0,1,
663ab8a4d5bff4596f9a9de7,SCN,2024-06-11_12h11.16.589,LearnStrategy,2023.2.3,Win32,10.91703057,3,2,8,,,,,,,,2,02,,,,,,,,,,,2,3.942,1,,,,,,-0.142592593,-0.242592593,1,0,0,3.9424,Basalt_rect,7,0,7,0,1,
663ab8a4d5bff4596f9a9de7,SCN,2024-06-11_12h11.16.589,LearnStrategy,2023.2.3,Win32,10.91703057,3,2,9,,,,,,,,6,03,,,,,,,,,,,7,1.991,0,,,,,,0.132407407,-0.392592593,1,0,0,1.9911,Peridotite_rect,8,0,8,0,1,
663ab8a4d5bff4596f9a9de7,SCN,2024-06-11_12h11.16.589,LearnStrategy,2023.2.3,Win32,10.91703057,3,2,10,,,,,,,,7,05,,,,,,,,,,,6,4.636,0,,,,,,-0.137037037,-0.394444444,1,0,0,4.6365,Pegmatite_rect,9,0,9,0,1,
663ab8a4d5bff4596f9a9de7,SCN,2024-06-11_12h11.16.589,LearnStrategy,2023.2.3,Win32,10.91703057,3,2,11,,,,,,,,3,08,,,,,,,,,,,3,2.375,1,,,,,,0.134259259,-0.246296296,1,0,0,2.3753,Diorite_rect,10,0,10,0,1,
663ab8a4d5bff4596f9a9de7,SCN,2024-06-11_12h11.16.589,LearnStrategy,2023.2.3,Win32,10.91703057,3,2,12,,,,,,,,6,10,,,,,,,,,,,7,3.763,0,,,,,,0.12962963,-0.390740741,1,0,0,3.7633,Peridotite_rect,11,0,11,0,1,
663ab8a4d5bff4596f9a9de7,SCN,2024-06-11_12h11.16.589,LearnStrategy,2023.2.3,Win32,10.91703057,3,2,13,,,,,,,,5,16,,,,,,,,,,,5,1.637,1,,,,,,-0.407407407,-0.396296296,1,0,0,1.6366,Obsidian_rect,12,0,12,0,1,
663ab8a4d5bff4596f9a9de7,SCN,2024-06-11_12h11.16.589,LearnStrategy,2023.2.3,Win32,10.91703057,3,2,14,,,,,,,,4,14,,,,,,,,,,,4,6.561,1,,,,,,0.394444444,-0.25,1,0,0,6.5605,Gabbro_rect,13,0,13,0,1,
663ab8a4d5bff4596f9a9de7,SCN,2024-06-11_12h11.16.589,LearnStrategy,2023.2.3,Win32,10.91703057,3,2,15,,,,,,,,3,14,,,,,,,,,,,3,1.957,1,,,,,,0.128703704,-0.246296296,1,0,0,1.9573,Diorite_rect,14,0,14,0,1,
663ab8a4d5bff4596f9a9de7,SCN,2024-06-11_12h11.16.589,LearnStrategy,2023.2.3,Win32,10.91703057,3,2,16,,,,,,,,2,05,,,,,,,,,,,2,3.547,1,,,,,,-0.130555556,-0.248148148,1,0,0,3.5467,Basalt_rect,15,0,15,0,1,
663ab8a4d5bff4596f9a9de7,SCN,2024-06-11_12h11.16.589,LearnStrategy,2023.2.3,Win32,10.91703057,4,1,1,-0.534259259,-0.266666667,1,0,0,5.4015,Gabbro_11,4,11,2,1,5.402,0.398148148,-0.252777778,1,0,0,2.71,Gabbro_rect,4,2.71,1,0,0,0,0,1,,,,,,,,,,,,,
663ab8a4d5bff4596f9a9de7,SCN,2024-06-11_12h11.16.589,LearnStrategy,2023.2.3,Win32,10.91703057,4,1,2,-0.37962963,-0.106481481,1,0,0,3.3,Basalt_12,2,12,3,2,3.3,-0.139814815,-0.243518519,1,0,0,5.8615,Basalt_rect,2,5.861,1,1,0,1,0,1,,,,,,,,,,,,,
663ab8a4d5bff4596f9a9de7,SCN,2024-06-11_12h11.16.589,LearnStrategy,2023.2.3,Win32,10.91703057,4,1,3,-0.250925926,-0.114814815,1,0,0,1.3291,Peridotite_10,7,10,3,3,1.329,0.128703704,-0.403703704,1,0,0,1.7165,Peridotite_rect,7,1.716,1,2,0,2,0,1,,,,,,,,,,,,,
663ab8a4d5bff4596f9a9de7,SCN,2024-06-11_12h11.16.589,LearnStrategy,2023.2.3,Win32,10.91703057,4,1,4,0.391666667,-0.10462963,1,0,0,2.0761,Gabbro_12,4,12,3,7,2.076,-0.398148148,-0.252777778,1,0,0,3.9528,Andesite_rect,1,3.953,0,3,0,3,0,1,,,,,,,,,,,,,
663ab8a4d5bff4596f9a9de7,SCN,2024-06-11_12h11.16.589,LearnStrategy,2023.2.3,Win32,10.91703057,4,1,5,0.230555556,0.094444444,1,0,0,1.6969,Andesite_03,1,03,4,6,1.697,-0.437962963,-0.242592593,1,0,0,1.7891,Andesite_rect,1,1.789,1,4,0,4,0,1,,,,,,,,,,,,,
663ab8a4d5bff4596f9a9de7,SCN,2024-06-11_12h11.16.589,LearnStrategy,2023.2.3,Win32,10.91703057,4,1,6,0.082407407,0.238888889,1,0,0,2.4813,Basalt_08,2,08,5,5,2.481,-0.138888889,-0.250925926,1,0,0,1.9399,Basalt_rect,2,1.94,1,5,0,5,0,1,,,,,,,,,,,,,
663ab8a4d5bff4596f9a9de7,SCN,2024-06-11_12h11.16.589,LearnStrategy,2023.2.3,Win32,10.91703057,4,1,7,0.406481481,0.410185185,1,0,0,1.588,Diorite_16,3,16,6,7,1.588,0.127777778,-0.239814815,1,0,0,1.5721,Diorite_rect,3,1.572,1,6,0,6,0,1,,,,,,,,,,,,,
663ab8a4d5bff4596f9a9de7,SCN,2024-06-11_12h11.16.589,LearnStrategy,2023.2.3,Win32,10.91703057,4,1,8,-0.256481481,-0.100925926,1,0,0,2.9322,Peridotite_10,7,10,3,3,2.932,0.132407407,-0.398148148,1,0,0,1.5671,Peridotite_rect,7,1.567,1,7,0,7,0,1,,,,,,,,,,,,,
663ab8a4d5bff4596f9a9de7,SCN,2024-06-11_12h11.16.589,LearnStrategy,2023.2.3,Win32,10.91703057,4,1,9,-0.55462963,0.1,1,0,0,2.682,Gabbro_15,4,15,4,1,2.682,0.400925926,-0.25,1,0,0,2.9144,Gabbro_rect,4,2.914,1,8,0,8,0,1,,,,,,,,,,,,,
663ab8a4d5bff4596f9a9de7,SCN,2024-06-11_12h11.16.589,LearnStrategy,2023.2.3,Win32,10.91703057,4,1,10,-0.565740741,0.252777778,1,0,0,1.2112,Pegmatite_09,6,09,5,1,1.211,0.127777778,-0.392592593,1,0,0,2.8298,Peridotite_rect,7,2.83,0,9,0,9,0,1,,,,,,,,,,,,,
663ab8a4d5bff4596f9a9de7,SCN,2024-06-11_12h11.16.589,LearnStrategy,2023.2.3,Win32,10.91703057,4,1,11,-0.375,0.406481481,1,0,0,1.5803,Pegmatite_13,6,13,6,2,1.58,0.125925926,-0.4,1,0,0,3.0374,Peridotite_rect,7,3.037,0,10,0,10,0,1,,,,,,,,,,,,,
663ab8a4d5bff4596f9a9de7,SCN,2024-06-11_12h11.16.589,LearnStrategy,2023.2.3,Win32,10.91703057,4,1,12,0.082407407,0.086111111,1,0,0,1.4388,Peridotite_06,7,06,4,5,1.439,-0.137037037,-0.406481481,1,0,0,1.4087,Pegmatite_rect,6,1.409,0,11,0,11,0,1,,,,,,,,,,,,,
663ab8a4d5bff4596f9a9de7,SCN,2024-06-11_12h11.16.589,LearnStrategy,2023.2.3,Win32,10.91703057,4,1,13,0.375,0.243518519,1,0,0,2.907,Obsidian_05,5,05,5,7,2.907,-0.425,-0.402777778,1,0,0,1.5145,Obsidian_rect,5,1.514,1,12,0,12,0,1,,,,,,,,,,,,,
663ab8a4d5bff4596f9a9de7,SCN,2024-06-11_12h11.16.589,LearnStrategy,2023.2.3,Win32,10.91703057,4,1,14,0.22962963,-0.25462963,1,0,0,2.0573,Obsidian_14,5,14,2,6,2.057,-0.39537037,-0.40462963,1,0,0,1.5255,Obsidian_rect,5,1.525,1,13,0,13,0,1,,,,,,,,,,,,,
663ab8a4d5bff4596f9a9de7,SCN,2024-06-11_12h11.16.589,LearnStrategy,2023.2.3,Win32,10.91703057,4,1,15,-0.236111111,-0.266666667,1,0,0,2.0593,Pegmatite_06,6,06,2,3,2.059,-0.141666667,-0.397222222,1,0,0,3.5573,Pegmatite_rect,6,3.557,1,14,0,14,0,1,,,,,,,,,,,,,
663ab8a4d5bff4596f9a9de7,SCN,2024-06-11_12h11.16.589,LearnStrategy,2023.2.3,Win32,10.91703057,4,1,16,-0.386111111,-0.110185185,1,0,0,1.5864,Basalt_12,2,12,3,2,1.586,-0.405555556,-0.244444444,1,0,0,3.4715,Andesite_rect,1,3.471,0,15,0,15,0,1,,,,,,,,,,,,,
663ab8a4d5bff4596f9a9de7,SCN,2024-06-11_12h11.16.589,LearnStrategy,2023.2.3,Win32,10.91703057,4,2,1,,,,,,,,1,10,,,,,,,,,,,1,6.901,1,,,,,,-0.412037037,-0.247222222,1,0,0,6.9009,Andesite_rect,0,0,0,0,1,
663ab8a4d5bff4596f9a9de7,SCN,2024-06-11_12h11.16.589,LearnStrategy,2023.2.3,Win32,10.91703057,4,2,2,,,,,,,,7,15,,,,,,,,,,,7,2.244,1,,,,,,0.132407407,-0.398148148,1,0,0,2.2442,Peridotite_rect,1,0,1,0,1,
663ab8a4d5bff4596f9a9de7,SCN,2024-06-11_12h11.16.589,LearnStrategy,2023.2.3,Win32,10.91703057,4,2,3,,,,,,,,5,04,,,,,,,,,,,5,2.453,1,,,,,,-0.397222222,-0.4,1,0,0,2.4529,Obsidian_rect,2,0,2,0,1,
663ab8a4d5bff4596f9a9de7,SCN,2024-06-11_12h11.16.589,LearnStrategy,2023.2.3,Win32,10.91703057,4,2,4,,,,,,,,8,05,,,,,,,,,,,8,3.091,1,,,,,,0.396296296,-0.400925926,1,0,0,3.0909,Pumice_rect,3,0,3,0,1,
663ab8a4d5bff4596f9a9de7,SCN,2024-06-11_12h11.16.589,LearnStrategy,2023.2.3,Win32,10.91703057,4,2,5,,,,,,,,6,10,,,,,,,,,,,6,8.005,1,,,,,,-0.136111111,-0.399074074,1,0,0,8.0053,Pegmatite_rect,4,0,4,0,1,
663ab8a4d5bff4596f9a9de7,SCN,2024-06-11_12h11.16.589,LearnStrategy,2023.2.3,Win32,10.91703057,4,2,6,,,,,,,,1,14,,,,,,,,,,,3,4.655,0,,,,,,0.138888889,-0.251851852,1,0,0,4.655,Diorite_rect,5,0,5,0,1,
663ab8a4d5bff4596f9a9de7,SCN,2024-06-11_12h11.16.589,LearnStrategy,2023.2.3,Win32,10.91703057,4,2,7,,,,,,,,3,07,,,,,,,,,,,3,1.201,1,,,,,,0.138888889,-0.251851852,1,0,0,1.2013,Diorite_rect,6,0,6,0,1,
663ab8a4d5bff4596f9a9de7,SCN,2024-06-11_12h11.16.589,LearnStrategy,2023.2.3,Win32,10.91703057,4,2,8,,,,,,,,4,05,,,,,,,,,,,4,3.16,1,,,,,,0.403703704,-0.247222222,1,0,0,3.1596,Gabbro_rect,7,0,7,0,1,
663ab8a4d5bff4596f9a9de7,SCN,2024-06-11_12h11.16.589,LearnStrategy,2023.2.3,Win32,10.91703057,4,2,9,,,,,,,,4,03,,,,,,,,,,,3,1.47,0,,,,,,0.12962963,-0.25,1,0,0,1.4702,Diorite_rect,8,0,8,0,1,
663ab8a4d5bff4596f9a9de7,SCN,2024-06-11_12h11.16.589,LearnStrategy,2023.2.3,Win32,10.91703057,4,2,10,,,,,,,,2,09,,,,,,,,,,,2,2.511,1,,,,,,-0.130555556,-0.249074074,1,0,0,2.5112,Basalt_rect,9,0,9,0,1,
663ab8a4d5bff4596f9a9de7,SCN,2024-06-11_12h11.16.589,LearnStrategy,2023.2.3,Win32,10.91703057,4,2,11,,,,,,,,5,08,,,,,,,,,,,5,1.643,1,,,,,,-0.403703704,-0.40462963,1,0,0,1.6431,Obsidian_rect,10,0,10,0,1,
663ab8a4d5bff4596f9a9de7,SCN,2024-06-11_12h11.16.589,LearnStrategy,2023.2.3,Win32,10.91703057,4,2,12,,,,,,,,6,07,,,,,,,,,,,6,4.036,1,,,,,,-0.138888889,-0.39537037,1,0,0,4.0361,Pegmatite_rect,11,0,11,0,1,
663ab8a4d5bff4596f9a9de7,SCN,2024-06-11_12h11.16.589,LearnStrategy,2023.2.3,Win32,10.91703057,4,2,13,,,,,,,,8,13,,,,,,,,,,,8,1.631,1,,,,,,0.371296296,-0.397222222,1,0,0,1.6306,Pumice_rect,12,0,12,0,1,
663ab8a4d5bff4596f9a9de7,SCN,2024-06-11_12h11.16.589,LearnStrategy,2023.2.3,Win32,10.91703057,4,2,14,,,,,,,,3,02,,,,,,,,,,,3,2.504,1,,,,,,0.113888889,-0.230555556,1,0,0,2.5043,Diorite_rect,13,0,13,0,1,
663ab8a4d5bff4596f9a9de7,SCN,2024-06-11_12h11.16.589,LearnStrategy,2023.2.3,Win32,10.91703057,4,2,15,,,,,,,,7,12,,,,,,,,,,,7,2.63,1,,,,,,0.127777778,-0.397222222,1,0,0,2.6295,Peridotite_rect,14,0,14,0,1,
663ab8a4d5bff4596f9a9de7,SCN,2024-06-11_12h11.16.589,LearnStrategy,2023.2.3,Win32,10.91703057,4,2,16,,,,,,,,2,14,,,,,,,,,,,8,1.708,0,,,,,,0.4,-0.402777778,1,0,0,1.7083,Pumice_rect,15,0,15,0,1,
663ab8a4d5bff4596f9a9de7,SCN,2024-06-11_12h11.16.589,LearnStrategy,2023.2.3,Win32,10.91703057,5,1,1,0.067592593,0.093518519,1,0,0,3.383,Peridotite_06,7,06,4,5,3.383,0.128703704,-0.39537037,1,0,0,1.7784,Peridotite_rect,7,1.778,1,0,0,0,0,1,,,,,,,,,,,,,
663ab8a4d5bff4596f9a9de7,SCN,2024-06-11_12h11.16.589,LearnStrategy,2023.2.3,Win32,10.91703057,5,1,2,-0.393518519,-0.244444444,1,0,0,1.5965,Diorite_15,3,15,2,2,1.596,0.130555556,-0.249074074,1,0,0,2.3762,Diorite_rect,3,2.376,1,1,0,1,0,1,,,,,,,,,,,,,
663ab8a4d5bff4596f9a9de7,SCN,2024-06-11_12h11.16.589,LearnStrategy,2023.2.3,Win32,10.91703057,5,1,3,-0.532407407,-0.247222222,1,0,0,0.8543,Gabbro_11,4,11,2,1,0.854,-0.4,-0.248148148,1,0,0,3.1062,Andesite_rect,1,3.106,0,2,0,2,0,1,,,,,,,,,,,,,
663ab8a4d5bff4596f9a9de7,SCN,2024-06-11_12h11.16.589,LearnStrategy,2023.2.3,Win32,10.91703057,5,1,4,0.393518519,-0.090740741,1,0,0,3.3845,Gabbro_12,4,12,3,7,3.384,-0.396296296,-0.246296296,1,0,0,1.5181,Andesite_rect,1,1.518,0,3,0,3,0,1,,,,,,,,,,,,,
663ab8a4d5bff4596f9a9de7,SCN,2024-06-11_12h11.16.589,LearnStrategy,2023.2.3,Win32,10.91703057,5,1,5,0.233333333,0.10462963,1,0,0,3.3012,Andesite_03,1,03,4,6,3.301,-0.409259259,-0.251851852,1,0,0,1.7068,Andesite_rect,1,1.707,1,4,0,4,0,1,,,,,,,,,,,,,
663ab8a4d5bff4596f9a9de7,SCN,2024-06-11_12h11.16.589,LearnStrategy,2023.2.3,Win32,10.91703057,5,1,6,-0.385185185,0.097222222,1,0,0,1.4665,Peridotite_02,7,02,4,2,1.466,0.137037037,-0.401851852,1,0,0,1.2841,Peridotite_rect,7,1.284,1,5,0,5,0,1,,,,,,,,,,,,,
663ab8a4d5bff4596f9a9de7,SCN,2024-06-11_12h11.16.589,LearnStrategy,2023.2.3,Win32,10.91703057,5,1,7,-0.55462963,0.076851852,1,0,0,1.8468,Gabbro_15,4,15,4,1,1.847,-0.119444444,-0.244444444,1,0,0,1.948,Basalt_rect,2,1.948,0,6,0,6,0,1,,,,,,,,,,,,,
663ab8a4d5bff4596f9a9de7,SCN,2024-06-11_12h11.16.589,LearnStrategy,2023.2.3,Win32,10.91703057,5,1,8,0.400925926,0.389814815,1,0,0,3.7132,Diorite_16,3,16,6,7,3.713,0.130555556,-0.25,1,0,0,1.5511,Diorite_rect,3,1.551,1,7,0,7,0,1,,,,,,,,,,,,,
663ab8a4d5bff4596f9a9de7,SCN,2024-06-11_12h11.16.589,LearnStrategy,2023.2.3,Win32,10.91703057,5,1,9,-0.082407407,0.24537037,1,0,0,3.1688,Gabbro_01,4,01,5,4,3.169,-0.4,-0.242592593,1,0,0,2.4954,Andesite_rect,1,2.495,0,8,0,8,0,1,,,,,,,,,,,,,
663ab8a4d5bff4596f9a9de7,SCN,2024-06-11_12h11.16.589,LearnStrategy,2023.2.3,Win32,10.91703057,5,1,10,-0.243518519,-0.102777778,1,0,0,3.9534,Peridotite_10,7,10,3,3,3.953,0.134259259,-0.4,1,0,0,2.0802,Peridotite_rect,7,2.08,1,9,0,9,0,1,,,,,,,,,,,,,
663ab8a4d5bff4596f9a9de7,SCN,2024-06-11_12h11.16.589,LearnStrategy,2023.2.3,Win32,10.91703057,5,1,11,-0.075925926,-0.258333333,1,0,0,1.2109,Andesite_05,1,05,2,4,1.211,-0.399074074,-0.243518519,1,0,0,1.6203,Andesite_rect,1,1.62,1,10,0,10,0,1,,,,,,,,,,,,,
663ab8a4d5bff4596f9a9de7,SCN,2024-06-11_12h11.16.589,LearnStrategy,2023.2.3,Win32,10.91703057,5,1,12,-0.074074074,-0.42037037,1,0,0,3.0099,Andesite_01,1,01,1,4,3.01,-0.137962963,-0.243518519,1,0,0,1.6682,Basalt_rect,2,1.668,0,11,0,11,0,1,,,,,,,,,,,,,
663ab8a4d5bff4596f9a9de7,SCN,2024-06-11_12h11.16.589,LearnStrategy,2023.2.3,Win32,10.91703057,5,1,13,0.223148148,-0.409259259,1,0,0,4.1583,Gabbro_09,4,09,1,6,4.158,-0.134259259,-0.248148148,1,0,0,2.1653,Basalt_rect,2,2.165,0,12,0,12,0,1,,,,,,,,,,,,,
663ab8a4d5bff4596f9a9de7,SCN,2024-06-11_12h11.16.589,LearnStrategy,2023.2.3,Win32,10.91703057,5,1,14,0.562037037,0.253703704,1,0,0,6.4719,Basalt_06,2,06,5,8,6.472,-0.134259259,-0.25,1,0,0,1.1842,Basalt_rect,2,1.184,1,13,0,13,0,1,,,,,,,,,,,,,
663ab8a4d5bff4596f9a9de7,SCN,2024-06-11_12h11.16.589,LearnStrategy,2023.2.3,Win32,10.91703057,5,1,15,-0.561111111,-0.269444444,1,0,0,2.3042,Gabbro_11,4,11,2,1,2.304,-0.130555556,-0.25,1,0,0,2.1637,Basalt_rect,2,2.164,0,14,0,14,0,1,,,,,,,,,,,,,
663ab8a4d5bff4596f9a9de7,SCN,2024-06-11_12h11.16.589,LearnStrategy,2023.2.3,Win32,10.91703057,5,1,16,0.541666667,0.257407407,1,0,0,4.6994,Basalt_06,2,06,5,8,4.699,-0.143518519,-0.248148148,1,0,0,1.1682,Basalt_rect,2,1.168,1,15,0,15,0,1,,,,,,,,,,,,,
663ab8a4d5bff4596f9a9de7,SCN,2024-06-11_12h11.16.589,LearnStrategy,2023.2.3,Win32,10.91703057,5,2,1,,,,,,,,1,11,,,,,,,,,,,1,5.048,1,,,,,,-0.419444444,-0.248148148,1,0,0,5.0479,Andesite_rect,0,0,0,0,1,
663ab8a4d5bff4596f9a9de7,SCN,2024-06-11_12h11.16.589,LearnStrategy,2023.2.3,Win32,10.91703057,5,2,2,,,,,,,,5,10,,,,,,,,,,,5,1.317,1,,,,,,-0.398148148,-0.401851852,1,0,0,1.3174,Obsidian_rect,1,0,1,0,1,
663ab8a4d5bff4596f9a9de7,SCN,2024-06-11_12h11.16.589,LearnStrategy,2023.2.3,Win32,10.91703057,5,2,3,,,,,,,,6,05,,,,,,,,,,,7,4.365,0,,,,,,0.126851852,-0.399074074,1,0,0,4.3652,Peridotite_rect,2,0,2,0,1,
663ab8a4d5bff4596f9a9de7,SCN,2024-06-11_12h11.16.589,LearnStrategy,2023.2.3,Win32,10.91703057,5,2,4,,,,,,,,6,08,,,,,,,,,,,7,3.325,0,,,,,,0.125925926,-0.402777778,1,0,0,3.3254,Peridotite_rect,3,0,3,0,1,
663ab8a4d5bff4596f9a9de7,SCN,2024-06-11_12h11.16.589,LearnStrategy,2023.2.3,Win32,10.91703057,5,2,5,,,,,,,,7,16,,,,,,,,,,,6,3.28,0,,,,,,-0.136111111,-0.399074074,1,0,0,3.2798,Pegmatite_rect,4,0,4,0,1,
663ab8a4d5bff4596f9a9de7,SCN,2024-06-11_12h11.16.589,LearnStrategy,2023.2.3,Win32,10.91703057,5,2,6,,,,,,,,3,12,,,,,,,,,,,3,1.764,1,,,,,,0.127777778,-0.237962963,1,0,0,1.7645,Diorite_rect,5,0,5,0,1,
663ab8a4d5bff4596f9a9de7,SCN,2024-06-11_12h11.16.589,LearnStrategy,2023.2.3,Win32,10.91703057,5,2,7,,,,,,,,4,08,,,,,,,,,,,4,4.074,1,,,,,,0.397222222,-0.235185185,1,0,0,4.0741,Gabbro_rect,6,0,6,0,1,
663ab8a4d5bff4596f9a9de7,SCN,2024-06-11_12h11.16.589,LearnStrategy,2023.2.3,Win32,10.91703057,5,2,8,,,,,,,,1,06,,,,,,,,,,,3,4.88,0,,,,,,0.139814815,-0.247222222,1,0,0,4.8803,Diorite_rect,7,0,7,0,1,
663ab8a4d5bff4596f9a9de7,SCN,2024-06-11_12h11.16.589,LearnStrategy,2023.2.3,Win32,10.91703057,5,2,9,,,,,,,,8,08,,,,,,,,,,,8,4.045,1,,,,,,0.4,-0.393518519,1,0,0,4.0454,Pumice_rect,8,0,8,0,1,
663ab8a4d5bff4596f9a9de7,SCN,2024-06-11_12h11.16.589,LearnStrategy,2023.2.3,Win32,10.91703057,5,2,10,,,,,,,,7,05,,,,,,,,,,,7,2.376,1,,,,,,0.126851852,-0.396296296,1,0,0,2.3761,Peridotite_rect,9,0,9,0,1,
663ab8a4d5bff4596f9a9de7,SCN,2024-06-11_12h11.16.589,LearnStrategy,2023.2.3,Win32,10.91703057,5,2,11,,,,,,,,3,14,,,,,,,,,,,3,2.364,1,,,,,,0.125925926,-0.248148148,1,0,0,2.3638,Diorite_rect,10,0,10,0,1,
663ab8a4d5bff4596f9a9de7,SCN,2024-06-11_12h11.16.589,LearnStrategy,2023.2.3,Win32,10.91703057,5,2,12,,,,,,,,5,07,,,,,,,,,,,5,1.626,1,,,,,,-0.406481481,-0.394444444,1,0,0,1.6264,Obsidian_rect,11,0,11,0,1,
663ab8a4d5bff4596f9a9de7,SCN,2024-06-11_12h11.16.589,LearnStrategy,2023.2.3,Win32,10.91703057,5,2,13,,,,,,,,8,06,,,,,,,,,,,8,4.168,1,,,,,,0.385185185,-0.389814815,1,0,0,4.168,Pumice_rect,12,0,12,0,1,
663ab8a4d5bff4596f9a9de7,SCN,2024-06-11_12h11.16.589,LearnStrategy,2023.2.3,Win32,10.91703057,5,2,14,,,,,,,,2,10,,,,,,,,,,,2,2.104,1,,,,,,-0.121296296,-0.242592593,1,0,0,2.1039,Basalt_rect,13,0,13,0,1,
663ab8a4d5bff4596f9a9de7,SCN,2024-06-11_12h11.16.589,LearnStrategy,2023.2.3,Win32,10.91703057,5,2,15,,,,,,,,2,02,,,,,,,,,,,1,6.687,0,,,,,,-0.392592593,-0.247222222,1,0,0,6.6866,Andesite_rect,14,0,14,0,1,
663ab8a4d5bff4596f9a9de7,SCN,2024-06-11_12h11.16.589,LearnStrategy,2023.2.3,Win32,10.91703057,5,2,16,,,,,,,,4,13,,,,,,,,,,,6,2.45,0,,,,,,-0.137962963,-0.400925926,1,0,0,2.4497,Pegmatite_rect,15,0,15,0,1,
663ab8a4d5bff4596f9a9de7,SCN,2024-06-11_12h11.16.589,LearnStrategy,2023.2.3,Win32,10.91703057,6,1,1,-0.063888889,-0.265740741,1,0,0,2.3356,Andesite_05,1,05,2,4,2.336,-0.380555556,-0.253703704,1,0,0,3.0854,Andesite_rect,1,3.085,1,0,0,0,0,1,,,,,,,,,,,,,
663ab8a4d5bff4596f9a9de7,SCN,2024-06-11_12h11.16.589,LearnStrategy,2023.2.3,Win32,10.91703057,6,1,2,-0.57037037,-0.259259259,1,0,0,0.7169,Gabbro_11,4,11,2,1,0.717,0.40462963,-0.237037037,1,0,0,2.1074,Gabbro_rect,4,2.107,1,1,0,1,0,1,,,,,,,,,,,,,
663ab8a4d5bff4596f9a9de7,SCN,2024-06-11_12h11.16.589,LearnStrategy,2023.2.3,Win32,10.91703057,6,1,3,0.218518519,0.109259259,1,0,0,1.2317,Andesite_03,1,03,4,6,1.232,-0.4,-0.246296296,1,0,0,2.0353,Andesite_rect,1,2.035,1,2,0,2,0,1,,,,,,,,,,,,,
663ab8a4d5bff4596f9a9de7,SCN,2024-06-11_12h11.16.589,LearnStrategy,2023.2.3,Win32,10.91703057,6,1,4,0.549074074,-0.102777778,1,0,0,1.5963,Pegmatite_15,6,15,3,8,1.596,-0.147222222,-0.39537037,1,0,0,1.7044,Pegmatite_rect,6,1.704,1,3,0,3,0,1,,,,,,,,,,,,,
663ab8a4d5bff4596f9a9de7,SCN,2024-06-11_12h11.16.589,LearnStrategy,2023.2.3,Win32,10.91703057,6,1,5,-0.552777778,0.247222222,1,0,0,1.8428,Pegmatite_09,6,09,5,1,1.843,-0.130555556,-0.39537037,1,0,0,1.2347,Pegmatite_rect,6,1.235,1,4,0,4,0,1,,,,,,,,,,,,,
663ab8a4d5bff4596f9a9de7,SCN,2024-06-11_12h11.16.589,LearnStrategy,2023.2.3,Win32,10.91703057,6,1,6,-0.383333333,0.402777778,1,0,0,0.9891,Pegmatite_13,6,13,6,2,0.989,-0.134259259,-0.407407407,1,0,0,1.4899,Pegmatite_rect,6,1.49,1,5,0,5,0,1,,,,,,,,,,,,,
663ab8a4d5bff4596f9a9de7,SCN,2024-06-11_12h11.16.589,LearnStrategy,2023.2.3,Win32,10.91703057,6,1,7,0.098148148,0.398148148,1,0,0,1.339,Diorite_09,3,09,6,5,1.339,0.137962963,-0.249074074,1,0,0,2.3508,Diorite_rect,3,2.351,1,6,0,6,0,1,,,,,,,,,,,,,
663ab8a4d5bff4596f9a9de7,SCN,2024-06-11_12h11.16.589,LearnStrategy,2023.2.3,Win32,10.91703057,6,1,8,0.213888889,0.4,1,0,0,1.1289,Peridotite_04,7,04,6,6,1.129,-0.133333333,-0.397222222,1,0,0,3.4091,Pegmatite_rect,6,3.409,0,7,0,7,0,1,,,,,,,,,,,,,
663ab8a4d5bff4596f9a9de7,SCN,2024-06-11_12h11.16.589,LearnStrategy,2023.2.3,Win32,10.91703057,6,1,9,0.403703704,-0.10462963,1,0,0,1.8608,Gabbro_12,4,12,3,7,1.861,0.408333333,-0.242592593,1,0,0,1.6463,Gabbro_rect,4,1.646,1,8,0,8,0,1,,,,,,,,,,,,,
663ab8a4d5bff4596f9a9de7,SCN,2024-06-11_12h11.16.589,LearnStrategy,2023.2.3,Win32,10.91703057,6,1,10,0.566666667,-0.274074074,1,0,0,1.1443,Andesite_07,1,07,2,8,1.144,-0.405555556,-0.247222222,1,0,0,1.3426,Andesite_rect,1,1.343,1,9,0,9,0,1,,,,,,,,,,,,,
663ab8a4d5bff4596f9a9de7,SCN,2024-06-11_12h11.16.589,LearnStrategy,2023.2.3,Win32,10.91703057,6,1,11,0.360185185,-0.434259259,1,0,0,1.0972,Diorite_06,3,06,1,7,1.097,0.139814815,-0.397222222,1,0,0,1.4677,Peridotite_rect,7,1.468,0,10,0,10,0,1,,,,,,,,,,,,,
663ab8a4d5bff4596f9a9de7,SCN,2024-06-11_12h11.16.589,LearnStrategy,2023.2.3,Win32,10.91703057,6,1,12,0.544444444,-0.422222222,1,0,0,0.8734,Peridotite_14,7,14,1,8,0.873,0.12962963,-0.262962963,1,0,0,2.6368,Diorite_rect,3,2.637,0,11,0,11,0,1,,,,,,,,,,,,,
663ab8a4d5bff4596f9a9de7,SCN,2024-06-11_12h11.16.589,LearnStrategy,2023.2.3,Win32,10.91703057,6,1,13,-0.087037037,-0.119444444,1,0,0,2.0956,Pumice_02,8,02,3,4,2.096,0.363888889,-0.387037037,1,0,0,1.1699,Pumice_rect,8,1.17,1,12,0,12,0,1,,,,,,,,,,,,,
663ab8a4d5bff4596f9a9de7,SCN,2024-06-11_12h11.16.589,LearnStrategy,2023.2.3,Win32,10.91703057,6,1,14,-0.392592593,0.074074074,1,0,0,1.3528,Peridotite_02,7,02,4,2,1.353,0.126851852,-0.398148148,1,0,0,1.5824,Peridotite_rect,7,1.582,1,13,0,13,0,1,,,,,,,,,,,,,
663ab8a4d5bff4596f9a9de7,SCN,2024-06-11_12h11.16.589,LearnStrategy,2023.2.3,Win32,10.91703057,6,1,15,-0.063888889,0.252777778,1,0,0,1.4984,Gabbro_01,4,01,5,4,1.498,-0.400925926,-0.241666667,1,0,0,3.6712,Andesite_rect,1,3.671,0,14,0,14,0,1,,,,,,,,,,,,,
663ab8a4d5bff4596f9a9de7,SCN,2024-06-11_12h11.16.589,LearnStrategy,2023.2.3,Win32,10.91703057,6,1,16,-0.419444444,-0.093518519,1,0,0,4.3833,Basalt_12,2,12,3,2,4.383,0.400925926,-0.378703704,1,0,0,1.8217,Pumice_rect,8,1.822,0,15,0,15,0,1,,,,,,,,,,,,,
663ab8a4d5bff4596f9a9de7,SCN,2024-06-11_12h11.16.589,LearnStrategy,2023.2.3,Win32,10.91703057,6,2,1,,,,,,,,8,10,,,,,,,,,,,8,1.713,1,,,,,,0.407407407,-0.403703704,1,0,0,1.7126,Pumice_rect,0,0,0,0,1,
663ab8a4d5bff4596f9a9de7,SCN,2024-06-11_12h11.16.589,LearnStrategy,2023.2.3,Win32,10.91703057,6,2,2,,,,,,,,7,07,,,,,,,,,,,7,3.694,1,,,,,,0.124074074,-0.401851852,1,0,0,3.6938,Peridotite_rect,1,0,1,0,1,
663ab8a4d5bff4596f9a9de7,SCN,2024-06-11_12h11.16.589,LearnStrategy,2023.2.3,Win32,10.91703057,6,2,3,,,,,,,,2,04,,,,,,,,,,,2,2.332,1,,,,,,-0.133333333,-0.255555556,1,0,0,2.3324,Basalt_rect,2,0,2,0,1,
663ab8a4d5bff4596f9a9de7,SCN,2024-06-11_12h11.16.589,LearnStrategy,2023.2.3,Win32,10.91703057,6,2,4,,,,,,,,4,14,,,,,,,,,,,4,6.889,1,,,,,,0.399074074,-0.25,1,0,0,6.8892,Gabbro_rect,3,0,3,0,1,
663ab8a4d5bff4596f9a9de7,SCN,2024-06-11_12h11.16.589,LearnStrategy,2023.2.3,Win32,10.91703057,6,2,5,,,,,,,,3,08,,,,,,,,,,,3,2.123,1,,,,,,0.126851852,-0.250925926,1,0,0,2.1231,Diorite_rect,4,0,4,0,1,
663ab8a4d5bff4596f9a9de7,SCN,2024-06-11_12h11.16.589,LearnStrategy,2023.2.3,Win32,10.91703057,6,2,6,,,,,,,,1,04,,,,,,,,,,,1,4.515,1,,,,,,-0.39537037,-0.244444444,1,0,0,4.5149,Andesite_rect,5,0,5,0,1,
663ab8a4d5bff4596f9a9de7,SCN,2024-06-11_12h11.16.589,LearnStrategy,2023.2.3,Win32,10.91703057,6,2,7,,,,,,,,4,16,,,,,,,,,,,4,4.006,1,,,,,,0.403703704,-0.249074074,1,0,0,4.0062,Gabbro_rect,6,0,6,0,1,
663ab8a4d5bff4596f9a9de7,SCN,2024-06-11_12h11.16.589,LearnStrategy,2023.2.3,Win32,10.91703057,6,2,8,,,,,,,,6,16,,,,,,,,,,,3,2.915,0,,,,,,0.125925926,-0.249074074,1,0,0,2.9155,Diorite_rect,7,0,7,0,1,
663ab8a4d5bff4596f9a9de7,SCN,2024-06-11_12h11.16.589,LearnStrategy,2023.2.3,Win32,10.91703057,6,2,9,,,,,,,,5,12,,,,,,,,,,,5,1.328,1,,,,,,-0.40462963,-0.405555556,1,0,0,1.3279,Obsidian_rect,8,0,8,0,1,
663ab8a4d5bff4596f9a9de7,SCN,2024-06-11_12h11.16.589,LearnStrategy,2023.2.3,Win32,10.91703057,6,2,10,,,,,,,,5,16,,,,,,,,,,,5,1.271,1,,,,,,-0.417592593,-0.399074074,1,0,0,1.2707,Obsidian_rect,9,0,9,0,1,
663ab8a4d5bff4596f9a9de7,SCN,2024-06-11_12h11.16.589,LearnStrategy,2023.2.3,Win32,10.91703057,6,2,11,,,,,,,,8,09,,,,,,,,,,,8,1.716,1,,,,,,0.421296296,-0.403703704,1,0,0,1.7163,Pumice_rect,10,0,10,0,1,
663ab8a4d5bff4596f9a9de7,SCN,2024-06-11_12h11.16.589,LearnStrategy,2023.2.3,Win32,10.91703057,6,2,12,,,,,,,,2,05,,,,,,,,,,,2,3.333,1,,,,,,-0.133333333,-0.247222222,1,0,0,3.333,Basalt_rect,11,0,11,0,1,
663ab8a4d5bff4596f9a9de7,SCN,2024-06-11_12h11.16.589,LearnStrategy,2023.2.3,Win32,10.91703057,6,2,13,,,,,,,,3,13,,,,,,,,,,,3,2.149,1,,,,,,0.143518519,-0.236111111,1,0,0,2.1495,Diorite_rect,12,0,12,0,1,
663ab8a4d5bff4596f9a9de7,SCN,2024-06-11_12h11.16.589,LearnStrategy,2023.2.3,Win32,10.91703057,6,2,14,,,,,,,,1,16,,,,,,,,,,,1,2.784,1,,,,,,-0.408333333,-0.25,1,0,0,2.7838,Andesite_rect,13,0,13,0,1,
663ab8a4d5bff4596f9a9de7,SCN,2024-06-11_12h11.16.589,LearnStrategy,2023.2.3,Win32,10.91703057,6,2,15,,,,,,,,6,03,,,,,,,,,,,6,3.521,1,,,,,,-0.134259259,-0.4,1,0,0,3.5211,Pegmatite_rect,14,0,14,0,1,
663ab8a4d5bff4596f9a9de7,SCN,2024-06-11_12h11.16.589,LearnStrategy,2023.2.3,Win32,10.91703057,6,2,16,,,,,,,,7,13,,,,,,,,,,,7,1.295,1,,,,,,0.136111111,-0.403703704,1,0,0,1.2948,Peridotite_rect,15,0,15,0,1,
663ab8a4d5bff4596f9a9de7,SCN,2024-06-11_12h11.16.589,LearnStrategy,2023.2.3,Win32,10.91703057,7,1,1,0.231481481,-0.424074074,1,0,0,5.3014,Gabbro_09,4,09,1,6,5.301,-0.150925926,-0.248148148,1,0,0,1.6641,Basalt_rect,2,1.664,0,0,0,0,0,1,,,,,,,,,,,,,
663ab8a4d5bff4596f9a9de7,SCN,2024-06-11_12h11.16.589,LearnStrategy,2023.2.3,Win32,10.91703057,7,1,2,-0.086111111,0.238888889,1,0,0,2.4323,Gabbro_01,4,01,5,4,2.432,0.4,-0.252777778,1,0,0,1.1747,Gabbro_rect,4,1.175,1,1,0,1,0,1,,,,,,,,,,,,,
663ab8a4d5bff4596f9a9de7,SCN,2024-06-11_12h11.16.589,LearnStrategy,2023.2.3,Win32,10.91703057,7,1,3,-0.386111111,0.4,1,0,0,0.8445,Pegmatite_13,6,13,6,2,0.844,-0.128703704,-0.406481481,1,0,0,1.5779,Pegmatite_rect,6,1.578,1,2,0,2,0,1,,,,,,,,,,,,,
663ab8a4d5bff4596f9a9de7,SCN,2024-06-11_12h11.16.589,LearnStrategy,2023.2.3,Win32,10.91703057,7,1,4,-0.261111111,0.092592593,1,0,0,1.4556,Obsidian_06,5,06,4,3,1.456,-0.40462963,-0.400925926,1,0,0,1.4188,Obsidian_rect,5,1.419,1,3,0,3,0,1,,,,,,,,,,,,,
663ab8a4d5bff4596f9a9de7,SCN,2024-06-11_12h11.16.589,LearnStrategy,2023.2.3,Win32,10.91703057,7,1,5,-0.419444444,0.096296296,1,0,0,0.9825,Peridotite_02,7,02,4,2,0.983,0.115740741,-0.410185185,1,0,0,1.2931,Peridotite_rect,7,1.293,1,4,0,4,0,1,,,,,,,,,,,,,
663ab8a4d5bff4596f9a9de7,SCN,2024-06-11_12h11.16.589,LearnStrategy,2023.2.3,Win32,10.91703057,7,1,6,-0.532407407,0.071296296,1,0,0,0.755,Gabbro_15,4,15,4,1,0.755,-0.414814815,-0.258333333,1,0,0,5.0084,Andesite_rect,1,5.008,0,5,0,5,0,1,,,,,,,,,,,,,
663ab8a4d5bff4596f9a9de7,SCN,2024-06-11_12h11.16.589,LearnStrategy,2023.2.3,Win32,10.91703057,7,1,7,0.535185185,-0.10462963,1,0,0,1.105,Pegmatite_15,6,15,3,8,1.105,-0.113888889,-0.399074074,1,0,0,1.0267,Pegmatite_rect,6,1.027,1,6,0,6,0,1,,,,,,,,,,,,,
663ab8a4d5bff4596f9a9de7,SCN,2024-06-11_12h11.16.589,LearnStrategy,2023.2.3,Win32,10.91703057,7,1,8,0.536111111,-0.280555556,1,0,0,1.248,Andesite_07,1,07,2,8,1.248,-0.402777778,-0.24537037,1,0,0,1.0542,Andesite_rect,1,1.054,1,7,0,7,0,1,,,,,,,,,,,,,
663ab8a4d5bff4596f9a9de7,SCN,2024-06-11_12h11.16.589,LearnStrategy,2023.2.3,Win32,10.91703057,7,1,9,0.411111111,0.406481481,1,0,0,5.3751,Diorite_16,3,16,6,7,5.375,0.103703704,-0.252777778,1,0,0,1.0208,Diorite_rect,3,1.021,1,8,0,8,0,1,,,,,,,,,,,,,
663ab8a4d5bff4596f9a9de7,SCN,2024-06-11_12h11.16.589,LearnStrategy,2023.2.3,Win32,10.91703057,7,1,10,0.242592593,0.405555556,1,0,0,0.7864,Peridotite_04,7,04,6,6,0.786,0.422222222,-0.253703704,1,0,0,0.9268,Gabbro_rect,4,0.927,0,9,0,9,0,1,,,,,,,,,,,,,
663ab8a4d5bff4596f9a9de7,SCN,2024-06-11_12h11.16.589,LearnStrategy,2023.2.3,Win32,10.91703057,7,1,11,-0.103703704,0.40462963,1,0,0,2.8703,Diorite_10,3,10,6,4,2.87,0.150925926,-0.261111111,1,0,0,3.3083,Diorite_rect,3,3.308,1,10,0,10,0,1,,,,,,,,,,,,,
663ab8a4d5bff4596f9a9de7,SCN,2024-06-11_12h11.16.589,LearnStrategy,2023.2.3,Win32,10.91703057,7,1,12,-0.221296296,0.403703704,1,0,0,1.1081,Andesite_09,1,09,6,3,1.108,-0.39537037,-0.241666667,1,0,0,4.8599,Andesite_rect,1,4.86,1,11,0,11,0,1,,,,,,,,,,,,,
663ab8a4d5bff4596f9a9de7,SCN,2024-06-11_12h11.16.589,LearnStrategy,2023.2.3,Win32,10.91703057,7,1,13,-0.4,0.410185185,1,0,0,1.2147,Pegmatite_13,6,13,6,2,1.215,-0.141666667,-0.405555556,1,0,0,2.1451,Pegmatite_rect,6,2.145,1,12,0,12,0,1,,,,,,,,,,,,,
663ab8a4d5bff4596f9a9de7,SCN,2024-06-11_12h11.16.589,LearnStrategy,2023.2.3,Win32,10.91703057,7,1,14,-0.040740741,0.242592593,1,0,0,2.3229,Gabbro_01,4,01,5,4,2.323,0.392592593,-0.249074074,1,0,0,1.7073,Gabbro_rect,4,1.707,1,13,0,13,0,1,,,,,,,,,,,,,
663ab8a4d5bff4596f9a9de7,SCN,2024-06-11_12h11.16.589,LearnStrategy,2023.2.3,Win32,10.91703057,7,1,15,0.084259259,0.247222222,1,0,0,3.3044,Basalt_08,2,08,5,5,3.304,-0.127777778,-0.241666667,1,0,0,2.0409,Basalt_rect,2,2.041,1,14,0,14,0,1,,,,,,,,,,,,,
663ab8a4d5bff4596f9a9de7,SCN,2024-06-11_12h11.16.589,LearnStrategy,2023.2.3,Win32,10.91703057,7,1,16,-0.064814815,0.1,1,0,0,1.2308,Pumice_03,8,03,4,4,1.231,0.386111111,-0.405555556,1,0,0,1.0206,Pumice_rect,8,1.021,1,15,0,15,0,1,,,,,,,,,,,,,
663ab8a4d5bff4596f9a9de7,SCN,2024-06-11_12h11.16.589,LearnStrategy,2023.2.3,Win32,10.91703057,7,2,1,,,,,,,,6,16,,,,,,,,,,,3,2.663,0,,,,,,0.118518519,-0.260185185,1,0,0,2.6629,Diorite_rect,0,0,0,0,1,
663ab8a4d5bff4596f9a9de7,SCN,2024-06-11_12h11.16.589,LearnStrategy,2023.2.3,Win32,10.91703057,7,2,2,,,,,,,,2,02,,,,,,,,,,,4,9.32,0,,,,,,0.398148148,-0.244444444,1,0,0,9.3197,Gabbro_rect,1,0,1,0,1,
663ab8a4d5bff4596f9a9de7,SCN,2024-06-11_12h11.16.589,LearnStrategy,2023.2.3,Win32,10.91703057,7,2,3,,,,,,,,3,07,,,,,,,,,,,3,1.334,1,,,,,,0.132407407,-0.239814815,1,0,0,1.3337,Diorite_rect,2,0,2,0,1,
663ab8a4d5bff4596f9a9de7,SCN,2024-06-11_12h11.16.589,LearnStrategy,2023.2.3,Win32,10.91703057,7,2,4,,,,,,,,2,04,,,,,,,,,,,2,1.319,1,,,,,,-0.133333333,-0.239814815,1,0,0,1.3191,Basalt_rect,3,0,3,0,1,
663ab8a4d5bff4596f9a9de7,SCN,2024-06-11_12h11.16.589,LearnStrategy,2023.2.3,Win32,10.91703057,7,2,5,,,,,,,,1,06,,,,,,,,,,,3,5.234,0,,,,,,0.138888889,-0.257407407,1,0,0,5.2336,Diorite_rect,4,0,4,0,1,
663ab8a4d5bff4596f9a9de7,SCN,2024-06-11_12h11.16.589,LearnStrategy,2023.2.3,Win32,10.91703057,7,2,6,,,,,,,,1,10,,,,,,,,,,,4,4.876,0,,,,,,0.402777778,-0.25,1,0,0,4.876,Gabbro_rect,5,0,5,0,1,
663ab8a4d5bff4596f9a9de7,SCN,2024-06-11_12h11.16.589,LearnStrategy,2023.2.3,Win32,10.91703057,7,2,7,,,,,,,,3,13,,,,,,,,,,,3,2.625,1,,,,,,0.128703704,-0.252777778,1,0,0,2.6255,Diorite_rect,6,0,6,0,1,
663ab8a4d5bff4596f9a9de7,SCN,2024-06-11_12h11.16.589,LearnStrategy,2023.2.3,Win32,10.91703057,7,2,8,,,,,,,,8,05,,,,,,,,,,,8,1.297,1,,,,,,0.39537037,-0.398148148,1,0,0,1.2972,Pumice_rect,7,0,7,0,1,
663ab8a4d5bff4596f9a9de7,SCN,2024-06-11_12h11.16.589,LearnStrategy,2023.2.3,Win32,10.91703057,7,2,9,,,,,,,,8,13,,,,,,,,,,,8,0.887,1,,,,,,0.396296296,-0.398148148,1,0,0,0.8871,Pumice_rect,8,0,8,0,1,
663ab8a4d5bff4596f9a9de7,SCN,2024-06-11_12h11.16.589,LearnStrategy,2023.2.3,Win32,10.91703057,7,2,10,,,,,,,,4,16,,,,,,,,,,,2,4.589,0,,,,,,-0.139814815,-0.252777778,1,0,0,4.5886,Basalt_rect,9,0,9,0,1,
663ab8a4d5bff4596f9a9de7,SCN,2024-06-11_12h11.16.589,LearnStrategy,2023.2.3,Win32,10.91703057,7,2,11,,,,,,,,5,10,,,,,,,,,,,5,1.694,1,,,,,,-0.401851852,-0.393518519,1,0,0,1.6938,Obsidian_rect,10,0,10,0,1,
663ab8a4d5bff4596f9a9de7,SCN,2024-06-11_12h11.16.589,LearnStrategy,2023.2.3,Win32,10.91703057,7,2,12,,,,,,,,7,13,,,,,,,,,,,7,2.445,1,,,,,,0.132407407,-0.398148148,1,0,0,2.4446,Peridotite_rect,11,0,11,0,1,
663ab8a4d5bff4596f9a9de7,SCN,2024-06-11_12h11.16.589,LearnStrategy,2023.2.3,Win32,10.91703057,7,2,13,,,,,,,,6,05,,,,,,,,,,,3,1.539,0,,,,,,0.130555556,-0.251851852,1,0,0,1.5387,Diorite_rect,12,0,12,0,1,
663ab8a4d5bff4596f9a9de7,SCN,2024-06-11_12h11.16.589,LearnStrategy,2023.2.3,Win32,10.91703057,7,2,14,,,,,,,,5,07,,,,,,,,,,,5,1.656,1,,,,,,-0.423148148,-0.396296296,1,0,0,1.6555,Obsidian_rect,13,0,13,0,1,
663ab8a4d5bff4596f9a9de7,SCN,2024-06-11_12h11.16.589,LearnStrategy,2023.2.3,Win32,10.91703057,7,2,15,,,,,,,,7,12,,,,,,,,,,,7,4.311,1,,,,,,0.125925926,-0.402777778,1,0,0,4.3109,Peridotite_rect,14,0,14,0,1,
663ab8a4d5bff4596f9a9de7,SCN,2024-06-11_12h11.16.589,LearnStrategy,2023.2.3,Win32,10.91703057,7,2,16,,,,,,,,4,03,,,,,,,,,,,3,10.978,0,,,,,,0.109259259,-0.260185185,1,0,0,10.9775,Diorite_rect,15,0,15,0,1,
663ab8a4d5bff4596f9a9de7,SCN,2024-06-11_12h11.16.589,LearnStrategy,2023.2.3,Win32,10.91703057,8,1,1,-0.252777778,0.090740741,1,0,0,1.612,Obsidian_06,5,06,4,3,1.612,-0.42037037,-0.387037037,1,0,0,0.9047,Obsidian_rect,5,0.905,1,0,0,0,0,1,,,,,,,,,,,,,
663ab8a4d5bff4596f9a9de7,SCN,2024-06-11_12h11.16.589,LearnStrategy,2023.2.3,Win32,10.91703057,8,1,2,-0.09537037,0.07962963,1,0,0,0.4918,Pumice_03,8,03,4,4,0.492,0.402777778,-0.402777778,1,0,0,0.9084,Pumice_rect,8,0.908,1,1,0,1,0,1,,,,,,,,,,,,,
663ab8a4d5bff4596f9a9de7,SCN,2024-06-11_12h11.16.589,LearnStrategy,2023.2.3,Win32,10.91703057,8,1,3,-0.383333333,-0.250925926,1,0,0,1.2451,Diorite_15,3,15,2,2,1.245,0.143518519,-0.25,1,0,0,3.0241,Diorite_rect,3,3.024,1,2,0,2,0,1,,,,,,,,,,,,,
663ab8a4d5bff4596f9a9de7,SCN,2024-06-11_12h11.16.589,LearnStrategy,2023.2.3,Win32,10.91703057,8,1,4,-0.237037037,-0.405555556,1,0,0,0.8643,Gabbro_10,4,10,1,3,0.864,-0.087962963,-0.24537037,1,0,0,3.0064,Basalt_rect,2,3.006,0,3,0,3,0,1,,,,,,,,,,,,,
663ab8a4d5bff4596f9a9de7,SCN,2024-06-11_12h11.16.589,LearnStrategy,2023.2.3,Win32,10.91703057,8,1,5,-0.050925926,-0.410185185,1,0,0,0.9798,Andesite_01,1,01,1,4,0.98,-0.109259259,-0.261111111,1,0,0,0.9224,Basalt_rect,2,0.922,0,4,0,4,0,1,,,,,,,,,,,,,
663ab8a4d5bff4596f9a9de7,SCN,2024-06-11_12h11.16.589,LearnStrategy,2023.2.3,Win32,10.91703057,8,1,6,0.226851852,-0.288888889,1,0,0,1.7039,Obsidian_14,5,14,2,6,1.704,-0.359259259,-0.39537037,1,0,0,2.1917,Obsidian_rect,5,2.192,1,5,0,5,0,1,,,,,,,,,,,,,
663ab8a4d5bff4596f9a9de7,SCN,2024-06-11_12h11.16.589,LearnStrategy,2023.2.3,Win32,10.91703057,8,1,7,-0.548148148,0.087037037,1,0,0,1.356,Gabbro_15,4,15,4,1,1.356,0.417592593,-0.252777778,1,0,0,4.5662,Gabbro_rect,4,4.566,1,6,0,6,0,1,,,,,,,,,,,,,
663ab8a4d5bff4596f9a9de7,SCN,2024-06-11_12h11.16.589,LearnStrategy,2023.2.3,Win32,10.91703057,8,1,8,-0.55,0.25,1,0,0,1.1036,Pegmatite_09,6,09,5,1,1.104,-0.122222222,-0.413888889,1,0,0,1.0936,Pegmatite_rect,6,1.094,1,7,0,7,0,1,,,,,,,,,,,,,
663ab8a4d5bff4596f9a9de7,SCN,2024-06-11_12h11.16.589,LearnStrategy,2023.2.3,Win32,10.91703057,8,1,9,-0.546296296,0.406481481,1,0,0,1.0067,Basalt_01,2,01,6,1,1.007,-0.459259259,-0.233333333,1,0,0,2.1205,Andesite_rect,1,2.12,0,8,0,8,0,1,,,,,,,,,,,,,
663ab8a4d5bff4596f9a9de7,SCN,2024-06-11_12h11.16.589,LearnStrategy,2023.2.3,Win32,10.91703057,8,1,10,-0.246296296,0.389814815,1,0,0,0.7186,Andesite_09,1,09,6,3,0.719,-0.4,-0.237037037,1,0,0,1.6933,Andesite_rect,1,1.693,1,9,0,9,0,1,,,,,,,,,,,,,
663ab8a4d5bff4596f9a9de7,SCN,2024-06-11_12h11.16.589,LearnStrategy,2023.2.3,Win32,10.91703057,8,1,11,0.081481481,0.408333333,1,0,0,0.9903,Diorite_09,3,09,6,5,0.99,0.119444444,-0.257407407,1,0,0,2.1099,Diorite_rect,3,2.11,1,10,0,10,0,1,,,,,,,,,,,,,
663ab8a4d5bff4596f9a9de7,SCN,2024-06-11_12h11.16.589,LearnStrategy,2023.2.3,Win32,10.91703057,8,1,12,0.408333333,0.415740741,1,0,0,1.0942,Diorite_16,3,16,6,7,1.094,0.143518519,-0.246296296,1,0,0,1.0292,Diorite_rect,3,1.029,1,11,0,11,0,1,,,,,,,,,,,,,
663ab8a4d5bff4596f9a9de7,SCN,2024-06-11_12h11.16.589,LearnStrategy,2023.2.3,Win32,10.91703057,8,1,13,0.389814815,0.235185185,1,0,0,1.4231,Obsidian_05,5,05,5,7,1.423,-0.397222222,-0.4,1,0,0,3.0344,Obsidian_rect,5,3.034,1,12,0,12,0,1,,,,,,,,,,,,,
663ab8a4d5bff4596f9a9de7,SCN,2024-06-11_12h11.16.589,LearnStrategy,2023.2.3,Win32,10.91703057,8,1,14,0.549074074,0.07962963,1,0,0,4.0627,Pumice_14,8,14,4,8,4.063,0.389814815,-0.400925926,1,0,0,1.1876,Pumice_rect,8,1.188,1,13,0,13,0,1,,,,,,,,,,,,,
663ab8a4d5bff4596f9a9de7,SCN,2024-06-11_12h11.16.589,LearnStrategy,2023.2.3,Win32,10.91703057,8,1,15,-0.081481481,-0.430555556,1,0,0,1.226,Andesite_01,1,01,1,4,1.226,0.416666667,-0.253703704,1,0,0,6.0337,Gabbro_rect,4,6.034,0,14,0,14,0,1,,,,,,,,,,,,,
663ab8a4d5bff4596f9a9de7,SCN,2024-06-11_12h11.16.589,LearnStrategy,2023.2.3,Win32,10.91703057,8,1,16,-0.209259259,-0.401851852,1,0,0,1.5968,Gabbro_10,4,10,1,3,1.597,-0.12037037,-0.255555556,1,0,0,2.3607,Basalt_rect,2,2.361,0,15,0,15,0,1,,,,,,,,,,,,,
663ab8a4d5bff4596f9a9de7,SCN,2024-06-11_12h11.16.589,LearnStrategy,2023.2.3,Win32,10.91703057,8,2,1,,,,,,,,6,03,,,,,,,,,,,6,1.923,1,,,,,,-0.133333333,-0.402777778,1,0,0,1.923,Pegmatite_rect,0,0,0,0,1,
663ab8a4d5bff4596f9a9de7,SCN,2024-06-11_12h11.16.589,LearnStrategy,2023.2.3,Win32,10.91703057,8,2,2,,,,,,,,2,09,,,,,,,,,,,4,4.804,0,,,,,,0.381481481,-0.253703704,1,0,0,4.8041,Gabbro_rect,1,0,1,0,1,
663ab8a4d5bff4596f9a9de7,SCN,2024-06-11_12h11.16.589,LearnStrategy,2023.2.3,Win32,10.91703057,8,2,3,,,,,,,,7,16,,,,,,,,,,,6,4.853,0,,,,,,-0.135185185,-0.401851852,1,0,0,4.8528,Pegmatite_rect,2,0,2,0,1,
663ab8a4d5bff4596f9a9de7,SCN,2024-06-11_12h11.16.589,LearnStrategy,2023.2.3,Win32,10.91703057,8,2,4,,,,,,,,8,08,,,,,,,,,,,8,1.303,1,,,,,,0.394444444,-0.391666667,1,0,0,1.3026,Pumice_rect,3,0,3,0,1,
663ab8a4d5bff4596f9a9de7,SCN,2024-06-11_12h11.16.589,LearnStrategy,2023.2.3,Win32,10.91703057,8,2,5,,,,,,,,2,05,,,,,,,,,,,2,1.719,1,,,,,,-0.131481481,-0.244444444,1,0,0,1.7194,Basalt_rect,4,0,4,0,1,
663ab8a4d5bff4596f9a9de7,SCN,2024-06-11_12h11.16.589,LearnStrategy,2023.2.3,Win32,10.91703057,8,2,6,,,,,,,,3,08,,,,,,,,,,,3,1.213,1,,,,,,0.135185185,-0.250925926,1,0,0,1.2131,Diorite_rect,5,0,5,0,1,
663ab8a4d5bff4596f9a9de7,SCN,2024-06-11_12h11.16.589,LearnStrategy,2023.2.3,Win32,10.91703057,8,2,7,,,,,,,,4,14,,,,,,,,,,,4,3.572,1,,,,,,0.402777778,-0.249074074,1,0,0,3.5716,Gabbro_rect,6,0,6,0,1,
663ab8a4d5bff4596f9a9de7,SCN,2024-06-11_12h11.16.589,LearnStrategy,2023.2.3,Win32,10.91703057,8,2,8,,,,,,,,3,12,,,,,,,,,,,3,2.179,1,,,,,,0.128703704,-0.237037037,1,0,0,2.1787,Diorite_rect,7,0,7,0,1,
663ab8a4d5bff4596f9a9de7,SCN,2024-06-11_12h11.16.589,LearnStrategy,2023.2.3,Win32,10.91703057,8,2,9,,,,,,,,1,14,,,,,,,,,,,1,8.234,1,,,,,,-0.389814815,-0.239814815,1,0,0,8.2343,Andesite_rect,8,0,8,0,1,
663ab8a4d5bff4596f9a9de7,SCN,2024-06-11_12h11.16.589,LearnStrategy,2023.2.3,Win32,10.91703057,8,2,10,,,,,,,,7,05,,,,,,,,,,,7,2.528,1,,,,,,0.112037037,-0.402777778,1,0,0,2.5276,Peridotite_rect,9,0,9,0,1,
663ab8a4d5bff4596f9a9de7,SCN,2024-06-11_12h11.16.589,LearnStrategy,2023.2.3,Win32,10.91703057,8,2,11,,,,,,,,4,08,,,,,,,,,,,4,2.454,1,,,,,,0.400925926,-0.243518519,1,0,0,2.4536,Gabbro_rect,10,0,10,0,1,
663ab8a4d5bff4596f9a9de7,SCN,2024-06-11_12h11.16.589,LearnStrategy,2023.2.3,Win32,10.91703057,8,2,12,,,,,,,,6,10,,,,,,,,,,,6,1.38,1,,,,,,-0.162962963,-0.391666667,1,0,0,1.3795,Pegmatite_rect,11,0,11,0,1,
663ab8a4d5bff4596f9a9de7,SCN,2024-06-11_12h11.16.589,LearnStrategy,2023.2.3,Win32,10.91703057,8,2,13,,,,,,,,1,04,,,,,,,,,,,1,2.279,1,,,,,,-0.396296296,-0.242592593,1,0,0,2.2793,Andesite_rect,12,0,12,0,1,
663ab8a4d5bff4596f9a9de7,SCN,2024-06-11_12h11.16.589,LearnStrategy,2023.2.3,Win32,10.91703057,8,2,14,,,,,,,,5,08,,,,,,,,,,,5,1.688,1,,,,,,-0.405555556,-0.396296296,1,0,0,1.6881,Obsidian_rect,13,0,13,0,1,
663ab8a4d5bff4596f9a9de7,SCN,2024-06-11_12h11.16.589,LearnStrategy,2023.2.3,Win32,10.91703057,8,2,15,,,,,,,,5,04,,,,,,,,,,,5,1.62,1,,,,,,-0.398148148,-0.4,1,0,0,1.6195,Obsidian_rect,14,0,14,0,1,
663ab8a4d5bff4596f9a9de7,SCN,2024-06-11_12h11.16.589,LearnStrategy,2023.2.3,Win32,10.91703057,8,2,16,,,,,,,,8,06,,,,,,,,,,,8,2.193,1,,,,,,0.401851852,-0.398148148,1,0,0,2.1934,Pumice_rect,15,0,15,0,1,
663ab8a4d5bff4596f9a9de7,SCN,2024-06-11_12h11.16.589,LearnStrategy,2023.2.3,Win32,10.91703057,9,1,1,-0.548148148,-0.262962963,1,0,0,0.8641,Gabbro_11,4,11,2,1,0.864,0.401851852,-0.256481481,1,0,0,2.7577,Gabbro_rect,4,2.758,1,0,0,0,0,1,,,,,,,,,,,,,
663ab8a4d5bff4596f9a9de7,SCN,2024-06-11_12h11.16.589,LearnStrategy,2023.2.3,Win32,10.91703057,9,1,2,-0.37962963,-0.243518519,1,0,0,1.3438,Diorite_15,3,15,2,2,1.344,0.123148148,-0.255555556,1,0,0,2.1088,Diorite_rect,3,2.109,1,1,0,1,0,1,,,,,,,,,,,,,
663ab8a4d5bff4596f9a9de7,SCN,2024-06-11_12h11.16.589,LearnStrategy,2023.2.3,Win32,10.91703057,9,1,3,-0.241666667,-0.275925926,1,0,0,0.8321,Pegmatite_06,6,06,2,3,0.832,-0.137037037,-0.40462963,1,0,0,1.9759,Pegmatite_rect,6,1.976,1,2,0,2,0,1,,,,,,,,,,,,,
663ab8a4d5bff4596f9a9de7,SCN,2024-06-11_12h11.16.589,LearnStrategy,2023.2.3,Win32,10.91703057,9,1,4,-0.084259259,-0.275925926,1,0,0,0.8638,Andesite_05,1,05,2,4,0.864,-0.406481481,-0.25462963,1,0,0,3.25,Andesite_rect,1,3.25,1,3,0,3,0,1,,,,,,,,,,,,,
663ab8a4d5bff4596f9a9de7,SCN,2024-06-11_12h11.16.589,LearnStrategy,2023.2.3,Win32,10.91703057,9,1,5,0.081481481,-0.275925926,1,0,0,0.646,Obsidian_11,5,11,2,5,0.646,-0.39537037,-0.4,1,0,0,1.5958,Obsidian_rect,5,1.596,1,4,0,4,0,1,,,,,,,,,,,,,
663ab8a4d5bff4596f9a9de7,SCN,2024-06-11_12h11.16.589,LearnStrategy,2023.2.3,Win32,10.91703057,9,1,6,0.244444444,-0.252777778,1,0,0,2.3352,Obsidian_14,5,14,2,6,2.335,-0.401851852,-0.417592593,1,0,0,1.2688,Obsidian_rect,5,1.269,1,5,0,5,0,1,,,,,,,,,,,,,
663ab8a4d5bff4596f9a9de7,SCN,2024-06-11_12h11.16.589,LearnStrategy,2023.2.3,Win32,10.91703057,9,1,7,0.405555556,-0.268518519,1,0,0,0.9814,Peridotite_08,7,08,2,7,0.981,0.125,-0.400925926,1,0,0,1.6965,Peridotite_rect,7,1.697,1,6,0,6,0,1,,,,,,,,,,,,,
663ab8a4d5bff4596f9a9de7,SCN,2024-06-11_12h11.16.589,LearnStrategy,2023.2.3,Win32,10.91703057,9,1,8,0.547222222,-0.271296296,1,0,0,1.6429,Andesite_07,1,07,2,8,1.643,0.106481481,-0.252777778,1,0,0,2.0043,Diorite_rect,3,2.004,0,7,0,7,0,1,,,,,,,,,,,,,
663ab8a4d5bff4596f9a9de7,SCN,2024-06-11_12h11.16.589,LearnStrategy,2023.2.3,Win32,10.91703057,9,1,9,-0.557407407,-0.115740741,1,0,0,1.259,Andesite_02,1,02,3,1,1.259,0.430555556,-0.252777778,1,0,0,4.3857,Gabbro_rect,4,4.386,0,8,0,8,0,1,,,,,,,,,,,,,
663ab8a4d5bff4596f9a9de7,SCN,2024-06-11_12h11.16.589,LearnStrategy,2023.2.3,Win32,10.91703057,9,1,10,-0.374074074,-0.106481481,1,0,0,0.6139,Basalt_12,2,12,3,2,0.614,0.398148148,-0.396296296,1,0,0,2.8703,Pumice_rect,8,2.87,0,9,0,9,0,1,,,,,,,,,,,,,
663ab8a4d5bff4596f9a9de7,SCN,2024-06-11_12h11.16.589,LearnStrategy,2023.2.3,Win32,10.91703057,9,1,11,-0.235185185,-0.097222222,1,0,0,0.7409,Peridotite_10,7,10,3,3,0.741,0.139814815,-0.406481481,1,0,0,1.2997,Peridotite_rect,7,1.3,1,10,0,10,0,1,,,,,,,,,,,,,
663ab8a4d5bff4596f9a9de7,SCN,2024-06-11_12h11.16.589,LearnStrategy,2023.2.3,Win32,10.91703057,9,1,12,-0.087037037,-0.109259259,1,0,0,0.9994,Pumice_02,8,02,3,4,0.999,0.406481481,-0.399074074,1,0,0,1.535,Pumice_rect,8,1.535,1,11,0,11,0,1,,,,,,,,,,,,,
663ab8a4d5bff4596f9a9de7,SCN,2024-06-11_12h11.16.589,LearnStrategy,2023.2.3,Win32,10.91703057,9,1,13,0.067592593,-0.128703704,1,0,0,2.5653,Basalt_16,2,16,3,5,2.565,0.403703704,-0.249074074,1,0,0,1.7359,Gabbro_rect,4,1.736,0,12,0,12,0,1,,,,,,,,,,,,,
663ab8a4d5bff4596f9a9de7,SCN,2024-06-11_12h11.16.589,LearnStrategy,2023.2.3,Win32,10.91703057,9,1,14,0.217592593,-0.12037037,1,0,0,0.7623,Obsidian_09,5,09,3,6,0.762,-0.412962963,-0.398148148,1,0,0,1.0459,Obsidian_rect,5,1.046,1,13,0,13,0,1,,,,,,,,,,,,,
663ab8a4d5bff4596f9a9de7,SCN,2024-06-11_12h11.16.589,LearnStrategy,2023.2.3,Win32,10.91703057,9,1,15,0.406481481,-0.107407407,1,0,0,1.1162,Gabbro_12,4,12,3,7,1.116,0.399074074,-0.250925926,1,0,0,1.3962,Gabbro_rect,4,1.396,1,14,0,14,0,1,,,,,,,,,,,,,
663ab8a4d5bff4596f9a9de7,SCN,2024-06-11_12h11.16.589,LearnStrategy,2023.2.3,Win32,10.91703057,9,1,16,0.54537037,-0.124074074,1,0,0,0.7532,Pegmatite_15,6,15,3,8,0.753,-0.137037037,-0.40462963,1,0,0,1.1458,Pegmatite_rect,6,1.146,1,15,0,15,0,1,,,,,,,,,,,,,
663ab8a4d5bff4596f9a9de7,SCN,2024-06-11_12h11.16.589,LearnStrategy,2023.2.3,Win32,10.91703057,9,2,1,,,,,,,,5,12,,,,,,,,,,,5,1.328,1,,,,,,-0.411111111,-0.407407407,1,0,0,1.3284,Obsidian_rect,0,0,0,0,1,
663ab8a4d5bff4596f9a9de7,SCN,2024-06-11_12h11.16.589,LearnStrategy,2023.2.3,Win32,10.91703057,9,2,2,,,,,,,,4,13,,,,,,,,,,,1,4.436,0,,,,,,-0.400925926,-0.246296296,1,0,0,4.4356,Andesite_rect,1,0,1,0,1,
663ab8a4d5bff4596f9a9de7,SCN,2024-06-11_12h11.16.589,LearnStrategy,2023.2.3,Win32,10.91703057,9,2,3,,,,,,,,6,07,,,,,,,,,,,6,1.725,1,,,,,,-0.131481481,-0.406481481,1,0,0,1.725,Pegmatite_rect,2,0,2,0,1,
663ab8a4d5bff4596f9a9de7,SCN,2024-06-11_12h11.16.589,LearnStrategy,2023.2.3,Win32,10.91703057,9,2,4,,,,,,,,8,10,,,,,,,,,,,8,1.695,1,,,,,,0.391666667,-0.400925926,1,0,0,1.6952,Pumice_rect,3,0,3,0,1,
663ab8a4d5bff4596f9a9de7,SCN,2024-06-11_12h11.16.589,LearnStrategy,2023.2.3,Win32,10.91703057,9,2,5,,,,,,,,8,09,,,,,,,,,,,8,1.323,1,,,,,,0.399074074,-0.406481481,1,0,0,1.3227,Pumice_rect,4,0,4,0,1,
663ab8a4d5bff4596f9a9de7,SCN,2024-06-11_12h11.16.589,LearnStrategy,2023.2.3,Win32,10.91703057,9,2,6,,,,,,,,7,07,,,,,,,,,,,7,1.515,1,,,,,,0.131481481,-0.397222222,1,0,0,1.5151,Peridotite_rect,5,0,5,0,1,
663ab8a4d5bff4596f9a9de7,SCN,2024-06-11_12h11.16.589,LearnStrategy,2023.2.3,Win32,10.91703057,9,2,7,,,,,,,,1,16,,,,,,,,,,,1,2.454,1,,,,,,-0.406481481,-0.248148148,1,0,0,2.4539,Andesite_rect,6,0,6,0,1,
663ab8a4d5bff4596f9a9de7,SCN,2024-06-11_12h11.16.589,LearnStrategy,2023.2.3,Win32,10.91703057,9,2,8,,,,,,,,6,08,,,,,,,,,,,6,2.701,1,,,,,,-0.137037037,-0.393518519,1,0,0,2.7009,Pegmatite_rect,7,0,7,0,1,
663ab8a4d5bff4596f9a9de7,SCN,2024-06-11_12h11.16.589,LearnStrategy,2023.2.3,Win32,10.91703057,9,2,9,,,,,,,,3,14,,,,,,,,,,,3,1.72,1,,,,,,0.124074074,-0.248148148,1,0,0,1.7198,Diorite_rect,8,0,8,0,1,
663ab8a4d5bff4596f9a9de7,SCN,2024-06-11_12h11.16.589,LearnStrategy,2023.2.3,Win32,10.91703057,9,2,10,,,,,,,,2,10,,,,,,,,,,,2,3.035,1,,,,,,-0.140740741,-0.24537037,1,0,0,3.0351,Basalt_rect,9,0,9,0,1,
663ab8a4d5bff4596f9a9de7,SCN,2024-06-11_12h11.16.589,LearnStrategy,2023.2.3,Win32,10.91703057,9,2,11,,,,,,,,1,11,,,,,,,,,,,3,4.078,0,,,,,,0.128703704,-0.252777778,1,0,0,4.0784,Diorite_rect,10,0,10,0,1,
663ab8a4d5bff4596f9a9de7,SCN,2024-06-11_12h11.16.589,LearnStrategy,2023.2.3,Win32,10.91703057,9,2,12,,,,,,,,4,05,,,,,,,,,,,4,7.575,1,,,,,,0.398148148,-0.25,1,0,0,7.5753,Gabbro_rect,11,0,11,0,1,
663ab8a4d5bff4596f9a9de7,SCN,2024-06-11_12h11.16.589,LearnStrategy,2023.2.3,Win32,10.91703057,9,2,13,,,,,,,,3,02,,,,,,,,,,,3,1.992,1,,,,,,0.125925926,-0.253703704,1,0,0,1.9921,Diorite_rect,12,0,12,0,1,
663ab8a4d5bff4596f9a9de7,SCN,2024-06-11_12h11.16.589,LearnStrategy,2023.2.3,Win32,10.91703057,9,2,14,,,,,,,,2,14,,,,,,,,,,,8,1.486,0,,,,,,0.411111111,-0.4,1,0,0,1.4863,Pumice_rect,13,0,13,0,1,
663ab8a4d5bff4596f9a9de7,SCN,2024-06-11_12h11.16.589,LearnStrategy,2023.2.3,Win32,10.91703057,9,2,15,,,,,,,,5,16,,,,,,,,,,,5,1.29,1,,,,,,-0.392592593,-0.402777778,1,0,0,1.2902,Obsidian_rect,14,0,14,0,1,
663ab8a4d5bff4596f9a9de7,SCN,2024-06-11_12h11.16.589,LearnStrategy,2023.2.3,Win32,10.91703057,9,2,16,,,,,,,,7,15,,,,,,,,,,,7,1.222,1,,,,,,0.135185185,-0.390740741,1,0,0,1.2218,Peridotite_rect,15,0,15,0,1,
663ab8a4d5bff4596f9a9de7,SCN,2024-06-11_12h11.16.589,LearnStrategy,2023.2.3,Win32,10.91703057,,,,,,,,,,,,,,,,,,,,,,,,,,,,,,,,,,,,,,,,,,,1
663ab8a4d5bff4596f9a9de7,SCN,2024-06-11_12h11.16.589,LearnStrategy,2023.2.3,Win32,10.91703057,,,,,,,,,,,,,,,,,,,,,,,,,,,,,,,,,,,,,,,,,,,
663ab8a4d5bff4596f9a9de7,SCN,2024-06-11_12h11.16.589,LearnStrategy,2023.2.3,Win32,10.91703057,,,,,,,,,,,8,15,1,1,,,,,,,,,,,,,,,,,,,,,,,,,,,,,
663ab8a4d5bff4596f9a9de7,SCN,2024-06-11_12h11.16.589,LearnStrategy,2023.2.3,Win32,10.91703057,,,,,,,,,,,3,11,1,2,,,,,,,,,,,,,,,,,,,,,,,,,,,,,
663ab8a4d5bff4596f9a9de7,SCN,2024-06-11_12h11.16.589,LearnStrategy,2023.2.3,Win32,10.91703057,,,,,,,,,,,4,10,1,3,,,,,,,,,,,,,,,,,,,,,,,,,,,,,
663ab8a4d5bff4596f9a9de7,SCN,2024-06-11_12h11.16.589,LearnStrategy,2023.2.3,Win32,10.91703057,,,,,,,,,,,1,01,1,4,,,,,,,,,,,,,,,,,,,,,,,,,,,,,
663ab8a4d5bff4596f9a9de7,SCN,2024-06-11_12h11.16.589,LearnStrategy,2023.2.3,Win32,10.91703057,,,,,,,,,,,8,16,1,5,,,,,,,,,,,,,,,,,,,,,,,,,,,,,
663ab8a4d5bff4596f9a9de7,SCN,2024-06-11_12h11.16.589,LearnStrategy,2023.2.3,Win32,10.91703057,,,,,,,,,,,4,09,1,6,,,,,,,,,,,,,,,,,,,,,,,,,,,,,
663ab8a4d5bff4596f9a9de7,SCN,2024-06-11_12h11.16.589,LearnStrategy,2023.2.3,Win32,10.91703057,,,,,,,,,,,3,06,1,7,,,,,,,,,,,,,,,,,,,,,,,,,,,,,
663ab8a4d5bff4596f9a9de7,SCN,2024-06-11_12h11.16.589,LearnStrategy,2023.2.3,Win32,10.91703057,,,,,,,,,,,7,14,1,8,,,,,,,,,,,,,,,,,,,,,,,,,,,,,
663ab8a4d5bff4596f9a9de7,SCN,2024-06-11_12h11.16.589,LearnStrategy,2023.2.3,Win32,10.91703057,,,,,,,,,,,4,11,2,1,,,,,,,,,,,,,,,,,,,,,,,,,,,,,
663ab8a4d5bff4596f9a9de7,SCN,2024-06-11_12h11.16.589,LearnStrategy,2023.2.3,Win32,10.91703057,,,,,,,,,,,3,15,2,2,,,,,,,,,,,,,,,,,,,,,,,,,,,,,
663ab8a4d5bff4596f9a9de7,SCN,2024-06-11_12h11.16.589,LearnStrategy,2023.2.3,Win32,10.91703057,,,,,,,,,,,6,06,2,3,,,,,,,,,,,,,,,,,,,,,,,,,,,,,
663ab8a4d5bff4596f9a9de7,SCN,2024-06-11_12h11.16.589,LearnStrategy,2023.2.3,Win32,10.91703057,,,,,,,,,,,1,05,2,4,,,,,,,,,,,,,,,,,,,,,,,,,,,,,
663ab8a4d5bff4596f9a9de7,SCN,2024-06-11_12h11.16.589,LearnStrategy,2023.2.3,Win32,10.91703057,,,,,,,,,,,5,11,2,5,,,,,,,,,,,,,,,,,,,,,,,,,,,,,
663ab8a4d5bff4596f9a9de7,SCN,2024-06-11_12h11.16.589,LearnStrategy,2023.2.3,Win32,10.91703057,,,,,,,,,,,5,14,2,6,,,,,,,,,,,,,,,,,,,,,,,,,,,,,
663ab8a4d5bff4596f9a9de7,SCN,2024-06-11_12h11.16.589,LearnStrategy,2023.2.3,Win32,10.91703057,,,,,,,,,,,7,08,2,7,,,,,,,,,,,,,,,,,,,,,,,,,,,,,
663ab8a4d5bff4596f9a9de7,SCN,2024-06-11_12h11.16.589,LearnStrategy,2023.2.3,Win32,10.91703057,,,,,,,,,,,1,07,2,8,,,,,,,,,,,,,,,,,,,,,,,,,,,,,
663ab8a4d5bff4596f9a9de7,SCN,2024-06-11_12h11.16.589,LearnStrategy,2023.2.3,Win32,10.91703057,,,,,,,,,,,1,02,3,1,,,,,,,,,,,,,,,,,,,,,,,,,,,,,
663ab8a4d5bff4596f9a9de7,SCN,2024-06-11_12h11.16.589,LearnStrategy,2023.2.3,Win32,10.91703057,,,,,,,,,,,2,12,3,2,,,,,,,,,,,,,,,,,,,,,,,,,,,,,
663ab8a4d5bff4596f9a9de7,SCN,2024-06-11_12h11.16.589,LearnStrategy,2023.2.3,Win32,10.91703057,,,,,,,,,,,7,10,3,3,,,,,,,,,,,,,,,,,,,,,,,,,,,,,
663ab8a4d5bff4596f9a9de7,SCN,2024-06-11_12h11.16.589,LearnStrategy,2023.2.3,Win32,10.91703057,,,,,,,,,,,8,02,3,4,,,,,,,,,,,,,,,,,,,,,,,,,,,,,
663ab8a4d5bff4596f9a9de7,SCN,2024-06-11_12h11.16.589,LearnStrategy,2023.2.3,Win32,10.91703057,,,,,,,,,,,2,16,3,5,,,,,,,,,,,,,,,,,,,,,,,,,,,,,
663ab8a4d5bff4596f9a9de7,SCN,2024-06-11_12h11.16.589,LearnStrategy,2023.2.3,Win32,10.91703057,,,,,,,,,,,5,09,3,6,,,,,,,,,,,,,,,,,,,,,,,,,,,,,
663ab8a4d5bff4596f9a9de7,SCN,2024-06-11_12h11.16.589,LearnStrategy,2023.2.3,Win32,10.91703057,,,,,,,,,,,4,12,3,7,,,,,,,,,,,,,,,,,,,,,,,,,,,,,
663ab8a4d5bff4596f9a9de7,SCN,2024-06-11_12h11.16.589,LearnStrategy,2023.2.3,Win32,10.91703057,,,,,,,,,,,6,15,3,8,,,,,,,,,,,,,,,,,,,,,,,,,,,,,
663ab8a4d5bff4596f9a9de7,SCN,2024-06-11_12h11.16.589,LearnStrategy,2023.2.3,Win32,10.91703057,,,,,,,,,,,4,15,4,1,,,,,,,,,,,,,,,,,,,,,,,,,,,,,
663ab8a4d5bff4596f9a9de7,SCN,2024-06-11_12h11.16.589,LearnStrategy,2023.2.3,Win32,10.91703057,,,,,,,,,,,7,02,4,2,,,,,,,,,,,,,,,,,,,,,,,,,,,,,
663ab8a4d5bff4596f9a9de7,SCN,2024-06-11_12h11.16.589,LearnStrategy,2023.2.3,Win32,10.91703057,,,,,,,,,,,5,06,4,3,,,,,,,,,,,,,,,,,,,,,,,,,,,,,
663ab8a4d5bff4596f9a9de7,SCN,2024-06-11_12h11.16.589,LearnStrategy,2023.2.3,Win32,10.91703057,,,,,,,,,,,8,03,4,4,,,,,,,,,,,,,,,,,,,,,,,,,,,,,
663ab8a4d5bff4596f9a9de7,SCN,2024-06-11_12h11.16.589,LearnStrategy,2023.2.3,Win32,10.91703057,,,,,,,,,,,7,06,4,5,,,,,,,,,,,,,,,,,,,,,,,,,,,,,
663ab8a4d5bff4596f9a9de7,SCN,2024-06-11_12h11.16.589,LearnStrategy,2023.2.3,Win32,10.91703057,,,,,,,,,,,1,03,4,6,,,,,,,,,,,,,,,,,,,,,,,,,,,,,
663ab8a4d5bff4596f9a9de7,SCN,2024-06-11_12h11.16.589,LearnStrategy,2023.2.3,Win32,10.91703057,,,,,,,,,,,2,11,4,7,,,,,,,,,,,,,,,,,,,,,,,,,,,,,
663ab8a4d5bff4596f9a9de7,SCN,2024-06-11_12h11.16.589,LearnStrategy,2023.2.3,Win32,10.91703057,,,,,,,,,,,8,14,4,8,,,,,,,,,,,,,,,,,,,,,,,,,,,,,
663ab8a4d5bff4596f9a9de7,SCN,2024-06-11_12h11.16.589,LearnStrategy,2023.2.3,Win32,10.91703057,,,,,,,,,,,6,09,5,1,,,,,,,,,,,,,,,,,,,,,,,,,,,,,
663ab8a4d5bff4596f9a9de7,SCN,2024-06-11_12h11.16.589,LearnStrategy,2023.2.3,Win32,10.91703057,,,,,,,,,,,5,02,5,2,,,,,,,,,,,,,,,,,,,,,,,,,,,,,
663ab8a4d5bff4596f9a9de7,SCN,2024-06-11_12h11.16.589,LearnStrategy,2023.2.3,Win32,10.91703057,,,,,,,,,,,8,04,5,3,,,,,,,,,,,,,,,,,,,,,,,,,,,,,
663ab8a4d5bff4596f9a9de7,SCN,2024-06-11_12h11.16.589,LearnStrategy,2023.2.3,Win32,10.91703057,,,,,,,,,,,4,01,5,4,,,,,,,,,,,,,,,,,,,,,,,,,,,,,
663ab8a4d5bff4596f9a9de7,SCN,2024-06-11_12h11.16.589,LearnStrategy,2023.2.3,Win32,10.91703057,,,,,,,,,,,2,08,5,5,,,,,,,,,,,,,,,,,,,,,,,,,,,,,
663ab8a4d5bff4596f9a9de7,SCN,2024-06-11_12h11.16.589,LearnStrategy,2023.2.3,Win32,10.91703057,,,,,,,,,,,6,11,5,6,,,,,,,,,,,,,,,,,,,,,,,,,,,,,
663ab8a4d5bff4596f9a9de7,SCN,2024-06-11_12h11.16.589,LearnStrategy,2023.2.3,Win32,10.91703057,,,,,,,,,,,5,05,5,7,,,,,,,,,,,,,,,,,,,,,,,,,,,,,
663ab8a4d5bff4596f9a9de7,SCN,2024-06-11_12h11.16.589,LearnStrategy,2023.2.3,Win32,10.91703057,,,,,,,,,,,2,06,5,8,,,,,,,,,,,,,,,,,,,,,,,,,,,,,
663ab8a4d5bff4596f9a9de7,SCN,2024-06-11_12h11.16.589,LearnStrategy,2023.2.3,Win32,10.91703057,,,,,,,,,,,2,01,6,1,,,,,,,,,,,,,,,,,,,,,,,,,,,,,
663ab8a4d5bff4596f9a9de7,SCN,2024-06-11_12h11.16.589,LearnStrategy,2023.2.3,Win32,10.91703057,,,,,,,,,,,6,13,6,2,,,,,,,,,,,,,,,,,,,,,,,,,,,,,
663ab8a4d5bff4596f9a9de7,SCN,2024-06-11_12h11.16.589,LearnStrategy,2023.2.3,Win32,10.91703057,,,,,,,,,,,1,09,6,3,,,,,,,,,,,,,,,,,,,,,,,,,,,,,
663ab8a4d5bff4596f9a9de7,SCN,2024-06-11_12h11.16.589,LearnStrategy,2023.2.3,Win32,10.91703057,,,,,,,,,,,3,10,6,4,,,,,,,,,,,,,,,,,,,,,,,,,,,,,
663ab8a4d5bff4596f9a9de7,SCN,2024-06-11_12h11.16.589,LearnStrategy,2023.2.3,Win32,10.91703057,,,,,,,,,,,3,09,6,5,,,,,,,,,,,,,,,,,,,,,,,,,,,,,
663ab8a4d5bff4596f9a9de7,SCN,2024-06-11_12h11.16.589,LearnStrategy,2023.2.3,Win32,10.91703057,,,,,,,,,,,7,04,6,6,,,,,,,,,,,,,,,,,,,,,,,,,,,,,
663ab8a4d5bff4596f9a9de7,SCN,2024-06-11_12h11.16.589,LearnStrategy,2023.2.3,Win32,10.91703057,,,,,,,,,,,3,16,6,7,,,,,,,,,,,,,,,,,,,,,,,,,,,,,
663ab8a4d5bff4596f9a9de7,SCN,2024-06-11_12h11.16.589,LearnStrategy,2023.2.3,Win32,10.91703057,,,,,,,,,,,6,12,6,8,,,,,,,,,,,,,,,,,,,,,,,,,,,,,