participant,condition,date,expName,psychopyVersion,OS,frameRate,block,phase,trial,learn_mouse_2.x,learn_mouse_2.y,learn_mouse_2.leftButton,learn_mouse_2.midButton,learn_mouse_2.rightButton,learn_mouse_2.time,learn_mouse_2.clicked_name,cat,token,row,col,t_select,cat_mouse_l.x,cat_mouse_l.y,cat_mouse_l.leftButton,cat_mouse_l.midButton,cat_mouse_l.rightButton,cat_mouse_l.time,cat_mouse_l.clicked_name,resp,t_resp,corr,train_trials.thisRepN,train_trials.thisTrialN,train_trials.thisN,train_trials.thisIndex,train_trials.ran,cat_mouse_t.x,cat_mouse_t.y,cat_mouse_t.leftButton,cat_mouse_t.midButton,cat_mouse_t.rightButton,cat_mouse_t.time,cat_mouse_t.clicked_name,test_trials.thisRepN,test_trials.thisTrialN,test_trials.thisN,test_trials.thisIndex,test_trials.ran,Bonus
663a90889439f93f09466d51,TCR,2024-06-25_14h41.18.926,LearnStrategy,2023.2.3,MacIntel,60.24096386,,,,,,,,,,,,,,,,,,,,,,,,,,,,,,,,,,,,,,,,,,,
663a90889439f93f09466d51,TCR,2024-06-25_14h41.18.926,LearnStrategy,2023.2.3,MacIntel,60.24096386,1,1,1,0.041302083,-0.006944444,1,0,0,1.7385,rock_grid_rect_2,7,02,-1,-1,1.739,-0.31296875,-0.250646701,1,0,0,2.6543,Andesite_rect,1,2.654,0,0,0,0,0,1,,,,,,,,,,,,,
663a90889439f93f09466d51,TCR,2024-06-25_14h41.18.926,LearnStrategy,2023.2.3,MacIntel,60.24096386,1,1,2,0.005585937,-0.009019097,1,0,0,2.2358,rock_grid_rect_2,4,01,-1,-1,2.236,-0.115078125,-0.252287326,1,0,0,2.4247,Basalt_rect,2,2.425,0,1,0,1,0,1,,,,,,,,,,,,,
663a90889439f93f09466d51,TCR,2024-06-25_14h41.18.926,LearnStrategy,2023.2.3,MacIntel,60.24096386,1,1,3,0.015095486,-0.013841146,1,0,0,1.0043,rock_grid_rect_2,8,08,-1,-1,1.004,0.374110243,-0.413706597,1,0,0,2.4765,Pumice_rect,8,2.477,1,2,0,2,0,1,,,,,,,,,,,,,
663a90889439f93f09466d51,TCR,2024-06-25_14h41.18.926,LearnStrategy,2023.2.3,MacIntel,60.24096386,1,1,4,0.082899306,-0.021315104,1,0,0,0.932,rock_grid_rect_2,4,12,-1,-1,0.932,-0.117569444,-0.248541667,1,0,0,1.7589,Basalt_rect,2,1.759,0,3,0,3,0,1,,,,,,,,,,,,,
663a90889439f93f09466d51,TCR,2024-06-25_14h41.18.926,LearnStrategy,2023.2.3,MacIntel,60.24096386,1,1,5,0.046059028,-0.002230903,1,0,0,0.7209,rock_grid_rect_2,1,11,-1,-1,0.721,0.110351563,-0.25719184,1,0,0,1.9749,Diorite_rect,3,1.975,0,4,0,4,0,1,,,,,,,,,,,,,
663a90889439f93f09466d51,TCR,2024-06-25_14h41.18.926,LearnStrategy,2023.2.3,MacIntel,60.24096386,1,1,6,0.041844618,0.00546441,1,0,0,0.9481,rock_grid_rect_2,3,12,-1,-1,0.948,-0.180381944,-0.380460069,1,0,0,1.7583,Pegmatite_rect,6,1.758,0,5,0,5,0,1,,,,,,,,,,,,,
663a90889439f93f09466d51,TCR,2024-06-25_14h41.18.926,LearnStrategy,2023.2.3,MacIntel,60.24096386,1,1,7,-0.04015191,0.008216146,1,0,0,1.2149,rock_grid_rect_2,5,05,-1,-1,1.215,-0.347690972,-0.398645833,1,0,0,6.5419,Obsidian_rect,5,6.542,1,6,0,6,0,1,,,,,,,,,,,,,
663a90889439f93f09466d51,TCR,2024-06-25_14h41.18.926,LearnStrategy,2023.2.3,MacIntel,60.24096386,1,1,8,0.053867187,0.00594184,1,0,0,0.8818,rock_grid_rect_2,2,12,-1,-1,0.882,-0.362148437,-0.230694444,1,0,0,1.9267,Andesite_rect,1,1.927,0,7,0,7,0,1,,,,,,,,,,,,,
663a90889439f93f09466d51,TCR,2024-06-25_14h41.18.926,LearnStrategy,2023.2.3,MacIntel,60.24096386,1,1,9,0.10078559,-0.009765625,1,0,0,1.1993,rock_grid_rect_2,3,07,-1,-1,1.199,-0.322482639,-0.249778646,1,0,0,3.5265,Andesite_rect,1,3.526,0,8,0,8,0,1,,,,,,,,,,,,,
663a90889439f93f09466d51,TCR,2024-06-25_14h41.18.926,LearnStrategy,2023.2.3,MacIntel,60.24096386,1,1,10,0.02046875,0.01499566,1,0,0,0.848,rock_grid_rect_2,6,07,-1,-1,0.848,0.11265625,-0.399696181,1,0,0,3.5756,Peridotite_rect,7,3.576,0,9,0,9,0,1,,,,,,,,,,,,,
663a90889439f93f09466d51,TCR,2024-06-25_14h41.18.926,LearnStrategy,2023.2.3,MacIntel,60.24096386,1,1,11,0.121115451,-0.017921007,1,0,0,0.7827,rock_grid_rect_2,1,06,-1,-1,0.783,0.324661458,-0.237417535,1,0,0,1.8757,Gabbro_rect,4,1.876,0,10,0,10,0,1,,,,,,,,,,,,,
663a90889439f93f09466d51,TCR,2024-06-25_14h41.18.926,LearnStrategy,2023.2.3,MacIntel,60.24096386,1,1,12,0.13750434,-0.016610243,1,0,0,0.8816,rock_grid_rect_2,2,05,-1,-1,0.882,-0.148168403,-0.268142361,1,0,0,4.8452,Basalt_rect,2,4.845,1,11,0,11,0,1,,,,,,,,,,,,,
663a90889439f93f09466d51,TCR,2024-06-25_14h41.18.926,LearnStrategy,2023.2.3,MacIntel,60.24096386,1,1,13,0.029973958,-0.001514757,1,0,0,0.8809,rock_grid_rect_2,5,10,-1,-1,0.881,-0.408085937,-0.404079861,1,0,0,2.225,Obsidian_rect,5,2.225,1,12,0,12,0,1,,,,,,,,,,,,,
663a90889439f93f09466d51,TCR,2024-06-25_14h41.18.926,LearnStrategy,2023.2.3,MacIntel,60.24096386,1,1,14,0.019236111,-0.012764757,1,0,0,0.6478,rock_grid_rect_2,6,09,-1,-1,0.648,-0.111753472,-0.413424479,1,0,0,10.3458,Pegmatite_rect,6,10.346,1,13,0,13,0,1,,,,,,,,,,,,,
663a90889439f93f09466d51,TCR,2024-06-25_14h41.18.926,LearnStrategy,2023.2.3,MacIntel,60.24096386,1,1,15,0.023350694,-0.010729167,1,0,0,0.8979,rock_grid_rect_2,8,13,-1,-1,0.898,0.345868056,-0.378068576,1,0,0,1.8936,Pumice_rect,8,1.894,1,14,0,14,0,1,,,,,,,,,,,,,
663a90889439f93f09466d51,TCR,2024-06-25_14h41.18.926,LearnStrategy,2023.2.3,MacIntel,60.24096386,1,1,16,0.113619792,-0.012877604,1,0,0,0.7317,rock_grid_rect_2,7,13,-1,-1,0.732,0.093164063,-0.404084201,1,0,0,1.7604,Peridotite_rect,7,1.76,1,15,0,15,0,1,,,,,,,,,,,,,
663a90889439f93f09466d51,TCR,2024-06-25_14h41.18.926,LearnStrategy,2023.2.3,MacIntel,60.24096386,1,2,1,,,,,,,,3,09,,,,,,,,,,,3,8.809,1,,,,,,0.153732639,-0.270928819,1,0,0,8.8088,Diorite_rect,0,0,0,0,1,
663a90889439f93f09466d51,TCR,2024-06-25_14h41.18.926,LearnStrategy,2023.2.3,MacIntel,60.24096386,1,2,2,,,,,,,,2,02,,,,,,,,,,,2,2.54,1,,,,,,-0.072309028,-0.240855035,1,0,0,2.5397,Basalt_rect,1,0,1,0,1,
663a90889439f93f09466d51,TCR,2024-06-25_14h41.18.926,LearnStrategy,2023.2.3,MacIntel,60.24096386,1,2,3,,,,,,,,3,10,,,,,,,,,,,1,8.258,0,,,,,,-0.306692708,-0.259045139,1,0,0,8.258,Andesite_rect,2,0,2,0,1,
663a90889439f93f09466d51,TCR,2024-06-25_14h41.18.926,LearnStrategy,2023.2.3,MacIntel,60.24096386,1,2,4,,,,,,,,6,11,,,,,,,,,,,4,6.942,0,,,,,,0.361809896,-0.258958333,1,0,0,6.942,Gabbro_rect,3,0,3,0,1,
663a90889439f93f09466d51,TCR,2024-06-25_14h41.18.926,LearnStrategy,2023.2.3,MacIntel,60.24096386,1,2,5,,,,,,,,4,11,,,,,,,,,,,2,2.19,0,,,,,,-0.095082465,-0.240460069,1,0,0,2.1904,Basalt_rect,4,0,4,0,1,
663a90889439f93f09466d51,TCR,2024-06-25_14h41.18.926,LearnStrategy,2023.2.3,MacIntel,60.24096386,1,2,6,,,,,,,,8,14,,,,,,,,,,,8,2.438,1,,,,,,0.34921875,-0.402009549,1,0,0,2.438,Pumice_rect,5,0,5,0,1,
663a90889439f93f09466d51,TCR,2024-06-25_14h41.18.926,LearnStrategy,2023.2.3,MacIntel,60.24096386,1,2,7,,,,,,,,6,06,,,,,,,,,,,4,4.227,0,,,,,,0.312890625,-0.245525174,1,0,0,4.2269,Gabbro_rect,6,0,6,0,1,
663a90889439f93f09466d51,TCR,2024-06-25_14h41.18.926,LearnStrategy,2023.2.3,MacIntel,60.24096386,1,2,8,,,,,,,,7,07,,,,,,,,,,,7,2.974,1,,,,,,0.086935764,-0.408142361,1,0,0,2.9737,Peridotite_rect,7,0,7,0,1,
663a90889439f93f09466d51,TCR,2024-06-25_14h41.18.926,LearnStrategy,2023.2.3,MacIntel,60.24096386,1,2,9,,,,,,,,5,02,,,,,,,,,,,5,0.958,1,,,,,,-0.429440104,-0.389887153,1,0,0,0.9585,Obsidian_rect,8,0,8,0,1,
663a90889439f93f09466d51,TCR,2024-06-25_14h41.18.926,LearnStrategy,2023.2.3,MacIntel,60.24096386,1,2,10,,,,,,,,5,11,,,,,,,,,,,5,0.875,1,,,,,,-0.364882812,-0.381349826,1,0,0,0.8746,Obsidian_rect,9,0,9,0,1,
663a90889439f93f09466d51,TCR,2024-06-25_14h41.18.926,LearnStrategy,2023.2.3,MacIntel,60.24096386,1,2,11,,,,,,,,7,10,,,,,,,,,,,7,1.407,1,,,,,,0.089001736,-0.380703125,1,0,0,1.407,Peridotite_rect,10,0,10,0,1,
663a90889439f93f09466d51,TCR,2024-06-25_14h41.18.926,LearnStrategy,2023.2.3,MacIntel,60.24096386,1,2,12,,,,,,,,4,09,,,,,,,,,,,3,2.676,0,,,,,,0.124639757,-0.257248264,1,0,0,2.6757,Diorite_rect,11,0,11,0,1,
663a90889439f93f09466d51,TCR,2024-06-25_14h41.18.926,LearnStrategy,2023.2.3,MacIntel,60.24096386,1,2,13,,,,,,,,2,16,,,,,,,,,,,4,3.227,0,,,,,,0.366501736,-0.247777778,1,0,0,3.2267,Gabbro_rect,12,0,12,0,1,
663a90889439f93f09466d51,TCR,2024-06-25_14h41.18.926,LearnStrategy,2023.2.3,MacIntel,60.24096386,1,2,14,,,,,,,,8,10,,,,,,,,,,,8,1.341,1,,,,,,0.359704861,-0.39656684,1,0,0,1.3412,Pumice_rect,13,0,13,0,1,
663a90889439f93f09466d51,TCR,2024-06-25_14h41.18.926,LearnStrategy,2023.2.3,MacIntel,60.24096386,1,2,15,,,,,,,,1,04,,,,,,,,,,,1,1.974,1,,,,,,-0.375212674,-0.262886285,1,0,0,1.9739,Andesite_rect,14,0,14,0,1,
663a90889439f93f09466d51,TCR,2024-06-25_14h41.18.926,LearnStrategy,2023.2.3,MacIntel,60.24096386,1,2,16,,,,,,,,1,01,,,,,,,,,,,4,3.226,0,,,,,,0.373133681,-0.24875,1,0,0,3.2265,Gabbro_rect,15,0,15,0,1,
663a90889439f93f09466d51,TCR,2024-06-25_14h41.18.926,LearnStrategy,2023.2.3,MacIntel,60.24096386,2,1,1,0.000755208,-0.010425347,1,0,0,0.9974,rock_grid_rect_2,4,01,-1,-1,0.997,-0.320542535,-0.257421875,1,0,0,5.0093,Andesite_rect,1,5.009,0,0,0,0,0,1,,,,,,,,,,,,,
663a90889439f93f09466d51,TCR,2024-06-25_14h41.18.926,LearnStrategy,2023.2.3,MacIntel,60.24096386,2,1,2,0.029539931,-0.023567708,1,0,0,0.8977,rock_grid_rect_2,8,15,-1,-1,0.898,0.380907118,-0.393615451,1,0,0,1.0762,Pumice_rect,8,1.076,1,1,0,1,0,1,,,,,,,,,,,,,
663a90889439f93f09466d51,TCR,2024-06-25_14h41.18.926,LearnStrategy,2023.2.3,MacIntel,60.24096386,2,1,3,0.060980903,-0.018407118,1,0,0,0.715,rock_grid_rect_2,4,13,-1,-1,0.715,0.082573785,-0.238997396,1,0,0,2.1794,Diorite_rect,3,2.179,0,2,0,2,0,1,,,,,,,,,,,,,
663a90889439f93f09466d51,TCR,2024-06-25_14h41.18.926,LearnStrategy,2023.2.3,MacIntel,60.24096386,2,1,4,0.107057292,-0.015355903,1,0,0,0.8308,rock_grid_rect_2,6,15,-1,-1,0.831,-0.329361979,-0.259075521,1,0,0,1.3939,Andesite_rect,1,1.394,0,3,0,3,0,1,,,,,,,,,,,,,
663a90889439f93f09466d51,TCR,2024-06-25_14h41.18.926,LearnStrategy,2023.2.3,MacIntel,60.24096386,2,1,5,0.043346354,-0.006627604,1,0,0,0.7709,rock_grid_rect_2,1,10,-1,-1,0.771,0.382243924,-0.254973958,1,0,0,1.959,Gabbro_rect,4,1.959,0,4,0,4,0,1,,,,,,,,,,,,,
663a90889439f93f09466d51,TCR,2024-06-25_14h41.18.926,LearnStrategy,2023.2.3,MacIntel,60.24096386,2,1,6,0.099657118,-0.018945312,1,0,0,0.6828,rock_grid_rect_2,4,08,-1,-1,0.683,-0.084978299,-0.392960069,1,0,0,2.0737,Pegmatite_rect,6,2.074,0,5,0,5,0,1,,,,,,,,,,,,,
663a90889439f93f09466d51,TCR,2024-06-25_14h41.18.926,LearnStrategy,2023.2.3,MacIntel,60.24096386,2,1,7,0.116449653,0.020013021,1,0,0,0.6473,rock_grid_rect_2,6,16,-1,-1,0.647,0.081918403,-0.25296875,1,0,0,1.5091,Diorite_rect,3,1.509,0,6,0,6,0,1,,,,,,,,,,,,,
663a90889439f93f09466d51,TCR,2024-06-25_14h41.18.926,LearnStrategy,2023.2.3,MacIntel,60.24096386,2,1,8,0.066805556,0.005451389,1,0,0,0.9316,rock_grid_rect_2,1,14,-1,-1,0.932,0.142842882,-0.252083333,1,0,0,4.1769,Diorite_rect,3,4.177,0,7,0,7,0,1,,,,,,,,,,,,,
663a90889439f93f09466d51,TCR,2024-06-25_14h41.18.926,LearnStrategy,2023.2.3,MacIntel,60.24096386,2,1,9,0.093528646,-0.024835069,1,0,0,0.8146,rock_grid_rect_2,4,08,-1,-1,0.815,0.346484375,-0.24937934,1,0,0,2.0933,Gabbro_rect,4,2.093,1,8,0,8,0,1,,,,,,,,,,,,,
663a90889439f93f09466d51,TCR,2024-06-25_14h41.18.926,LearnStrategy,2023.2.3,MacIntel,60.24096386,2,1,10,0.112790799,-0.005195313,1,0,0,0.7806,rock_grid_rect_2,6,12,-1,-1,0.781,-0.162703993,-0.419704861,1,0,0,2.4092,Pegmatite_rect,6,2.409,1,9,0,9,0,1,,,,,,,,,,,,,
663a90889439f93f09466d51,TCR,2024-06-25_14h41.18.926,LearnStrategy,2023.2.3,MacIntel,60.24096386,2,1,11,0.041961806,-0.0040625,1,0,0,0.7482,rock_grid_rect_2,2,04,-1,-1,0.748,-0.132326389,-0.24437934,1,0,0,1.1261,Basalt_rect,2,1.126,1,10,0,10,0,1,,,,,,,,,,,,,
663a90889439f93f09466d51,TCR,2024-06-25_14h41.18.926,LearnStrategy,2023.2.3,MacIntel,60.24096386,2,1,12,0.039882813,-0.002521701,1,0,0,0.6652,rock_grid_rect_2,3,02,-1,-1,0.665,-0.333138021,-0.253945313,1,0,0,2.6258,Andesite_rect,1,2.626,0,11,0,11,0,1,,,,,,,,,,,,,
663a90889439f93f09466d51,TCR,2024-06-25_14h41.18.926,LearnStrategy,2023.2.3,MacIntel,60.24096386,2,1,13,0.021627604,-0.017860243,1,0,0,0.6477,rock_grid_rect_2,4,16,-1,-1,0.648,-0.089704861,-0.23656684,1,0,0,1.7761,Basalt_rect,2,1.776,0,12,0,12,0,1,,,,,,,,,,,,,
663a90889439f93f09466d51,TCR,2024-06-25_14h41.18.926,LearnStrategy,2023.2.3,MacIntel,60.24096386,2,1,14,0.081419271,-0.005577257,1,0,0,0.7985,rock_grid_rect_2,2,12,-1,-1,0.798,0.381519097,-0.383624132,1,0,0,1.0257,Pumice_rect,8,1.026,0,13,0,13,0,1,,,,,,,,,,,,,
663a90889439f93f09466d51,TCR,2024-06-25_14h41.18.926,LearnStrategy,2023.2.3,MacIntel,60.24096386,2,1,15,0.065164931,-0.011180556,1,0,0,0.7155,rock_grid_rect_2,6,05,-1,-1,0.716,-0.080924479,-0.387165799,1,0,0,2.042,Pegmatite_rect,6,2.042,1,14,0,14,0,1,,,,,,,,,,,,,
663a90889439f93f09466d51,TCR,2024-06-25_14h41.18.926,LearnStrategy,2023.2.3,MacIntel,60.24096386,2,1,16,0.057782118,0.013719618,1,0,0,0.665,rock_grid_rect_2,3,12,-1,-1,0.665,0.350460069,-0.263914931,1,0,0,5.1105,Gabbro_rect,4,5.111,0,15,0,15,0,1,,,,,,,,,,,,,
663a90889439f93f09466d51,TCR,2024-06-25_14h41.18.926,LearnStrategy,2023.2.3,MacIntel,60.24096386,2,2,1,,,,,,,,5,08,,,,,,,,,,,5,1.139,1,,,,,,-0.366996528,-0.412313368,1,0,0,1.1391,Obsidian_rect,0,0,0,0,1,
663a90889439f93f09466d51,TCR,2024-06-25_14h41.18.926,LearnStrategy,2023.2.3,MacIntel,60.24096386,2,2,2,,,,,,,,5,06,,,,,,,,,,,5,1.323,1,,,,,,-0.371167535,-0.41202691,1,0,0,1.3233,Obsidian_rect,1,0,1,0,1,
663a90889439f93f09466d51,TCR,2024-06-25_14h41.18.926,LearnStrategy,2023.2.3,MacIntel,60.24096386,2,2,3,,,,,,,,2,11,,,,,,,,,,,8,2.391,0,,,,,,0.41516059,-0.41016059,1,0,0,2.3914,Pumice_rect,2,0,2,0,1,
663a90889439f93f09466d51,TCR,2024-06-25_14h41.18.926,LearnStrategy,2023.2.3,MacIntel,60.24096386,2,2,4,,,,,,,,1,05,,,,,,,,,,,1,1.657,1,,,,,,-0.386966146,-0.253454861,1,0,0,1.6568,Andesite_rect,3,0,3,0,1,
663a90889439f93f09466d51,TCR,2024-06-25_14h41.18.926,LearnStrategy,2023.2.3,MacIntel,60.24096386,2,2,5,,,,,,,,8,04,,,,,,,,,,,8,1.291,1,,,,,,0.369752604,-0.393411458,1,0,0,1.2909,Pumice_rect,4,0,4,0,1,
663a90889439f93f09466d51,TCR,2024-06-25_14h41.18.926,LearnStrategy,2023.2.3,MacIntel,60.24096386,2,2,6,,,,,,,,3,06,,,,,,,,,,,4,2.841,0,,,,,,0.41734375,-0.240824653,1,0,0,2.8414,Gabbro_rect,5,0,5,0,1,
663a90889439f93f09466d51,TCR,2024-06-25_14h41.18.926,LearnStrategy,2023.2.3,MacIntel,60.24096386,2,2,7,,,,,,,,7,16,,,,,,,,,,,7,2.308,1,,,,,,0.089969618,-0.388064236,1,0,0,2.3081,Peridotite_rect,6,0,6,0,1,
663a90889439f93f09466d51,TCR,2024-06-25_14h41.18.926,LearnStrategy,2023.2.3,MacIntel,60.24096386,2,2,8,,,,,,,,6,03,,,,,,,,,,,6,1.224,1,,,,,,-0.146588542,-0.396636285,1,0,0,1.2245,Pegmatite_rect,7,0,7,0,1,
663a90889439f93f09466d51,TCR,2024-06-25_14h41.18.926,LearnStrategy,2023.2.3,MacIntel,60.24096386,2,2,9,,,,,,,,4,03,,,,,,,,,,,4,1.525,1,,,,,,0.350490451,-0.246106771,1,0,0,1.5251,Gabbro_rect,8,0,8,0,1,
663a90889439f93f09466d51,TCR,2024-06-25_14h41.18.926,LearnStrategy,2023.2.3,MacIntel,60.24096386,2,2,10,,,,,,,,8,05,,,,,,,,,,,8,1.409,1,,,,,,0.331041667,-0.384266493,1,0,0,1.409,Pumice_rect,9,0,9,0,1,
663a90889439f93f09466d51,TCR,2024-06-25_14h41.18.926,LearnStrategy,2023.2.3,MacIntel,60.24096386,2,2,11,,,,,,,,1,09,,,,,,,,,,,1,2.36,1,,,,,,-0.345277778,-0.252044271,1,0,0,2.3596,Andesite_rect,10,0,10,0,1,
663a90889439f93f09466d51,TCR,2024-06-25_14h41.18.926,LearnStrategy,2023.2.3,MacIntel,60.24096386,2,2,12,,,,,,,,6,08,,,,,,,,,,,6,1.475,1,,,,,,-0.171449653,-0.40234809,1,0,0,1.4752,Pegmatite_rect,11,0,11,0,1,
663a90889439f93f09466d51,TCR,2024-06-25_14h41.18.926,LearnStrategy,2023.2.3,MacIntel,60.24096386,2,2,13,,,,,,,,2,09,,,,,,,,,,,2,1.726,1,,,,,,-0.118237847,-0.251666667,1,0,0,1.7257,Basalt_rect,12,0,12,0,1,
663a90889439f93f09466d51,TCR,2024-06-25_14h41.18.926,LearnStrategy,2023.2.3,MacIntel,60.24096386,2,2,14,,,,,,,,3,15,,,,,,,,,,,4,3.707,0,,,,,,0.349518229,-0.253810764,1,0,0,3.707,Gabbro_rect,13,0,13,0,1,
663a90889439f93f09466d51,TCR,2024-06-25_14h41.18.926,LearnStrategy,2023.2.3,MacIntel,60.24096386,2,2,15,,,,,,,,4,10,,,,,,,,,,,4,1.608,1,,,,,,0.344422743,-0.262369792,1,0,0,1.6085,Gabbro_rect,14,0,14,0,1,
663a90889439f93f09466d51,TCR,2024-06-25_14h41.18.926,LearnStrategy,2023.2.3,MacIntel,60.24096386,2,2,16,,,,,,,,7,05,,,,,,,,,,,7,3.033,1,,,,,,0.111840278,-0.400134549,1,0,0,3.033,Peridotite_rect,15,0,15,0,1,
663a90889439f93f09466d51,TCR,2024-06-25_14h41.18.926,LearnStrategy,2023.2.3,MacIntel,60.24096386,3,1,1,0.006653646,-0.005021701,1,0,0,1.098,rock_grid_rect_2,4,15,-1,-1,1.098,0.329674479,-0.244079861,1,0,0,1.958,Gabbro_rect,4,1.958,1,0,0,0,0,1,,,,,,,,,,,,,
663a90889439f93f09466d51,TCR,2024-06-25_14h41.18.926,LearnStrategy,2023.2.3,MacIntel,60.24096386,3,1,2,0.046362847,0.015056424,1,0,0,0.8637,rock_grid_rect_2,6,09,-1,-1,0.864,-0.141675347,-0.417799479,1,0,0,1.4101,Pegmatite_rect,6,1.41,1,1,0,1,0,1,,,,,,,,,,,,,
663a90889439f93f09466d51,TCR,2024-06-25_14h41.18.926,LearnStrategy,2023.2.3,MacIntel,60.24096386,3,1,3,0.070950521,-0.013337674,1,0,0,0.865,rock_grid_rect_2,4,08,-1,-1,0.865,0.127005208,-0.238815104,1,0,0,1.3588,Diorite_rect,3,1.359,0,2,0,2,0,1,,,,,,,,,,,,,
663a90889439f93f09466d51,TCR,2024-06-25_14h41.18.926,LearnStrategy,2023.2.3,MacIntel,60.24096386,3,1,4,0.136263021,-0.003836806,1,0,0,0.8155,rock_grid_rect_2,3,16,-1,-1,0.815,0.141744792,-0.229166667,1,0,0,1.0087,Diorite_rect,3,1.009,1,3,0,3,0,1,,,,,,,,,,,,,
663a90889439f93f09466d51,TCR,2024-06-25_14h41.18.926,LearnStrategy,2023.2.3,MacIntel,60.24096386,3,1,5,0.094444444,0.003971354,1,0,0,0.6323,rock_grid_rect_2,4,16,-1,-1,0.632,-0.081145833,-0.257118056,1,0,0,1.726,Basalt_rect,2,1.726,0,4,0,4,0,1,,,,,,,,,,,,,
663a90889439f93f09466d51,TCR,2024-06-25_14h41.18.926,LearnStrategy,2023.2.3,MacIntel,60.24096386,3,1,6,0.059318576,-0.01078559,1,0,0,0.8158,rock_grid_rect_2,6,12,-1,-1,0.816,-0.125373264,-0.396727431,1,0,0,1.2592,Pegmatite_rect,6,1.259,1,5,0,5,0,1,,,,,,,,,,,,,
663a90889439f93f09466d51,TCR,2024-06-25_14h41.18.926,LearnStrategy,2023.2.3,MacIntel,60.24096386,3,1,7,0.077044271,-0.000564236,1,0,0,0.6991,rock_grid_rect_2,5,05,-1,-1,0.699,-0.349921875,-0.396085069,1,0,0,1.7635,Obsidian_rect,5,1.764,1,6,0,6,0,1,,,,,,,,,,,,,
663a90889439f93f09466d51,TCR,2024-06-25_14h41.18.926,LearnStrategy,2023.2.3,MacIntel,60.24096386,3,1,8,0.039696181,-0.006132813,1,0,0,0.964,rock_grid_rect_2,7,12,-1,-1,0.964,0.144921875,-0.411684028,1,0,0,1.2613,Peridotite_rect,7,1.261,1,7,0,7,0,1,,,,,,,,,,,,,
663a90889439f93f09466d51,TCR,2024-06-25_14h41.18.926,LearnStrategy,2023.2.3,MacIntel,60.24096386,3,1,9,0.090230035,0.013697917,1,0,0,0.699,rock_grid_rect_2,8,16,-1,-1,0.699,0.366979167,-0.40312066,1,0,0,1.2259,Pumice_rect,8,1.226,1,8,0,8,0,1,,,,,,,,,,,,,
663a90889439f93f09466d51,TCR,2024-06-25_14h41.18.926,LearnStrategy,2023.2.3,MacIntel,60.24096386,3,1,10,0.059982639,0.004813368,1,0,0,0.7806,rock_grid_rect_2,3,07,-1,-1,0.781,0.172847222,-0.271328125,1,0,0,2.0279,Diorite_rect,3,2.028,1,9,0,9,0,1,,,,,,,,,,,,,
663a90889439f93f09466d51,TCR,2024-06-25_14h41.18.926,LearnStrategy,2023.2.3,MacIntel,60.24096386,3,1,11,0.01406684,-0.017682292,1,0,0,1.6967,rock_grid_rect_2,2,08,-1,-1,1.697,-0.121345486,-0.236453993,1,0,0,2.1781,Basalt_rect,2,2.178,1,10,0,10,0,1,,,,,,,,,,,,,
663a90889439f93f09466d51,TCR,2024-06-25_14h41.18.926,LearnStrategy,2023.2.3,MacIntel,60.24096386,3,1,12,0.025868056,-0.012517361,1,0,0,0.5148,rock_grid_rect_2,3,07,-1,-1,0.515,0.10625434,-0.236215278,1,0,0,1.9754,Diorite_rect,3,1.975,1,11,0,11,0,1,,,,,,,,,,,,,
663a90889439f93f09466d51,TCR,2024-06-25_14h41.18.926,LearnStrategy,2023.2.3,MacIntel,60.24096386,3,1,13,0.067230903,0.003693576,1,0,0,0.6137,rock_grid_rect_2,3,13,-1,-1,0.614,0.127408854,-0.228480903,1,0,0,0.9113,Diorite_rect,3,0.911,1,12,0,12,0,1,,,,,,,,,,,,,
663a90889439f93f09466d51,TCR,2024-06-25_14h41.18.926,LearnStrategy,2023.2.3,MacIntel,60.24096386,3,1,14,0.066792535,0.008780382,1,0,0,0.482,rock_grid_rect_2,2,04,-1,-1,0.482,-0.088927951,-0.231697049,1,0,0,0.841,Basalt_rect,2,0.841,1,13,0,13,0,1,,,,,,,,,,,,,
663a90889439f93f09466d51,TCR,2024-06-25_14h41.18.926,LearnStrategy,2023.2.3,MacIntel,60.24096386,3,1,15,0.038502604,-0.021397569,1,0,0,0.5147,rock_grid_rect_2,2,05,-1,-1,0.515,-0.071059028,-0.237560764,1,0,0,0.86,Basalt_rect,2,0.86,1,14,0,14,0,1,,,,,,,,,,,,,
663a90889439f93f09466d51,TCR,2024-06-25_14h41.18.926,LearnStrategy,2023.2.3,MacIntel,60.24096386,3,1,16,-0.009557292,0.000225694,1,0,0,0.4477,rock_grid_rect_2,1,16,-1,-1,0.448,-0.327243924,-0.228802083,1,0,0,2.9765,Andesite_rect,1,2.977,1,15,0,15,0,1,,,,,,,,,,,,,
663a90889439f93f09466d51,TCR,2024-06-25_14h41.18.926,LearnStrategy,2023.2.3,MacIntel,60.24096386,3,2,1,,,,,,,,8,09,,,,,,,,,,,8,1.273,1,,,,,,0.366618924,-0.402287326,1,0,0,1.2733,Pumice_rect,0,0,0,0,1,
663a90889439f93f09466d51,TCR,2024-06-25_14h41.18.926,LearnStrategy,2023.2.3,MacIntel,60.24096386,3,2,2,,,,,,,,5,16,,,,,,,,,,,5,0.958,1,,,,,,-0.370863715,-0.382539063,1,0,0,0.9581,Obsidian_rect,1,0,1,0,1,
663a90889439f93f09466d51,TCR,2024-06-25_14h41.18.926,LearnStrategy,2023.2.3,MacIntel,60.24096386,3,2,3,,,,,,,,7,06,,,,,,,,,,,7,0.973,1,,,,,,0.129800347,-0.394908854,1,0,0,0.9734,Peridotite_rect,2,0,2,0,1,
663a90889439f93f09466d51,TCR,2024-06-25_14h41.18.926,LearnStrategy,2023.2.3,MacIntel,60.24096386,3,2,4,,,,,,,,7,14,,,,,,,,,,,7,2.64,1,,,,,,0.104127604,-0.387881944,1,0,0,2.6397,Peridotite_rect,3,0,3,0,1,
663a90889439f93f09466d51,TCR,2024-06-25_14h41.18.926,LearnStrategy,2023.2.3,MacIntel,60.24096386,3,2,5,,,,,,,,6,13,,,,,,,,,,,6,4.593,1,,,,,,-0.122152778,-0.400729167,1,0,0,4.5934,Pegmatite_rect,4,0,4,0,1,
663a90889439f93f09466d51,TCR,2024-06-25_14h41.18.926,LearnStrategy,2023.2.3,MacIntel,60.24096386,3,2,6,,,,,,,,3,14,,,,,,,,,,,3,1.007,1,,,,,,0.127105035,-0.25125,1,0,0,1.0071,Diorite_rect,5,0,5,0,1,
663a90889439f93f09466d51,TCR,2024-06-25_14h41.18.926,LearnStrategy,2023.2.3,MacIntel,60.24096386,3,2,7,,,,,,,,2,01,,,,,,,,,,,2,0.924,1,,,,,,-0.071957465,-0.245824653,1,0,0,0.9237,Basalt_rect,6,0,6,0,1,
663a90889439f93f09466d51,TCR,2024-06-25_14h41.18.926,LearnStrategy,2023.2.3,MacIntel,60.24096386,3,2,8,,,,,,,,4,05,,,,,,,,,,,4,2.075,1,,,,,,0.316336806,-0.257578125,1,0,0,2.0748,Gabbro_rect,7,0,7,0,1,
663a90889439f93f09466d51,TCR,2024-06-25_14h41.18.926,LearnStrategy,2023.2.3,MacIntel,60.24096386,3,2,9,,,,,,,,8,03,,,,,,,,,,,8,1.541,1,,,,,,0.366675347,-0.398645833,1,0,0,1.541,Pumice_rect,8,0,8,0,1,
663a90889439f93f09466d51,TCR,2024-06-25_14h41.18.926,LearnStrategy,2023.2.3,MacIntel,60.24096386,3,2,10,,,,,,,,1,07,,,,,,,,,,,3,2.324,0,,,,,,0.092052951,-0.254969618,1,0,0,2.3238,Diorite_rect,9,0,9,0,1,
663a90889439f93f09466d51,TCR,2024-06-25_14h41.18.926,LearnStrategy,2023.2.3,MacIntel,60.24096386,3,2,11,,,,,,,,3,08,,,,,,,,,,,3,0.925,1,,,,,,0.091497396,-0.254969618,1,0,0,0.9247,Diorite_rect,10,0,10,0,1,
663a90889439f93f09466d51,TCR,2024-06-25_14h41.18.926,LearnStrategy,2023.2.3,MacIntel,60.24096386,3,2,12,,,,,,,,2,06,,,,,,,,,,,2,0.774,1,,,,,,-0.069917535,-0.248988715,1,0,0,0.774,Basalt_rect,11,0,11,0,1,
663a90889439f93f09466d51,TCR,2024-06-25_14h41.18.926,LearnStrategy,2023.2.3,MacIntel,60.24096386,3,2,13,,,,,,,,5,04,,,,,,,,,,,5,0.89,1,,,,,,-0.352105035,-0.403802083,1,0,0,0.8904,Obsidian_rect,12,0,12,0,1,
663a90889439f93f09466d51,TCR,2024-06-25_14h41.18.926,LearnStrategy,2023.2.3,MacIntel,60.24096386,3,2,14,,,,,,,,6,10,,,,,,,,,,,7,4.542,0,,,,,,0.125078125,-0.399144965,1,0,0,4.5419,Peridotite_rect,13,0,13,0,1,
663a90889439f93f09466d51,TCR,2024-06-25_14h41.18.926,LearnStrategy,2023.2.3,MacIntel,60.24096386,3,2,15,,,,,,,,4,14,,,,,,,,,,,4,2.11,1,,,,,,0.445881076,-0.259969618,1,0,0,2.11,Gabbro_rect,14,0,14,0,1,
663a90889439f93f09466d51,TCR,2024-06-25_14h41.18.926,LearnStrategy,2023.2.3,MacIntel,60.24096386,3,2,16,,,,,,,,1,02,,,,,,,,,,,1,1.624,1,,,,,,-0.364934896,-0.262578125,1,0,0,1.624,Andesite_rect,15,0,15,0,1,
663a90889439f93f09466d51,TCR,2024-06-25_14h41.18.926,LearnStrategy,2023.2.3,MacIntel,60.24096386,4,1,1,0.026427951,0.005907118,1,0,0,2.3345,rock_grid_rect_2,1,10,-1,-1,2.334,-0.33000434,-0.270677083,1,0,0,3.9396,Andesite_rect,1,3.94,1,0,0,0,0,1,,,,,,,,,,,,,
663a90889439f93f09466d51,TCR,2024-06-25_14h41.18.926,LearnStrategy,2023.2.3,MacIntel,60.24096386,4,1,2,0.073085938,-0.007947049,1,0,0,0.764,rock_grid_rect_2,1,03,-1,-1,0.764,-0.348246528,-0.238376736,1,0,0,1.5263,Andesite_rect,1,1.526,1,1,0,1,0,1,,,,,,,,,,,,,
663a90889439f93f09466d51,TCR,2024-06-25_14h41.18.926,LearnStrategy,2023.2.3,MacIntel,60.24096386,4,1,3,0.055056424,0.011293403,1,0,0,0.6823,rock_grid_rect_2,1,10,-1,-1,0.682,-0.361358507,-0.243428819,1,0,0,1.6741,Andesite_rect,1,1.674,1,2,0,2,0,1,,,,,,,,,,,,,
663a90889439f93f09466d51,TCR,2024-06-25_14h41.18.926,LearnStrategy,2023.2.3,MacIntel,60.24096386,4,1,4,0.011280382,0.002144097,1,0,0,0.681,rock_grid_rect_2,3,07,-1,-1,0.681,0.128789062,-0.247539062,1,0,0,1.3274,Diorite_rect,3,1.327,1,3,0,3,0,1,,,,,,,,,,,,,
663a90889439f93f09466d51,TCR,2024-06-25_14h41.18.926,LearnStrategy,2023.2.3,MacIntel,60.24096386,4,1,5,0.119348958,0.007695312,1,0,0,0.7491,rock_grid_rect_2,5,05,-1,-1,0.749,-0.343780382,-0.392287326,1,0,0,1.1594,Obsidian_rect,5,1.159,1,4,0,4,0,1,,,,,,,,,,,,,
663a90889439f93f09466d51,TCR,2024-06-25_14h41.18.926,LearnStrategy,2023.2.3,MacIntel,60.24096386,4,1,6,0.046605903,-0.002252604,1,0,0,0.6486,rock_grid_rect_2,3,16,-1,-1,0.649,0.080885417,-0.245486111,1,0,0,1.8416,Diorite_rect,3,1.842,1,5,0,5,0,1,,,,,,,,,,,,,
663a90889439f93f09466d51,TCR,2024-06-25_14h41.18.926,LearnStrategy,2023.2.3,MacIntel,60.24096386,4,1,7,0.09265191,-0.011775174,1,0,0,0.6164,rock_grid_rect_2,8,15,-1,-1,0.616,0.363836806,-0.404036458,1,0,0,1.1931,Pumice_rect,8,1.193,1,6,0,6,0,1,,,,,,,,,,,,,
663a90889439f93f09466d51,TCR,2024-06-25_14h41.18.926,LearnStrategy,2023.2.3,MacIntel,60.24096386,4,1,8,0.110351563,-0.024366319,1,0,0,0.5652,rock_grid_rect_2,3,07,-1,-1,0.565,0.134865451,-0.22953125,1,0,0,1.1086,Diorite_rect,3,1.109,1,7,0,7,0,1,,,,,,,,,,,,,
663a90889439f93f09466d51,TCR,2024-06-25_14h41.18.926,LearnStrategy,2023.2.3,MacIntel,60.24096386,4,1,9,0.12655816,-0.018884549,1,0,0,0.8317,rock_grid_rect_2,6,12,-1,-1,0.832,-0.126592882,-0.411710069,1,0,0,1.344,Pegmatite_rect,6,1.344,1,8,0,8,0,1,,,,,,,,,,,,,
663a90889439f93f09466d51,TCR,2024-06-25_14h41.18.926,LearnStrategy,2023.2.3,MacIntel,60.24096386,4,1,10,0.057938368,0.015238715,1,0,0,0.7652,rock_grid_rect_2,4,13,-1,-1,0.765,0.370850694,-0.25921875,1,0,0,1.6261,Gabbro_rect,4,1.626,1,9,0,9,0,1,,,,,,,,,,,,,
663a90889439f93f09466d51,TCR,2024-06-25_14h41.18.926,LearnStrategy,2023.2.3,MacIntel,60.24096386,4,1,11,0.102287326,0.015585938,1,0,0,0.8985,rock_grid_rect_2,7,15,-1,-1,0.898,0.14328125,-0.380711806,1,0,0,1.0945,Peridotite_rect,7,1.094,1,10,0,10,0,1,,,,,,,,,,,,,
663a90889439f93f09466d51,TCR,2024-06-25_14h41.18.926,LearnStrategy,2023.2.3,MacIntel,60.24096386,4,1,12,0.100559896,0.009205729,1,0,0,0.7474,rock_grid_rect_2,6,05,-1,-1,0.747,-0.116796875,-0.401267361,1,0,0,1.8265,Pegmatite_rect,6,1.827,1,11,0,11,0,1,,,,,,,,,,,,,
663a90889439f93f09466d51,TCR,2024-06-25_14h41.18.926,LearnStrategy,2023.2.3,MacIntel,60.24096386,4,1,13,0.038832465,-0.014657118,1,0,0,0.6653,rock_grid_rect_2,2,04,-1,-1,0.665,-0.086731771,-0.258263889,1,0,0,1.7428,Basalt_rect,2,1.743,1,12,0,12,0,1,,,,,,,,,,,,,
663a90889439f93f09466d51,TCR,2024-06-25_14h41.18.926,LearnStrategy,2023.2.3,MacIntel,60.24096386,4,1,14,0.095351563,0.022400174,1,0,0,0.5486,rock_grid_rect_2,4,12,-1,-1,0.549,0.357734375,-0.266228299,1,0,0,3.294,Gabbro_rect,4,3.294,1,13,0,13,0,1,,,,,,,,,,,,,
663a90889439f93f09466d51,TCR,2024-06-25_14h41.18.926,LearnStrategy,2023.2.3,MacIntel,60.24096386,4,1,15,0.041493056,0.001006944,1,0,0,0.7987,rock_grid_rect_2,6,16,-1,-1,0.799,-0.117256944,-0.392647569,1,0,0,2.5938,Pegmatite_rect,6,2.594,1,14,0,14,0,1,,,,,,,,,,,,,
663a90889439f93f09466d51,TCR,2024-06-25_14h41.18.926,LearnStrategy,2023.2.3,MacIntel,60.24096386,4,1,16,0.035577257,-0.019283854,1,0,0,0.8651,rock_grid_rect_2,2,05,-1,-1,0.865,-0.112907986,-0.239149306,1,0,0,0.9104,Basalt_rect,2,0.91,1,15,0,15,0,1,,,,,,,,,,,,,
663a90889439f93f09466d51,TCR,2024-06-25_14h41.18.926,LearnStrategy,2023.2.3,MacIntel,60.24096386,4,2,1,,,,,,,,1,02,,,,,,,,,,,1,2.024,1,,,,,,-0.377074653,-0.234908854,1,0,0,2.0236,Andesite_rect,0,0,0,0,1,
663a90889439f93f09466d51,TCR,2024-06-25_14h41.18.926,LearnStrategy,2023.2.3,MacIntel,60.24096386,4,2,2,,,,,,,,3,09,,,,,,,,,,,3,0.83,1,,,,,,0.101306424,-0.256506076,1,0,0,0.83,Diorite_rect,1,0,1,0,1,
663a90889439f93f09466d51,TCR,2024-06-25_14h41.18.926,LearnStrategy,2023.2.3,MacIntel,60.24096386,4,2,3,,,,,,,,7,06,,,,,,,,,,,7,1.807,1,,,,,,0.101206597,-0.39921875,1,0,0,1.8074,Peridotite_rect,2,0,2,0,1,
663a90889439f93f09466d51,TCR,2024-06-25_14h41.18.926,LearnStrategy,2023.2.3,MacIntel,60.24096386,4,2,4,,,,,,,,3,10,,,,,,,,,,,3,3.51,1,,,,,,0.081527778,-0.237061632,1,0,0,3.5099,Diorite_rect,3,0,3,0,1,
663a90889439f93f09466d51,TCR,2024-06-25_14h41.18.926,LearnStrategy,2023.2.3,MacIntel,60.24096386,4,2,5,,,,,,,,4,10,,,,,,,,,,,4,2.233,1,,,,,,0.353628472,-0.244913194,1,0,0,2.2325,Gabbro_rect,4,0,4,0,1,
663a90889439f93f09466d51,TCR,2024-06-25_14h41.18.926,LearnStrategy,2023.2.3,MacIntel,60.24096386,4,2,6,,,,,,,,2,09,,,,,,,,,,,2,0.833,1,,,,,,-0.102612847,-0.269748264,1,0,0,0.8328,Basalt_rect,5,0,5,0,1,
663a90889439f93f09466d51,TCR,2024-06-25_14h41.18.926,LearnStrategy,2023.2.3,MacIntel,60.24096386,4,2,7,,,,,,,,1,04,,,,,,,,,,,1,2.092,1,,,,,,-0.327929688,-0.261831597,1,0,0,2.0916,Andesite_rect,6,0,6,0,1,
663a90889439f93f09466d51,TCR,2024-06-25_14h41.18.926,LearnStrategy,2023.2.3,MacIntel,60.24096386,4,2,8,,,,,,,,7,16,,,,,,,,,,,7,1.782,1,,,,,,0.095269097,-0.394479167,1,0,0,1.782,Peridotite_rect,7,0,7,0,1,
663a90889439f93f09466d51,TCR,2024-06-25_14h41.18.926,LearnStrategy,2023.2.3,MacIntel,60.24096386,4,2,9,,,,,,,,8,09,,,,,,,,,,,8,1.575,1,,,,,,0.343311632,-0.395186632,1,0,0,1.5752,Pumice_rect,8,0,8,0,1,
663a90889439f93f09466d51,TCR,2024-06-25_14h41.18.926,LearnStrategy,2023.2.3,MacIntel,60.24096386,4,2,10,,,,,,,,5,04,,,,,,,,,,,5,0.823,1,,,,,,-0.318689236,-0.381427951,1,0,0,0.8235,Obsidian_rect,9,0,9,0,1,
663a90889439f93f09466d51,TCR,2024-06-25_14h41.18.926,LearnStrategy,2023.2.3,MacIntel,60.24096386,4,2,11,,,,,,,,2,01,,,,,,,,,,,2,0.641,1,,,,,,-0.077604167,-0.239518229,1,0,0,0.6412,Basalt_rect,10,0,10,0,1,
663a90889439f93f09466d51,TCR,2024-06-25_14h41.18.926,LearnStrategy,2023.2.3,MacIntel,60.24096386,4,2,12,,,,,,,,4,09,,,,,,,,,,,4,1.907,1,,,,,,0.356306424,-0.26140191,1,0,0,1.9071,Gabbro_rect,11,0,11,0,1,
663a90889439f93f09466d51,TCR,2024-06-25_14h41.18.926,LearnStrategy,2023.2.3,MacIntel,60.24096386,4,2,13,,,,,,,,6,03,,,,,,,,,,,6,0.791,1,,,,,,-0.125381944,-0.396697049,1,0,0,0.7909,Pegmatite_rect,12,0,12,0,1,
663a90889439f93f09466d51,TCR,2024-06-25_14h41.18.926,LearnStrategy,2023.2.3,MacIntel,60.24096386,4,2,14,,,,,,,,6,08,,,,,,,,,,,6,1.408,1,,,,,,-0.125993924,-0.409010417,1,0,0,1.4084,Pegmatite_rect,13,0,13,0,1,
663a90889439f93f09466d51,TCR,2024-06-25_14h41.18.926,LearnStrategy,2023.2.3,MacIntel,60.24096386,4,2,15,,,,,,,,8,04,,,,,,,,,,,8,1.125,1,,,,,,0.381987847,-0.401831597,1,0,0,1.1249,Pumice_rect,14,0,14,0,1,
663a90889439f93f09466d51,TCR,2024-06-25_14h41.18.926,LearnStrategy,2023.2.3,MacIntel,60.24096386,4,2,16,,,,,,,,5,11,,,,,,,,,,,5,0.858,1,,,,,,-0.342578125,-0.379648437,1,0,0,0.8579,Obsidian_rect,15,0,15,0,1,
663a90889439f93f09466d51,TCR,2024-06-25_14h41.18.926,LearnStrategy,2023.2.3,MacIntel,60.24096386,5,1,1,0.03062066,0.000894097,1,0,0,0.7972,rock_grid_rect_2,3,16,-1,-1,0.797,0.105169271,-0.258472222,1,0,0,4.6424,Diorite_rect,3,4.642,1,0,0,0,0,1,,,,,,,,,,,,,
663a90889439f93f09466d51,TCR,2024-06-25_14h41.18.926,LearnStrategy,2023.2.3,MacIntel,60.24096386,5,1,2,0.039774306,0.016206597,1,0,0,0.648,rock_grid_rect_2,3,13,-1,-1,0.648,0.079366319,-0.228763021,1,0,0,3.0251,Diorite_rect,3,3.025,1,1,0,1,0,1,,,,,,,,,,,,,
663a90889439f93f09466d51,TCR,2024-06-25_14h41.18.926,LearnStrategy,2023.2.3,MacIntel,60.24096386,5,1,3,0.020073785,-0.010221354,1,0,0,0.649,rock_grid_rect_2,1,03,-1,-1,0.649,-0.355117187,-0.236354167,1,0,0,1.2582,Andesite_rect,1,1.258,1,2,0,2,0,1,,,,,,,,,,,,,
663a90889439f93f09466d51,TCR,2024-06-25_14h41.18.926,LearnStrategy,2023.2.3,MacIntel,60.24096386,5,1,4,0.027395833,0.022078993,1,0,0,0.5986,rock_grid_rect_2,8,08,-1,-1,0.599,0.411141493,-0.39734375,1,0,0,1.2435,Pumice_rect,8,1.244,1,3,0,3,0,1,,,,,,,,,,,,,
663a90889439f93f09466d51,TCR,2024-06-25_14h41.18.926,LearnStrategy,2023.2.3,MacIntel,60.24096386,5,1,5,0.049140625,0.011163194,1,0,0,0.5482,rock_grid_rect_2,6,12,-1,-1,0.548,-0.099947917,-0.392773437,1,0,0,0.9431,Pegmatite_rect,6,0.943,1,4,0,4,0,1,,,,,,,,,,,,,
663a90889439f93f09466d51,TCR,2024-06-25_14h41.18.926,LearnStrategy,2023.2.3,MacIntel,60.24096386,5,1,6,0.065381944,-0.000959201,1,0,0,0.6163,rock_grid_rect_2,2,10,-1,-1,0.616,-0.117686632,-0.25765625,1,0,0,2.3085,Basalt_rect,2,2.308,1,5,0,5,0,1,,,,,,,,,,,,,
663a90889439f93f09466d51,TCR,2024-06-25_14h41.18.926,LearnStrategy,2023.2.3,MacIntel,60.24096386,5,1,7,0.030117187,-0.014796007,1,0,0,0.465,rock_grid_rect_2,4,13,-1,-1,0.465,0.323467882,-0.231553819,1,0,0,0.9751,Gabbro_rect,4,0.975,1,6,0,6,0,1,,,,,,,,,,,,,
663a90889439f93f09466d51,TCR,2024-06-25_14h41.18.926,LearnStrategy,2023.2.3,MacIntel,60.24096386,5,1,8,0.049405382,-0.002586806,1,0,0,0.5318,rock_grid_rect_2,1,14,-1,-1,0.532,-0.4146875,-0.265164931,1,0,0,2.1766,Andesite_rect,1,2.177,1,7,0,7,0,1,,,,,,,,,,,,,
663a90889439f93f09466d51,TCR,2024-06-25_14h41.18.926,LearnStrategy,2023.2.3,MacIntel,60.24096386,5,1,9,0.061072049,-0.009136285,1,0,0,0.5818,rock_grid_rect_2,2,12,-1,-1,0.582,0.355859375,-0.387664931,1,0,0,1.4924,Pumice_rect,8,1.492,0,8,0,8,0,1,,,,,,,,,,,,,
663a90889439f93f09466d51,TCR,2024-06-25_14h41.18.926,LearnStrategy,2023.2.3,MacIntel,60.24096386,5,1,10,0.050321181,-0.000690104,1,0,0,0.6318,rock_grid_rect_2,1,14,-1,-1,0.632,-0.346783854,-0.263823785,1,0,0,3.4118,Andesite_rect,1,3.412,1,9,0,9,0,1,,,,,,,,,,,,,
663a90889439f93f09466d51,TCR,2024-06-25_14h41.18.926,LearnStrategy,2023.2.3,MacIntel,60.24096386,5,1,11,0.016128472,-0.006957465,1,0,0,0.4818,rock_grid_rect_2,6,12,-1,-1,0.482,-0.121653646,-0.414236111,1,0,0,0.958,Pegmatite_rect,6,0.958,1,10,0,10,0,1,,,,,,,,,,,,,
663a90889439f93f09466d51,TCR,2024-06-25_14h41.18.926,LearnStrategy,2023.2.3,MacIntel,60.24096386,5,1,12,-0.017309028,-0.017274306,1,0,0,0.4486,rock_grid_rect_2,6,16,-1,-1,0.449,-0.07702691,-0.401493056,1,0,0,1.0426,Pegmatite_rect,6,1.043,1,11,0,11,0,1,,,,,,,,,,,,,
663a90889439f93f09466d51,TCR,2024-06-25_14h41.18.926,LearnStrategy,2023.2.3,MacIntel,60.24096386,5,1,13,0.002296007,-0.022404514,1,0,0,0.4472,rock_grid_rect_2,4,13,-1,-1,0.447,0.33625,-0.245442708,1,0,0,0.8632,Gabbro_rect,4,0.863,1,12,0,12,0,1,,,,,,,,,,,,,
663a90889439f93f09466d51,TCR,2024-06-25_14h41.18.926,LearnStrategy,2023.2.3,MacIntel,60.24096386,5,1,14,0.062304687,0.020451389,1,0,0,0.4652,rock_grid_rect_2,3,13,-1,-1,0.465,0.137565104,-0.258125,1,0,0,1.8423,Diorite_rect,3,1.842,1,13,0,13,0,1,,,,,,,,,,,,,
663a90889439f93f09466d51,TCR,2024-06-25_14h41.18.926,LearnStrategy,2023.2.3,MacIntel,60.24096386,5,1,15,0.056571181,-0.006284722,1,0,0,0.4991,rock_grid_rect_2,7,04,-1,-1,0.499,-0.373602431,-0.246592882,1,0,0,1.0093,Andesite_rect,1,1.009,0,14,0,14,0,1,,,,,,,,,,,,,
663a90889439f93f09466d51,TCR,2024-06-25_14h41.18.926,LearnStrategy,2023.2.3,MacIntel,60.24096386,5,1,16,0.030386285,-0.005746528,1,0,0,0.8532,rock_grid_rect_2,5,07,-1,-1,0.853,-0.369288194,-0.41765191,1,0,0,0.9264,Obsidian_rect,5,0.926,1,15,0,15,0,1,,,,,,,,,,,,,
663a90889439f93f09466d51,TCR,2024-06-25_14h41.18.926,LearnStrategy,2023.2.3,MacIntel,60.24096386,5,2,1,,,,,,,,4,11,,,,,,,,,,,4,2.925,1,,,,,,0.457330729,-0.262226562,1,0,0,2.9246,Gabbro_rect,0,0,0,0,1,
663a90889439f93f09466d51,TCR,2024-06-25_14h41.18.926,LearnStrategy,2023.2.3,MacIntel,60.24096386,5,2,2,,,,,,,,2,06,,,,,,,,,,,2,0.8,1,,,,,,-0.064609375,-0.265277778,1,0,0,0.8001,Basalt_rect,1,0,1,0,1,
663a90889439f93f09466d51,TCR,2024-06-25_14h41.18.926,LearnStrategy,2023.2.3,MacIntel,60.24096386,5,2,3,,,,,,,,8,05,,,,,,,,,,,8,0.906,1,,,,,,0.343229167,-0.421202257,1,0,0,0.9064,Pumice_rect,2,0,2,0,1,
663a90889439f93f09466d51,TCR,2024-06-25_14h41.18.926,LearnStrategy,2023.2.3,MacIntel,60.24096386,5,2,4,,,,,,,,7,14,,,,,,,,,,,7,1.191,1,,,,,,0.129882813,-0.419335937,1,0,0,1.1913,Peridotite_rect,3,0,3,0,1,
663a90889439f93f09466d51,TCR,2024-06-25_14h41.18.926,LearnStrategy,2023.2.3,MacIntel,60.24096386,5,2,5,,,,,,,,2,02,,,,,,,,,,,2,0.857,1,,,,,,-0.083637153,-0.247178819,1,0,0,0.8574,Basalt_rect,4,0,4,0,1,
663a90889439f93f09466d51,TCR,2024-06-25_14h41.18.926,LearnStrategy,2023.2.3,MacIntel,60.24096386,5,2,6,,,,,,,,3,15,,,,,,,,,,,3,3.19,1,,,,,,0.110499132,-0.256553819,1,0,0,3.1901,Diorite_rect,5,0,5,0,1,
663a90889439f93f09466d51,TCR,2024-06-25_14h41.18.926,LearnStrategy,2023.2.3,MacIntel,60.24096386,5,2,7,,,,,,,,7,05,,,,,,,,,,,7,1.398,1,,,,,,0.093498264,-0.397456597,1,0,0,1.3983,Peridotite_rect,6,0,6,0,1,
663a90889439f93f09466d51,TCR,2024-06-25_14h41.18.926,LearnStrategy,2023.2.3,MacIntel,60.24096386,5,2,8,,,,,,,,1,09,,,,,,,,,,,1,1.241,1,,,,,,-0.417256944,-0.267330729,1,0,0,1.2406,Andesite_rect,7,0,7,0,1,
663a90889439f93f09466d51,TCR,2024-06-25_14h41.18.926,LearnStrategy,2023.2.3,MacIntel,60.24096386,5,2,9,,,,,,,,4,05,,,,,,,,,,,7,4.325,0,,,,,,0.12109809,-0.396484375,1,0,0,4.3253,Peridotite_rect,8,0,8,0,1,
663a90889439f93f09466d51,TCR,2024-06-25_14h41.18.926,LearnStrategy,2023.2.3,MacIntel,60.24096386,5,2,10,,,,,,,,6,06,,,,,,,,,,,6,6.649,1,,,,,,-0.087122396,-0.400355903,1,0,0,6.6493,Pegmatite_rect,9,0,9,0,1,
663a90889439f93f09466d51,TCR,2024-06-25_14h41.18.926,LearnStrategy,2023.2.3,MacIntel,60.24096386,5,2,11,,,,,,,,1,05,,,,,,,,,,,1,1.533,1,,,,,,-0.357491319,-0.252782118,1,0,0,1.5329,Andesite_rect,10,0,10,0,1,
663a90889439f93f09466d51,TCR,2024-06-25_14h41.18.926,LearnStrategy,2023.2.3,MacIntel,60.24096386,5,2,12,,,,,,,,3,08,,,,,,,,,,,3,0.808,1,,,,,,0.085251736,-0.232721354,1,0,0,0.8077,Diorite_rect,11,0,11,0,1,
663a90889439f93f09466d51,TCR,2024-06-25_14h41.18.926,LearnStrategy,2023.2.3,MacIntel,60.24096386,5,2,13,,,,,,,,6,10,,,,,,,,,,,6,3.025,1,,,,,,-0.12577691,-0.414596354,1,0,0,3.025,Pegmatite_rect,12,0,12,0,1,
663a90889439f93f09466d51,TCR,2024-06-25_14h41.18.926,LearnStrategy,2023.2.3,MacIntel,60.24096386,5,2,14,,,,,,,,8,14,,,,,,,,,,,8,0.933,1,,,,,,0.336128472,-0.405993924,1,0,0,0.9331,Pumice_rect,13,0,13,0,1,
663a90889439f93f09466d51,TCR,2024-06-25_14h41.18.926,LearnStrategy,2023.2.3,MacIntel,60.24096386,5,2,15,,,,,,,,5,16,,,,,,,,,,,5,1.208,1,,,,,,-0.40077691,-0.411067708,1,0,0,1.2077,Obsidian_rect,14,0,14,0,1,
663a90889439f93f09466d51,TCR,2024-06-25_14h41.18.926,LearnStrategy,2023.2.3,MacIntel,60.24096386,5,2,16,,,,,,,,5,06,,,,,,,,,,,5,1.091,1,,,,,,-0.328706597,-0.39891059,1,0,0,1.0908,Obsidian_rect,15,0,15,0,1,
663a90889439f93f09466d51,TCR,2024-06-25_14h41.18.926,LearnStrategy,2023.2.3,MacIntel,60.24096386,6,1,1,0.021540799,-0.022712674,1,0,0,0.848,rock_grid_rect_2,4,15,-1,-1,0.848,0.346128472,-0.25234375,1,0,0,4.2768,Gabbro_rect,4,4.277,1,0,0,0,0,1,,,,,,,,,,,,,
663a90889439f93f09466d51,TCR,2024-06-25_14h41.18.926,LearnStrategy,2023.2.3,MacIntel,60.24096386,6,1,2,0.045078125,-0.020833333,1,0,0,0.5151,rock_grid_rect_2,4,16,-1,-1,0.515,-0.127052951,-0.257013889,1,0,0,1.2092,Basalt_rect,2,1.209,0,1,0,1,0,1,,,,,,,,,,,,,
663a90889439f93f09466d51,TCR,2024-06-25_14h41.18.926,LearnStrategy,2023.2.3,MacIntel,60.24096386,6,1,3,0.050021701,-0.011206597,1,0,0,0.6652,rock_grid_rect_2,6,12,-1,-1,0.665,-0.145338542,-0.398641493,1,0,0,1.0267,Pegmatite_rect,6,1.027,1,2,0,2,0,1,,,,,,,,,,,,,
663a90889439f93f09466d51,TCR,2024-06-25_14h41.18.926,LearnStrategy,2023.2.3,MacIntel,60.24096386,6,1,4,0.050651042,0.014075521,1,0,0,0.6643,rock_grid_rect_2,7,08,-1,-1,0.664,0.081397569,-0.415690104,1,0,0,1.0781,Peridotite_rect,7,1.078,1,3,0,3,0,1,,,,,,,,,,,,,
663a90889439f93f09466d51,TCR,2024-06-25_14h41.18.926,LearnStrategy,2023.2.3,MacIntel,60.24096386,6,1,5,0.069696181,-0.002743056,1,0,0,0.6485,rock_grid_rect_2,1,16,-1,-1,0.649,-0.384934896,-0.264492187,1,0,0,1.6419,Andesite_rect,1,1.642,1,4,0,4,0,1,,,,,,,,,,,,,
663a90889439f93f09466d51,TCR,2024-06-25_14h41.18.926,LearnStrategy,2023.2.3,MacIntel,60.24096386,6,1,6,0.023776042,-0.020807292,1,0,0,0.5154,rock_grid_rect_2,2,04,-1,-1,0.515,-0.104787326,-0.23469184,1,0,0,0.8929,Basalt_rect,2,0.893,1,5,0,5,0,1,,,,,,,,,,,,,
663a90889439f93f09466d51,TCR,2024-06-25_14h41.18.926,LearnStrategy,2023.2.3,MacIntel,60.24096386,6,1,7,0.057061632,0.005351563,1,0,0,0.5311,rock_grid_rect_2,6,16,-1,-1,0.531,-0.134040799,-0.404453125,1,0,0,2.0412,Pegmatite_rect,6,2.041,1,6,0,6,0,1,,,,,,,,,,,,,
663a90889439f93f09466d51,TCR,2024-06-25_14h41.18.926,LearnStrategy,2023.2.3,MacIntel,60.24096386,6,1,8,0.072256944,0.012313368,1,0,0,1.0653,rock_grid_rect_2,3,07,-1,-1,1.065,0.081931424,-0.258780382,1,0,0,1.193,Diorite_rect,3,1.193,1,7,0,7,0,1,,,,,,,,,,,,,
663a90889439f93f09466d51,TCR,2024-06-25_14h41.18.926,LearnStrategy,2023.2.3,MacIntel,60.24096386,6,1,9,0.067235243,-0.010121528,1,0,0,0.7663,rock_grid_rect_2,4,13,-1,-1,0.766,0.358524306,-0.228424479,1,0,0,1.1922,Gabbro_rect,4,1.192,1,8,0,8,0,1,,,,,,,,,,,,,
663a90889439f93f09466d51,TCR,2024-06-25_14h41.18.926,LearnStrategy,2023.2.3,MacIntel,60.24096386,6,1,10,0.091358507,-0.015455729,1,0,0,0.5824,rock_grid_rect_2,2,10,-1,-1,0.582,-0.115355903,-0.255989583,1,0,0,0.9426,Basalt_rect,2,0.943,1,9,0,9,0,1,,,,,,,,,,,,,
663a90889439f93f09466d51,TCR,2024-06-25_14h41.18.926,LearnStrategy,2023.2.3,MacIntel,60.24096386,6,1,11,0.035911458,-0.007291667,1,0,0,0.4312,rock_grid_rect_2,7,02,-1,-1,0.431,0.084253472,-0.404574653,1,0,0,1.1098,Peridotite_rect,7,1.11,1,10,0,10,0,1,,,,,,,,,,,,,
663a90889439f93f09466d51,TCR,2024-06-25_14h41.18.926,LearnStrategy,2023.2.3,MacIntel,60.24096386,6,1,12,0.070034722,-0.008250868,1,0,0,0.6483,rock_grid_rect_2,4,16,-1,-1,0.648,0.377126736,-0.256875,1,0,0,2.5592,Gabbro_rect,4,2.559,1,11,0,11,0,1,,,,,,,,,,,,,
663a90889439f93f09466d51,TCR,2024-06-25_14h41.18.926,LearnStrategy,2023.2.3,MacIntel,60.24096386,6,1,13,0.087595486,-0.009448785,1,0,0,0.648,rock_grid_rect_2,3,13,-1,-1,0.648,0.089479167,-0.254700521,1,0,0,1.4768,Diorite_rect,3,1.477,1,12,0,12,0,1,,,,,,,,,,,,,
663a90889439f93f09466d51,TCR,2024-06-25_14h41.18.926,LearnStrategy,2023.2.3,MacIntel,60.24096386,6,1,14,0.097764757,0.01640191,1,0,0,0.5647,rock_grid_rect_2,5,09,-1,-1,0.565,-0.358980035,-0.411506076,1,0,0,1.4267,Obsidian_rect,5,1.427,1,13,0,13,0,1,,,,,,,,,,,,,
663a90889439f93f09466d51,TCR,2024-06-25_14h41.18.926,LearnStrategy,2023.2.3,MacIntel,60.24096386,6,1,15,0.025078125,-0.006523437,1,0,0,0.6821,rock_grid_rect_2,8,13,-1,-1,0.682,0.340850694,-0.398389757,1,0,0,1.2588,Pumice_rect,8,1.259,1,14,0,14,0,1,,,,,,,,,,,,,
663a90889439f93f09466d51,TCR,2024-06-25_14h41.18.926,LearnStrategy,2023.2.3,MacIntel,60.24096386,6,1,16,0.109522569,-0.0115625,1,0,0,0.5151,rock_grid_rect_2,1,11,-1,-1,0.515,-0.368519965,-0.243463542,1,0,0,1.8439,Andesite_rect,1,1.844,1,15,0,15,0,1,,,,,,,,,,,,,
663a90889439f93f09466d51,TCR,2024-06-25_14h41.18.926,LearnStrategy,2023.2.3,MacIntel,60.24096386,6,2,1,,,,,,,,6,11,,,,,,,,,,,6,3.008,1,,,,,,-0.137274306,-0.401059028,1,0,0,3.0075,Pegmatite_rect,0,0,0,0,1,
663a90889439f93f09466d51,TCR,2024-06-25_14h41.18.926,LearnStrategy,2023.2.3,MacIntel,60.24096386,6,2,2,,,,,,,,8,10,,,,,,,,,,,8,1.067,1,,,,,,0.366835937,-0.389578993,1,0,0,1.067,Pumice_rect,1,0,1,0,1,
663a90889439f93f09466d51,TCR,2024-06-25_14h41.18.926,LearnStrategy,2023.2.3,MacIntel,60.24096386,6,2,3,,,,,,,,7,10,,,,,,,,,,,7,1.325,1,,,,,,0.130824653,-0.402109375,1,0,0,1.3247,Peridotite_rect,2,0,2,0,1,
663a90889439f93f09466d51,TCR,2024-06-25_14h41.18.926,LearnStrategy,2023.2.3,MacIntel,60.24096386,6,2,4,,,,,,,,4,03,,,,,,,,,,,4,2.975,1,,,,,,0.35109375,-0.254392361,1,0,0,2.9747,Gabbro_rect,3,0,3,0,1,
663a90889439f93f09466d51,TCR,2024-06-25_14h41.18.926,LearnStrategy,2023.2.3,MacIntel,60.24096386,6,2,5,,,,,,,,3,06,,,,,,,,,,,3,2.116,1,,,,,,0.09921875,-0.247365451,1,0,0,2.1158,Diorite_rect,4,0,4,0,1,
663a90889439f93f09466d51,TCR,2024-06-25_14h41.18.926,LearnStrategy,2023.2.3,MacIntel,60.24096386,6,2,6,,,,,,,,7,07,,,,,,,,,,,7,1.133,1,,,,,,0.138072917,-0.395082465,1,0,0,1.1331,Peridotite_rect,5,0,5,0,1,
663a90889439f93f09466d51,TCR,2024-06-25_14h41.18.926,LearnStrategy,2023.2.3,MacIntel,60.24096386,6,2,7,,,,,,,,1,01,,,,,,,,,,,4,6.642,0,,,,,,0.327721354,-0.247829861,1,0,0,6.6424,Gabbro_rect,6,0,6,0,1,
663a90889439f93f09466d51,TCR,2024-06-25_14h41.18.926,LearnStrategy,2023.2.3,MacIntel,60.24096386,6,2,8,,,,,,,,5,02,,,,,,,,,,,5,0.834,1,,,,,,-0.325082465,-0.401623264,1,0,0,0.8336,Obsidian_rect,7,0,7,0,1,
663a90889439f93f09466d51,TCR,2024-06-25_14h41.18.926,LearnStrategy,2023.2.3,MacIntel,60.24096386,6,2,9,,,,,,,,8,03,,,,,,,,,,,8,0.894,1,,,,,,0.327565104,-0.388862847,1,0,0,0.8939,Pumice_rect,8,0,8,0,1,
663a90889439f93f09466d51,TCR,2024-06-25_14h41.18.926,LearnStrategy,2023.2.3,MacIntel,60.24096386,6,2,10,,,,,,,,4,14,,,,,,,,,,,4,1.359,1,,,,,,0.368046875,-0.230290799,1,0,0,1.3586,Gabbro_rect,9,0,9,0,1,
663a90889439f93f09466d51,TCR,2024-06-25_14h41.18.926,LearnStrategy,2023.2.3,MacIntel,60.24096386,6,2,11,,,,,,,,6,13,,,,,,,,,,,7,6.74,0,,,,,,0.080659722,-0.391640625,1,0,0,6.7404,Peridotite_rect,10,0,10,0,1,
663a90889439f93f09466d51,TCR,2024-06-25_14h41.18.926,LearnStrategy,2023.2.3,MacIntel,60.24096386,6,2,12,,,,,,,,2,11,,,,,,,,,,,2,4.598,1,,,,,,-0.124631076,-0.249270833,1,0,0,4.5981,Basalt_rect,11,0,11,0,1,
663a90889439f93f09466d51,TCR,2024-06-25_14h41.18.926,LearnStrategy,2023.2.3,MacIntel,60.24096386,6,2,13,,,,,,,,2,16,,,,,,,,,,,4,1.48,0,,,,,,0.382100694,-0.24375,1,0,0,1.4804,Gabbro_rect,12,0,12,0,1,
663a90889439f93f09466d51,TCR,2024-06-25_14h41.18.926,LearnStrategy,2023.2.3,MacIntel,60.24096386,6,2,14,,,,,,,,5,08,,,,,,,,,,,5,0.991,1,,,,,,-0.391475694,-0.41874566,1,0,0,0.9908,Obsidian_rect,13,0,13,0,1,
663a90889439f93f09466d51,TCR,2024-06-25_14h41.18.926,LearnStrategy,2023.2.3,MacIntel,60.24096386,6,2,15,,,,,,,,3,14,,,,,,,,,,,3,1.159,1,,,,,,0.138728299,-0.258537326,1,0,0,1.159,Diorite_rect,14,0,14,0,1,
663a90889439f93f09466d51,TCR,2024-06-25_14h41.18.926,LearnStrategy,2023.2.3,MacIntel,60.24096386,6,2,16,,,,,,,,1,07,,,,,,,,,,,1,1.058,1,,,,,,-0.364283854,-0.248789062,1,0,0,1.0585,Andesite_rect,15,0,15,0,1,
663a90889439f93f09466d51,TCR,2024-06-25_14h41.18.926,LearnStrategy,2023.2.3,MacIntel,60.24096386,7,1,1,-0.000967882,-0.001467014,1,0,0,0.7323,rock_grid_rect_2,5,05,-1,-1,0.732,-0.345742188,-0.389587674,1,0,0,1.2094,Obsidian_rect,5,1.209,1,0,0,0,0,1,,,,,,,,,,,,,
663a90889439f93f09466d51,TCR,2024-06-25_14h41.18.926,LearnStrategy,2023.2.3,MacIntel,60.24096386,7,1,2,0.021901042,-0.024288194,1,0,0,0.7314,rock_grid_rect_2,8,16,-1,-1,0.731,0.402400174,-0.416866319,1,0,0,1.1272,Pumice_rect,8,1.127,1,1,0,1,0,1,,,,,,,,,,,,,
663a90889439f93f09466d51,TCR,2024-06-25_14h41.18.926,LearnStrategy,2023.2.3,MacIntel,60.24096386,7,1,3,0.101957465,-0.000703125,1,0,0,0.5821,rock_grid_rect_2,4,08,-1,-1,0.582,0.369652778,-0.231957465,1,0,0,2.0936,Gabbro_rect,4,2.094,1,2,0,2,0,1,,,,,,,,,,,,,
663a90889439f93f09466d51,TCR,2024-06-25_14h41.18.926,LearnStrategy,2023.2.3,MacIntel,60.24096386,7,1,4,0.091610243,-0.00297309,1,0,0,0.8654,rock_grid_rect_2,6,15,-1,-1,0.865,-0.11546875,-0.408628472,1,0,0,1.0428,Pegmatite_rect,6,1.043,1,3,0,3,0,1,,,,,,,,,,,,,
663a90889439f93f09466d51,TCR,2024-06-25_14h41.18.926,LearnStrategy,2023.2.3,MacIntel,60.24096386,7,1,5,0.074665799,0.016028646,1,0,0,0.5322,rock_grid_rect_2,6,12,-1,-1,0.532,-0.129019097,-0.407486979,1,0,0,1.1273,Pegmatite_rect,6,1.127,1,4,0,4,0,1,,,,,,,,,,,,,
663a90889439f93f09466d51,TCR,2024-06-25_14h41.18.926,LearnStrategy,2023.2.3,MacIntel,60.24096386,7,1,6,0.017864583,0.003710937,1,0,0,0.4987,rock_grid_rect_2,1,14,-1,-1,0.499,-0.318203125,-0.262387153,1,0,0,4.6287,Andesite_rect,1,4.629,1,5,0,5,0,1,,,,,,,,,,,,,
663a90889439f93f09466d51,TCR,2024-06-25_14h41.18.926,LearnStrategy,2023.2.3,MacIntel,60.24096386,7,1,7,0.017751736,0.019960938,1,0,0,0.4651,rock_grid_rect_2,1,11,-1,-1,0.465,-0.354014757,-0.251731771,1,0,0,1.4753,Andesite_rect,1,1.475,1,6,0,6,0,1,,,,,,,,,,,,,
663a90889439f93f09466d51,TCR,2024-06-25_14h41.18.926,LearnStrategy,2023.2.3,MacIntel,60.24096386,7,1,8,0.005581597,0.008993056,1,0,0,0.4816,rock_grid_rect_2,4,08,-1,-1,0.482,0.409774306,-0.245855035,1,0,0,1.7418,Gabbro_rect,4,1.742,1,7,0,7,0,1,,,,,,,,,,,,,
663a90889439f93f09466d51,TCR,2024-06-25_14h41.18.926,LearnStrategy,2023.2.3,MacIntel,60.24096386,7,1,9,0.092621528,0.002274306,1,0,0,0.6986,rock_grid_rect_2,7,13,-1,-1,0.699,0.097712674,-0.387304688,1,0,0,0.9799,Peridotite_rect,7,0.98,1,8,0,8,0,1,,,,,,,,,,,,,
663a90889439f93f09466d51,TCR,2024-06-25_14h41.18.926,LearnStrategy,2023.2.3,MacIntel,60.24096386,7,1,10,0.097664931,-0.009861111,1,0,0,0.6651,rock_grid_rect_2,2,14,-1,-1,0.665,0.418025174,-0.250611979,1,0,0,1.3433,Gabbro_rect,4,1.343,0,9,0,9,0,1,,,,,,,,,,,,,
663a90889439f93f09466d51,TCR,2024-06-25_14h41.18.926,LearnStrategy,2023.2.3,MacIntel,60.24096386,7,1,11,0.097460937,-0.017677951,1,0,0,0.565,rock_grid_rect_2,2,04,-1,-1,0.565,-0.07953559,-0.250651042,1,0,0,1.2268,Basalt_rect,2,1.227,1,10,0,10,0,1,,,,,,,,,,,,,
663a90889439f93f09466d51,TCR,2024-06-25_14h41.18.926,LearnStrategy,2023.2.3,MacIntel,60.24096386,7,1,12,0.064305556,-0.005190972,1,0,0,0.4818,rock_grid_rect_2,6,12,-1,-1,0.482,-0.143125,-0.392174479,1,0,0,0.8586,Pegmatite_rect,6,0.859,1,11,0,11,0,1,,,,,,,,,,,,,
663a90889439f93f09466d51,TCR,2024-06-25_14h41.18.926,LearnStrategy,2023.2.3,MacIntel,60.24096386,7,1,13,0.041649306,0.002361111,1,0,0,0.4655,rock_grid_rect_2,4,15,-1,-1,0.466,0.101592882,-0.251822917,1,0,0,1.9254,Diorite_rect,3,1.925,0,12,0,12,0,1,,,,,,,,,,,,,
663a90889439f93f09466d51,TCR,2024-06-25_14h41.18.926,LearnStrategy,2023.2.3,MacIntel,60.24096386,7,1,14,0.103532986,-0.014895833,1,0,0,0.6649,rock_grid_rect_2,2,05,-1,-1,0.665,-0.062161458,-0.256523438,1,0,0,0.7938,Basalt_rect,2,0.794,1,13,0,13,0,1,,,,,,,,,,,,,
663a90889439f93f09466d51,TCR,2024-06-25_14h41.18.926,LearnStrategy,2023.2.3,MacIntel,60.24096386,7,1,15,0.061358507,0.02140191,1,0,0,0.4644,rock_grid_rect_2,1,03,-1,-1,0.464,-0.340638021,-0.264123264,1,0,0,1.0254,Andesite_rect,1,1.025,1,14,0,14,0,1,,,,,,,,,,,,,
663a90889439f93f09466d51,TCR,2024-06-25_14h41.18.926,LearnStrategy,2023.2.3,MacIntel,60.24096386,7,1,16,0.01594184,0.017591146,1,0,0,0.6639,rock_grid_rect_2,3,12,-1,-1,0.664,0.14796875,-0.259405382,1,0,0,1.043,Diorite_rect,3,1.043,1,15,0,15,0,1,,,,,,,,,,,,,
663a90889439f93f09466d51,TCR,2024-06-25_14h41.18.926,LearnStrategy,2023.2.3,MacIntel,60.24096386,7,2,1,,,,,,,,4,05,,,,,,,,,,,4,37.742,1,,,,,,0.396597222,-0.23874566,1,0,0,37.7419,Gabbro_rect,0,0,0,0,1,
663a90889439f93f09466d51,TCR,2024-06-25_14h41.18.926,LearnStrategy,2023.2.3,MacIntel,60.24096386,7,2,2,,,,,,,,1,01,,,,,,,,,,,4,19.531,0,,,,,,0.344344618,-0.256844618,1,0,0,19.5308,Gabbro_rect,1,0,1,0,1,
663a90889439f93f09466d51,TCR,2024-06-25_14h41.18.926,LearnStrategy,2023.2.3,MacIntel,60.24096386,7,2,3,,,,,,,,5,02,,,,,,,,,,,5,0.864,1,,,,,,-0.354713542,-0.397782118,1,0,0,0.8644,Obsidian_rect,2,0,2,0,1,
663a90889439f93f09466d51,TCR,2024-06-25_14h41.18.926,LearnStrategy,2023.2.3,MacIntel,60.24096386,7,2,4,,,,,,,,7,07,,,,,,,,,,,7,1.592,1,,,,,,0.130594618,-0.410503472,1,0,0,1.592,Peridotite_rect,3,0,3,0,1,
663a90889439f93f09466d51,TCR,2024-06-25_14h41.18.926,LearnStrategy,2023.2.3,MacIntel,60.24096386,7,2,5,,,,,,,,1,02,,,,,,,,,,,1,1.125,1,,,,,,-0.36641059,-0.262621528,1,0,0,1.1246,Andesite_rect,4,0,4,0,1,
663a90889439f93f09466d51,TCR,2024-06-25_14h41.18.926,LearnStrategy,2023.2.3,MacIntel,60.24096386,7,2,6,,,,,,,,3,09,,,,,,,,,,,3,0.99,1,,,,,,0.155885417,-0.251627604,1,0,0,0.9905,Diorite_rect,5,0,5,0,1,
663a90889439f93f09466d51,TCR,2024-06-25_14h41.18.926,LearnStrategy,2023.2.3,MacIntel,60.24096386,7,2,7,,,,,,,,8,09,,,,,,,,,,,8,0.94,1,,,,,,0.366770833,-0.411905382,1,0,0,0.9402,Pumice_rect,6,0,6,0,1,
663a90889439f93f09466d51,TCR,2024-06-25_14h41.18.926,LearnStrategy,2023.2.3,MacIntel,60.24096386,7,2,8,,,,,,,,3,15,,,,,,,,,,,1,22.241,0,,,,,,-0.374118924,-0.245386285,1,0,0,22.2415,Andesite_rect,7,0,7,0,1,
663a90889439f93f09466d51,TCR,2024-06-25_14h41.18.926,LearnStrategy,2023.2.3,MacIntel,60.24096386,7,2,9,,,,,,,,8,05,,,,,,,,,,,8,0.982,1,,,,,,0.337864583,-0.39765625,1,0,0,0.9817,Pumice_rect,8,0,8,0,1,
663a90889439f93f09466d51,TCR,2024-06-25_14h41.18.926,LearnStrategy,2023.2.3,MacIntel,60.24096386,7,2,10,,,,,,,,6,08,,,,,,,,,,,6,0.908,1,,,,,,-0.177977431,-0.399205729,1,0,0,0.9079,Pegmatite_rect,9,0,9,0,1,
663a90889439f93f09466d51,TCR,2024-06-25_14h41.18.926,LearnStrategy,2023.2.3,MacIntel,60.24096386,7,2,11,,,,,,,,7,14,,,,,,,,,,,7,1.04,1,,,,,,0.173172743,-0.404735243,1,0,0,1.0404,Peridotite_rect,10,0,10,0,1,
663a90889439f93f09466d51,TCR,2024-06-25_14h41.18.926,LearnStrategy,2023.2.3,MacIntel,60.24096386,7,2,12,,,,,,,,4,11,,,,,,,,,,,4,12.658,1,,,,,,0.410989583,-0.255881076,1,0,0,12.658,Gabbro_rect,11,0,11,0,1,
663a90889439f93f09466d51,TCR,2024-06-25_14h41.18.926,LearnStrategy,2023.2.3,MacIntel,60.24096386,7,2,13,,,,,,,,2,02,,,,,,,,,,,2,0.965,1,,,,,,-0.082664931,-0.249136285,1,0,0,0.9647,Basalt_rect,12,0,12,0,1,
663a90889439f93f09466d51,TCR,2024-06-25_14h41.18.926,LearnStrategy,2023.2.3,MacIntel,60.24096386,7,2,14,,,,,,,,6,13,,,,,,,,,,,6,3.891,1,,,,,,-0.123893229,-0.402621528,1,0,0,3.8907,Pegmatite_rect,13,0,13,0,1,
663a90889439f93f09466d51,TCR,2024-06-25_14h41.18.926,LearnStrategy,2023.2.3,MacIntel,60.24096386,7,2,15,,,,,,,,2,16,,,,,,,,,,,4,1.116,0,,,,,,0.355073785,-0.270056424,1,0,0,1.1161,Gabbro_rect,14,0,14,0,1,
663a90889439f93f09466d51,TCR,2024-06-25_14h41.18.926,LearnStrategy,2023.2.3,MacIntel,60.24096386,7,2,16,,,,,,,,5,04,,,,,,,,,,,5,0.79,1,,,,,,-0.418984375,-0.415230035,1,0,0,0.7904,Obsidian_rect,15,0,15,0,1,
663a90889439f93f09466d51,TCR,2024-06-25_14h41.18.926,LearnStrategy,2023.2.3,MacIntel,60.24096386,8,1,1,-0.002196181,0.009522569,1,0,0,0.8984,rock_grid_rect_2,5,07,-1,-1,0.898,-0.39484375,-0.415577257,1,0,0,1.1254,Obsidian_rect,5,1.125,1,0,0,0,0,1,,,,,,,,,,,,,
663a90889439f93f09466d51,TCR,2024-06-25_14h41.18.926,LearnStrategy,2023.2.3,MacIntel,60.24096386,8,1,2,-0.000329861,-0.007677951,1,0,0,1.1321,rock_grid_rect_2,1,14,-1,-1,1.132,-0.33843316,-0.263090278,1,0,0,2.0595,Andesite_rect,1,2.06,1,1,0,1,0,1,,,,,,,,,,,,,
663a90889439f93f09466d51,TCR,2024-06-25_14h41.18.926,LearnStrategy,2023.2.3,MacIntel,60.24096386,8,1,3,-0.000989583,-0.005477431,1,0,0,0.5652,rock_grid_rect_2,3,12,-1,-1,0.565,0.116818576,-0.260429688,1,0,0,1.3085,Diorite_rect,3,1.309,1,2,0,2,0,1,,,,,,,,,,,,,
663a90889439f93f09466d51,TCR,2024-06-25_14h41.18.926,LearnStrategy,2023.2.3,MacIntel,60.24096386,8,1,4,0.055993924,0.009986979,1,0,0,0.6821,rock_grid_rect_2,2,14,-1,-1,0.682,0.367408854,-0.258784722,1,0,0,1.3248,Gabbro_rect,4,1.325,0,3,0,3,0,1,,,,,,,,,,,,,
663a90889439f93f09466d51,TCR,2024-06-25_14h41.18.926,LearnStrategy,2023.2.3,MacIntel,60.24096386,8,1,5,0.0084375,-0.013012153,1,0,0,0.7562,rock_grid_rect_2,3,16,-1,-1,0.756,0.093059896,-0.237100694,1,0,0,1.0578,Diorite_rect,3,1.058,1,4,0,4,0,1,,,,,,,,,,,,,
663a90889439f93f09466d51,TCR,2024-06-25_14h41.18.926,LearnStrategy,2023.2.3,MacIntel,60.24096386,8,1,6,0.055538194,0.000182292,1,0,0,0.6151,rock_grid_rect_2,6,05,-1,-1,0.615,-0.144565972,-0.39578125,1,0,0,1.3441,Pegmatite_rect,6,1.344,1,5,0,5,0,1,,,,,,,,,,,,,
663a90889439f93f09466d51,TCR,2024-06-25_14h41.18.926,LearnStrategy,2023.2.3,MacIntel,60.24096386,8,1,7,0.030824653,-0.008029514,1,0,0,0.4995,rock_grid_rect_2,1,10,-1,-1,0.5,-0.37390625,-0.267491319,1,0,0,1.0258,Andesite_rect,1,1.026,1,6,0,6,0,1,,,,,,,,,,,,,
663a90889439f93f09466d51,TCR,2024-06-25_14h41.18.926,LearnStrategy,2023.2.3,MacIntel,60.24096386,8,1,8,0.026393229,-0.006662326,1,0,0,0.5873,rock_grid_rect_2,3,11,-1,-1,0.587,0.190590278,-0.261076389,1,0,0,1.4254,Diorite_rect,3,1.425,1,7,0,7,0,1,,,,,,,,,,,,,
663a90889439f93f09466d51,TCR,2024-06-25_14h41.18.926,LearnStrategy,2023.2.3,MacIntel,60.24096386,8,1,9,0.088628472,-0.012530382,1,0,0,0.565,rock_grid_rect_2,7,08,-1,-1,0.565,0.135768229,-0.410720486,1,0,0,1.2092,Peridotite_rect,7,1.209,1,8,0,8,0,1,,,,,,,,,,,,,
663a90889439f93f09466d51,TCR,2024-06-25_14h41.18.926,LearnStrategy,2023.2.3,MacIntel,60.24096386,8,1,10,0.108459201,-0.019131944,1,0,0,0.549,rock_grid_rect_2,4,08,-1,-1,0.549,0.330585937,-0.267361111,1,0,0,1.2084,Gabbro_rect,4,1.208,1,9,0,9,0,1,,,,,,,,,,,,,
663a90889439f93f09466d51,TCR,2024-06-25_14h41.18.926,LearnStrategy,2023.2.3,MacIntel,60.24096386,8,1,11,0.070056424,0.002443576,1,0,0,0.6531,rock_grid_rect_2,6,15,-1,-1,0.653,-0.162669271,-0.414978299,1,0,0,0.9728,Pegmatite_rect,6,0.973,1,10,0,10,0,1,,,,,,,,,,,,,
663a90889439f93f09466d51,TCR,2024-06-25_14h41.18.926,LearnStrategy,2023.2.3,MacIntel,60.24096386,8,1,12,0.001809896,-0.006328125,1,0,0,0.7484,rock_grid_rect_2,2,05,-1,-1,0.748,-0.097404514,-0.244461806,1,0,0,1.1252,Basalt_rect,2,1.125,1,11,0,11,0,1,,,,,,,,,,,,,
663a90889439f93f09466d51,TCR,2024-06-25_14h41.18.926,LearnStrategy,2023.2.3,MacIntel,60.24096386,8,1,13,0.039127604,0.024982639,1,0,0,0.4819,rock_grid_rect_2,1,11,-1,-1,0.482,-0.342894965,-0.266588542,1,0,0,1.3246,Andesite_rect,1,1.325,1,12,0,12,0,1,,,,,,,,,,,,,
663a90889439f93f09466d51,TCR,2024-06-25_14h41.18.926,LearnStrategy,2023.2.3,MacIntel,60.24096386,8,1,14,0.080082465,-0.000190972,1,0,0,0.5484,rock_grid_rect_2,2,05,-1,-1,0.548,-0.10531684,-0.271896701,1,0,0,0.7921,Basalt_rect,2,0.792,1,13,0,13,0,1,,,,,,,,,,,,,
663a90889439f93f09466d51,TCR,2024-06-25_14h41.18.926,LearnStrategy,2023.2.3,MacIntel,60.24096386,8,1,15,-0.01375434,-0.009014757,1,0,0,0.3984,rock_grid_rect_2,4,13,-1,-1,0.398,0.379027778,-0.266996528,1,0,0,0.9418,Gabbro_rect,4,0.942,1,14,0,14,0,1,,,,,,,,,,,,,
663a90889439f93f09466d51,TCR,2024-06-25_14h41.18.926,LearnStrategy,2023.2.3,MacIntel,60.24096386,8,1,16,0.101063368,-0.015013021,1,0,0,0.6324,rock_grid_rect_2,8,16,-1,-1,0.632,0.349592014,-0.393980035,1,0,0,0.8253,Pumice_rect,8,0.825,1,15,0,15,0,1,,,,,,,,,,,,,
663a90889439f93f09466d51,TCR,2024-06-25_14h41.18.926,LearnStrategy,2023.2.3,MacIntel,60.24096386,8,2,1,,,,,,,,4,10,,,,,,,,,,,4,2.807,1,,,,,,0.382534722,-0.254440104,1,0,0,2.8072,Gabbro_rect,0,0,0,0,1,
663a90889439f93f09466d51,TCR,2024-06-25_14h41.18.926,LearnStrategy,2023.2.3,MacIntel,60.24096386,8,2,2,,,,,,,,8,14,,,,,,,,,,,8,0.956,1,,,,,,0.356848958,-0.397200521,1,0,0,0.9562,Pumice_rect,1,0,1,0,1,
663a90889439f93f09466d51,TCR,2024-06-25_14h41.18.926,LearnStrategy,2023.2.3,MacIntel,60.24096386,8,2,3,,,,,,,,7,05,,,,,,,,,,,7,1.023,1,,,,,,0.180746528,-0.408107639,1,0,0,1.0234,Peridotite_rect,2,0,2,0,1,
663a90889439f93f09466d51,TCR,2024-06-25_14h41.18.926,LearnStrategy,2023.2.3,MacIntel,60.24096386,8,2,4,,,,,,,,7,16,,,,,,,,,,,7,2.54,1,,,,,,0.151006944,-0.398307292,1,0,0,2.5397,Peridotite_rect,3,0,3,0,1,
663a90889439f93f09466d51,TCR,2024-06-25_14h41.18.926,LearnStrategy,2023.2.3,MacIntel,60.24096386,8,2,5,,,,,,,,3,06,,,,,,,,,,,3,1.914,1,,,,,,0.091141493,-0.252491319,1,0,0,1.9144,Diorite_rect,4,0,4,0,1,
663a90889439f93f09466d51,TCR,2024-06-25_14h41.18.926,LearnStrategy,2023.2.3,MacIntel,60.24096386,8,2,6,,,,,,,,2,01,,,,,,,,,,,2,0.823,1,,,,,,-0.076545139,-0.25234809,1,0,0,0.823,Basalt_rect,5,0,5,0,1,
663a90889439f93f09466d51,TCR,2024-06-25_14h41.18.926,LearnStrategy,2023.2.3,MacIntel,60.24096386,8,2,7,,,,,,,,5,08,,,,,,,,,,,5,0.89,1,,,,,,-0.319314236,-0.38624566,1,0,0,0.8898,Obsidian_rect,6,0,6,0,1,
663a90889439f93f09466d51,TCR,2024-06-25_14h41.18.926,LearnStrategy,2023.2.3,MacIntel,60.24096386,8,2,8,,,,,,,,1,05,,,,,,,,,,,1,1.324,1,,,,,,-0.368138021,-0.241623264,1,0,0,1.3243,Andesite_rect,7,0,7,0,1,
663a90889439f93f09466d51,TCR,2024-06-25_14h41.18.926,LearnStrategy,2023.2.3,MacIntel,60.24096386,8,2,9,,,,,,,,4,09,,,,,,,,,,,4,5.408,1,,,,,,0.358797743,-0.259262153,1,0,0,5.408,Gabbro_rect,8,0,8,0,1,
663a90889439f93f09466d51,TCR,2024-06-25_14h41.18.926,LearnStrategy,2023.2.3,MacIntel,60.24096386,8,2,10,,,,,,,,8,04,,,,,,,,,,,8,0.967,1,,,,,,0.333606771,-0.420299479,1,0,0,0.9672,Pumice_rect,9,0,9,0,1,
663a90889439f93f09466d51,TCR,2024-06-25_14h41.18.926,LearnStrategy,2023.2.3,MacIntel,60.24096386,8,2,11,,,,,,,,1,07,,,,,,,,,,,1,0.86,1,,,,,,-0.329765625,-0.248823785,1,0,0,0.86,Andesite_rect,10,0,10,0,1,
663a90889439f93f09466d51,TCR,2024-06-25_14h41.18.926,LearnStrategy,2023.2.3,MacIntel,60.24096386,8,2,12,,,,,,,,5,11,,,,,,,,,,,5,0.824,1,,,,,,-0.360073785,-0.391909722,1,0,0,0.8236,Obsidian_rect,11,0,11,0,1,
663a90889439f93f09466d51,TCR,2024-06-25_14h41.18.926,LearnStrategy,2023.2.3,MacIntel,60.24096386,8,2,13,,,,,,,,2,09,,,,,,,,,,,2,1.042,1,,,,,,-0.110668403,-0.256618924,1,0,0,1.0416,Basalt_rect,12,0,12,0,1,
663a90889439f93f09466d51,TCR,2024-06-25_14h41.18.926,LearnStrategy,2023.2.3,MacIntel,60.24096386,8,2,14,,,,,,,,3,14,,,,,,,,,,,3,0.907,1,,,,,,0.097313368,-0.242139757,1,0,0,0.9072,Diorite_rect,13,0,13,0,1,
663a90889439f93f09466d51,TCR,2024-06-25_14h41.18.926,LearnStrategy,2023.2.3,MacIntel,60.24096386,8,2,15,,,,,,,,6,11,,,,,,,,,,,6,0.84,1,,,,,,-0.123246528,-0.379210069,1,0,0,0.8402,Pegmatite_rect,14,0,14,0,1,
663a90889439f93f09466d51,TCR,2024-06-25_14h41.18.926,LearnStrategy,2023.2.3,MacIntel,60.24096386,8,2,16,,,,,,,,6,06,,,,,,,,,,,3,8.99,0,,,,,,0.105742188,-0.258302951,1,0,0,8.9898,Diorite_rect,15,0,15,0,1,
663a90889439f93f09466d51,TCR,2024-06-25_14h41.18.926,LearnStrategy,2023.2.3,MacIntel,60.24096386,9,1,1,-0.002491319,0.02156684,1,0,0,0.7155,rock_grid_rect_2,6,15,-1,-1,0.716,-0.167738715,-0.39546875,1,0,0,0.992,Pegmatite_rect,6,0.992,1,0,0,0,0,1,,,,,,,,,,,,,
663a90889439f93f09466d51,TCR,2024-06-25_14h41.18.926,LearnStrategy,2023.2.3,MacIntel,60.24096386,9,1,2,-0.019748264,0.015451389,1,0,0,0.4826,rock_grid_rect_2,2,12,-1,-1,0.483,-0.116467014,-0.24609375,1,0,0,2.2088,Basalt_rect,2,2.209,1,1,0,1,0,1,,,,,,,,,,,,,
663a90889439f93f09466d51,TCR,2024-06-25_14h41.18.926,LearnStrategy,2023.2.3,MacIntel,60.24096386,9,1,3,0.023867188,-0.01187934,1,0,0,0.5145,rock_grid_rect_2,1,06,-1,-1,0.514,-0.362712674,-0.23219184,1,0,0,1.6592,Andesite_rect,1,1.659,1,2,0,2,0,1,,,,,,,,,,,,,
663a90889439f93f09466d51,TCR,2024-06-25_14h41.18.926,LearnStrategy,2023.2.3,MacIntel,60.24096386,9,1,4,-0.028715278,-0.009262153,1,0,0,0.4978,rock_grid_rect_2,4,08,-1,-1,0.498,0.398789063,-0.234140625,1,0,0,2.2596,Gabbro_rect,4,2.26,1,3,0,3,0,1,,,,,,,,,,,,,
663a90889439f93f09466d51,TCR,2024-06-25_14h41.18.926,LearnStrategy,2023.2.3,MacIntel,60.24096386,9,1,5,0.061445313,-0.006236979,1,0,0,0.4987,rock_grid_rect_2,5,07,-1,-1,0.499,-0.310980903,-0.42078125,1,0,0,1.1916,Obsidian_rect,5,1.192,1,4,0,4,0,1,,,,,,,,,,,,,
663a90889439f93f09466d51,TCR,2024-06-25_14h41.18.926,LearnStrategy,2023.2.3,MacIntel,60.24096386,9,1,6,0.066618924,0.024466146,1,0,0,0.4652,rock_grid_rect_2,1,14,-1,-1,0.465,-0.351805556,-0.267274306,1,0,0,0.9087,Andesite_rect,1,0.909,1,5,0,5,0,1,,,,,,,,,,,,,
663a90889439f93f09466d51,TCR,2024-06-25_14h41.18.926,LearnStrategy,2023.2.3,MacIntel,60.24096386,9,1,7,0.037734375,-0.009900174,1,0,0,0.5647,rock_grid_rect_2,7,08,-1,-1,0.565,0.083485243,-0.415186632,1,0,0,1.0106,Peridotite_rect,7,1.011,1,6,0,6,0,1,,,,,,,,,,,,,
663a90889439f93f09466d51,TCR,2024-06-25_14h41.18.926,LearnStrategy,2023.2.3,MacIntel,60.24096386,9,1,8,0.033142361,0.002165799,1,0,0,0.6157,rock_grid_rect_2,1,06,-1,-1,0.616,-0.368450521,-0.254639757,1,0,0,2.725,Andesite_rect,1,2.725,1,7,0,7,0,1,,,,,,,,,,,,,
663a90889439f93f09466d51,TCR,2024-06-25_14h41.18.926,LearnStrategy,2023.2.3,MacIntel,60.24096386,9,1,9,-0.010447049,-0.008081597,1,0,0,0.7152,rock_grid_rect_2,3,13,-1,-1,0.715,0.123841146,-0.2603125,1,0,0,2.3767,Diorite_rect,3,2.377,1,8,0,8,0,1,,,,,,,,,,,,,
663a90889439f93f09466d51,TCR,2024-06-25_14h41.18.926,LearnStrategy,2023.2.3,MacIntel,60.24096386,9,1,10,0.113780382,-0.011106771,1,0,0,0.4485,rock_grid_rect_2,2,14,-1,-1,0.448,0.394930556,-0.234366319,1,0,0,1.0775,Gabbro_rect,4,1.078,0,9,0,9,0,1,,,,,,,,,,,,,
663a90889439f93f09466d51,TCR,2024-06-25_14h41.18.926,LearnStrategy,2023.2.3,MacIntel,60.24096386,9,1,11,0.078554687,-0.013229167,1,0,0,0.8153,rock_grid_rect_2,6,12,-1,-1,0.815,-0.092122396,-0.384435764,1,0,0,1.2431,Pegmatite_rect,6,1.243,1,10,0,10,0,1,,,,,,,,,,,,,
663a90889439f93f09466d51,TCR,2024-06-25_14h41.18.926,LearnStrategy,2023.2.3,MacIntel,60.24096386,9,1,12,-0.010425347,0.000442708,1,0,0,0.4141,rock_grid_rect_2,4,01,-1,-1,0.414,-0.35296441,-0.250763889,1,0,0,2.309,Andesite_rect,1,2.309,0,11,0,11,0,1,,,,,,,,,,,,,
663a90889439f93f09466d51,TCR,2024-06-25_14h41.18.926,LearnStrategy,2023.2.3,MacIntel,60.24096386,9,1,13,-0.05421441,-0.008476562,1,0,0,0.5487,rock_grid_rect_2,6,05,-1,-1,0.549,-0.140225694,-0.42140625,1,0,0,0.9766,Pegmatite_rect,6,0.977,1,12,0,12,0,1,,,,,,,,,,,,,
663a90889439f93f09466d51,TCR,2024-06-25_14h41.18.926,LearnStrategy,2023.2.3,MacIntel,60.24096386,9,1,14,0.007508681,0.002265625,1,0,0,0.5489,rock_grid_rect_2,3,07,-1,-1,0.549,0.187955729,-0.22922309,1,0,0,0.7932,Diorite_rect,3,0.793,1,13,0,13,0,1,,,,,,,,,,,,,
663a90889439f93f09466d51,TCR,2024-06-25_14h41.18.926,LearnStrategy,2023.2.3,MacIntel,60.24096386,9,1,15,0.030138889,-0.023528646,1,0,0,0.4983,rock_grid_rect_2,2,12,-1,-1,0.498,-0.158728299,-0.250815972,1,0,0,1.4276,Basalt_rect,2,1.428,1,14,0,14,0,1,,,,,,,,,,,,,
663a90889439f93f09466d51,TCR,2024-06-25_14h41.18.926,LearnStrategy,2023.2.3,MacIntel,60.24096386,9,1,16,0.01547309,-0.013168403,1,0,0,0.4486,rock_grid_rect_2,8,15,-1,-1,0.449,0.321458333,-0.402369792,1,0,0,0.9915,Pumice_rect,8,0.992,1,15,0,15,0,1,,,,,,,,,,,,,
663a90889439f93f09466d51,TCR,2024-06-25_14h41.18.926,LearnStrategy,2023.2.3,MacIntel,60.24096386,9,2,1,,,,,,,,1,04,,,,,,,,,,,1,1.19,1,,,,,,-0.388077257,-0.236293403,1,0,0,1.1899,Andesite_rect,0,0,0,0,1,
663a90889439f93f09466d51,TCR,2024-06-25_14h41.18.926,LearnStrategy,2023.2.3,MacIntel,60.24096386,9,2,2,,,,,,,,8,10,,,,,,,,,,,8,0.858,1,,,,,,0.430737847,-0.387825521,1,0,0,0.8579,Pumice_rect,1,0,1,0,1,
663a90889439f93f09466d51,TCR,2024-06-25_14h41.18.926,LearnStrategy,2023.2.3,MacIntel,60.24096386,9,2,3,,,,,,,,1,09,,,,,,,,,,,1,1.742,1,,,,,,-0.346818576,-0.25203125,1,0,0,1.7419,Andesite_rect,2,0,2,0,1,
663a90889439f93f09466d51,TCR,2024-06-25_14h41.18.926,LearnStrategy,2023.2.3,MacIntel,60.24096386,9,2,4,,,,,,,,4,14,,,,,,,,,,,4,1.608,1,,,,,,0.427070312,-0.243828125,1,0,0,1.6083,Gabbro_rect,3,0,3,0,1,
663a90889439f93f09466d51,TCR,2024-06-25_14h41.18.926,LearnStrategy,2023.2.3,MacIntel,60.24096386,9,2,5,,,,,,,,6,03,,,,,,,,,,,6,1.523,1,,,,,,-0.116597222,-0.40859375,1,0,0,1.5234,Pegmatite_rect,4,0,4,0,1,
663a90889439f93f09466d51,TCR,2024-06-25_14h41.18.926,LearnStrategy,2023.2.3,MacIntel,60.24096386,9,2,6,,,,,,,,7,10,,,,,,,,,,,7,1.107,1,,,,,,0.122122396,-0.409435764,1,0,0,1.1073,Peridotite_rect,5,0,5,0,1,
663a90889439f93f09466d51,TCR,2024-06-25_14h41.18.926,LearnStrategy,2023.2.3,MacIntel,60.24096386,9,2,7,,,,,,,,3,10,,,,,,,,,,,3,0.81,1,,,,,,0.11047309,-0.26297309,1,0,0,0.8101,Diorite_rect,6,0,6,0,1,
663a90889439f93f09466d51,TCR,2024-06-25_14h41.18.926,LearnStrategy,2023.2.3,MacIntel,60.24096386,9,2,8,,,,,,,,4,03,,,,,,,,,,,4,3.59,1,,,,,,0.327213542,-0.251132813,1,0,0,3.59,Gabbro_rect,7,0,7,0,1,
663a90889439f93f09466d51,TCR,2024-06-25_14h41.18.926,LearnStrategy,2023.2.3,MacIntel,60.24096386,9,2,9,,,,,,,,5,06,,,,,,,,,,,5,0.733,1,,,,,,-0.350763889,-0.399518229,1,0,0,0.7326,Obsidian_rect,8,0,8,0,1,
663a90889439f93f09466d51,TCR,2024-06-25_14h41.18.926,LearnStrategy,2023.2.3,MacIntel,60.24096386,9,2,10,,,,,,,,7,06,,,,,,,,,,,7,1.907,1,,,,,,0.088346354,-0.39421441,1,0,0,1.9071,Peridotite_rect,9,0,9,0,1,
663a90889439f93f09466d51,TCR,2024-06-25_14h41.18.926,LearnStrategy,2023.2.3,MacIntel,60.24096386,9,2,11,,,,,,,,2,06,,,,,,,,,,,2,1.308,1,,,,,,-0.063055556,-0.250438368,1,0,0,1.3077,Basalt_rect,10,0,10,0,1,
663a90889439f93f09466d51,TCR,2024-06-25_14h41.18.926,LearnStrategy,2023.2.3,MacIntel,60.24096386,9,2,12,,,,,,,,2,11,,,,,,,,,,,2,2.457,1,,,,,,-0.081731771,-0.252543403,1,0,0,2.4575,Basalt_rect,11,0,11,0,1,
663a90889439f93f09466d51,TCR,2024-06-25_14h41.18.926,LearnStrategy,2023.2.3,MacIntel,60.24096386,9,2,13,,,,,,,,6,10,,,,,,,,,,,6,2.332,1,,,,,,-0.087751736,-0.393815104,1,0,0,2.3321,Pegmatite_rect,12,0,12,0,1,
663a90889439f93f09466d51,TCR,2024-06-25_14h41.18.926,LearnStrategy,2023.2.3,MacIntel,60.24096386,9,2,14,,,,,,,,8,03,,,,,,,,,,,8,0.806,1,,,,,,0.368402778,-0.385247396,1,0,0,0.8055,Pumice_rect,13,0,13,0,1,
663a90889439f93f09466d51,TCR,2024-06-25_14h41.18.926,LearnStrategy,2023.2.3,MacIntel,60.24096386,9,2,15,,,,,,,,5,16,,,,,,,,,,,5,0.776,1,,,,,,-0.343585069,-0.393802083,1,0,0,0.7758,Obsidian_rect,14,0,14,0,1,
663a90889439f93f09466d51,TCR,2024-06-25_14h41.18.926,LearnStrategy,2023.2.3,MacIntel,60.24096386,9,2,16,,,,,,,,3,08,,,,,,,,,,,3,1.209,1,,,,,,0.138324653,-0.239266493,1,0,0,1.2087,Diorite_rect,15,0,15,0,1,
663a90889439f93f09466d51,TCR,2024-06-25_14h41.18.926,LearnStrategy,2023.2.3,MacIntel,60.24096386,,,,,,,,,,,,,,,,,,,,,,,,,,,,,,,,,,,,,,,,,,,1
663a90889439f93f09466d51,TCR,2024-06-25_14h41.18.926,LearnStrategy,2023.2.3,MacIntel,60.24096386,,,,,,,,,,,,,,,,,,,,,,,,,,,,,,,,,,,,,,,,,,,
663a90889439f93f09466d51,TCR,2024-06-25_14h41.18.926,LearnStrategy,2023.2.3,MacIntel,60.24096386,,,,,,,,,,,2,12,1,1,,,,,,,,,,,,,,,,,,,,,,,,,,,,,
663a90889439f93f09466d51,TCR,2024-06-25_14h41.18.926,LearnStrategy,2023.2.3,MacIntel,60.24096386,,,,,,,,,,,1,10,1,2,,,,,,,,,,,,,,,,,,,,,,,,,,,,,
663a90889439f93f09466d51,TCR,2024-06-25_14h41.18.926,LearnStrategy,2023.2.3,MacIntel,60.24096386,,,,,,,,,,,2,14,1,3,,,,,,,,,,,,,,,,,,,,,,,,,,,,,
663a90889439f93f09466d51,TCR,2024-06-25_14h41.18.926,LearnStrategy,2023.2.3,MacIntel,60.24096386,,,,,,,,,,,6,05,1,4,,,,,,,,,,,,,,,,,,,,,,,,,,,,,
663a90889439f93f09466d51,TCR,2024-06-25_14h41.18.926,LearnStrategy,2023.2.3,MacIntel,60.24096386,,,,,,,,,,,4,01,1,5,,,,,,,,,,,,,,,,,,,,,,,,,,,,,
663a90889439f93f09466d51,TCR,2024-06-25_14h41.18.926,LearnStrategy,2023.2.3,MacIntel,60.24096386,,,,,,,,,,,3,02,1,6,,,,,,,,,,,,,,,,,,,,,,,,,,,,,
663a90889439f93f09466d51,TCR,2024-06-25_14h41.18.926,LearnStrategy,2023.2.3,MacIntel,60.24096386,,,,,,,,,,,7,12,1,7,,,,,,,,,,,,,,,,,,,,,,,,,,,,,
663a90889439f93f09466d51,TCR,2024-06-25_14h41.18.926,LearnStrategy,2023.2.3,MacIntel,60.24096386,,,,,,,,,,,7,13,1,8,,,,,,,,,,,,,,,,,,,,,,,,,,,,,
663a90889439f93f09466d51,TCR,2024-06-25_14h41.18.926,LearnStrategy,2023.2.3,MacIntel,60.24096386,,,,,,,,,,,3,16,2,1,,,,,,,,,,,,,,,,,,,,,,,,,,,,,
663a90889439f93f09466d51,TCR,2024-06-25_14h41.18.926,LearnStrategy,2023.2.3,MacIntel,60.24096386,,,,,,,,,,,1,06,2,2,,,,,,,,,,,,,,,,,,,,,,,,,,,,,
663a90889439f93f09466d51,TCR,2024-06-25_14h41.18.926,LearnStrategy,2023.2.3,MacIntel,60.24096386,,,,,,,,,,,1,11,2,3,,,,,,,,,,,,,,,,,,,,,,,,,,,,,
663a90889439f93f09466d51,TCR,2024-06-25_14h41.18.926,LearnStrategy,2023.2.3,MacIntel,60.24096386,,,,,,,,,,,6,16,2,4,,,,,,,,,,,,,,,,,,,,,,,,,,,,,
663a90889439f93f09466d51,TCR,2024-06-25_14h41.18.926,LearnStrategy,2023.2.3,MacIntel,60.24096386,,,,,,,,,,,6,15,2,5,,,,,,,,,,,,,,,,,,,,,,,,,,,,,
663a90889439f93f09466d51,TCR,2024-06-25_14h41.18.926,LearnStrategy,2023.2.3,MacIntel,60.24096386,,,,,,,,,,,8,13,2,6,,,,,,,,,,,,,,,,,,,,,,,,,,,,,
663a90889439f93f09466d51,TCR,2024-06-25_14h41.18.926,LearnStrategy,2023.2.3,MacIntel,60.24096386,,,,,,,,,,,1,16,2,7,,,,,,,,,,,,,,,,,,,,,,,,,,,,,
663a90889439f93f09466d51,TCR,2024-06-25_14h41.18.926,LearnStrategy,2023.2.3,MacIntel,60.24096386,,,,,,,,,,,6,07,2,8,,,,,,,,,,,,,,,,,,,,,,,,,,,,,
663a90889439f93f09466d51,TCR,2024-06-25_14h41.18.926,LearnStrategy,2023.2.3,MacIntel,60.24096386,,,,,,,,,,,7,15,3,1,,,,,,,,,,,,,,,,,,,,,,,,,,,,,
663a90889439f93f09466d51,TCR,2024-06-25_14h41.18.926,LearnStrategy,2023.2.3,MacIntel,60.24096386,,,,,,,,,,,2,05,3,2,,,,,,,,,,,,,,,,,,,,,,,,,,,,,
663a90889439f93f09466d51,TCR,2024-06-25_14h41.18.926,LearnStrategy,2023.2.3,MacIntel,60.24096386,,,,,,,,,,,1,14,3,3,,,,,,,,,,,,,,,,,,,,,,,,,,,,,
663a90889439f93f09466d51,TCR,2024-06-25_14h41.18.926,LearnStrategy,2023.2.3,MacIntel,60.24096386,,,,,,,,,,,5,10,3,4,,,,,,,,,,,,,,,,,,,,,,,,,,,,,
663a90889439f93f09466d51,TCR,2024-06-25_14h41.18.926,LearnStrategy,2023.2.3,MacIntel,60.24096386,,,,,,,,,,,2,10,3,5,,,,,,,,,,,,,,,,,,,,,,,,,,,,,
663a90889439f93f09466d51,TCR,2024-06-25_14h41.18.926,LearnStrategy,2023.2.3,MacIntel,60.24096386,,,,,,,,,,,3,07,3,6,,,,,,,,,,,,,,,,,,,,,,,,,,,,,
663a90889439f93f09466d51,TCR,2024-06-25_14h41.18.926,LearnStrategy,2023.2.3,MacIntel,60.24096386,,,,,,,,,,,6,09,3,7,,,,,,,,,,,,,,,,,,,,,,,,,,,,,
663a90889439f93f09466d51,TCR,2024-06-25_14h41.18.926,LearnStrategy,2023.2.3,MacIntel,60.24096386,,,,,,,,,,,5,14,3,8,,,,,,,,,,,,,,,,,,,,,,,,,,,,,
663a90889439f93f09466d51,TCR,2024-06-25_14h41.18.926,LearnStrategy,2023.2.3,MacIntel,60.24096386,,,,,,,,,,,8,02,4,1,,,,,,,,,,,,,,,,,,,,,,,,,,,,,
663a90889439f93f09466d51,TCR,2024-06-25_14h41.18.926,LearnStrategy,2023.2.3,MacIntel,60.24096386,,,,,,,,,,,6,12,4,2,,,,,,,,,,,,,,,,,,,,,,,,,,,,,
663a90889439f93f09466d51,TCR,2024-06-25_14h41.18.926,LearnStrategy,2023.2.3,MacIntel,60.24096386,,,,,,,,,,,3,12,4,3,,,,,,,,,,,,,,,,,,,,,,,,,,,,,
663a90889439f93f09466d51,TCR,2024-06-25_14h41.18.926,LearnStrategy,2023.2.3,MacIntel,60.24096386,,,,,,,,,,,2,04,4,4,,,,,,,,,,,,,,,,,,,,,,,,,,,,,
663a90889439f93f09466d51,TCR,2024-06-25_14h41.18.926,LearnStrategy,2023.2.3,MacIntel,60.24096386,,,,,,,,,,,4,08,4,5,,,,,,,,,,,,,,,,,,,,,,,,,,,,,
663a90889439f93f09466d51,TCR,2024-06-25_14h41.18.926,LearnStrategy,2023.2.3,MacIntel,60.24096386,,,,,,,,,,,8,15,4,6,,,,,,,,,,,,,,,,,,,,,,,,,,,,,
663a90889439f93f09466d51,TCR,2024-06-25_14h41.18.926,LearnStrategy,2023.2.3,MacIntel,60.24096386,,,,,,,,,,,5,12,4,7,,,,,,,,,,,,,,,,,,,,,,,,,,,,,
663a90889439f93f09466d51,TCR,2024-06-25_14h41.18.926,LearnStrategy,2023.2.3,MacIntel,60.24096386,,,,,,,,,,,3,13,4,8,,,,,,,,,,,,,,,,,,,,,,,,,,,,,
663a90889439f93f09466d51,TCR,2024-06-25_14h41.18.926,LearnStrategy,2023.2.3,MacIntel,60.24096386,,,,,,,,,,,5,05,5,1,,,,,,,,,,,,,,,,,,,,,,,,,,,,,
663a90889439f93f09466d51,TCR,2024-06-25_14h41.18.926,LearnStrategy,2023.2.3,MacIntel,60.24096386,,,,,,,,,,,5,09,5,2,,,,,,,,,,,,,,,,,,,,,,,,,,,,,
663a90889439f93f09466d51,TCR,2024-06-25_14h41.18.926,LearnStrategy,2023.2.3,MacIntel,60.24096386,,,,,,,,,,,8,06,5,3,,,,,,,,,,,,,,,,,,,,,,,,,,,,,
663a90889439f93f09466d51,TCR,2024-06-25_14h41.18.926,LearnStrategy,2023.2.3,MacIntel,60.24096386,,,,,,,,,,,4,16,5,4,,,,,,,,,,,,,,,,,,,,,,,,,,,,,
663a90889439f93f09466d51,TCR,2024-06-25_14h41.18.926,LearnStrategy,2023.2.3,MacIntel,60.24096386,,,,,,,,,,,7,02,5,5,,,,,,,,,,,,,,,,,,,,,,,,,,,,,
663a90889439f93f09466d51,TCR,2024-06-25_14h41.18.926,LearnStrategy,2023.2.3,MacIntel,60.24096386,,,,,,,,,,,5,07,5,6,,,,,,,,,,,,,,,,,,,,,,,,,,,,,
663a90889439f93f09466d51,TCR,2024-06-25_14h41.18.926,LearnStrategy,2023.2.3,MacIntel,60.24096386,,,,,,,,,,,7,04,5,7,,,,,,,,,,,,,,,,,,,,,,,,,,,,,
663a90889439f93f09466d51,TCR,2024-06-25_14h41.18.926,LearnStrategy,2023.2.3,MacIntel,60.24096386,,,,,,,,,,,3,11,5,8,,,,,,,,,,,,,,,,,,,,,,,,,,,,,
663a90889439f93f09466d51,TCR,2024-06-25_14h41.18.926,LearnStrategy,2023.2.3,MacIntel,60.24096386,,,,,,,,,,,7,08,6,1,,,,,,,,,,,,,,,,,,,,,,,,,,,,,
663a90889439f93f09466d51,TCR,2024-06-25_14h41.18.926,LearnStrategy,2023.2.3,MacIntel,60.24096386,,,,,,,,,,,1,03,6,2,,,,,,,,,,,,,,,,,,,,,,,,,,,,,
663a90889439f93f09466d51,TCR,2024-06-25_14h41.18.926,LearnStrategy,2023.2.3,MacIntel,60.24096386,,,,,,,,,,,8,08,6,3,,,,,,,,,,,,,,,,,,,,,,,,,,,,,
663a90889439f93f09466d51,TCR,2024-06-25_14h41.18.926,LearnStrategy,2023.2.3,MacIntel,60.24096386,,,,,,,,,,,4,15,6,4,,,,,,,,,,,,,,,,,,,,,,,,,,,,,
663a90889439f93f09466d51,TCR,2024-06-25_14h41.18.926,LearnStrategy,2023.2.3,MacIntel,60.24096386,,,,,,,,,,,4,12,6,5,,,,,,,,,,,,,,,,,,,,,,,,,,,,,
663a90889439f93f09466d51,TCR,2024-06-25_14h41.18.926,LearnStrategy,2023.2.3,MacIntel,60.24096386,,,,,,,,,,,4,13,6,6,,,,,,,,,,,,,,,,,,,,,,,,,,,,,
663a90889439f93f09466d51,TCR,2024-06-25_14h41.18.926,LearnStrategy,2023.2.3,MacIntel,60.24096386,,,,,,,,,,,8,16,6,7,,,,,,,,,,,,,,,,,,,,,,,,,,,,,
663a90889439f93f09466d51,TCR,2024-06-25_14h41.18.926,LearnStrategy,2023.2.3,MacIntel,60.24096386,,,,,,,,,,,2,08,6,8,,,,,,,,,,,,,,,,,,,,,,,,,,,,,