participant,condition,date,expName,psychopyVersion,OS,frameRate,block,phase,trial,learn_mouse.x,learn_mouse.y,learn_mouse.leftButton,learn_mouse.midButton,learn_mouse.rightButton,learn_mouse.time,learn_mouse.clicked_name,cat,token,row,col,t_select,cat_mouse_l.x,cat_mouse_l.y,cat_mouse_l.leftButton,cat_mouse_l.midButton,cat_mouse_l.rightButton,cat_mouse_l.time,cat_mouse_l.clicked_name,resp,t_resp,corr,train_trials.thisRepN,train_trials.thisTrialN,train_trials.thisN,train_trials.thisIndex,train_trials.ran,cat_mouse_t.x,cat_mouse_t.y,cat_mouse_t.leftButton,cat_mouse_t.midButton,cat_mouse_t.rightButton,cat_mouse_t.time,cat_mouse_t.clicked_name,test_trials.thisRepN,test_trials.thisTrialN,test_trials.thisN,test_trials.thisIndex,test_trials.ran
663af46531faaee825a255b1,SCN,2024-06-10_12h52.20.428,LearnStrategy,2023.2.3,MacIntel,59.88023952,,,,,,,,,,,,,,,,,,,,,,,,,,,,,,,,,,,,,,,,,,
663af46531faaee825a255b1,SCN,2024-06-10_12h52.20.428,LearnStrategy,2023.2.3,MacIntel,59.88023952,1,1,1,-0.563333333,-0.255555556,1,0,0,3.881,Obsidian_05,5,05,2,1,3.881,-0.454444444,-0.39,1,0,0,6.296,Obsidian_rect,5,6.296,1,0,0,0,0,1,,,,,,,,,,,,
663af46531faaee825a255b1,SCN,2024-06-10_12h52.20.428,LearnStrategy,2023.2.3,MacIntel,59.88023952,1,1,2,0.392222222,-0.435555556,1,0,0,4.933,Peridotite_12,7,12,1,7,4.933,0.428888889,-0.403333333,1,0,0,5.288,Pumice_rect,8,5.288,0,1,0,1,0,1,,,,,,,,,,,,
663af46531faaee825a255b1,SCN,2024-06-10_12h52.20.428,LearnStrategy,2023.2.3,MacIntel,59.88023952,1,1,3,0.065555556,-0.09,1,0,0,4.545,Diorite_11,3,11,3,5,4.545,-0.131111111,-0.388888889,1,0,0,5.46,Pegmatite_rect,6,5.46,0,2,0,2,0,1,,,,,,,,,,,,
663af46531faaee825a255b1,SCN,2024-06-10_12h52.20.428,LearnStrategy,2023.2.3,MacIntel,59.88023952,1,1,4,-0.236666667,0.083333333,1,0,0,1.529,Pumice_09,8,09,4,3,1.529,0.378888889,-0.418888889,1,0,0,3.906,Pumice_rect,8,3.906,1,3,0,3,0,1,,,,,,,,,,,,
663af46531faaee825a255b1,SCN,2024-06-10_12h52.20.428,LearnStrategy,2023.2.3,MacIntel,59.88023952,1,1,5,-0.398888889,-0.288888889,1,0,0,1.862,Peridotite_13,7,13,2,2,1.862,0.381111111,-0.244444444,1,0,0,3.285,Gabbro_rect,4,3.285,0,4,0,4,0,1,,,,,,,,,,,,
663af46531faaee825a255b1,SCN,2024-06-10_12h52.20.428,LearnStrategy,2023.2.3,MacIntel,59.88023952,1,1,6,-0.371111111,0.262222222,1,0,0,1.614,Obsidian_08,5,08,5,2,1.614,-0.134444444,-0.268888889,1,0,0,3.136,Basalt_rect,2,3.136,0,5,0,5,0,1,,,,,,,,,,,,
663af46531faaee825a255b1,SCN,2024-06-10_12h52.20.428,LearnStrategy,2023.2.3,MacIntel,59.88023952,1,1,7,0.554444444,-0.256666667,1,0,0,1.912,Basalt_06,2,06,2,8,1.912,-0.075555556,-0.244444444,1,0,0,4.328,Basalt_rect,2,4.328,1,6,0,6,0,1,,,,,,,,,,,,
663af46531faaee825a255b1,SCN,2024-06-10_12h52.20.428,LearnStrategy,2023.2.3,MacIntel,59.88023952,1,1,8,-0.255555556,0.264444444,1,0,0,2.863,Basalt_04,2,04,5,3,2.863,-0.095555556,-0.25,1,0,0,1.278,Basalt_rect,2,1.278,1,7,0,7,0,1,,,,,,,,,,,,
663af46531faaee825a255b1,SCN,2024-06-10_12h52.20.428,LearnStrategy,2023.2.3,MacIntel,59.88023952,1,1,9,-0.211111111,-0.42,1,0,0,2.332,Pegmatite_13,6,13,1,3,2.332,-0.363333333,-0.417777778,1,0,0,2.942,Obsidian_rect,5,2.942,0,8,0,8,0,1,,,,,,,,,,,,
663af46531faaee825a255b1,SCN,2024-06-10_12h52.20.428,LearnStrategy,2023.2.3,MacIntel,59.88023952,1,1,10,-0.546666667,-0.108888889,1,0,0,2.88,Pegmatite_11,6,11,3,1,2.88,-0.09,-0.416666667,1,0,0,1.395,Pegmatite_rect,6,1.395,1,9,0,9,0,1,,,,,,,,,,,,
663af46531faaee825a255b1,SCN,2024-06-10_12h52.20.428,LearnStrategy,2023.2.3,MacIntel,59.88023952,1,1,11,0.548888889,0.258888889,1,0,0,2.195,Pegmatite_07,6,07,5,8,2.195,-0.157777778,-0.405555556,1,0,0,2.752,Pegmatite_rect,6,2.752,1,10,0,10,0,1,,,,,,,,,,,,
663af46531faaee825a255b1,SCN,2024-06-10_12h52.20.428,LearnStrategy,2023.2.3,MacIntel,59.88023952,1,1,12,-0.096666667,-0.105555556,1,0,0,2.463,Gabbro_12,4,12,3,4,2.463,0.395555556,-0.263333333,1,0,0,3.134,Gabbro_rect,4,3.134,1,11,0,11,0,1,,,,,,,,,,,,
663af46531faaee825a255b1,SCN,2024-06-10_12h52.20.428,LearnStrategy,2023.2.3,MacIntel,59.88023952,1,1,13,-0.441111111,0.438888889,1,0,0,1.764,Diorite_08,3,08,6,2,1.764,0.13,-0.412222222,1,0,0,2.978,Peridotite_rect,7,2.978,0,12,0,12,0,1,,,,,,,,,,,,
663af46531faaee825a255b1,SCN,2024-06-10_12h52.20.428,LearnStrategy,2023.2.3,MacIntel,59.88023952,1,1,14,-0.533333333,-0.264444444,1,0,0,3.413,Obsidian_05,5,05,2,1,3.413,-0.342222222,-0.416666667,1,0,0,1.232,Obsidian_rect,5,1.232,1,13,0,13,0,1,,,,,,,,,,,,
663af46531faaee825a255b1,SCN,2024-06-10_12h52.20.428,LearnStrategy,2023.2.3,MacIntel,59.88023952,1,1,15,0.535555556,-0.087777778,1,0,0,5.216,Pumice_03,8,03,3,8,5.216,0.358888889,-0.418888889,1,0,0,2.728,Pumice_rect,8,2.728,1,14,0,14,0,1,,,,,,,,,,,,
663af46531faaee825a255b1,SCN,2024-06-10_12h52.20.428,LearnStrategy,2023.2.3,MacIntel,59.88023952,1,1,16,0.218888889,-0.082222222,1,0,0,1.1,Pumice_02,8,02,3,6,1.1,0.441111111,-0.394444444,1,0,0,1.374,Pumice_rect,8,1.374,1,15,0,15,0,1,,,,,,,,,,,,
663af46531faaee825a255b1,SCN,2024-06-10_12h52.20.428,LearnStrategy,2023.2.3,MacIntel,59.88023952,1,2,1,,,,,,,,7,16,,,,,,,,,,,2,2.25,0,,,,,,-0.148888889,-0.243333333,1,0,0,2.25,Basalt_rect,0,0,0,0,1
663af46531faaee825a255b1,SCN,2024-06-10_12h52.20.428,LearnStrategy,2023.2.3,MacIntel,59.88023952,1,2,2,,,,,,,,2,01,,,,,,,,,,,2,4.963,1,,,,,,-0.148888889,-0.243333333,1,0,0,4.963,Basalt_rect,1,0,1,0,1
663af46531faaee825a255b1,SCN,2024-06-10_12h52.20.428,LearnStrategy,2023.2.3,MacIntel,59.88023952,1,2,3,,,,,,,,2,10,,,,,,,,,,,2,3.362,1,,,,,,-0.158888889,-0.245555556,1,0,0,3.362,Basalt_rect,2,0,2,0,1
663af46531faaee825a255b1,SCN,2024-06-10_12h52.20.428,LearnStrategy,2023.2.3,MacIntel,59.88023952,1,2,4,,,,,,,,4,11,,,,,,,,,,,7,2.518,0,,,,,,0.13,-0.403333333,1,0,0,2.518,Peridotite_rect,3,0,3,0,1
663af46531faaee825a255b1,SCN,2024-06-10_12h52.20.428,LearnStrategy,2023.2.3,MacIntel,59.88023952,1,2,5,,,,,,,,3,13,,,,,,,,,,,6,5.202,0,,,,,,-0.093333333,-0.402222222,1,0,0,5.202,Pegmatite_rect,4,0,4,0,1
663af46531faaee825a255b1,SCN,2024-06-10_12h52.20.428,LearnStrategy,2023.2.3,MacIntel,59.88023952,1,2,6,,,,,,,,6,03,,,,,,,,,,,6,1.225,1,,,,,,-0.093333333,-0.402222222,1,0,0,1.225,Pegmatite_rect,5,0,5,0,1
663af46531faaee825a255b1,SCN,2024-06-10_12h52.20.428,LearnStrategy,2023.2.3,MacIntel,59.88023952,1,2,7,,,,,,,,5,09,,,,,,,,,,,5,1.583,1,,,,,,-0.326666667,-0.416666667,1,0,0,1.583,Obsidian_rect,6,0,6,0,1
663af46531faaee825a255b1,SCN,2024-06-10_12h52.20.428,LearnStrategy,2023.2.3,MacIntel,59.88023952,1,2,8,,,,,,,,1,16,,,,,,,,,,,6,1.721,0,,,,,,-0.075555556,-0.411111111,1,0,0,1.721,Pegmatite_rect,7,0,7,0,1
663af46531faaee825a255b1,SCN,2024-06-10_12h52.20.428,LearnStrategy,2023.2.3,MacIntel,59.88023952,1,2,9,,,,,,,,7,06,,,,,,,,,,,6,1.097,0,,,,,,-0.075555556,-0.411111111,1,0,0,1.097,Pegmatite_rect,8,0,8,0,1
663af46531faaee825a255b1,SCN,2024-06-10_12h52.20.428,LearnStrategy,2023.2.3,MacIntel,59.88023952,1,2,10,,,,,,,,4,10,,,,,,,,,,,8,2.34,0,,,,,,0.424444444,-0.41,1,0,0,2.34,Pumice_rect,9,0,9,0,1
663af46531faaee825a255b1,SCN,2024-06-10_12h52.20.428,LearnStrategy,2023.2.3,MacIntel,59.88023952,1,2,11,,,,,,,,3,12,,,,,,,,,,,8,1.338,0,,,,,,0.424444444,-0.41,1,0,0,1.338,Pumice_rect,10,0,10,0,1
663af46531faaee825a255b1,SCN,2024-06-10_12h52.20.428,LearnStrategy,2023.2.3,MacIntel,59.88023952,1,2,12,,,,,,,,6,16,,,,,,,,,,,6,1.538,1,,,,,,-0.102222222,-0.415555556,1,0,0,1.538,Pegmatite_rect,11,0,11,0,1
663af46531faaee825a255b1,SCN,2024-06-10_12h52.20.428,LearnStrategy,2023.2.3,MacIntel,59.88023952,1,2,13,,,,,,,,8,10,,,,,,,,,,,8,1.887,1,,,,,,0.37,-0.38,1,0,0,1.887,Pumice_rect,12,0,12,0,1
663af46531faaee825a255b1,SCN,2024-06-10_12h52.20.428,LearnStrategy,2023.2.3,MacIntel,59.88023952,1,2,14,,,,,,,,5,14,,,,,,,,,,,5,2.188,1,,,,,,-0.433333333,-0.406666667,1,0,0,2.188,Obsidian_rect,13,0,13,0,1
663af46531faaee825a255b1,SCN,2024-06-10_12h52.20.428,LearnStrategy,2023.2.3,MacIntel,59.88023952,1,2,15,,,,,,,,1,02,,,,,,,,,,,5,2.524,0,,,,,,-0.433333333,-0.406666667,1,0,0,2.524,Obsidian_rect,14,0,14,0,1
663af46531faaee825a255b1,SCN,2024-06-10_12h52.20.428,LearnStrategy,2023.2.3,MacIntel,59.88023952,1,2,16,,,,,,,,8,04,,,,,,,,,,,8,1.745,1,,,,,,0.348888889,-0.41,1,0,0,1.745,Pumice_rect,15,0,15,0,1
663af46531faaee825a255b1,SCN,2024-06-10_12h52.20.428,LearnStrategy,2023.2.3,MacIntel,59.88023952,2,1,1,-0.036666667,-0.097777778,1,0,0,2.316,Gabbro_12,4,12,3,4,2.316,0.355555556,-0.25,1,0,0,1.606,Gabbro_rect,4,1.606,1,0,0,0,0,1,,,,,,,,,,,,
663af46531faaee825a255b1,SCN,2024-06-10_12h52.20.428,LearnStrategy,2023.2.3,MacIntel,59.88023952,2,1,2,-0.411111111,-0.105555556,1,0,0,1.345,Peridotite_10,7,10,3,2,1.345,-0.156666667,-0.394444444,1,0,0,2.122,Pegmatite_rect,6,2.122,0,1,0,1,0,1,,,,,,,,,,,,
663af46531faaee825a255b1,SCN,2024-06-10_12h52.20.428,LearnStrategy,2023.2.3,MacIntel,59.88023952,2,1,3,-0.54,-0.44,1,0,0,2.361,Andesite_07,1,07,1,1,2.361,-0.192222222,-0.41,1,0,0,1.466,Pegmatite_rect,6,1.466,0,2,0,2,0,1,,,,,,,,,,,,
663af46531faaee825a255b1,SCN,2024-06-10_12h52.20.428,LearnStrategy,2023.2.3,MacIntel,59.88023952,2,1,4,-0.377777778,0.108888889,1,0,0,1.145,Gabbro_01,4,01,4,2,1.145,-0.427777778,-0.251111111,1,0,0,1.217,Andesite_rect,1,1.217,0,3,0,3,0,1,,,,,,,,,,,,
663af46531faaee825a255b1,SCN,2024-06-10_12h52.20.428,LearnStrategy,2023.2.3,MacIntel,59.88023952,2,1,5,0.514444444,-0.397777778,1,0,0,2.015,Pegmatite_09,6,09,1,8,2.015,-0.143333333,-0.402222222,1,0,0,1.927,Pegmatite_rect,6,1.927,1,4,0,4,0,1,,,,,,,,,,,,
663af46531faaee825a255b1,SCN,2024-06-10_12h52.20.428,LearnStrategy,2023.2.3,MacIntel,59.88023952,2,1,6,0.391111111,-0.081111111,1,0,0,1.497,Peridotite_04,7,04,3,7,1.497,0.341111111,-0.268888889,1,0,0,2.072,Gabbro_rect,4,2.072,0,5,0,5,0,1,,,,,,,,,,,,
663af46531faaee825a255b1,SCN,2024-06-10_12h52.20.428,LearnStrategy,2023.2.3,MacIntel,59.88023952,2,1,7,-0.361111111,-0.252222222,1,0,0,39.984,Peridotite_13,7,13,2,2,39.984,0.137777778,-0.402222222,1,0,0,2.141,Peridotite_rect,7,2.141,1,6,0,6,0,1,,,,,,,,,,,,
663af46531faaee825a255b1,SCN,2024-06-10_12h52.20.428,LearnStrategy,2023.2.3,MacIntel,59.88023952,2,1,8,0.268888889,0.094444444,1,0,0,0.996,Pumice_13,8,13,4,6,0.996,0.367777778,-0.415555556,1,0,0,1.353,Pumice_rect,8,1.353,1,7,0,7,0,1,,,,,,,,,,,,
663af46531faaee825a255b1,SCN,2024-06-10_12h52.20.428,LearnStrategy,2023.2.3,MacIntel,59.88023952,2,1,9,0.58,-0.107777778,1,0,0,2.014,Pumice_03,8,03,3,8,2.014,0.433333333,-0.4,1,0,0,1.161,Pumice_rect,8,1.161,1,8,0,8,0,1,,,,,,,,,,,,
663af46531faaee825a255b1,SCN,2024-06-10_12h52.20.428,LearnStrategy,2023.2.3,MacIntel,59.88023952,2,1,10,-0.533333333,0.093333333,1,0,0,2.684,Pegmatite_08,6,08,4,1,2.684,-0.14,-0.392222222,1,0,0,1.345,Pegmatite_rect,6,1.345,1,9,0,9,0,1,,,,,,,,,,,,
663af46531faaee825a255b1,SCN,2024-06-10_12h52.20.428,LearnStrategy,2023.2.3,MacIntel,59.88023952,2,1,11,-0.077777778,0.102222222,1,0,0,1.83,Gabbro_05,4,05,4,4,1.83,-0.094444444,-0.255555556,1,0,0,1.766,Basalt_rect,2,1.766,0,10,0,10,0,1,,,,,,,,,,,,
663af46531faaee825a255b1,SCN,2024-06-10_12h52.20.428,LearnStrategy,2023.2.3,MacIntel,59.88023952,2,1,12,0.411111111,-0.434444444,1,0,0,1.514,Peridotite_12,7,12,1,7,1.514,0.374444444,-0.254444444,1,0,0,1.084,Gabbro_rect,4,1.084,0,11,0,11,0,1,,,,,,,,,,,,
663af46531faaee825a255b1,SCN,2024-06-10_12h52.20.428,LearnStrategy,2023.2.3,MacIntel,59.88023952,2,1,13,-0.215555556,0.095555556,1,0,0,1.011,Pumice_09,8,09,4,3,1.011,0.411111111,-0.393333333,1,0,0,1.681,Pumice_rect,8,1.681,1,12,0,12,0,1,,,,,,,,,,,,
663af46531faaee825a255b1,SCN,2024-06-10_12h52.20.428,LearnStrategy,2023.2.3,MacIntel,59.88023952,2,1,14,-0.397777778,0.384444444,1,0,0,2.813,Diorite_08,3,08,6,2,2.813,-0.375555556,-0.253333333,1,0,0,2.597,Andesite_rect,1,2.597,0,13,0,13,0,1,,,,,,,,,,,,
663af46531faaee825a255b1,SCN,2024-06-10_12h52.20.428,LearnStrategy,2023.2.3,MacIntel,59.88023952,2,1,15,0.411111111,-0.435555556,1,0,0,1.223,Peridotite_12,7,12,1,7,1.223,0.16,-0.412222222,1,0,0,1.353,Peridotite_rect,7,1.353,1,14,0,14,0,1,,,,,,,,,,,,
663af46531faaee825a255b1,SCN,2024-06-10_12h52.20.428,LearnStrategy,2023.2.3,MacIntel,59.88023952,2,1,16,0.087777778,-0.402222222,1,0,0,0.881,Andesite_10,1,10,1,5,0.881,-0.361111111,-0.256666667,1,0,0,2.762,Andesite_rect,1,2.762,1,15,0,15,0,1,,,,,,,,,,,,
663af46531faaee825a255b1,SCN,2024-06-10_12h52.20.428,LearnStrategy,2023.2.3,MacIntel,59.88023952,2,2,1,,,,,,,,1,04,,,,,,,,,,,1,1.334,1,,,,,,-0.357777778,-0.254444444,1,0,0,1.334,Andesite_rect,0,0,0,0,1
663af46531faaee825a255b1,SCN,2024-06-10_12h52.20.428,LearnStrategy,2023.2.3,MacIntel,59.88023952,2,2,2,,,,,,,,8,15,,,,,,,,,,,8,1.396,1,,,,,,0.451111111,-0.407777778,1,0,0,1.396,Pumice_rect,1,0,1,0,1
663af46531faaee825a255b1,SCN,2024-06-10_12h52.20.428,LearnStrategy,2023.2.3,MacIntel,59.88023952,2,2,3,,,,,,,,1,11,,,,,,,,,,,1,2.505,1,,,,,,-0.327777778,-0.248888889,1,0,0,2.505,Andesite_rect,2,0,2,0,1
663af46531faaee825a255b1,SCN,2024-06-10_12h52.20.428,LearnStrategy,2023.2.3,MacIntel,59.88023952,2,2,4,,,,,,,,4,15,,,,,,,,,,,4,3.231,1,,,,,,0.315555556,-0.264444444,1,0,0,3.231,Gabbro_rect,3,0,3,0,1
663af46531faaee825a255b1,SCN,2024-06-10_12h52.20.428,LearnStrategy,2023.2.3,MacIntel,59.88023952,2,2,5,,,,,,,,2,05,,,,,,,,,,,2,1.551,1,,,,,,-0.183333333,-0.256666667,1,0,0,1.551,Basalt_rect,4,0,4,0,1
663af46531faaee825a255b1,SCN,2024-06-10_12h52.20.428,LearnStrategy,2023.2.3,MacIntel,59.88023952,2,2,6,,,,,,,,5,06,,,,,,,,,,,5,1.495,1,,,,,,-0.375555556,-0.397777778,1,0,0,1.495,Obsidian_rect,5,0,5,0,1
663af46531faaee825a255b1,SCN,2024-06-10_12h52.20.428,LearnStrategy,2023.2.3,MacIntel,59.88023952,2,2,7,,,,,,,,5,02,,,,,,,,,,,5,0.775,1,,,,,,-0.375555556,-0.397777778,1,0,0,0.775,Obsidian_rect,6,0,6,0,1
663af46531faaee825a255b1,SCN,2024-06-10_12h52.20.428,LearnStrategy,2023.2.3,MacIntel,59.88023952,2,2,8,,,,,,,,6,06,,,,,,,,,,,6,4.113,1,,,,,,-0.111111111,-0.401111111,1,0,0,4.113,Pegmatite_rect,7,0,7,0,1
663af46531faaee825a255b1,SCN,2024-06-10_12h52.20.428,LearnStrategy,2023.2.3,MacIntel,59.88023952,2,2,9,,,,,,,,3,09,,,,,,,,,,,1,2.248,0,,,,,,-0.348888889,-0.265555556,1,0,0,2.248,Andesite_rect,8,0,8,0,1
663af46531faaee825a255b1,SCN,2024-06-10_12h52.20.428,LearnStrategy,2023.2.3,MacIntel,59.88023952,2,2,10,,,,,,,,3,02,,,,,,,,,,,3,1.938,1,,,,,,0.187777778,-0.254444444,1,0,0,1.938,Diorite_rect,9,0,9,0,1
663af46531faaee825a255b1,SCN,2024-06-10_12h52.20.428,LearnStrategy,2023.2.3,MacIntel,59.88023952,2,2,11,,,,,,,,6,10,,,,,,,,,,,7,1.923,0,,,,,,0.213333333,-0.401111111,1,0,0,1.923,Peridotite_rect,10,0,10,0,1
663af46531faaee825a255b1,SCN,2024-06-10_12h52.20.428,LearnStrategy,2023.2.3,MacIntel,59.88023952,2,2,12,,,,,,,,4,09,,,,,,,,,,,4,5.509,1,,,,,,0.382222222,-0.261111111,1,0,0,5.509,Gabbro_rect,11,0,11,0,1
663af46531faaee825a255b1,SCN,2024-06-10_12h52.20.428,LearnStrategy,2023.2.3,MacIntel,59.88023952,2,2,13,,,,,,,,8,08,,,,,,,,,,,8,1.199,1,,,,,,0.376666667,-0.391111111,1,0,0,1.199,Pumice_rect,12,0,12,0,1
663af46531faaee825a255b1,SCN,2024-06-10_12h52.20.428,LearnStrategy,2023.2.3,MacIntel,59.88023952,2,2,14,,,,,,,,2,14,,,,,,,,,,,8,1.747,0,,,,,,0.376666667,-0.391111111,1,0,0,1.747,Pumice_rect,13,0,13,0,1
663af46531faaee825a255b1,SCN,2024-06-10_12h52.20.428,LearnStrategy,2023.2.3,MacIntel,59.88023952,2,2,15,,,,,,,,7,14,,,,,,,,,,,1,3.084,0,,,,,,-0.377777778,-0.242222222,1,0,0,3.084,Andesite_rect,14,0,14,0,1
663af46531faaee825a255b1,SCN,2024-06-10_12h52.20.428,LearnStrategy,2023.2.3,MacIntel,59.88023952,2,2,16,,,,,,,,7,15,,,,,,,,,,,7,1.96,1,,,,,,0.083333333,-0.404444444,1,0,0,1.96,Peridotite_rect,15,0,15,0,1
663af46531faaee825a255b1,SCN,2024-06-10_12h52.20.428,LearnStrategy,2023.2.3,MacIntel,59.88023952,3,1,1,-0.56,0.422222222,1,0,0,1.03,Obsidian_07,5,07,6,1,1.03,-0.393333333,-0.404444444,1,0,0,2.226,Obsidian_rect,5,2.226,1,0,0,0,0,1,,,,,,,,,,,,
663af46531faaee825a255b1,SCN,2024-06-10_12h52.20.428,LearnStrategy,2023.2.3,MacIntel,59.88023952,3,1,2,-0.392222222,0.431111111,1,0,0,1.046,Diorite_08,3,08,6,2,1.046,0.046666667,-0.403333333,1,0,0,2.25,Peridotite_rect,7,2.25,0,1,0,1,0,1,,,,,,,,,,,,
663af46531faaee825a255b1,SCN,2024-06-10_12h52.20.428,LearnStrategy,2023.2.3,MacIntel,59.88023952,3,1,3,-0.39,0.427777778,1,0,0,0.949,Diorite_08,3,08,6,2,0.949,0.14,-0.255555556,1,0,0,0.895,Diorite_rect,3,0.895,1,2,0,2,0,1,,,,,,,,,,,,
663af46531faaee825a255b1,SCN,2024-06-10_12h52.20.428,LearnStrategy,2023.2.3,MacIntel,59.88023952,3,1,4,-0.208888889,0.423333333,1,0,0,1.095,Peridotite_08,7,08,6,3,1.095,0.083333333,-0.416666667,1,0,0,2.213,Peridotite_rect,7,2.213,1,3,0,3,0,1,,,,,,,,,,,,
663af46531faaee825a255b1,SCN,2024-06-10_12h52.20.428,LearnStrategy,2023.2.3,MacIntel,59.88023952,3,1,5,-0.076666667,0.393333333,1,0,0,1.076,Diorite_14,3,14,6,4,1.076,-0.088888889,-0.415555556,1,0,0,1.925,Pegmatite_rect,6,1.925,0,4,0,4,0,1,,,,,,,,,,,,
663af46531faaee825a255b1,SCN,2024-06-10_12h52.20.428,LearnStrategy,2023.2.3,MacIntel,59.88023952,3,1,6,-0.066666667,0.42,1,0,0,1.114,Diorite_14,3,14,6,4,1.114,0.147777778,-0.256666667,1,0,0,0.97,Diorite_rect,3,0.97,1,5,0,5,0,1,,,,,,,,,,,,
663af46531faaee825a255b1,SCN,2024-06-10_12h52.20.428,LearnStrategy,2023.2.3,MacIntel,59.88023952,3,1,7,0.067777778,0.404444444,1,0,0,0.832,Gabbro_14,4,14,6,5,0.832,0.358888889,-0.26,1,0,0,1.526,Gabbro_rect,4,1.526,1,6,0,6,0,1,,,,,,,,,,,,
663af46531faaee825a255b1,SCN,2024-06-10_12h52.20.428,LearnStrategy,2023.2.3,MacIntel,59.88023952,3,1,8,0.213333333,0.395555556,1,0,0,1.032,Pumice_06,8,06,6,6,1.032,0.324444444,-0.411111111,1,0,0,1.238,Pumice_rect,8,1.238,1,7,0,7,0,1,,,,,,,,,,,,
663af46531faaee825a255b1,SCN,2024-06-10_12h52.20.428,LearnStrategy,2023.2.3,MacIntel,59.88023952,3,1,9,0.435555556,0.41,1,0,0,0.948,Basalt_12,2,12,6,7,0.948,0.316666667,-0.408888889,1,0,0,1.171,Pumice_rect,8,1.171,0,8,0,8,0,1,,,,,,,,,,,,
663af46531faaee825a255b1,SCN,2024-06-10_12h52.20.428,LearnStrategy,2023.2.3,MacIntel,59.88023952,3,1,10,0.398888889,0.423333333,1,0,0,1.047,Basalt_12,2,12,6,7,1.047,-0.222222222,-0.256666667,1,0,0,0.976,Basalt_rect,2,0.976,1,9,0,9,0,1,,,,,,,,,,,,
663af46531faaee825a255b1,SCN,2024-06-10_12h52.20.428,LearnStrategy,2023.2.3,MacIntel,59.88023952,3,1,11,0.554444444,0.41,1,0,0,1.25,Andesite_06,1,06,6,8,1.25,-0.444444444,-0.255555556,1,0,0,1.178,Andesite_rect,1,1.178,1,10,0,10,0,1,,,,,,,,,,,,
663af46531faaee825a255b1,SCN,2024-06-10_12h52.20.428,LearnStrategy,2023.2.3,MacIntel,59.88023952,3,1,12,-0.554444444,0.247777778,1,0,0,1.189,Andesite_09,1,09,5,1,1.189,0.203333333,-0.257777778,1,0,0,2.333,Diorite_rect,3,2.333,0,11,0,11,0,1,,,,,,,,,,,,
663af46531faaee825a255b1,SCN,2024-06-10_12h52.20.428,LearnStrategy,2023.2.3,MacIntel,59.88023952,3,1,13,-0.541111111,0.26,1,0,0,0.999,Andesite_09,1,09,5,1,0.999,-0.384444444,-0.238888889,1,0,0,1.488,Andesite_rect,1,1.488,1,12,0,12,0,1,,,,,,,,,,,,
663af46531faaee825a255b1,SCN,2024-06-10_12h52.20.428,LearnStrategy,2023.2.3,MacIntel,59.88023952,3,1,14,-0.383333333,0.255555556,1,0,0,0.931,Obsidian_08,5,08,5,2,0.931,-0.395555556,-0.42,1,0,0,1.011,Obsidian_rect,5,1.011,1,13,0,13,0,1,,,,,,,,,,,,
663af46531faaee825a255b1,SCN,2024-06-10_12h52.20.428,LearnStrategy,2023.2.3,MacIntel,59.88023952,3,1,15,-0.278888889,0.246666667,1,0,0,0.732,Basalt_04,2,04,5,3,0.732,-0.111111111,-0.245555556,1,0,0,0.985,Basalt_rect,2,0.985,1,14,0,14,0,1,,,,,,,,,,,,
663af46531faaee825a255b1,SCN,2024-06-10_12h52.20.428,LearnStrategy,2023.2.3,MacIntel,59.88023952,3,1,16,-0.095555556,0.263333333,1,0,0,0.998,Gabbro_13,4,13,5,4,0.998,0.384444444,-0.228888889,1,0,0,2.412,Gabbro_rect,4,2.412,1,15,0,15,0,1,,,,,,,,,,,,
663af46531faaee825a255b1,SCN,2024-06-10_12h52.20.428,LearnStrategy,2023.2.3,MacIntel,59.88023952,3,2,1,,,,,,,,6,05,,,,,,,,,,,1,3.909,0,,,,,,-0.363333333,-0.258888889,1,0,0,3.909,Andesite_rect,0,0,0,0,1
663af46531faaee825a255b1,SCN,2024-06-10_12h52.20.428,LearnStrategy,2023.2.3,MacIntel,59.88023952,3,2,2,,,,,,,,8,14,,,,,,,,,,,8,1.347,1,,,,,,0.401111111,-0.413333333,1,0,0,1.347,Pumice_rect,1,0,1,0,1
663af46531faaee825a255b1,SCN,2024-06-10_12h52.20.428,LearnStrategy,2023.2.3,MacIntel,59.88023952,3,2,3,,,,,,,,5,16,,,,,,,,,,,5,1.59,1,,,,,,-0.423333333,-0.405555556,1,0,0,1.59,Obsidian_rect,2,0,2,0,1
663af46531faaee825a255b1,SCN,2024-06-10_12h52.20.428,LearnStrategy,2023.2.3,MacIntel,59.88023952,3,2,4,,,,,,,,1,03,,,,,,,,,,,3,2.519,0,,,,,,0.158888889,-0.257777778,1,0,0,2.519,Diorite_rect,3,0,3,0,1
663af46531faaee825a255b1,SCN,2024-06-10_12h52.20.428,LearnStrategy,2023.2.3,MacIntel,59.88023952,3,2,5,,,,,,,,1,14,,,,,,,,,,,3,4.202,0,,,,,,0.171111111,-0.24,1,0,0,4.202,Diorite_rect,4,0,4,0,1
663af46531faaee825a255b1,SCN,2024-06-10_12h52.20.428,LearnStrategy,2023.2.3,MacIntel,59.88023952,3,2,6,,,,,,,,7,07,,,,,,,,,,,7,1.409,1,,,,,,0.145555556,-0.405555556,1,0,0,1.409,Peridotite_rect,5,0,5,0,1
663af46531faaee825a255b1,SCN,2024-06-10_12h52.20.428,LearnStrategy,2023.2.3,MacIntel,59.88023952,3,2,7,,,,,,,,4,16,,,,,,,,,,,3,4.08,0,,,,,,0.182222222,-0.252222222,1,0,0,4.08,Diorite_rect,6,0,6,0,1
663af46531faaee825a255b1,SCN,2024-06-10_12h52.20.428,LearnStrategy,2023.2.3,MacIntel,59.88023952,3,2,8,,,,,,,,3,06,,,,,,,,,,,4,2.628,0,,,,,,0.31,-0.26,1,0,0,2.628,Gabbro_rect,7,0,7,0,1
663af46531faaee825a255b1,SCN,2024-06-10_12h52.20.428,LearnStrategy,2023.2.3,MacIntel,59.88023952,3,2,9,,,,,,,,6,12,,,,,,,,,,,6,3.467,1,,,,,,-0.096666667,-0.404444444,1,0,0,3.467,Pegmatite_rect,8,0,8,0,1
663af46531faaee825a255b1,SCN,2024-06-10_12h52.20.428,LearnStrategy,2023.2.3,MacIntel,59.88023952,3,2,10,,,,,,,,2,09,,,,,,,,,,,2,1.28,1,,,,,,-0.09,-0.25,1,0,0,1.28,Basalt_rect,9,0,9,0,1
663af46531faaee825a255b1,SCN,2024-06-10_12h52.20.428,LearnStrategy,2023.2.3,MacIntel,59.88023952,3,2,11,,,,,,,,7,02,,,,,,,,,,,7,103.709,1,,,,,,0.083333333,-0.406666667,1,0,0,103.709,Peridotite_rect,10,0,10,0,1
663af46531faaee825a255b1,SCN,2024-06-10_12h52.20.428,LearnStrategy,2023.2.3,MacIntel,59.88023952,3,2,12,,,,,,,,2,11,,,,,,,,,,,8,1.685,0,,,,,,0.396666667,-0.418888889,1,0,0,1.685,Pumice_rect,11,0,11,0,1
663af46531faaee825a255b1,SCN,2024-06-10_12h52.20.428,LearnStrategy,2023.2.3,MacIntel,59.88023952,3,2,13,,,,,,,,3,07,,,,,,,,,,,1,2.154,0,,,,,,-0.33,-0.253333333,1,0,0,2.154,Andesite_rect,12,0,12,0,1
663af46531faaee825a255b1,SCN,2024-06-10_12h52.20.428,LearnStrategy,2023.2.3,MacIntel,59.88023952,3,2,14,,,,,,,,5,04,,,,,,,,,,,5,1.467,1,,,,,,-0.345555556,-0.406666667,1,0,0,1.467,Obsidian_rect,13,0,13,0,1
663af46531faaee825a255b1,SCN,2024-06-10_12h52.20.428,LearnStrategy,2023.2.3,MacIntel,59.88023952,3,2,15,,,,,,,,8,16,,,,,,,,,,,8,1.616,1,,,,,,0.42,-0.386666667,1,0,0,1.616,Pumice_rect,14,0,14,0,1
663af46531faaee825a255b1,SCN,2024-06-10_12h52.20.428,LearnStrategy,2023.2.3,MacIntel,59.88023952,3,2,16,,,,,,,,4,03,,,,,,,,,,,1,2.224,0,,,,,,-0.343333333,-0.266666667,1,0,0,2.224,Andesite_rect,15,0,15,0,1
663af46531faaee825a255b1,SCN,2024-06-10_12h52.20.428,LearnStrategy,2023.2.3,MacIntel,59.88023952,4,1,1,-0.435555556,0.437777778,1,0,0,1.146,Diorite_08,3,08,6,2,1.146,-0.373333333,-0.256666667,1,0,0,1.293,Andesite_rect,1,1.293,0,0,0,0,0,1,,,,,,,,,,,,
663af46531faaee825a255b1,SCN,2024-06-10_12h52.20.428,LearnStrategy,2023.2.3,MacIntel,59.88023952,4,1,2,-0.072222222,0.43,1,0,0,0.794,Diorite_14,3,14,6,4,0.794,0.11,-0.235555556,1,0,0,1.788,Diorite_rect,3,1.788,1,1,0,1,0,1,,,,,,,,,,,,
663af46531faaee825a255b1,SCN,2024-06-10_12h52.20.428,LearnStrategy,2023.2.3,MacIntel,59.88023952,4,1,3,0.066666667,0.103333333,1,0,0,1.062,Pegmatite_15,6,15,4,5,1.062,-0.052222222,-0.395555556,1,0,0,1.121,Pegmatite_rect,6,1.121,1,2,0,2,0,1,,,,,,,,,,,,
663af46531faaee825a255b1,SCN,2024-06-10_12h52.20.428,LearnStrategy,2023.2.3,MacIntel,59.88023952,4,1,4,-0.368888889,-0.271111111,1,0,0,0.867,Peridotite_13,7,13,2,2,0.867,0.394444444,-0.257777778,1,0,0,1.807,Gabbro_rect,4,1.807,0,3,0,3,0,1,,,,,,,,,,,,
663af46531faaee825a255b1,SCN,2024-06-10_12h52.20.428,LearnStrategy,2023.2.3,MacIntel,59.88023952,4,1,5,0.254444444,-0.127777778,1,0,0,0.831,Pumice_02,8,02,3,6,0.831,0.351111111,-0.416666667,1,0,0,1.344,Pumice_rect,8,1.344,1,4,0,4,0,1,,,,,,,,,,,,
663af46531faaee825a255b1,SCN,2024-06-10_12h52.20.428,LearnStrategy,2023.2.3,MacIntel,59.88023952,4,1,6,0.554444444,-0.116666667,1,0,0,0.896,Pumice_03,8,03,3,8,0.896,0.426666667,-0.396666667,1,0,0,0.923,Pumice_rect,8,0.923,1,5,0,5,0,1,,,,,,,,,,,,
663af46531faaee825a255b1,SCN,2024-06-10_12h52.20.428,LearnStrategy,2023.2.3,MacIntel,59.88023952,4,1,7,-0.232222222,-0.14,1,0,0,1.048,Diorite_10,3,10,3,3,1.048,0.117777778,-0.25,1,0,0,1.814,Diorite_rect,3,1.814,1,6,0,6,0,1,,,,,,,,,,,,
663af46531faaee825a255b1,SCN,2024-06-10_12h52.20.428,LearnStrategy,2023.2.3,MacIntel,59.88023952,4,1,8,0.422222222,-0.087777778,1,0,0,160.052,Peridotite_04,7,04,3,7,160.052,0.146666667,-0.231111111,1,0,0,2.086,Diorite_rect,3,2.086,0,7,0,7,0,1,,,,,,,,,,,,
663af46531faaee825a255b1,SCN,2024-06-10_12h52.20.428,LearnStrategy,2023.2.3,MacIntel,59.88023952,4,1,9,-0.212222222,-0.271111111,1,0,0,1.066,Peridotite_05,7,05,2,3,1.066,0.482222222,-0.253333333,1,0,0,2.354,Gabbro_rect,4,2.354,0,8,0,8,0,1,,,,,,,,,,,,
663af46531faaee825a255b1,SCN,2024-06-10_12h52.20.428,LearnStrategy,2023.2.3,MacIntel,59.88023952,4,1,10,-0.21,-0.096666667,1,0,0,0.998,Diorite_10,3,10,3,3,0.998,0.116666667,-0.393333333,1,0,0,1.273,Peridotite_rect,7,1.273,0,9,0,9,0,1,,,,,,,,,,,,
663af46531faaee825a255b1,SCN,2024-06-10_12h52.20.428,LearnStrategy,2023.2.3,MacIntel,59.88023952,4,1,11,-0.408888889,-0.272222222,1,0,0,1.882,Peridotite_13,7,13,2,2,1.882,0.171111111,-0.405555556,1,0,0,1.003,Peridotite_rect,7,1.003,1,10,0,10,0,1,,,,,,,,,,,,
663af46531faaee825a255b1,SCN,2024-06-10_12h52.20.428,LearnStrategy,2023.2.3,MacIntel,59.88023952,4,1,12,0.535555556,0.106666667,1,0,0,1.467,Diorite_15,3,15,4,8,1.467,0.052222222,-0.231111111,1,0,0,0.922,Diorite_rect,3,0.922,1,11,0,11,0,1,,,,,,,,,,,,
663af46531faaee825a255b1,SCN,2024-06-10_12h52.20.428,LearnStrategy,2023.2.3,MacIntel,59.88023952,4,1,13,-0.238888889,-0.1,1,0,0,1.182,Diorite_10,3,10,3,3,1.182,0.183333333,-0.244444444,1,0,0,0.963,Diorite_rect,3,0.963,1,12,0,12,0,1,,,,,,,,,,,,
663af46531faaee825a255b1,SCN,2024-06-10_12h52.20.428,LearnStrategy,2023.2.3,MacIntel,59.88023952,4,1,14,-0.52,-0.427777778,1,0,0,0.89,Andesite_07,1,07,1,1,0.89,0.158888889,-0.268888889,1,0,0,1.177,Diorite_rect,3,1.177,0,13,0,13,0,1,,,,,,,,,,,,
663af46531faaee825a255b1,SCN,2024-06-10_12h52.20.428,LearnStrategy,2023.2.3,MacIntel,59.88023952,4,1,15,0.37,-0.445555556,1,0,0,1.177,Peridotite_12,7,12,1,7,1.177,0.146666667,-0.412222222,1,0,0,1.81,Peridotite_rect,7,1.81,1,14,0,14,0,1,,,,,,,,,,,,
663af46531faaee825a255b1,SCN,2024-06-10_12h52.20.428,LearnStrategy,2023.2.3,MacIntel,59.88023952,4,1,16,-0.047777778,-0.071111111,1,0,0,0.832,Gabbro_12,4,12,3,4,0.832,0.404444444,-0.254444444,1,0,0,1.864,Gabbro_rect,4,1.864,1,15,0,15,0,1,,,,,,,,,,,,
663af46531faaee825a255b1,SCN,2024-06-10_12h52.20.428,LearnStrategy,2023.2.3,MacIntel,59.88023952,4,2,1,,,,,,,,7,06,,,,,,,,,,,7,1.354,1,,,,,,0.088888889,-0.404444444,1,0,0,1.354,Peridotite_rect,0,0,0,0,1
663af46531faaee825a255b1,SCN,2024-06-10_12h52.20.428,LearnStrategy,2023.2.3,MacIntel,59.88023952,4,2,2,,,,,,,,7,14,,,,,,,,,,,3,3.676,0,,,,,,0.137777778,-0.232222222,1,0,0,3.676,Diorite_rect,1,0,1,0,1
663af46531faaee825a255b1,SCN,2024-06-10_12h52.20.428,LearnStrategy,2023.2.3,MacIntel,59.88023952,4,2,3,,,,,,,,8,08,,,,,,,,,,,8,2.015,1,,,,,,0.395555556,-0.404444444,1,0,0,2.015,Pumice_rect,2,0,2,0,1
663af46531faaee825a255b1,SCN,2024-06-10_12h52.20.428,LearnStrategy,2023.2.3,MacIntel,59.88023952,4,2,4,,,,,,,,5,09,,,,,,,,,,,5,1.629,1,,,,,,-0.424444444,-0.397777778,1,0,0,1.629,Obsidian_rect,3,0,3,0,1
663af46531faaee825a255b1,SCN,2024-06-10_12h52.20.428,LearnStrategy,2023.2.3,MacIntel,59.88023952,4,2,5,,,,,,,,6,10,,,,,,,,,,,7,1.557,0,,,,,,0.134444444,-0.39,1,0,0,1.557,Peridotite_rect,4,0,4,0,1
663af46531faaee825a255b1,SCN,2024-06-10_12h52.20.428,LearnStrategy,2023.2.3,MacIntel,59.88023952,4,2,6,,,,,,,,8,04,,,,,,,,,,,8,1.166,1,,,,,,0.31,-0.398888889,1,0,0,1.166,Pumice_rect,5,0,5,0,1
663af46531faaee825a255b1,SCN,2024-06-10_12h52.20.428,LearnStrategy,2023.2.3,MacIntel,59.88023952,4,2,7,,,,,,,,1,14,,,,,,,,,,,1,1.516,1,,,,,,-0.4,-0.238888889,1,0,0,1.516,Andesite_rect,6,0,6,0,1
663af46531faaee825a255b1,SCN,2024-06-10_12h52.20.428,LearnStrategy,2023.2.3,MacIntel,59.88023952,4,2,8,,,,,,,,2,05,,,,,,,,,,,2,1.297,1,,,,,,-0.097777778,-0.231111111,1,0,0,1.297,Basalt_rect,7,0,7,0,1
663af46531faaee825a255b1,SCN,2024-06-10_12h52.20.428,LearnStrategy,2023.2.3,MacIntel,59.88023952,4,2,9,,,,,,,,2,10,,,,,,,,,,,2,1.69,1,,,,,,-0.171111111,-0.262222222,1,0,0,1.69,Basalt_rect,8,0,8,0,1
663af46531faaee825a255b1,SCN,2024-06-10_12h52.20.428,LearnStrategy,2023.2.3,MacIntel,59.88023952,4,2,10,,,,,,,,5,02,,,,,,,,,,,5,1.095,1,,,,,,-0.356666667,-0.408888889,1,0,0,1.095,Obsidian_rect,9,0,9,0,1
663af46531faaee825a255b1,SCN,2024-06-10_12h52.20.428,LearnStrategy,2023.2.3,MacIntel,59.88023952,4,2,11,,,,,,,,3,09,,,,,,,,,,,3,2.886,1,,,,,,0.123333333,-0.25,1,0,0,2.886,Diorite_rect,10,0,10,0,1
663af46531faaee825a255b1,SCN,2024-06-10_12h52.20.428,LearnStrategy,2023.2.3,MacIntel,59.88023952,4,2,12,,,,,,,,4,15,,,,,,,,,,,3,2.043,0,,,,,,0.153333333,-0.251111111,1,0,0,2.043,Diorite_rect,11,0,11,0,1
663af46531faaee825a255b1,SCN,2024-06-10_12h52.20.428,LearnStrategy,2023.2.3,MacIntel,59.88023952,4,2,13,,,,,,,,6,12,,,,,,,,,,,7,1.287,0,,,,,,0.101111111,-0.397777778,1,0,0,1.287,Peridotite_rect,12,0,12,0,1
663af46531faaee825a255b1,SCN,2024-06-10_12h52.20.428,LearnStrategy,2023.2.3,MacIntel,59.88023952,4,2,14,,,,,,,,1,16,,,,,,,,,,,1,1.319,1,,,,,,-0.381111111,-0.252222222,1,0,0,1.319,Andesite_rect,13,0,13,0,1
663af46531faaee825a255b1,SCN,2024-06-10_12h52.20.428,LearnStrategy,2023.2.3,MacIntel,59.88023952,4,2,15,,,,,,,,3,07,,,,,,,,,,,3,2.063,1,,,,,,0.145555556,-0.25,1,0,0,2.063,Diorite_rect,14,0,14,0,1
663af46531faaee825a255b1,SCN,2024-06-10_12h52.20.428,LearnStrategy,2023.2.3,MacIntel,59.88023952,4,2,16,,,,,,,,4,16,,,,,,,,,,,4,1.463,1,,,,,,0.425555556,-0.244444444,1,0,0,1.463,Gabbro_rect,15,0,15,0,1
663af46531faaee825a255b1,SCN,2024-06-10_12h52.20.428,LearnStrategy,2023.2.3,MacIntel,59.88023952,5,1,1,0.215555556,-0.121111111,1,0,0,1.314,Pumice_02,8,02,3,6,1.314,-0.135555556,-0.393333333,1,0,0,1.169,Pegmatite_rect,6,1.169,0,0,0,0,0,1,,,,,,,,,,,,
663af46531faaee825a255b1,SCN,2024-06-10_12h52.20.428,LearnStrategy,2023.2.3,MacIntel,59.88023952,5,1,2,0.061111111,-0.102222222,1,0,0,0.549,Diorite_11,3,11,3,5,0.549,-0.097777778,-0.397777778,1,0,0,0.905,Pegmatite_rect,6,0.905,0,1,0,1,0,1,,,,,,,,,,,,
663af46531faaee825a255b1,SCN,2024-06-10_12h52.20.428,LearnStrategy,2023.2.3,MacIntel,59.88023952,5,1,3,0.061111111,0.106666667,1,0,0,46.992,Pegmatite_15,6,15,4,5,46.992,0.16,-0.392222222,1,0,0,1.061,Peridotite_rect,7,1.061,0,2,0,2,0,1,,,,,,,,,,,,
663af46531faaee825a255b1,SCN,2024-06-10_12h52.20.428,LearnStrategy,2023.2.3,MacIntel,59.88023952,5,1,4,0.553333333,-0.405555556,1,0,0,1.895,Pegmatite_09,6,09,1,8,1.895,-0.167777778,-0.394444444,1,0,0,1.227,Pegmatite_rect,6,1.227,1,3,0,3,0,1,,,,,,,,,,,,
663af46531faaee825a255b1,SCN,2024-06-10_12h52.20.428,LearnStrategy,2023.2.3,MacIntel,59.88023952,5,1,5,0.058888889,0.083333333,1,0,0,0.93,Pegmatite_15,6,15,4,5,0.93,-0.074444444,-0.402222222,1,0,0,1.132,Pegmatite_rect,6,1.132,1,4,0,4,0,1,,,,,,,,,,,,
663af46531faaee825a255b1,SCN,2024-06-10_12h52.20.428,LearnStrategy,2023.2.3,MacIntel,59.88023952,5,1,6,-0.534444444,-0.104444444,1,0,0,2.031,Pegmatite_11,6,11,3,1,2.031,-0.096666667,-0.39,1,0,0,1.168,Pegmatite_rect,6,1.168,1,5,0,5,0,1,,,,,,,,,,,,
663af46531faaee825a255b1,SCN,2024-06-10_12h52.20.428,LearnStrategy,2023.2.3,MacIntel,59.88023952,5,1,7,-0.395555556,0.08,1,0,0,1.549,Gabbro_01,4,01,4,2,1.549,0.132222222,-0.244444444,1,0,0,1.434,Diorite_rect,3,1.434,0,6,0,6,0,1,,,,,,,,,,,,
663af46531faaee825a255b1,SCN,2024-06-10_12h52.20.428,LearnStrategy,2023.2.3,MacIntel,59.88023952,5,1,8,0.581111111,0.087777778,1,0,0,1.549,Diorite_15,3,15,4,8,1.549,0.396666667,-0.261111111,1,0,0,0.942,Gabbro_rect,4,0.942,0,7,0,7,0,1,,,,,,,,,,,,
663af46531faaee825a255b1,SCN,2024-06-10_12h52.20.428,LearnStrategy,2023.2.3,MacIntel,59.88023952,5,1,9,0.081111111,-0.268888889,1,0,0,1.166,Diorite_16,3,16,2,5,1.166,0.171111111,-0.265555556,1,0,0,0.819,Diorite_rect,3,0.819,1,8,0,8,0,1,,,,,,,,,,,,
663af46531faaee825a255b1,SCN,2024-06-10_12h52.20.428,LearnStrategy,2023.2.3,MacIntel,59.88023952,5,1,10,-0.363333333,-0.101111111,1,0,0,1.95,Peridotite_10,7,10,3,2,1.95,0.097777778,-0.418888889,1,0,0,1.309,Peridotite_rect,7,1.309,1,9,0,9,0,1,,,,,,,,,,,,
663af46531faaee825a255b1,SCN,2024-06-10_12h52.20.428,LearnStrategy,2023.2.3,MacIntel,59.88023952,5,1,11,-0.403333333,-0.275555556,1,0,0,1.794,Peridotite_13,7,13,2,2,1.794,0.18,-0.395555556,1,0,0,0.859,Peridotite_rect,7,0.859,1,10,0,10,0,1,,,,,,,,,,,,
663af46531faaee825a255b1,SCN,2024-06-10_12h52.20.428,LearnStrategy,2023.2.3,MacIntel,59.88023952,5,1,12,0.393333333,-0.112222222,1,0,0,1.242,Peridotite_04,7,04,3,7,1.242,0.386666667,-0.24,1,0,0,0.878,Gabbro_rect,4,0.878,0,11,0,11,0,1,,,,,,,,,,,,
663af46531faaee825a255b1,SCN,2024-06-10_12h52.20.428,LearnStrategy,2023.2.3,MacIntel,59.88023952,5,1,13,-0.55,0.092222222,1,0,0,1.864,Pegmatite_08,6,08,4,1,1.864,-0.068888889,-0.391111111,1,0,0,1.092,Pegmatite_rect,6,1.092,1,12,0,12,0,1,,,,,,,,,,,,
663af46531faaee825a255b1,SCN,2024-06-10_12h52.20.428,LearnStrategy,2023.2.3,MacIntel,59.88023952,5,1,14,-0.562222222,-0.23,1,0,0,1.147,Obsidian_05,5,05,2,1,1.147,-0.354444444,-0.406666667,1,0,0,0.905,Obsidian_rect,5,0.905,1,13,0,13,0,1,,,,,,,,,,,,
663af46531faaee825a255b1,SCN,2024-06-10_12h52.20.428,LearnStrategy,2023.2.3,MacIntel,59.88023952,5,1,15,0.402222222,-0.426666667,1,0,0,1.248,Peridotite_12,7,12,1,7,1.248,0.127777778,-0.398888889,1,0,0,1.188,Peridotite_rect,7,1.188,1,14,0,14,0,1,,,,,,,,,,,,
663af46531faaee825a255b1,SCN,2024-06-10_12h52.20.428,LearnStrategy,2023.2.3,MacIntel,59.88023952,5,1,16,0.562222222,0.42,1,0,0,2.948,Andesite_06,1,06,6,8,2.948,0.375555556,-0.255555556,1,0,0,0.941,Gabbro_rect,4,0.941,0,15,0,15,0,1,,,,,,,,,,,,
663af46531faaee825a255b1,SCN,2024-06-10_12h52.20.428,LearnStrategy,2023.2.3,MacIntel,59.88023952,5,2,1,,,,,,,,4,03,,,,,,,,,,,4,2.422,1,,,,,,0.416666667,-0.237777778,1,0,0,2.422,Gabbro_rect,0,0,0,0,1
663af46531faaee825a255b1,SCN,2024-06-10_12h52.20.428,LearnStrategy,2023.2.3,MacIntel,59.88023952,5,2,2,,,,,,,,6,06,,,,,,,,,,,6,2.415,1,,,,,,-0.087777778,-0.395555556,1,0,0,2.415,Pegmatite_rect,1,0,1,0,1
663af46531faaee825a255b1,SCN,2024-06-10_12h52.20.428,LearnStrategy,2023.2.3,MacIntel,59.88023952,5,2,3,,,,,,,,5,04,,,,,,,,,,,5,1.221,1,,,,,,-0.351111111,-0.41,1,0,0,1.221,Obsidian_rect,2,0,2,0,1
663af46531faaee825a255b1,SCN,2024-06-10_12h52.20.428,LearnStrategy,2023.2.3,MacIntel,59.88023952,5,2,4,,,,,,,,4,11,,,,,,,,,,,2,1.747,0,,,,,,-0.107777778,-0.258888889,1,0,0,1.747,Basalt_rect,3,0,3,0,1
663af46531faaee825a255b1,SCN,2024-06-10_12h52.20.428,LearnStrategy,2023.2.3,MacIntel,59.88023952,5,2,5,,,,,,,,8,14,,,,,,,,,,,8,1.272,1,,,,,,0.384444444,-0.401111111,1,0,0,1.272,Pumice_rect,4,0,4,0,1
663af46531faaee825a255b1,SCN,2024-06-10_12h52.20.428,LearnStrategy,2023.2.3,MacIntel,59.88023952,5,2,6,,,,,,,,2,11,,,,,,,,,,,8,1.719,0,,,,,,0.384444444,-0.404444444,1,0,0,1.719,Pumice_rect,5,0,5,0,1
663af46531faaee825a255b1,SCN,2024-06-10_12h52.20.428,LearnStrategy,2023.2.3,MacIntel,59.88023952,5,2,7,,,,,,,,2,01,,,,,,,,,,,2,1.199,1,,,,,,-0.193333333,-0.266666667,1,0,0,1.199,Basalt_rect,6,0,6,0,1
663af46531faaee825a255b1,SCN,2024-06-10_12h52.20.428,LearnStrategy,2023.2.3,MacIntel,59.88023952,5,2,8,,,,,,,,8,15,,,,,,,,,,,8,2.089,1,,,,,,0.353333333,-0.407777778,1,0,0,2.089,Pumice_rect,7,0,7,0,1
663af46531faaee825a255b1,SCN,2024-06-10_12h52.20.428,LearnStrategy,2023.2.3,MacIntel,59.88023952,5,2,9,,,,,,,,3,02,,,,,,,,,,,3,1.686,1,,,,,,0.202222222,-0.252222222,1,0,0,1.686,Diorite_rect,8,0,8,0,1
663af46531faaee825a255b1,SCN,2024-06-10_12h52.20.428,LearnStrategy,2023.2.3,MacIntel,59.88023952,5,2,10,,,,,,,,1,03,,,,,,,,,,,1,3.686,1,,,,,,-0.35,-0.236666667,1,0,0,3.686,Andesite_rect,9,0,9,0,1
663af46531faaee825a255b1,SCN,2024-06-10_12h52.20.428,LearnStrategy,2023.2.3,MacIntel,59.88023952,5,2,11,,,,,,,,3,12,,,,,,,,,,,3,3.278,1,,,,,,0.176666667,-0.254444444,1,0,0,3.278,Diorite_rect,10,0,10,0,1
663af46531faaee825a255b1,SCN,2024-06-10_12h52.20.428,LearnStrategy,2023.2.3,MacIntel,59.88023952,5,2,12,,,,,,,,7,16,,,,,,,,,,,7,1.993,1,,,,,,0.132222222,-0.413333333,1,0,0,1.993,Peridotite_rect,11,0,11,0,1
663af46531faaee825a255b1,SCN,2024-06-10_12h52.20.428,LearnStrategy,2023.2.3,MacIntel,59.88023952,5,2,13,,,,,,,,1,02,,,,,,,,,,,1,1.568,1,,,,,,-0.416666667,-0.235555556,1,0,0,1.568,Andesite_rect,12,0,12,0,1
663af46531faaee825a255b1,SCN,2024-06-10_12h52.20.428,LearnStrategy,2023.2.3,MacIntel,59.88023952,5,2,14,,,,,,,,5,16,,,,,,,,,,,5,1.153,1,,,,,,-0.373333333,-0.404444444,1,0,0,1.153,Obsidian_rect,13,0,13,0,1
663af46531faaee825a255b1,SCN,2024-06-10_12h52.20.428,LearnStrategy,2023.2.3,MacIntel,59.88023952,5,2,15,,,,,,,,7,02,,,,,,,,,,,7,1.713,1,,,,,,0.172222222,-0.398888889,1,0,0,1.713,Peridotite_rect,14,0,14,0,1
663af46531faaee825a255b1,SCN,2024-06-10_12h52.20.428,LearnStrategy,2023.2.3,MacIntel,59.88023952,5,2,16,,,,,,,,6,05,,,,,,,,,,,6,1.469,1,,,,,,-0.127777778,-0.407777778,1,0,0,1.469,Pegmatite_rect,15,0,15,0,1
663af46531faaee825a255b1,SCN,2024-06-10_12h52.20.428,LearnStrategy,2023.2.3,MacIntel,59.88023952,6,1,1,-0.065555556,0.104444444,1,0,0,0.994,Gabbro_05,4,05,4,4,0.994,0.157777778,-0.4,1,0,0,1.583,Peridotite_rect,7,1.583,0,0,0,0,0,1,,,,,,,,,,,,
663af46531faaee825a255b1,SCN,2024-06-10_12h52.20.428,LearnStrategy,2023.2.3,MacIntel,59.88023952,6,1,2,-0.041111111,0.098888889,1,0,0,1.464,Gabbro_05,4,05,4,4,1.464,0.437777778,-0.242222222,1,0,0,1.364,Gabbro_rect,4,1.364,1,1,0,1,0,1,,,,,,,,,,,,
663af46531faaee825a255b1,SCN,2024-06-10_12h52.20.428,LearnStrategy,2023.2.3,MacIntel,59.88023952,6,1,3,0.387777778,-0.407777778,1,0,0,3.218,Peridotite_12,7,12,1,7,3.218,0.143333333,-0.393333333,1,0,0,1.855,Peridotite_rect,7,1.855,1,2,0,2,0,1,,,,,,,,,,,,
663af46531faaee825a255b1,SCN,2024-06-10_12h52.20.428,LearnStrategy,2023.2.3,MacIntel,59.88023952,6,1,4,0.096666667,0.234444444,1,0,0,5.033,Andesite_05,1,05,5,5,5.033,-0.426666667,-0.234444444,1,0,0,2.308,Andesite_rect,1,2.308,1,3,0,3,0,1,,,,,,,,,,,,
663af46531faaee825a255b1,SCN,2024-06-10_12h52.20.428,LearnStrategy,2023.2.3,MacIntel,59.88023952,6,1,5,-0.394444444,0.091111111,1,0,0,1.328,Gabbro_01,4,01,4,2,1.328,0.374444444,-0.241111111,1,0,0,2.061,Gabbro_rect,4,2.061,1,4,0,4,0,1,,,,,,,,,,,,
663af46531faaee825a255b1,SCN,2024-06-10_12h52.20.428,LearnStrategy,2023.2.3,MacIntel,59.88023952,6,1,6,0.557777778,0.24,1,0,0,1.082,Pegmatite_07,6,07,5,8,1.082,-0.106666667,-0.394444444,1,0,0,1.285,Pegmatite_rect,6,1.285,1,5,0,5,0,1,,,,,,,,,,,,
663af46531faaee825a255b1,SCN,2024-06-10_12h52.20.428,LearnStrategy,2023.2.3,MacIntel,59.88023952,6,1,7,0.585555556,0.398888889,1,0,0,1.347,Andesite_06,1,06,6,8,1.347,-0.324444444,-0.248888889,1,0,0,1.284,Andesite_rect,1,1.284,1,6,0,6,0,1,,,,,,,,,,,,
663af46531faaee825a255b1,SCN,2024-06-10_12h52.20.428,LearnStrategy,2023.2.3,MacIntel,59.88023952,6,1,8,-0.258888889,0.418888889,1,0,0,1.583,Peridotite_08,7,08,6,3,1.583,0.154444444,-0.414444444,1,0,0,1.381,Peridotite_rect,7,1.381,1,7,0,7,0,1,,,,,,,,,,,,
663af46531faaee825a255b1,SCN,2024-06-10_12h52.20.428,LearnStrategy,2023.2.3,MacIntel,59.88023952,6,1,9,-0.086666667,-0.256666667,1,0,0,2.631,Basalt_02,2,02,2,4,2.631,-0.108888889,-0.258888889,1,0,0,0.74,Basalt_rect,2,0.74,1,8,0,8,0,1,,,,,,,,,,,,
663af46531faaee825a255b1,SCN,2024-06-10_12h52.20.428,LearnStrategy,2023.2.3,MacIntel,59.88023952,6,1,10,-0.263333333,0.265555556,1,0,0,1.112,Basalt_04,2,04,5,3,1.112,-0.105555556,-0.246666667,1,0,0,0.817,Basalt_rect,2,0.817,1,9,0,9,0,1,,,,,,,,,,,,
663af46531faaee825a255b1,SCN,2024-06-10_12h52.20.428,LearnStrategy,2023.2.3,MacIntel,59.88023952,6,1,11,0.236666667,0.256666667,1,0,0,1.196,Basalt_08,2,08,5,6,1.196,-0.104444444,-0.246666667,1,0,0,1.672,Basalt_rect,2,1.672,1,10,0,10,0,1,,,,,,,,,,,,
663af46531faaee825a255b1,SCN,2024-06-10_12h52.20.428,LearnStrategy,2023.2.3,MacIntel,59.88023952,6,1,12,0.234444444,-0.43,1,0,0,2.76,Andesite_01,1,01,1,6,2.76,0.347777778,-0.27,1,0,0,1.053,Gabbro_rect,4,1.053,0,11,0,11,0,1,,,,,,,,,,,,
663af46531faaee825a255b1,SCN,2024-06-10_12h52.20.428,LearnStrategy,2023.2.3,MacIntel,59.88023952,6,1,13,-0.407777778,0.094444444,1,0,0,1.066,Gabbro_01,4,01,4,2,1.066,0.111111111,-0.387777778,1,0,0,1.586,Peridotite_rect,7,1.586,0,12,0,12,0,1,,,,,,,,,,,,
663af46531faaee825a255b1,SCN,2024-06-10_12h52.20.428,LearnStrategy,2023.2.3,MacIntel,59.88023952,6,1,14,-0.391111111,0.074444444,1,0,0,1.731,Gabbro_01,4,01,4,2,1.731,0.411111111,-0.237777778,1,0,0,1.617,Gabbro_rect,4,1.617,1,13,0,13,0,1,,,,,,,,,,,,
663af46531faaee825a255b1,SCN,2024-06-10_12h52.20.428,LearnStrategy,2023.2.3,MacIntel,59.88023952,6,1,15,-0.406666667,0.075555556,1,0,0,1.116,Gabbro_01,4,01,4,2,1.116,0.408888889,-0.257777778,1,0,0,1.502,Gabbro_rect,4,1.502,1,14,0,14,0,1,,,,,,,,,,,,
663af46531faaee825a255b1,SCN,2024-06-10_12h52.20.428,LearnStrategy,2023.2.3,MacIntel,59.88023952,6,1,16,-0.067777778,0.087777778,1,0,0,1.082,Gabbro_05,4,05,4,4,1.082,0.192222222,-0.413333333,1,0,0,2.291,Peridotite_rect,7,2.291,0,15,0,15,0,1,,,,,,,,,,,,
663af46531faaee825a255b1,SCN,2024-06-10_12h52.20.428,LearnStrategy,2023.2.3,MacIntel,59.88023952,6,2,1,,,,,,,,6,16,,,,,,,,,,,6,1.834,1,,,,,,-0.102222222,-0.395555556,1,0,0,1.834,Pegmatite_rect,0,0,0,0,1
663af46531faaee825a255b1,SCN,2024-06-10_12h52.20.428,LearnStrategy,2023.2.3,MacIntel,59.88023952,6,2,2,,,,,,,,2,14,,,,,,,,,,,8,1.517,0,,,,,,0.46,-0.406666667,1,0,0,1.517,Pumice_rect,1,0,1,0,1
663af46531faaee825a255b1,SCN,2024-06-10_12h52.20.428,LearnStrategy,2023.2.3,MacIntel,59.88023952,6,2,3,,,,,,,,7,15,,,,,,,,,,,7,1.784,1,,,,,,0.166666667,-0.406666667,1,0,0,1.784,Peridotite_rect,2,0,2,0,1
663af46531faaee825a255b1,SCN,2024-06-10_12h52.20.428,LearnStrategy,2023.2.3,MacIntel,59.88023952,6,2,4,,,,,,,,1,04,,,,,,,,,,,1,19.386,1,,,,,,-0.386666667,-0.261111111,1,0,0,19.386,Andesite_rect,3,0,3,0,1
663af46531faaee825a255b1,SCN,2024-06-10_12h52.20.428,LearnStrategy,2023.2.3,MacIntel,59.88023952,6,2,5,,,,,,,,6,03,,,,,,,,,,,6,1.228,1,,,,,,-0.09,-0.383333333,1,0,0,1.228,Pegmatite_rect,4,0,4,0,1
663af46531faaee825a255b1,SCN,2024-06-10_12h52.20.428,LearnStrategy,2023.2.3,MacIntel,59.88023952,6,2,6,,,,,,,,4,09,,,,,,,,,,,4,3.059,1,,,,,,0.423333333,-0.264444444,1,0,0,3.059,Gabbro_rect,5,0,5,0,1
663af46531faaee825a255b1,SCN,2024-06-10_12h52.20.428,LearnStrategy,2023.2.3,MacIntel,59.88023952,6,2,7,,,,,,,,3,06,,,,,,,,,,,3,1.916,1,,,,,,0.19,-0.247777778,1,0,0,1.916,Diorite_rect,6,0,6,0,1
663af46531faaee825a255b1,SCN,2024-06-10_12h52.20.428,LearnStrategy,2023.2.3,MacIntel,59.88023952,6,2,8,,,,,,,,5,06,,,,,,,,,,,5,1.248,1,,,,,,-0.404444444,-0.393333333,1,0,0,1.248,Obsidian_rect,7,0,7,0,1
663af46531faaee825a255b1,SCN,2024-06-10_12h52.20.428,LearnStrategy,2023.2.3,MacIntel,59.88023952,6,2,9,,,,,,,,8,16,,,,,,,,,,,8,1.289,1,,,,,,0.453333333,-0.416666667,1,0,0,1.289,Pumice_rect,8,0,8,0,1
663af46531faaee825a255b1,SCN,2024-06-10_12h52.20.428,LearnStrategy,2023.2.3,MacIntel,59.88023952,6,2,10,,,,,,,,7,07,,,,,,,,,,,7,1.427,1,,,,,,0.181111111,-0.391111111,1,0,0,1.427,Peridotite_rect,9,0,9,0,1
663af46531faaee825a255b1,SCN,2024-06-10_12h52.20.428,LearnStrategy,2023.2.3,MacIntel,59.88023952,6,2,11,,,,,,,,8,10,,,,,,,,,,,8,1.334,1,,,,,,0.358888889,-0.39,1,0,0,1.334,Pumice_rect,10,0,10,0,1
663af46531faaee825a255b1,SCN,2024-06-10_12h52.20.428,LearnStrategy,2023.2.3,MacIntel,59.88023952,6,2,12,,,,,,,,1,11,,,,,,,,,,,1,1.762,1,,,,,,-0.397777778,-0.235555556,1,0,0,1.762,Andesite_rect,11,0,11,0,1
663af46531faaee825a255b1,SCN,2024-06-10_12h52.20.428,LearnStrategy,2023.2.3,MacIntel,59.88023952,6,2,13,,,,,,,,3,13,,,,,,,,,,,3,1.703,1,,,,,,0.15,-0.248888889,1,0,0,1.703,Diorite_rect,12,0,12,0,1
663af46531faaee825a255b1,SCN,2024-06-10_12h52.20.428,LearnStrategy,2023.2.3,MacIntel,59.88023952,6,2,14,,,,,,,,4,10,,,,,,,,,,,4,1.745,1,,,,,,0.468888889,-0.252222222,1,0,0,1.745,Gabbro_rect,13,0,13,0,1
663af46531faaee825a255b1,SCN,2024-06-10_12h52.20.428,LearnStrategy,2023.2.3,MacIntel,59.88023952,6,2,15,,,,,,,,5,14,,,,,,,,,,,5,1.368,1,,,,,,-0.414444444,-0.381111111,1,0,0,1.368,Obsidian_rect,14,0,14,0,1
663af46531faaee825a255b1,SCN,2024-06-10_12h52.20.428,LearnStrategy,2023.2.3,MacIntel,59.88023952,6,2,16,,,,,,,,2,09,,,,,,,,,,,2,1.176,1,,,,,,-0.136666667,-0.258888889,1,0,0,1.176,Basalt_rect,15,0,15,0,1
663af46531faaee825a255b1,SCN,2024-06-10_12h52.20.428,LearnStrategy,2023.2.3,MacIntel,59.88023952,7,1,1,0.395555556,0.401111111,1,0,0,64.966,Basalt_12,2,12,6,7,64.966,0.392222222,-0.414444444,1,0,0,2.004,Pumice_rect,8,2.004,0,0,0,0,0,1,,,,,,,,,,,,
663af46531faaee825a255b1,SCN,2024-06-10_12h52.20.428,LearnStrategy,2023.2.3,MacIntel,59.88023952,7,1,2,-0.063333333,-0.254444444,1,0,0,3.13,Basalt_02,2,02,2,4,3.13,-0.067777778,-0.247777778,1,0,0,1.675,Basalt_rect,2,1.675,1,1,0,1,0,1,,,,,,,,,,,,
663af46531faaee825a255b1,SCN,2024-06-10_12h52.20.428,LearnStrategy,2023.2.3,MacIntel,59.88023952,7,1,3,0.54,-0.25,1,0,0,1.452,Basalt_06,2,06,2,8,1.452,-0.118888889,-0.257777778,1,0,0,1.862,Basalt_rect,2,1.862,1,2,0,2,0,1,,,,,,,,,,,,
663af46531faaee825a255b1,SCN,2024-06-10_12h52.20.428,LearnStrategy,2023.2.3,MacIntel,59.88023952,7,1,4,-0.254444444,0.107777778,1,0,0,1.049,Pumice_09,8,09,4,3,1.049,0.423333333,-0.416666667,1,0,0,2.339,Pumice_rect,8,2.339,1,3,0,3,0,1,,,,,,,,,,,,
663af46531faaee825a255b1,SCN,2024-06-10_12h52.20.428,LearnStrategy,2023.2.3,MacIntel,59.88023952,7,1,5,-0.551111111,-0.246666667,1,0,0,1.449,Obsidian_05,5,05,2,1,1.449,-0.367777778,-0.391111111,1,0,0,1.724,Obsidian_rect,5,1.724,1,4,0,4,0,1,,,,,,,,,,,,
663af46531faaee825a255b1,SCN,2024-06-10_12h52.20.428,LearnStrategy,2023.2.3,MacIntel,59.88023952,7,1,6,-0.56,0.062222222,1,0,0,2.314,Pegmatite_08,6,08,4,1,2.314,-0.095555556,-0.403333333,1,0,0,1.122,Pegmatite_rect,6,1.122,1,5,0,5,0,1,,,,,,,,,,,,
663af46531faaee825a255b1,SCN,2024-06-10_12h52.20.428,LearnStrategy,2023.2.3,MacIntel,59.88023952,7,1,7,-0.085555556,0.142222222,1,0,0,0.882,Gabbro_05,4,05,4,4,0.882,0.37,-0.25,1,0,0,1.636,Gabbro_rect,4,1.636,1,6,0,6,0,1,,,,,,,,,,,,
663af46531faaee825a255b1,SCN,2024-06-10_12h52.20.428,LearnStrategy,2023.2.3,MacIntel,59.88023952,7,1,8,-0.097777778,0.065555556,1,0,0,0.846,Gabbro_05,4,05,4,4,0.846,0.376666667,-0.253333333,1,0,0,1.746,Gabbro_rect,4,1.746,1,7,0,7,0,1,,,,,,,,,,,,
663af46531faaee825a255b1,SCN,2024-06-10_12h52.20.428,LearnStrategy,2023.2.3,MacIntel,59.88023952,7,1,9,-0.228888889,0.403333333,1,0,0,1.063,Peridotite_08,7,08,6,3,1.063,0.108888889,-0.384444444,1,0,0,4.525,Peridotite_rect,7,4.525,1,8,0,8,0,1,,,,,,,,,,,,
663af46531faaee825a255b1,SCN,2024-06-10_12h52.20.428,LearnStrategy,2023.2.3,MacIntel,59.88023952,7,1,10,-0.241111111,-0.14,1,0,0,0.897,Diorite_10,3,10,3,3,0.897,0.166666667,-0.257777778,1,0,0,2.31,Diorite_rect,3,2.31,1,9,0,9,0,1,,,,,,,,,,,,
663af46531faaee825a255b1,SCN,2024-06-10_12h52.20.428,LearnStrategy,2023.2.3,MacIntel,59.88023952,7,1,11,-0.255555556,-0.133333333,1,0,0,1.084,Diorite_10,3,10,3,3,1.084,0.081111111,-0.255555556,1,0,0,1.64,Diorite_rect,3,1.64,1,10,0,10,0,1,,,,,,,,,,,,
663af46531faaee825a255b1,SCN,2024-06-10_12h52.20.428,LearnStrategy,2023.2.3,MacIntel,59.88023952,7,1,12,-0.201111111,-0.224444444,1,0,0,3.006,Peridotite_05,7,05,2,3,3.006,0.354444444,-0.255555556,1,0,0,5.731,Gabbro_rect,4,5.731,0,11,0,11,0,1,,,,,,,,,,,,
663af46531faaee825a255b1,SCN,2024-06-10_12h52.20.428,LearnStrategy,2023.2.3,MacIntel,59.88023952,7,1,13,-0.247777778,-0.247777778,1,0,0,2.03,Peridotite_05,7,05,2,3,2.03,0.128888889,-0.406666667,1,0,0,2.316,Peridotite_rect,7,2.316,1,12,0,12,0,1,,,,,,,,,,,,
663af46531faaee825a255b1,SCN,2024-06-10_12h52.20.428,LearnStrategy,2023.2.3,MacIntel,59.88023952,7,1,14,-0.525555556,0.072222222,1,0,0,5.034,Pegmatite_08,6,08,4,1,5.034,-0.114444444,-0.42,1,0,0,1.046,Pegmatite_rect,6,1.046,1,13,0,13,0,1,,,,,,,,,,,,
663af46531faaee825a255b1,SCN,2024-06-10_12h52.20.428,LearnStrategy,2023.2.3,MacIntel,59.88023952,7,1,15,0.076666667,0.08,1,0,0,2.049,Pegmatite_15,6,15,4,5,2.049,-0.126666667,-0.39,1,0,0,1.822,Pegmatite_rect,6,1.822,1,14,0,14,0,1,,,,,,,,,,,,
663af46531faaee825a255b1,SCN,2024-06-10_12h52.20.428,LearnStrategy,2023.2.3,MacIntel,59.88023952,7,1,16,0.2,0.082222222,1,0,0,1.341,Pumice_13,8,13,4,6,1.341,0.344444444,-0.396666667,1,0,0,1.062,Pumice_rect,8,1.062,1,15,0,15,0,1,,,,,,,,,,,,
663af46531faaee825a255b1,SCN,2024-06-10_12h52.20.428,LearnStrategy,2023.2.3,MacIntel,59.88023952,7,2,1,,,,,,,,8,10,,,,,,,,,,,8,2.519,1,,,,,,0.361111111,-0.406666667,1,0,0,2.519,Pumice_rect,0,0,0,0,1
663af46531faaee825a255b1,SCN,2024-06-10_12h52.20.428,LearnStrategy,2023.2.3,MacIntel,59.88023952,7,2,2,,,,,,,,4,16,,,,,,,,,,,2,1.668,0,,,,,,-0.087777778,-0.254444444,1,0,0,1.668,Basalt_rect,1,0,1,0,1
663af46531faaee825a255b1,SCN,2024-06-10_12h52.20.428,LearnStrategy,2023.2.3,MacIntel,59.88023952,7,2,3,,,,,,,,3,09,,,,,,,,,,,3,2.284,1,,,,,,0.152222222,-0.232222222,1,0,0,2.284,Diorite_rect,2,0,2,0,1
663af46531faaee825a255b1,SCN,2024-06-10_12h52.20.428,LearnStrategy,2023.2.3,MacIntel,59.88023952,7,2,4,,,,,,,,5,16,,,,,,,,,,,5,1.949,1,,,,,,-0.402222222,-0.397777778,1,0,0,1.949,Obsidian_rect,3,0,3,0,1
663af46531faaee825a255b1,SCN,2024-06-10_12h52.20.428,LearnStrategy,2023.2.3,MacIntel,59.88023952,7,2,5,,,,,,,,5,06,,,,,,,,,,,5,1.077,1,,,,,,-0.402222222,-0.397777778,1,0,0,1.077,Obsidian_rect,4,0,4,0,1
663af46531faaee825a255b1,SCN,2024-06-10_12h52.20.428,LearnStrategy,2023.2.3,MacIntel,59.88023952,7,2,6,,,,,,,,6,12,,,,,,,,,,,6,1.202,1,,,,,,-0.122222222,-0.413333333,1,0,0,1.202,Pegmatite_rect,5,0,5,0,1
663af46531faaee825a255b1,SCN,2024-06-10_12h52.20.428,LearnStrategy,2023.2.3,MacIntel,59.88023952,7,2,7,,,,,,,,6,05,,,,,,,,,,,6,0.999,1,,,,,,-0.122222222,-0.413333333,1,0,0,0.999,Pegmatite_rect,6,0,6,0,1
663af46531faaee825a255b1,SCN,2024-06-10_12h52.20.428,LearnStrategy,2023.2.3,MacIntel,59.88023952,7,2,8,,,,,,,,1,02,,,,,,,,,,,1,1.62,1,,,,,,-0.408888889,-0.263333333,1,0,0,1.62,Andesite_rect,7,0,7,0,1
663af46531faaee825a255b1,SCN,2024-06-10_12h52.20.428,LearnStrategy,2023.2.3,MacIntel,59.88023952,7,2,9,,,,,,,,8,04,,,,,,,,,,,8,1.456,1,,,,,,0.325555556,-0.393333333,1,0,0,1.456,Pumice_rect,8,0,8,0,1
663af46531faaee825a255b1,SCN,2024-06-10_12h52.20.428,LearnStrategy,2023.2.3,MacIntel,59.88023952,7,2,10,,,,,,,,4,09,,,,,,,,,,,4,4.083,1,,,,,,0.365555556,-0.25,1,0,0,4.083,Gabbro_rect,9,0,9,0,1
663af46531faaee825a255b1,SCN,2024-06-10_12h52.20.428,LearnStrategy,2023.2.3,MacIntel,59.88023952,7,2,11,,,,,,,,1,11,,,,,,,,,,,1,2.315,1,,,,,,-0.337777778,-0.254444444,1,0,0,2.315,Andesite_rect,10,0,10,0,1
663af46531faaee825a255b1,SCN,2024-06-10_12h52.20.428,LearnStrategy,2023.2.3,MacIntel,59.88023952,7,2,12,,,,,,,,2,01,,,,,,,,,,,2,2.331,1,,,,,,-0.147777778,-0.25,1,0,0,2.331,Basalt_rect,11,0,11,0,1
663af46531faaee825a255b1,SCN,2024-06-10_12h52.20.428,LearnStrategy,2023.2.3,MacIntel,59.88023952,7,2,13,,,,,,,,7,14,,,,,,,,,,,1,2.698,0,,,,,,-0.384444444,-0.25,1,0,0,2.698,Andesite_rect,12,0,12,0,1
663af46531faaee825a255b1,SCN,2024-06-10_12h52.20.428,LearnStrategy,2023.2.3,MacIntel,59.88023952,7,2,14,,,,,,,,3,06,,,,,,,,,,,3,1.414,1,,,,,,0.07,-0.258888889,1,0,0,1.414,Diorite_rect,13,0,13,0,1
663af46531faaee825a255b1,SCN,2024-06-10_12h52.20.428,LearnStrategy,2023.2.3,MacIntel,59.88023952,7,2,15,,,,,,,,2,14,,,,,,,,,,,8,3.589,0,,,,,,0.346666667,-0.402222222,1,0,0,3.589,Pumice_rect,14,0,14,0,1
663af46531faaee825a255b1,SCN,2024-06-10_12h52.20.428,LearnStrategy,2023.2.3,MacIntel,59.88023952,7,2,16,,,,,,,,7,15,,,,,,,,,,,7,1.363,1,,,,,,0.131111111,-0.397777778,1,0,0,1.363,Peridotite_rect,15,0,15,0,1
663af46531faaee825a255b1,SCN,2024-06-10_12h52.20.428,LearnStrategy,2023.2.3,MacIntel,59.88023952,8,1,1,-0.42,-0.141111111,1,0,0,5.865,Peridotite_10,7,10,3,2,5.865,0.118888889,-0.411111111,1,0,0,1.033,Peridotite_rect,7,1.033,1,0,0,0,0,1,,,,,,,,,,,,
663af46531faaee825a255b1,SCN,2024-06-10_12h52.20.428,LearnStrategy,2023.2.3,MacIntel,59.88023952,8,1,2,0.107777778,0.234444444,1,0,0,2.413,Andesite_05,1,05,5,5,2.413,-0.336666667,-0.251111111,1,0,0,1.322,Andesite_rect,1,1.322,1,1,0,1,0,1,,,,,,,,,,,,
663af46531faaee825a255b1,SCN,2024-06-10_12h52.20.428,LearnStrategy,2023.2.3,MacIntel,59.88023952,8,1,3,-0.204444444,-0.118888889,1,0,0,1.082,Diorite_10,3,10,3,3,1.082,0.148888889,-0.24,1,0,0,0.828,Diorite_rect,3,0.828,1,2,0,2,0,1,,,,,,,,,,,,
663af46531faaee825a255b1,SCN,2024-06-10_12h52.20.428,LearnStrategy,2023.2.3,MacIntel,59.88023952,8,1,4,-0.404444444,-0.12,1,0,0,1.467,Peridotite_10,7,10,3,2,1.467,0.086666667,-0.404444444,1,0,0,1.181,Peridotite_rect,7,1.181,1,3,0,3,0,1,,,,,,,,,,,,
663af46531faaee825a255b1,SCN,2024-06-10_12h52.20.428,LearnStrategy,2023.2.3,MacIntel,59.88023952,8,1,5,-0.538888889,0.254444444,1,0,0,1.622,Andesite_09,1,09,5,1,1.622,-0.368888889,-0.248888889,1,0,0,1.068,Andesite_rect,1,1.068,1,4,0,4,0,1,,,,,,,,,,,,
663af46531faaee825a255b1,SCN,2024-06-10_12h52.20.428,LearnStrategy,2023.2.3,MacIntel,59.88023952,8,1,6,-0.063333333,-0.42,1,0,0,4.301,Gabbro_08,4,08,1,4,4.301,-0.097777778,-0.263333333,1,0,0,1.301,Basalt_rect,2,1.301,0,5,0,5,0,1,,,,,,,,,,,,
663af46531faaee825a255b1,SCN,2024-06-10_12h52.20.428,LearnStrategy,2023.2.3,MacIntel,59.88023952,8,1,7,0.39,-0.236666667,1,0,0,1.999,Basalt_16,2,16,2,7,1.999,-0.11,-0.246666667,1,0,0,1.463,Basalt_rect,2,1.463,1,6,0,6,0,1,,,,,,,,,,,,
663af46531faaee825a255b1,SCN,2024-06-10_12h52.20.428,LearnStrategy,2023.2.3,MacIntel,59.88023952,8,1,8,-0.428888889,-0.115555556,1,0,0,4.58,Peridotite_10,7,10,3,2,4.58,0.126666667,-0.406666667,1,0,0,2.433,Peridotite_rect,7,2.433,1,7,0,7,0,1,,,,,,,,,,,,
663af46531faaee825a255b1,SCN,2024-06-10_12h52.20.428,LearnStrategy,2023.2.3,MacIntel,59.88023952,8,1,9,-0.536666667,-0.408888889,1,0,0,1.231,Andesite_07,1,07,1,1,1.231,-0.343333333,-0.235555556,1,0,0,1.338,Andesite_rect,1,1.338,1,8,0,8,0,1,,,,,,,,,,,,
663af46531faaee825a255b1,SCN,2024-06-10_12h52.20.428,LearnStrategy,2023.2.3,MacIntel,59.88023952,8,1,10,-0.044444444,-0.117777778,1,0,0,0.958,Gabbro_12,4,12,3,4,0.958,-0.141111111,-0.255555556,1,0,0,1.195,Basalt_rect,2,1.195,0,9,0,9,0,1,,,,,,,,,,,,
663af46531faaee825a255b1,SCN,2024-06-10_12h52.20.428,LearnStrategy,2023.2.3,MacIntel,59.88023952,8,1,11,0.098888889,-0.077777778,1,0,0,1.633,Diorite_11,3,11,3,5,1.633,0.166666667,-0.252222222,1,0,0,0.903,Diorite_rect,3,0.903,1,10,0,10,0,1,,,,,,,,,,,,
663af46531faaee825a255b1,SCN,2024-06-10_12h52.20.428,LearnStrategy,2023.2.3,MacIntel,59.88023952,8,1,12,-0.232222222,-0.096666667,1,0,0,1.147,Diorite_10,3,10,3,3,1.147,0.137777778,-0.246666667,1,0,0,0.98,Diorite_rect,3,0.98,1,11,0,11,0,1,,,,,,,,,,,,
663af46531faaee825a255b1,SCN,2024-06-10_12h52.20.428,LearnStrategy,2023.2.3,MacIntel,59.88023952,8,1,13,-0.244444444,-0.275555556,1,0,0,0.949,Peridotite_05,7,05,2,3,0.949,-0.085555556,-0.25,1,0,0,2.996,Basalt_rect,2,2.996,0,12,0,12,0,1,,,,,,,,,,,,
663af46531faaee825a255b1,SCN,2024-06-10_12h52.20.428,LearnStrategy,2023.2.3,MacIntel,59.88023952,8,1,14,-0.262222222,-0.226666667,1,0,0,1.096,Peridotite_05,7,05,2,3,1.096,0.118888889,-0.406666667,1,0,0,1.278,Peridotite_rect,7,1.278,1,13,0,13,0,1,,,,,,,,,,,,
663af46531faaee825a255b1,SCN,2024-06-10_12h52.20.428,LearnStrategy,2023.2.3,MacIntel,59.88023952,8,1,15,-0.235555556,0.423333333,1,0,0,0.866,Peridotite_08,7,08,6,3,0.866,0.116666667,-0.394444444,1,0,0,1.662,Peridotite_rect,7,1.662,1,14,0,14,0,1,,,,,,,,,,,,
663af46531faaee825a255b1,SCN,2024-06-10_12h52.20.428,LearnStrategy,2023.2.3,MacIntel,59.88023952,8,1,16,0.567777778,0.257777778,1,0,0,1.663,Pegmatite_07,6,07,5,8,1.663,-0.13,-0.413333333,1,0,0,1.194,Pegmatite_rect,6,1.194,1,15,0,15,0,1,,,,,,,,,,,,
663af46531faaee825a255b1,SCN,2024-06-10_12h52.20.428,LearnStrategy,2023.2.3,MacIntel,59.88023952,8,2,1,,,,,,,,1,16,,,,,,,,,,,1,2.109,1,,,,,,-0.332222222,-0.231111111,1,0,0,2.109,Andesite_rect,0,0,0,0,1
663af46531faaee825a255b1,SCN,2024-06-10_12h52.20.428,LearnStrategy,2023.2.3,MacIntel,59.88023952,8,2,2,,,,,,,,2,05,,,,,,,,,,,2,1.281,1,,,,,,-0.158888889,-0.242222222,1,0,0,1.281,Basalt_rect,1,0,1,0,1
663af46531faaee825a255b1,SCN,2024-06-10_12h52.20.428,LearnStrategy,2023.2.3,MacIntel,59.88023952,8,2,3,,,,,,,,7,02,,,,,,,,,,,7,1.058,1,,,,,,0.145555556,-0.39,1,0,0,1.058,Peridotite_rect,2,0,2,0,1
663af46531faaee825a255b1,SCN,2024-06-10_12h52.20.428,LearnStrategy,2023.2.3,MacIntel,59.88023952,8,2,4,,,,,,,,1,14,,,,,,,,,,,1,1.4,1,,,,,,-0.406666667,-0.23,1,0,0,1.4,Andesite_rect,3,0,3,0,1
663af46531faaee825a255b1,SCN,2024-06-10_12h52.20.428,LearnStrategy,2023.2.3,MacIntel,59.88023952,8,2,5,,,,,,,,8,08,,,,,,,,,,,8,1.268,1,,,,,,0.428888889,-0.397777778,1,0,0,1.268,Pumice_rect,4,0,4,0,1
663af46531faaee825a255b1,SCN,2024-06-10_12h52.20.428,LearnStrategy,2023.2.3,MacIntel,59.88023952,8,2,6,,,,,,,,3,07,,,,,,,,,,,3,0.94,1,,,,,,0.133333333,-0.253333333,1,0,0,0.94,Diorite_rect,5,0,5,0,1
663af46531faaee825a255b1,SCN,2024-06-10_12h52.20.428,LearnStrategy,2023.2.3,MacIntel,59.88023952,8,2,7,,,,,,,,6,06,,,,,,,,,,,6,1.748,1,,,,,,-0.098888889,-0.404444444,1,0,0,1.748,Pegmatite_rect,6,0,6,0,1
663af46531faaee825a255b1,SCN,2024-06-10_12h52.20.428,LearnStrategy,2023.2.3,MacIntel,59.88023952,8,2,8,,,,,,,,3,13,,,,,,,,,,,3,1.132,1,,,,,,0.112222222,-0.257777778,1,0,0,1.132,Diorite_rect,7,0,7,0,1
663af46531faaee825a255b1,SCN,2024-06-10_12h52.20.428,LearnStrategy,2023.2.3,MacIntel,59.88023952,8,2,9,,,,,,,,4,10,,,,,,,,,,,4,1.291,1,,,,,,0.326666667,-0.251111111,1,0,0,1.291,Gabbro_rect,8,0,8,0,1
663af46531faaee825a255b1,SCN,2024-06-10_12h52.20.428,LearnStrategy,2023.2.3,MacIntel,59.88023952,8,2,10,,,,,,,,4,11,,,,,,,,,,,4,3.405,1,,,,,,0.333333333,-0.242222222,1,0,0,3.405,Gabbro_rect,9,0,9,0,1
663af46531faaee825a255b1,SCN,2024-06-10_12h52.20.428,LearnStrategy,2023.2.3,MacIntel,59.88023952,8,2,11,,,,,,,,6,16,,,,,,,,,,,6,1.369,1,,,,,,-0.095555556,-0.397777778,1,0,0,1.369,Pegmatite_rect,10,0,10,0,1
663af46531faaee825a255b1,SCN,2024-06-10_12h52.20.428,LearnStrategy,2023.2.3,MacIntel,59.88023952,8,2,12,,,,,,,,5,14,,,,,,,,,,,5,1.379,1,,,,,,-0.345555556,-0.407777778,1,0,0,1.379,Obsidian_rect,11,0,11,0,1
663af46531faaee825a255b1,SCN,2024-06-10_12h52.20.428,LearnStrategy,2023.2.3,MacIntel,59.88023952,8,2,13,,,,,,,,8,16,,,,,,,,,,,8,1.671,1,,,,,,0.456666667,-0.385555556,1,0,0,1.671,Pumice_rect,12,0,12,0,1
663af46531faaee825a255b1,SCN,2024-06-10_12h52.20.428,LearnStrategy,2023.2.3,MacIntel,59.88023952,8,2,14,,,,,,,,2,10,,,,,,,,,,,2,1.051,1,,,,,,-0.14,-0.258888889,1,0,0,1.051,Basalt_rect,13,0,13,0,1
663af46531faaee825a255b1,SCN,2024-06-10_12h52.20.428,LearnStrategy,2023.2.3,MacIntel,59.88023952,8,2,15,,,,,,,,7,16,,,,,,,,,,,7,1.723,1,,,,,,0.151111111,-0.407777778,1,0,0,1.723,Peridotite_rect,14,0,14,0,1
663af46531faaee825a255b1,SCN,2024-06-10_12h52.20.428,LearnStrategy,2023.2.3,MacIntel,59.88023952,8,2,16,,,,,,,,5,02,,,,,,,,,,,5,1.131,1,,,,,,-0.392222222,-0.412222222,1,0,0,1.131,Obsidian_rect,15,0,15,0,1
663af46531faaee825a255b1,SCN,2024-06-10_12h52.20.428,LearnStrategy,2023.2.3,MacIntel,59.88023952,9,1,1,-0.264444444,-0.133333333,1,0,0,1.329,Diorite_10,3,10,3,3,1.329,0.132222222,-0.236666667,1,0,0,1.308,Diorite_rect,3,1.308,1,0,0,0,0,1,,,,,,,,,,,,
663af46531faaee825a255b1,SCN,2024-06-10_12h52.20.428,LearnStrategy,2023.2.3,MacIntel,59.88023952,9,1,2,-0.422222222,-0.128888889,1,0,0,0.815,Peridotite_10,7,10,3,2,0.815,0.163333333,-0.407777778,1,0,0,0.999,Peridotite_rect,7,0.999,1,1,0,1,0,1,,,,,,,,,,,,
663af46531faaee825a255b1,SCN,2024-06-10_12h52.20.428,LearnStrategy,2023.2.3,MacIntel,59.88023952,9,1,3,-0.251111111,-0.271111111,1,0,0,6.644,Peridotite_05,7,05,2,3,6.644,0.113333333,-0.388888889,1,0,0,1.029,Peridotite_rect,7,1.029,1,2,0,2,0,1,,,,,,,,,,,,
663af46531faaee825a255b1,SCN,2024-06-10_12h52.20.428,LearnStrategy,2023.2.3,MacIntel,59.88023952,9,1,4,-0.538888889,0.263333333,1,0,0,2.246,Andesite_09,1,09,5,1,2.246,-0.418888889,-0.241111111,1,0,0,1.97,Andesite_rect,1,1.97,1,3,0,3,0,1,,,,,,,,,,,,
663af46531faaee825a255b1,SCN,2024-06-10_12h52.20.428,LearnStrategy,2023.2.3,MacIntel,59.88023952,9,1,5,-0.382222222,0.408888889,1,0,0,1.147,Diorite_08,3,08,6,2,1.147,0.128888889,-0.245555556,1,0,0,1.651,Diorite_rect,3,1.651,1,4,0,4,0,1,,,,,,,,,,,,
663af46531faaee825a255b1,SCN,2024-06-10_12h52.20.428,LearnStrategy,2023.2.3,MacIntel,59.88023952,9,1,6,0.098888889,0.261111111,1,0,0,1.648,Andesite_05,1,05,5,5,1.648,-0.347777778,-0.235555556,1,0,0,3.29,Andesite_rect,1,3.29,1,5,0,5,0,1,,,,,,,,,,,,
663af46531faaee825a255b1,SCN,2024-06-10_12h52.20.428,LearnStrategy,2023.2.3,MacIntel,59.88023952,9,1,7,-0.057777778,-0.136666667,1,0,0,4.983,Gabbro_12,4,12,3,4,4.983,-0.092222222,-0.232222222,1,0,0,1.037,Basalt_rect,2,1.037,0,6,0,6,0,1,,,,,,,,,,,,
663af46531faaee825a255b1,SCN,2024-06-10_12h52.20.428,LearnStrategy,2023.2.3,MacIntel,59.88023952,9,1,8,-0.047777778,-0.271111111,1,0,0,0.865,Basalt_02,2,02,2,4,0.865,-0.083333333,-0.244444444,1,0,0,1.038,Basalt_rect,2,1.038,1,7,0,7,0,1,,,,,,,,,,,,
663af46531faaee825a255b1,SCN,2024-06-10_12h52.20.428,LearnStrategy,2023.2.3,MacIntel,59.88023952,9,1,9,-0.095555556,-0.101111111,1,0,0,1.413,Gabbro_12,4,12,3,4,1.413,0.323333333,-0.258888889,1,0,0,1.063,Gabbro_rect,4,1.063,1,8,0,8,0,1,,,,,,,,,,,,
663af46531faaee825a255b1,SCN,2024-06-10_12h52.20.428,LearnStrategy,2023.2.3,MacIntel,59.88023952,9,1,10,0.235555556,0.23,1,0,0,1.911,Basalt_08,2,08,5,6,1.911,-0.108888889,-0.257777778,1,0,0,1.886,Basalt_rect,2,1.886,1,9,0,9,0,1,,,,,,,,,,,,
663af46531faaee825a255b1,SCN,2024-06-10_12h52.20.428,LearnStrategy,2023.2.3,MacIntel,59.88023952,9,1,11,-0.55,0.245555556,1,0,0,3.714,Andesite_09,1,09,5,1,3.714,-0.401111111,-0.232222222,1,0,0,1.84,Andesite_rect,1,1.84,1,10,0,10,0,1,,,,,,,,,,,,
663af46531faaee825a255b1,SCN,2024-06-10_12h52.20.428,LearnStrategy,2023.2.3,MacIntel,59.88023952,9,1,12,0.362222222,-0.265555556,1,0,0,3.896,Basalt_16,2,16,2,7,3.896,0.391111111,-0.405555556,1,0,0,1.097,Pumice_rect,8,1.097,0,11,0,11,0,1,,,,,,,,,,,,
663af46531faaee825a255b1,SCN,2024-06-10_12h52.20.428,LearnStrategy,2023.2.3,MacIntel,59.88023952,9,1,13,0.384444444,-0.274444444,1,0,0,1.238,Basalt_16,2,16,2,7,1.238,-0.18,-0.242222222,1,0,0,0.933,Basalt_rect,2,0.933,1,12,0,12,0,1,,,,,,,,,,,,
663af46531faaee825a255b1,SCN,2024-06-10_12h52.20.428,LearnStrategy,2023.2.3,MacIntel,59.88023952,9,1,14,-0.064444444,0.11,1,0,0,0.962,Gabbro_05,4,05,4,4,0.962,0.114444444,-0.398888889,1,0,0,2.128,Peridotite_rect,7,2.128,0,13,0,13,0,1,,,,,,,,,,,,
663af46531faaee825a255b1,SCN,2024-06-10_12h52.20.428,LearnStrategy,2023.2.3,MacIntel,59.88023952,9,1,15,0.392222222,0.42,1,0,0,3.798,Basalt_12,2,12,6,7,3.798,0.36,-0.392222222,1,0,0,1.589,Pumice_rect,8,1.589,0,14,0,14,0,1,,,,,,,,,,,,
663af46531faaee825a255b1,SCN,2024-06-10_12h52.20.428,LearnStrategy,2023.2.3,MacIntel,59.88023952,9,1,16,0.368888889,0.358888889,1,0,0,0.998,Basalt_12,2,12,6,7,0.998,-0.137777778,-0.26,1,0,0,0.944,Basalt_rect,2,0.944,1,15,0,15,0,1,,,,,,,,,,,,
663af46531faaee825a255b1,SCN,2024-06-10_12h52.20.428,LearnStrategy,2023.2.3,MacIntel,59.88023952,9,2,1,,,,,,,,6,10,,,,,,,,,,,6,1.426,1,,,,,,-0.098888889,-0.397777778,1,0,0,1.426,Pegmatite_rect,0,0,0,0,1
663af46531faaee825a255b1,SCN,2024-06-10_12h52.20.428,LearnStrategy,2023.2.3,MacIntel,59.88023952,9,2,2,,,,,,,,8,15,,,,,,,,,,,8,1.396,1,,,,,,0.453333333,-0.405555556,1,0,0,1.396,Pumice_rect,1,0,1,0,1
663af46531faaee825a255b1,SCN,2024-06-10_12h52.20.428,LearnStrategy,2023.2.3,MacIntel,59.88023952,9,2,3,,,,,,,,1,03,,,,,,,,,,,1,1.68,1,,,,,,-0.417777778,-0.247777778,1,0,0,1.68,Andesite_rect,2,0,2,0,1
663af46531faaee825a255b1,SCN,2024-06-10_12h52.20.428,LearnStrategy,2023.2.3,MacIntel,59.88023952,9,2,4,,,,,,,,7,07,,,,,,,,,,,7,1.273,1,,,,,,0.09,-0.39,1,0,0,1.273,Peridotite_rect,3,0,3,0,1
663af46531faaee825a255b1,SCN,2024-06-10_12h52.20.428,LearnStrategy,2023.2.3,MacIntel,59.88023952,9,2,5,,,,,,,,1,04,,,,,,,,,,,1,1.418,1,,,,,,-0.346666667,-0.235555556,1,0,0,1.418,Andesite_rect,4,0,4,0,1
663af46531faaee825a255b1,SCN,2024-06-10_12h52.20.428,LearnStrategy,2023.2.3,MacIntel,59.88023952,9,2,6,,,,,,,,8,14,,,,,,,,,,,8,1.43,1,,,,,,0.346666667,-0.385555556,1,0,0,1.43,Pumice_rect,5,0,5,0,1
663af46531faaee825a255b1,SCN,2024-06-10_12h52.20.428,LearnStrategy,2023.2.3,MacIntel,59.88023952,9,2,7,,,,,,,,4,15,,,,,,,,,,,3,6.558,0,,,,,,0.102222222,-0.247777778,1,0,0,6.558,Diorite_rect,6,0,6,0,1
663af46531faaee825a255b1,SCN,2024-06-10_12h52.20.428,LearnStrategy,2023.2.3,MacIntel,59.88023952,9,2,8,,,,,,,,3,12,,,,,,,,,,,3,0.907,1,,,,,,0.072222222,-0.246666667,1,0,0,0.907,Diorite_rect,7,0,7,0,1
663af46531faaee825a255b1,SCN,2024-06-10_12h52.20.428,LearnStrategy,2023.2.3,MacIntel,59.88023952,9,2,9,,,,,,,,4,03,,,,,,,,,,,4,2.388,1,,,,,,0.355555556,-0.26,1,0,0,2.388,Gabbro_rect,8,0,8,0,1
663af46531faaee825a255b1,SCN,2024-06-10_12h52.20.428,LearnStrategy,2023.2.3,MacIntel,59.88023952,9,2,10,,,,,,,,6,03,,,,,,,,,,,6,1.121,1,,,,,,-0.074444444,-0.417777778,1,0,0,1.121,Pegmatite_rect,9,0,9,0,1
663af46531faaee825a255b1,SCN,2024-06-10_12h52.20.428,LearnStrategy,2023.2.3,MacIntel,59.88023952,9,2,11,,,,,,,,2,09,,,,,,,,,,,2,1.161,1,,,,,,-0.127777778,-0.235555556,1,0,0,1.161,Basalt_rect,10,0,10,0,1
663af46531faaee825a255b1,SCN,2024-06-10_12h52.20.428,LearnStrategy,2023.2.3,MacIntel,59.88023952,9,2,12,,,,,,,,3,02,,,,,,,,,,,3,1.572,1,,,,,,0.094444444,-0.268888889,1,0,0,1.572,Diorite_rect,11,0,11,0,1
663af46531faaee825a255b1,SCN,2024-06-10_12h52.20.428,LearnStrategy,2023.2.3,MacIntel,59.88023952,9,2,13,,,,,,,,5,04,,,,,,,,,,,5,1.176,1,,,,,,-0.405555556,-0.403333333,1,0,0,1.176,Obsidian_rect,12,0,12,0,1
663af46531faaee825a255b1,SCN,2024-06-10_12h52.20.428,LearnStrategy,2023.2.3,MacIntel,59.88023952,9,2,14,,,,,,,,7,06,,,,,,,,,,,7,1.322,1,,,,,,0.054444444,-0.388888889,1,0,0,1.322,Peridotite_rect,13,0,13,0,1
663af46531faaee825a255b1,SCN,2024-06-10_12h52.20.428,LearnStrategy,2023.2.3,MacIntel,59.88023952,9,2,15,,,,,,,,5,09,,,,,,,,,,,5,1.211,1,,,,,,-0.367777778,-0.405555556,1,0,0,1.211,Obsidian_rect,14,0,14,0,1
663af46531faaee825a255b1,SCN,2024-06-10_12h52.20.428,LearnStrategy,2023.2.3,MacIntel,59.88023952,9,2,16,,,,,,,,2,11,,,,,,,,,,,2,2.429,1,,,,,,-0.084444444,-0.268888889,1,0,0,2.429,Basalt_rect,15,0,15,0,1
663af46531faaee825a255b1,SCN,2024-06-10_12h52.20.428,LearnStrategy,2023.2.3,MacIntel,59.88023952,,,,,,,,,,,,,,,,,,,,,,,,,,,,,,,,,,,,,,,,,,
663af46531faaee825a255b1,SCN,2024-06-10_12h52.20.428,LearnStrategy,2023.2.3,MacIntel,59.88023952,,,,,,,,,,,,,,,,,,,,,,,,,,,,,,,,,,,,,,,,,,
663af46531faaee825a255b1,SCN,2024-06-10_12h52.20.428,LearnStrategy,2023.2.3,MacIntel,59.88023952,,,,,,,,,,,1,07,1,1,,,,,,,,,,,,,,,,,,,,,,,,,,,,
663af46531faaee825a255b1,SCN,2024-06-10_12h52.20.428,LearnStrategy,2023.2.3,MacIntel,59.88023952,,,,,,,,,,,5,12,1,2,,,,,,,,,,,,,,,,,,,,,,,,,,,,
663af46531faaee825a255b1,SCN,2024-06-10_12h52.20.428,LearnStrategy,2023.2.3,MacIntel,59.88023952,,,,,,,,,,,6,13,1,3,,,,,,,,,,,,,,,,,,,,,,,,,,,,
663af46531faaee825a255b1,SCN,2024-06-10_12h52.20.428,LearnStrategy,2023.2.3,MacIntel,59.88023952,,,,,,,,,,,4,08,1,4,,,,,,,,,,,,,,,,,,,,,,,,,,,,
663af46531faaee825a255b1,SCN,2024-06-10_12h52.20.428,LearnStrategy,2023.2.3,MacIntel,59.88023952,,,,,,,,,,,1,10,1,5,,,,,,,,,,,,,,,,,,,,,,,,,,,,
663af46531faaee825a255b1,SCN,2024-06-10_12h52.20.428,LearnStrategy,2023.2.3,MacIntel,59.88023952,,,,,,,,,,,1,01,1,6,,,,,,,,,,,,,,,,,,,,,,,,,,,,
663af46531faaee825a255b1,SCN,2024-06-10_12h52.20.428,LearnStrategy,2023.2.3,MacIntel,59.88023952,,,,,,,,,,,7,12,1,7,,,,,,,,,,,,,,,,,,,,,,,,,,,,
663af46531faaee825a255b1,SCN,2024-06-10_12h52.20.428,LearnStrategy,2023.2.3,MacIntel,59.88023952,,,,,,,,,,,6,09,1,8,,,,,,,,,,,,,,,,,,,,,,,,,,,,
663af46531faaee825a255b1,SCN,2024-06-10_12h52.20.428,LearnStrategy,2023.2.3,MacIntel,59.88023952,,,,,,,,,,,5,05,2,1,,,,,,,,,,,,,,,,,,,,,,,,,,,,
663af46531faaee825a255b1,SCN,2024-06-10_12h52.20.428,LearnStrategy,2023.2.3,MacIntel,59.88023952,,,,,,,,,,,7,13,2,2,,,,,,,,,,,,,,,,,,,,,,,,,,,,
663af46531faaee825a255b1,SCN,2024-06-10_12h52.20.428,LearnStrategy,2023.2.3,MacIntel,59.88023952,,,,,,,,,,,7,05,2,3,,,,,,,,,,,,,,,,,,,,,,,,,,,,
663af46531faaee825a255b1,SCN,2024-06-10_12h52.20.428,LearnStrategy,2023.2.3,MacIntel,59.88023952,,,,,,,,,,,2,02,2,4,,,,,,,,,,,,,,,,,,,,,,,,,,,,
663af46531faaee825a255b1,SCN,2024-06-10_12h52.20.428,LearnStrategy,2023.2.3,MacIntel,59.88023952,,,,,,,,,,,3,16,2,5,,,,,,,,,,,,,,,,,,,,,,,,,,,,
663af46531faaee825a255b1,SCN,2024-06-10_12h52.20.428,LearnStrategy,2023.2.3,MacIntel,59.88023952,,,,,,,,,,,5,11,2,6,,,,,,,,,,,,,,,,,,,,,,,,,,,,
663af46531faaee825a255b1,SCN,2024-06-10_12h52.20.428,LearnStrategy,2023.2.3,MacIntel,59.88023952,,,,,,,,,,,2,16,2,7,,,,,,,,,,,,,,,,,,,,,,,,,,,,
663af46531faaee825a255b1,SCN,2024-06-10_12h52.20.428,LearnStrategy,2023.2.3,MacIntel,59.88023952,,,,,,,,,,,2,06,2,8,,,,,,,,,,,,,,,,,,,,,,,,,,,,
663af46531faaee825a255b1,SCN,2024-06-10_12h52.20.428,LearnStrategy,2023.2.3,MacIntel,59.88023952,,,,,,,,,,,6,11,3,1,,,,,,,,,,,,,,,,,,,,,,,,,,,,
663af46531faaee825a255b1,SCN,2024-06-10_12h52.20.428,LearnStrategy,2023.2.3,MacIntel,59.88023952,,,,,,,,,,,7,10,3,2,,,,,,,,,,,,,,,,,,,,,,,,,,,,
663af46531faaee825a255b1,SCN,2024-06-10_12h52.20.428,LearnStrategy,2023.2.3,MacIntel,59.88023952,,,,,,,,,,,3,10,3,3,,,,,,,,,,,,,,,,,,,,,,,,,,,,
663af46531faaee825a255b1,SCN,2024-06-10_12h52.20.428,LearnStrategy,2023.2.3,MacIntel,59.88023952,,,,,,,,,,,4,12,3,4,,,,,,,,,,,,,,,,,,,,,,,,,,,,
663af46531faaee825a255b1,SCN,2024-06-10_12h52.20.428,LearnStrategy,2023.2.3,MacIntel,59.88023952,,,,,,,,,,,3,11,3,5,,,,,,,,,,,,,,,,,,,,,,,,,,,,
663af46531faaee825a255b1,SCN,2024-06-10_12h52.20.428,LearnStrategy,2023.2.3,MacIntel,59.88023952,,,,,,,,,,,8,02,3,6,,,,,,,,,,,,,,,,,,,,,,,,,,,,
663af46531faaee825a255b1,SCN,2024-06-10_12h52.20.428,LearnStrategy,2023.2.3,MacIntel,59.88023952,,,,,,,,,,,7,04,3,7,,,,,,,,,,,,,,,,,,,,,,,,,,,,
663af46531faaee825a255b1,SCN,2024-06-10_12h52.20.428,LearnStrategy,2023.2.3,MacIntel,59.88023952,,,,,,,,,,,8,03,3,8,,,,,,,,,,,,,,,,,,,,,,,,,,,,
663af46531faaee825a255b1,SCN,2024-06-10_12h52.20.428,LearnStrategy,2023.2.3,MacIntel,59.88023952,,,,,,,,,,,6,08,4,1,,,,,,,,,,,,,,,,,,,,,,,,,,,,
663af46531faaee825a255b1,SCN,2024-06-10_12h52.20.428,LearnStrategy,2023.2.3,MacIntel,59.88023952,,,,,,,,,,,4,01,4,2,,,,,,,,,,,,,,,,,,,,,,,,,,,,
663af46531faaee825a255b1,SCN,2024-06-10_12h52.20.428,LearnStrategy,2023.2.3,MacIntel,59.88023952,,,,,,,,,,,8,09,4,3,,,,,,,,,,,,,,,,,,,,,,,,,,,,
663af46531faaee825a255b1,SCN,2024-06-10_12h52.20.428,LearnStrategy,2023.2.3,MacIntel,59.88023952,,,,,,,,,,,4,05,4,4,,,,,,,,,,,,,,,,,,,,,,,,,,,,
663af46531faaee825a255b1,SCN,2024-06-10_12h52.20.428,LearnStrategy,2023.2.3,MacIntel,59.88023952,,,,,,,,,,,6,15,4,5,,,,,,,,,,,,,,,,,,,,,,,,,,,,
663af46531faaee825a255b1,SCN,2024-06-10_12h52.20.428,LearnStrategy,2023.2.3,MacIntel,59.88023952,,,,,,,,,,,8,13,4,6,,,,,,,,,,,,,,,,,,,,,,,,,,,,
663af46531faaee825a255b1,SCN,2024-06-10_12h52.20.428,LearnStrategy,2023.2.3,MacIntel,59.88023952,,,,,,,,,,,8,05,4,7,,,,,,,,,,,,,,,,,,,,,,,,,,,,
663af46531faaee825a255b1,SCN,2024-06-10_12h52.20.428,LearnStrategy,2023.2.3,MacIntel,59.88023952,,,,,,,,,,,3,15,4,8,,,,,,,,,,,,,,,,,,,,,,,,,,,,
663af46531faaee825a255b1,SCN,2024-06-10_12h52.20.428,LearnStrategy,2023.2.3,MacIntel,59.88023952,,,,,,,,,,,1,09,5,1,,,,,,,,,,,,,,,,,,,,,,,,,,,,
663af46531faaee825a255b1,SCN,2024-06-10_12h52.20.428,LearnStrategy,2023.2.3,MacIntel,59.88023952,,,,,,,,,,,5,08,5,2,,,,,,,,,,,,,,,,,,,,,,,,,,,,
663af46531faaee825a255b1,SCN,2024-06-10_12h52.20.428,LearnStrategy,2023.2.3,MacIntel,59.88023952,,,,,,,,,,,2,04,5,3,,,,,,,,,,,,,,,,,,,,,,,,,,,,
663af46531faaee825a255b1,SCN,2024-06-10_12h52.20.428,LearnStrategy,2023.2.3,MacIntel,59.88023952,,,,,,,,,,,4,13,5,4,,,,,,,,,,,,,,,,,,,,,,,,,,,,
663af46531faaee825a255b1,SCN,2024-06-10_12h52.20.428,LearnStrategy,2023.2.3,MacIntel,59.88023952,,,,,,,,,,,1,05,5,5,,,,,,,,,,,,,,,,,,,,,,,,,,,,
663af46531faaee825a255b1,SCN,2024-06-10_12h52.20.428,LearnStrategy,2023.2.3,MacIntel,59.88023952,,,,,,,,,,,2,08,5,6,,,,,,,,,,,,,,,,,,,,,,,,,,,,
663af46531faaee825a255b1,SCN,2024-06-10_12h52.20.428,LearnStrategy,2023.2.3,MacIntel,59.88023952,,,,,,,,,,,5,10,5,7,,,,,,,,,,,,,,,,,,,,,,,,,,,,
663af46531faaee825a255b1,SCN,2024-06-10_12h52.20.428,LearnStrategy,2023.2.3,MacIntel,59.88023952,,,,,,,,,,,6,07,5,8,,,,,,,,,,,,,,,,,,,,,,,,,,,,
663af46531faaee825a255b1,SCN,2024-06-10_12h52.20.428,LearnStrategy,2023.2.3,MacIntel,59.88023952,,,,,,,,,,,5,07,6,1,,,,,,,,,,,,,,,,,,,,,,,,,,,,
663af46531faaee825a255b1,SCN,2024-06-10_12h52.20.428,LearnStrategy,2023.2.3,MacIntel,59.88023952,,,,,,,,,,,3,08,6,2,,,,,,,,,,,,,,,,,,,,,,,,,,,,
663af46531faaee825a255b1,SCN,2024-06-10_12h52.20.428,LearnStrategy,2023.2.3,MacIntel,59.88023952,,,,,,,,,,,7,08,6,3,,,,,,,,,,,,,,,,,,,,,,,,,,,,
663af46531faaee825a255b1,SCN,2024-06-10_12h52.20.428,LearnStrategy,2023.2.3,MacIntel,59.88023952,,,,,,,,,,,3,14,6,4,,,,,,,,,,,,,,,,,,,,,,,,,,,,
663af46531faaee825a255b1,SCN,2024-06-10_12h52.20.428,LearnStrategy,2023.2.3,MacIntel,59.88023952,,,,,,,,,,,4,14,6,5,,,,,,,,,,,,,,,,,,,,,,,,,,,,
663af46531faaee825a255b1,SCN,2024-06-10_12h52.20.428,LearnStrategy,2023.2.3,MacIntel,59.88023952,,,,,,,,,,,8,06,6,6,,,,,,,,,,,,,,,,,,,,,,,,,,,,
663af46531faaee825a255b1,SCN,2024-06-10_12h52.20.428,LearnStrategy,2023.2.3,MacIntel,59.88023952,,,,,,,,,,,2,12,6,7,,,,,,,,,,,,,,,,,,,,,,,,,,,,
663af46531faaee825a255b1,SCN,2024-06-10_12h52.20.428,LearnStrategy,2023.2.3,MacIntel,59.88023952,,,,,,,,,,,1,06,6,8,,,,,,,,,,,,,,,,,,,,,,,,,,,,