participant,condition,date,expName,psychopyVersion,OS,frameRate,block,phase,trial,learn_mouse_2.x,learn_mouse_2.y,learn_mouse_2.leftButton,learn_mouse_2.midButton,learn_mouse_2.rightButton,learn_mouse_2.time,learn_mouse_2.clicked_name,cat,token,row,col,t_select,cat_mouse_l.x,cat_mouse_l.y,cat_mouse_l.leftButton,cat_mouse_l.midButton,cat_mouse_l.rightButton,cat_mouse_l.time,cat_mouse_l.clicked_name,resp,t_resp,corr,train_trials.thisRepN,train_trials.thisTrialN,train_trials.thisN,train_trials.thisIndex,train_trials.ran,cat_mouse_t.x,cat_mouse_t.y,cat_mouse_t.leftButton,cat_mouse_t.midButton,cat_mouse_t.rightButton,cat_mouse_t.time,cat_mouse_t.clicked_name,test_trials.thisRepN,test_trials.thisTrialN,test_trials.thisN,test_trials.thisIndex,test_trials.ran,Bonus
663cb982130f1384c9988214,TCR,2024-06-24_13h43.08.291,LearnStrategy,2023.2.3,Win32,60.24096386,,,,,,,,,,,,,,,,,,,,,,,,,,,,,,,,,,,,,,,,,,,
663cb982130f1384c9988214,TCR,2024-06-24_13h43.08.291,LearnStrategy,2023.2.3,Win32,60.24096386,1,1,1,0.017592607,-0.001851859,1,0,0,4.3163,rock_grid_rect_2,8,15,-1,-1,4.316,-0.152777778,-0.240740741,1,0,0,23.967,Basalt_rect,2,23.967,0,0,0,0,0,1,,,,,,,,,,,,,
663cb982130f1384c9988214,TCR,2024-06-24_13h43.08.291,LearnStrategy,2023.2.3,Win32,60.24096386,1,1,2,0.065740727,0.008333312,1,0,0,1.4459,rock_grid_rect_2,3,15,-1,-1,1.446,0.065740727,-0.262962977,1,0,0,14.0667,Diorite_rect,3,14.067,1,1,0,1,0,1,,,,,,,,,,,,,
663cb982130f1384c9988214,TCR,2024-06-24_13h43.08.291,LearnStrategy,2023.2.3,Win32,60.24096386,1,1,3,0.071296339,0.002777771,1,0,0,1.3818,rock_grid_rect_2,4,11,-1,-1,1.382,-0.107407393,-0.240740741,1,0,0,13.5773,Basalt_rect,2,13.577,0,2,0,2,0,1,,,,,,,,,,,,,
663cb982130f1384c9988214,TCR,2024-06-24_13h43.08.291,LearnStrategy,2023.2.3,Win32,60.24096386,1,1,4,0.060185185,-0.006481489,1,0,0,2.0138,rock_grid_rect_2,2,05,-1,-1,2.014,-0.469444452,-0.415740755,1,0,0,11.4301,Obsidian_rect,5,11.43,0,3,0,3,0,1,,,,,,,,,,,,,
663cb982130f1384c9988214,TCR,2024-06-24_13h43.08.291,LearnStrategy,2023.2.3,Win32,60.24096386,1,1,5,-0.000925912,-0.003703718,1,0,0,2.9369,rock_grid_rect_2,5,16,-1,-1,2.937,-0.365740741,-0.410185213,1,0,0,2.7251,Obsidian_rect,5,2.725,1,4,0,4,0,1,,,,,,,,,,,,,
663cb982130f1384c9988214,TCR,2024-06-24_13h43.08.291,LearnStrategy,2023.2.3,Win32,60.24096386,1,1,6,0.054629644,-0.0074074,1,0,0,1.4319,rock_grid_rect_2,6,13,-1,-1,1.432,-0.061111097,-0.407407407,1,0,0,14.4204,Pegmatite_rect,6,14.42,1,5,0,5,0,1,,,,,,,,,,,,,
663cb982130f1384c9988214,TCR,2024-06-24_13h43.08.291,LearnStrategy,2023.2.3,Win32,60.24096386,1,1,7,0.033333319,0.011111118,1,0,0,1.1113,rock_grid_rect_2,2,10,-1,-1,1.111,-0.324999986,-0.236111111,1,0,0,8.9882,Andesite_rect,1,8.988,0,6,0,6,0,1,,,,,,,,,,,,,
663cb982130f1384c9988214,TCR,2024-06-24_13h43.08.291,LearnStrategy,2023.2.3,Win32,60.24096386,1,1,8,0.059259273,0.009259259,1,0,0,1.5602,rock_grid_rect_2,7,06,-1,-1,1.56,-0.140740712,-0.40370369,1,0,0,28.9263,Pegmatite_rect,6,28.926,0,7,0,7,0,1,,,,,,,,,,,,,
663cb982130f1384c9988214,TCR,2024-06-24_13h43.08.291,LearnStrategy,2023.2.3,Win32,60.24096386,1,1,9,0.035185213,0.006481489,1,0,0,1.4637,rock_grid_rect_2,3,13,-1,-1,1.464,-0.088888875,-0.386111153,1,0,0,40.3239,Pegmatite_rect,6,40.324,0,8,0,8,0,1,,,,,,,,,,,,,
663cb982130f1384c9988214,TCR,2024-06-24_13h43.08.291,LearnStrategy,2023.2.3,Win32,60.24096386,1,1,10,0.102777764,-0.017592607,1,0,0,1.358,rock_grid_rect_2,1,07,-1,-1,1.358,-0.360185164,-0.258333347,1,0,0,9.8352,Andesite_rect,1,9.835,1,9,0,9,0,1,,,,,,,,,,,,,
663cb982130f1384c9988214,TCR,2024-06-24_13h43.08.291,LearnStrategy,2023.2.3,Win32,60.24096386,1,1,11,0.01944443,-0.012962977,1,0,0,0.9874,rock_grid_rect_2,6,15,-1,-1,0.987,-0.039814772,-0.271296325,1,0,0,16.583,Basalt_rect,2,16.583,0,10,0,10,0,1,,,,,,,,,,,,,
663cb982130f1384c9988214,TCR,2024-06-24_13h43.08.291,LearnStrategy,2023.2.3,Win32,60.24096386,1,1,12,0.077777792,0.014814801,1,0,0,1.4727,rock_grid_rect_2,4,08,-1,-1,1.473,0.384259259,-0.24537037,1,0,0,29.6411,Gabbro_rect,4,29.641,1,11,0,11,0,1,,,,,,,,,,,,,
663cb982130f1384c9988214,TCR,2024-06-24_13h43.08.291,LearnStrategy,2023.2.3,Win32,60.24096386,1,1,13,0.083333333,-0.009259259,1,0,0,1.9632,rock_grid_rect_2,5,08,-1,-1,1.963,-0.357407393,-0.383333347,1,0,0,11.2775,Obsidian_rect,5,11.277,1,12,0,12,0,1,,,,,,,,,,,,,
663cb982130f1384c9988214,TCR,2024-06-24_13h43.08.291,LearnStrategy,2023.2.3,Win32,60.24096386,1,1,14,0.084259245,-0.012962977,1,0,0,1.918,rock_grid_rect_2,7,02,-1,-1,1.918,0.15370369,-0.408333319,1,0,0,3.995,Peridotite_rect,7,3.995,1,13,0,13,0,1,,,,,,,,,,,,,
663cb982130f1384c9988214,TCR,2024-06-24_13h43.08.291,LearnStrategy,2023.2.3,Win32,60.24096386,1,1,15,0.051851838,0.00462963,1,0,0,2.1771,rock_grid_rect_2,8,09,-1,-1,2.177,0.356481481,-0.414814843,1,0,0,14.8441,Pumice_rect,8,14.844,1,14,0,14,0,1,,,,,,,,,,,,,
663cb982130f1384c9988214,TCR,2024-06-24_13h43.08.291,LearnStrategy,2023.2.3,Win32,60.24096386,1,1,16,-0.077777792,-0.013888889,1,0,0,1.3474,rock_grid_rect_2,1,11,-1,-1,1.347,0.396296325,-0.243518547,1,0,0,36.0727,Gabbro_rect,4,36.073,0,15,0,15,0,1,,,,,,,,,,,,,
663cb982130f1384c9988214,TCR,2024-06-24_13h43.08.291,LearnStrategy,2023.2.3,Win32,60.24096386,1,2,1,,,,,,,,4,14,,,,,,,,,,,3,30.99,0,,,,,,0.181481467,-0.246296282,1,0,0,30.9901,Diorite_rect,0,0,0,0,1,
663cb982130f1384c9988214,TCR,2024-06-24_13h43.08.291,LearnStrategy,2023.2.3,Win32,60.24096386,1,2,2,,,,,,,,6,12,,,,,,,,,,,6,19.589,1,,,,,,-0.097222222,-0.392592607,1,0,0,19.5888,Pegmatite_rect,1,0,1,0,1,
663cb982130f1384c9988214,TCR,2024-06-24_13h43.08.291,LearnStrategy,2023.2.3,Win32,60.24096386,1,2,3,,,,,,,,5,10,,,,,,,,,,,5,3.894,1,,,,,,-0.346296275,-0.40370369,1,0,0,3.8937,Obsidian_rect,2,0,2,0,1,
663cb982130f1384c9988214,TCR,2024-06-24_13h43.08.291,LearnStrategy,2023.2.3,Win32,60.24096386,1,2,4,,,,,,,,6,10,,,,,,,,,,,7,2.951,0,,,,,,0.118518547,-0.393518519,1,0,0,2.9505,Peridotite_rect,3,0,3,0,1,
663cb982130f1384c9988214,TCR,2024-06-24_13h43.08.291,LearnStrategy,2023.2.3,Win32,60.24096386,1,2,5,,,,,,,,3,12,,,,,,,,,,,3,12.172,1,,,,,,0.143518519,-0.253703718,1,0,0,12.1719,Diorite_rect,4,0,4,0,1,
663cb982130f1384c9988214,TCR,2024-06-24_13h43.08.291,LearnStrategy,2023.2.3,Win32,60.24096386,1,2,6,,,,,,,,2,01,,,,,,,,,,,2,10.384,1,,,,,,-0.165740755,-0.25462963,1,0,0,10.3836,Basalt_rect,5,0,5,0,1,
663cb982130f1384c9988214,TCR,2024-06-24_13h43.08.291,LearnStrategy,2023.2.3,Win32,60.24096386,1,2,7,,,,,,,,8,04,,,,,,,,,,,8,14.181,1,,,,,,0.402777778,-0.391666695,1,0,0,14.1812,Pumice_rect,6,0,6,0,1,
663cb982130f1384c9988214,TCR,2024-06-24_13h43.08.291,LearnStrategy,2023.2.3,Win32,60.24096386,1,2,8,,,,,,,,8,03,,,,,,,,,,,8,4.488,1,,,,,,0.402777778,-0.391666695,1,0,0,4.4884,Pumice_rect,7,0,7,0,1,
663cb982130f1384c9988214,TCR,2024-06-24_13h43.08.291,LearnStrategy,2023.2.3,Win32,60.24096386,1,2,9,,,,,,,,3,06,,,,,,,,,,,3,40.293,1,,,,,,0.146296325,-0.237037023,1,0,0,40.2933,Diorite_rect,8,0,8,0,1,
663cb982130f1384c9988214,TCR,2024-06-24_13h43.08.291,LearnStrategy,2023.2.3,Win32,60.24096386,1,2,10,,,,,,,,1,05,,,,,,,,,,,1,13.668,1,,,,,,-0.369444423,-0.24537037,1,0,0,13.6682,Andesite_rect,9,0,9,0,1,
663cb982130f1384c9988214,TCR,2024-06-24_13h43.08.291,LearnStrategy,2023.2.3,Win32,60.24096386,1,2,11,,,,,,,,4,01,,,,,,,,,,,4,32.932,1,,,,,,0.345370399,-0.258333347,1,0,0,32.9317,Gabbro_rect,10,0,10,0,1,
663cb982130f1384c9988214,TCR,2024-06-24_13h43.08.291,LearnStrategy,2023.2.3,Win32,60.24096386,1,2,12,,,,,,,,7,15,,,,,,,,,,,7,1.997,1,,,,,,0.123148176,-0.388888889,1,0,0,1.9968,Peridotite_rect,11,0,11,0,1,
663cb982130f1384c9988214,TCR,2024-06-24_13h43.08.291,LearnStrategy,2023.2.3,Win32,60.24096386,1,2,13,,,,,,,,1,16,,,,,,,,,,,1,30.345,1,,,,,,-0.398148148,-0.256481524,1,0,0,30.3446,Andesite_rect,12,0,12,0,1,
663cb982130f1384c9988214,TCR,2024-06-24_13h43.08.291,LearnStrategy,2023.2.3,Win32,60.24096386,1,2,14,,,,,,,,7,16,,,,,,,,,,,7,3.847,1,,,,,,0.103703746,-0.408333319,1,0,0,3.8472,Peridotite_rect,13,0,13,0,1,
663cb982130f1384c9988214,TCR,2024-06-24_13h43.08.291,LearnStrategy,2023.2.3,Win32,60.24096386,1,2,15,,,,,,,,2,09,,,,,,,,,,,4,20.531,0,,,,,,0.400925954,-0.256481524,1,0,0,20.5308,Gabbro_rect,14,0,14,0,1,
663cb982130f1384c9988214,TCR,2024-06-24_13h43.08.291,LearnStrategy,2023.2.3,Win32,60.24096386,1,2,16,,,,,,,,5,07,,,,,,,,,,,5,20.65,1,,,,,,-0.40648146,-0.408333319,1,0,0,20.6502,Obsidian_rect,15,0,15,0,1,
663cb982130f1384c9988214,TCR,2024-06-24_13h43.08.291,LearnStrategy,2023.2.3,Win32,60.24096386,2,1,1,0.050925926,0.005555541,1,0,0,4.5623,rock_grid_rect_2,2,08,-1,-1,4.562,-0.16851849,-0.234259288,1,0,0,18.32,Basalt_rect,2,18.32,1,0,0,0,0,1,,,,,,,,,,,,,
663cb982130f1384c9988214,TCR,2024-06-24_13h43.08.291,LearnStrategy,2023.2.3,Win32,60.24096386,2,1,2,0.058333362,-0.008333347,1,0,0,1.2615,rock_grid_rect_2,1,01,-1,-1,1.261,-0.091666681,-0.268518519,1,0,0,57.802,Basalt_rect,2,57.802,0,1,0,1,0,1,,,,,,,,,,,,,
663cb982130f1384c9988214,TCR,2024-06-24_13h43.08.291,LearnStrategy,2023.2.3,Win32,60.24096386,2,1,3,0.060185185,-0.002777771,1,0,0,1.2859,rock_grid_rect_2,4,13,-1,-1,1.286,0.118518547,-0.263888889,1,0,0,11.2405,Diorite_rect,3,11.24,0,2,0,2,0,1,,,,,,,,,,,,,
663cb982130f1384c9988214,TCR,2024-06-24_13h43.08.291,LearnStrategy,2023.2.3,Win32,60.24096386,2,1,4,0.065740727,0,1,0,0,1.1575,rock_grid_rect_2,4,08,-1,-1,1.158,-0.380555541,-0.251851894,1,0,0,43.6041,Andesite_rect,1,43.604,0,3,0,3,0,1,,,,,,,,,,,,,
663cb982130f1384c9988214,TCR,2024-06-24_13h43.08.291,LearnStrategy,2023.2.3,Win32,60.24096386,2,1,5,0.128703718,-0.01203703,1,0,0,1.1994,rock_grid_rect_2,7,07,-1,-1,1.199,0.159259302,-0.410185213,1,0,0,3.1577,Peridotite_rect,7,3.158,1,4,0,4,0,1,,,,,,,,,,,,,
663cb982130f1384c9988214,TCR,2024-06-24_13h43.08.291,LearnStrategy,2023.2.3,Win32,60.24096386,2,1,6,0.07685188,-0.014814836,1,0,0,1.2589,rock_grid_rect_2,2,02,-1,-1,1.259,-0.104629587,-0.255555541,1,0,0,37.351,Basalt_rect,2,37.351,1,5,0,5,0,1,,,,,,,,,,,,,
663cb982130f1384c9988214,TCR,2024-06-24_13h43.08.291,LearnStrategy,2023.2.3,Win32,60.24096386,2,1,7,0.070370356,-0.006481489,1,0,0,4.4838,rock_grid_rect_2,2,12,-1,-1,4.484,0.462962963,-0.381481524,1,0,0,24.1701,Pumice_rect,8,24.17,0,6,0,6,0,1,,,,,,,,,,,,,
663cb982130f1384c9988214,TCR,2024-06-24_13h43.08.291,LearnStrategy,2023.2.3,Win32,60.24096386,2,1,8,0.080555598,-0.005555577,1,0,0,1.3057,rock_grid_rect_2,8,16,-1,-1,1.306,0.410185213,-0.414814843,1,0,0,13.1427,Pumice_rect,8,13.143,1,7,0,7,0,1,,,,,,,,,,,,,
663cb982130f1384c9988214,TCR,2024-06-24_13h43.08.291,LearnStrategy,2023.2.3,Win32,60.24096386,2,1,9,0.086111139,-0.010185206,1,0,0,5.8277,rock_grid_rect_2,4,13,-1,-1,5.828,0.424074102,-0.266666695,1,0,0,16.3335,Gabbro_rect,4,16.333,1,8,0,8,0,1,,,,,,,,,,,,,
663cb982130f1384c9988214,TCR,2024-06-24_13h43.08.291,LearnStrategy,2023.2.3,Win32,60.24096386,2,1,10,0.086111139,-0.003703718,1,0,0,1.3428,rock_grid_rect_2,3,13,-1,-1,1.343,0.117592635,-0.24537037,1,0,0,15.2479,Diorite_rect,3,15.248,1,9,0,9,0,1,,,,,,,,,,,,,
663cb982130f1384c9988214,TCR,2024-06-24_13h43.08.291,LearnStrategy,2023.2.3,Win32,60.24096386,2,1,11,0.087962963,-0.012962977,1,0,0,1.4615,rock_grid_rect_2,4,03,-1,-1,1.461,0.440740797,-0.259259259,1,0,0,33.5355,Gabbro_rect,4,33.535,1,10,0,10,0,1,,,,,,,,,,,,,
663cb982130f1384c9988214,TCR,2024-06-24_13h43.08.291,LearnStrategy,2023.2.3,Win32,60.24096386,2,1,12,0.062037079,-0.018518519,1,0,0,1.3154,rock_grid_rect_2,6,08,-1,-1,1.315,-0.154629601,-0.39907406,1,0,0,11.085,Pegmatite_rect,6,11.085,1,11,0,11,0,1,,,,,,,,,,,,,
663cb982130f1384c9988214,TCR,2024-06-24_13h43.08.291,LearnStrategy,2023.2.3,Win32,60.24096386,2,1,13,0.079629616,-0.021296289,1,0,0,1.2353,rock_grid_rect_2,5,09,-1,-1,1.235,-0.369444423,-0.396296325,1,0,0,11.6709,Obsidian_rect,5,11.671,1,12,0,12,0,1,,,,,,,,,,,,,
663cb982130f1384c9988214,TCR,2024-06-24_13h43.08.291,LearnStrategy,2023.2.3,Win32,60.24096386,2,1,14,0.111111111,-0.008333347,1,0,0,0.9458,rock_grid_rect_2,2,14,-1,-1,0.946,0.404629601,-0.389814801,1,0,0,32.8596,Pumice_rect,8,32.86,0,13,0,13,0,1,,,,,,,,,,,,,
663cb982130f1384c9988214,TCR,2024-06-24_13h43.08.291,LearnStrategy,2023.2.3,Win32,60.24096386,2,1,15,0.054629644,-0.006481489,1,0,0,2.3371,rock_grid_rect_2,6,09,-1,-1,2.337,0.12037037,-0.391666695,1,0,0,3.4402,Peridotite_rect,7,3.44,0,14,0,14,0,1,,,,,,,,,,,,,
663cb982130f1384c9988214,TCR,2024-06-24_13h43.08.291,LearnStrategy,2023.2.3,Win32,60.24096386,2,1,16,0.047222208,0.014814801,1,0,0,1.602,rock_grid_rect_2,6,13,-1,-1,1.602,-0.117592564,-0.397222236,1,0,0,42.9284,Pegmatite_rect,6,42.928,1,15,0,15,0,1,,,,,,,,,,,,,
663cb982130f1384c9988214,TCR,2024-06-24_13h43.08.291,LearnStrategy,2023.2.3,Win32,60.24096386,2,2,1,,,,,,,,8,13,,,,,,,,,,,8,11.531,1,,,,,,0.375925982,-0.407407407,1,0,0,11.5312,Pumice_rect,0,0,0,0,1,
663cb982130f1384c9988214,TCR,2024-06-24_13h43.08.291,LearnStrategy,2023.2.3,Win32,60.24096386,2,2,2,,,,,,,,3,11,,,,,,,,,,,3,34.302,1,,,,,,0.163888931,-0.256481524,1,0,0,34.3024,Diorite_rect,1,0,1,0,1,
663cb982130f1384c9988214,TCR,2024-06-24_13h43.08.291,LearnStrategy,2023.2.3,Win32,60.24096386,2,2,3,,,,,,,,6,11,,,,,,,,,,,6,7.237,1,,,,,,-0.104629587,-0.39444443,1,0,0,7.2371,Pegmatite_rect,2,0,2,0,1,
663cb982130f1384c9988214,TCR,2024-06-24_13h43.08.291,LearnStrategy,2023.2.3,Win32,60.24096386,2,2,4,,,,,,,,1,04,,,,,,,,,,,4,71.658,0,,,,,,0.465740769,-0.253703718,1,0,0,71.6575,Gabbro_rect,3,0,3,0,1,
663cb982130f1384c9988214,TCR,2024-06-24_13h43.08.291,LearnStrategy,2023.2.3,Win32,60.24096386,2,2,5,,,,,,,,7,05,,,,,,,,,,,7,19.45,1,,,,,,0.136111153,-0.418518561,1,0,0,19.4496,Peridotite_rect,4,0,4,0,1,
663cb982130f1384c9988214,TCR,2024-06-24_13h43.08.291,LearnStrategy,2023.2.3,Win32,60.24096386,2,2,6,,,,,,,,8,08,,,,,,,,,,,2,26.518,0,,,,,,-0.14907406,-0.248148176,1,0,0,26.5182,Basalt_rect,5,0,5,0,1,
663cb982130f1384c9988214,TCR,2024-06-24_13h43.08.291,LearnStrategy,2023.2.3,Win32,60.24096386,2,2,7,,,,,,,,6,03,,,,,,,,,,,7,5.085,0,,,,,,0.090740769,-0.39907406,1,0,0,5.0852,Peridotite_rect,6,0,6,0,1,
663cb982130f1384c9988214,TCR,2024-06-24_13h43.08.291,LearnStrategy,2023.2.3,Win32,60.24096386,2,2,8,,,,,,,,4,05,,,,,,,,,,,7,31.513,0,,,,,,0.145370413,-0.390740783,1,0,0,31.513,Peridotite_rect,7,0,7,0,1,
663cb982130f1384c9988214,TCR,2024-06-24_13h43.08.291,LearnStrategy,2023.2.3,Win32,60.24096386,2,2,9,,,,,,,,3,07,,,,,,,,,,,3,41.008,1,,,,,,0.130555541,-0.243518547,1,0,0,41.0081,Diorite_rect,8,0,8,0,1,
663cb982130f1384c9988214,TCR,2024-06-24_13h43.08.291,LearnStrategy,2023.2.3,Win32,60.24096386,2,2,10,,,,,,,,2,11,,,,,,,,,,,2,48.922,1,,,,,,-0.056481467,-0.249074088,1,0,0,48.9222,Basalt_rect,9,0,9,0,1,
663cb982130f1384c9988214,TCR,2024-06-24_13h43.08.291,LearnStrategy,2023.2.3,Win32,60.24096386,2,2,11,,,,,,,,7,08,,,,,,,,,,,7,4.3,1,,,,,,0.080555598,-0.392592607,1,0,0,4.3004,Peridotite_rect,10,0,10,0,1,
663cb982130f1384c9988214,TCR,2024-06-24_13h43.08.291,LearnStrategy,2023.2.3,Win32,60.24096386,2,2,12,,,,,,,,4,12,,,,,,,,,,,4,9.556,1,,,,,,0.458333333,-0.270370413,1,0,0,9.5563,Gabbro_rect,11,0,11,0,1,
663cb982130f1384c9988214,TCR,2024-06-24_13h43.08.291,LearnStrategy,2023.2.3,Win32,60.24096386,2,2,13,,,,,,,,5,12,,,,,,,,,,,5,1.819,1,,,,,,-0.355555534,-0.380555541,1,0,0,1.8189,Obsidian_rect,12,0,12,0,1,
663cb982130f1384c9988214,TCR,2024-06-24_13h43.08.291,LearnStrategy,2023.2.3,Win32,60.24096386,2,2,14,,,,,,,,5,05,,,,,,,,,,,5,4.994,1,,,,,,-0.353703711,-0.390740783,1,0,0,4.9944,Obsidian_rect,13,0,13,0,1,
663cb982130f1384c9988214,TCR,2024-06-24_13h43.08.291,LearnStrategy,2023.2.3,Win32,60.24096386,2,2,15,,,,,,,,1,10,,,,,,,,,,,4,25.077,0,,,,,,0.359259288,-0.257407436,1,0,0,25.077,Gabbro_rect,14,0,14,0,1,
663cb982130f1384c9988214,TCR,2024-06-24_13h43.08.291,LearnStrategy,2023.2.3,Win32,60.24096386,2,2,16,,,,,,,,2,04,,,,,,,,,,,2,24.173,1,,,,,,-0.169444402,-0.260185171,1,0,0,24.1727,Basalt_rect,15,0,15,0,1,
663cb982130f1384c9988214,TCR,2024-06-24_13h43.08.291,LearnStrategy,2023.2.3,Win32,60.24096386,3,1,1,-0.056481467,-0.020370377,1,0,0,4.1284,rock_grid_rect_2,2,02,-1,-1,4.128,-0.16851849,-0.252777806,1,0,0,16.6014,Basalt_rect,2,16.601,1,0,0,0,0,1,,,,,,,,,,,,,
663cb982130f1384c9988214,TCR,2024-06-24_13h43.08.291,LearnStrategy,2023.2.3,Win32,60.24096386,3,1,2,0.087037051,-0.000925947,1,0,0,1.1138,rock_grid_rect_2,4,09,-1,-1,1.114,-0.418518526,-0.260185171,1,0,0,28.7453,Andesite_rect,1,28.745,0,1,0,1,0,1,,,,,,,,,,,,,
663cb982130f1384c9988214,TCR,2024-06-24_13h43.08.291,LearnStrategy,2023.2.3,Win32,60.24096386,3,1,3,0.087037051,-0.023148148,1,0,0,1.6987,rock_grid_rect_2,4,13,-1,-1,1.699,0.395370342,-0.257407436,1,0,0,18.0801,Gabbro_rect,4,18.08,1,2,0,2,0,1,,,,,,,,,,,,,
663cb982130f1384c9988214,TCR,2024-06-24_13h43.08.291,LearnStrategy,2023.2.3,Win32,60.24096386,3,1,4,0.043518561,-0.003703718,1,0,0,0.9289,rock_grid_rect_2,5,09,-1,-1,0.929,-0.327777757,-0.402777778,1,0,0,9.7498,Obsidian_rect,5,9.75,1,3,0,3,0,1,,,,,,,,,,,,,
663cb982130f1384c9988214,TCR,2024-06-24_13h43.08.291,LearnStrategy,2023.2.3,Win32,60.24096386,3,1,5,0.071296339,0.006481489,1,0,0,1.2602,rock_grid_rect_2,7,02,-1,-1,1.26,0.123148176,-0.386111153,1,0,0,2.0345,Peridotite_rect,7,2.034,1,4,0,4,0,1,,,,,,,,,,,,,
663cb982130f1384c9988214,TCR,2024-06-24_13h43.08.291,LearnStrategy,2023.2.3,Win32,60.24096386,3,1,6,0.098148134,-0.006481489,1,0,0,1.8961,rock_grid_rect_2,1,09,-1,-1,1.896,-0.388888889,-0.241666653,1,0,0,24.177,Andesite_rect,1,24.177,1,5,0,5,0,1,,,,,,,,,,,,,
663cb982130f1384c9988214,TCR,2024-06-24_13h43.08.291,LearnStrategy,2023.2.3,Win32,60.24096386,3,1,7,0.065740727,-0.002777771,1,0,0,0.9367,rock_grid_rect_2,6,15,-1,-1,0.937,-0.104629587,-0.387037065,1,0,0,3.7459,Pegmatite_rect,6,3.746,1,6,0,6,0,1,,,,,,,,,,,,,
663cb982130f1384c9988214,TCR,2024-06-24_13h43.08.291,LearnStrategy,2023.2.3,Win32,60.24096386,3,1,8,0.039814843,-0.003703718,1,0,0,0.9843,rock_grid_rect_2,1,09,-1,-1,0.984,-0.371296282,-0.234259288,1,0,0,6.9529,Andesite_rect,1,6.953,1,7,0,7,0,1,,,,,,,,,,,,,
663cb982130f1384c9988214,TCR,2024-06-24_13h43.08.291,LearnStrategy,2023.2.3,Win32,60.24096386,3,1,9,0.102777764,-0.023148148,1,0,0,1.0792,rock_grid_rect_2,8,16,-1,-1,1.079,0.399074131,-0.400000042,1,0,0,7.9973,Pumice_rect,8,7.997,1,8,0,8,0,1,,,,,,,,,,,,,
663cb982130f1384c9988214,TCR,2024-06-24_13h43.08.291,LearnStrategy,2023.2.3,Win32,60.24096386,3,1,10,0.084259245,-0.002777771,1,0,0,1.1863,rock_grid_rect_2,6,05,-1,-1,1.186,-0.066666638,-0.411111125,1,0,0,10.2205,Pegmatite_rect,6,10.221,1,9,0,9,0,1,,,,,,,,,,,,,
663cb982130f1384c9988214,TCR,2024-06-24_13h43.08.291,LearnStrategy,2023.2.3,Win32,60.24096386,3,1,11,0.066666709,-0.011111118,1,0,0,1.077,rock_grid_rect_2,8,15,-1,-1,1.077,0.383333418,-0.393518519,1,0,0,4.3708,Pumice_rect,8,4.371,1,10,0,10,0,1,,,,,,,,,,,,,
663cb982130f1384c9988214,TCR,2024-06-24_13h43.08.291,LearnStrategy,2023.2.3,Win32,60.24096386,3,1,12,0.051851838,-0.01666666,1,0,0,0.9125,rock_grid_rect_2,4,09,-1,-1,0.912,0.422222279,-0.247222265,1,0,0,16.4732,Gabbro_rect,4,16.473,1,11,0,11,0,1,,,,,,,,,,,,,
663cb982130f1384c9988214,TCR,2024-06-24_13h43.08.291,LearnStrategy,2023.2.3,Win32,60.24096386,3,1,13,0.016666695,-0.002777771,1,0,0,1.8289,rock_grid_rect_2,3,10,-1,-1,1.829,0.122222265,-0.389814801,1,0,0,7.4855,Peridotite_rect,7,7.486,0,12,0,12,0,1,,,,,,,,,,,,,
663cb982130f1384c9988214,TCR,2024-06-24_13h43.08.291,LearnStrategy,2023.2.3,Win32,60.24096386,3,1,14,0.060185185,0.005555541,1,0,0,4.5619,rock_grid_rect_2,6,05,-1,-1,4.562,-0.103703675,-0.385185171,1,0,0,34.0718,Pegmatite_rect,6,34.072,1,13,0,13,0,1,,,,,,,,,,,,,
663cb982130f1384c9988214,TCR,2024-06-24_13h43.08.291,LearnStrategy,2023.2.3,Win32,60.24096386,3,1,15,0.088888875,-0.005555577,1,0,0,1.1575,rock_grid_rect_2,1,11,-1,-1,1.157,-0.420370349,-0.258333347,1,0,0,11.6036,Andesite_rect,1,11.604,1,14,0,14,0,1,,,,,,,,,,,,,
663cb982130f1384c9988214,TCR,2024-06-24_13h43.08.291,LearnStrategy,2023.2.3,Win32,60.24096386,3,1,16,0.087037051,-0.009259259,1,0,0,1.0989,rock_grid_rect_2,2,12,-1,-1,1.099,-0.121296282,-0.270370413,1,0,0,5.3633,Basalt_rect,2,5.363,1,15,0,15,0,1,,,,,,,,,,,,,
663cb982130f1384c9988214,TCR,2024-06-24_13h43.08.291,LearnStrategy,2023.2.3,Win32,60.24096386,3,2,1,,,,,,,,3,16,,,,,,,,,,,1,11.465,0,,,,,,-0.430555556,-0.240740741,1,0,0,11.4647,Andesite_rect,0,0,0,0,1,
663cb982130f1384c9988214,TCR,2024-06-24_13h43.08.291,LearnStrategy,2023.2.3,Win32,60.24096386,3,2,2,,,,,,,,1,14,,,,,,,,,,,4,37.171,0,,,,,,0.419444473,-0.25,1,0,0,37.1713,Gabbro_rect,1,0,1,0,1,
663cb982130f1384c9988214,TCR,2024-06-24_13h43.08.291,LearnStrategy,2023.2.3,Win32,60.24096386,3,2,3,,,,,,,,4,16,,,,,,,,,,,2,8.418,0,,,,,,-0.14907406,-0.255555541,1,0,0,8.418,Basalt_rect,2,0,2,0,1,
663cb982130f1384c9988214,TCR,2024-06-24_13h43.08.291,LearnStrategy,2023.2.3,Win32,60.24096386,3,2,4,,,,,,,,4,10,,,,,,,,,,,4,11.99,1,,,,,,0.455555527,-0.24537037,1,0,0,11.9897,Gabbro_rect,3,0,3,0,1,
663cb982130f1384c9988214,TCR,2024-06-24_13h43.08.291,LearnStrategy,2023.2.3,Win32,60.24096386,3,2,5,,,,,,,,2,06,,,,,,,,,,,2,9.755,1,,,,,,-0.078703704,-0.255555541,1,0,0,9.7552,Basalt_rect,4,0,4,0,1,
663cb982130f1384c9988214,TCR,2024-06-24_13h43.08.291,LearnStrategy,2023.2.3,Win32,60.24096386,3,2,6,,,,,,,,5,04,,,,,,,,,,,5,1.383,1,,,,,,-0.351851852,-0.408333319,1,0,0,1.3825,Obsidian_rect,5,0,5,0,1,
663cb982130f1384c9988214,TCR,2024-06-24_13h43.08.291,LearnStrategy,2023.2.3,Win32,60.24096386,3,2,7,,,,,,,,1,06,,,,,,,,,,,1,10.164,1,,,,,,-0.402777778,-0.262037065,1,0,0,10.1642,Andesite_rect,6,0,6,0,1,
663cb982130f1384c9988214,TCR,2024-06-24_13h43.08.291,LearnStrategy,2023.2.3,Win32,60.24096386,3,2,8,,,,,,,,7,04,,,,,,,,,,,7,26.791,1,,,,,,0.170370384,-0.412037037,1,0,0,26.7905,Peridotite_rect,7,0,7,0,1,
663cb982130f1384c9988214,TCR,2024-06-24_13h43.08.291,LearnStrategy,2023.2.3,Win32,60.24096386,3,2,9,,,,,,,,8,02,,,,,,,,,,,8,12.055,1,,,,,,0.376851824,-0.386111153,1,0,0,12.0554,Pumice_rect,8,0,8,0,1,
663cb982130f1384c9988214,TCR,2024-06-24_13h43.08.291,LearnStrategy,2023.2.3,Win32,60.24096386,3,2,10,,,,,,,,6,06,,,,,,,,,,,6,58.612,1,,,,,,-0.05277775,-0.400000042,1,0,0,58.6122,Pegmatite_rect,9,0,9,0,1,
663cb982130f1384c9988214,TCR,2024-06-24_13h43.08.291,LearnStrategy,2023.2.3,Win32,60.24096386,3,2,11,,,,,,,,7,13,,,,,,,,,,,7,17.035,1,,,,,,0.108333376,-0.39444443,1,0,0,17.0353,Peridotite_rect,10,0,10,0,1,
663cb982130f1384c9988214,TCR,2024-06-24_13h43.08.291,LearnStrategy,2023.2.3,Win32,60.24096386,3,2,12,,,,,,,,2,16,,,,,,,,,,,2,5.352,1,,,,,,-0.121296282,-0.249074088,1,0,0,5.3516,Basalt_rect,11,0,11,0,1,
663cb982130f1384c9988214,TCR,2024-06-24_13h43.08.291,LearnStrategy,2023.2.3,Win32,60.24096386,3,2,13,,,,,,,,8,14,,,,,,,,,,,8,10.919,1,,,,,,0.380555612,-0.393518519,1,0,0,10.9191,Pumice_rect,12,0,12,0,1,
663cb982130f1384c9988214,TCR,2024-06-24_13h43.08.291,LearnStrategy,2023.2.3,Win32,60.24096386,3,2,14,,,,,,,,5,02,,,,,,,,,,,5,2.081,1,,,,,,-0.365740741,-0.409259302,1,0,0,2.0806,Obsidian_rect,13,0,13,0,1,
663cb982130f1384c9988214,TCR,2024-06-24_13h43.08.291,LearnStrategy,2023.2.3,Win32,60.24096386,3,2,15,,,,,,,,3,09,,,,,,,,,,,6,36.026,0,,,,,,-0.206481439,-0.397222236,1,0,0,36.0262,Pegmatite_rect,14,0,14,0,1,
663cb982130f1384c9988214,TCR,2024-06-24_13h43.08.291,LearnStrategy,2023.2.3,Win32,60.24096386,3,2,16,,,,,,,,6,16,,,,,,,,,,,6,4.125,1,,,,,,-0.206481439,-0.397222236,1,0,0,4.1254,Pegmatite_rect,15,0,15,0,1,
663cb982130f1384c9988214,TCR,2024-06-24_13h43.08.291,LearnStrategy,2023.2.3,Win32,60.24096386,4,1,1,0.069444444,0,1,0,0,2.6659,rock_grid_rect_2,1,01,-1,-1,2.666,-0.3824074,-0.237037023,1,0,0,23.6612,Andesite_rect,1,23.661,1,0,0,0,0,1,,,,,,,,,,,,,
663cb982130f1384c9988214,TCR,2024-06-24_13h43.08.291,LearnStrategy,2023.2.3,Win32,60.24096386,4,1,2,0.089814857,-0.0074074,1,0,0,1.4616,rock_grid_rect_2,4,13,-1,-1,1.462,0.421296296,-0.240740741,1,0,0,4.5568,Gabbro_rect,4,4.557,1,1,0,1,0,1,,,,,,,,,,,,,
663cb982130f1384c9988214,TCR,2024-06-24_13h43.08.291,LearnStrategy,2023.2.3,Win32,60.24096386,4,1,3,0.101851852,-0.01203703,1,0,0,1.4008,rock_grid_rect_2,1,11,-1,-1,1.401,-0.440740727,-0.250925912,1,0,0,23.1687,Andesite_rect,1,23.169,1,2,0,2,0,1,,,,,,,,,,,,,
663cb982130f1384c9988214,TCR,2024-06-24_13h43.08.291,LearnStrategy,2023.2.3,Win32,60.24096386,4,1,4,0.099074116,0.005555541,1,0,0,1.2958,rock_grid_rect_2,8,09,-1,-1,1.296,0.384259259,-0.402777778,1,0,0,11.5682,Pumice_rect,8,11.568,1,3,0,3,0,1,,,,,,,,,,,,,
663cb982130f1384c9988214,TCR,2024-06-24_13h43.08.291,LearnStrategy,2023.2.3,Win32,60.24096386,4,1,5,0.118518547,-0.008333347,1,0,0,0.9872,rock_grid_rect_2,7,02,-1,-1,0.987,0.100000028,-0.408333319,1,0,0,4.826,Peridotite_rect,7,4.826,1,4,0,4,0,1,,,,,,,,,,,,,
663cb982130f1384c9988214,TCR,2024-06-24_13h43.08.291,LearnStrategy,2023.2.3,Win32,60.24096386,4,1,6,0.10092594,-0.0074074,1,0,0,0.896,rock_grid_rect_2,1,02,-1,-1,0.896,0.124074088,-0.253703718,1,0,0,23.9983,Diorite_rect,3,23.998,0,5,0,5,0,1,,,,,,,,,,,,,
663cb982130f1384c9988214,TCR,2024-06-24_13h43.08.291,LearnStrategy,2023.2.3,Win32,60.24096386,4,1,7,0.150000042,-0.008333347,1,0,0,0.9413,rock_grid_rect_2,6,15,-1,-1,0.941,-0.095370328,-0.39907406,1,0,0,2.6546,Pegmatite_rect,6,2.655,1,6,0,6,0,1,,,,,,,,,,,,,
663cb982130f1384c9988214,TCR,2024-06-24_13h43.08.291,LearnStrategy,2023.2.3,Win32,60.24096386,4,1,8,0.033333319,-0.020370377,1,0,0,0.9673,rock_grid_rect_2,4,13,-1,-1,0.967,0.394444501,-0.250925912,1,0,0,6.6061,Gabbro_rect,4,6.606,1,7,0,7,0,1,,,,,,,,,,,,,
663cb982130f1384c9988214,TCR,2024-06-24_13h43.08.291,LearnStrategy,2023.2.3,Win32,60.24096386,4,1,9,0.075925968,0.005555541,1,0,0,1.0298,rock_grid_rect_2,4,15,-1,-1,1.03,0.108333376,-0.240740741,1,0,0,40.5969,Diorite_rect,3,40.597,0,8,0,8,0,1,,,,,,,,,,,,,
663cb982130f1384c9988214,TCR,2024-06-24_13h43.08.291,LearnStrategy,2023.2.3,Win32,60.24096386,4,1,10,0.044444473,-0.001851859,1,0,0,0.8989,rock_grid_rect_2,5,09,-1,-1,0.899,-0.366666653,-0.400925954,1,0,0,1.9077,Obsidian_rect,5,1.908,1,9,0,9,0,1,,,,,,,,,,,,,
663cb982130f1384c9988214,TCR,2024-06-24_13h43.08.291,LearnStrategy,2023.2.3,Win32,60.24096386,4,1,11,0.07685188,-0.002777771,1,0,0,0.9455,rock_grid_rect_2,3,10,-1,-1,0.946,0.115740741,-0.234259288,1,0,0,9.2099,Diorite_rect,3,9.21,1,10,0,10,0,1,,,,,,,,,,,,,
663cb982130f1384c9988214,TCR,2024-06-24_13h43.08.291,LearnStrategy,2023.2.3,Win32,60.24096386,4,1,12,0.094444487,-0.01203703,1,0,0,1.0294,rock_grid_rect_2,3,02,-1,-1,1.029,0.127777806,-0.413888931,1,0,0,23.7261,Peridotite_rect,7,23.726,0,11,0,11,0,1,,,,,,,,,,,,,
663cb982130f1384c9988214,TCR,2024-06-24_13h43.08.291,LearnStrategy,2023.2.3,Win32,60.24096386,4,1,13,0.059259273,-0.006481489,1,0,0,1.1043,rock_grid_rect_2,2,12,-1,-1,1.104,-0.136111083,-0.256481524,1,0,0,37.0188,Basalt_rect,2,37.019,1,12,0,12,0,1,,,,,,,,,,,,,
663cb982130f1384c9988214,TCR,2024-06-24_13h43.08.291,LearnStrategy,2023.2.3,Win32,60.24096386,4,1,14,0.069444444,-0.003703718,1,0,0,2.6787,rock_grid_rect_2,3,13,-1,-1,2.679,0.109259288,-0.246296282,1,0,0,25.0386,Diorite_rect,3,25.039,1,13,0,13,0,1,,,,,,,,,,,,,
663cb982130f1384c9988214,TCR,2024-06-24_13h43.08.291,LearnStrategy,2023.2.3,Win32,60.24096386,4,1,15,0.056481467,-0.011111118,1,0,0,1.5114,rock_grid_rect_2,6,08,-1,-1,1.511,-0.123148106,-0.410185213,1,0,0,6.6058,Pegmatite_rect,6,6.606,1,14,0,14,0,1,,,,,,,,,,,,,
663cb982130f1384c9988214,TCR,2024-06-24_13h43.08.291,LearnStrategy,2023.2.3,Win32,60.24096386,4,1,16,0.087037051,-0.022222236,1,0,0,1.0815,rock_grid_rect_2,1,01,-1,-1,1.081,-0.392592571,-0.248148176,1,0,0,6.816,Andesite_rect,1,6.816,1,15,0,15,0,1,,,,,,,,,,,,,
663cb982130f1384c9988214,TCR,2024-06-24_13h43.08.291,LearnStrategy,2023.2.3,Win32,60.24096386,4,2,1,,,,,,,,5,04,,,,,,,,,,,5,1.594,1,,,,,,-0.38703703,-0.409259302,1,0,0,1.5945,Obsidian_rect,0,0,0,0,1,
663cb982130f1384c9988214,TCR,2024-06-24_13h43.08.291,LearnStrategy,2023.2.3,Win32,60.24096386,4,2,2,,,,,,,,2,01,,,,,,,,,,,2,19.726,1,,,,,,-0.145370342,-0.244444459,1,0,0,19.7256,Basalt_rect,1,0,1,0,1,
663cb982130f1384c9988214,TCR,2024-06-24_13h43.08.291,LearnStrategy,2023.2.3,Win32,60.24096386,4,2,3,,,,,,,,6,06,,,,,,,,,,,6,52.385,1,,,,,,-0.104629587,-0.411111125,1,0,0,52.3851,Pegmatite_rect,2,0,2,0,1,
663cb982130f1384c9988214,TCR,2024-06-24_13h43.08.291,LearnStrategy,2023.2.3,Win32,60.24096386,4,2,4,,,,,,,,7,08,,,,,,,,,,,7,22.112,1,,,,,,0.088888875,-0.397222236,1,0,0,22.1117,Peridotite_rect,3,0,3,0,1,
663cb982130f1384c9988214,TCR,2024-06-24_13h43.08.291,LearnStrategy,2023.2.3,Win32,60.24096386,4,2,5,,,,,,,,4,16,,,,,,,,,,,2,7.846,0,,,,,,-0.175000014,-0.25,1,0,0,7.8464,Basalt_rect,4,0,4,0,1,
663cb982130f1384c9988214,TCR,2024-06-24_13h43.08.291,LearnStrategy,2023.2.3,Win32,60.24096386,4,2,6,,,,,,,,1,05,,,,,,,,,,,7,55.136,0,,,,,,0.106481481,-0.407407407,1,0,0,55.1355,Peridotite_rect,5,0,5,0,1,
663cb982130f1384c9988214,TCR,2024-06-24_13h43.08.291,LearnStrategy,2023.2.3,Win32,60.24096386,4,2,7,,,,,,,,3,12,,,,,,,,,,,3,24.2,1,,,,,,0.092592593,-0.262037065,1,0,0,24.2003,Diorite_rect,6,0,6,0,1,
663cb982130f1384c9988214,TCR,2024-06-24_13h43.08.291,LearnStrategy,2023.2.3,Win32,60.24096386,4,2,8,,,,,,,,1,10,,,,,,,,,,,4,25.217,0,,,,,,0.387963048,-0.250925912,1,0,0,25.2167,Gabbro_rect,7,0,7,0,1,
663cb982130f1384c9988214,TCR,2024-06-24_13h43.08.291,LearnStrategy,2023.2.3,Win32,60.24096386,4,2,9,,,,,,,,2,09,,,,,,,,,,,2,31.664,1,,,,,,-0.155555513,-0.253703718,1,0,0,31.6641,Basalt_rect,8,0,8,0,1,
663cb982130f1384c9988214,TCR,2024-06-24_13h43.08.291,LearnStrategy,2023.2.3,Win32,60.24096386,4,2,10,,,,,,,,5,12,,,,,,,,,,,5,1.575,1,,,,,,-0.361111111,-0.400925954,1,0,0,1.5755,Obsidian_rect,9,0,9,0,1,
663cb982130f1384c9988214,TCR,2024-06-24_13h43.08.291,LearnStrategy,2023.2.3,Win32,60.24096386,4,2,11,,,,,,,,6,12,,,,,,,,,,,6,19.237,1,,,,,,-0.12037037,-0.390740783,1,0,0,19.2368,Pegmatite_rect,10,0,10,0,1,
663cb982130f1384c9988214,TCR,2024-06-24_13h43.08.291,LearnStrategy,2023.2.3,Win32,60.24096386,4,2,12,,,,,,,,8,08,,,,,,,,,,,2,59.927,0,,,,,,-0.108333305,-0.24537037,1,0,0,59.9268,Basalt_rect,11,0,11,0,1,
663cb982130f1384c9988214,TCR,2024-06-24_13h43.08.291,LearnStrategy,2023.2.3,Win32,60.24096386,4,2,13,,,,,,,,8,14,,,,,,,,,,,8,9.884,1,,,,,,0.375925982,-0.416666667,1,0,0,9.8838,Pumice_rect,12,0,12,0,1,
663cb982130f1384c9988214,TCR,2024-06-24_13h43.08.291,LearnStrategy,2023.2.3,Win32,60.24096386,4,2,14,,,,,,,,7,16,,,,,,,,,,,7,5.108,1,,,,,,0.123148176,-0.420370384,1,0,0,5.108,Peridotite_rect,13,0,13,0,1,
663cb982130f1384c9988214,TCR,2024-06-24_13h43.08.291,LearnStrategy,2023.2.3,Win32,60.24096386,4,2,15,,,,,,,,4,05,,,,,,,,,,,7,10.755,0,,,,,,0.192592621,-0.410185213,1,0,0,10.7549,Peridotite_rect,14,0,14,0,1,
663cb982130f1384c9988214,TCR,2024-06-24_13h43.08.291,LearnStrategy,2023.2.3,Win32,60.24096386,4,2,16,,,,,,,,3,16,,,,,,,,,,,3,36.605,1,,,,,,0.106481481,-0.237963005,1,0,0,36.6049,Diorite_rect,15,0,15,0,1,
663cb982130f1384c9988214,TCR,2024-06-24_13h43.08.291,LearnStrategy,2023.2.3,Win32,60.24096386,5,1,1,-0.002777735,0.012962942,1,0,0,2.4677,rock_grid_rect_2,5,09,-1,-1,2.468,-0.380555541,-0.400925954,1,0,0,1.7891,Obsidian_rect,5,1.789,1,0,0,0,0,1,,,,,,,,,,,,,
663cb982130f1384c9988214,TCR,2024-06-24_13h43.08.291,LearnStrategy,2023.2.3,Win32,60.24096386,5,1,2,0.060185185,-0.023148148,1,0,0,0.9968,rock_grid_rect_2,3,15,-1,-1,0.997,0.416666667,-0.240740741,1,0,0,7.1293,Gabbro_rect,4,7.129,0,1,0,1,0,1,,,,,,,,,,,,,
663cb982130f1384c9988214,TCR,2024-06-24_13h43.08.291,LearnStrategy,2023.2.3,Win32,60.24096386,5,1,3,0.087037051,-0.002777771,1,0,0,0.8532,rock_grid_rect_2,1,07,-1,-1,0.853,0.119444459,-0.263888889,1,0,0,22.5827,Diorite_rect,3,22.583,0,2,0,2,0,1,,,,,,,,,,,,,
663cb982130f1384c9988214,TCR,2024-06-24_13h43.08.291,LearnStrategy,2023.2.3,Win32,60.24096386,5,1,4,0.025925954,0.012962942,1,0,0,3.7005,rock_grid_rect_2,4,11,-1,-1,3.7,-0.112962935,-0.249074088,1,0,0,11.1069,Basalt_rect,2,11.107,0,3,0,3,0,1,,,,,,,,,,,,,
663cb982130f1384c9988214,TCR,2024-06-24_13h43.08.291,LearnStrategy,2023.2.3,Win32,60.24096386,5,1,5,0.08148151,0.009259259,1,0,0,0.8357,rock_grid_rect_2,4,08,-1,-1,0.836,0.375925982,-0.238888917,1,0,0,18.1098,Gabbro_rect,4,18.11,1,4,0,4,0,1,,,,,,,,,,,,,
663cb982130f1384c9988214,TCR,2024-06-24_13h43.08.291,LearnStrategy,2023.2.3,Win32,60.24096386,5,1,6,0.08148151,-0.018518519,1,0,0,0.8962,rock_grid_rect_2,8,10,-1,-1,0.896,0.420370455,-0.411111125,1,0,0,9.834,Pumice_rect,8,9.834,1,5,0,5,0,1,,,,,,,,,,,,,
663cb982130f1384c9988214,TCR,2024-06-24_13h43.08.291,LearnStrategy,2023.2.3,Win32,60.24096386,5,1,7,0.100000028,-0.006481489,1,0,0,1.2413,rock_grid_rect_2,1,02,-1,-1,1.241,-0.407407407,-0.242592635,1,0,0,25.0553,Andesite_rect,1,25.055,1,6,0,6,0,1,,,,,,,,,,,,,
663cb982130f1384c9988214,TCR,2024-06-24_13h43.08.291,LearnStrategy,2023.2.3,Win32,60.24096386,5,1,8,0.050925926,-0.019444466,1,0,0,1.1365,rock_grid_rect_2,8,06,-1,-1,1.137,0.415740826,-0.405555584,1,0,0,3.0294,Pumice_rect,8,3.029,1,7,0,7,0,1,,,,,,,,,,,,,
663cb982130f1384c9988214,TCR,2024-06-24_13h43.08.291,LearnStrategy,2023.2.3,Win32,60.24096386,5,1,9,0.031481496,-0.023148148,1,0,0,1.1021,rock_grid_rect_2,6,15,-1,-1,1.102,-0.19722218,-0.406481496,1,0,0,1.435,Pegmatite_rect,6,1.435,1,8,0,8,0,1,,,,,,,,,,,,,
663cb982130f1384c9988214,TCR,2024-06-24_13h43.08.291,LearnStrategy,2023.2.3,Win32,60.24096386,5,1,10,0.066666709,0.0074074,1,0,0,1.1336,rock_grid_rect_2,4,08,-1,-1,1.134,0.42777775,-0.243518547,1,0,0,7.596,Gabbro_rect,4,7.596,1,9,0,9,0,1,,,,,,,,,,,,,
663cb982130f1384c9988214,TCR,2024-06-24_13h43.08.291,LearnStrategy,2023.2.3,Win32,60.24096386,5,1,11,0.059259273,-0.003703718,1,0,0,0.9299,rock_grid_rect_2,1,11,-1,-1,0.93,-0.381481489,-0.253703718,1,0,0,10.2567,Andesite_rect,1,10.257,1,10,0,10,0,1,,,,,,,,,,,,,
663cb982130f1384c9988214,TCR,2024-06-24_13h43.08.291,LearnStrategy,2023.2.3,Win32,60.24096386,5,1,12,0.085185228,-0.010185206,1,0,0,1.0189,rock_grid_rect_2,4,03,-1,-1,1.019,0.404629601,-0.234259288,1,0,0,8.0622,Gabbro_rect,4,8.062,1,11,0,11,0,1,,,,,,,,,,,,,
663cb982130f1384c9988214,TCR,2024-06-24_13h43.08.291,LearnStrategy,2023.2.3,Win32,60.24096386,5,1,13,0.048148191,-0.003703718,1,0,0,1.0313,rock_grid_rect_2,1,09,-1,-1,1.031,-0.10092594,-0.248148176,1,0,0,5.6511,Basalt_rect,2,5.651,0,12,0,12,0,1,,,,,,,,,,,,,
663cb982130f1384c9988214,TCR,2024-06-24_13h43.08.291,LearnStrategy,2023.2.3,Win32,60.24096386,5,1,14,0.12962963,0.00462963,1,0,0,1.129,rock_grid_rect_2,3,14,-1,-1,1.129,-0.417592578,-0.256481524,1,0,0,28.9505,Andesite_rect,1,28.951,0,13,0,13,0,1,,,,,,,,,,,,,
663cb982130f1384c9988214,TCR,2024-06-24_13h43.08.291,LearnStrategy,2023.2.3,Win32,60.24096386,5,1,15,0.058333362,-0.01666666,1,0,0,0.8331,rock_grid_rect_2,7,12,-1,-1,0.833,0.112963005,-0.40370369,1,0,0,1.966,Peridotite_rect,7,1.966,1,14,0,14,0,1,,,,,,,,,,,,,
663cb982130f1384c9988214,TCR,2024-06-24_13h43.08.291,LearnStrategy,2023.2.3,Win32,60.24096386,5,1,16,0.012962977,-0.010185206,1,0,0,1.2453,rock_grid_rect_2,2,12,-1,-1,1.245,-0.134259259,-0.240740741,1,0,0,20.351,Basalt_rect,2,20.351,1,15,0,15,0,1,,,,,,,,,,,,,
663cb982130f1384c9988214,TCR,2024-06-24_13h43.08.291,LearnStrategy,2023.2.3,Win32,60.24096386,5,2,1,,,,,,,,3,11,,,,,,,,,,,3,26.74,1,,,,,,0.14907406,-0.249074088,1,0,0,26.7397,Diorite_rect,0,0,0,0,1,
663cb982130f1384c9988214,TCR,2024-06-24_13h43.08.291,LearnStrategy,2023.2.3,Win32,60.24096386,5,2,2,,,,,,,,1,14,,,,,,,,,,,1,66.06,1,,,,,,-0.349999993,-0.260185171,1,0,0,66.06,Andesite_rect,1,0,1,0,1,
663cb982130f1384c9988214,TCR,2024-06-24_13h43.08.291,LearnStrategy,2023.2.3,Win32,60.24096386,5,2,3,,,,,,,,8,04,,,,,,,,,,,8,1.71,1,,,,,,0.41851849,-0.411111125,1,0,0,1.7103,Pumice_rect,2,0,2,0,1,
663cb982130f1384c9988214,TCR,2024-06-24_13h43.08.291,LearnStrategy,2023.2.3,Win32,60.24096386,5,2,4,,,,,,,,4,10,,,,,,,,,,,4,20.336,1,,,,,,0.413888861,-0.260185171,1,0,0,20.3363,Gabbro_rect,3,0,3,0,1,
663cb982130f1384c9988214,TCR,2024-06-24_13h43.08.291,LearnStrategy,2023.2.3,Win32,60.24096386,5,2,5,,,,,,,,5,10,,,,,,,,,,,5,1.51,1,,,,,,-0.444444444,-0.396296325,1,0,0,1.5102,Obsidian_rect,4,0,4,0,1,
663cb982130f1384c9988214,TCR,2024-06-24_13h43.08.291,LearnStrategy,2023.2.3,Win32,60.24096386,5,2,6,,,,,,,,4,01,,,,,,,,,,,3,26.684,0,,,,,,0.122222265,-0.262037065,1,0,0,26.6837,Diorite_rect,5,0,5,0,1,
663cb982130f1384c9988214,TCR,2024-06-24_13h43.08.291,LearnStrategy,2023.2.3,Win32,60.24096386,5,2,7,,,,,,,,7,05,,,,,,,,,,,7,14.207,1,,,,,,0.093518504,-0.398148148,1,0,0,14.2065,Peridotite_rect,6,0,6,0,1,
663cb982130f1384c9988214,TCR,2024-06-24_13h43.08.291,LearnStrategy,2023.2.3,Win32,60.24096386,5,2,8,,,,,,,,2,04,,,,,,,,,,,2,6.001,1,,,,,,-0.119444459,-0.258333347,1,0,0,6.0008,Basalt_rect,7,0,7,0,1,
663cb982130f1384c9988214,TCR,2024-06-24_13h43.08.291,LearnStrategy,2023.2.3,Win32,60.24096386,5,2,9,,,,,,,,3,09,,,,,,,,,,,3,23.625,1,,,,,,0.152777778,-0.250925912,1,0,0,23.6251,Diorite_rect,8,0,8,0,1,
663cb982130f1384c9988214,TCR,2024-06-24_13h43.08.291,LearnStrategy,2023.2.3,Win32,60.24096386,5,2,10,,,,,,,,6,16,,,,,,,,,,,3,22.108,0,,,,,,0.152777778,-0.250925912,1,0,0,22.1081,Diorite_rect,9,0,9,0,1,
663cb982130f1384c9988214,TCR,2024-06-24_13h43.08.291,LearnStrategy,2023.2.3,Win32,60.24096386,5,2,11,,,,,,,,8,13,,,,,,,,,,,8,6.419,1,,,,,,0.354629658,-0.408333319,1,0,0,6.4194,Pumice_rect,10,0,10,0,1,
663cb982130f1384c9988214,TCR,2024-06-24_13h43.08.291,LearnStrategy,2023.2.3,Win32,60.24096386,5,2,12,,,,,,,,6,10,,,,,,,,,,,7,9.506,0,,,,,,0.174074102,-0.412037037,1,0,0,9.5063,Peridotite_rect,11,0,11,0,1,
663cb982130f1384c9988214,TCR,2024-06-24_13h43.08.291,LearnStrategy,2023.2.3,Win32,60.24096386,5,2,13,,,,,,,,1,04,,,,,,,,,,,4,12.672,0,,,,,,0.342592593,-0.256481524,1,0,0,12.6717,Gabbro_rect,12,0,12,0,1,
663cb982130f1384c9988214,TCR,2024-06-24_13h43.08.291,LearnStrategy,2023.2.3,Win32,60.24096386,5,2,14,,,,,,,,5,07,,,,,,,,,,,2,14.228,0,,,,,,-0.102777764,-0.258333347,1,0,0,14.2284,Basalt_rect,13,0,13,0,1,
663cb982130f1384c9988214,TCR,2024-06-24_13h43.08.291,LearnStrategy,2023.2.3,Win32,60.24096386,5,2,15,,,,,,,,7,13,,,,,,,,,,,7,23.561,1,,,,,,0.119444459,-0.389814801,1,0,0,23.5607,Peridotite_rect,14,0,14,0,1,
663cb982130f1384c9988214,TCR,2024-06-24_13h43.08.291,LearnStrategy,2023.2.3,Win32,60.24096386,5,2,16,,,,,,,,2,06,,,,,,,,,,,2,5.008,1,,,,,,-0.149999972,-0.242592635,1,0,0,5.0075,Basalt_rect,15,0,15,0,1,
663cb982130f1384c9988214,TCR,2024-06-24_13h43.08.291,LearnStrategy,2023.2.3,Win32,60.24096386,6,1,1,0.059259273,-0.001851859,1,0,0,17.3101,rock_grid_rect_2,6,08,-1,-1,17.31,-0.130555541,-0.384259259,1,0,0,9.7726,Pegmatite_rect,6,9.773,1,0,0,0,0,1,,,,,,,,,,,,,
663cb982130f1384c9988214,TCR,2024-06-24_13h43.08.291,LearnStrategy,2023.2.3,Win32,60.24096386,6,1,2,0.100000028,-0.005555577,1,0,0,0.7822,rock_grid_rect_2,8,15,-1,-1,0.782,0.366666723,-0.405555584,1,0,0,2.4357,Pumice_rect,8,2.436,1,1,0,1,0,1,,,,,,,,,,,,,
663cb982130f1384c9988214,TCR,2024-06-24_13h43.08.291,LearnStrategy,2023.2.3,Win32,60.24096386,6,1,3,0.114814829,0.010185171,1,0,0,0.8623,rock_grid_rect_2,2,05,-1,-1,0.862,-0.045370384,-0.244444459,1,0,0,4.2248,Basalt_rect,2,4.225,1,2,0,2,0,1,,,,,,,,,,,,,
663cb982130f1384c9988214,TCR,2024-06-24_13h43.08.291,LearnStrategy,2023.2.3,Win32,60.24096386,6,1,4,0.102777764,-0.013888889,1,0,0,0.8633,rock_grid_rect_2,5,11,-1,-1,0.863,-0.35833334,-0.411111125,1,0,0,1.2535,Obsidian_rect,5,1.254,1,3,0,3,0,1,,,,,,,,,,,,,
663cb982130f1384c9988214,TCR,2024-06-24_13h43.08.291,LearnStrategy,2023.2.3,Win32,60.24096386,6,1,5,0.094444487,-0.010185206,1,0,0,1.2687,rock_grid_rect_2,4,13,-1,-1,1.269,0.381481453,-0.25,1,0,0,4.2943,Gabbro_rect,4,4.294,1,4,0,4,0,1,,,,,,,,,,,,,
663cb982130f1384c9988214,TCR,2024-06-24_13h43.08.291,LearnStrategy,2023.2.3,Win32,60.24096386,6,1,6,0.074999986,-0.006481489,1,0,0,0.8623,rock_grid_rect_2,4,15,-1,-1,0.862,-0.307407414,-0.238888917,1,0,0,5.3734,Andesite_rect,1,5.373,0,5,0,5,0,1,,,,,,,,,,,,,
663cb982130f1384c9988214,TCR,2024-06-24_13h43.08.291,LearnStrategy,2023.2.3,Win32,60.24096386,6,1,7,0.067592621,0,1,0,0,1.32,rock_grid_rect_2,1,11,-1,-1,1.32,-0.381481489,-0.258333347,1,0,0,7.9779,Andesite_rect,1,7.978,1,6,0,6,0,1,,,,,,,,,,,,,
663cb982130f1384c9988214,TCR,2024-06-24_13h43.08.291,LearnStrategy,2023.2.3,Win32,60.24096386,6,1,8,0.051851838,-0.009259259,1,0,0,1.013,rock_grid_rect_2,7,07,-1,-1,1.013,0.111111111,-0.415740755,1,0,0,1.8106,Peridotite_rect,7,1.811,1,7,0,7,0,1,,,,,,,,,,,,,
663cb982130f1384c9988214,TCR,2024-06-24_13h43.08.291,LearnStrategy,2023.2.3,Win32,60.24096386,6,1,9,0.087037051,0.003703683,1,0,0,0.7881,rock_grid_rect_2,3,14,-1,-1,0.788,-0.327777757,-0.268518519,1,0,0,6.9541,Andesite_rect,1,6.954,0,8,0,8,0,1,,,,,,,,,,,,,
663cb982130f1384c9988214,TCR,2024-06-24_13h43.08.291,LearnStrategy,2023.2.3,Win32,60.24096386,6,1,10,0.059259273,-0.011111118,1,0,0,0.8017,rock_grid_rect_2,6,07,-1,-1,0.802,-0.146296254,-0.398148148,1,0,0,2.3141,Pegmatite_rect,6,2.314,1,9,0,9,0,1,,,,,,,,,,,,,
663cb982130f1384c9988214,TCR,2024-06-24_13h43.08.291,LearnStrategy,2023.2.3,Win32,60.24096386,6,1,11,0.088888875,-0.012962977,1,0,0,0.8469,rock_grid_rect_2,1,03,-1,-1,0.847,-0.3824074,-0.256481524,1,0,0,19.367,Andesite_rect,1,19.367,1,10,0,10,0,1,,,,,,,,,,,,,
663cb982130f1384c9988214,TCR,2024-06-24_13h43.08.291,LearnStrategy,2023.2.3,Win32,60.24096386,6,1,12,0.12962963,-0.008333347,1,0,0,0.9243,rock_grid_rect_2,4,09,-1,-1,0.924,-0.137962977,-0.24537037,1,0,0,3.6813,Basalt_rect,2,3.681,0,11,0,11,0,1,,,,,,,,,,,,,
663cb982130f1384c9988214,TCR,2024-06-24_13h43.08.291,LearnStrategy,2023.2.3,Win32,60.24096386,6,1,13,0.083333333,-0.01203703,1,0,0,1.8998,rock_grid_rect_2,3,15,-1,-1,1.9,0.175000014,-0.250925912,1,0,0,13.9072,Diorite_rect,3,13.907,1,12,0,12,0,1,,,,,,,,,,,,,
663cb982130f1384c9988214,TCR,2024-06-24_13h43.08.291,LearnStrategy,2023.2.3,Win32,60.24096386,6,1,14,0.087037051,0.0074074,1,0,0,1.4799,rock_grid_rect_2,4,08,-1,-1,1.48,0.05277782,-0.258333347,1,0,0,24.4929,Diorite_rect,3,24.493,0,13,0,13,0,1,,,,,,,,,,,,,
663cb982130f1384c9988214,TCR,2024-06-24_13h43.08.291,LearnStrategy,2023.2.3,Win32,60.24096386,6,1,15,0.058333362,-0.019444466,1,0,0,0.938,rock_grid_rect_2,6,05,-1,-1,0.938,-0.133333347,-0.393518519,1,0,0,3.8283,Pegmatite_rect,6,3.828,1,14,0,14,0,1,,,,,,,,,,,,,
663cb982130f1384c9988214,TCR,2024-06-24_13h43.08.291,LearnStrategy,2023.2.3,Win32,60.24096386,6,1,16,0.047222208,0.0074074,1,0,0,3.0347,rock_grid_rect_2,1,01,-1,-1,3.035,-0.401851831,-0.247222265,1,0,0,16.5093,Andesite_rect,1,16.509,1,15,0,15,0,1,,,,,,,,,,,,,
663cb982130f1384c9988214,TCR,2024-06-24_13h43.08.291,LearnStrategy,2023.2.3,Win32,60.24096386,6,2,1,,,,,,,,5,05,,,,,,,,,,,5,31.358,1,,,,,,-0.393518519,-0.409259302,1,0,0,31.3582,Obsidian_rect,0,0,0,0,1,
663cb982130f1384c9988214,TCR,2024-06-24_13h43.08.291,LearnStrategy,2023.2.3,Win32,60.24096386,6,2,2,,,,,,,,3,06,,,,,,,,,,,3,38.848,1,,,,,,0.179629644,-0.231481481,1,0,0,38.848,Diorite_rect,1,0,1,0,1,
663cb982130f1384c9988214,TCR,2024-06-24_13h43.08.291,LearnStrategy,2023.2.3,Win32,60.24096386,6,2,3,,,,,,,,5,02,,,,,,,,,,,5,2.278,1,,,,,,-0.420370349,-0.410185213,1,0,0,2.2775,Obsidian_rect,2,0,2,0,1,
663cb982130f1384c9988214,TCR,2024-06-24_13h43.08.291,LearnStrategy,2023.2.3,Win32,60.24096386,6,2,4,,,,,,,,6,03,,,,,,,,,,,7,4.619,0,,,,,,0.086111139,-0.407407407,1,0,0,4.6192,Peridotite_rect,3,0,3,0,1,
663cb982130f1384c9988214,TCR,2024-06-24_13h43.08.291,LearnStrategy,2023.2.3,Win32,60.24096386,6,2,5,,,,,,,,8,03,,,,,,,,,,,8,10.343,1,,,,,,0.375,-0.389814801,1,0,0,10.3428,Pumice_rect,4,0,4,0,1,
663cb982130f1384c9988214,TCR,2024-06-24_13h43.08.291,LearnStrategy,2023.2.3,Win32,60.24096386,6,2,6,,,,,,,,4,12,,,,,,,,,,,4,20.228,1,,,,,,0.417592649,-0.259259259,1,0,0,20.2281,Gabbro_rect,5,0,5,0,1,
663cb982130f1384c9988214,TCR,2024-06-24_13h43.08.291,LearnStrategy,2023.2.3,Win32,60.24096386,6,2,7,,,,,,,,2,16,,,,,,,,,,,2,24.243,1,,,,,,-0.165740755,-0.250925912,1,0,0,24.2431,Basalt_rect,6,0,6,0,1,
663cb982130f1384c9988214,TCR,2024-06-24_13h43.08.291,LearnStrategy,2023.2.3,Win32,60.24096386,6,2,8,,,,,,,,7,15,,,,,,,,,,,7,1.631,1,,,,,,0.118518547,-0.402777778,1,0,0,1.6308,Peridotite_rect,7,0,7,0,1,
663cb982130f1384c9988214,TCR,2024-06-24_13h43.08.291,LearnStrategy,2023.2.3,Win32,60.24096386,6,2,9,,,,,,,,1,06,,,,,,,,,,,1,20.98,1,,,,,,-0.422222208,-0.249074088,1,0,0,20.9804,Andesite_rect,8,0,8,0,1,
663cb982130f1384c9988214,TCR,2024-06-24_13h43.08.291,LearnStrategy,2023.2.3,Win32,60.24096386,6,2,10,,,,,,,,6,11,,,,,,,,,,,6,3.494,1,,,,,,-0.155555513,-0.418518561,1,0,0,3.4938,Pegmatite_rect,9,0,9,0,1,
663cb982130f1384c9988214,TCR,2024-06-24_13h43.08.291,LearnStrategy,2023.2.3,Win32,60.24096386,6,2,11,,,,,,,,1,16,,,,,,,,,,,1,19.719,1,,,,,,-0.350925905,-0.240740741,1,0,0,19.7191,Andesite_rect,10,0,10,0,1,
663cb982130f1384c9988214,TCR,2024-06-24_13h43.08.291,LearnStrategy,2023.2.3,Win32,60.24096386,6,2,12,,,,,,,,3,07,,,,,,,,,,,3,28.906,1,,,,,,0.18240745,-0.243518547,1,0,0,28.9061,Diorite_rect,11,0,11,0,1,
663cb982130f1384c9988214,TCR,2024-06-24_13h43.08.291,LearnStrategy,2023.2.3,Win32,60.24096386,6,2,13,,,,,,,,4,14,,,,,,,,,,,4,14.265,1,,,,,,0.412963019,-0.256481524,1,0,0,14.2653,Gabbro_rect,12,0,12,0,1,
663cb982130f1384c9988214,TCR,2024-06-24_13h43.08.291,LearnStrategy,2023.2.3,Win32,60.24096386,6,2,14,,,,,,,,7,04,,,,,,,,,,,7,46.171,1,,,,,,0.168518561,-0.400000042,1,0,0,46.1713,Peridotite_rect,13,0,13,0,1,
663cb982130f1384c9988214,TCR,2024-06-24_13h43.08.291,LearnStrategy,2023.2.3,Win32,60.24096386,6,2,15,,,,,,,,8,02,,,,,,,,,,,8,2.228,1,,,,,,0.399999972,-0.402777778,1,0,0,2.2282,Pumice_rect,14,0,14,0,1,
663cb982130f1384c9988214,TCR,2024-06-24_13h43.08.291,LearnStrategy,2023.2.3,Win32,60.24096386,6,2,16,,,,,,,,2,11,,,,,,,,,,,1,43.005,0,,,,,,-0.392592571,-0.231481481,1,0,0,43.0046,Andesite_rect,15,0,15,0,1,
663cb982130f1384c9988214,TCR,2024-06-24_13h43.08.291,LearnStrategy,2023.2.3,Win32,60.24096386,7,1,1,0.025000042,0.006481489,1,0,0,9.555,rock_grid_rect_2,8,05,-1,-1,9.555,0.138888889,-0.398148148,1,0,0,19.1212,Peridotite_rect,7,19.121,0,0,0,0,0,1,,,,,,,,,,,,,
663cb982130f1384c9988214,TCR,2024-06-24_13h43.08.291,LearnStrategy,2023.2.3,Win32,60.24096386,7,1,2,0.100000028,-0.011111118,1,0,0,1.4152,rock_grid_rect_2,6,15,-1,-1,1.415,-0.149999972,-0.401851866,1,0,0,1.8739,Pegmatite_rect,6,1.874,1,1,0,1,0,1,,,,,,,,,,,,,
663cb982130f1384c9988214,TCR,2024-06-24_13h43.08.291,LearnStrategy,2023.2.3,Win32,60.24096386,7,1,3,0.070370356,-0.024074095,1,0,0,0.8128,rock_grid_rect_2,2,08,-1,-1,0.813,-0.138888889,-0.249074088,1,0,0,5.9613,Basalt_rect,2,5.961,1,2,0,2,0,1,,,,,,,,,,,,,
663cb982130f1384c9988214,TCR,2024-06-24_13h43.08.291,LearnStrategy,2023.2.3,Win32,60.24096386,7,1,4,0.119444459,-0.000925947,1,0,0,0.8532,rock_grid_rect_2,4,13,-1,-1,0.853,0.399999972,-0.258333347,1,0,0,4.5843,Gabbro_rect,4,4.584,1,3,0,3,0,1,,,,,,,,,,,,,
663cb982130f1384c9988214,TCR,2024-06-24_13h43.08.291,LearnStrategy,2023.2.3,Win32,60.24096386,7,1,5,0.104629658,-0.01203703,1,0,0,1.5611,rock_grid_rect_2,4,13,-1,-1,1.561,0.394444501,-0.240740741,1,0,0,1.4071,Gabbro_rect,4,1.407,1,4,0,4,0,1,,,,,,,,,,,,,
663cb982130f1384c9988214,TCR,2024-06-24_13h43.08.291,LearnStrategy,2023.2.3,Win32,60.24096386,7,1,6,0.10555557,-0.005555577,1,0,0,0.7629,rock_grid_rect_2,5,09,-1,-1,0.763,-0.388888889,-0.400000042,1,0,0,2.5003,Obsidian_rect,5,2.5,1,5,0,5,0,1,,,,,,,,,,,,,
663cb982130f1384c9988214,TCR,2024-06-24_13h43.08.291,LearnStrategy,2023.2.3,Win32,60.24096386,7,1,7,0.089814857,0,1,0,0,1.4175,rock_grid_rect_2,7,02,-1,-1,1.417,0.174074102,-0.416666667,1,0,0,2.0568,Peridotite_rect,7,2.057,1,6,0,6,0,1,,,,,,,,,,,,,
663cb982130f1384c9988214,TCR,2024-06-24_13h43.08.291,LearnStrategy,2023.2.3,Win32,60.24096386,7,1,8,0.090740769,0.02407406,1,0,0,0.6328,rock_grid_rect_2,2,10,-1,-1,0.633,-0.099999958,-0.257407436,1,0,0,3.6977,Basalt_rect,2,3.698,1,7,0,7,0,1,,,,,,,,,,,,,
663cb982130f1384c9988214,TCR,2024-06-24_13h43.08.291,LearnStrategy,2023.2.3,Win32,60.24096386,7,1,9,0.087962963,-0.001851859,1,0,0,0.877,rock_grid_rect_2,1,01,-1,-1,0.877,-0.344444452,-0.239814829,1,0,0,1.8125,Andesite_rect,1,1.813,1,8,0,8,0,1,,,,,,,,,,,,,
663cb982130f1384c9988214,TCR,2024-06-24_13h43.08.291,LearnStrategy,2023.2.3,Win32,60.24096386,7,1,10,0.068518533,-0.0074074,1,0,0,0.8841,rock_grid_rect_2,1,02,-1,-1,0.884,0.121296282,-0.267592607,1,0,0,7.1188,Diorite_rect,3,7.119,0,9,0,9,0,1,,,,,,,,,,,,,
663cb982130f1384c9988214,TCR,2024-06-24_13h43.08.291,LearnStrategy,2023.2.3,Win32,60.24096386,7,1,11,0.112037023,-0.010185206,1,0,0,1.0374,rock_grid_rect_2,6,13,-1,-1,1.037,0.132407436,-0.258333347,1,0,0,4.0907,Diorite_rect,3,4.091,0,10,0,10,0,1,,,,,,,,,,,,,
663cb982130f1384c9988214,TCR,2024-06-24_13h43.08.291,LearnStrategy,2023.2.3,Win32,60.24096386,7,1,12,0.022222236,-0.001851859,1,0,0,0.8771,rock_grid_rect_2,4,08,-1,-1,0.877,0.40833339,-0.255555541,1,0,0,11.102,Gabbro_rect,4,11.102,1,11,0,11,0,1,,,,,,,,,,,,,
663cb982130f1384c9988214,TCR,2024-06-24_13h43.08.291,LearnStrategy,2023.2.3,Win32,60.24096386,7,1,13,0.109259288,-0.010185206,1,0,0,1.2596,rock_grid_rect_2,3,02,-1,-1,1.26,-0.323148127,-0.256481524,1,0,0,5.2577,Andesite_rect,1,5.258,0,12,0,12,0,1,,,,,,,,,,,,,
663cb982130f1384c9988214,TCR,2024-06-24_13h43.08.291,LearnStrategy,2023.2.3,Win32,60.24096386,7,1,14,0.078703704,-0.00462963,1,0,0,0.849,rock_grid_rect_2,1,03,-1,-1,0.849,-0.117592564,-0.252777806,1,0,0,5.3042,Basalt_rect,2,5.304,0,13,0,13,0,1,,,,,,,,,,,,,
663cb982130f1384c9988214,TCR,2024-06-24_13h43.08.291,LearnStrategy,2023.2.3,Win32,60.24096386,7,1,15,0.045370384,-0.019444466,1,0,0,1.1093,rock_grid_rect_2,3,13,-1,-1,1.109,-0.151851866,-0.239814829,1,0,0,7.6655,Basalt_rect,2,7.666,0,14,0,14,0,1,,,,,,,,,,,,,
663cb982130f1384c9988214,TCR,2024-06-24_13h43.08.291,LearnStrategy,2023.2.3,Win32,60.24096386,7,1,16,0.088888875,-0.017592607,1,0,0,1.0746,rock_grid_rect_2,6,08,-1,-1,1.075,-0.083333333,-0.40370369,1,0,0,1.7988,Pegmatite_rect,6,1.799,1,15,0,15,0,1,,,,,,,,,,,,,
663cb982130f1384c9988214,TCR,2024-06-24_13h43.08.291,LearnStrategy,2023.2.3,Win32,60.24096386,7,2,1,,,,,,,,3,11,,,,,,,,,,,3,47.892,1,,,,,,0.142592607,-0.270370413,1,0,0,47.8922,Diorite_rect,0,0,0,0,1,
663cb982130f1384c9988214,TCR,2024-06-24_13h43.08.291,LearnStrategy,2023.2.3,Win32,60.24096386,7,2,2,,,,,,,,7,08,,,,,,,,,,,7,3.691,1,,,,,,0.116666653,-0.402777778,1,0,0,3.6909,Peridotite_rect,1,0,1,0,1,
663cb982130f1384c9988214,TCR,2024-06-24_13h43.08.291,LearnStrategy,2023.2.3,Win32,60.24096386,7,2,3,,,,,,,,1,14,,,,,,,,,,,4,25.332,0,,,,,,0.437962991,-0.256481524,1,0,0,25.3325,Gabbro_rect,2,0,2,0,1,
663cb982130f1384c9988214,TCR,2024-06-24_13h43.08.291,LearnStrategy,2023.2.3,Win32,60.24096386,7,2,4,,,,,,,,4,05,,,,,,,,,,,3,91.975,0,,,,,,0.10555557,-0.258333347,1,0,0,91.9747,Diorite_rect,3,0,3,0,1,
663cb982130f1384c9988214,TCR,2024-06-24_13h43.08.291,LearnStrategy,2023.2.3,Win32,60.24096386,7,2,5,,,,,,,,2,11,,,,,,,,,,,2,30.253,1,,,,,,-0.143518519,-0.261111153,1,0,0,30.2526,Basalt_rect,4,0,4,0,1,
663cb982130f1384c9988214,TCR,2024-06-24_13h43.08.291,LearnStrategy,2023.2.3,Win32,60.24096386,7,2,6,,,,,,,,3,06,,,,,,,,,,,1,18.284,0,,,,,,-0.437962956,-0.250925912,1,0,0,18.2841,Andesite_rect,5,0,5,0,1,
663cb982130f1384c9988214,TCR,2024-06-24_13h43.08.291,LearnStrategy,2023.2.3,Win32,60.24096386,7,2,7,,,,,,,,5,04,,,,,,,,,,,5,1.602,1,,,,,,-0.37962963,-0.390740783,1,0,0,1.6016,Obsidian_rect,6,0,6,0,1,
663cb982130f1384c9988214,TCR,2024-06-24_13h43.08.291,LearnStrategy,2023.2.3,Win32,60.24096386,7,2,8,,,,,,,,5,05,,,,,,,,,,,7,53.9,0,,,,,,0.107407393,-0.404629672,1,0,0,53.9002,Peridotite_rect,7,0,7,0,1,
663cb982130f1384c9988214,TCR,2024-06-24_13h43.08.291,LearnStrategy,2023.2.3,Win32,60.24096386,7,2,9,,,,,,,,7,16,,,,,,,,,,,7,1.071,1,,,,,,0.107407393,-0.404629672,1,0,0,1.0712,Peridotite_rect,8,0,8,0,1,
663cb982130f1384c9988214,TCR,2024-06-24_13h43.08.291,LearnStrategy,2023.2.3,Win32,60.24096386,7,2,10,,,,,,,,1,04,,,,,,,,,,,1,21.799,1,,,,,,-0.449074074,-0.25,1,0,0,21.7989,Andesite_rect,9,0,9,0,1,
663cb982130f1384c9988214,TCR,2024-06-24_13h43.08.291,LearnStrategy,2023.2.3,Win32,60.24096386,7,2,11,,,,,,,,8,02,,,,,,,,,,,8,2.02,1,,,,,,0.428703732,-0.407407407,1,0,0,2.0203,Pumice_rect,10,0,10,0,1,
663cb982130f1384c9988214,TCR,2024-06-24_13h43.08.291,LearnStrategy,2023.2.3,Win32,60.24096386,7,2,12,,,,,,,,2,09,,,,,,,,,,,2,14.834,1,,,,,,-0.107407393,-0.248148176,1,0,0,14.834,Basalt_rect,11,0,11,0,1,
663cb982130f1384c9988214,TCR,2024-06-24_13h43.08.291,LearnStrategy,2023.2.3,Win32,60.24096386,7,2,13,,,,,,,,6,06,,,,,,,,,,,6,10.878,1,,,,,,-0.147222236,-0.378703718,1,0,0,10.8779,Pegmatite_rect,12,0,12,0,1,
663cb982130f1384c9988214,TCR,2024-06-24_13h43.08.291,LearnStrategy,2023.2.3,Win32,60.24096386,7,2,14,,,,,,,,8,14,,,,,,,,,,,8,7.256,1,,,,,,0.432407379,-0.383333347,1,0,0,7.2558,Pumice_rect,13,0,13,0,1,
663cb982130f1384c9988214,TCR,2024-06-24_13h43.08.291,LearnStrategy,2023.2.3,Win32,60.24096386,7,2,15,,,,,,,,6,11,,,,,,,,,,,6,5.809,1,,,,,,-0.125,-0.400925954,1,0,0,5.8088,Pegmatite_rect,14,0,14,0,1,
663cb982130f1384c9988214,TCR,2024-06-24_13h43.08.291,LearnStrategy,2023.2.3,Win32,60.24096386,7,2,16,,,,,,,,4,14,,,,,,,,,,,4,26.255,1,,,,,,0.477777834,-0.248148176,1,0,0,26.2554,Gabbro_rect,15,0,15,0,1,
663cb982130f1384c9988214,TCR,2024-06-24_13h43.08.291,LearnStrategy,2023.2.3,Win32,60.24096386,8,1,1,-0.04814812,-0.018518519,1,0,0,6.0481,rock_grid_rect_2,1,07,-1,-1,6.048,0.140740783,-0.235185199,1,0,0,10.201,Diorite_rect,3,10.201,0,0,0,0,0,1,,,,,,,,,,,,,
663cb982130f1384c9988214,TCR,2024-06-24_13h43.08.291,LearnStrategy,2023.2.3,Win32,60.24096386,8,1,2,0.015740783,0.02407406,1,0,0,0.8988,rock_grid_rect_2,8,09,-1,-1,0.899,0.417592649,-0.415740755,1,0,0,1.8958,Pumice_rect,8,1.896,1,1,0,1,0,1,,,,,,,,,,,,,
663cb982130f1384c9988214,TCR,2024-06-24_13h43.08.291,LearnStrategy,2023.2.3,Win32,60.24096386,8,1,3,0.064814815,-0.014814836,1,0,0,0.8586,rock_grid_rect_2,3,08,-1,-1,0.859,0.164814843,-0.257407436,1,0,0,7.8996,Diorite_rect,3,7.9,1,2,0,2,0,1,,,,,,,,,,,,,
663cb982130f1384c9988214,TCR,2024-06-24_13h43.08.291,LearnStrategy,2023.2.3,Win32,60.24096386,8,1,4,0.107407393,-0.012962977,1,0,0,1.2328,rock_grid_rect_2,6,09,-1,-1,1.233,0.130555541,-0.405555584,1,0,0,2.2805,Peridotite_rect,7,2.28,0,3,0,3,0,1,,,,,,,,,,,,,
663cb982130f1384c9988214,TCR,2024-06-24_13h43.08.291,LearnStrategy,2023.2.3,Win32,60.24096386,8,1,5,0.10555557,-0.009259259,1,0,0,0.9064,rock_grid_rect_2,7,02,-1,-1,0.906,0.147222236,-0.412962949,1,0,0,2.4708,Peridotite_rect,7,2.471,1,4,0,4,0,1,,,,,,,,,,,,,
663cb982130f1384c9988214,TCR,2024-06-24_13h43.08.291,LearnStrategy,2023.2.3,Win32,60.24096386,8,1,6,0.094444487,-0.015740748,1,0,0,1.4634,rock_grid_rect_2,1,09,-1,-1,1.463,-0.134259259,-0.261111153,1,0,0,1.8937,Basalt_rect,2,1.894,0,5,0,5,0,1,,,,,,,,,,,,,
663cb982130f1384c9988214,TCR,2024-06-24_13h43.08.291,LearnStrategy,2023.2.3,Win32,60.24096386,8,1,7,0.054629644,0.001851859,1,0,0,1.6531,rock_grid_rect_2,4,13,-1,-1,1.653,0.463888945,-0.262037065,1,0,0,1.6505,Gabbro_rect,4,1.65,1,6,0,6,0,1,,,,,,,,,,,,,
663cb982130f1384c9988214,TCR,2024-06-24_13h43.08.291,LearnStrategy,2023.2.3,Win32,60.24096386,8,1,8,0.089814857,0.003703683,1,0,0,1.4169,rock_grid_rect_2,3,02,-1,-1,1.417,0.12962963,-0.243518547,1,0,0,6.3132,Diorite_rect,3,6.313,1,7,0,7,0,1,,,,,,,,,,,,,
663cb982130f1384c9988214,TCR,2024-06-24_13h43.08.291,LearnStrategy,2023.2.3,Win32,60.24096386,8,1,9,0.114814829,-0.011111118,1,0,0,1.9701,rock_grid_rect_2,1,03,-1,-1,1.97,-0.386111118,-0.252777806,1,0,0,6.8022,Andesite_rect,1,6.802,1,8,0,8,0,1,,,,,,,,,,,,,
663cb982130f1384c9988214,TCR,2024-06-24_13h43.08.291,LearnStrategy,2023.2.3,Win32,60.24096386,8,1,10,0.099074116,-0.005555577,1,0,0,0.8792,rock_grid_rect_2,4,15,-1,-1,0.879,0.362962935,-0.248148176,1,0,0,2.5101,Gabbro_rect,4,2.51,1,9,0,9,0,1,,,,,,,,,,,,,
663cb982130f1384c9988214,TCR,2024-06-24_13h43.08.291,LearnStrategy,2023.2.3,Win32,60.24096386,8,1,11,0.061111097,-0.008333347,1,0,0,1.0124,rock_grid_rect_2,2,05,-1,-1,1.012,-0.086111069,-0.259259259,1,0,0,5.4618,Basalt_rect,2,5.462,1,10,0,10,0,1,,,,,,,,,,,,,
663cb982130f1384c9988214,TCR,2024-06-24_13h43.08.291,LearnStrategy,2023.2.3,Win32,60.24096386,8,1,12,0.159259302,-0.012962977,1,0,0,0.9485,rock_grid_rect_2,6,08,-1,-1,0.949,-0.132407365,-0.416666667,1,0,0,1.7711,Pegmatite_rect,6,1.771,1,11,0,11,0,1,,,,,,,,,,,,,
663cb982130f1384c9988214,TCR,2024-06-24_13h43.08.291,LearnStrategy,2023.2.3,Win32,60.24096386,8,1,13,0.086111139,0.010185171,1,0,0,0.9939,rock_grid_rect_2,5,06,-1,-1,0.994,-0.380555541,-0.410185213,1,0,0,3.7895,Obsidian_rect,5,3.789,1,12,0,12,0,1,,,,,,,,,,,,,
663cb982130f1384c9988214,TCR,2024-06-24_13h43.08.291,LearnStrategy,2023.2.3,Win32,60.24096386,8,1,14,0.102777764,0.005555541,1,0,0,1.0467,rock_grid_rect_2,5,16,-1,-1,1.047,-0.390740748,-0.408333319,1,0,0,4.0327,Obsidian_rect,5,4.033,1,13,0,13,0,1,,,,,,,,,,,,,
663cb982130f1384c9988214,TCR,2024-06-24_13h43.08.291,LearnStrategy,2023.2.3,Win32,60.24096386,8,1,15,0.061111097,0.012962942,1,0,0,1.1773,rock_grid_rect_2,2,14,-1,-1,1.177,0.45648151,-0.252777806,1,0,0,1.8563,Gabbro_rect,4,1.856,0,14,0,14,0,1,,,,,,,,,,,,,
663cb982130f1384c9988214,TCR,2024-06-24_13h43.08.291,LearnStrategy,2023.2.3,Win32,60.24096386,8,1,16,0.035185213,-0.017592607,1,0,0,0.9712,rock_grid_rect_2,4,13,-1,-1,0.971,0.426851908,-0.237963005,1,0,0,1.5573,Gabbro_rect,4,1.557,1,15,0,15,0,1,,,,,,,,,,,,,
663cb982130f1384c9988214,TCR,2024-06-24_13h43.08.291,LearnStrategy,2023.2.3,Win32,60.24096386,8,2,1,,,,,,,,1,10,,,,,,,,,,,4,49.82,0,,,,,,0.376851824,-0.24537037,1,0,0,49.8198,Gabbro_rect,0,0,0,0,1,
663cb982130f1384c9988214,TCR,2024-06-24_13h43.08.291,LearnStrategy,2023.2.3,Win32,60.24096386,8,2,2,,,,,,,,2,04,,,,,,,,,,,2,6.292,1,,,,,,-0.19259255,-0.244444459,1,0,0,6.2921,Basalt_rect,1,0,1,0,1,
663cb982130f1384c9988214,TCR,2024-06-24_13h43.08.291,LearnStrategy,2023.2.3,Win32,60.24096386,8,2,3,,,,,,,,5,12,,,,,,,,,,,5,1.733,1,,,,,,-0.375925912,-0.389814801,1,0,0,1.7326,Obsidian_rect,2,0,2,0,1,
663cb982130f1384c9988214,TCR,2024-06-24_13h43.08.291,LearnStrategy,2023.2.3,Win32,60.24096386,8,2,4,,,,,,,,3,12,,,,,,,,,,,3,20.745,1,,,,,,0.10092594,-0.262037065,1,0,0,20.7449,Diorite_rect,3,0,3,0,1,
663cb982130f1384c9988214,TCR,2024-06-24_13h43.08.291,LearnStrategy,2023.2.3,Win32,60.24096386,8,2,5,,,,,,,,3,07,,,,,,,,,,,6,36.404,0,,,,,,-0.142592607,-0.389814801,1,0,0,36.4042,Pegmatite_rect,4,0,4,0,1,
663cb982130f1384c9988214,TCR,2024-06-24_13h43.08.291,LearnStrategy,2023.2.3,Win32,60.24096386,8,2,6,,,,,,,,4,10,,,,,,,,,,,4,27.057,1,,,,,,0.399074131,-0.250925912,1,0,0,27.0575,Gabbro_rect,5,0,5,0,1,
663cb982130f1384c9988214,TCR,2024-06-24_13h43.08.291,LearnStrategy,2023.2.3,Win32,60.24096386,8,2,7,,,,,,,,6,10,,,,,,,,,,,6,10.099,1,,,,,,-0.136111083,-0.39907406,1,0,0,10.0988,Pegmatite_rect,6,0,6,0,1,
663cb982130f1384c9988214,TCR,2024-06-24_13h43.08.291,LearnStrategy,2023.2.3,Win32,60.24096386,8,2,8,,,,,,,,4,01,,,,,,,,,,,7,70.564,0,,,,,,0.186111097,-0.397222236,1,0,0,70.5644,Peridotite_rect,7,0,7,0,1,
663cb982130f1384c9988214,TCR,2024-06-24_13h43.08.291,LearnStrategy,2023.2.3,Win32,60.24096386,8,2,9,,,,,,,,6,12,,,,,,,,,,,3,8.511,0,,,,,,0.130555541,-0.270370413,1,0,0,8.5107,Diorite_rect,8,0,8,0,1,
663cb982130f1384c9988214,TCR,2024-06-24_13h43.08.291,LearnStrategy,2023.2.3,Win32,60.24096386,8,2,10,,,,,,,,7,05,,,,,,,,,,,7,22.184,1,,,,,,0.131481524,-0.400000042,1,0,0,22.1838,Peridotite_rect,9,0,9,0,1,
663cb982130f1384c9988214,TCR,2024-06-24_13h43.08.291,LearnStrategy,2023.2.3,Win32,60.24096386,8,2,11,,,,,,,,8,04,,,,,,,,,,,8,1.777,1,,,,,,0.386111083,-0.380555541,1,0,0,1.7773,Pumice_rect,10,0,10,0,1,
663cb982130f1384c9988214,TCR,2024-06-24_13h43.08.291,LearnStrategy,2023.2.3,Win32,60.24096386,8,2,12,,,,,,,,1,06,,,,,,,,,,,4,20.036,0,,,,,,0.380555612,-0.247222265,1,0,0,20.0357,Gabbro_rect,11,0,11,0,1,
663cb982130f1384c9988214,TCR,2024-06-24_13h43.08.291,LearnStrategy,2023.2.3,Win32,60.24096386,8,2,13,,,,,,,,8,08,,,,,,,,,,,8,1.438,1,,,,,,0.338888945,-0.383333347,1,0,0,1.4377,Pumice_rect,12,0,12,0,1,
663cb982130f1384c9988214,TCR,2024-06-24_13h43.08.291,LearnStrategy,2023.2.3,Win32,60.24096386,8,2,14,,,,,,,,2,06,,,,,,,,,,,2,1.377,1,,,,,,-0.093518504,-0.262037065,1,0,0,1.3765,Basalt_rect,13,0,13,0,1,
663cb982130f1384c9988214,TCR,2024-06-24_13h43.08.291,LearnStrategy,2023.2.3,Win32,60.24096386,8,2,15,,,,,,,,5,02,,,,,,,,,,,5,1.594,1,,,,,,-0.41574072,-0.39907406,1,0,0,1.5944,Obsidian_rect,14,0,14,0,1,
663cb982130f1384c9988214,TCR,2024-06-24_13h43.08.291,LearnStrategy,2023.2.3,Win32,60.24096386,8,2,16,,,,,,,,7,13,,,,,,,,,,,7,2.312,1,,,,,,0.147222236,-0.407407407,1,0,0,2.3118,Peridotite_rect,15,0,15,0,1,
663cb982130f1384c9988214,TCR,2024-06-24_13h43.08.291,LearnStrategy,2023.2.3,Win32,60.24096386,9,1,1,0.040740755,-0.005555577,1,0,0,2.3005,rock_grid_rect_2,1,03,-1,-1,2.3,0.216666681,-0.255555541,1,0,0,5.9969,Diorite_rect,3,5.997,0,0,0,0,0,1,,,,,,,,,,,,,
663cb982130f1384c9988214,TCR,2024-06-24_13h43.08.291,LearnStrategy,2023.2.3,Win32,60.24096386,9,1,2,0.088888875,-0.008333347,1,0,0,0.9615,rock_grid_rect_2,2,08,-1,-1,0.962,-0.125,-0.265740783,1,0,0,3.622,Basalt_rect,2,3.622,1,1,0,1,0,1,,,,,,,,,,,,,
663cb982130f1384c9988214,TCR,2024-06-24_13h43.08.291,LearnStrategy,2023.2.3,Win32,60.24096386,9,1,3,0.084259245,-0.001851859,1,0,0,0.8625,rock_grid_rect_2,3,15,-1,-1,0.863,0.407407407,-0.238888917,1,0,0,2.728,Gabbro_rect,4,2.728,0,2,0,2,0,1,,,,,,,,,,,,,
663cb982130f1384c9988214,TCR,2024-06-24_13h43.08.291,LearnStrategy,2023.2.3,Win32,60.24096386,9,1,4,0.125925912,-0.012962977,1,0,0,0.8965,rock_grid_rect_2,6,09,-1,-1,0.896,-0.06759255,-0.401851866,1,0,0,2.1416,Pegmatite_rect,6,2.142,1,3,0,3,0,1,,,,,,,,,,,,,
663cb982130f1384c9988214,TCR,2024-06-24_13h43.08.291,LearnStrategy,2023.2.3,Win32,60.24096386,9,1,5,0.118518547,-0.001851859,1,0,0,0.9969,rock_grid_rect_2,3,08,-1,-1,0.997,0.112037023,-0.258333347,1,0,0,2.9246,Diorite_rect,3,2.925,1,4,0,4,0,1,,,,,,,,,,,,,
663cb982130f1384c9988214,TCR,2024-06-24_13h43.08.291,LearnStrategy,2023.2.3,Win32,60.24096386,9,1,6,0.088888875,-0.0074074,1,0,0,0.7964,rock_grid_rect_2,4,03,-1,-1,0.796,0.434259344,-0.261111153,1,0,0,8.3718,Gabbro_rect,4,8.372,1,5,0,5,0,1,,,,,,,,,,,,,
663cb982130f1384c9988214,TCR,2024-06-24_13h43.08.291,LearnStrategy,2023.2.3,Win32,60.24096386,9,1,7,0.102777764,-0.008333347,1,0,0,0.8678,rock_grid_rect_2,7,02,-1,-1,0.868,0.10092594,-0.420370384,1,0,0,2.0624,Peridotite_rect,7,2.062,1,6,0,6,0,1,,,,,,,,,,,,,
663cb982130f1384c9988214,TCR,2024-06-24_13h43.08.291,LearnStrategy,2023.2.3,Win32,60.24096386,9,1,8,0.142592607,-0.012962977,1,0,0,0.9469,rock_grid_rect_2,3,13,-1,-1,0.947,-0.362037023,-0.256481524,1,0,0,2.6083,Andesite_rect,1,2.608,0,7,0,7,0,1,,,,,,,,,,,,,
663cb982130f1384c9988214,TCR,2024-06-24_13h43.08.291,LearnStrategy,2023.2.3,Win32,60.24096386,9,1,9,0.137037065,-0.022222236,1,0,0,0.9533,rock_grid_rect_2,1,02,-1,-1,0.953,-0.315740727,-0.25,1,0,0,6.9774,Andesite_rect,1,6.977,1,8,0,8,0,1,,,,,,,,,,,,,
663cb982130f1384c9988214,TCR,2024-06-24_13h43.08.291,LearnStrategy,2023.2.3,Win32,60.24096386,9,1,10,0.112963005,-0.005555577,1,0,0,1.5821,rock_grid_rect_2,1,07,-1,-1,1.582,0.104629658,-0.259259259,1,0,0,4.0641,Diorite_rect,3,4.064,0,9,0,9,0,1,,,,,,,,,,,,,
663cb982130f1384c9988214,TCR,2024-06-24_13h43.08.291,LearnStrategy,2023.2.3,Win32,60.24096386,9,1,11,0.139814801,-0.022222236,1,0,0,1.5126,rock_grid_rect_2,4,15,-1,-1,1.513,0.366666723,-0.251851894,1,0,0,3.3631,Gabbro_rect,4,3.363,1,10,0,10,0,1,,,,,,,,,,,,,
663cb982130f1384c9988214,TCR,2024-06-24_13h43.08.291,LearnStrategy,2023.2.3,Win32,60.24096386,9,1,12,0.094444487,-0.0074074,1,0,0,0.9468,rock_grid_rect_2,1,09,-1,-1,0.947,-0.108333305,-0.260185171,1,0,0,4.977,Basalt_rect,2,4.977,0,11,0,11,0,1,,,,,,,,,,,,,
663cb982130f1384c9988214,TCR,2024-06-24_13h43.08.291,LearnStrategy,2023.2.3,Win32,60.24096386,9,1,13,0.10555557,-0.019444466,1,0,0,0.7957,rock_grid_rect_2,8,16,-1,-1,0.796,0.357407464,-0.392592607,1,0,0,1.3779,Pumice_rect,8,1.378,1,12,0,12,0,1,,,,,,,,,,,,,
663cb982130f1384c9988214,TCR,2024-06-24_13h43.08.291,LearnStrategy,2023.2.3,Win32,60.24096386,9,1,14,0.136111153,-0.017592607,1,0,0,0.8538,rock_grid_rect_2,6,13,-1,-1,0.854,-0.137036995,-0.404629672,1,0,0,1.7869,Pegmatite_rect,6,1.787,1,13,0,13,0,1,,,,,,,,,,,,,
663cb982130f1384c9988214,TCR,2024-06-24_13h43.08.291,LearnStrategy,2023.2.3,Win32,60.24096386,9,1,15,0.095370399,-0.012962977,1,0,0,1.0128,rock_grid_rect_2,4,11,-1,-1,1.013,-0.079629616,-0.248148176,1,0,0,1.2826,Basalt_rect,2,1.283,0,14,0,14,0,1,,,,,,,,,,,,,
663cb982130f1384c9988214,TCR,2024-06-24_13h43.08.291,LearnStrategy,2023.2.3,Win32,60.24096386,9,1,16,0.126851894,0.013888889,1,0,0,1.2134,rock_grid_rect_2,5,08,-1,-1,1.213,-0.380555541,-0.400925954,1,0,0,3.3548,Obsidian_rect,5,3.355,1,15,0,15,0,1,,,,,,,,,,,,,
663cb982130f1384c9988214,TCR,2024-06-24_13h43.08.291,LearnStrategy,2023.2.3,Win32,60.24096386,9,2,1,,,,,,,,2,16,,,,,,,,,,,2,31.851,1,,,,,,-0.159259231,-0.265740783,1,0,0,31.8512,Basalt_rect,0,0,0,0,1,
663cb982130f1384c9988214,TCR,2024-06-24_13h43.08.291,LearnStrategy,2023.2.3,Win32,60.24096386,9,2,2,,,,,,,,5,07,,,,,,,,,,,5,5.486,1,,,,,,-0.438888868,-0.390740783,1,0,0,5.4859,Obsidian_rect,1,0,1,0,1,
663cb982130f1384c9988214,TCR,2024-06-24_13h43.08.291,LearnStrategy,2023.2.3,Win32,60.24096386,9,2,3,,,,,,,,1,05,,,,,,,,,,,7,26.495,0,,,,,,0.119444459,-0.412962949,1,0,0,26.4954,Peridotite_rect,2,0,2,0,1,
663cb982130f1384c9988214,TCR,2024-06-24_13h43.08.291,LearnStrategy,2023.2.3,Win32,60.24096386,9,2,4,,,,,,,,4,16,,,,,,,,,,,2,16.343,0,,,,,,-0.109259217,-0.237037023,1,0,0,16.3432,Basalt_rect,3,0,3,0,1,
663cb982130f1384c9988214,TCR,2024-06-24_13h43.08.291,LearnStrategy,2023.2.3,Win32,60.24096386,9,2,5,,,,,,,,2,01,,,,,,,,,,,2,11.194,1,,,,,,-0.098148134,-0.237037023,1,0,0,11.1936,Basalt_rect,4,0,4,0,1,
663cb982130f1384c9988214,TCR,2024-06-24_13h43.08.291,LearnStrategy,2023.2.3,Win32,60.24096386,9,2,6,,,,,,,,8,13,,,,,,,,,,,8,11.141,1,,,,,,0.428703732,-0.410185213,1,0,0,11.1415,Pumice_rect,5,0,5,0,1,
663cb982130f1384c9988214,TCR,2024-06-24_13h43.08.291,LearnStrategy,2023.2.3,Win32,60.24096386,9,2,7,,,,,,,,3,09,,,,,,,,,,,3,19.238,1,,,,,,0.175925926,-0.263888889,1,0,0,19.2376,Diorite_rect,6,0,6,0,1,
663cb982130f1384c9988214,TCR,2024-06-24_13h43.08.291,LearnStrategy,2023.2.3,Win32,60.24096386,9,2,8,,,,,,,,6,03,,,,,,,,,,,7,6.774,0,,,,,,0.14907406,-0.381481524,1,0,0,6.7743,Peridotite_rect,7,0,7,0,1,
663cb982130f1384c9988214,TCR,2024-06-24_13h43.08.291,LearnStrategy,2023.2.3,Win32,60.24096386,9,2,9,,,,,,,,5,10,,,,,,,,,,,5,1.663,1,,,,,,-0.417592578,-0.392592607,1,0,0,1.6627,Obsidian_rect,8,0,8,0,1,
663cb982130f1384c9988214,TCR,2024-06-24_13h43.08.291,LearnStrategy,2023.2.3,Win32,60.24096386,9,2,10,,,,,,,,7,04,,,,,,,,,,,7,11.984,1,,,,,,0.075925968,-0.389814801,1,0,0,11.9844,Peridotite_rect,9,0,9,0,1,
663cb982130f1384c9988214,TCR,2024-06-24_13h43.08.291,LearnStrategy,2023.2.3,Win32,60.24096386,9,2,11,,,,,,,,6,16,,,,,,,,,,,3,65.206,0,,,,,,0.193518533,-0.249074088,1,0,0,65.2061,Diorite_rect,10,0,10,0,1,
663cb982130f1384c9988214,TCR,2024-06-24_13h43.08.291,LearnStrategy,2023.2.3,Win32,60.24096386,9,2,12,,,,,,,,1,16,,,,,,,,,,,4,26.84,0,,,,,,0.413888861,-0.232407393,1,0,0,26.8402,Gabbro_rect,11,0,11,0,1,
663cb982130f1384c9988214,TCR,2024-06-24_13h43.08.291,LearnStrategy,2023.2.3,Win32,60.24096386,9,2,13,,,,,,,,3,16,,,,,,,,,,,3,7.588,1,,,,,,0.167592578,-0.233333376,1,0,0,7.5877,Diorite_rect,12,0,12,0,1,
663cb982130f1384c9988214,TCR,2024-06-24_13h43.08.291,LearnStrategy,2023.2.3,Win32,60.24096386,9,2,14,,,,,,,,7,15,,,,,,,,,,,7,10.099,1,,,,,,0.114814829,-0.414814843,1,0,0,10.0989,Peridotite_rect,13,0,13,0,1,
663cb982130f1384c9988214,TCR,2024-06-24_13h43.08.291,LearnStrategy,2023.2.3,Win32,60.24096386,9,2,15,,,,,,,,4,12,,,,,,,,,,,4,33.071,1,,,,,,0.400925954,-0.233333376,1,0,0,33.0706,Gabbro_rect,14,0,14,0,1,
663cb982130f1384c9988214,TCR,2024-06-24_13h43.08.291,LearnStrategy,2023.2.3,Win32,60.24096386,9,2,16,,,,,,,,8,03,,,,,,,,,,,8,1.96,1,,,,,,0.400925954,-0.408333319,1,0,0,1.96,Pumice_rect,15,0,15,0,1,
663cb982130f1384c9988214,TCR,2024-06-24_13h43.08.291,LearnStrategy,2023.2.3,Win32,60.24096386,,,,,,,,,,,,,,,,,,,,,,,,,,,,,,,,,,,,,,,,,,,1
663cb982130f1384c9988214,TCR,2024-06-24_13h43.08.291,LearnStrategy,2023.2.3,Win32,60.24096386,,,,,,,,,,,,,,,,,,,,,,,,,,,,,,,,,,,,,,,,,,,
663cb982130f1384c9988214,TCR,2024-06-24_13h43.08.291,LearnStrategy,2023.2.3,Win32,60.24096386,,,,,,,,,,,6,15,1,1,,,,,,,,,,,,,,,,,,,,,,,,,,,,,
663cb982130f1384c9988214,TCR,2024-06-24_13h43.08.291,LearnStrategy,2023.2.3,Win32,60.24096386,,,,,,,,,,,8,06,1,2,,,,,,,,,,,,,,,,,,,,,,,,,,,,,
663cb982130f1384c9988214,TCR,2024-06-24_13h43.08.291,LearnStrategy,2023.2.3,Win32,60.24096386,,,,,,,,,,,1,03,1,3,,,,,,,,,,,,,,,,,,,,,,,,,,,,,
663cb982130f1384c9988214,TCR,2024-06-24_13h43.08.291,LearnStrategy,2023.2.3,Win32,60.24096386,,,,,,,,,,,1,01,1,4,,,,,,,,,,,,,,,,,,,,,,,,,,,,,
663cb982130f1384c9988214,TCR,2024-06-24_13h43.08.291,LearnStrategy,2023.2.3,Win32,60.24096386,,,,,,,,,,,1,09,1,5,,,,,,,,,,,,,,,,,,,,,,,,,,,,,
663cb982130f1384c9988214,TCR,2024-06-24_13h43.08.291,LearnStrategy,2023.2.3,Win32,60.24096386,,,,,,,,,,,4,03,1,6,,,,,,,,,,,,,,,,,,,,,,,,,,,,,
663cb982130f1384c9988214,TCR,2024-06-24_13h43.08.291,LearnStrategy,2023.2.3,Win32,60.24096386,,,,,,,,,,,4,08,1,7,,,,,,,,,,,,,,,,,,,,,,,,,,,,,
663cb982130f1384c9988214,TCR,2024-06-24_13h43.08.291,LearnStrategy,2023.2.3,Win32,60.24096386,,,,,,,,,,,7,14,1,8,,,,,,,,,,,,,,,,,,,,,,,,,,,,,
663cb982130f1384c9988214,TCR,2024-06-24_13h43.08.291,LearnStrategy,2023.2.3,Win32,60.24096386,,,,,,,,,,,6,09,2,1,,,,,,,,,,,,,,,,,,,,,,,,,,,,,
663cb982130f1384c9988214,TCR,2024-06-24_13h43.08.291,LearnStrategy,2023.2.3,Win32,60.24096386,,,,,,,,,,,8,09,2,2,,,,,,,,,,,,,,,,,,,,,,,,,,,,,
663cb982130f1384c9988214,TCR,2024-06-24_13h43.08.291,LearnStrategy,2023.2.3,Win32,60.24096386,,,,,,,,,,,7,10,2,3,,,,,,,,,,,,,,,,,,,,,,,,,,,,,
663cb982130f1384c9988214,TCR,2024-06-24_13h43.08.291,LearnStrategy,2023.2.3,Win32,60.24096386,,,,,,,,,,,7,06,2,4,,,,,,,,,,,,,,,,,,,,,,,,,,,,,
663cb982130f1384c9988214,TCR,2024-06-24_13h43.08.291,LearnStrategy,2023.2.3,Win32,60.24096386,,,,,,,,,,,7,02,2,5,,,,,,,,,,,,,,,,,,,,,,,,,,,,,
663cb982130f1384c9988214,TCR,2024-06-24_13h43.08.291,LearnStrategy,2023.2.3,Win32,60.24096386,,,,,,,,,,,3,08,2,6,,,,,,,,,,,,,,,,,,,,,,,,,,,,,
663cb982130f1384c9988214,TCR,2024-06-24_13h43.08.291,LearnStrategy,2023.2.3,Win32,60.24096386,,,,,,,,,,,3,14,2,7,,,,,,,,,,,,,,,,,,,,,,,,,,,,,
663cb982130f1384c9988214,TCR,2024-06-24_13h43.08.291,LearnStrategy,2023.2.3,Win32,60.24096386,,,,,,,,,,,1,02,2,8,,,,,,,,,,,,,,,,,,,,,,,,,,,,,
663cb982130f1384c9988214,TCR,2024-06-24_13h43.08.291,LearnStrategy,2023.2.3,Win32,60.24096386,,,,,,,,,,,4,13,3,1,,,,,,,,,,,,,,,,,,,,,,,,,,,,,
663cb982130f1384c9988214,TCR,2024-06-24_13h43.08.291,LearnStrategy,2023.2.3,Win32,60.24096386,,,,,,,,,,,2,08,3,2,,,,,,,,,,,,,,,,,,,,,,,,,,,,,
663cb982130f1384c9988214,TCR,2024-06-24_13h43.08.291,LearnStrategy,2023.2.3,Win32,60.24096386,,,,,,,,,,,1,11,3,3,,,,,,,,,,,,,,,,,,,,,,,,,,,,,
663cb982130f1384c9988214,TCR,2024-06-24_13h43.08.291,LearnStrategy,2023.2.3,Win32,60.24096386,,,,,,,,,,,6,08,3,4,,,,,,,,,,,,,,,,,,,,,,,,,,,,,
663cb982130f1384c9988214,TCR,2024-06-24_13h43.08.291,LearnStrategy,2023.2.3,Win32,60.24096386,,,,,,,,,,,4,15,3,5,,,,,,,,,,,,,,,,,,,,,,,,,,,,,
663cb982130f1384c9988214,TCR,2024-06-24_13h43.08.291,LearnStrategy,2023.2.3,Win32,60.24096386,,,,,,,,,,,8,16,3,6,,,,,,,,,,,,,,,,,,,,,,,,,,,,,
663cb982130f1384c9988214,TCR,2024-06-24_13h43.08.291,LearnStrategy,2023.2.3,Win32,60.24096386,,,,,,,,,,,2,05,3,7,,,,,,,,,,,,,,,,,,,,,,,,,,,,,
663cb982130f1384c9988214,TCR,2024-06-24_13h43.08.291,LearnStrategy,2023.2.3,Win32,60.24096386,,,,,,,,,,,1,07,3,8,,,,,,,,,,,,,,,,,,,,,,,,,,,,,
663cb982130f1384c9988214,TCR,2024-06-24_13h43.08.291,LearnStrategy,2023.2.3,Win32,60.24096386,,,,,,,,,,,6,05,4,1,,,,,,,,,,,,,,,,,,,,,,,,,,,,,
663cb982130f1384c9988214,TCR,2024-06-24_13h43.08.291,LearnStrategy,2023.2.3,Win32,60.24096386,,,,,,,,,,,5,06,4,2,,,,,,,,,,,,,,,,,,,,,,,,,,,,,
663cb982130f1384c9988214,TCR,2024-06-24_13h43.08.291,LearnStrategy,2023.2.3,Win32,60.24096386,,,,,,,,,,,5,11,4,3,,,,,,,,,,,,,,,,,,,,,,,,,,,,,
663cb982130f1384c9988214,TCR,2024-06-24_13h43.08.291,LearnStrategy,2023.2.3,Win32,60.24096386,,,,,,,,,,,2,02,4,4,,,,,,,,,,,,,,,,,,,,,,,,,,,,,
663cb982130f1384c9988214,TCR,2024-06-24_13h43.08.291,LearnStrategy,2023.2.3,Win32,60.24096386,,,,,,,,,,,3,10,4,5,,,,,,,,,,,,,,,,,,,,,,,,,,,,,
663cb982130f1384c9988214,TCR,2024-06-24_13h43.08.291,LearnStrategy,2023.2.3,Win32,60.24096386,,,,,,,,,,,5,14,4,6,,,,,,,,,,,,,,,,,,,,,,,,,,,,,
663cb982130f1384c9988214,TCR,2024-06-24_13h43.08.291,LearnStrategy,2023.2.3,Win32,60.24096386,,,,,,,,,,,3,15,4,7,,,,,,,,,,,,,,,,,,,,,,,,,,,,,
663cb982130f1384c9988214,TCR,2024-06-24_13h43.08.291,LearnStrategy,2023.2.3,Win32,60.24096386,,,,,,,,,,,8,05,4,8,,,,,,,,,,,,,,,,,,,,,,,,,,,,,
663cb982130f1384c9988214,TCR,2024-06-24_13h43.08.291,LearnStrategy,2023.2.3,Win32,60.24096386,,,,,,,,,,,5,09,5,1,,,,,,,,,,,,,,,,,,,,,,,,,,,,,
663cb982130f1384c9988214,TCR,2024-06-24_13h43.08.291,LearnStrategy,2023.2.3,Win32,60.24096386,,,,,,,,,,,8,15,5,2,,,,,,,,,,,,,,,,,,,,,,,,,,,,,
663cb982130f1384c9988214,TCR,2024-06-24_13h43.08.291,LearnStrategy,2023.2.3,Win32,60.24096386,,,,,,,,,,,2,10,5,3,,,,,,,,,,,,,,,,,,,,,,,,,,,,,
663cb982130f1384c9988214,TCR,2024-06-24_13h43.08.291,LearnStrategy,2023.2.3,Win32,60.24096386,,,,,,,,,,,2,12,5,4,,,,,,,,,,,,,,,,,,,,,,,,,,,,,
663cb982130f1384c9988214,TCR,2024-06-24_13h43.08.291,LearnStrategy,2023.2.3,Win32,60.24096386,,,,,,,,,,,2,14,5,5,,,,,,,,,,,,,,,,,,,,,,,,,,,,,
663cb982130f1384c9988214,TCR,2024-06-24_13h43.08.291,LearnStrategy,2023.2.3,Win32,60.24096386,,,,,,,,,,,7,07,5,6,,,,,,,,,,,,,,,,,,,,,,,,,,,,,
663cb982130f1384c9988214,TCR,2024-06-24_13h43.08.291,LearnStrategy,2023.2.3,Win32,60.24096386,,,,,,,,,,,5,08,5,7,,,,,,,,,,,,,,,,,,,,,,,,,,,,,
663cb982130f1384c9988214,TCR,2024-06-24_13h43.08.291,LearnStrategy,2023.2.3,Win32,60.24096386,,,,,,,,,,,8,10,5,8,,,,,,,,,,,,,,,,,,,,,,,,,,,,,
663cb982130f1384c9988214,TCR,2024-06-24_13h43.08.291,LearnStrategy,2023.2.3,Win32,60.24096386,,,,,,,,,,,5,16,6,1,,,,,,,,,,,,,,,,,,,,,,,,,,,,,
663cb982130f1384c9988214,TCR,2024-06-24_13h43.08.291,LearnStrategy,2023.2.3,Win32,60.24096386,,,,,,,,,,,7,12,6,2,,,,,,,,,,,,,,,,,,,,,,,,,,,,,
663cb982130f1384c9988214,TCR,2024-06-24_13h43.08.291,LearnStrategy,2023.2.3,Win32,60.24096386,,,,,,,,,,,3,13,6,3,,,,,,,,,,,,,,,,,,,,,,,,,,,,,
663cb982130f1384c9988214,TCR,2024-06-24_13h43.08.291,LearnStrategy,2023.2.3,Win32,60.24096386,,,,,,,,,,,6,07,6,4,,,,,,,,,,,,,,,,,,,,,,,,,,,,,
663cb982130f1384c9988214,TCR,2024-06-24_13h43.08.291,LearnStrategy,2023.2.3,Win32,60.24096386,,,,,,,,,,,3,02,6,5,,,,,,,,,,,,,,,,,,,,,,,,,,,,,
663cb982130f1384c9988214,TCR,2024-06-24_13h43.08.291,LearnStrategy,2023.2.3,Win32,60.24096386,,,,,,,,,,,4,11,6,6,,,,,,,,,,,,,,,,,,,,,,,,,,,,,
663cb982130f1384c9988214,TCR,2024-06-24_13h43.08.291,LearnStrategy,2023.2.3,Win32,60.24096386,,,,,,,,,,,4,09,6,7,,,,,,,,,,,,,,,,,,,,,,,,,,,,,
663cb982130f1384c9988214,TCR,2024-06-24_13h43.08.291,LearnStrategy,2023.2.3,Win32,60.24096386,,,,,,,,,,,6,13,6,8,,,,,,,,,,,,,,,,,,,,,,,,,,,,,