participant,condition,date,expName,psychopyVersion,OS,frameRate,block,phase,trial,learn_mouse.x,learn_mouse.y,learn_mouse.leftButton,learn_mouse.midButton,learn_mouse.rightButton,learn_mouse.time,learn_mouse.clicked_name,cat,token,row,col,t_select,cat_mouse_l.x,cat_mouse_l.y,cat_mouse_l.leftButton,cat_mouse_l.midButton,cat_mouse_l.rightButton,cat_mouse_l.time,cat_mouse_l.clicked_name,resp,t_resp,corr,train_trials.thisRepN,train_trials.thisTrialN,train_trials.thisN,train_trials.thisIndex,train_trials.ran,cat_mouse_t.x,cat_mouse_t.y,cat_mouse_t.leftButton,cat_mouse_t.midButton,cat_mouse_t.rightButton,cat_mouse_t.time,cat_mouse_t.clicked_name,test_trials.thisRepN,test_trials.thisTrialN,test_trials.thisN,test_trials.thisIndex,test_trials.ran,Bonus
664002d8362e289ab160faee,SCN,2024-06-11_12h23.14.860,LearnStrategy,2023.2.3,MacIntel,59.88023952,,,,,,,,,,,,,,,,,,,,,,,,,,,,,,,,,,,,,,,,,,,
664002d8362e289ab160faee,SCN,2024-06-11_12h23.14.860,LearnStrategy,2023.2.3,MacIntel,59.88023952,1,1,1,0.538871528,0.262795139,1,0,0,6.7698,Peridotite_13,7,13,5,8,6.77,-0.362456597,-0.242630208,1,0,0,6.776,Andesite_rect,1,6.776,0,0,0,0,0,1,,,,,,,,,,,,,
664002d8362e289ab160faee,SCN,2024-06-11_12h23.14.860,LearnStrategy,2023.2.3,MacIntel,59.88023952,1,1,2,-0.059791667,-0.098637153,1,0,0,3.3991,Obsidian_11,5,11,3,4,3.399,-0.377886285,-0.410186632,1,0,0,3.0331,Obsidian_rect,5,3.033,1,1,0,1,0,1,,,,,,,,,,,,,
664002d8362e289ab160faee,SCN,2024-06-11_12h23.14.860,LearnStrategy,2023.2.3,MacIntel,59.88023952,1,1,3,-0.550729167,0.257165799,1,0,0,7.9833,Diorite_13,3,13,5,1,7.983,-0.122747396,-0.25609375,1,0,0,8.7318,Basalt_rect,2,8.732,0,2,0,2,0,1,,,,,,,,,,,,,
664002d8362e289ab160faee,SCN,2024-06-11_12h23.14.860,LearnStrategy,2023.2.3,MacIntel,59.88023952,1,1,4,-0.233007812,-0.116536458,1,0,0,2.6993,Pegmatite_10,6,10,3,3,2.699,0.315095486,-0.231861979,1,0,0,9.4318,Gabbro_rect,4,9.432,0,3,0,3,0,1,,,,,,,,,,,,,
664002d8362e289ab160faee,SCN,2024-06-11_12h23.14.860,LearnStrategy,2023.2.3,MacIntel,59.88023952,1,1,5,0.247552083,0.072291667,1,0,0,11.8991,Obsidian_12,5,12,4,6,11.899,-0.091232639,-0.257230903,1,0,0,11.9829,Basalt_rect,2,11.983,0,4,0,4,0,1,,,,,,,,,,,,,
664002d8362e289ab160faee,SCN,2024-06-11_12h23.14.860,LearnStrategy,2023.2.3,MacIntel,59.88023952,1,1,6,-0.585182292,0.104084201,1,0,0,9.6162,Obsidian_06,5,06,4,1,9.616,-0.061236979,-0.239405382,1,0,0,5.9666,Basalt_rect,2,5.967,0,5,0,5,0,1,,,,,,,,,,,,,
664002d8362e289ab160faee,SCN,2024-06-11_12h23.14.860,LearnStrategy,2023.2.3,MacIntel,59.88023952,1,1,7,0.246597222,-0.408159722,1,0,0,1.0149,Andesite_03,1,03,1,6,1.015,-0.440321181,-0.246414931,1,0,0,4.8102,Andesite_rect,1,4.81,1,6,0,6,0,1,,,,,,,,,,,,,
664002d8362e289ab160faee,SCN,2024-06-11_12h23.14.860,LearnStrategy,2023.2.3,MacIntel,59.88023952,1,1,8,0.242790799,-0.246571181,1,0,0,1.5817,Andesite_04,1,04,2,6,1.582,0.398337674,-0.395429688,1,0,0,6.4444,Pumice_rect,8,6.444,0,7,0,7,0,1,,,,,,,,,,,,,
664002d8362e289ab160faee,SCN,2024-06-11_12h23.14.860,LearnStrategy,2023.2.3,MacIntel,59.88023952,1,1,9,-0.43030816,-0.250928819,1,0,0,2.414,Pumice_08,8,08,2,2,2.414,0.333346354,-0.386180556,1,0,0,3.794,Pumice_rect,8,3.794,1,8,0,8,0,1,,,,,,,,,,,,,
664002d8362e289ab160faee,SCN,2024-06-11_12h23.14.860,LearnStrategy,2023.2.3,MacIntel,59.88023952,1,1,10,0.090091146,-0.106801215,1,0,0,1.7485,Pumice_02,8,02,3,5,1.749,0.391931424,-0.240086806,1,0,0,4.1609,Gabbro_rect,4,4.161,0,9,0,9,0,1,,,,,,,,,,,,,
664002d8362e289ab160faee,SCN,2024-06-11_12h23.14.860,LearnStrategy,2023.2.3,MacIntel,59.88023952,1,1,11,0.212356771,0.408780382,1,0,0,1.2826,Pumice_05,8,05,6,6,1.283,0.380499132,-0.396736111,1,0,0,3.2246,Pumice_rect,8,3.225,1,10,0,10,0,1,,,,,,,,,,,,,
664002d8362e289ab160faee,SCN,2024-06-11_12h23.14.860,LearnStrategy,2023.2.3,MacIntel,59.88023952,1,1,12,-0.564309896,-0.088142361,1,0,0,3.5326,Andesite_07,1,07,3,1,3.533,0.470030382,-0.239444444,1,0,0,14.267,Gabbro_rect,4,14.267,0,11,0,11,0,1,,,,,,,,,,,,,
664002d8362e289ab160faee,SCN,2024-06-11_12h23.14.860,LearnStrategy,2023.2.3,MacIntel,59.88023952,1,1,13,0.066336806,-0.232109375,1,0,0,1.1486,Pumice_16,8,16,2,5,1.149,0.397352431,-0.407847222,1,0,0,3.8606,Pumice_rect,8,3.861,1,12,0,12,0,1,,,,,,,,,,,,,
664002d8362e289ab160faee,SCN,2024-06-11_12h23.14.860,LearnStrategy,2023.2.3,MacIntel,59.88023952,1,1,14,0.408823785,-0.240225694,1,0,0,1.1987,Basalt_04,2,04,2,7,1.199,-0.382899306,-0.244006076,1,0,0,12.7942,Andesite_rect,1,12.794,0,13,0,13,0,1,,,,,,,,,,,,,
664002d8362e289ab160faee,SCN,2024-06-11_12h23.14.860,LearnStrategy,2023.2.3,MacIntel,59.88023952,1,1,15,0.093541667,0.092078993,1,0,0,2.3816,Diorite_14,3,14,4,5,2.382,0.105598958,-0.240208333,1,0,0,23.7117,Diorite_rect,3,23.712,1,14,0,14,0,1,,,,,,,,,,,,,
664002d8362e289ab160faee,SCN,2024-06-11_12h23.14.860,LearnStrategy,2023.2.3,MacIntel,59.88023952,1,1,16,-0.207777778,-0.265460069,1,0,0,1.7481,Pegmatite_06,6,06,2,3,1.748,0.425872396,-0.250494792,1,0,0,16.7447,Gabbro_rect,4,16.745,0,15,0,15,0,1,,,,,,,,,,,,,
664002d8362e289ab160faee,SCN,2024-06-11_12h23.14.860,LearnStrategy,2023.2.3,MacIntel,59.88023952,1,2,1,,,,,,,,5,07,,,,,,,,,,,5,3.306,1,,,,,,-0.399392361,-0.39719184,1,0,0,3.306,Obsidian_rect,0,0,0,0,1,
664002d8362e289ab160faee,SCN,2024-06-11_12h23.14.860,LearnStrategy,2023.2.3,MacIntel,59.88023952,1,2,2,,,,,,,,3,07,,,,,,,,,,,3,6.524,1,,,,,,0.12016059,-0.245681424,1,0,0,6.5239,Diorite_rect,1,0,1,0,1,
664002d8362e289ab160faee,SCN,2024-06-11_12h23.14.860,LearnStrategy,2023.2.3,MacIntel,59.88023952,1,2,3,,,,,,,,2,08,,,,,,,,,,,2,3.341,1,,,,,,-0.086449653,-0.243268229,1,0,0,3.3415,Basalt_rect,2,0,2,0,1,
664002d8362e289ab160faee,SCN,2024-06-11_12h23.14.860,LearnStrategy,2023.2.3,MacIntel,59.88023952,1,2,4,,,,,,,,6,08,,,,,,,,,,,6,5.308,1,,,,,,-0.170256076,-0.406549479,1,0,0,5.3075,Pegmatite_rect,3,0,3,0,1,
664002d8362e289ab160faee,SCN,2024-06-11_12h23.14.860,LearnStrategy,2023.2.3,MacIntel,59.88023952,1,2,5,,,,,,,,4,05,,,,,,,,,,,7,8.54,0,,,,,,0.095338542,-0.382048611,1,0,0,8.5401,Peridotite_rect,4,0,4,0,1,
664002d8362e289ab160faee,SCN,2024-06-11_12h23.14.860,LearnStrategy,2023.2.3,MacIntel,59.88023952,1,2,6,,,,,,,,1,16,,,,,,,,,,,1,8.006,1,,,,,,-0.38406684,-0.233242188,1,0,0,8.0065,Andesite_rect,5,0,5,0,1,
664002d8362e289ab160faee,SCN,2024-06-11_12h23.14.860,LearnStrategy,2023.2.3,MacIntel,59.88023952,1,2,7,,,,,,,,7,16,,,,,,,,,,,1,13.558,0,,,,,,-0.376610243,-0.261909722,1,0,0,13.5575,Andesite_rect,6,0,6,0,1,
664002d8362e289ab160faee,SCN,2024-06-11_12h23.14.860,LearnStrategy,2023.2.3,MacIntel,59.88023952,1,2,8,,,,,,,,6,07,,,,,,,,,,,4,7.175,0,,,,,,0.396540799,-0.239613715,1,0,0,7.1754,Gabbro_rect,7,0,7,0,1,
664002d8362e289ab160faee,SCN,2024-06-11_12h23.14.860,LearnStrategy,2023.2.3,MacIntel,59.88023952,1,2,9,,,,,,,,8,06,,,,,,,,,,,8,5.809,1,,,,,,0.365203993,-0.412595486,1,0,0,5.8087,Pumice_rect,8,0,8,0,1,
664002d8362e289ab160faee,SCN,2024-06-11_12h23.14.860,LearnStrategy,2023.2.3,MacIntel,59.88023952,1,2,10,,,,,,,,7,12,,,,,,,,,,,3,23.643,0,,,,,,0.117582465,-0.234149306,1,0,0,23.6427,Diorite_rect,9,0,9,0,1,
664002d8362e289ab160faee,SCN,2024-06-11_12h23.14.860,LearnStrategy,2023.2.3,MacIntel,59.88023952,1,2,11,,,,,,,,3,08,,,,,,,,,,,3,2.558,1,,,,,,0.143012153,-0.246024306,1,0,0,2.5579,Diorite_rect,10,0,10,0,1,
664002d8362e289ab160faee,SCN,2024-06-11_12h23.14.860,LearnStrategy,2023.2.3,MacIntel,59.88023952,1,2,12,,,,,,,,4,10,,,,,,,,,,,8,6.742,0,,,,,,0.401892361,-0.399275174,1,0,0,6.7416,Pumice_rect,11,0,11,0,1,
664002d8362e289ab160faee,SCN,2024-06-11_12h23.14.860,LearnStrategy,2023.2.3,MacIntel,59.88023952,1,2,13,,,,,,,,2,01,,,,,,,,,,,2,4.045,1,,,,,,-0.102296007,-0.243172743,1,0,0,4.0451,Basalt_rect,12,0,12,0,1,
664002d8362e289ab160faee,SCN,2024-06-11_12h23.14.860,LearnStrategy,2023.2.3,MacIntel,59.88023952,1,2,14,,,,,,,,8,03,,,,,,,,,,,4,4.691,0,,,,,,0.357821181,-0.231141493,1,0,0,4.6912,Gabbro_rect,13,0,13,0,1,
664002d8362e289ab160faee,SCN,2024-06-11_12h23.14.860,LearnStrategy,2023.2.3,MacIntel,59.88023952,1,2,15,,,,,,,,5,08,,,,,,,,,,,5,1.756,1,,,,,,-0.365863715,-0.382829861,1,0,0,1.7564,Obsidian_rect,14,0,14,0,1,
664002d8362e289ab160faee,SCN,2024-06-11_12h23.14.860,LearnStrategy,2023.2.3,MacIntel,59.88023952,1,2,16,,,,,,,,1,02,,,,,,,,,,,1,5.592,1,,,,,,-0.355438368,-0.229440104,1,0,0,5.592,Andesite_rect,15,0,15,0,1,
664002d8362e289ab160faee,SCN,2024-06-11_12h23.14.860,LearnStrategy,2023.2.3,MacIntel,59.88023952,2,1,1,-0.368072917,-0.094205729,1,0,0,2.3142,Pegmatite_15,6,15,3,2,2.314,-0.114422743,-0.392330729,1,0,0,4.2761,Pegmatite_rect,6,4.276,1,0,0,0,0,1,,,,,,,,,,,,,
664002d8362e289ab160faee,SCN,2024-06-11_12h23.14.860,LearnStrategy,2023.2.3,MacIntel,59.88023952,2,1,2,0.203151042,0.21749566,1,0,0,5.7157,Diorite_15,3,15,5,6,5.716,0.089162326,-0.237599826,1,0,0,10.7517,Diorite_rect,3,10.752,1,1,0,1,0,1,,,,,,,,,,,,,
664002d8362e289ab160faee,SCN,2024-06-11_12h23.14.860,LearnStrategy,2023.2.3,MacIntel,59.88023952,2,1,3,0.082378472,-0.086302083,1,0,0,1.5151,Pumice_02,8,02,3,5,1.515,0.394344618,-0.390416667,1,0,0,2.8771,Pumice_rect,8,2.877,1,2,0,2,0,1,,,,,,,,,,,,,
664002d8362e289ab160faee,SCN,2024-06-11_12h23.14.860,LearnStrategy,2023.2.3,MacIntel,59.88023952,2,1,4,0.532473958,-0.138828125,1,0,0,2.2662,Pegmatite_11,6,11,3,8,2.266,0.461440972,-0.265043403,1,0,0,2.5655,Gabbro_rect,4,2.566,0,3,0,3,0,1,,,,,,,,,,,,,
664002d8362e289ab160faee,SCN,2024-06-11_12h23.14.860,LearnStrategy,2023.2.3,MacIntel,59.88023952,2,1,5,-0.375355903,0.115963542,1,0,0,3.0302,Pegmatite_12,6,12,4,2,3.03,0.091527778,-0.2303125,1,0,0,5.3939,Diorite_rect,3,5.394,0,4,0,4,0,1,,,,,,,,,,,,,
664002d8362e289ab160faee,SCN,2024-06-11_12h23.14.860,LearnStrategy,2023.2.3,MacIntel,59.88023952,2,1,6,-0.539097222,-0.07641059,1,0,0,22.1666,Andesite_07,1,07,3,1,22.167,-0.399470486,-0.256197917,1,0,0,13.3164,Andesite_rect,1,13.316,1,5,0,5,0,1,,,,,,,,,,,,,
664002d8362e289ab160faee,SCN,2024-06-11_12h23.14.860,LearnStrategy,2023.2.3,MacIntel,59.88023952,2,1,7,-0.08921441,-0.258511285,1,0,0,5.3661,Andesite_06,1,06,2,4,5.366,0.446202257,-0.228723958,1,0,0,1.2813,Gabbro_rect,4,1.281,0,6,0,6,0,1,,,,,,,,,,,,,
664002d8362e289ab160faee,SCN,2024-06-11_12h23.14.860,LearnStrategy,2023.2.3,MacIntel,59.88023952,2,1,8,-0.390438368,0.398789063,1,0,0,10.2661,Diorite_02,3,02,6,2,10.266,0.394761285,-0.259227431,1,0,0,2.816,Gabbro_rect,4,2.816,0,7,0,7,0,1,,,,,,,,,,,,,
664002d8362e289ab160faee,SCN,2024-06-11_12h23.14.860,LearnStrategy,2023.2.3,MacIntel,59.88023952,2,1,9,-0.22921875,0.413407118,1,0,0,2.2817,Peridotite_15,7,15,6,3,2.282,-0.060572917,-0.410876736,1,0,0,22.7116,Pegmatite_rect,6,22.712,0,8,0,8,0,1,,,,,,,,,,,,,
664002d8362e289ab160faee,SCN,2024-06-11_12h23.14.860,LearnStrategy,2023.2.3,MacIntel,59.88023952,2,1,10,0.553420139,-0.423654514,1,0,0,3.5145,Gabbro_09,4,09,1,8,3.515,0.429761285,-0.250138889,1,0,0,2.3609,Gabbro_rect,4,2.361,1,9,0,9,0,1,,,,,,,,,,,,,
664002d8362e289ab160faee,SCN,2024-06-11_12h23.14.860,LearnStrategy,2023.2.3,MacIntel,59.88023952,2,1,11,0.038172743,0.222113715,1,0,0,3.7662,Basalt_09,2,09,5,5,3.766,-0.085815972,-0.255846354,1,0,0,1.6487,Basalt_rect,2,1.649,1,10,0,10,0,1,,,,,,,,,,,,,
664002d8362e289ab160faee,SCN,2024-06-11_12h23.14.860,LearnStrategy,2023.2.3,MacIntel,59.88023952,2,1,12,0.080377604,-0.279101563,1,0,0,12.3496,Pumice_16,8,16,2,5,12.35,0.408511285,-0.395447049,1,0,0,6.0687,Pumice_rect,8,6.069,1,11,0,11,0,1,,,,,,,,,,,,,
664002d8362e289ab160faee,SCN,2024-06-11_12h23.14.860,LearnStrategy,2023.2.3,MacIntel,59.88023952,2,1,13,-0.40108941,-0.125303819,1,0,0,2.0653,Pegmatite_15,6,15,3,2,2.065,-0.114804688,-0.406875,1,0,0,1.8605,Pegmatite_rect,6,1.861,1,12,0,12,0,1,,,,,,,,,,,,,
664002d8362e289ab160faee,SCN,2024-06-11_12h23.14.860,LearnStrategy,2023.2.3,MacIntel,59.88023952,2,1,14,-0.406388889,0.258815104,1,0,0,3.099,Peridotite_07,7,07,5,2,3.099,-0.425625,-0.256840278,1,0,0,8.1165,Andesite_rect,1,8.116,0,13,0,13,0,1,,,,,,,,,,,,,
664002d8362e289ab160faee,SCN,2024-06-11_12h23.14.860,LearnStrategy,2023.2.3,MacIntel,59.88023952,2,1,15,-0.548072917,-0.358893229,1,0,0,4.4321,Pumice_04,8,04,1,1,4.432,0.462252604,-0.410672743,1,0,0,2.2159,Pumice_rect,8,2.216,1,14,0,14,0,1,,,,,,,,,,,,,
664002d8362e289ab160faee,SCN,2024-06-11_12h23.14.860,LearnStrategy,2023.2.3,MacIntel,59.88023952,2,1,16,0.262178819,0.251775174,1,0,0,1.8488,Diorite_15,3,15,5,6,1.849,0.125846354,-0.242491319,1,0,0,6.428,Diorite_rect,3,6.428,1,15,0,15,0,1,,,,,,,,,,,,,
664002d8362e289ab160faee,SCN,2024-06-11_12h23.14.860,LearnStrategy,2023.2.3,MacIntel,59.88023952,2,2,1,,,,,,,,1,10,,,,,,,,,,,1,39.707,1,,,,,,-0.330855035,-0.237526042,1,0,0,39.7067,Andesite_rect,0,0,0,0,1,
664002d8362e289ab160faee,SCN,2024-06-11_12h23.14.860,LearnStrategy,2023.2.3,MacIntel,59.88023952,2,2,2,,,,,,,,8,10,,,,,,,,,,,8,2.061,1,,,,,,0.392773437,-0.387990451,1,0,0,2.0606,Pumice_rect,1,0,1,0,1,
664002d8362e289ab160faee,SCN,2024-06-11_12h23.14.860,LearnStrategy,2023.2.3,MacIntel,59.88023952,2,2,3,,,,,,,,3,12,,,,,,,,,,,3,3.441,1,,,,,,0.104947917,-0.235503472,1,0,0,3.4406,Diorite_rect,2,0,2,0,1,
664002d8362e289ab160faee,SCN,2024-06-11_12h23.14.860,LearnStrategy,2023.2.3,MacIntel,59.88023952,2,2,4,,,,,,,,2,16,,,,,,,,,,,2,27.208,1,,,,,,-0.099700521,-0.24062066,1,0,0,27.208,Basalt_rect,3,0,3,0,1,
664002d8362e289ab160faee,SCN,2024-06-11_12h23.14.860,LearnStrategy,2023.2.3,MacIntel,59.88023952,2,2,5,,,,,,,,6,03,,,,,,,,,,,6,7.828,1,,,,,,-0.08891059,-0.415646701,1,0,0,7.8283,Pegmatite_rect,4,0,4,0,1,
664002d8362e289ab160faee,SCN,2024-06-11_12h23.14.860,LearnStrategy,2023.2.3,MacIntel,59.88023952,2,2,6,,,,,,,,1,05,,,,,,,,,,,1,4.691,1,,,,,,-0.359244792,-0.262842882,1,0,0,4.6908,Andesite_rect,5,0,5,0,1,
664002d8362e289ab160faee,SCN,2024-06-11_12h23.14.860,LearnStrategy,2023.2.3,MacIntel,59.88023952,2,2,7,,,,,,,,4,03,,,,,,,,,,,4,5.225,1,,,,,,0.409887153,-0.243806424,1,0,0,5.2249,Gabbro_rect,6,0,6,0,1,
664002d8362e289ab160faee,SCN,2024-06-11_12h23.14.860,LearnStrategy,2023.2.3,MacIntel,59.88023952,2,2,8,,,,,,,,2,11,,,,,,,,,,,8,24.292,0,,,,,,0.370967882,-0.385859375,1,0,0,24.2919,Pumice_rect,7,0,7,0,1,
664002d8362e289ab160faee,SCN,2024-06-11_12h23.14.860,LearnStrategy,2023.2.3,MacIntel,59.88023952,2,2,9,,,,,,,,5,14,,,,,,,,,,,5,2.641,1,,,,,,-0.365664062,-0.393658854,1,0,0,2.6409,Obsidian_rect,8,0,8,0,1,
664002d8362e289ab160faee,SCN,2024-06-11_12h23.14.860,LearnStrategy,2023.2.3,MacIntel,59.88023952,2,2,10,,,,,,,,8,13,,,,,,,,,,,8,4.258,1,,,,,,0.399105903,-0.388841146,1,0,0,4.2578,Pumice_rect,9,0,9,0,1,
664002d8362e289ab160faee,SCN,2024-06-11_12h23.14.860,LearnStrategy,2023.2.3,MacIntel,59.88023952,2,2,11,,,,,,,,3,11,,,,,,,,,,,3,3.857,1,,,,,,0.146124132,-0.253546007,1,0,0,3.8569,Diorite_rect,10,0,10,0,1,
664002d8362e289ab160faee,SCN,2024-06-11_12h23.14.860,LearnStrategy,2023.2.3,MacIntel,59.88023952,2,2,12,,,,,,,,4,14,,,,,,,,,,,7,51.342,0,,,,,,0.132699653,-0.413524306,1,0,0,51.3424,Peridotite_rect,11,0,11,0,1,
664002d8362e289ab160faee,SCN,2024-06-11_12h23.14.860,LearnStrategy,2023.2.3,MacIntel,59.88023952,2,2,13,,,,,,,,7,02,,,,,,,,,,,7,5.607,1,,,,,,0.155989583,-0.408250868,1,0,0,5.6068,Peridotite_rect,12,0,12,0,1,
664002d8362e289ab160faee,SCN,2024-06-11_12h23.14.860,LearnStrategy,2023.2.3,MacIntel,59.88023952,2,2,14,,,,,,,,5,10,,,,,,,,,,,5,1.874,1,,,,,,-0.362773438,-0.408376736,1,0,0,1.8736,Obsidian_rect,13,0,13,0,1,
664002d8362e289ab160faee,SCN,2024-06-11_12h23.14.860,LearnStrategy,2023.2.3,MacIntel,59.88023952,2,2,15,,,,,,,,6,05,,,,,,,,,,,3,10.559,0,,,,,,0.1415625,-0.241236979,1,0,0,10.5586,Diorite_rect,14,0,14,0,1,
664002d8362e289ab160faee,SCN,2024-06-11_12h23.14.860,LearnStrategy,2023.2.3,MacIntel,59.88023952,2,2,16,,,,,,,,7,10,,,,,,,,,,,7,6.808,1,,,,,,0.120368924,-0.41562934,1,0,0,6.8081,Peridotite_rect,15,0,15,0,1,
664002d8362e289ab160faee,SCN,2024-06-11_12h23.14.860,LearnStrategy,2023.2.3,MacIntel,59.88023952,3,1,1,-0.093337674,0.395190972,1,0,0,1.4302,Gabbro_13,4,13,6,4,1.43,0.143914931,-0.246749132,1,0,0,9.5259,Diorite_rect,3,9.526,0,0,0,0,0,1,,,,,,,,,,,,,
664002d8362e289ab160faee,SCN,2024-06-11_12h23.14.860,LearnStrategy,2023.2.3,MacIntel,59.88023952,3,1,2,-0.567083333,0.369678819,1,0,0,3.4149,Peridotite_05,7,05,6,1,3.415,0.185920139,-0.395342882,1,0,0,2.2502,Peridotite_rect,7,2.25,1,1,0,1,0,1,,,,,,,,,,,,,
664002d8362e289ab160faee,SCN,2024-06-11_12h23.14.860,LearnStrategy,2023.2.3,MacIntel,59.88023952,3,1,3,-0.392000868,0.418519965,1,0,0,0.9822,Diorite_02,3,02,6,2,0.982,0.127256944,-0.251063368,1,0,0,2.8442,Diorite_rect,3,2.844,1,2,0,2,0,1,,,,,,,,,,,,,
664002d8362e289ab160faee,SCN,2024-06-11_12h23.14.860,LearnStrategy,2023.2.3,MacIntel,59.88023952,3,1,4,0.0984375,0.386827257,1,0,0,3.1326,Diorite_10,3,10,6,5,3.133,0.126631944,-0.245095486,1,0,0,10.5007,Diorite_rect,3,10.501,1,3,0,3,0,1,,,,,,,,,,,,,
664002d8362e289ab160faee,SCN,2024-06-11_12h23.14.860,LearnStrategy,2023.2.3,MacIntel,59.88023952,3,1,5,0.276488715,0.413823785,1,0,0,0.8318,Pumice_05,8,05,6,6,0.832,0.370134549,-0.401284722,1,0,0,1.2441,Pumice_rect,8,1.244,1,4,0,4,0,1,,,,,,,,,,,,,
664002d8362e289ab160faee,SCN,2024-06-11_12h23.14.860,LearnStrategy,2023.2.3,MacIntel,59.88023952,3,1,6,0.408550347,0.39124566,1,0,0,0.7156,Peridotite_08,7,08,6,7,0.716,0.133858507,-0.413546007,1,0,0,1.5757,Peridotite_rect,7,1.576,1,5,0,5,0,1,,,,,,,,,,,,,
664002d8362e289ab160faee,SCN,2024-06-11_12h23.14.860,LearnStrategy,2023.2.3,MacIntel,59.88023952,3,1,7,0.532612847,0.371284722,1,0,0,0.8659,Andesite_09,1,09,6,8,0.866,0.333611111,-0.258815104,1,0,0,1.4273,Gabbro_rect,4,1.427,0,6,0,6,0,1,,,,,,,,,,,,,
664002d8362e289ab160faee,SCN,2024-06-11_12h23.14.860,LearnStrategy,2023.2.3,MacIntel,59.88023952,3,1,8,-0.565551215,0.250798611,1,0,0,1.3656,Diorite_13,3,13,5,1,1.366,0.082942708,-0.262786458,1,0,0,1.5945,Diorite_rect,3,1.594,1,7,0,7,0,1,,,,,,,,,,,,,
664002d8362e289ab160faee,SCN,2024-06-11_12h23.14.860,LearnStrategy,2023.2.3,MacIntel,59.88023952,3,1,9,-0.361597222,0.247131076,1,0,0,0.7487,Peridotite_07,7,07,5,2,0.749,0.181662326,-0.389422743,1,0,0,1.3108,Peridotite_rect,7,1.311,1,8,0,8,0,1,,,,,,,,,,,,,
664002d8362e289ab160faee,SCN,2024-06-11_12h23.14.860,LearnStrategy,2023.2.3,MacIntel,59.88023952,3,1,10,-0.061914062,0.233537326,1,0,0,1.9826,Gabbro_11,4,11,5,4,1.983,0.34234809,-0.229887153,1,0,0,3.2103,Gabbro_rect,4,3.21,1,9,0,9,0,1,,,,,,,,,,,,,
664002d8362e289ab160faee,SCN,2024-06-11_12h23.14.860,LearnStrategy,2023.2.3,MacIntel,59.88023952,3,1,11,0.068198785,0.250043403,1,0,0,0.6811,Basalt_09,2,09,5,5,0.681,-0.111736111,-0.23406684,1,0,0,2.7103,Basalt_rect,2,2.71,1,10,0,10,0,1,,,,,,,,,,,,,
664002d8362e289ab160faee,SCN,2024-06-11_12h23.14.860,LearnStrategy,2023.2.3,MacIntel,59.88023952,3,1,12,0.226844618,0.228177083,1,0,0,1.1983,Diorite_15,3,15,5,6,1.198,0.10015625,-0.258003472,1,0,0,2.1773,Diorite_rect,3,2.177,1,11,0,11,0,1,,,,,,,,,,,,,
664002d8362e289ab160faee,SCN,2024-06-11_12h23.14.860,LearnStrategy,2023.2.3,MacIntel,59.88023952,3,1,13,0.412365451,0.223263889,1,0,0,1.1994,Gabbro_12,4,12,5,7,1.199,0.416289062,-0.268993056,1,0,0,3.7076,Gabbro_rect,4,3.708,1,12,0,12,0,1,,,,,,,,,,,,,
664002d8362e289ab160faee,SCN,2024-06-11_12h23.14.860,LearnStrategy,2023.2.3,MacIntel,59.88023952,3,1,14,0.559500868,0.228984375,1,0,0,5.7483,Peridotite_13,7,13,5,8,5.748,0.125221354,-0.408151042,1,0,0,12.7171,Peridotite_rect,7,12.717,1,13,0,13,0,1,,,,,,,,,,,,,
664002d8362e289ab160faee,SCN,2024-06-11_12h23.14.860,LearnStrategy,2023.2.3,MacIntel,59.88023952,3,1,15,-0.419700521,0.083836806,1,0,0,2.2127,Pegmatite_12,6,12,4,2,2.213,-0.082395833,-0.402543403,1,0,0,5.8287,Pegmatite_rect,6,5.829,1,14,0,14,0,1,,,,,,,,,,,,,
664002d8362e289ab160faee,SCN,2024-06-11_12h23.14.860,LearnStrategy,2023.2.3,MacIntel,59.88023952,3,1,16,-0.22733941,0.098307292,1,0,0,0.8325,Basalt_06,2,06,4,3,0.832,-0.060993924,-0.248142361,1,0,0,2.0437,Basalt_rect,2,2.044,1,15,0,15,0,1,,,,,,,,,,,,,
664002d8362e289ab160faee,SCN,2024-06-11_12h23.14.860,LearnStrategy,2023.2.3,MacIntel,59.88023952,3,2,1,,,,,,,,1,01,,,,,,,,,,,4,10.842,0,,,,,,0.421236979,-0.247369792,1,0,0,10.8421,Gabbro_rect,0,0,0,0,1,
664002d8362e289ab160faee,SCN,2024-06-11_12h23.14.860,LearnStrategy,2023.2.3,MacIntel,59.88023952,3,2,2,,,,,,,,6,09,,,,,,,,,,,6,12.559,1,,,,,,-0.083428819,-0.387912326,1,0,0,12.5587,Pegmatite_rect,1,0,1,0,1,
664002d8362e289ab160faee,SCN,2024-06-11_12h23.14.860,LearnStrategy,2023.2.3,MacIntel,59.88023952,3,2,3,,,,,,,,5,16,,,,,,,,,,,5,1.245,1,,,,,,-0.34484375,-0.378576389,1,0,0,1.245,Obsidian_rect,2,0,2,0,1,
664002d8362e289ab160faee,SCN,2024-06-11_12h23.14.860,LearnStrategy,2023.2.3,MacIntel,59.88023952,3,2,4,,,,,,,,4,01,,,,,,,,,,,1,16.425,0,,,,,,-0.359388021,-0.252925347,1,0,0,16.425,Andesite_rect,3,0,3,0,1,
664002d8362e289ab160faee,SCN,2024-06-11_12h23.14.860,LearnStrategy,2023.2.3,MacIntel,59.88023952,3,2,5,,,,,,,,3,06,,,,,,,,,,,3,3.075,1,,,,,,0.130559896,-0.238550347,1,0,0,3.0755,Diorite_rect,4,0,4,0,1,
664002d8362e289ab160faee,SCN,2024-06-11_12h23.14.860,LearnStrategy,2023.2.3,MacIntel,59.88023952,3,2,6,,,,,,,,6,13,,,,,,,,,,,6,26.026,1,,,,,,-0.109895833,-0.406193576,1,0,0,26.0258,Pegmatite_rect,5,0,5,0,1,
664002d8362e289ab160faee,SCN,2024-06-11_12h23.14.860,LearnStrategy,2023.2.3,MacIntel,59.88023952,3,2,7,,,,,,,,2,05,,,,,,,,,,,2,1.309,1,,,,,,-0.126076389,-0.257400174,1,0,0,1.3086,Basalt_rect,6,0,6,0,1,
664002d8362e289ab160faee,SCN,2024-06-11_12h23.14.860,LearnStrategy,2023.2.3,MacIntel,59.88023952,3,2,8,,,,,,,,4,08,,,,,,,,,,,4,4.859,1,,,,,,0.422686632,-0.254817708,1,0,0,4.8587,Gabbro_rect,7,0,7,0,1,
664002d8362e289ab160faee,SCN,2024-06-11_12h23.14.860,LearnStrategy,2023.2.3,MacIntel,59.88023952,3,2,9,,,,,,,,7,04,,,,,,,,,,,4,29.592,0,,,,,,0.370894097,-0.250538194,1,0,0,29.5921,Gabbro_rect,8,0,8,0,1,
664002d8362e289ab160faee,SCN,2024-06-11_12h23.14.860,LearnStrategy,2023.2.3,MacIntel,59.88023952,3,2,10,,,,,,,,2,02,,,,,,,,,,,2,1.641,1,,,,,,-0.154301215,-0.249153646,1,0,0,1.6408,Basalt_rect,9,0,9,0,1,
664002d8362e289ab160faee,SCN,2024-06-11_12h23.14.860,LearnStrategy,2023.2.3,MacIntel,59.88023952,3,2,11,,,,,,,,5,05,,,,,,,,,,,5,1.609,1,,,,,,-0.382335069,-0.387751736,1,0,0,1.6087,Obsidian_rect,10,0,10,0,1,
664002d8362e289ab160faee,SCN,2024-06-11_12h23.14.860,LearnStrategy,2023.2.3,MacIntel,59.88023952,3,2,12,,,,,,,,1,14,,,,,,,,,,,1,3.224,1,,,,,,-0.373919271,-0.234331597,1,0,0,3.2237,Andesite_rect,11,0,11,0,1,
664002d8362e289ab160faee,SCN,2024-06-11_12h23.14.860,LearnStrategy,2023.2.3,MacIntel,59.88023952,3,2,13,,,,,,,,8,09,,,,,,,,,,,8,1.226,1,,,,,,0.382404514,-0.395047743,1,0,0,1.2265,Pumice_rect,12,0,12,0,1,
664002d8362e289ab160faee,SCN,2024-06-11_12h23.14.860,LearnStrategy,2023.2.3,MacIntel,59.88023952,3,2,14,,,,,,,,3,16,,,,,,,,,,,3,1.558,1,,,,,,0.139739583,-0.238081597,1,0,0,1.5583,Diorite_rect,13,0,13,0,1,
664002d8362e289ab160faee,SCN,2024-06-11_12h23.14.860,LearnStrategy,2023.2.3,MacIntel,59.88023952,3,2,15,,,,,,,,7,06,,,,,,,,,,,7,5.542,1,,,,,,0.101861979,-0.4075,1,0,0,5.5422,Peridotite_rect,14,0,14,0,1,
664002d8362e289ab160faee,SCN,2024-06-11_12h23.14.860,LearnStrategy,2023.2.3,MacIntel,59.88023952,3,2,16,,,,,,,,8,14,,,,,,,,,,,8,1.125,1,,,,,,0.435212674,-0.391631944,1,0,0,1.1246,Pumice_rect,15,0,15,0,1,
664002d8362e289ab160faee,SCN,2024-06-11_12h23.14.860,LearnStrategy,2023.2.3,MacIntel,59.88023952,4,1,1,-0.376384549,0.230963542,1,0,0,3.9827,Peridotite_07,7,07,5,2,3.983,0.138823785,-0.408802083,1,0,0,1.2987,Peridotite_rect,7,1.299,1,0,0,0,0,1,,,,,,,,,,,,,
664002d8362e289ab160faee,SCN,2024-06-11_12h23.14.860,LearnStrategy,2023.2.3,MacIntel,59.88023952,4,1,2,-0.062335069,0.238663194,1,0,0,2.2989,Gabbro_11,4,11,5,4,2.299,0.395199653,-0.234422743,1,0,0,1.0439,Gabbro_rect,4,1.044,1,1,0,1,0,1,,,,,,,,,,,,,
664002d8362e289ab160faee,SCN,2024-06-11_12h23.14.860,LearnStrategy,2023.2.3,MacIntel,59.88023952,4,1,3,0.060121528,0.245447049,1,0,0,0.6824,Basalt_09,2,09,5,5,0.682,-0.083684896,-0.24703559,1,0,0,1.2114,Basalt_rect,2,1.211,1,2,0,2,0,1,,,,,,,,,,,,,
664002d8362e289ab160faee,SCN,2024-06-11_12h23.14.860,LearnStrategy,2023.2.3,MacIntel,59.88023952,4,1,4,0.217851563,0.255520833,1,0,0,0.7825,Diorite_15,3,15,5,6,0.783,0.091631944,-0.260069444,1,0,0,0.7111,Diorite_rect,3,0.711,1,3,0,3,0,1,,,,,,,,,,,,,
664002d8362e289ab160faee,SCN,2024-06-11_12h23.14.860,LearnStrategy,2023.2.3,MacIntel,59.88023952,4,1,5,0.423862847,0.245390625,1,0,0,1.0324,Gabbro_12,4,12,5,7,1.032,0.361163194,-0.264192708,1,0,0,0.8773,Gabbro_rect,4,0.877,1,4,0,4,0,1,,,,,,,,,,,,,
664002d8362e289ab160faee,SCN,2024-06-11_12h23.14.860,LearnStrategy,2023.2.3,MacIntel,59.88023952,4,1,6,0.577586806,0.272782118,1,0,0,0.8656,Peridotite_13,7,13,5,8,0.866,0.15296441,-0.421519097,1,0,0,1.8269,Peridotite_rect,7,1.827,1,5,0,5,0,1,,,,,,,,,,,,,
664002d8362e289ab160faee,SCN,2024-06-11_12h23.14.860,LearnStrategy,2023.2.3,MacIntel,59.88023952,4,1,7,-0.363962674,0.078272569,1,0,0,1.5812,Pegmatite_12,6,12,4,2,1.581,-0.076323785,-0.393324653,1,0,0,4.7286,Pegmatite_rect,6,4.729,1,6,0,6,0,1,,,,,,,,,,,,,
664002d8362e289ab160faee,SCN,2024-06-11_12h23.14.860,LearnStrategy,2023.2.3,MacIntel,59.88023952,4,1,8,-0.223763021,0.108072917,1,0,0,1.2982,Basalt_06,2,06,4,3,1.298,-0.129774306,-0.254123264,1,0,0,0.7274,Basalt_rect,2,0.727,1,7,0,7,0,1,,,,,,,,,,,,,
664002d8362e289ab160faee,SCN,2024-06-11_12h23.14.860,LearnStrategy,2023.2.3,MacIntel,59.88023952,4,1,9,-0.042204861,0.074696181,1,0,0,0.7823,Basalt_12,2,12,4,4,0.782,0.354149306,-0.387725694,1,0,0,1.5772,Pumice_rect,8,1.577,0,8,0,8,0,1,,,,,,,,,,,,,
664002d8362e289ab160faee,SCN,2024-06-11_12h23.14.860,LearnStrategy,2023.2.3,MacIntel,59.88023952,4,1,10,0.083767361,0.09484809,1,0,0,0.6657,Diorite_14,3,14,4,5,0.666,0.102400174,-0.25281684,1,0,0,0.8108,Diorite_rect,3,0.811,1,9,0,9,0,1,,,,,,,,,,,,,
664002d8362e289ab160faee,SCN,2024-06-11_12h23.14.860,LearnStrategy,2023.2.3,MacIntel,59.88023952,4,1,11,0.247261285,0.059010417,1,0,0,0.6491,Obsidian_12,5,12,4,6,0.649,-0.356315104,-0.411497396,1,0,0,1.5926,Obsidian_rect,5,1.593,1,10,0,10,0,1,,,,,,,,,,,,,
664002d8362e289ab160faee,SCN,2024-06-11_12h23.14.860,LearnStrategy,2023.2.3,MacIntel,59.88023952,4,1,12,0.368055556,0.091588542,1,0,0,1.0993,Pumice_15,8,15,4,7,1.099,0.334765625,-0.415364583,1,0,0,1.0935,Pumice_rect,8,1.093,1,11,0,11,0,1,,,,,,,,,,,,,
664002d8362e289ab160faee,SCN,2024-06-11_12h23.14.860,LearnStrategy,2023.2.3,MacIntel,59.88023952,4,1,13,0.595243056,0.077135417,1,0,0,0.7492,Obsidian_09,5,09,4,8,0.749,-0.347586806,-0.384227431,1,0,0,2.2111,Obsidian_rect,5,2.211,1,12,0,12,0,1,,,,,,,,,,,,,
664002d8362e289ab160faee,SCN,2024-06-11_12h23.14.860,LearnStrategy,2023.2.3,MacIntel,59.88023952,4,1,14,-0.525099826,-0.127530382,1,0,0,1.1828,Andesite_07,1,07,3,1,1.183,-0.407235243,-0.235503472,1,0,0,1.1947,Andesite_rect,1,1.195,1,13,0,13,0,1,,,,,,,,,,,,,
664002d8362e289ab160faee,SCN,2024-06-11_12h23.14.860,LearnStrategy,2023.2.3,MacIntel,59.88023952,4,1,15,-0.382903646,-0.089353299,1,0,0,0.8328,Pegmatite_15,6,15,3,2,0.833,-0.11625434,-0.401059028,1,0,0,0.9934,Pegmatite_rect,6,0.993,1,14,0,14,0,1,,,,,,,,,,,,,
664002d8362e289ab160faee,SCN,2024-06-11_12h23.14.860,LearnStrategy,2023.2.3,MacIntel,59.88023952,4,1,16,-0.196840278,-0.102473958,1,0,0,0.8154,Pegmatite_10,6,10,3,3,0.815,0.114969618,-0.395772569,1,0,0,2.1412,Peridotite_rect,7,2.141,0,15,0,15,0,1,,,,,,,,,,,,,
664002d8362e289ab160faee,SCN,2024-06-11_12h23.14.860,LearnStrategy,2023.2.3,MacIntel,59.88023952,4,2,1,,,,,,,,5,16,,,,,,,,,,,5,1.188,1,,,,,,-0.409270833,-0.400186632,1,0,0,1.1881,Obsidian_rect,0,0,0,0,1,
664002d8362e289ab160faee,SCN,2024-06-11_12h23.14.860,LearnStrategy,2023.2.3,MacIntel,59.88023952,4,2,2,,,,,,,,8,13,,,,,,,,,,,8,1.625,1,,,,,,0.395633681,-0.414665799,1,0,0,1.6246,Pumice_rect,1,0,1,0,1,
664002d8362e289ab160faee,SCN,2024-06-11_12h23.14.860,LearnStrategy,2023.2.3,MacIntel,59.88023952,4,2,3,,,,,,,,7,02,,,,,,,,,,,7,1.49,1,,,,,,0.159874132,-0.414518229,1,0,0,1.4903,Peridotite_rect,2,0,2,0,1,
664002d8362e289ab160faee,SCN,2024-06-11_12h23.14.860,LearnStrategy,2023.2.3,MacIntel,59.88023952,4,2,4,,,,,,,,3,11,,,,,,,,,,,3,1.091,1,,,,,,0.111449653,-0.24858941,1,0,0,1.0909,Diorite_rect,3,0,3,0,1,
664002d8362e289ab160faee,SCN,2024-06-11_12h23.14.860,LearnStrategy,2023.2.3,MacIntel,59.88023952,4,2,5,,,,,,,,6,07,,,,,,,,,,,6,1.608,1,,,,,,-0.089835069,-0.413333333,1,0,0,1.6078,Pegmatite_rect,4,0,4,0,1,
664002d8362e289ab160faee,SCN,2024-06-11_12h23.14.860,LearnStrategy,2023.2.3,MacIntel,59.88023952,4,2,6,,,,,,,,3,12,,,,,,,,,,,3,1.208,1,,,,,,0.076671007,-0.235976562,1,0,0,1.2077,Diorite_rect,5,0,5,0,1,
664002d8362e289ab160faee,SCN,2024-06-11_12h23.14.860,LearnStrategy,2023.2.3,MacIntel,59.88023952,4,2,7,,,,,,,,5,05,,,,,,,,,,,5,1.057,1,,,,,,-0.38077691,-0.399244792,1,0,0,1.0567,Obsidian_rect,6,0,6,0,1,
664002d8362e289ab160faee,SCN,2024-06-11_12h23.14.860,LearnStrategy,2023.2.3,MacIntel,59.88023952,4,2,8,,,,,,,,6,05,,,,,,,,,,,6,33.026,1,,,,,,-0.130625,-0.408867188,1,0,0,33.0263,Pegmatite_rect,7,0,7,0,1,
664002d8362e289ab160faee,SCN,2024-06-11_12h23.14.860,LearnStrategy,2023.2.3,MacIntel,59.88023952,4,2,9,,,,,,,,8,06,,,,,,,,,,,8,3.35,1,,,,,,0.365481771,-0.401866319,1,0,0,3.3504,Pumice_rect,8,0,8,0,1,
664002d8362e289ab160faee,SCN,2024-06-11_12h23.14.860,LearnStrategy,2023.2.3,MacIntel,59.88023952,4,2,10,,,,,,,,2,02,,,,,,,,,,,2,1.134,1,,,,,,-0.081332465,-0.270290799,1,0,0,1.1336,Basalt_rect,9,0,9,0,1,
664002d8362e289ab160faee,SCN,2024-06-11_12h23.14.860,LearnStrategy,2023.2.3,MacIntel,59.88023952,4,2,11,,,,,,,,1,02,,,,,,,,,,,1,5.375,1,,,,,,-0.345412326,-0.243320312,1,0,0,5.375,Andesite_rect,10,0,10,0,1,
664002d8362e289ab160faee,SCN,2024-06-11_12h23.14.860,LearnStrategy,2023.2.3,MacIntel,59.88023952,4,2,12,,,,,,,,1,01,,,,,,,,,,,4,3.276,0,,,,,,0.383268229,-0.250759549,1,0,0,3.2756,Gabbro_rect,11,0,11,0,1,
664002d8362e289ab160faee,SCN,2024-06-11_12h23.14.860,LearnStrategy,2023.2.3,MacIntel,59.88023952,4,2,13,,,,,,,,2,01,,,,,,,,,,,2,1.158,1,,,,,,-0.061592882,-0.243355035,1,0,0,1.1582,Basalt_rect,12,0,12,0,1,
664002d8362e289ab160faee,SCN,2024-06-11_12h23.14.860,LearnStrategy,2023.2.3,MacIntel,59.88023952,4,2,14,,,,,,,,4,03,,,,,,,,,,,4,1.292,1,,,,,,0.399157986,-0.249739583,1,0,0,1.292,Gabbro_rect,13,0,13,0,1,
664002d8362e289ab160faee,SCN,2024-06-11_12h23.14.860,LearnStrategy,2023.2.3,MacIntel,59.88023952,4,2,15,,,,,,,,4,01,,,,,,,,,,,1,6.293,0,,,,,,-0.384513889,-0.245824653,1,0,0,6.2931,Andesite_rect,14,0,14,0,1,
664002d8362e289ab160faee,SCN,2024-06-11_12h23.14.860,LearnStrategy,2023.2.3,MacIntel,59.88023952,4,2,16,,,,,,,,7,12,,,,,,,,,,,3,8.475,0,,,,,,0.162790799,-0.258654514,1,0,0,8.475,Diorite_rect,15,0,15,0,1,
664002d8362e289ab160faee,SCN,2024-06-11_12h23.14.860,LearnStrategy,2023.2.3,MacIntel,59.88023952,5,1,1,-0.222465278,-0.100946181,1,0,0,21.3492,Pegmatite_10,6,10,3,3,21.349,-0.163541667,-0.401575521,1,0,0,1.0132,Pegmatite_rect,6,1.013,1,0,0,0,0,1,,,,,,,,,,,,,
664002d8362e289ab160faee,SCN,2024-06-11_12h23.14.860,LearnStrategy,2023.2.3,MacIntel,59.88023952,5,1,2,0.089704861,-0.122638889,1,0,0,1.7991,Pumice_02,8,02,3,5,1.799,0.372630208,-0.411072049,1,0,0,1.4772,Pumice_rect,8,1.477,1,1,0,1,0,1,,,,,,,,,,,,,
664002d8362e289ab160faee,SCN,2024-06-11_12h23.14.860,LearnStrategy,2023.2.3,MacIntel,59.88023952,5,1,3,0.250095486,-0.114939236,1,0,0,1.8326,Peridotite_14,7,14,3,6,1.833,0.104418403,-0.393567708,1,0,0,5.4936,Peridotite_rect,7,5.494,1,2,0,2,0,1,,,,,,,,,,,,,
664002d8362e289ab160faee,SCN,2024-06-11_12h23.14.860,LearnStrategy,2023.2.3,MacIntel,59.88023952,5,1,4,0.409835069,-0.113502604,1,0,0,1.332,Basalt_14,2,14,3,7,1.332,0.393350694,-0.402113715,1,0,0,1.4603,Pumice_rect,8,1.46,0,3,0,3,0,1,,,,,,,,,,,,,
664002d8362e289ab160faee,SCN,2024-06-11_12h23.14.860,LearnStrategy,2023.2.3,MacIntel,59.88023952,5,1,5,-0.218984375,-0.279162326,1,0,0,3.9658,Pegmatite_06,6,06,2,3,3.966,-0.091909722,-0.397769097,1,0,0,4.3499,Pegmatite_rect,6,4.35,1,4,0,4,0,1,,,,,,,,,,,,,
664002d8362e289ab160faee,SCN,2024-06-11_12h23.14.860,LearnStrategy,2023.2.3,MacIntel,59.88023952,5,1,6,-0.042222222,-0.241992188,1,0,0,1.4997,Andesite_06,1,06,2,4,1.5,-0.349023437,-0.229570313,1,0,0,1.3095,Andesite_rect,1,1.309,1,5,0,5,0,1,,,,,,,,,,,,,
664002d8362e289ab160faee,SCN,2024-06-11_12h23.14.860,LearnStrategy,2023.2.3,MacIntel,59.88023952,5,1,7,0.22156684,-0.277721354,1,0,0,1.4822,Andesite_04,1,04,2,6,1.482,0.375203993,-0.250056424,1,0,0,3.0436,Gabbro_rect,4,3.044,0,6,0,6,0,1,,,,,,,,,,,,,
664002d8362e289ab160faee,SCN,2024-06-11_12h23.14.860,LearnStrategy,2023.2.3,MacIntel,59.88023952,5,1,8,0.527842882,-0.263389757,1,0,0,2.1662,Pegmatite_16,6,16,2,8,2.166,-0.106766493,-0.394552951,1,0,0,1.3436,Pegmatite_rect,6,1.344,1,7,0,7,0,1,,,,,,,,,,,,,
664002d8362e289ab160faee,SCN,2024-06-11_12h23.14.860,LearnStrategy,2023.2.3,MacIntel,59.88023952,5,1,9,-0.535286458,-0.427417535,1,0,0,3.666,Pumice_04,8,04,1,1,3.666,0.36859809,-0.391888021,1,0,0,1.3501,Pumice_rect,8,1.35,1,8,0,8,0,1,,,,,,,,,,,,,
664002d8362e289ab160faee,SCN,2024-06-11_12h23.14.860,LearnStrategy,2023.2.3,MacIntel,59.88023952,5,1,10,-0.241210938,-0.451809896,1,0,0,0.7157,Gabbro_16,4,16,1,3,0.716,-0.083693576,-0.242135417,1,0,0,3.0436,Basalt_rect,2,3.044,0,9,0,9,0,1,,,,,,,,,,,,,
664002d8362e289ab160faee,SCN,2024-06-11_12h23.14.860,LearnStrategy,2023.2.3,MacIntel,59.88023952,5,1,11,-0.060260417,-0.435616319,1,0,0,1.1156,Diorite_09,3,09,1,4,1.116,0.075954861,-0.236805556,1,0,0,0.659,Diorite_rect,3,0.659,1,10,0,10,0,1,,,,,,,,,,,,,
664002d8362e289ab160faee,SCN,2024-06-11_12h23.14.860,LearnStrategy,2023.2.3,MacIntel,59.88023952,5,1,12,0.115772569,-0.417799479,1,0,0,0.9324,Andesite_11,1,11,1,5,0.932,-0.363559028,-0.262430556,1,0,0,1.727,Andesite_rect,1,1.727,1,11,0,11,0,1,,,,,,,,,,,,,
664002d8362e289ab160faee,SCN,2024-06-11_12h23.14.860,LearnStrategy,2023.2.3,MacIntel,59.88023952,5,1,13,0.256918403,-0.411388889,1,0,0,0.6827,Andesite_03,1,03,1,6,0.683,-0.350295139,-0.235082465,1,0,0,2.7273,Andesite_rect,1,2.727,1,12,0,12,0,1,,,,,,,,,,,,,
664002d8362e289ab160faee,SCN,2024-06-11_12h23.14.860,LearnStrategy,2023.2.3,MacIntel,59.88023952,5,1,14,0.394027778,-0.411983507,1,0,0,0.7323,Gabbro_15,4,15,1,7,0.732,0.121592882,-0.244500868,1,0,0,0.7769,Diorite_rect,3,0.777,0,13,0,13,0,1,,,,,,,,,,,,,
664002d8362e289ab160faee,SCN,2024-06-11_12h23.14.860,LearnStrategy,2023.2.3,MacIntel,59.88023952,5,1,15,0.558971354,-0.39390191,1,0,0,0.7984,Gabbro_09,4,09,1,8,0.798,0.354383681,-0.235238715,1,0,0,6.1453,Gabbro_rect,4,6.145,1,14,0,14,0,1,,,,,,,,,,,,,
664002d8362e289ab160faee,SCN,2024-06-11_12h23.14.860,LearnStrategy,2023.2.3,MacIntel,59.88023952,5,1,16,-0.536158854,0.393585069,1,0,0,13.6662,Peridotite_05,7,05,6,1,13.666,0.135789931,-0.388476563,1,0,0,3.1484,Peridotite_rect,7,3.148,1,15,0,15,0,1,,,,,,,,,,,,,
664002d8362e289ab160faee,SCN,2024-06-11_12h23.14.860,LearnStrategy,2023.2.3,MacIntel,59.88023952,5,2,1,,,,,,,,3,06,,,,,,,,,,,3,2.341,1,,,,,,0.147643229,-0.238194444,1,0,0,2.341,Diorite_rect,0,0,0,0,1,
664002d8362e289ab160faee,SCN,2024-06-11_12h23.14.860,LearnStrategy,2023.2.3,MacIntel,59.88023952,5,2,2,,,,,,,,6,08,,,,,,,,,,,6,1.542,1,,,,,,-0.091575521,-0.412369792,1,0,0,1.5416,Pegmatite_rect,1,0,1,0,1,
664002d8362e289ab160faee,SCN,2024-06-11_12h23.14.860,LearnStrategy,2023.2.3,MacIntel,59.88023952,5,2,3,,,,,,,,1,10,,,,,,,,,,,4,9.959,0,,,,,,0.368185764,-0.263732639,1,0,0,9.9587,Gabbro_rect,2,0,2,0,1,
664002d8362e289ab160faee,SCN,2024-06-11_12h23.14.860,LearnStrategy,2023.2.3,MacIntel,59.88023952,5,2,4,,,,,,,,2,08,,,,,,,,,,,2,1.442,1,,,,,,-0.068025174,-0.235881076,1,0,0,1.4424,Basalt_rect,3,0,3,0,1,
664002d8362e289ab160faee,SCN,2024-06-11_12h23.14.860,LearnStrategy,2023.2.3,MacIntel,59.88023952,5,2,5,,,,,,,,4,05,,,,,,,,,,,4,9.356,1,,,,,,0.382196181,-0.2440625,1,0,0,9.3565,Gabbro_rect,4,0,4,0,1,
664002d8362e289ab160faee,SCN,2024-06-11_12h23.14.860,LearnStrategy,2023.2.3,MacIntel,59.88023952,5,2,6,,,,,,,,8,14,,,,,,,,,,,8,1.141,1,,,,,,0.342326389,-0.389709201,1,0,0,1.1414,Pumice_rect,5,0,5,0,1,
664002d8362e289ab160faee,SCN,2024-06-11_12h23.14.860,LearnStrategy,2023.2.3,MacIntel,59.88023952,5,2,7,,,,,,,,2,11,,,,,,,,,,,4,5.625,0,,,,,,0.376184896,-0.243802083,1,0,0,5.6252,Gabbro_rect,6,0,6,0,1,
664002d8362e289ab160faee,SCN,2024-06-11_12h23.14.860,LearnStrategy,2023.2.3,MacIntel,59.88023952,5,2,8,,,,,,,,5,14,,,,,,,,,,,5,1.116,1,,,,,,-0.37078125,-0.397100694,1,0,0,1.116,Obsidian_rect,7,0,7,0,1,
664002d8362e289ab160faee,SCN,2024-06-11_12h23.14.860,LearnStrategy,2023.2.3,MacIntel,59.88023952,5,2,9,,,,,,,,1,05,,,,,,,,,,,1,2.625,1,,,,,,-0.386453993,-0.26890625,1,0,0,2.6247,Andesite_rect,8,0,8,0,1,
664002d8362e289ab160faee,SCN,2024-06-11_12h23.14.860,LearnStrategy,2023.2.3,MacIntel,59.88023952,5,2,10,,,,,,,,7,04,,,,,,,,,,,7,5.457,1,,,,,,0.099774306,-0.394613715,1,0,0,5.4571,Peridotite_rect,9,0,9,0,1,
664002d8362e289ab160faee,SCN,2024-06-11_12h23.14.860,LearnStrategy,2023.2.3,MacIntel,59.88023952,5,2,11,,,,,,,,7,10,,,,,,,,,,,7,1.506,1,,,,,,0.140564236,-0.417269965,1,0,0,1.5063,Peridotite_rect,10,0,10,0,1,
664002d8362e289ab160faee,SCN,2024-06-11_12h23.14.860,LearnStrategy,2023.2.3,MacIntel,59.88023952,5,2,12,,,,,,,,4,10,,,,,,,,,,,4,5.109,1,,,,,,0.38109809,-0.259492188,1,0,0,5.1089,Gabbro_rect,11,0,11,0,1,
664002d8362e289ab160faee,SCN,2024-06-11_12h23.14.860,LearnStrategy,2023.2.3,MacIntel,59.88023952,5,2,13,,,,,,,,8,10,,,,,,,,,,,8,1.341,1,,,,,,0.310633681,-0.416024306,1,0,0,1.3409,Pumice_rect,12,0,12,0,1,
664002d8362e289ab160faee,SCN,2024-06-11_12h23.14.860,LearnStrategy,2023.2.3,MacIntel,59.88023952,5,2,14,,,,,,,,3,16,,,,,,,,,,,3,0.874,1,,,,,,0.140065104,-0.252239583,1,0,0,0.874,Diorite_rect,13,0,13,0,1,
664002d8362e289ab160faee,SCN,2024-06-11_12h23.14.860,LearnStrategy,2023.2.3,MacIntel,59.88023952,5,2,15,,,,,,,,5,10,,,,,,,,,,,5,1.124,1,,,,,,-0.3721875,-0.405672743,1,0,0,1.1241,Obsidian_rect,14,0,14,0,1,
664002d8362e289ab160faee,SCN,2024-06-11_12h23.14.860,LearnStrategy,2023.2.3,MacIntel,59.88023952,5,2,16,,,,,,,,6,09,,,,,,,,,,,6,1.376,1,,,,,,-0.103758681,-0.412595486,1,0,0,1.3757,Pegmatite_rect,15,0,15,0,1,
664002d8362e289ab160faee,SCN,2024-06-11_12h23.14.860,LearnStrategy,2023.2.3,MacIntel,59.88023952,6,1,1,0.519518229,-0.417309028,1,0,0,2.2648,Gabbro_09,4,09,1,8,2.265,0.397269965,-0.262734375,1,0,0,1.7273,Gabbro_rect,4,1.727,1,0,0,0,0,1,,,,,,,,,,,,,
664002d8362e289ab160faee,SCN,2024-06-11_12h23.14.860,LearnStrategy,2023.2.3,MacIntel,59.88023952,6,1,2,0.406480035,-0.44671875,1,0,0,0.6491,Gabbro_15,4,15,1,7,0.649,0.395021701,-0.245729167,1,0,0,1.6094,Gabbro_rect,4,1.609,1,1,0,1,0,1,,,,,,,,,,,,,
664002d8362e289ab160faee,SCN,2024-06-11_12h23.14.860,LearnStrategy,2023.2.3,MacIntel,59.88023952,6,1,3,0.558368056,0.229275174,1,0,0,0.9993,Peridotite_13,7,13,5,8,0.999,0.139670139,-0.414192708,1,0,0,1.0774,Peridotite_rect,7,1.077,1,2,0,2,0,1,,,,,,,,,,,,,
664002d8362e289ab160faee,SCN,2024-06-11_12h23.14.860,LearnStrategy,2023.2.3,MacIntel,59.88023952,6,1,4,0.066289062,-0.095954861,1,0,0,0.7489,Pumice_02,8,02,3,5,0.749,0.339023438,-0.384179687,1,0,0,1.0609,Pumice_rect,8,1.061,1,3,0,3,0,1,,,,,,,,,,,,,
664002d8362e289ab160faee,SCN,2024-06-11_12h23.14.860,LearnStrategy,2023.2.3,MacIntel,59.88023952,6,1,5,-0.239092882,0.083897569,1,0,0,1.016,Basalt_06,2,06,4,3,1.016,-0.102465278,-0.232122396,1,0,0,1.1775,Basalt_rect,2,1.178,1,4,0,4,0,1,,,,,,,,,,,,,
664002d8362e289ab160faee,SCN,2024-06-11_12h23.14.860,LearnStrategy,2023.2.3,MacIntel,59.88023952,6,1,6,-0.422951389,0.080381944,1,0,0,1.1156,Pegmatite_12,6,12,4,2,1.116,-0.124162326,-0.385451389,1,0,0,2.6443,Pegmatite_rect,6,2.644,1,5,0,5,0,1,,,,,,,,,,,,,
664002d8362e289ab160faee,SCN,2024-06-11_12h23.14.860,LearnStrategy,2023.2.3,MacIntel,59.88023952,6,1,7,-0.519270833,-0.126662326,1,0,0,2.1156,Andesite_07,1,07,3,1,2.116,-0.363198785,-0.255872396,1,0,0,0.6107,Andesite_rect,1,0.611,1,6,0,6,0,1,,,,,,,,,,,,,
664002d8362e289ab160faee,SCN,2024-06-11_12h23.14.860,LearnStrategy,2023.2.3,MacIntel,59.88023952,6,1,8,-0.561601563,0.446753472,1,0,0,1.0318,Peridotite_05,7,05,6,1,1.032,0.080399306,-0.378012153,1,0,0,2.1272,Peridotite_rect,7,2.127,1,7,0,7,0,1,,,,,,,,,,,,,
664002d8362e289ab160faee,SCN,2024-06-11_12h23.14.860,LearnStrategy,2023.2.3,MacIntel,59.88023952,6,1,9,-0.042543403,-0.302148437,1,0,0,3.4655,Andesite_06,1,06,2,4,3.466,-0.385855035,-0.236362847,1,0,0,0.6735,Andesite_rect,1,0.674,1,8,0,8,0,1,,,,,,,,,,,,,
664002d8362e289ab160faee,SCN,2024-06-11_12h23.14.860,LearnStrategy,2023.2.3,MacIntel,59.88023952,6,1,10,0.577482639,0.42641059,1,0,0,1.1491,Andesite_09,1,09,6,8,1.149,0.404609375,-0.263315972,1,0,0,1.2606,Gabbro_rect,4,1.261,0,9,0,9,0,1,,,,,,,,,,,,,
664002d8362e289ab160faee,SCN,2024-06-11_12h23.14.860,LearnStrategy,2023.2.3,MacIntel,59.88023952,6,1,11,0.434665799,0.459457465,1,0,0,0.7158,Peridotite_08,7,08,6,7,0.716,0.159804687,-0.393680556,1,0,0,1.5938,Peridotite_rect,7,1.594,1,10,0,10,0,1,,,,,,,,,,,,,
664002d8362e289ab160faee,SCN,2024-06-11_12h23.14.860,LearnStrategy,2023.2.3,MacIntel,59.88023952,6,1,12,-0.037825521,0.243424479,1,0,0,2.5159,Gabbro_11,4,11,5,4,2.516,0.381367187,-0.258268229,1,0,0,0.9347,Gabbro_rect,4,0.935,1,11,0,11,0,1,,,,,,,,,,,,,
664002d8362e289ab160faee,SCN,2024-06-11_12h23.14.860,LearnStrategy,2023.2.3,MacIntel,59.88023952,6,1,13,0.092105035,0.210598958,1,0,0,0.5992,Basalt_09,2,09,5,5,0.599,-0.136323785,-0.253250868,1,0,0,2.278,Basalt_rect,2,2.278,1,12,0,12,0,1,,,,,,,,,,,,,
664002d8362e289ab160faee,SCN,2024-06-11_12h23.14.860,LearnStrategy,2023.2.3,MacIntel,59.88023952,6,1,14,0.075203993,0.068350694,1,0,0,11.4159,Diorite_14,3,14,4,5,11.416,0.089140625,-0.266918403,1,0,0,0.7817,Diorite_rect,3,0.782,1,13,0,13,0,1,,,,,,,,,,,,,
664002d8362e289ab160faee,SCN,2024-06-11_12h23.14.860,LearnStrategy,2023.2.3,MacIntel,59.88023952,6,1,15,-0.264401042,-0.272530382,1,0,0,0.7991,Pegmatite_06,6,06,2,3,0.799,-0.113498264,-0.412730035,1,0,0,1.2446,Pegmatite_rect,6,1.245,1,14,0,14,0,1,,,,,,,,,,,,,
664002d8362e289ab160faee,SCN,2024-06-11_12h23.14.860,LearnStrategy,2023.2.3,MacIntel,59.88023952,6,1,16,-0.242213542,0.08999566,1,0,0,2.749,Basalt_06,2,06,4,3,2.749,-0.081388889,-0.245238715,1,0,0,0.7642,Basalt_rect,2,0.764,1,15,0,15,0,1,,,,,,,,,,,,,
664002d8362e289ab160faee,SCN,2024-06-11_12h23.14.860,LearnStrategy,2023.2.3,MacIntel,59.88023952,6,2,1,,,,,,,,1,14,,,,,,,,,,,1,7.692,1,,,,,,-0.360177951,-0.250407986,1,0,0,7.6923,Andesite_rect,0,0,0,0,1,
664002d8362e289ab160faee,SCN,2024-06-11_12h23.14.860,LearnStrategy,2023.2.3,MacIntel,59.88023952,6,2,2,,,,,,,,1,16,,,,,,,,,,,1,19.936,1,,,,,,-0.348059896,-0.250915799,1,0,0,19.9359,Andesite_rect,1,0,1,0,1,
664002d8362e289ab160faee,SCN,2024-06-11_12h23.14.860,LearnStrategy,2023.2.3,MacIntel,59.88023952,6,2,3,,,,,,,,8,09,,,,,,,,,,,8,0.98,1,,,,,,0.429943576,-0.400507813,1,0,0,0.9802,Pumice_rect,2,0,2,0,1,
664002d8362e289ab160faee,SCN,2024-06-11_12h23.14.860,LearnStrategy,2023.2.3,MacIntel,59.88023952,6,2,4,,,,,,,,2,16,,,,,,,,,,,2,4.342,1,,,,,,-0.065564236,-0.258085937,1,0,0,4.342,Basalt_rect,3,0,3,0,1,
664002d8362e289ab160faee,SCN,2024-06-11_12h23.14.860,LearnStrategy,2023.2.3,MacIntel,59.88023952,6,2,5,,,,,,,,7,06,,,,,,,,,,,7,1.316,1,,,,,,0.126914063,-0.406028646,1,0,0,1.3158,Peridotite_rect,4,0,4,0,1,
664002d8362e289ab160faee,SCN,2024-06-11_12h23.14.860,LearnStrategy,2023.2.3,MacIntel,59.88023952,6,2,6,,,,,,,,7,16,,,,,,,,,,,7,1.908,1,,,,,,0.133342014,-0.390755208,1,0,0,1.9081,Peridotite_rect,5,0,5,0,1,
664002d8362e289ab160faee,SCN,2024-06-11_12h23.14.860,LearnStrategy,2023.2.3,MacIntel,59.88023952,6,2,7,,,,,,,,5,07,,,,,,,,,,,5,1.14,1,,,,,,-0.373689236,-0.392230903,1,0,0,1.1402,Obsidian_rect,6,0,6,0,1,
664002d8362e289ab160faee,SCN,2024-06-11_12h23.14.860,LearnStrategy,2023.2.3,MacIntel,59.88023952,6,2,8,,,,,,,,8,03,,,,,,,,,,,8,1.108,1,,,,,,0.337452257,-0.391176215,1,0,0,1.1075,Pumice_rect,7,0,7,0,1,
664002d8362e289ab160faee,SCN,2024-06-11_12h23.14.860,LearnStrategy,2023.2.3,MacIntel,59.88023952,6,2,9,,,,,,,,4,08,,,,,,,,,,,4,1.609,1,,,,,,0.460863715,-0.259917535,1,0,0,1.6091,Gabbro_rect,8,0,8,0,1,
664002d8362e289ab160faee,SCN,2024-06-11_12h23.14.860,LearnStrategy,2023.2.3,MacIntel,59.88023952,6,2,10,,,,,,,,4,14,,,,,,,,,,,2,5.541,0,,,,,,-0.067868924,-0.236436632,1,0,0,5.5414,Basalt_rect,9,0,9,0,1,
664002d8362e289ab160faee,SCN,2024-06-11_12h23.14.860,LearnStrategy,2023.2.3,MacIntel,59.88023952,6,2,11,,,,,,,,6,03,,,,,,,,,,,7,2.016,0,,,,,,0.132825521,-0.415477431,1,0,0,2.0161,Peridotite_rect,10,0,10,0,1,
664002d8362e289ab160faee,SCN,2024-06-11_12h23.14.860,LearnStrategy,2023.2.3,MacIntel,59.88023952,6,2,12,,,,,,,,3,07,,,,,,,,,,,3,2.392,1,,,,,,0.130585937,-0.264782986,1,0,0,2.3918,Diorite_rect,11,0,11,0,1,
664002d8362e289ab160faee,SCN,2024-06-11_12h23.14.860,LearnStrategy,2023.2.3,MacIntel,59.88023952,6,2,13,,,,,,,,6,13,,,,,,,,,,,6,8.176,1,,,,,,-0.059496528,-0.407517361,1,0,0,8.176,Pegmatite_rect,12,0,12,0,1,
664002d8362e289ab160faee,SCN,2024-06-11_12h23.14.860,LearnStrategy,2023.2.3,MacIntel,59.88023952,6,2,14,,,,,,,,3,08,,,,,,,,,,,3,2.299,1,,,,,,0.141792535,-0.259075521,1,0,0,2.2994,Diorite_rect,13,0,13,0,1,
664002d8362e289ab160faee,SCN,2024-06-11_12h23.14.860,LearnStrategy,2023.2.3,MacIntel,59.88023952,6,2,15,,,,,,,,2,05,,,,,,,,,,,2,2.574,1,,,,,,-0.083680556,-0.246215278,1,0,0,2.5744,Basalt_rect,14,0,14,0,1,
664002d8362e289ab160faee,SCN,2024-06-11_12h23.14.860,LearnStrategy,2023.2.3,MacIntel,59.88023952,6,2,16,,,,,,,,5,08,,,,,,,,,,,5,1.033,1,,,,,,-0.334869792,-0.402092014,1,0,0,1.0329,Obsidian_rect,15,0,15,0,1,
664002d8362e289ab160faee,SCN,2024-06-11_12h23.14.860,LearnStrategy,2023.2.3,MacIntel,59.88023952,7,1,1,-0.113125,-0.109179687,1,0,0,1.729,Obsidian_11,5,11,3,4,1.729,-0.365134549,-0.396970486,1,0,0,0.7589,Obsidian_rect,5,0.759,1,0,0,0,0,1,,,,,,,,,,,,,
664002d8362e289ab160faee,SCN,2024-06-11_12h23.14.860,LearnStrategy,2023.2.3,MacIntel,59.88023952,7,1,2,-0.072877604,0.232196181,1,0,0,0.7823,Gabbro_11,4,11,5,4,0.782,0.387517361,-0.25718316,1,0,0,0.7595,Gabbro_rect,4,0.76,1,1,0,1,0,1,,,,,,,,,,,,,
664002d8362e289ab160faee,SCN,2024-06-11_12h23.14.860,LearnStrategy,2023.2.3,MacIntel,59.88023952,7,1,3,0.570546875,0.403997396,1,0,0,0.6993,Andesite_09,1,09,6,8,0.699,-0.346636285,-0.244244792,1,0,0,0.9937,Andesite_rect,1,0.994,1,2,0,2,0,1,,,,,,,,,,,,,
664002d8362e289ab160faee,SCN,2024-06-11_12h23.14.860,LearnStrategy,2023.2.3,MacIntel,59.88023952,7,1,4,0.551276042,-0.415559896,1,0,0,0.7996,Gabbro_09,4,09,1,8,0.8,0.333736979,-0.233164062,1,0,0,1.8949,Gabbro_rect,4,1.895,1,3,0,3,0,1,,,,,,,,,,,,,
664002d8362e289ab160faee,SCN,2024-06-11_12h23.14.860,LearnStrategy,2023.2.3,MacIntel,59.88023952,7,1,5,-0.532612847,0.255872396,1,0,0,0.9659,Diorite_13,3,13,5,1,0.966,0.083085937,-0.252508681,1,0,0,1.0274,Diorite_rect,3,1.027,1,4,0,4,0,1,,,,,,,,,,,,,
664002d8362e289ab160faee,SCN,2024-06-11_12h23.14.860,LearnStrategy,2023.2.3,MacIntel,59.88023952,7,1,6,0.116688368,-0.111684028,1,0,0,0.6659,Pumice_02,8,02,3,5,0.666,0.326063368,-0.419353299,1,0,0,0.7107,Pumice_rect,8,0.711,1,5,0,5,0,1,,,,,,,,,,,,,
664002d8362e289ab160faee,SCN,2024-06-11_12h23.14.860,LearnStrategy,2023.2.3,MacIntel,59.88023952,7,1,7,-0.499661458,0.435533854,1,0,0,1.1157,Peridotite_05,7,05,6,1,1.116,0.087782118,-0.389322917,1,0,0,1.7774,Peridotite_rect,7,1.777,1,6,0,6,0,1,,,,,,,,,,,,,
664002d8362e289ab160faee,SCN,2024-06-11_12h23.14.860,LearnStrategy,2023.2.3,MacIntel,59.88023952,7,1,8,-0.232573785,-0.211111111,1,0,0,0.9658,Pegmatite_06,6,06,2,3,0.966,-0.162851562,-0.421284722,1,0,0,0.6117,Pegmatite_rect,6,0.612,1,7,0,7,0,1,,,,,,,,,,,,,
664002d8362e289ab160faee,SCN,2024-06-11_12h23.14.860,LearnStrategy,2023.2.3,MacIntel,59.88023952,7,1,9,-0.398350694,-0.074409722,1,0,0,0.6658,Pegmatite_15,6,15,3,2,0.666,-0.049019097,-0.414353299,1,0,0,0.5105,Pegmatite_rect,6,0.511,1,8,0,8,0,1,,,,,,,,,,,,,
664002d8362e289ab160faee,SCN,2024-06-11_12h23.14.860,LearnStrategy,2023.2.3,MacIntel,59.88023952,7,1,10,-0.108519965,0.442230903,1,0,0,0.6322,Gabbro_13,4,13,6,4,0.632,0.353355035,-0.249275174,1,0,0,1.7272,Gabbro_rect,4,1.727,1,9,0,9,0,1,,,,,,,,,,,,,
664002d8362e289ab160faee,SCN,2024-06-11_12h23.14.860,LearnStrategy,2023.2.3,MacIntel,59.88023952,7,1,11,0.231054687,-0.123038194,1,0,0,2.6826,Peridotite_14,7,14,3,6,2.683,0.094010417,-0.406193576,1,0,0,9.81,Peridotite_rect,7,9.81,1,10,0,10,0,1,,,,,,,,,,,,,
664002d8362e289ab160faee,SCN,2024-06-11_12h23.14.860,LearnStrategy,2023.2.3,MacIntel,59.88023952,7,1,12,0.211267361,0.248641493,1,0,0,1.2991,Diorite_15,3,15,5,6,1.299,0.1509375,-0.239973958,1,0,0,1.1437,Diorite_rect,3,1.144,1,11,0,11,0,1,,,,,,,,,,,,,
664002d8362e289ab160faee,SCN,2024-06-11_12h23.14.860,LearnStrategy,2023.2.3,MacIntel,59.88023952,7,1,13,0.058172743,0.211388889,1,0,0,0.8003,Basalt_09,2,09,5,5,0.8,-0.118476562,-0.245672743,1,0,0,1.0773,Basalt_rect,2,1.077,1,12,0,12,0,1,,,,,,,,,,,,,
664002d8362e289ab160faee,SCN,2024-06-11_12h23.14.860,LearnStrategy,2023.2.3,MacIntel,59.88023952,7,1,14,-0.059006076,0.223949653,1,0,0,0.5825,Gabbro_11,4,11,5,4,0.582,0.371996528,-0.258372396,1,0,0,1.1109,Gabbro_rect,4,1.111,1,13,0,13,0,1,,,,,,,,,,,,,
664002d8362e289ab160faee,SCN,2024-06-11_12h23.14.860,LearnStrategy,2023.2.3,MacIntel,59.88023952,7,1,15,-0.232144097,0.127573785,1,0,0,1.2491,Basalt_06,2,06,4,3,1.249,-0.089492188,-0.244552951,1,0,0,1.0431,Basalt_rect,2,1.043,1,14,0,14,0,1,,,,,,,,,,,,,
664002d8362e289ab160faee,SCN,2024-06-11_12h23.14.860,LearnStrategy,2023.2.3,MacIntel,59.88023952,7,1,16,0.391888021,-0.122621528,1,0,0,0.7318,Basalt_14,2,14,3,7,0.732,0.391358507,-0.416158854,1,0,0,2.0278,Pumice_rect,8,2.028,0,15,0,15,0,1,,,,,,,,,,,,,
664002d8362e289ab160faee,SCN,2024-06-11_12h23.14.860,LearnStrategy,2023.2.3,MacIntel,59.88023952,7,2,1,,,,,,,,1,16,,,,,,,,,,,1,2.858,1,,,,,,-0.367039931,-0.24187066,1,0,0,2.8577,Andesite_rect,0,0,0,0,1,
664002d8362e289ab160faee,SCN,2024-06-11_12h23.14.860,LearnStrategy,2023.2.3,MacIntel,59.88023952,7,2,2,,,,,,,,7,10,,,,,,,,,,,7,1.115,1,,,,,,0.154891493,-0.413793403,1,0,0,1.1146,Peridotite_rect,1,0,1,0,1,
664002d8362e289ab160faee,SCN,2024-06-11_12h23.14.860,LearnStrategy,2023.2.3,MacIntel,59.88023952,7,2,3,,,,,,,,3,08,,,,,,,,,,,3,1.025,1,,,,,,0.126597222,-0.265664063,1,0,0,1.0247,Diorite_rect,2,0,2,0,1,
664002d8362e289ab160faee,SCN,2024-06-11_12h23.14.860,LearnStrategy,2023.2.3,MacIntel,59.88023952,7,2,4,,,,,,,,7,16,,,,,,,,,,,7,3.992,1,,,,,,0.134787326,-0.382582465,1,0,0,3.9917,Peridotite_rect,3,0,3,0,1,
664002d8362e289ab160faee,SCN,2024-06-11_12h23.14.860,LearnStrategy,2023.2.3,MacIntel,59.88023952,7,2,5,,,,,,,,8,06,,,,,,,,,,,8,0.918,1,,,,,,0.382387153,-0.40750434,1,0,0,0.9179,Pumice_rect,4,0,4,0,1,
664002d8362e289ab160faee,SCN,2024-06-11_12h23.14.860,LearnStrategy,2023.2.3,MacIntel,59.88023952,7,2,6,,,,,,,,8,03,,,,,,,,,,,8,0.908,1,,,,,,0.356414931,-0.392582465,1,0,0,0.9078,Pumice_rect,5,0,5,0,1,
664002d8362e289ab160faee,SCN,2024-06-11_12h23.14.860,LearnStrategy,2023.2.3,MacIntel,59.88023952,7,2,7,,,,,,,,1,01,,,,,,,,,,,4,3.393,0,,,,,,0.371475694,-0.25641059,1,0,0,3.3927,Gabbro_rect,6,0,6,0,1,
664002d8362e289ab160faee,SCN,2024-06-11_12h23.14.860,LearnStrategy,2023.2.3,MacIntel,59.88023952,7,2,8,,,,,,,,4,14,,,,,,,,,,,4,17.785,1,,,,,,0.458302951,-0.237230903,1,0,0,17.7847,Gabbro_rect,7,0,7,0,1,
664002d8362e289ab160faee,SCN,2024-06-11_12h23.14.860,LearnStrategy,2023.2.3,MacIntel,59.88023952,7,2,9,,,,,,,,2,11,,,,,,,,,,,2,3.034,1,,,,,,-0.076124132,-0.259761285,1,0,0,3.0335,Basalt_rect,8,0,8,0,1,
664002d8362e289ab160faee,SCN,2024-06-11_12h23.14.860,LearnStrategy,2023.2.3,MacIntel,59.88023952,7,2,10,,,,,,,,3,11,,,,,,,,,,,3,1.148,1,,,,,,0.176866319,-0.264205729,1,0,0,1.1481,Diorite_rect,9,0,9,0,1,
664002d8362e289ab160faee,SCN,2024-06-11_12h23.14.860,LearnStrategy,2023.2.3,MacIntel,59.88023952,7,2,11,,,,,,,,5,05,,,,,,,,,,,5,1.158,1,,,,,,-0.378767361,-0.40796441,1,0,0,1.1579,Obsidian_rect,10,0,10,0,1,
664002d8362e289ab160faee,SCN,2024-06-11_12h23.14.860,LearnStrategy,2023.2.3,MacIntel,59.88023952,7,2,12,,,,,,,,6,13,,,,,,,,,,,6,1.207,1,,,,,,-0.091888021,-0.417834201,1,0,0,1.2075,Pegmatite_rect,11,0,11,0,1,
664002d8362e289ab160faee,SCN,2024-06-11_12h23.14.860,LearnStrategy,2023.2.3,MacIntel,59.88023952,7,2,13,,,,,,,,4,03,,,,,,,,,,,4,6.075,1,,,,,,0.431623264,-0.240950521,1,0,0,6.0751,Gabbro_rect,12,0,12,0,1,
664002d8362e289ab160faee,SCN,2024-06-11_12h23.14.860,LearnStrategy,2023.2.3,MacIntel,59.88023952,7,2,14,,,,,,,,5,08,,,,,,,,,,,5,1.015,1,,,,,,-0.308650174,-0.393068576,1,0,0,1.015,Obsidian_rect,13,0,13,0,1,
664002d8362e289ab160faee,SCN,2024-06-11_12h23.14.860,LearnStrategy,2023.2.3,MacIntel,59.88023952,7,2,15,,,,,,,,2,01,,,,,,,,,,,2,1.091,1,,,,,,-0.104782986,-0.236375868,1,0,0,1.0914,Basalt_rect,14,0,14,0,1,
664002d8362e289ab160faee,SCN,2024-06-11_12h23.14.860,LearnStrategy,2023.2.3,MacIntel,59.88023952,7,2,16,,,,,,,,6,08,,,,,,,,,,,6,2.024,1,,,,,,-0.087013889,-0.42030816,1,0,0,2.0244,Pegmatite_rect,15,0,15,0,1,
664002d8362e289ab160faee,SCN,2024-06-11_12h23.14.860,LearnStrategy,2023.2.3,MacIntel,59.88023952,8,1,1,0.274800347,-0.096666667,1,0,0,1.0319,Peridotite_14,7,14,3,6,1.032,0.160438368,-0.415486111,1,0,0,0.7769,Peridotite_rect,7,0.777,1,0,0,0,0,1,,,,,,,,,,,,,
664002d8362e289ab160faee,SCN,2024-06-11_12h23.14.860,LearnStrategy,2023.2.3,MacIntel,59.88023952,8,1,2,0.572907986,0.397881944,1,0,0,1.0659,Andesite_09,1,09,6,8,1.066,-0.339613715,-0.260217014,1,0,0,3.1932,Andesite_rect,1,3.193,1,1,0,1,0,1,,,,,,,,,,,,,
664002d8362e289ab160faee,SCN,2024-06-11_12h23.14.860,LearnStrategy,2023.2.3,MacIntel,59.88023952,8,1,3,0.535907118,-0.434414062,1,0,0,0.7825,Gabbro_09,4,09,1,8,0.783,0.384435764,-0.236657986,1,0,0,1.0441,Gabbro_rect,4,1.044,1,2,0,2,0,1,,,,,,,,,,,,,
664002d8362e289ab160faee,SCN,2024-06-11_12h23.14.860,LearnStrategy,2023.2.3,MacIntel,59.88023952,8,1,4,0.374965278,-0.092083333,1,0,0,1.6656,Basalt_14,2,14,3,7,1.666,-0.093945313,-0.242426215,1,0,0,1.3108,Basalt_rect,2,1.311,1,3,0,3,0,1,,,,,,,,,,,,,
664002d8362e289ab160faee,SCN,2024-06-11_12h23.14.860,LearnStrategy,2023.2.3,MacIntel,59.88023952,8,1,5,-0.069730903,0.2478125,1,0,0,4.9002,Gabbro_11,4,11,5,4,4.9,0.364804688,-0.245646701,1,0,0,0.6472,Gabbro_rect,4,0.647,1,4,0,4,0,1,,,,,,,,,,,,,
664002d8362e289ab160faee,SCN,2024-06-11_12h23.14.860,LearnStrategy,2023.2.3,MacIntel,59.88023952,8,1,6,0.079973958,0.228194444,1,0,0,0.6325,Basalt_09,2,09,5,5,0.633,-0.06921441,-0.239505208,1,0,0,0.9941,Basalt_rect,2,0.994,1,5,0,5,0,1,,,,,,,,,,,,,
664002d8362e289ab160faee,SCN,2024-06-11_12h23.14.860,LearnStrategy,2023.2.3,MacIntel,59.88023952,8,1,7,0.410334201,0.248025174,1,0,0,0.6991,Gabbro_12,4,12,5,7,0.699,0.325972222,-0.255672743,1,0,0,1.4607,Gabbro_rect,4,1.461,1,6,0,6,0,1,,,,,,,,,,,,,
664002d8362e289ab160faee,SCN,2024-06-11_12h23.14.860,LearnStrategy,2023.2.3,MacIntel,59.88023952,8,1,8,-0.221384549,-0.135555556,1,0,0,0.8991,Pegmatite_10,6,10,3,3,0.899,-0.143476562,-0.398059896,1,0,0,1.0447,Pegmatite_rect,6,1.045,1,7,0,7,0,1,,,,,,,,,,,,,
664002d8362e289ab160faee,SCN,2024-06-11_12h23.14.860,LearnStrategy,2023.2.3,MacIntel,59.88023952,8,1,9,-0.108194444,-0.261232639,1,0,0,1.4984,Andesite_06,1,06,2,4,1.498,-0.340412326,-0.229522569,1,0,0,1.3776,Andesite_rect,1,1.378,1,8,0,8,0,1,,,,,,,,,,,,,
664002d8362e289ab160faee,SCN,2024-06-11_12h23.14.860,LearnStrategy,2023.2.3,MacIntel,59.88023952,8,1,10,-0.402586806,-0.406488715,1,0,0,1.5159,Basalt_10,2,10,1,2,1.516,-0.111193576,-0.252009549,1,0,0,0.7785,Basalt_rect,2,0.778,1,9,0,9,0,1,,,,,,,,,,,,,
664002d8362e289ab160faee,SCN,2024-06-11_12h23.14.860,LearnStrategy,2023.2.3,MacIntel,59.88023952,8,1,11,-0.529661458,-0.117912326,1,0,0,1.0326,Andesite_07,1,07,3,1,1.033,-0.433233507,-0.254166667,1,0,0,1.0768,Andesite_rect,1,1.077,1,10,0,10,0,1,,,,,,,,,,,,,
664002d8362e289ab160faee,SCN,2024-06-11_12h23.14.860,LearnStrategy,2023.2.3,MacIntel,59.88023952,8,1,12,-0.376223958,-0.109249132,1,0,0,1.3328,Pegmatite_15,6,15,3,2,1.333,-0.082803819,-0.385881076,1,0,0,2.8601,Pegmatite_rect,6,2.86,1,11,0,11,0,1,,,,,,,,,,,,,
664002d8362e289ab160faee,SCN,2024-06-11_12h23.14.860,LearnStrategy,2023.2.3,MacIntel,59.88023952,8,1,13,0.091623264,-0.442999132,1,0,0,1.016,Andesite_11,1,11,1,5,1.016,-0.345794271,-0.259040799,1,0,0,1.144,Andesite_rect,1,1.144,1,12,0,12,0,1,,,,,,,,,,,,,
664002d8362e289ab160faee,SCN,2024-06-11_12h23.14.860,LearnStrategy,2023.2.3,MacIntel,59.88023952,8,1,14,0.228489583,-0.232039931,1,0,0,1.1822,Andesite_04,1,04,2,6,1.182,-0.374127604,-0.265234375,1,0,0,0.9607,Andesite_rect,1,0.961,1,13,0,13,0,1,,,,,,,,,,,,,
664002d8362e289ab160faee,SCN,2024-06-11_12h23.14.860,LearnStrategy,2023.2.3,MacIntel,59.88023952,8,1,15,-0.3925,0.230286458,1,0,0,2.2326,Peridotite_07,7,07,5,2,2.233,0.121649306,-0.379648437,1,0,0,0.977,Peridotite_rect,7,0.977,1,14,0,14,0,1,,,,,,,,,,,,,
664002d8362e289ab160faee,SCN,2024-06-11_12h23.14.860,LearnStrategy,2023.2.3,MacIntel,59.88023952,8,1,16,-0.362326389,0.082105035,1,0,0,2.066,Pegmatite_12,6,12,4,2,2.066,-0.089934896,-0.388697917,1,0,0,1.2786,Pegmatite_rect,6,1.279,1,15,0,15,0,1,,,,,,,,,,,,,
664002d8362e289ab160faee,SCN,2024-06-11_12h23.14.860,LearnStrategy,2023.2.3,MacIntel,59.88023952,8,2,1,,,,,,,,6,05,,,,,,,,,,,6,5.024,1,,,,,,-0.081666667,-0.396918403,1,0,0,5.0236,Pegmatite_rect,0,0,0,0,1,
664002d8362e289ab160faee,SCN,2024-06-11_12h23.14.860,LearnStrategy,2023.2.3,MacIntel,59.88023952,8,2,2,,,,,,,,4,10,,,,,,,,,,,4,1.383,1,,,,,,0.38625434,-0.245494792,1,0,0,1.3833,Gabbro_rect,1,0,1,0,1,
664002d8362e289ab160faee,SCN,2024-06-11_12h23.14.860,LearnStrategy,2023.2.3,MacIntel,59.88023952,8,2,3,,,,,,,,2,08,,,,,,,,,,,2,0.991,1,,,,,,-0.085329861,-0.259444444,1,0,0,0.9913,Basalt_rect,2,0,2,0,1,
664002d8362e289ab160faee,SCN,2024-06-11_12h23.14.860,LearnStrategy,2023.2.3,MacIntel,59.88023952,8,2,4,,,,,,,,1,02,,,,,,,,,,,4,12.275,0,,,,,,0.379479167,-0.253606771,1,0,0,12.2753,Gabbro_rect,3,0,3,0,1,
664002d8362e289ab160faee,SCN,2024-06-11_12h23.14.860,LearnStrategy,2023.2.3,MacIntel,59.88023952,8,2,5,,,,,,,,8,10,,,,,,,,,,,8,1.799,1,,,,,,0.325494792,-0.406197917,1,0,0,1.7991,Pumice_rect,4,0,4,0,1,
664002d8362e289ab160faee,SCN,2024-06-11_12h23.14.860,LearnStrategy,2023.2.3,MacIntel,59.88023952,8,2,6,,,,,,,,7,12,,,,,,,,,,,7,1.258,1,,,,,,0.080460069,-0.398637153,1,0,0,1.2582,Peridotite_rect,5,0,5,0,1,
664002d8362e289ab160faee,SCN,2024-06-11_12h23.14.860,LearnStrategy,2023.2.3,MacIntel,59.88023952,8,2,7,,,,,,,,3,07,,,,,,,,,,,3,1.224,1,,,,,,0.073355035,-0.240737847,1,0,0,1.2243,Diorite_rect,6,0,6,0,1,
664002d8362e289ab160faee,SCN,2024-06-11_12h23.14.860,LearnStrategy,2023.2.3,MacIntel,59.88023952,8,2,8,,,,,,,,3,16,,,,,,,,,,,3,0.891,1,,,,,,0.097161458,-0.268854167,1,0,0,0.8908,Diorite_rect,7,0,7,0,1,
664002d8362e289ab160faee,SCN,2024-06-11_12h23.14.860,LearnStrategy,2023.2.3,MacIntel,59.88023952,8,2,9,,,,,,,,1,10,,,,,,,,,,,4,8.309,0,,,,,,0.394817708,-0.242157118,1,0,0,8.3089,Gabbro_rect,8,0,8,0,1,
664002d8362e289ab160faee,SCN,2024-06-11_12h23.14.860,LearnStrategy,2023.2.3,MacIntel,59.88023952,8,2,10,,,,,,,,7,04,,,,,,,,,,,6,6.165,0,,,,,,-0.092873264,-0.404231771,1,0,0,6.1654,Pegmatite_rect,9,0,9,0,1,
664002d8362e289ab160faee,SCN,2024-06-11_12h23.14.860,LearnStrategy,2023.2.3,MacIntel,59.88023952,8,2,11,,,,,,,,5,14,,,,,,,,,,,5,1.198,1,,,,,,-0.382309028,-0.390668403,1,0,0,1.1981,Obsidian_rect,10,0,10,0,1,
664002d8362e289ab160faee,SCN,2024-06-11_12h23.14.860,LearnStrategy,2023.2.3,MacIntel,59.88023952,8,2,12,,,,,,,,8,09,,,,,,,,,,,8,1.156,1,,,,,,0.374774306,-0.383645833,1,0,0,1.1563,Pumice_rect,11,0,11,0,1,
664002d8362e289ab160faee,SCN,2024-06-11_12h23.14.860,LearnStrategy,2023.2.3,MacIntel,59.88023952,8,2,13,,,,,,,,5,16,,,,,,,,,,,5,0.991,1,,,,,,-0.384383681,-0.415342882,1,0,0,0.9906,Obsidian_rect,12,0,12,0,1,
664002d8362e289ab160faee,SCN,2024-06-11_12h23.14.860,LearnStrategy,2023.2.3,MacIntel,59.88023952,8,2,14,,,,,,,,4,08,,,,,,,,,,,4,2.091,1,,,,,,0.428255208,-0.246875,1,0,0,2.091,Gabbro_rect,13,0,13,0,1,
664002d8362e289ab160faee,SCN,2024-06-11_12h23.14.860,LearnStrategy,2023.2.3,MacIntel,59.88023952,8,2,15,,,,,,,,6,09,,,,,,,,,,,6,1.099,1,,,,,,-0.087443576,-0.412573785,1,0,0,1.0986,Pegmatite_rect,14,0,14,0,1,
664002d8362e289ab160faee,SCN,2024-06-11_12h23.14.860,LearnStrategy,2023.2.3,MacIntel,59.88023952,8,2,16,,,,,,,,2,02,,,,,,,,,,,2,1.091,1,,,,,,-0.091796875,-0.252990451,1,0,0,1.0911,Basalt_rect,15,0,15,0,1,
664002d8362e289ab160faee,SCN,2024-06-11_12h23.14.860,LearnStrategy,2023.2.3,MacIntel,59.88023952,9,1,1,0.247157118,-0.115451389,1,0,0,3.0646,Peridotite_14,7,14,3,6,3.065,0.152065972,-0.390750868,1,0,0,1.291,Peridotite_rect,7,1.291,1,0,0,0,0,1,,,,,,,,,,,,,
664002d8362e289ab160faee,SCN,2024-06-11_12h23.14.860,LearnStrategy,2023.2.3,MacIntel,59.88023952,9,1,2,-0.211419271,0.443650174,1,0,0,2.4987,Peridotite_15,7,15,6,3,2.499,0.086757813,-0.397786458,1,0,0,1.0838,Peridotite_rect,7,1.084,1,1,0,1,0,1,,,,,,,,,,,,,
664002d8362e289ab160faee,SCN,2024-06-11_12h23.14.860,LearnStrategy,2023.2.3,MacIntel,59.88023952,9,1,3,0.558706597,-0.096423611,1,0,0,1.1325,Pegmatite_11,6,11,3,8,1.133,-0.109105903,-0.395195313,1,0,0,0.6606,Pegmatite_rect,6,0.661,1,2,0,2,0,1,,,,,,,,,,,,,
664002d8362e289ab160faee,SCN,2024-06-11_12h23.14.860,LearnStrategy,2023.2.3,MacIntel,59.88023952,9,1,4,0.548715278,0.404782986,1,0,0,0.7824,Andesite_09,1,09,6,8,0.782,0.371440972,-0.254544271,1,0,0,0.7108,Gabbro_rect,4,0.711,0,3,0,3,0,1,,,,,,,,,,,,,
664002d8362e289ab160faee,SCN,2024-06-11_12h23.14.860,LearnStrategy,2023.2.3,MacIntel,59.88023952,9,1,5,0.415386285,0.418854167,1,0,0,0.6491,Peridotite_08,7,08,6,7,0.649,0.161167535,-0.381605903,1,0,0,1.0276,Peridotite_rect,7,1.028,1,4,0,4,0,1,,,,,,,,,,,,,
664002d8362e289ab160faee,SCN,2024-06-11_12h23.14.860,LearnStrategy,2023.2.3,MacIntel,59.88023952,9,1,6,0.597517361,-0.400972222,1,0,0,0.6158,Gabbro_09,4,09,1,8,0.616,0.433967014,-0.268684896,1,0,0,1.0772,Gabbro_rect,4,1.077,1,5,0,5,0,1,,,,,,,,,,,,,
664002d8362e289ab160faee,SCN,2024-06-11_12h23.14.860,LearnStrategy,2023.2.3,MacIntel,59.88023952,9,1,7,0.231545139,-0.420199653,1,0,0,0.9335,Andesite_03,1,03,1,6,0.934,-0.347322049,-0.259965278,1,0,0,1.1111,Andesite_rect,1,1.111,1,6,0,6,0,1,,,,,,,,,,,,,
664002d8362e289ab160faee,SCN,2024-06-11_12h23.14.860,LearnStrategy,2023.2.3,MacIntel,59.88023952,9,1,8,0.059557292,-0.418832465,1,0,0,1.1322,Andesite_11,1,11,1,5,1.132,-0.352109375,-0.241440972,1,0,0,1.0771,Andesite_rect,1,1.077,1,7,0,7,0,1,,,,,,,,,,,,,
664002d8362e289ab160faee,SCN,2024-06-11_12h23.14.860,LearnStrategy,2023.2.3,MacIntel,59.88023952,9,1,9,-0.540247396,-0.085360243,1,0,0,1.2661,Andesite_07,1,07,3,1,1.266,-0.367000868,-0.264578993,1,0,0,1.2753,Andesite_rect,1,1.275,1,8,0,8,0,1,,,,,,,,,,,,,
664002d8362e289ab160faee,SCN,2024-06-11_12h23.14.860,LearnStrategy,2023.2.3,MacIntel,59.88023952,9,1,10,-0.396931424,-0.438315972,1,0,0,1.0824,Basalt_10,2,10,1,2,1.082,-0.116501736,-0.246644965,1,0,0,0.7442,Basalt_rect,2,0.744,1,9,0,9,0,1,,,,,,,,,,,,,
664002d8362e289ab160faee,SCN,2024-06-11_12h23.14.860,LearnStrategy,2023.2.3,MacIntel,59.88023952,9,1,11,-0.240416667,-0.45015191,1,0,0,0.6656,Gabbro_16,4,16,1,3,0.666,0.389140625,-0.270260417,1,0,0,1.0927,Gabbro_rect,4,1.093,1,10,0,10,0,1,,,,,,,,,,,,,
664002d8362e289ab160faee,SCN,2024-06-11_12h23.14.860,LearnStrategy,2023.2.3,MacIntel,59.88023952,9,1,12,-0.058246528,0.237261285,1,0,0,0.6824,Gabbro_11,4,11,5,4,0.682,0.353320313,-0.264418403,1,0,0,1.1773,Gabbro_rect,4,1.177,1,11,0,11,0,1,,,,,,,,,,,,,
664002d8362e289ab160faee,SCN,2024-06-11_12h23.14.860,LearnStrategy,2023.2.3,MacIntel,59.88023952,9,1,13,0.072513021,0.248068576,1,0,0,0.7322,Basalt_09,2,09,5,5,0.732,-0.099253472,-0.247044271,1,0,0,1.5775,Basalt_rect,2,1.577,1,12,0,12,0,1,,,,,,,,,,,,,
664002d8362e289ab160faee,SCN,2024-06-11_12h23.14.860,LearnStrategy,2023.2.3,MacIntel,59.88023952,9,1,14,-0.382304688,0.244921875,1,0,0,0.8658,Peridotite_07,7,07,5,2,0.866,0.101015625,-0.406128472,1,0,0,0.9775,Peridotite_rect,7,0.977,1,13,0,13,0,1,,,,,,,,,,,,,
664002d8362e289ab160faee,SCN,2024-06-11_12h23.14.860,LearnStrategy,2023.2.3,MacIntel,59.88023952,9,1,15,0.393064236,0.10015191,1,0,0,2.3653,Pumice_15,8,15,4,7,2.365,0.382204861,-0.404891493,1,0,0,0.6941,Pumice_rect,8,0.694,1,14,0,14,0,1,,,,,,,,,,,,,
664002d8362e289ab160faee,SCN,2024-06-11_12h23.14.860,LearnStrategy,2023.2.3,MacIntel,59.88023952,9,1,16,0.255386285,0.245008681,1,0,0,0.6825,Diorite_15,3,15,5,6,0.682,0.076006944,-0.271228299,1,0,0,0.7275,Diorite_rect,3,0.727,1,15,0,15,0,1,,,,,,,,,,,,,
664002d8362e289ab160faee,SCN,2024-06-11_12h23.14.860,LearnStrategy,2023.2.3,MacIntel,59.88023952,9,2,1,,,,,,,,5,10,,,,,,,,,,,5,1.141,1,,,,,,-0.376571181,-0.419409722,1,0,0,1.1409,Obsidian_rect,0,0,0,0,1,
664002d8362e289ab160faee,SCN,2024-06-11_12h23.14.860,LearnStrategy,2023.2.3,MacIntel,59.88023952,9,2,2,,,,,,,,5,07,,,,,,,,,,,5,1.091,1,,,,,,-0.351953125,-0.40562066,1,0,0,1.0905,Obsidian_rect,1,0,1,0,1,
664002d8362e289ab160faee,SCN,2024-06-11_12h23.14.860,LearnStrategy,2023.2.3,MacIntel,59.88023952,9,2,3,,,,,,,,8,14,,,,,,,,,,,8,1.158,1,,,,,,0.367838542,-0.396028646,1,0,0,1.1576,Pumice_rect,2,0,2,0,1,
664002d8362e289ab160faee,SCN,2024-06-11_12h23.14.860,LearnStrategy,2023.2.3,MacIntel,59.88023952,9,2,4,,,,,,,,6,03,,,,,,,,,,,6,7.36,1,,,,,,-0.099600694,-0.398025174,1,0,0,7.3601,Pegmatite_rect,3,0,3,0,1,
664002d8362e289ab160faee,SCN,2024-06-11_12h23.14.860,LearnStrategy,2023.2.3,MacIntel,59.88023952,9,2,5,,,,,,,,3,06,,,,,,,,,,,3,1.067,1,,,,,,0.109869792,-0.229314236,1,0,0,1.067,Diorite_rect,4,0,4,0,1,
664002d8362e289ab160faee,SCN,2024-06-11_12h23.14.860,LearnStrategy,2023.2.3,MacIntel,59.88023952,9,2,6,,,,,,,,8,13,,,,,,,,,,,8,1.108,1,,,,,,0.374752604,-0.407708333,1,0,0,1.1082,Pumice_rect,5,0,5,0,1,
664002d8362e289ab160faee,SCN,2024-06-11_12h23.14.860,LearnStrategy,2023.2.3,MacIntel,59.88023952,9,2,7,,,,,,,,1,05,,,,,,,,,,,1,0.958,1,,,,,,-0.34297309,-0.228333333,1,0,0,0.9581,Andesite_rect,6,0,6,0,1,
664002d8362e289ab160faee,SCN,2024-06-11_12h23.14.860,LearnStrategy,2023.2.3,MacIntel,59.88023952,9,2,8,,,,,,,,1,14,,,,,,,,,,,1,1.941,1,,,,,,-0.397955729,-0.243628472,1,0,0,1.9407,Andesite_rect,7,0,7,0,1,
664002d8362e289ab160faee,SCN,2024-06-11_12h23.14.860,LearnStrategy,2023.2.3,MacIntel,59.88023952,9,2,9,,,,,,,,2,16,,,,,,,,,,,4,2.341,0,,,,,,0.37016059,-0.23156684,1,0,0,2.3406,Gabbro_rect,8,0,8,0,1,
664002d8362e289ab160faee,SCN,2024-06-11_12h23.14.860,LearnStrategy,2023.2.3,MacIntel,59.88023952,9,2,10,,,,,,,,2,05,,,,,,,,,,,2,1.008,1,,,,,,-0.067447917,-0.265030382,1,0,0,1.0081,Basalt_rect,9,0,9,0,1,
664002d8362e289ab160faee,SCN,2024-06-11_12h23.14.860,LearnStrategy,2023.2.3,MacIntel,59.88023952,9,2,11,,,,,,,,3,12,,,,,,,,,,,3,1.341,1,,,,,,0.170299479,-0.236805556,1,0,0,1.341,Diorite_rect,10,0,10,0,1,
664002d8362e289ab160faee,SCN,2024-06-11_12h23.14.860,LearnStrategy,2023.2.3,MacIntel,59.88023952,9,2,12,,,,,,,,7,02,,,,,,,,,,,7,1.291,1,,,,,,0.109817708,-0.38328559,1,0,0,1.291,Peridotite_rect,11,0,11,0,1,
664002d8362e289ab160faee,SCN,2024-06-11_12h23.14.860,LearnStrategy,2023.2.3,MacIntel,59.88023952,9,2,13,,,,,,,,7,06,,,,,,,,,,,7,1.341,1,,,,,,0.121627604,-0.385169271,1,0,0,1.3408,Peridotite_rect,12,0,12,0,1,
664002d8362e289ab160faee,SCN,2024-06-11_12h23.14.860,LearnStrategy,2023.2.3,MacIntel,59.88023952,9,2,14,,,,,,,,4,05,,,,,,,,,,,4,4.108,1,,,,,,0.348680556,-0.232921007,1,0,0,4.1079,Gabbro_rect,13,0,13,0,1,
664002d8362e289ab160faee,SCN,2024-06-11_12h23.14.860,LearnStrategy,2023.2.3,MacIntel,59.88023952,9,2,15,,,,,,,,6,07,,,,,,,,,,,6,1.033,1,,,,,,-0.078298611,-0.391024306,1,0,0,1.0327,Pegmatite_rect,14,0,14,0,1,
664002d8362e289ab160faee,SCN,2024-06-11_12h23.14.860,LearnStrategy,2023.2.3,MacIntel,59.88023952,9,2,16,,,,,,,,4,01,,,,,,,,,,,4,5.942,1,,,,,,0.417152778,-0.254118924,1,0,0,5.9417,Gabbro_rect,15,0,15,0,1,
664002d8362e289ab160faee,SCN,2024-06-11_12h23.14.860,LearnStrategy,2023.2.3,MacIntel,59.88023952,,,,,,,,,,,,,,,,,,,,,,,,,,,,,,,,,,,,,,,,,,,1
664002d8362e289ab160faee,SCN,2024-06-11_12h23.14.860,LearnStrategy,2023.2.3,MacIntel,59.88023952,,,,,,,,,,,,,,,,,,,,,,,,,,,,,,,,,,,,,,,,,,,
664002d8362e289ab160faee,SCN,2024-06-11_12h23.14.860,LearnStrategy,2023.2.3,MacIntel,59.88023952,,,,,,,,,,,8,04,1,1,,,,,,,,,,,,,,,,,,,,,,,,,,,,,
664002d8362e289ab160faee,SCN,2024-06-11_12h23.14.860,LearnStrategy,2023.2.3,MacIntel,59.88023952,,,,,,,,,,,2,10,1,2,,,,,,,,,,,,,,,,,,,,,,,,,,,,,
664002d8362e289ab160faee,SCN,2024-06-11_12h23.14.860,LearnStrategy,2023.2.3,MacIntel,59.88023952,,,,,,,,,,,4,16,1,3,,,,,,,,,,,,,,,,,,,,,,,,,,,,,
664002d8362e289ab160faee,SCN,2024-06-11_12h23.14.860,LearnStrategy,2023.2.3,MacIntel,59.88023952,,,,,,,,,,,3,09,1,4,,,,,,,,,,,,,,,,,,,,,,,,,,,,,
664002d8362e289ab160faee,SCN,2024-06-11_12h23.14.860,LearnStrategy,2023.2.3,MacIntel,59.88023952,,,,,,,,,,,1,11,1,5,,,,,,,,,,,,,,,,,,,,,,,,,,,,,
664002d8362e289ab160faee,SCN,2024-06-11_12h23.14.860,LearnStrategy,2023.2.3,MacIntel,59.88023952,,,,,,,,,,,1,03,1,6,,,,,,,,,,,,,,,,,,,,,,,,,,,,,
664002d8362e289ab160faee,SCN,2024-06-11_12h23.14.860,LearnStrategy,2023.2.3,MacIntel,59.88023952,,,,,,,,,,,4,15,1,7,,,,,,,,,,,,,,,,,,,,,,,,,,,,,
664002d8362e289ab160faee,SCN,2024-06-11_12h23.14.860,LearnStrategy,2023.2.3,MacIntel,59.88023952,,,,,,,,,,,4,09,1,8,,,,,,,,,,,,,,,,,,,,,,,,,,,,,
664002d8362e289ab160faee,SCN,2024-06-11_12h23.14.860,LearnStrategy,2023.2.3,MacIntel,59.88023952,,,,,,,,,,,5,02,2,1,,,,,,,,,,,,,,,,,,,,,,,,,,,,,
664002d8362e289ab160faee,SCN,2024-06-11_12h23.14.860,LearnStrategy,2023.2.3,MacIntel,59.88023952,,,,,,,,,,,8,08,2,2,,,,,,,,,,,,,,,,,,,,,,,,,,,,,
664002d8362e289ab160faee,SCN,2024-06-11_12h23.14.860,LearnStrategy,2023.2.3,MacIntel,59.88023952,,,,,,,,,,,6,06,2,3,,,,,,,,,,,,,,,,,,,,,,,,,,,,,
664002d8362e289ab160faee,SCN,2024-06-11_12h23.14.860,LearnStrategy,2023.2.3,MacIntel,59.88023952,,,,,,,,,,,1,06,2,4,,,,,,,,,,,,,,,,,,,,,,,,,,,,,
664002d8362e289ab160faee,SCN,2024-06-11_12h23.14.860,LearnStrategy,2023.2.3,MacIntel,59.88023952,,,,,,,,,,,8,16,2,5,,,,,,,,,,,,,,,,,,,,,,,,,,,,,
664002d8362e289ab160faee,SCN,2024-06-11_12h23.14.860,LearnStrategy,2023.2.3,MacIntel,59.88023952,,,,,,,,,,,1,04,2,6,,,,,,,,,,,,,,,,,,,,,,,,,,,,,
664002d8362e289ab160faee,SCN,2024-06-11_12h23.14.860,LearnStrategy,2023.2.3,MacIntel,59.88023952,,,,,,,,,,,2,04,2,7,,,,,,,,,,,,,,,,,,,,,,,,,,,,,
664002d8362e289ab160faee,SCN,2024-06-11_12h23.14.860,LearnStrategy,2023.2.3,MacIntel,59.88023952,,,,,,,,,,,6,16,2,8,,,,,,,,,,,,,,,,,,,,,,,,,,,,,
664002d8362e289ab160faee,SCN,2024-06-11_12h23.14.860,LearnStrategy,2023.2.3,MacIntel,59.88023952,,,,,,,,,,,1,07,3,1,,,,,,,,,,,,,,,,,,,,,,,,,,,,,
664002d8362e289ab160faee,SCN,2024-06-11_12h23.14.860,LearnStrategy,2023.2.3,MacIntel,59.88023952,,,,,,,,,,,6,15,3,2,,,,,,,,,,,,,,,,,,,,,,,,,,,,,
664002d8362e289ab160faee,SCN,2024-06-11_12h23.14.860,LearnStrategy,2023.2.3,MacIntel,59.88023952,,,,,,,,,,,6,10,3,3,,,,,,,,,,,,,,,,,,,,,,,,,,,,,
664002d8362e289ab160faee,SCN,2024-06-11_12h23.14.860,LearnStrategy,2023.2.3,MacIntel,59.88023952,,,,,,,,,,,5,11,3,4,,,,,,,,,,,,,,,,,,,,,,,,,,,,,
664002d8362e289ab160faee,SCN,2024-06-11_12h23.14.860,LearnStrategy,2023.2.3,MacIntel,59.88023952,,,,,,,,,,,8,02,3,5,,,,,,,,,,,,,,,,,,,,,,,,,,,,,
664002d8362e289ab160faee,SCN,2024-06-11_12h23.14.860,LearnStrategy,2023.2.3,MacIntel,59.88023952,,,,,,,,,,,7,14,3,6,,,,,,,,,,,,,,,,,,,,,,,,,,,,,
664002d8362e289ab160faee,SCN,2024-06-11_12h23.14.860,LearnStrategy,2023.2.3,MacIntel,59.88023952,,,,,,,,,,,2,14,3,7,,,,,,,,,,,,,,,,,,,,,,,,,,,,,
664002d8362e289ab160faee,SCN,2024-06-11_12h23.14.860,LearnStrategy,2023.2.3,MacIntel,59.88023952,,,,,,,,,,,6,11,3,8,,,,,,,,,,,,,,,,,,,,,,,,,,,,,
664002d8362e289ab160faee,SCN,2024-06-11_12h23.14.860,LearnStrategy,2023.2.3,MacIntel,59.88023952,,,,,,,,,,,5,06,4,1,,,,,,,,,,,,,,,,,,,,,,,,,,,,,
664002d8362e289ab160faee,SCN,2024-06-11_12h23.14.860,LearnStrategy,2023.2.3,MacIntel,59.88023952,,,,,,,,,,,6,12,4,2,,,,,,,,,,,,,,,,,,,,,,,,,,,,,
664002d8362e289ab160faee,SCN,2024-06-11_12h23.14.860,LearnStrategy,2023.2.3,MacIntel,59.88023952,,,,,,,,,,,2,06,4,3,,,,,,,,,,,,,,,,,,,,,,,,,,,,,
664002d8362e289ab160faee,SCN,2024-06-11_12h23.14.860,LearnStrategy,2023.2.3,MacIntel,59.88023952,,,,,,,,,,,2,12,4,4,,,,,,,,,,,,,,,,,,,,,,,,,,,,,
664002d8362e289ab160faee,SCN,2024-06-11_12h23.14.860,LearnStrategy,2023.2.3,MacIntel,59.88023952,,,,,,,,,,,3,14,4,5,,,,,,,,,,,,,,,,,,,,,,,,,,,,,
664002d8362e289ab160faee,SCN,2024-06-11_12h23.14.860,LearnStrategy,2023.2.3,MacIntel,59.88023952,,,,,,,,,,,5,12,4,6,,,,,,,,,,,,,,,,,,,,,,,,,,,,,
664002d8362e289ab160faee,SCN,2024-06-11_12h23.14.860,LearnStrategy,2023.2.3,MacIntel,59.88023952,,,,,,,,,,,8,15,4,7,,,,,,,,,,,,,,,,,,,,,,,,,,,,,
664002d8362e289ab160faee,SCN,2024-06-11_12h23.14.860,LearnStrategy,2023.2.3,MacIntel,59.88023952,,,,,,,,,,,5,09,4,8,,,,,,,,,,,,,,,,,,,,,,,,,,,,,
664002d8362e289ab160faee,SCN,2024-06-11_12h23.14.860,LearnStrategy,2023.2.3,MacIntel,59.88023952,,,,,,,,,,,3,13,5,1,,,,,,,,,,,,,,,,,,,,,,,,,,,,,
664002d8362e289ab160faee,SCN,2024-06-11_12h23.14.860,LearnStrategy,2023.2.3,MacIntel,59.88023952,,,,,,,,,,,7,07,5,2,,,,,,,,,,,,,,,,,,,,,,,,,,,,,
664002d8362e289ab160faee,SCN,2024-06-11_12h23.14.860,LearnStrategy,2023.2.3,MacIntel,59.88023952,,,,,,,,,,,5,04,5,3,,,,,,,,,,,,,,,,,,,,,,,,,,,,,
664002d8362e289ab160faee,SCN,2024-06-11_12h23.14.860,LearnStrategy,2023.2.3,MacIntel,59.88023952,,,,,,,,,,,4,11,5,4,,,,,,,,,,,,,,,,,,,,,,,,,,,,,
664002d8362e289ab160faee,SCN,2024-06-11_12h23.14.860,LearnStrategy,2023.2.3,MacIntel,59.88023952,,,,,,,,,,,2,09,5,5,,,,,,,,,,,,,,,,,,,,,,,,,,,,,
664002d8362e289ab160faee,SCN,2024-06-11_12h23.14.860,LearnStrategy,2023.2.3,MacIntel,59.88023952,,,,,,,,,,,3,15,5,6,,,,,,,,,,,,,,,,,,,,,,,,,,,,,
664002d8362e289ab160faee,SCN,2024-06-11_12h23.14.860,LearnStrategy,2023.2.3,MacIntel,59.88023952,,,,,,,,,,,4,12,5,7,,,,,,,,,,,,,,,,,,,,,,,,,,,,,
664002d8362e289ab160faee,SCN,2024-06-11_12h23.14.860,LearnStrategy,2023.2.3,MacIntel,59.88023952,,,,,,,,,,,7,13,5,8,,,,,,,,,,,,,,,,,,,,,,,,,,,,,
664002d8362e289ab160faee,SCN,2024-06-11_12h23.14.860,LearnStrategy,2023.2.3,MacIntel,59.88023952,,,,,,,,,,,7,05,6,1,,,,,,,,,,,,,,,,,,,,,,,,,,,,,
664002d8362e289ab160faee,SCN,2024-06-11_12h23.14.860,LearnStrategy,2023.2.3,MacIntel,59.88023952,,,,,,,,,,,3,02,6,2,,,,,,,,,,,,,,,,,,,,,,,,,,,,,
664002d8362e289ab160faee,SCN,2024-06-11_12h23.14.860,LearnStrategy,2023.2.3,MacIntel,59.88023952,,,,,,,,,,,7,15,6,3,,,,,,,,,,,,,,,,,,,,,,,,,,,,,
664002d8362e289ab160faee,SCN,2024-06-11_12h23.14.860,LearnStrategy,2023.2.3,MacIntel,59.88023952,,,,,,,,,,,4,13,6,4,,,,,,,,,,,,,,,,,,,,,,,,,,,,,
664002d8362e289ab160faee,SCN,2024-06-11_12h23.14.860,LearnStrategy,2023.2.3,MacIntel,59.88023952,,,,,,,,,,,3,10,6,5,,,,,,,,,,,,,,,,,,,,,,,,,,,,,
664002d8362e289ab160faee,SCN,2024-06-11_12h23.14.860,LearnStrategy,2023.2.3,MacIntel,59.88023952,,,,,,,,,,,8,05,6,6,,,,,,,,,,,,,,,,,,,,,,,,,,,,,
664002d8362e289ab160faee,SCN,2024-06-11_12h23.14.860,LearnStrategy,2023.2.3,MacIntel,59.88023952,,,,,,,,,,,7,08,6,7,,,,,,,,,,,,,,,,,,,,,,,,,,,,,
664002d8362e289ab160faee,SCN,2024-06-11_12h23.14.860,LearnStrategy,2023.2.3,MacIntel,59.88023952,,,,,,,,,,,1,09,6,8,,,,,,,,,,,,,,,,,,,,,,,,,,,,,