participant,condition,date,expName,psychopyVersion,OS,frameRate,block,phase,trial,learn_mouse.x,learn_mouse.y,learn_mouse.leftButton,learn_mouse.midButton,learn_mouse.rightButton,learn_mouse.time,learn_mouse.clicked_name,cat,token,row,col,t_select,cat_mouse_l.x,cat_mouse_l.y,cat_mouse_l.leftButton,cat_mouse_l.midButton,cat_mouse_l.rightButton,cat_mouse_l.time,cat_mouse_l.clicked_name,resp,t_resp,corr,train_trials.thisRepN,train_trials.thisTrialN,train_trials.thisN,train_trials.thisIndex,train_trials.ran,cat_mouse_t.x,cat_mouse_t.y,cat_mouse_t.leftButton,cat_mouse_t.midButton,cat_mouse_t.rightButton,cat_mouse_t.time,cat_mouse_t.clicked_name,test_trials.thisRepN,test_trials.thisTrialN,test_trials.thisN,test_trials.thisIndex,test_trials.ran,Bonus
664167adcaa569ada842f8de,SCN,2024-06-24_14h48.38.919,LearnStrategy,2023.2.3,Win32,60.24096386,,,,,,,,,,,,,,,,,,,,,,,,,,,,,,,,,,,,,,,,,,,
664167adcaa569ada842f8de,SCN,2024-06-24_14h48.38.919,LearnStrategy,2023.2.3,Win32,60.24096386,1,1,1,-0.078703704,0.407407407,1,0,0,4.9231,Obsidian_12,5,12,6,4,4.923,-0.331481474,-0.25462963,1,0,0,22.4854,Andesite_rect,1,22.485,0,0,0,0,0,1,,,,,,,,,,,,,
664167adcaa569ada842f8de,SCN,2024-06-24_14h48.38.919,LearnStrategy,2023.2.3,Win32,60.24096386,1,1,2,0.12037037,0.390740739,1,0,0,3.161,Peridotite_15,7,15,6,5,3.161,-0.125,-0.250925912,1,0,0,24.7575,Basalt_rect,2,24.758,0,1,0,1,0,1,,,,,,,,,,,,,
664167adcaa569ada842f8de,SCN,2024-06-24_14h48.38.919,LearnStrategy,2023.2.3,Win32,60.24096386,1,1,3,0.569444444,0.295370367,1,0,0,3.2555,Diorite_08,3,08,5,8,3.256,-0.124074088,-0.405555584,1,0,0,1.7616,Pegmatite_rect,6,1.762,0,2,0,2,0,1,,,,,,,,,,,,,
664167adcaa569ada842f8de,SCN,2024-06-24_14h48.38.919,LearnStrategy,2023.2.3,Win32,60.24096386,1,1,4,0.089814857,0.087962963,1,0,0,3.4938,Obsidian_05,5,05,4,5,3.494,-0.341666645,-0.387962977,1,0,0,1.8976,Obsidian_rect,5,1.898,1,3,0,3,0,1,,,,,,,,,,,,,
664167adcaa569ada842f8de,SCN,2024-06-24_14h48.38.919,LearnStrategy,2023.2.3,Win32,60.24096386,1,1,5,-0.583333333,0.38981481,1,0,0,1.01,Basalt_05,2,05,6,1,1.01,0.374074159,-0.421296296,1,0,0,9.3068,Pumice_rect,8,9.307,0,4,0,4,0,1,,,,,,,,,,,,,
664167adcaa569ada842f8de,SCN,2024-06-24_14h48.38.919,LearnStrategy,2023.2.3,Win32,60.24096386,1,1,6,-0.506481489,0.263888889,1,0,0,1.4648,Pumice_05,8,05,5,1,1.465,0.432407379,-0.249074088,1,0,0,1.8857,Gabbro_rect,4,1.886,0,5,0,5,0,1,,,,,,,,,,,,,
664167adcaa569ada842f8de,SCN,2024-06-24_14h48.38.919,LearnStrategy,2023.2.3,Win32,60.24096386,1,1,7,-0.585185192,0.103703711,1,0,0,1.4723,Peridotite_10,7,10,4,1,1.472,0.142592607,-0.406481496,1,0,0,2.5174,Peridotite_rect,7,2.517,1,6,0,6,0,1,,,,,,,,,,,,,
664167adcaa569ada842f8de,SCN,2024-06-24_14h48.38.919,LearnStrategy,2023.2.3,Win32,60.24096386,1,1,8,-0.529629637,-0.10092594,1,0,0,1.6939,Obsidian_07,5,07,3,1,1.694,-0.402777778,-0.406481496,1,0,0,1.4462,Obsidian_rect,5,1.446,1,7,0,7,0,1,,,,,,,,,,,,,
664167adcaa569ada842f8de,SCN,2024-06-24_14h48.38.919,LearnStrategy,2023.2.3,Win32,60.24096386,1,1,9,-0.538888896,-0.244444459,1,0,0,1.0113,Basalt_06,2,06,2,1,1.011,-0.078703704,-0.241666653,1,0,0,2.3939,Basalt_rect,2,2.394,1,8,0,8,0,1,,,,,,,,,,,,,
664167adcaa569ada842f8de,SCN,2024-06-24_14h48.38.919,LearnStrategy,2023.2.3,Win32,60.24096386,1,1,10,-0.549074067,-0.380555541,1,0,0,1.1717,Andesite_09,1,09,1,1,1.172,0.082407422,-0.420370384,1,0,0,2.0362,Peridotite_rect,7,2.036,0,9,0,9,0,1,,,,,,,,,,,,,
664167adcaa569ada842f8de,SCN,2024-06-24_14h48.38.919,LearnStrategy,2023.2.3,Win32,60.24096386,1,1,11,-0.362037023,0.37222222,1,0,0,1.4301,Gabbro_08,4,08,6,2,1.43,-0.350925905,-0.257407436,1,0,0,4.2493,Andesite_rect,1,4.249,0,10,0,10,0,1,,,,,,,,,,,,,
664167adcaa569ada842f8de,SCN,2024-06-24_14h48.38.919,LearnStrategy,2023.2.3,Win32,60.24096386,1,1,12,-0.383333312,0.233333323,1,0,0,1.3885,Andesite_04,1,04,5,2,1.388,0.094444487,-0.393518519,1,0,0,1.267,Peridotite_rect,7,1.267,0,11,0,11,0,1,,,,,,,,,,,,,
664167adcaa569ada842f8de,SCN,2024-06-24_14h48.38.919,LearnStrategy,2023.2.3,Win32,60.24096386,1,1,13,0.573148233,-0.412962949,1,0,0,1.755,Peridotite_13,7,13,1,8,1.755,0.165740755,-0.24537037,1,0,0,2.7649,Diorite_rect,3,2.765,0,12,0,12,0,1,,,,,,,,,,,,,
664167adcaa569ada842f8de,SCN,2024-06-24_14h48.38.919,LearnStrategy,2023.2.3,Win32,60.24096386,1,1,14,0.429629714,0.101851852,1,0,0,1.3226,Obsidian_16,5,16,4,7,1.323,-0.339814822,-0.419444473,1,0,0,1.9617,Obsidian_rect,5,1.962,1,13,0,13,0,1,,,,,,,,,,,,,
664167adcaa569ada842f8de,SCN,2024-06-24_14h48.38.919,LearnStrategy,2023.2.3,Win32,60.24096386,1,1,15,-0.223148134,-0.238888917,1,0,0,2.6971,Diorite_14,3,14,2,3,2.697,0.155555584,-0.420370384,1,0,0,1.2228,Peridotite_rect,7,1.223,0,14,0,14,0,1,,,,,,,,,,,,,
664167adcaa569ada842f8de,SCN,2024-06-24_14h48.38.919,LearnStrategy,2023.2.3,Win32,60.24096386,1,1,16,0.430555556,-0.408333319,1,0,0,16.6679,Pegmatite_16,6,16,1,7,16.668,-0.042592578,-0.265740783,1,0,0,8.9678,Basalt_rect,2,8.968,0,15,0,15,0,1,,,,,,,,,,,,,
664167adcaa569ada842f8de,SCN,2024-06-24_14h48.38.919,LearnStrategy,2023.2.3,Win32,60.24096386,1,2,1,,,,,,,,5,02,,,,,,,,,,,5,2.846,1,,,,,,-0.355555534,-0.396296325,1,0,0,2.8458,Obsidian_rect,0,0,0,0,1,
664167adcaa569ada842f8de,SCN,2024-06-24_14h48.38.919,LearnStrategy,2023.2.3,Win32,60.24096386,1,2,2,,,,,,,,4,15,,,,,,,,,,,3,10.274,0,,,,,,0.151851866,-0.260185171,1,0,0,10.2737,Diorite_rect,1,0,1,0,1,
664167adcaa569ada842f8de,SCN,2024-06-24_14h48.38.919,LearnStrategy,2023.2.3,Win32,60.24096386,1,2,3,,,,,,,,1,11,,,,,,,,,,,1,10.753,1,,,,,,-0.431481467,-0.258333347,1,0,0,10.7532,Andesite_rect,2,0,2,0,1,
664167adcaa569ada842f8de,SCN,2024-06-24_14h48.38.919,LearnStrategy,2023.2.3,Win32,60.24096386,1,2,4,,,,,,,,3,15,,,,,,,,,,,6,5.6,0,,,,,,-0.124074088,-0.406481496,1,0,0,5.5998,Pegmatite_rect,3,0,3,0,1,
664167adcaa569ada842f8de,SCN,2024-06-24_14h48.38.919,LearnStrategy,2023.2.3,Win32,60.24096386,1,2,5,,,,,,,,4,05,,,,,,,,,,,7,3.685,0,,,,,,0.103703746,-0.398148148,1,0,0,3.6847,Peridotite_rect,4,0,4,0,1,
664167adcaa569ada842f8de,SCN,2024-06-24_14h48.38.919,LearnStrategy,2023.2.3,Win32,60.24096386,1,2,6,,,,,,,,7,16,,,,,,,,,,,7,1.611,1,,,,,,0.107407393,-0.387037065,1,0,0,1.6106,Peridotite_rect,5,0,5,0,1,
664167adcaa569ada842f8de,SCN,2024-06-24_14h48.38.919,LearnStrategy,2023.2.3,Win32,60.24096386,1,2,7,,,,,,,,2,04,,,,,,,,,,,8,2.467,0,,,,,,0.407407407,-0.396296325,1,0,0,2.4674,Pumice_rect,6,0,6,0,1,
664167adcaa569ada842f8de,SCN,2024-06-24_14h48.38.919,LearnStrategy,2023.2.3,Win32,60.24096386,1,2,8,,,,,,,,1,10,,,,,,,,,,,1,1.624,1,,,,,,-0.35833334,-0.262037065,1,0,0,1.6237,Andesite_rect,7,0,7,0,1,
664167adcaa569ada842f8de,SCN,2024-06-24_14h48.38.919,LearnStrategy,2023.2.3,Win32,60.24096386,1,2,9,,,,,,,,6,12,,,,,,,,,,,4,1.704,0,,,,,,0.431481538,-0.25462963,1,0,0,1.7038,Gabbro_rect,8,0,8,0,1,
664167adcaa569ada842f8de,SCN,2024-06-24_14h48.38.919,LearnStrategy,2023.2.3,Win32,60.24096386,1,2,10,,,,,,,,8,03,,,,,,,,,,,8,2.459,1,,,,,,0.381481453,-0.39907406,1,0,0,2.4593,Pumice_rect,9,0,9,0,1,
664167adcaa569ada842f8de,SCN,2024-06-24_14h48.38.919,LearnStrategy,2023.2.3,Win32,60.24096386,1,2,11,,,,,,,,3,16,,,,,,,,,,,7,3.484,0,,,,,,0.138888889,-0.405555584,1,0,0,3.4842,Peridotite_rect,10,0,10,0,1,
664167adcaa569ada842f8de,SCN,2024-06-24_14h48.38.919,LearnStrategy,2023.2.3,Win32,60.24096386,1,2,12,,,,,,,,5,09,,,,,,,,,,,5,1.634,1,,,,,,-0.349999993,-0.412037037,1,0,0,1.6343,Obsidian_rect,11,0,11,0,1,
664167adcaa569ada842f8de,SCN,2024-06-24_14h48.38.919,LearnStrategy,2023.2.3,Win32,60.24096386,1,2,13,,,,,,,,8,13,,,,,,,,,,,8,1.133,1,,,,,,0.405555584,-0.397222236,1,0,0,1.1331,Pumice_rect,12,0,12,0,1,
664167adcaa569ada842f8de,SCN,2024-06-24_14h48.38.919,LearnStrategy,2023.2.3,Win32,60.24096386,1,2,14,,,,,,,,6,08,,,,,,,,,,,5,1.98,0,,,,,,-0.381481489,-0.39907406,1,0,0,1.9804,Obsidian_rect,13,0,13,0,1,
664167adcaa569ada842f8de,SCN,2024-06-24_14h48.38.919,LearnStrategy,2023.2.3,Win32,60.24096386,1,2,15,,,,,,,,7,08,,,,,,,,,,,3,1.203,0,,,,,,0.107407393,-0.259259259,1,0,0,1.2025,Diorite_rect,14,0,14,0,1,
664167adcaa569ada842f8de,SCN,2024-06-24_14h48.38.919,LearnStrategy,2023.2.3,Win32,60.24096386,1,2,16,,,,,,,,2,01,,,,,,,,,,,7,1.957,0,,,,,,0.090740769,-0.393518519,1,0,0,1.9567,Peridotite_rect,15,0,15,0,1,
664167adcaa569ada842f8de,SCN,2024-06-24_14h48.38.919,LearnStrategy,2023.2.3,Win32,60.24096386,2,1,1,0.389814871,-0.241666653,1,0,0,6.2554,Pegmatite_06,6,06,2,7,6.255,0.389814871,-0.25462963,1,0,0,2.9634,Gabbro_rect,4,2.963,0,0,0,0,0,1,,,,,,,,,,,,,
664167adcaa569ada842f8de,SCN,2024-06-24_14h48.38.919,LearnStrategy,2023.2.3,Win32,60.24096386,2,1,2,0.414814843,-0.405555584,1,0,0,3.1259,Pegmatite_16,6,16,1,7,3.126,-0.089814787,-0.388888889,1,0,0,1.4692,Pegmatite_rect,6,1.469,1,1,0,1,0,1,,,,,,,,,,,,,
664167adcaa569ada842f8de,SCN,2024-06-24_14h48.38.919,LearnStrategy,2023.2.3,Win32,60.24096386,2,1,3,-0.366666653,0.093518504,1,0,0,3.0056,Pegmatite_13,6,13,4,2,3.006,-0.109259217,-0.395370413,1,0,0,2.0475,Pegmatite_rect,6,2.048,1,2,0,2,0,1,,,,,,,,,,,,,
664167adcaa569ada842f8de,SCN,2024-06-24_14h48.38.919,LearnStrategy,2023.2.3,Win32,60.24096386,2,1,4,-0.249074088,0.073148127,1,0,0,1.0489,Pegmatite_07,6,07,4,3,1.049,-0.137036995,-0.415740755,1,0,0,1.2474,Pegmatite_rect,6,1.247,1,3,0,3,0,1,,,,,,,,,,,,,
664167adcaa569ada842f8de,SCN,2024-06-24_14h48.38.919,LearnStrategy,2023.2.3,Win32,60.24096386,2,1,5,0.064814815,0.064814815,1,0,0,1.6488,Obsidian_05,5,05,4,5,1.649,-0.355555534,-0.400925954,1,0,0,1.3928,Obsidian_rect,5,1.393,1,4,0,4,0,1,,,,,,,,,,,,,
664167adcaa569ada842f8de,SCN,2024-06-24_14h48.38.919,LearnStrategy,2023.2.3,Win32,60.24096386,2,1,6,0.251851894,0.077777757,1,0,0,1.5488,Andesite_05,1,05,4,6,1.549,0.10092594,-0.40370369,1,0,0,1.364,Peridotite_rect,7,1.364,0,5,0,5,0,1,,,,,,,,,,,,,
664167adcaa569ada842f8de,SCN,2024-06-24_14h48.38.919,LearnStrategy,2023.2.3,Win32,60.24096386,2,1,7,-0.279629601,-0.112037023,1,0,0,2.4154,Gabbro_12,4,12,3,3,2.415,-0.359259252,-0.240740741,1,0,0,2.0702,Andesite_rect,1,2.07,0,6,0,6,0,1,,,,,,,,,,,,,
664167adcaa569ada842f8de,SCN,2024-06-24_14h48.38.919,LearnStrategy,2023.2.3,Win32,60.24096386,2,1,8,-0.381481489,0.435185185,1,0,0,1.8874,Gabbro_08,4,08,6,2,1.887,-0.355555534,-0.252777806,1,0,0,1.3869,Andesite_rect,1,1.387,0,7,0,7,0,1,,,,,,,,,,,,,
664167adcaa569ada842f8de,SCN,2024-06-24_14h48.38.919,LearnStrategy,2023.2.3,Win32,60.24096386,2,1,9,-0.212962963,-0.275000042,1,0,0,1.7624,Diorite_14,3,14,2,3,1.762,0.112963005,-0.408333319,1,0,0,1.0446,Peridotite_rect,7,1.045,0,8,0,8,0,1,,,,,,,,,,,,,
664167adcaa569ada842f8de,SCN,2024-06-24_14h48.38.919,LearnStrategy,2023.2.3,Win32,60.24096386,2,1,10,-0.083333333,-0.423148191,1,0,0,1.2019,Pumice_02,8,02,1,4,1.202,0.372222194,-0.409259302,1,0,0,1.0391,Pumice_rect,8,1.039,1,9,0,9,0,1,,,,,,,,,,,,,
664167adcaa569ada842f8de,SCN,2024-06-24_14h48.38.919,LearnStrategy,2023.2.3,Win32,60.24096386,2,1,11,0.535185213,-0.255555541,1,0,0,1.7899,Pegmatite_11,6,11,2,8,1.79,-0.078703704,-0.39907406,1,0,0,4.9844,Pegmatite_rect,6,4.984,1,10,0,10,0,1,,,,,,,,,,,,,
664167adcaa569ada842f8de,SCN,2024-06-24_14h48.38.919,LearnStrategy,2023.2.3,Win32,60.24096386,2,1,12,0.544444473,0.284259249,1,0,0,2.6962,Diorite_08,3,08,5,8,2.696,0.163888931,-0.255555541,1,0,0,1.2916,Diorite_rect,3,1.292,1,11,0,11,0,1,,,,,,,,,,,,,
664167adcaa569ada842f8de,SCN,2024-06-24_14h48.38.919,LearnStrategy,2023.2.3,Win32,60.24096386,2,1,13,0.385185242,0.38148148,1,0,0,1.5101,Gabbro_16,4,16,6,7,1.51,0.345370399,-0.256481524,1,0,0,2.215,Gabbro_rect,4,2.215,1,12,0,12,0,1,,,,,,,,,,,,,
664167adcaa569ada842f8de,SCN,2024-06-24_14h48.38.919,LearnStrategy,2023.2.3,Win32,60.24096386,2,1,14,-0.069444444,0.081481474,1,0,0,1.4623,Pumice_06,8,06,4,4,1.462,0.32685188,-0.383333347,1,0,0,1.9558,Pumice_rect,8,1.956,1,13,0,13,0,1,,,,,,,,,,,,,
664167adcaa569ada842f8de,SCN,2024-06-24_14h48.38.919,LearnStrategy,2023.2.3,Win32,60.24096386,2,1,15,-0.243518476,-0.396296325,1,0,0,1.3461,Obsidian_10,5,10,1,3,1.346,-0.349074081,-0.396296325,1,0,0,1.2782,Obsidian_rect,5,1.278,1,14,0,14,0,1,,,,,,,,,,,,,
664167adcaa569ada842f8de,SCN,2024-06-24_14h48.38.919,LearnStrategy,2023.2.3,Win32,60.24096386,2,1,16,-0.572222215,-0.402777778,1,0,0,1.6482,Andesite_09,1,09,1,1,1.648,-0.39907406,-0.267592607,1,0,0,1.1174,Andesite_rect,1,1.117,1,15,0,15,0,1,,,,,,,,,,,,,
664167adcaa569ada842f8de,SCN,2024-06-24_14h48.38.919,LearnStrategy,2023.2.3,Win32,60.24096386,2,2,1,,,,,,,,8,08,,,,,,,,,,,8,2.167,1,,,,,,0.434259344,-0.391666695,1,0,0,2.1668,Pumice_rect,0,0,0,0,1,
664167adcaa569ada842f8de,SCN,2024-06-24_14h48.38.919,LearnStrategy,2023.2.3,Win32,60.24096386,2,2,2,,,,,,,,7,12,,,,,,,,,,,4,2.701,0,,,,,,0.397222307,-0.255555541,1,0,0,2.7011,Gabbro_rect,1,0,1,0,1,
664167adcaa569ada842f8de,SCN,2024-06-24_14h48.38.919,LearnStrategy,2023.2.3,Win32,60.24096386,2,2,3,,,,,,,,3,02,,,,,,,,,,,4,2.038,0,,,,,,0.434259344,-0.242592635,1,0,0,2.0377,Gabbro_rect,2,0,2,0,1,
664167adcaa569ada842f8de,SCN,2024-06-24_14h48.38.919,LearnStrategy,2023.2.3,Win32,60.24096386,2,2,4,,,,,,,,1,06,,,,,,,,,,,1,1.64,1,,,,,,-0.376851859,-0.253703718,1,0,0,1.6405,Andesite_rect,3,0,3,0,1,
664167adcaa569ada842f8de,SCN,2024-06-24_14h48.38.919,LearnStrategy,2023.2.3,Win32,60.24096386,2,2,5,,,,,,,,8,15,,,,,,,,,,,8,2.317,1,,,,,,0.391666695,-0.402777778,1,0,0,2.317,Pumice_rect,4,0,4,0,1,
664167adcaa569ada842f8de,SCN,2024-06-24_14h48.38.919,LearnStrategy,2023.2.3,Win32,60.24096386,2,2,6,,,,,,,,2,12,,,,,,,,,,,7,1.539,0,,,,,,0.079629616,-0.390740783,1,0,0,1.5386,Peridotite_rect,5,0,5,0,1,
664167adcaa569ada842f8de,SCN,2024-06-24_14h48.38.919,LearnStrategy,2023.2.3,Win32,60.24096386,2,2,7,,,,,,,,1,01,,,,,,,,,,,7,1.04,0,,,,,,0.079629616,-0.390740783,1,0,0,1.0399,Peridotite_rect,6,0,6,0,1,
664167adcaa569ada842f8de,SCN,2024-06-24_14h48.38.919,LearnStrategy,2023.2.3,Win32,60.24096386,2,2,8,,,,,,,,4,03,,,,,,,,,,,4,2.291,1,,,,,,0.377777806,-0.265740783,1,0,0,2.2906,Gabbro_rect,7,0,7,0,1,
664167adcaa569ada842f8de,SCN,2024-06-24_14h48.38.919,LearnStrategy,2023.2.3,Win32,60.24096386,2,2,9,,,,,,,,2,14,,,,,,,,,,,3,2.744,0,,,,,,0.152777778,-0.259259259,1,0,0,2.7439,Diorite_rect,8,0,8,0,1,
664167adcaa569ada842f8de,SCN,2024-06-24_14h48.38.919,LearnStrategy,2023.2.3,Win32,60.24096386,2,2,10,,,,,,,,6,10,,,,,,,,,,,6,2.477,1,,,,,,-0.092592593,-0.407407407,1,0,0,2.477,Pegmatite_rect,9,0,9,0,1,
664167adcaa569ada842f8de,SCN,2024-06-24_14h48.38.919,LearnStrategy,2023.2.3,Win32,60.24096386,2,2,11,,,,,,,,7,07,,,,,,,,,,,4,1.715,0,,,,,,0.409259231,-0.237963005,1,0,0,1.7151,Gabbro_rect,10,0,10,0,1,
664167adcaa569ada842f8de,SCN,2024-06-24_14h48.38.919,LearnStrategy,2023.2.3,Win32,60.24096386,2,2,12,,,,,,,,6,05,,,,,,,,,,,5,1.712,0,,,,,,-0.336111104,-0.397222236,1,0,0,1.7117,Obsidian_rect,11,0,11,0,1,
664167adcaa569ada842f8de,SCN,2024-06-24_14h48.38.919,LearnStrategy,2023.2.3,Win32,60.24096386,2,2,13,,,,,,,,3,10,,,,,,,,,,,3,2.177,1,,,,,,0.112963005,-0.258333347,1,0,0,2.1771,Diorite_rect,12,0,12,0,1,
664167adcaa569ada842f8de,SCN,2024-06-24_14h48.38.919,LearnStrategy,2023.2.3,Win32,60.24096386,2,2,14,,,,,,,,5,04,,,,,,,,,,,5,1.583,1,,,,,,-0.420370349,-0.418518561,1,0,0,1.5827,Obsidian_rect,13,0,13,0,1,
664167adcaa569ada842f8de,SCN,2024-06-24_14h48.38.919,LearnStrategy,2023.2.3,Win32,60.24096386,2,2,15,,,,,,,,4,11,,,,,,,,,,,4,2.303,1,,,,,,0.376851824,-0.251851894,1,0,0,2.3029,Gabbro_rect,14,0,14,0,1,
664167adcaa569ada842f8de,SCN,2024-06-24_14h48.38.919,LearnStrategy,2023.2.3,Win32,60.24096386,2,2,16,,,,,,,,5,06,,,,,,,,,,,5,1.516,1,,,,,,-0.318518497,-0.404629672,1,0,0,1.516,Obsidian_rect,15,0,15,0,1,
664167adcaa569ada842f8de,SCN,2024-06-24_14h48.38.919,LearnStrategy,2023.2.3,Win32,60.24096386,3,1,1,0.251851894,-0.087962963,1,0,0,1.1801,Diorite_06,3,06,3,6,1.18,0.419444473,-0.262037065,1,0,0,1.8447,Gabbro_rect,4,1.845,0,0,0,0,0,1,,,,,,,,,,,,,
664167adcaa569ada842f8de,SCN,2024-06-24_14h48.38.919,LearnStrategy,2023.2.3,Win32,60.24096386,3,1,2,0.432407379,-0.08888891,1,0,0,1.1389,Diorite_13,3,13,3,7,1.139,0.382407436,-0.253703718,1,0,0,1.0121,Gabbro_rect,4,1.012,0,1,0,1,0,1,,,,,,,,,,,,,
664167adcaa569ada842f8de,SCN,2024-06-24_14h48.38.919,LearnStrategy,2023.2.3,Win32,60.24096386,3,1,3,-0.062962921,-0.123148176,1,0,0,1.1657,Peridotite_14,7,14,3,4,1.166,-0.347222222,-0.240740741,1,0,0,1.1889,Andesite_rect,1,1.189,0,2,0,2,0,1,,,,,,,,,,,,,
664167adcaa569ada842f8de,SCN,2024-06-24_14h48.38.919,LearnStrategy,2023.2.3,Win32,60.24096386,3,1,4,-0.401851831,-0.101851852,1,0,0,1.2119,Andesite_07,1,07,3,2,1.212,0.05277782,-0.236111111,1,0,0,2.0045,Diorite_rect,3,2.005,0,3,0,3,0,1,,,,,,,,,,,,,
664167adcaa569ada842f8de,SCN,2024-06-24_14h48.38.919,LearnStrategy,2023.2.3,Win32,60.24096386,3,1,5,0.239814829,0.272222219,1,0,0,3.6442,Gabbro_14,4,14,5,6,3.644,0.344444416,-0.242592635,1,0,0,1.358,Gabbro_rect,4,1.358,1,4,0,4,0,1,,,,,,,,,,,,,
664167adcaa569ada842f8de,SCN,2024-06-24_14h48.38.919,LearnStrategy,2023.2.3,Win32,60.24096386,3,1,6,0.425000085,0.283333337,1,0,0,1.4115,Basalt_16,2,16,5,7,1.411,0.369444529,-0.255555541,1,0,0,1.1225,Gabbro_rect,4,1.122,0,5,0,5,0,1,,,,,,,,,,,,,
664167adcaa569ada842f8de,SCN,2024-06-24_14h48.38.919,LearnStrategy,2023.2.3,Win32,60.24096386,3,1,7,0.415740826,0.424074076,1,0,0,1.1508,Gabbro_16,4,16,6,7,1.151,0.357407464,-0.262037065,1,0,0,1.1257,Gabbro_rect,4,1.126,1,6,0,6,0,1,,,,,,,,,,,,,
664167adcaa569ada842f8de,SCN,2024-06-24_14h48.38.919,LearnStrategy,2023.2.3,Win32,60.24096386,3,1,8,0.25462963,0.415740737,1,0,0,1.2991,Andesite_03,1,03,6,6,1.299,-0.345370363,-0.259259259,1,0,0,1.6829,Andesite_rect,1,1.683,1,7,0,7,0,1,,,,,,,,,,,,,
664167adcaa569ada842f8de,SCN,2024-06-24_14h48.38.919,LearnStrategy,2023.2.3,Win32,60.24096386,3,1,9,-0.543518526,0.38148148,1,0,0,2.3129,Basalt_05,2,05,6,1,2.313,-0.344444452,-0.237963005,1,0,0,1.5761,Andesite_rect,1,1.576,0,8,0,8,0,1,,,,,,,,,,,,,
664167adcaa569ada842f8de,SCN,2024-06-24_14h48.38.919,LearnStrategy,2023.2.3,Win32,60.24096386,3,1,10,-0.04351849,0.264814818,1,0,0,2.882,Andesite_02,1,02,5,4,2.882,0.367592564,-0.265740783,1,0,0,3.0926,Gabbro_rect,4,3.093,0,9,0,9,0,1,,,,,,,,,,,,,
664167adcaa569ada842f8de,SCN,2024-06-24_14h48.38.919,LearnStrategy,2023.2.3,Win32,60.24096386,3,1,11,0.387037065,-0.270370413,1,0,0,1.6788,Pegmatite_06,6,06,2,7,1.679,-0.172222208,-0.419444473,1,0,0,1.6066,Pegmatite_rect,6,1.607,1,10,0,10,0,1,,,,,,,,,,,,,
664167adcaa569ada842f8de,SCN,2024-06-24_14h48.38.919,LearnStrategy,2023.2.3,Win32,60.24096386,3,1,12,0.566666638,-0.386111153,1,0,0,1.91,Peridotite_13,7,13,1,8,1.91,0.338888945,-0.24537037,1,0,0,1.4834,Gabbro_rect,4,1.483,0,11,0,11,0,1,,,,,,,,,,,,,
664167adcaa569ada842f8de,SCN,2024-06-24_14h48.38.919,LearnStrategy,2023.2.3,Win32,60.24096386,3,1,13,-0.23055557,-0.248148176,1,0,0,1.2527,Diorite_14,3,14,2,3,1.253,0.33148151,-0.23055557,1,0,0,2.3217,Gabbro_rect,4,2.322,0,12,0,12,0,1,,,,,,,,,,,,,
664167adcaa569ada842f8de,SCN,2024-06-24_14h48.38.919,LearnStrategy,2023.2.3,Win32,60.24096386,3,1,14,-0.409259266,-0.119444459,1,0,0,1.8114,Andesite_07,1,07,3,2,1.811,0.145370413,-0.24537037,1,0,0,0.8659,Diorite_rect,3,0.866,0,13,0,13,0,1,,,,,,,,,,,,,
664167adcaa569ada842f8de,SCN,2024-06-24_14h48.38.919,LearnStrategy,2023.2.3,Win32,60.24096386,3,1,15,-0.365740741,0.406481478,1,0,0,2.9478,Gabbro_08,4,08,6,2,2.948,-0.3824074,-0.237037023,1,0,0,2.2653,Andesite_rect,1,2.265,0,14,0,14,0,1,,,,,,,,,,,,,
664167adcaa569ada842f8de,SCN,2024-06-24_14h48.38.919,LearnStrategy,2023.2.3,Win32,60.24096386,3,1,16,0.09629631,0.292592596,1,0,0,1.5543,Pumice_09,8,09,5,5,1.554,0.411111196,-0.382407436,1,0,0,1.2619,Pumice_rect,8,1.262,1,15,0,15,0,1,,,,,,,,,,,,,
664167adcaa569ada842f8de,SCN,2024-06-24_14h48.38.919,LearnStrategy,2023.2.3,Win32,60.24096386,3,2,1,,,,,,,,8,04,,,,,,,,,,,8,1.958,1,,,,,,0.37037037,-0.39444443,1,0,0,1.9577,Pumice_rect,0,0,0,0,1,
664167adcaa569ada842f8de,SCN,2024-06-24_14h48.38.919,LearnStrategy,2023.2.3,Win32,60.24096386,3,2,2,,,,,,,,3,11,,,,,,,,,,,4,6.231,0,,,,,,0.416666667,-0.237037023,1,0,0,6.2311,Gabbro_rect,1,0,1,0,1,
664167adcaa569ada842f8de,SCN,2024-06-24_14h48.38.919,LearnStrategy,2023.2.3,Win32,60.24096386,3,2,3,,,,,,,,2,09,,,,,,,,,,,2,2.4,1,,,,,,-0.143518519,-0.257407436,1,0,0,2.4004,Basalt_rect,2,0,2,0,1,
664167adcaa569ada842f8de,SCN,2024-06-24_14h48.38.919,LearnStrategy,2023.2.3,Win32,60.24096386,3,2,4,,,,,,,,4,01,,,,,,,,,,,1,1.797,0,,,,,,-0.413888896,-0.262037065,1,0,0,1.7971,Andesite_rect,3,0,3,0,1,
664167adcaa569ada842f8de,SCN,2024-06-24_14h48.38.919,LearnStrategy,2023.2.3,Win32,60.24096386,3,2,5,,,,,,,,1,14,,,,,,,,,,,1,2.443,1,,,,,,-0.413888896,-0.262037065,1,0,0,2.4426,Andesite_rect,4,0,4,0,1,
664167adcaa569ada842f8de,SCN,2024-06-24_14h48.38.919,LearnStrategy,2023.2.3,Win32,60.24096386,3,2,6,,,,,,,,7,04,,,,,,,,,,,6,2.052,0,,,,,,-0.076851809,-0.393518519,1,0,0,2.052,Pegmatite_rect,5,0,5,0,1,
664167adcaa569ada842f8de,SCN,2024-06-24_14h48.38.919,LearnStrategy,2023.2.3,Win32,60.24096386,3,2,7,,,,,,,,8,10,,,,,,,,,,,8,1.638,1,,,,,,0.391666695,-0.388888889,1,0,0,1.6382,Pumice_rect,6,0,6,0,1,
664167adcaa569ada842f8de,SCN,2024-06-24_14h48.38.919,LearnStrategy,2023.2.3,Win32,60.24096386,3,2,8,,,,,,,,4,10,,,,,,,,,,,5,2.65,0,,,,,,-0.387962942,-0.419444473,1,0,0,2.6496,Obsidian_rect,7,0,7,0,1,
664167adcaa569ada842f8de,SCN,2024-06-24_14h48.38.919,LearnStrategy,2023.2.3,Win32,60.24096386,3,2,9,,,,,,,,6,03,,,,,,,,,,,6,1.719,1,,,,,,-0.202777792,-0.412962949,1,0,0,1.7189,Pegmatite_rect,8,0,8,0,1,
664167adcaa569ada842f8de,SCN,2024-06-24_14h48.38.919,LearnStrategy,2023.2.3,Win32,60.24096386,3,2,10,,,,,,,,5,11,,,,,,,,,,,5,1.404,1,,,,,,-0.357407393,-0.392592607,1,0,0,1.4039,Obsidian_rect,9,0,9,0,1,
664167adcaa569ada842f8de,SCN,2024-06-24_14h48.38.919,LearnStrategy,2023.2.3,Win32,60.24096386,3,2,11,,,,,,,,3,07,,,,,,,,,,,3,2.115,1,,,,,,0.135185171,-0.253703718,1,0,0,2.1146,Diorite_rect,10,0,10,0,1,
664167adcaa569ada842f8de,SCN,2024-06-24_14h48.38.919,LearnStrategy,2023.2.3,Win32,60.24096386,3,2,12,,,,,,,,6,15,,,,,,,,,,,6,2.198,1,,,,,,-0.064814815,-0.406481496,1,0,0,2.1981,Pegmatite_rect,11,0,11,0,1,
664167adcaa569ada842f8de,SCN,2024-06-24_14h48.38.919,LearnStrategy,2023.2.3,Win32,60.24096386,3,2,13,,,,,,,,2,02,,,,,,,,,,,2,1.279,1,,,,,,-0.099074046,-0.232407393,1,0,0,1.2785,Basalt_rect,12,0,12,0,1,
664167adcaa569ada842f8de,SCN,2024-06-24_14h48.38.919,LearnStrategy,2023.2.3,Win32,60.24096386,3,2,14,,,,,,,,1,16,,,,,,,,,,,1,1.508,1,,,,,,-0.342592593,-0.241666653,1,0,0,1.5078,Andesite_rect,13,0,13,0,1,
664167adcaa569ada842f8de,SCN,2024-06-24_14h48.38.919,LearnStrategy,2023.2.3,Win32,60.24096386,3,2,15,,,,,,,,5,14,,,,,,,,,,,5,1.793,1,,,,,,-0.37962963,-0.401851866,1,0,0,1.7928,Obsidian_rect,14,0,14,0,1,
664167adcaa569ada842f8de,SCN,2024-06-24_14h48.38.919,LearnStrategy,2023.2.3,Win32,60.24096386,3,2,16,,,,,,,,7,05,,,,,,,,,,,2,3.226,0,,,,,,-0.103703675,-0.264814801,1,0,0,3.2261,Basalt_rect,15,0,15,0,1,
664167adcaa569ada842f8de,SCN,2024-06-24_14h48.38.919,LearnStrategy,2023.2.3,Win32,60.24096386,4,1,1,-0.062962921,0.25833333,1,0,0,2.4021,Andesite_02,1,02,5,4,2.402,-0.41111109,-0.24537037,1,0,0,2.8561,Andesite_rect,1,2.856,1,0,0,0,0,1,,,,,,,,,,,,,
664167adcaa569ada842f8de,SCN,2024-06-24_14h48.38.919,LearnStrategy,2023.2.3,Win32,60.24096386,4,1,2,0.248148176,0.119444423,1,0,0,1.8596,Andesite_05,1,05,4,6,1.86,0.103703746,-0.250925912,1,0,0,1.786,Diorite_rect,3,1.786,0,1,0,1,0,1,,,,,,,,,,,,,
664167adcaa569ada842f8de,SCN,2024-06-24_14h48.38.919,LearnStrategy,2023.2.3,Win32,60.24096386,4,1,3,0.10092594,-0.266666695,1,0,0,1.0148,Diorite_09,3,09,2,5,1.015,0.110185199,-0.257407436,1,0,0,0.8287,Diorite_rect,3,0.829,1,2,0,2,0,1,,,,,,,,,,,,,
664167adcaa569ada842f8de,SCN,2024-06-24_14h48.38.919,LearnStrategy,2023.2.3,Win32,60.24096386,4,1,4,-0.068518533,-0.262037065,1,0,0,1.2971,Peridotite_06,7,06,2,4,1.297,-0.071296268,-0.249074088,1,0,0,1.9926,Basalt_rect,2,1.993,0,3,0,3,0,1,,,,,,,,,,,,,
664167adcaa569ada842f8de,SCN,2024-06-24_14h48.38.919,LearnStrategy,2023.2.3,Win32,60.24096386,4,1,5,-0.229629587,-0.112037023,1,0,0,1.4655,Gabbro_12,4,12,3,3,1.465,-0.125,-0.236111111,1,0,0,1.4987,Basalt_rect,2,1.499,0,4,0,4,0,1,,,,,,,,,,,,,
664167adcaa569ada842f8de,SCN,2024-06-24_14h48.38.919,LearnStrategy,2023.2.3,Win32,60.24096386,4,1,6,-0.395370377,0.109259252,1,0,0,1.8656,Pegmatite_13,6,13,4,2,1.866,-0.104629587,-0.400000042,1,0,0,1.5799,Pegmatite_rect,6,1.58,1,5,0,5,0,1,,,,,,,,,,,,,
664167adcaa569ada842f8de,SCN,2024-06-24_14h48.38.919,LearnStrategy,2023.2.3,Win32,60.24096386,4,1,7,-0.560185185,-0.25,1,0,0,1.4993,Basalt_06,2,06,2,1,1.499,-0.154629601,-0.252777806,1,0,0,1.6771,Basalt_rect,2,1.677,1,6,0,6,0,1,,,,,,,,,,,,,
664167adcaa569ada842f8de,SCN,2024-06-24_14h48.38.919,LearnStrategy,2023.2.3,Win32,60.24096386,4,1,8,-0.545370349,0.420370367,1,0,0,1.1902,Basalt_05,2,05,6,1,1.19,-0.087037051,-0.236111111,1,0,0,1.2353,Basalt_rect,2,1.235,1,7,0,7,0,1,,,,,,,,,,,,,
664167adcaa569ada842f8de,SCN,2024-06-24_14h48.38.919,LearnStrategy,2023.2.3,Win32,60.24096386,4,1,9,-0.374074053,0.432407406,1,0,0,1.3319,Gabbro_08,4,08,6,2,1.332,0.337962963,-0.250925912,1,0,0,1.8426,Gabbro_rect,4,1.843,1,8,0,8,0,1,,,,,,,,,,,,,
664167adcaa569ada842f8de,SCN,2024-06-24_14h48.38.919,LearnStrategy,2023.2.3,Win32,60.24096386,4,1,10,-0.248148106,0.421296296,1,0,0,1.3053,Gabbro_09,4,09,6,3,1.305,-0.3675926,-0.236111111,1,0,0,2.5011,Andesite_rect,1,2.501,0,9,0,9,0,1,,,,,,,,,,,,,
664167adcaa569ada842f8de,SCN,2024-06-24_14h48.38.919,LearnStrategy,2023.2.3,Win32,60.24096386,4,1,11,-0.058333291,0.422222217,1,0,0,1.4653,Obsidian_12,5,12,6,4,1.465,-0.326851845,-0.404629672,1,0,0,1.7577,Obsidian_rect,5,1.758,1,10,0,10,0,1,,,,,,,,,,,,,
664167adcaa569ada842f8de,SCN,2024-06-24_14h48.38.919,LearnStrategy,2023.2.3,Win32,60.24096386,4,1,12,0.219444487,0.412037037,1,0,0,1.3298,Andesite_03,1,03,6,6,1.33,0.121296282,-0.249074088,1,0,0,1.0263,Diorite_rect,3,1.026,0,11,0,11,0,1,,,,,,,,,,,,,
664167adcaa569ada842f8de,SCN,2024-06-24_14h48.38.919,LearnStrategy,2023.2.3,Win32,60.24096386,4,1,13,0.238888917,0.239814811,1,0,0,1.0148,Gabbro_14,4,14,5,6,1.015,-0.084259245,-0.25462963,1,0,0,1.4953,Basalt_rect,2,1.495,0,12,0,12,0,1,,,,,,,,,,,,,
664167adcaa569ada842f8de,SCN,2024-06-24_14h48.38.919,LearnStrategy,2023.2.3,Win32,60.24096386,4,1,14,0.237963005,-0.08888891,1,0,0,0.565,Diorite_06,3,06,3,6,0.565,0.122222265,-0.250925912,1,0,0,1.1518,Diorite_rect,3,1.152,1,13,0,13,0,1,,,,,,,,,,,,,
664167adcaa569ada842f8de,SCN,2024-06-24_14h48.38.919,LearnStrategy,2023.2.3,Win32,60.24096386,4,1,15,0.074074074,-0.409259302,1,0,0,0.7274,Pumice_16,8,16,1,5,0.727,0.346296381,-0.387037065,1,0,0,0.8129,Pumice_rect,8,0.813,1,14,0,14,0,1,,,,,,,,,,,,,
664167adcaa569ada842f8de,SCN,2024-06-24_14h48.38.919,LearnStrategy,2023.2.3,Win32,60.24096386,4,1,16,0.378703788,-0.248148176,1,0,0,0.7145,Pegmatite_06,6,06,2,7,0.715,-0.076851809,-0.402777778,1,0,0,0.8151,Pegmatite_rect,6,0.815,1,15,0,15,0,1,,,,,,,,,,,,,
664167adcaa569ada842f8de,SCN,2024-06-24_14h48.38.919,LearnStrategy,2023.2.3,Win32,60.24096386,4,2,1,,,,,,,,4,01,,,,,,,,,,,3,1.677,0,,,,,,0.131481524,-0.250925912,1,0,0,1.6765,Diorite_rect,0,0,0,0,1,
664167adcaa569ada842f8de,SCN,2024-06-24_14h48.38.919,LearnStrategy,2023.2.3,Win32,60.24096386,4,2,2,,,,,,,,2,02,,,,,,,,,,,2,1.354,1,,,,,,-0.147222236,-0.266666695,1,0,0,1.3544,Basalt_rect,1,0,1,0,1,
664167adcaa569ada842f8de,SCN,2024-06-24_14h48.38.919,LearnStrategy,2023.2.3,Win32,60.24096386,4,2,3,,,,,,,,3,07,,,,,,,,,,,4,3.181,0,,,,,,0.409259231,-0.247222265,1,0,0,3.1806,Gabbro_rect,2,0,2,0,1,
664167adcaa569ada842f8de,SCN,2024-06-24_14h48.38.919,LearnStrategy,2023.2.3,Win32,60.24096386,4,2,4,,,,,,,,3,10,,,,,,,,,,,3,1.054,1,,,,,,0.155555584,-0.237963005,1,0,0,1.054,Diorite_rect,3,0,3,0,1,
664167adcaa569ada842f8de,SCN,2024-06-24_14h48.38.919,LearnStrategy,2023.2.3,Win32,60.24096386,4,2,5,,,,,,,,8,13,,,,,,,,,,,8,1.233,1,,,,,,0.316666638,-0.418518561,1,0,0,1.2328,Pumice_rect,4,0,4,0,1,
664167adcaa569ada842f8de,SCN,2024-06-24_14h48.38.919,LearnStrategy,2023.2.3,Win32,60.24096386,4,2,6,,,,,,,,6,15,,,,,,,,,,,5,1.085,0,,,,,,-0.348148134,-0.384259259,1,0,0,1.0848,Obsidian_rect,5,0,5,0,1,
664167adcaa569ada842f8de,SCN,2024-06-24_14h48.38.919,LearnStrategy,2023.2.3,Win32,60.24096386,4,2,7,,,,,,,,4,11,,,,,,,,,,,2,1.404,0,,,,,,-0.10555557,-0.234259288,1,0,0,1.4042,Basalt_rect,6,0,6,0,1,
664167adcaa569ada842f8de,SCN,2024-06-24_14h48.38.919,LearnStrategy,2023.2.3,Win32,60.24096386,4,2,8,,,,,,,,5,11,,,,,,,,,,,5,0.923,1,,,,,,-0.337962963,-0.37962963,1,0,0,0.9228,Obsidian_rect,7,0,7,0,1,
664167adcaa569ada842f8de,SCN,2024-06-24_14h48.38.919,LearnStrategy,2023.2.3,Win32,60.24096386,4,2,9,,,,,,,,2,04,,,,,,,,,,,2,1.554,1,,,,,,-0.128703718,-0.237963005,1,0,0,1.5545,Basalt_rect,8,0,8,0,1,
664167adcaa569ada842f8de,SCN,2024-06-24_14h48.38.919,LearnStrategy,2023.2.3,Win32,60.24096386,4,2,10,,,,,,,,5,06,,,,,,,,,,,5,1.839,1,,,,,,-0.362037023,-0.388888889,1,0,0,1.8392,Obsidian_rect,9,0,9,0,1,
664167adcaa569ada842f8de,SCN,2024-06-24_14h48.38.919,LearnStrategy,2023.2.3,Win32,60.24096386,4,2,11,,,,,,,,6,10,,,,,,,,,,,6,1.504,1,,,,,,-0.10555557,-0.39907406,1,0,0,1.5037,Pegmatite_rect,10,0,10,0,1,
664167adcaa569ada842f8de,SCN,2024-06-24_14h48.38.919,LearnStrategy,2023.2.3,Win32,60.24096386,4,2,12,,,,,,,,8,03,,,,,,,,,,,8,1.153,1,,,,,,0.304629714,-0.406481496,1,0,0,1.1529,Pumice_rect,11,0,11,0,1,
664167adcaa569ada842f8de,SCN,2024-06-24_14h48.38.919,LearnStrategy,2023.2.3,Win32,60.24096386,4,2,13,,,,,,,,1,16,,,,,,,,,,,1,1.125,1,,,,,,-0.388888889,-0.249074088,1,0,0,1.125,Andesite_rect,12,0,12,0,1,
664167adcaa569ada842f8de,SCN,2024-06-24_14h48.38.919,LearnStrategy,2023.2.3,Win32,60.24096386,4,2,14,,,,,,,,7,04,,,,,,,,,,,4,2.278,0,,,,,,0.394444501,-0.263888889,1,0,0,2.2783,Gabbro_rect,13,0,13,0,1,
664167adcaa569ada842f8de,SCN,2024-06-24_14h48.38.919,LearnStrategy,2023.2.3,Win32,60.24096386,4,2,15,,,,,,,,1,11,,,,,,,,,,,3,1.041,0,,,,,,0.102777764,-0.251851894,1,0,0,1.0409,Diorite_rect,14,0,14,0,1,
664167adcaa569ada842f8de,SCN,2024-06-24_14h48.38.919,LearnStrategy,2023.2.3,Win32,60.24096386,4,2,16,,,,,,,,7,05,,,,,,,,,,,2,2.08,0,,,,,,-0.178703661,-0.255555541,1,0,0,2.0798,Basalt_rect,15,0,15,0,1,
664167adcaa569ada842f8de,SCN,2024-06-24_14h48.38.919,LearnStrategy,2023.2.3,Win32,60.24096386,5,1,1,-0.077777792,0.103703711,1,0,0,1.2937,Pumice_06,8,06,4,4,1.294,0.354629658,-0.411111125,1,0,0,0.9089,Pumice_rect,8,0.909,1,0,0,0,0,1,,,,,,,,,,,,,
664167adcaa569ada842f8de,SCN,2024-06-24_14h48.38.919,LearnStrategy,2023.2.3,Win32,60.24096386,5,1,2,-0.215740698,0.096296275,1,0,0,0.5976,Pegmatite_07,6,07,4,3,0.598,-0.117592564,-0.389814801,1,0,0,0.8589,Pegmatite_rect,6,0.859,1,1,0,1,0,1,,,,,,,,,,,,,
664167adcaa569ada842f8de,SCN,2024-06-24_14h48.38.919,LearnStrategy,2023.2.3,Win32,60.24096386,5,1,3,0.233333376,0.087037016,1,0,0,0.5978,Andesite_05,1,05,4,6,0.598,0.128703718,-0.243518547,1,0,0,1.0467,Diorite_rect,3,1.047,0,2,0,2,0,1,,,,,,,,,,,,,
664167adcaa569ada842f8de,SCN,2024-06-24_14h48.38.919,LearnStrategy,2023.2.3,Win32,60.24096386,5,1,4,0.242592635,0.103703711,1,0,0,0.4978,Andesite_05,1,05,4,6,0.498,-0.336111104,-0.252777806,1,0,0,0.7739,Andesite_rect,1,0.774,1,3,0,3,0,1,,,,,,,,,,,,,
664167adcaa569ada842f8de,SCN,2024-06-24_14h48.38.919,LearnStrategy,2023.2.3,Win32,60.24096386,5,1,5,0.24537037,0.237037041,1,0,0,0.925,Gabbro_14,4,14,5,6,0.925,0.136111153,-0.248148176,1,0,0,1.1475,Diorite_rect,3,1.148,0,4,0,4,0,1,,,,,,,,,,,,,
664167adcaa569ada842f8de,SCN,2024-06-24_14h48.38.919,LearnStrategy,2023.2.3,Win32,60.24096386,5,1,6,0.083333333,0.263888889,1,0,0,0.9147,Pumice_09,8,09,5,5,0.915,0.353703675,-0.390740783,1,0,0,0.9518,Pumice_rect,8,0.952,1,5,0,5,0,1,,,,,,,,,,,,,
664167adcaa569ada842f8de,SCN,2024-06-24_14h48.38.919,LearnStrategy,2023.2.3,Win32,60.24096386,5,1,7,0.223148134,0.422222217,1,0,0,0.7476,Andesite_03,1,03,6,6,0.748,-0.117592564,-0.24537037,1,0,0,1.5266,Basalt_rect,2,1.527,0,6,0,6,0,1,,,,,,,,,,,,,
664167adcaa569ada842f8de,SCN,2024-06-24_14h48.38.919,LearnStrategy,2023.2.3,Win32,60.24096386,5,1,8,0.220370399,0.432407406,1,0,0,0.6313,Andesite_03,1,03,6,6,0.631,-0.371296282,-0.236111111,1,0,0,0.5453,Andesite_rect,1,0.545,1,7,0,7,0,1,,,,,,,,,,,,,
664167adcaa569ada842f8de,SCN,2024-06-24_14h48.38.919,LearnStrategy,2023.2.3,Win32,60.24096386,5,1,9,0.377777806,0.407407407,1,0,0,0.8482,Gabbro_16,4,16,6,7,0.848,0.359259288,-0.237037023,1,0,0,1.0022,Gabbro_rect,4,1.002,1,8,0,8,0,1,,,,,,,,,,,,,
664167adcaa569ada842f8de,SCN,2024-06-24_14h48.38.919,LearnStrategy,2023.2.3,Win32,60.24096386,5,1,10,0.540740826,0.407407407,1,0,0,0.6533,Diorite_12,3,12,6,8,0.653,-0.143518519,-0.251851894,1,0,0,1.5456,Basalt_rect,2,1.546,0,9,0,9,0,1,,,,,,,,,,,,,
664167adcaa569ada842f8de,SCN,2024-06-24_14h48.38.919,LearnStrategy,2023.2.3,Win32,60.24096386,5,1,11,0.562037009,0.395370369,1,0,0,0.5494,Diorite_12,3,12,6,8,0.549,0.154629672,-0.239814829,1,0,0,0.6288,Diorite_rect,3,0.629,1,10,0,10,0,1,,,,,,,,,,,,,
664167adcaa569ada842f8de,SCN,2024-06-24_14h48.38.919,LearnStrategy,2023.2.3,Win32,60.24096386,5,1,12,-0.585185192,0.408333328,1,0,0,0.7403,Basalt_05,2,05,6,1,0.74,-0.125925912,-0.249074088,1,0,0,1.7543,Basalt_rect,2,1.754,1,11,0,11,0,1,,,,,,,,,,,,,
664167adcaa569ada842f8de,SCN,2024-06-24_14h48.38.919,LearnStrategy,2023.2.3,Win32,60.24096386,5,1,13,-0.383333312,0.403703698,1,0,0,0.77,Gabbro_08,4,08,6,2,0.77,-0.109259217,-0.233333376,1,0,0,1.1549,Basalt_rect,2,1.155,0,12,0,12,0,1,,,,,,,,,,,,,
664167adcaa569ada842f8de,SCN,2024-06-24_14h48.38.919,LearnStrategy,2023.2.3,Win32,60.24096386,5,1,14,-0.240740741,0.424999996,1,0,0,0.7319,Gabbro_09,4,09,6,3,0.732,0.415740826,-0.246296282,1,0,0,0.9344,Gabbro_rect,4,0.934,1,13,0,13,0,1,,,,,,,,,,,,,
664167adcaa569ada842f8de,SCN,2024-06-24_14h48.38.919,LearnStrategy,2023.2.3,Win32,60.24096386,5,1,15,0.258333347,0.107407393,1,0,0,1.1821,Andesite_05,1,05,4,6,1.182,0.125925912,-0.238888917,1,0,0,1.3619,Diorite_rect,3,1.362,0,14,0,14,0,1,,,,,,,,,,,,,
664167adcaa569ada842f8de,SCN,2024-06-24_14h48.38.919,LearnStrategy,2023.2.3,Win32,60.24096386,5,1,16,-0.377777771,-0.093518504,1,0,0,1.6646,Andesite_07,1,07,3,2,1.665,0.135185171,-0.237963005,1,0,0,0.6833,Diorite_rect,3,0.683,0,15,0,15,0,1,,,,,,,,,,,,,
664167adcaa569ada842f8de,SCN,2024-06-24_14h48.38.919,LearnStrategy,2023.2.3,Win32,60.24096386,5,2,1,,,,,,,,1,06,,,,,,,,,,,1,1.327,1,,,,,,-0.365740741,-0.25,1,0,0,1.3275,Andesite_rect,0,0,0,0,1,
664167adcaa569ada842f8de,SCN,2024-06-24_14h48.38.919,LearnStrategy,2023.2.3,Win32,60.24096386,5,2,2,,,,,,,,1,14,,,,,,,,,,,1,1.126,1,,,,,,-0.357407393,-0.228703746,1,0,0,1.1261,Andesite_rect,1,0,1,0,1,
664167adcaa569ada842f8de,SCN,2024-06-24_14h48.38.919,LearnStrategy,2023.2.3,Win32,60.24096386,5,2,3,,,,,,,,6,05,,,,,,,,,,,6,1.712,1,,,,,,-0.110185199,-0.419444473,1,0,0,1.7123,Pegmatite_rect,2,0,2,0,1,
664167adcaa569ada842f8de,SCN,2024-06-24_14h48.38.919,LearnStrategy,2023.2.3,Win32,60.24096386,5,2,4,,,,,,,,7,16,,,,,,,,,,,4,1.521,0,,,,,,0.348148205,-0.237963005,1,0,0,1.5213,Gabbro_rect,3,0,3,0,1,
664167adcaa569ada842f8de,SCN,2024-06-24_14h48.38.919,LearnStrategy,2023.2.3,Win32,60.24096386,5,2,5,,,,,,,,3,11,,,,,,,,,,,3,1.302,1,,,,,,0.08148151,-0.246296282,1,0,0,1.3017,Diorite_rect,4,0,4,0,1,
664167adcaa569ada842f8de,SCN,2024-06-24_14h48.38.919,LearnStrategy,2023.2.3,Win32,60.24096386,5,2,6,,,,,,,,3,02,,,,,,,,,,,3,1.133,1,,,,,,0.094444487,-0.247222265,1,0,0,1.1329,Diorite_rect,5,0,5,0,1,
664167adcaa569ada842f8de,SCN,2024-06-24_14h48.38.919,LearnStrategy,2023.2.3,Win32,60.24096386,5,2,7,,,,,,,,2,14,,,,,,,,,,,2,1.613,1,,,,,,-0.071296268,-0.252777806,1,0,0,1.6131,Basalt_rect,6,0,6,0,1,
664167adcaa569ada842f8de,SCN,2024-06-24_14h48.38.919,LearnStrategy,2023.2.3,Win32,60.24096386,5,2,8,,,,,,,,6,12,,,,,,,,,,,6,1.68,1,,,,,,-0.10092594,-0.405555584,1,0,0,1.6802,Pegmatite_rect,7,0,7,0,1,
664167adcaa569ada842f8de,SCN,2024-06-24_14h48.38.919,LearnStrategy,2023.2.3,Win32,60.24096386,5,2,9,,,,,,,,5,09,,,,,,,,,,,5,0.972,1,,,,,,-0.304629608,-0.390740783,1,0,0,0.9722,Obsidian_rect,8,0,8,0,1,
664167adcaa569ada842f8de,SCN,2024-06-24_14h48.38.919,LearnStrategy,2023.2.3,Win32,60.24096386,5,2,10,,,,,,,,2,01,,,,,,,,,,,2,2.009,1,,,,,,-0.150925884,-0.248148176,1,0,0,2.0086,Basalt_rect,9,0,9,0,1,
664167adcaa569ada842f8de,SCN,2024-06-24_14h48.38.919,LearnStrategy,2023.2.3,Win32,60.24096386,5,2,11,,,,,,,,8,04,,,,,,,,,,,8,1.002,1,,,,,,0.390740712,-0.404629672,1,0,0,1.0019,Pumice_rect,10,0,10,0,1,
664167adcaa569ada842f8de,SCN,2024-06-24_14h48.38.919,LearnStrategy,2023.2.3,Win32,60.24096386,5,2,12,,,,,,,,4,05,,,,,,,,,,,3,0.979,0,,,,,,0.122222265,-0.241666653,1,0,0,0.9789,Diorite_rect,11,0,11,0,1,
664167adcaa569ada842f8de,SCN,2024-06-24_14h48.38.919,LearnStrategy,2023.2.3,Win32,60.24096386,5,2,13,,,,,,,,4,10,,,,,,,,,,,3,1.261,0,,,,,,0.087962963,-0.240740741,1,0,0,1.2608,Diorite_rect,12,0,12,0,1,
664167adcaa569ada842f8de,SCN,2024-06-24_14h48.38.919,LearnStrategy,2023.2.3,Win32,60.24096386,5,2,14,,,,,,,,7,12,,,,,,,,,,,1,1.187,0,,,,,,-0.409259266,-0.257407436,1,0,0,1.187,Andesite_rect,13,0,13,0,1,
664167adcaa569ada842f8de,SCN,2024-06-24_14h48.38.919,LearnStrategy,2023.2.3,Win32,60.24096386,5,2,15,,,,,,,,5,02,,,,,,,,,,,5,0.937,1,,,,,,-0.381481489,-0.382407436,1,0,0,0.9365,Obsidian_rect,14,0,14,0,1,
664167adcaa569ada842f8de,SCN,2024-06-24_14h48.38.919,LearnStrategy,2023.2.3,Win32,60.24096386,5,2,16,,,,,,,,8,08,,,,,,,,,,,8,1.682,1,,,,,,0.35555564,-0.395370413,1,0,0,1.6816,Pumice_rect,15,0,15,0,1,
664167adcaa569ada842f8de,SCN,2024-06-24_14h48.38.919,LearnStrategy,2023.2.3,Win32,60.24096386,6,1,1,-0.232407393,0.417592587,1,0,0,0.8872,Gabbro_09,4,09,6,3,0.887,-0.331481474,-0.253703718,1,0,0,2.102,Andesite_rect,1,2.102,0,0,0,0,0,1,,,,,,,,,,,,,
664167adcaa569ada842f8de,SCN,2024-06-24_14h48.38.919,LearnStrategy,2023.2.3,Win32,60.24096386,6,1,2,-0.408333319,0.423148146,1,0,0,0.5981,Gabbro_08,4,08,6,2,0.598,0.362037094,-0.252777806,1,0,0,1.6814,Gabbro_rect,4,1.681,1,1,0,1,0,1,,,,,,,,,,,,,
664167adcaa569ada842f8de,SCN,2024-06-24_14h48.38.919,LearnStrategy,2023.2.3,Win32,60.24096386,6,1,3,0.239814829,0.083333333,1,0,0,0.8242,Andesite_05,1,05,4,6,0.824,-0.386111118,-0.236111111,1,0,0,0.7523,Andesite_rect,1,0.752,1,2,0,2,0,1,,,,,,,,,,,,,
664167adcaa569ada842f8de,SCN,2024-06-24_14h48.38.919,LearnStrategy,2023.2.3,Win32,60.24096386,6,1,4,0.233333376,-0.101851852,1,0,0,0.5818,Diorite_06,3,06,3,6,0.582,0.148148148,-0.251851894,1,0,0,1.0044,Diorite_rect,3,1.004,1,3,0,3,0,1,,,,,,,,,,,,,
664167adcaa569ada842f8de,SCN,2024-06-24_14h48.38.919,LearnStrategy,2023.2.3,Win32,60.24096386,6,1,5,0.082407422,-0.098148134,1,0,0,0.7037,Peridotite_02,7,02,3,5,0.704,0.157407407,-0.253703718,1,0,0,1.0096,Diorite_rect,3,1.01,0,4,0,4,0,1,,,,,,,,,,,,,
664167adcaa569ada842f8de,SCN,2024-06-24_14h48.38.919,LearnStrategy,2023.2.3,Win32,60.24096386,6,1,6,0.08148151,-0.081481474,1,0,0,0.5358,Peridotite_02,7,02,3,5,0.536,0.125925912,-0.390740783,1,0,0,1.2065,Peridotite_rect,7,1.207,1,5,0,5,0,1,,,,,,,,,,,,,
664167adcaa569ada842f8de,SCN,2024-06-24_14h48.38.919,LearnStrategy,2023.2.3,Win32,60.24096386,6,1,7,0.091666681,-0.240740741,1,0,0,0.631,Diorite_09,3,09,2,5,0.631,0.146296325,-0.24537037,1,0,0,1.3512,Diorite_rect,3,1.351,1,6,0,6,0,1,,,,,,,,,,,,,
664167adcaa569ada842f8de,SCN,2024-06-24_14h48.38.919,LearnStrategy,2023.2.3,Win32,60.24096386,6,1,8,-0.075925898,-0.102777764,1,0,0,0.8068,Peridotite_14,7,14,3,4,0.807,0.118518547,-0.387037065,1,0,0,1.0283,Peridotite_rect,7,1.028,1,7,0,7,0,1,,,,,,,,,,,,,
664167adcaa569ada842f8de,SCN,2024-06-24_14h48.38.919,LearnStrategy,2023.2.3,Win32,60.24096386,6,1,9,-0.224999958,-0.081481474,1,0,0,0.7402,Gabbro_12,4,12,3,3,0.74,-0.099999958,-0.251851894,1,0,0,0.7321,Basalt_rect,2,0.732,0,8,0,8,0,1,,,,,,,,,,,,,
664167adcaa569ada842f8de,SCN,2024-06-24_14h48.38.919,LearnStrategy,2023.2.3,Win32,60.24096386,6,1,10,-0.3824074,-0.125,1,0,0,0.6819,Andesite_07,1,07,3,2,0.682,0.131481524,-0.244444459,1,0,0,0.7471,Diorite_rect,3,0.747,0,9,0,9,0,1,,,,,,,,,,,,,
664167adcaa569ada842f8de,SCN,2024-06-24_14h48.38.919,LearnStrategy,2023.2.3,Win32,60.24096386,6,1,11,-0.537962949,-0.094444487,1,0,0,1.0472,Obsidian_07,5,07,3,1,1.047,-0.355555534,-0.384259259,1,0,0,1.3079,Obsidian_rect,5,1.308,1,10,0,10,0,1,,,,,,,,,,,,,
664167adcaa569ada842f8de,SCN,2024-06-24_14h48.38.919,LearnStrategy,2023.2.3,Win32,60.24096386,6,1,12,-0.380555541,-0.417592578,1,0,0,1.6312,Basalt_08,2,08,1,2,1.631,-0.071296268,-0.247222265,1,0,0,0.7471,Basalt_rect,2,0.747,1,11,0,11,0,1,,,,,,,,,,,,,
664167adcaa569ada842f8de,SCN,2024-06-24_14h48.38.919,LearnStrategy,2023.2.3,Win32,60.24096386,6,1,13,0.098148134,0.237962952,1,0,0,0.7643,Pumice_09,8,09,5,5,0.764,0.384259259,-0.39444443,1,0,0,0.6755,Pumice_rect,8,0.675,1,12,0,12,0,1,,,,,,,,,,,,,
664167adcaa569ada842f8de,SCN,2024-06-24_14h48.38.919,LearnStrategy,2023.2.3,Win32,60.24096386,6,1,14,0.380555612,-0.070370392,1,0,0,0.6147,Diorite_13,3,13,3,7,0.615,0.156481496,-0.400000042,1,0,0,1.3383,Peridotite_rect,7,1.338,0,13,0,13,0,1,,,,,,,,,,,,,
664167adcaa569ada842f8de,SCN,2024-06-24_14h48.38.919,LearnStrategy,2023.2.3,Win32,60.24096386,6,1,15,0.259259259,0.059259238,1,0,0,0.7536,Andesite_05,1,05,4,6,0.754,-0.343518504,-0.235185199,1,0,0,2.7976,Andesite_rect,1,2.798,1,14,0,14,0,1,,,,,,,,,,,,,
664167adcaa569ada842f8de,SCN,2024-06-24_14h48.38.919,LearnStrategy,2023.2.3,Win32,60.24096386,6,1,16,0.547222279,0.107407393,1,0,0,0.9482,Pegmatite_09,6,09,4,8,0.948,-0.087037051,-0.406481496,1,0,0,1.5702,Pegmatite_rect,6,1.57,1,15,0,15,0,1,,,,,,,,,,,,,
664167adcaa569ada842f8de,SCN,2024-06-24_14h48.38.919,LearnStrategy,2023.2.3,Win32,60.24096386,6,2,1,,,,,,,,1,10,,,,,,,,,,,3,3.909,0,,,,,,0.131481524,-0.253703718,1,0,0,3.9093,Diorite_rect,0,0,0,0,1,
664167adcaa569ada842f8de,SCN,2024-06-24_14h48.38.919,LearnStrategy,2023.2.3,Win32,60.24096386,6,2,2,,,,,,,,4,03,,,,,,,,,,,3,1.876,0,,,,,,0.124074088,-0.251851894,1,0,0,1.8756,Diorite_rect,1,0,1,0,1,
664167adcaa569ada842f8de,SCN,2024-06-24_14h48.38.919,LearnStrategy,2023.2.3,Win32,60.24096386,6,2,3,,,,,,,,5,14,,,,,,,,,,,5,0.976,1,,,,,,-0.343518504,-0.400000042,1,0,0,0.9765,Obsidian_rect,2,0,2,0,1,
664167adcaa569ada842f8de,SCN,2024-06-24_14h48.38.919,LearnStrategy,2023.2.3,Win32,60.24096386,6,2,4,,,,,,,,3,15,,,,,,,,,,,1,1.915,0,,,,,,-0.380555541,-0.241666653,1,0,0,1.9149,Andesite_rect,3,0,3,0,1,
664167adcaa569ada842f8de,SCN,2024-06-24_14h48.38.919,LearnStrategy,2023.2.3,Win32,60.24096386,6,2,5,,,,,,,,5,04,,,,,,,,,,,5,0.865,1,,,,,,-0.3824074,-0.407407407,1,0,0,0.8652,Obsidian_rect,4,0,4,0,1,
664167adcaa569ada842f8de,SCN,2024-06-24_14h48.38.919,LearnStrategy,2023.2.3,Win32,60.24096386,6,2,6,,,,,,,,7,07,,,,,,,,,,,3,1.806,0,,,,,,0.100000028,-0.247222265,1,0,0,1.8061,Diorite_rect,5,0,5,0,1,
664167adcaa569ada842f8de,SCN,2024-06-24_14h48.38.919,LearnStrategy,2023.2.3,Win32,60.24096386,6,2,7,,,,,,,,6,08,,,,,,,,,,,6,1.207,1,,,,,,-0.108333305,-0.397222236,1,0,0,1.2074,Pegmatite_rect,6,0,6,0,1,
664167adcaa569ada842f8de,SCN,2024-06-24_14h48.38.919,LearnStrategy,2023.2.3,Win32,60.24096386,6,2,8,,,,,,,,1,01,,,,,,,,,,,7,1.482,0,,,,,,0.117592635,-0.419444473,1,0,0,1.4817,Peridotite_rect,7,0,7,0,1,
664167adcaa569ada842f8de,SCN,2024-06-24_14h48.38.919,LearnStrategy,2023.2.3,Win32,60.24096386,6,2,9,,,,,,,,6,03,,,,,,,,,,,6,0.901,1,,,,,,-0.101851852,-0.37962963,1,0,0,0.901,Pegmatite_rect,8,0,8,0,1,
664167adcaa569ada842f8de,SCN,2024-06-24_14h48.38.919,LearnStrategy,2023.2.3,Win32,60.24096386,6,2,10,,,,,,,,4,15,,,,,,,,,,,7,0.801,0,,,,,,0.088888875,-0.39907406,1,0,0,0.8012,Peridotite_rect,9,0,9,0,1,
664167adcaa569ada842f8de,SCN,2024-06-24_14h48.38.919,LearnStrategy,2023.2.3,Win32,60.24096386,6,2,11,,,,,,,,8,10,,,,,,,,,,,8,1.41,1,,,,,,0.346296381,-0.39444443,1,0,0,1.4098,Pumice_rect,10,0,10,0,1,
664167adcaa569ada842f8de,SCN,2024-06-24_14h48.38.919,LearnStrategy,2023.2.3,Win32,60.24096386,6,2,12,,,,,,,,3,16,,,,,,,,,,,3,1.11,1,,,,,,0.138888889,-0.24537037,1,0,0,1.1096,Diorite_rect,11,0,11,0,1,
664167adcaa569ada842f8de,SCN,2024-06-24_14h48.38.919,LearnStrategy,2023.2.3,Win32,60.24096386,6,2,13,,,,,,,,2,09,,,,,,,,,,,2,0.918,1,,,,,,-0.140740712,-0.23055557,1,0,0,0.9184,Basalt_rect,12,0,12,0,1,
664167adcaa569ada842f8de,SCN,2024-06-24_14h48.38.919,LearnStrategy,2023.2.3,Win32,60.24096386,6,2,14,,,,,,,,7,08,,,,,,,,,,,3,0.967,0,,,,,,0.123148176,-0.246296282,1,0,0,0.9666,Diorite_rect,13,0,13,0,1,
664167adcaa569ada842f8de,SCN,2024-06-24_14h48.38.919,LearnStrategy,2023.2.3,Win32,60.24096386,6,2,15,,,,,,,,8,15,,,,,,,,,,,8,1.015,1,,,,,,0.361111111,-0.380555541,1,0,0,1.0149,Pumice_rect,14,0,14,0,1,
664167adcaa569ada842f8de,SCN,2024-06-24_14h48.38.919,LearnStrategy,2023.2.3,Win32,60.24096386,6,2,16,,,,,,,,2,12,,,,,,,,,,,4,0.753,0,,,,,,0.387037065,-0.24537037,1,0,0,0.7526,Gabbro_rect,15,0,15,0,1,
664167adcaa569ada842f8de,SCN,2024-06-24_14h48.38.919,LearnStrategy,2023.2.3,Win32,60.24096386,7,1,1,-0.25,-0.104629658,1,0,0,20.0648,Gabbro_12,4,12,3,3,20.065,0.107407393,-0.259259259,1,0,0,0.9386,Diorite_rect,3,0.939,0,0,0,0,0,1,,,,,,,,,,,,,
664167adcaa569ada842f8de,SCN,2024-06-24_14h48.38.919,LearnStrategy,2023.2.3,Win32,60.24096386,7,1,2,0.214814857,0.121296282,1,0,0,0.4312,Andesite_05,1,05,4,6,0.431,-0.347222222,-0.246296282,1,0,0,1.7042,Andesite_rect,1,1.704,1,1,0,1,0,1,,,,,,,,,,,,,
664167adcaa569ada842f8de,SCN,2024-06-24_14h48.38.919,LearnStrategy,2023.2.3,Win32,60.24096386,7,1,3,-0.228703675,0.406481478,1,0,0,0.5816,Gabbro_09,4,09,6,3,0.582,0.395370342,-0.239814829,1,0,0,0.5816,Gabbro_rect,4,0.582,1,2,0,2,0,1,,,,,,,,,,,,,
664167adcaa569ada842f8de,SCN,2024-06-24_14h48.38.919,LearnStrategy,2023.2.3,Win32,60.24096386,7,1,4,-0.381481489,0.404629628,1,0,0,0.4985,Gabbro_08,4,08,6,2,0.499,0.400925954,-0.25,1,0,0,0.8072,Gabbro_rect,4,0.807,1,3,0,3,0,1,,,,,,,,,,,,,
664167adcaa569ada842f8de,SCN,2024-06-24_14h48.38.919,LearnStrategy,2023.2.3,Win32,60.24096386,7,1,5,0.386111083,0.264814818,1,0,0,0.7729,Basalt_16,2,16,5,7,0.773,-0.131481453,-0.240740741,1,0,0,1.1493,Basalt_rect,2,1.149,1,4,0,4,0,1,,,,,,,,,,,,,
664167adcaa569ada842f8de,SCN,2024-06-24_14h48.38.919,LearnStrategy,2023.2.3,Win32,60.24096386,7,1,6,0.377777806,0.37962963,1,0,0,0.7319,Gabbro_16,4,16,6,7,0.732,-0.101851852,-0.25,1,0,0,1.3741,Basalt_rect,2,1.374,0,5,0,5,0,1,,,,,,,,,,,,,
664167adcaa569ada842f8de,SCN,2024-06-24_14h48.38.919,LearnStrategy,2023.2.3,Win32,60.24096386,7,1,7,0.385185242,0.102777764,1,0,0,0.5816,Obsidian_16,5,16,4,7,0.582,-0.347222222,-0.392592607,1,0,0,0.9969,Obsidian_rect,5,0.997,1,6,0,6,0,1,,,,,,,,,,,,,
664167adcaa569ada842f8de,SCN,2024-06-24_14h48.38.919,LearnStrategy,2023.2.3,Win32,60.24096386,7,1,8,0.101851852,-0.26944443,1,0,0,0.7563,Diorite_09,3,09,2,5,0.756,0.128703718,-0.250925912,1,0,0,1.017,Diorite_rect,3,1.017,1,7,0,7,0,1,,,,,,,,,,,,,
664167adcaa569ada842f8de,SCN,2024-06-24_14h48.38.919,LearnStrategy,2023.2.3,Win32,60.24096386,7,1,9,-0.078703704,-0.112037023,1,0,0,0.7038,Peridotite_14,7,14,3,4,0.704,0.132407436,-0.25,1,0,0,0.6893,Diorite_rect,3,0.689,0,8,0,8,0,1,,,,,,,,,,,,,
664167adcaa569ada842f8de,SCN,2024-06-24_14h48.38.919,LearnStrategy,2023.2.3,Win32,60.24096386,7,1,10,-0.070370356,-0.10555557,1,0,0,0.6812,Peridotite_14,7,14,3,4,0.681,0.136111153,-0.404629672,1,0,0,0.5905,Peridotite_rect,7,0.591,1,9,0,9,0,1,,,,,,,,,,,,,
664167adcaa569ada842f8de,SCN,2024-06-24_14h48.38.919,LearnStrategy,2023.2.3,Win32,60.24096386,7,1,11,-0.202777792,-0.10092594,1,0,0,0.5692,Gabbro_12,4,12,3,3,0.569,0.125925912,-0.25,1,0,0,0.869,Diorite_rect,3,0.869,0,10,0,10,0,1,,,,,,,,,,,,,
664167adcaa569ada842f8de,SCN,2024-06-24_14h48.38.919,LearnStrategy,2023.2.3,Win32,60.24096386,7,1,12,-0.375,-0.093518504,1,0,0,0.8644,Andesite_07,1,07,3,2,0.864,0.101851852,-0.257407436,1,0,0,0.7693,Diorite_rect,3,0.769,0,11,0,11,0,1,,,,,,,,,,,,,
664167adcaa569ada842f8de,SCN,2024-06-24_14h48.38.919,LearnStrategy,2023.2.3,Win32,60.24096386,7,1,13,0.053703732,0.236111111,1,0,0,0.6539,Pumice_09,8,09,5,5,0.654,0.395370342,-0.39444443,1,0,0,0.869,Pumice_rect,8,0.869,1,12,0,12,0,1,,,,,,,,,,,,,
664167adcaa569ada842f8de,SCN,2024-06-24_14h48.38.919,LearnStrategy,2023.2.3,Win32,60.24096386,7,1,14,0.537037037,0.426851851,1,0,0,1.0564,Diorite_12,3,12,6,8,1.056,0.132407436,-0.242592635,1,0,0,0.9333,Diorite_rect,3,0.933,1,13,0,13,0,1,,,,,,,,,,,,,
664167adcaa569ada842f8de,SCN,2024-06-24_14h48.38.919,LearnStrategy,2023.2.3,Win32,60.24096386,7,1,15,0.385185242,0.407407407,1,0,0,0.7737,Gabbro_16,4,16,6,7,0.774,-0.136111083,-0.242592635,1,0,0,1.5097,Basalt_rect,2,1.51,0,14,0,14,0,1,,,,,,,,,,,,,
664167adcaa569ada842f8de,SCN,2024-06-24_14h48.38.919,LearnStrategy,2023.2.3,Win32,60.24096386,7,1,16,0.087037051,0.080555563,1,0,0,0.7229,Obsidian_05,5,05,4,5,0.723,-0.339814822,-0.396296325,1,0,0,0.7536,Obsidian_rect,5,0.754,1,15,0,15,0,1,,,,,,,,,,,,,
664167adcaa569ada842f8de,SCN,2024-06-24_14h48.38.919,LearnStrategy,2023.2.3,Win32,60.24096386,7,2,1,,,,,,,,6,08,,,,,,,,,,,1,1.81,0,,,,,,-0.387962942,-0.243518547,1,0,0,1.8101,Andesite_rect,0,0,0,0,1,
664167adcaa569ada842f8de,SCN,2024-06-24_14h48.38.919,LearnStrategy,2023.2.3,Win32,60.24096386,7,2,2,,,,,,,,4,10,,,,,,,,,,,3,3.266,0,,,,,,0.142592607,-0.247222265,1,0,0,3.2665,Diorite_rect,1,0,1,0,1,
664167adcaa569ada842f8de,SCN,2024-06-24_14h48.38.919,LearnStrategy,2023.2.3,Win32,60.24096386,7,2,3,,,,,,,,7,04,,,,,,,,,,,7,1.986,1,,,,,,0.130555541,-0.402777778,1,0,0,1.9865,Peridotite_rect,2,0,2,0,1,
664167adcaa569ada842f8de,SCN,2024-06-24_14h48.38.919,LearnStrategy,2023.2.3,Win32,60.24096386,7,2,4,,,,,,,,8,10,,,,,,,,,,,8,0.91,1,,,,,,0.40370376,-0.397222236,1,0,0,0.9102,Pumice_rect,3,0,3,0,1,
664167adcaa569ada842f8de,SCN,2024-06-24_14h48.38.919,LearnStrategy,2023.2.3,Win32,60.24096386,7,2,5,,,,,,,,5,14,,,,,,,,,,,5,0.953,1,,,,,,-0.38703703,-0.397222236,1,0,0,0.9532,Obsidian_rect,4,0,4,0,1,
664167adcaa569ada842f8de,SCN,2024-06-24_14h48.38.919,LearnStrategy,2023.2.3,Win32,60.24096386,7,2,6,,,,,,,,6,05,,,,,,,,,,,6,1.645,1,,,,,,-0.097222222,-0.406481496,1,0,0,1.6447,Pegmatite_rect,5,0,5,0,1,
664167adcaa569ada842f8de,SCN,2024-06-24_14h48.38.919,LearnStrategy,2023.2.3,Win32,60.24096386,7,2,7,,,,,,,,4,03,,,,,,,,,,,3,1.488,0,,,,,,0.126851894,-0.250925912,1,0,0,1.4883,Diorite_rect,6,0,6,0,1,
664167adcaa569ada842f8de,SCN,2024-06-24_14h48.38.919,LearnStrategy,2023.2.3,Win32,60.24096386,7,2,8,,,,,,,,3,10,,,,,,,,,,,3,1.15,1,,,,,,0.139814801,-0.24537037,1,0,0,1.1501,Diorite_rect,7,0,7,0,1,
664167adcaa569ada842f8de,SCN,2024-06-24_14h48.38.919,LearnStrategy,2023.2.3,Win32,60.24096386,7,2,9,,,,,,,,2,02,,,,,,,,,,,2,1.048,1,,,,,,-0.147222236,-0.248148176,1,0,0,1.0478,Basalt_rect,8,0,8,0,1,
664167adcaa569ada842f8de,SCN,2024-06-24_14h48.38.919,LearnStrategy,2023.2.3,Win32,60.24096386,7,2,10,,,,,,,,1,01,,,,,,,,,,,4,2.588,0,,,,,,0.409259231,-0.244444459,1,0,0,2.5884,Gabbro_rect,9,0,9,0,1,
664167adcaa569ada842f8de,SCN,2024-06-24_14h48.38.919,LearnStrategy,2023.2.3,Win32,60.24096386,7,2,11,,,,,,,,1,10,,,,,,,,,,,1,2.434,1,,,,,,-0.378703683,-0.246296282,1,0,0,2.4338,Andesite_rect,10,0,10,0,1,
664167adcaa569ada842f8de,SCN,2024-06-24_14h48.38.919,LearnStrategy,2023.2.3,Win32,60.24096386,7,2,12,,,,,,,,3,11,,,,,,,,,,,3,0.777,1,,,,,,0.103703746,-0.247222265,1,0,0,0.7766,Diorite_rect,11,0,11,0,1,
664167adcaa569ada842f8de,SCN,2024-06-24_14h48.38.919,LearnStrategy,2023.2.3,Win32,60.24096386,7,2,13,,,,,,,,2,09,,,,,,,,,,,2,0.702,1,,,,,,-0.125,-0.246296282,1,0,0,0.7019,Basalt_rect,12,0,12,0,1,
664167adcaa569ada842f8de,SCN,2024-06-24_14h48.38.919,LearnStrategy,2023.2.3,Win32,60.24096386,7,2,14,,,,,,,,5,02,,,,,,,,,,,5,0.905,1,,,,,,-0.387962942,-0.402777778,1,0,0,0.9052,Obsidian_rect,13,0,13,0,1,
664167adcaa569ada842f8de,SCN,2024-06-24_14h48.38.919,LearnStrategy,2023.2.3,Win32,60.24096386,7,2,15,,,,,,,,7,08,,,,,,,,,,,7,0.9,1,,,,,,0.114814829,-0.400925954,1,0,0,0.8996,Peridotite_rect,14,0,14,0,1,
664167adcaa569ada842f8de,SCN,2024-06-24_14h48.38.919,LearnStrategy,2023.2.3,Win32,60.24096386,7,2,16,,,,,,,,8,08,,,,,,,,,,,8,0.837,1,,,,,,0.357407464,-0.389814801,1,0,0,0.8367,Pumice_rect,15,0,15,0,1,
664167adcaa569ada842f8de,SCN,2024-06-24_14h48.38.919,LearnStrategy,2023.2.3,Win32,60.24096386,8,1,1,0.107407393,0.080555563,1,0,0,0.979,Obsidian_05,5,05,4,5,0.979,-0.383333312,-0.402777778,1,0,0,0.9426,Obsidian_rect,5,0.943,1,0,0,0,0,1,,,,,,,,,,,,,
664167adcaa569ada842f8de,SCN,2024-06-24_14h48.38.919,LearnStrategy,2023.2.3,Win32,60.24096386,8,1,2,-0.366666653,0.429629631,1,0,0,0.8371,Gabbro_08,4,08,6,2,0.837,0.388888889,-0.234259288,1,0,0,1.095,Gabbro_rect,4,1.095,1,1,0,1,0,1,,,,,,,,,,,,,
664167adcaa569ada842f8de,SCN,2024-06-24_14h48.38.919,LearnStrategy,2023.2.3,Win32,60.24096386,8,1,3,-0.546296296,0.414814817,1,0,0,0.6699,Basalt_05,2,05,6,1,0.67,-0.085185157,-0.25,1,0,0,1.5737,Basalt_rect,2,1.574,1,2,0,2,0,1,,,,,,,,,,,,,
664167adcaa569ada842f8de,SCN,2024-06-24_14h48.38.919,LearnStrategy,2023.2.3,Win32,60.24096386,8,1,4,-0.226851852,0.451851849,1,0,0,0.6157,Gabbro_09,4,09,6,3,0.616,0.410185213,-0.243518547,1,0,0,0.7758,Gabbro_rect,4,0.776,1,3,0,3,0,1,,,,,,,,,,,,,
664167adcaa569ada842f8de,SCN,2024-06-24_14h48.38.919,LearnStrategy,2023.2.3,Win32,60.24096386,8,1,5,-0.074074074,0.420370367,1,0,0,0.6317,Obsidian_12,5,12,6,4,0.632,-0.366666653,-0.395370413,1,0,0,1.2331,Obsidian_rect,5,1.233,1,4,0,4,0,1,,,,,,,,,,,,,
664167adcaa569ada842f8de,SCN,2024-06-24_14h48.38.919,LearnStrategy,2023.2.3,Win32,60.24096386,8,1,6,0.063888903,0.428703701,1,0,0,1.0388,Peridotite_15,7,15,6,5,1.039,0.151851866,-0.229629658,1,0,0,0.7948,Diorite_rect,3,0.795,0,5,0,5,0,1,,,,,,,,,,,,,
664167adcaa569ada842f8de,SCN,2024-06-24_14h48.38.919,LearnStrategy,2023.2.3,Win32,60.24096386,8,1,7,0.25462963,0.411111108,1,0,0,0.6152,Andesite_03,1,03,6,6,0.615,0.12962963,-0.396296325,1,0,0,0.8239,Peridotite_rect,7,0.824,0,6,0,6,0,1,,,,,,,,,,,,,
664167adcaa569ada842f8de,SCN,2024-06-24_14h48.38.919,LearnStrategy,2023.2.3,Win32,60.24096386,8,1,8,0.40370376,0.422222217,1,0,0,0.6145,Gabbro_16,4,16,6,7,0.615,-0.14444443,-0.23055557,1,0,0,0.9041,Basalt_rect,2,0.904,0,7,0,7,0,1,,,,,,,,,,,,,
664167adcaa569ada842f8de,SCN,2024-06-24_14h48.38.919,LearnStrategy,2023.2.3,Win32,60.24096386,8,1,9,0.577777863,0.400925928,1,0,0,0.5742,Diorite_12,3,12,6,8,0.574,0.136111153,-0.270370413,1,0,0,0.7664,Diorite_rect,3,0.766,1,8,0,8,0,1,,,,,,,,,,,,,
664167adcaa569ada842f8de,SCN,2024-06-24_14h48.38.919,LearnStrategy,2023.2.3,Win32,60.24096386,8,1,10,-0.54074072,0.260185189,1,0,0,0.6809,Pumice_05,8,05,5,1,0.681,0.42314812,-0.389814801,1,0,0,0.6958,Pumice_rect,8,0.696,1,9,0,9,0,1,,,,,,,,,,,,,
664167adcaa569ada842f8de,SCN,2024-06-24_14h48.38.919,LearnStrategy,2023.2.3,Win32,60.24096386,8,1,11,-0.371296282,0.264814818,1,0,0,0.9568,Andesite_04,1,04,5,2,0.957,0.114814829,-0.393518519,1,0,0,1.8088,Peridotite_rect,7,1.809,0,10,0,10,0,1,,,,,,,,,,,,,
664167adcaa569ada842f8de,SCN,2024-06-24_14h48.38.919,LearnStrategy,2023.2.3,Win32,60.24096386,8,1,12,-0.199999986,0.25833333,1,0,0,0.7397,Basalt_10,2,10,5,3,0.74,-0.164814772,-0.241666653,1,0,0,0.8067,Basalt_rect,2,0.807,1,11,0,11,0,1,,,,,,,,,,,,,
664167adcaa569ada842f8de,SCN,2024-06-24_14h48.38.919,LearnStrategy,2023.2.3,Win32,60.24096386,8,1,13,-0.075925898,0.275925919,1,0,0,0.887,Andesite_02,1,02,5,4,0.887,0.090740769,-0.40370369,1,0,0,0.9359,Peridotite_rect,7,0.936,0,12,0,12,0,1,,,,,,,,,,,,,
664167adcaa569ada842f8de,SCN,2024-06-24_14h48.38.919,LearnStrategy,2023.2.3,Win32,60.24096386,8,1,14,0.260185171,0.251851841,1,0,0,0.6644,Gabbro_14,4,14,5,6,0.664,-0.378703683,-0.237037023,1,0,0,1.805,Andesite_rect,1,1.805,0,13,0,13,0,1,,,,,,,,,,,,,
664167adcaa569ada842f8de,SCN,2024-06-24_14h48.38.919,LearnStrategy,2023.2.3,Win32,60.24096386,8,1,15,0.411111196,0.26203703,1,0,0,0.7702,Basalt_16,2,16,5,7,0.77,-0.111111111,-0.237037023,1,0,0,1.1685,Basalt_rect,2,1.168,1,14,0,14,0,1,,,,,,,,,,,,,
664167adcaa569ada842f8de,SCN,2024-06-24_14h48.38.919,LearnStrategy,2023.2.3,Win32,60.24096386,8,1,16,0.559259344,0.252777771,1,0,0,1.265,Diorite_08,3,08,5,8,1.265,0.135185171,-0.246296282,1,0,0,0.7602,Diorite_rect,3,0.76,1,15,0,15,0,1,,,,,,,,,,,,,
664167adcaa569ada842f8de,SCN,2024-06-24_14h48.38.919,LearnStrategy,2023.2.3,Win32,60.24096386,8,2,1,,,,,,,,1,11,,,,,,,,,,,1,1.649,1,,,,,,-0.398148148,-0.256481524,1,0,0,1.6491,Andesite_rect,0,0,0,0,1,
664167adcaa569ada842f8de,SCN,2024-06-24_14h48.38.919,LearnStrategy,2023.2.3,Win32,60.24096386,8,2,2,,,,,,,,5,11,,,,,,,,,,,5,1,1,,,,,,-0.350925905,-0.407407407,1,0,0,0.9996,Obsidian_rect,1,0,1,0,1,
664167adcaa569ada842f8de,SCN,2024-06-24_14h48.38.919,LearnStrategy,2023.2.3,Win32,60.24096386,8,2,3,,,,,,,,8,15,,,,,,,,,,,8,0.945,1,,,,,,0.380555612,-0.393518519,1,0,0,0.9453,Pumice_rect,2,0,2,0,1,
664167adcaa569ada842f8de,SCN,2024-06-24_14h48.38.919,LearnStrategy,2023.2.3,Win32,60.24096386,8,2,4,,,,,,,,3,07,,,,,,,,,,,3,1.081,1,,,,,,0.122222265,-0.237037023,1,0,0,1.0806,Diorite_rect,3,0,3,0,1,
664167adcaa569ada842f8de,SCN,2024-06-24_14h48.38.919,LearnStrategy,2023.2.3,Win32,60.24096386,8,2,5,,,,,,,,4,01,,,,,,,,,,,3,1.003,0,,,,,,0.122222265,-0.231481481,1,0,0,1.0026,Diorite_rect,4,0,4,0,1,
664167adcaa569ada842f8de,SCN,2024-06-24_14h48.38.919,LearnStrategy,2023.2.3,Win32,60.24096386,8,2,6,,,,,,,,6,10,,,,,,,,,,,6,1.181,1,,,,,,-0.101851852,-0.406481496,1,0,0,1.1806,Pegmatite_rect,5,0,5,0,1,
664167adcaa569ada842f8de,SCN,2024-06-24_14h48.38.919,LearnStrategy,2023.2.3,Win32,60.24096386,8,2,7,,,,,,,,6,12,,,,,,,,,,,6,1.881,1,,,,,,-0.087037051,-0.381481524,1,0,0,1.8815,Pegmatite_rect,6,0,6,0,1,
664167adcaa569ada842f8de,SCN,2024-06-24_14h48.38.919,LearnStrategy,2023.2.3,Win32,60.24096386,8,2,8,,,,,,,,5,06,,,,,,,,,,,5,0.901,1,,,,,,-0.340740734,-0.386111153,1,0,0,0.9009,Obsidian_rect,7,0,7,0,1,
664167adcaa569ada842f8de,SCN,2024-06-24_14h48.38.919,LearnStrategy,2023.2.3,Win32,60.24096386,8,2,9,,,,,,,,2,01,,,,,,,,,,,2,0.816,1,,,,,,-0.146296254,-0.237963005,1,0,0,0.8161,Basalt_rect,8,0,8,0,1,
664167adcaa569ada842f8de,SCN,2024-06-24_14h48.38.919,LearnStrategy,2023.2.3,Win32,60.24096386,8,2,10,,,,,,,,4,11,,,,,,,,,,,2,1.739,0,,,,,,-0.122222194,-0.233333376,1,0,0,1.7389,Basalt_rect,9,0,9,0,1,
664167adcaa569ada842f8de,SCN,2024-06-24_14h48.38.919,LearnStrategy,2023.2.3,Win32,60.24096386,8,2,11,,,,,,,,3,16,,,,,,,,,,,3,1.216,1,,,,,,0.181481467,-0.234259288,1,0,0,1.2164,Diorite_rect,10,0,10,0,1,
664167adcaa569ada842f8de,SCN,2024-06-24_14h48.38.919,LearnStrategy,2023.2.3,Win32,60.24096386,8,2,12,,,,,,,,8,04,,,,,,,,,,,8,0.844,1,,,,,,0.420370455,-0.395370413,1,0,0,0.844,Pumice_rect,11,0,11,0,1,
664167adcaa569ada842f8de,SCN,2024-06-24_14h48.38.919,LearnStrategy,2023.2.3,Win32,60.24096386,8,2,13,,,,,,,,7,16,,,,,,,,,,,4,0.702,0,,,,,,0.368518547,-0.246296282,1,0,0,0.7025,Gabbro_rect,12,0,12,0,1,
664167adcaa569ada842f8de,SCN,2024-06-24_14h48.38.919,LearnStrategy,2023.2.3,Win32,60.24096386,8,2,14,,,,,,,,1,06,,,,,,,,,,,3,1.137,0,,,,,,0.180555556,-0.233333376,1,0,0,1.1371,Diorite_rect,13,0,13,0,1,
664167adcaa569ada842f8de,SCN,2024-06-24_14h48.38.919,LearnStrategy,2023.2.3,Win32,60.24096386,8,2,15,,,,,,,,7,07,,,,,,,,,,,3,0.826,0,,,,,,0.137962977,-0.253703718,1,0,0,0.8263,Diorite_rect,14,0,14,0,1,
664167adcaa569ada842f8de,SCN,2024-06-24_14h48.38.919,LearnStrategy,2023.2.3,Win32,60.24096386,8,2,16,,,,,,,,2,14,,,,,,,,,,,2,2.124,1,,,,,,-0.076851809,-0.237037023,1,0,0,2.1245,Basalt_rect,15,0,15,0,1,
664167adcaa569ada842f8de,SCN,2024-06-24_14h48.38.919,LearnStrategy,2023.2.3,Win32,60.24096386,9,1,1,0.08148151,0.093518504,1,0,0,0.5789,Obsidian_05,5,05,4,5,0.579,-0.340740734,-0.40370369,1,0,0,0.7989,Obsidian_rect,5,0.799,1,0,0,0,0,1,,,,,,,,,,,,,
664167adcaa569ada842f8de,SCN,2024-06-24_14h48.38.919,LearnStrategy,2023.2.3,Win32,60.24096386,9,1,2,-0.405555548,0.460185183,1,0,0,0.6977,Gabbro_08,4,08,6,2,0.698,0.383333418,-0.25,1,0,0,1.0639,Gabbro_rect,4,1.064,1,1,0,1,0,1,,,,,,,,,,,,,
664167adcaa569ada842f8de,SCN,2024-06-24_14h48.38.919,LearnStrategy,2023.2.3,Win32,60.24096386,9,1,3,0.387963048,-0.080555563,1,0,0,1.0484,Diorite_13,3,13,3,7,1.048,0.341666751,-0.237963005,1,0,0,0.5981,Gabbro_rect,4,0.598,0,2,0,2,0,1,,,,,,,,,,,,,
664167adcaa569ada842f8de,SCN,2024-06-24_14h48.38.919,LearnStrategy,2023.2.3,Win32,60.24096386,9,1,4,0.249074088,0.099074081,1,0,0,1.0483,Andesite_05,1,05,4,6,1.048,0.103703746,-0.251851894,1,0,0,0.7739,Diorite_rect,3,0.774,0,3,0,3,0,1,,,,,,,,,,,,,
664167adcaa569ada842f8de,SCN,2024-06-24_14h48.38.919,LearnStrategy,2023.2.3,Win32,60.24096386,9,1,5,0.252777806,0.083333333,1,0,0,0.4735,Andesite_05,1,05,4,6,0.474,-0.327777757,-0.241666653,1,0,0,0.5174,Andesite_rect,1,0.517,1,4,0,4,0,1,,,,,,,,,,,,,
664167adcaa569ada842f8de,SCN,2024-06-24_14h48.38.919,LearnStrategy,2023.2.3,Win32,60.24096386,9,1,6,0.095370399,-0.246296282,1,0,0,0.5645,Diorite_09,3,09,2,5,0.564,0.150925954,-0.234259288,1,0,0,0.9964,Diorite_rect,3,0.996,1,5,0,5,0,1,,,,,,,,,,,,,
664167adcaa569ada842f8de,SCN,2024-06-24_14h48.38.919,LearnStrategy,2023.2.3,Win32,60.24096386,9,1,7,0.080555598,-0.270370413,1,0,0,0.6403,Diorite_09,3,09,2,5,0.64,0.130555541,-0.24537037,1,0,0,0.6502,Diorite_rect,3,0.65,1,6,0,6,0,1,,,,,,,,,,,,,
664167adcaa569ada842f8de,SCN,2024-06-24_14h48.38.919,LearnStrategy,2023.2.3,Win32,60.24096386,9,1,8,0.20185188,0.073148127,1,0,0,17.5084,Andesite_05,1,05,4,6,17.508,0.160185213,-0.259259259,1,0,0,0.7584,Diorite_rect,3,0.758,0,7,0,7,0,1,,,,,,,,,,,,,
664167adcaa569ada842f8de,SCN,2024-06-24_14h48.38.919,LearnStrategy,2023.2.3,Win32,60.24096386,9,1,9,0.384259259,0.390740739,1,0,0,0.9643,Gabbro_16,4,16,6,7,0.964,-0.141666624,-0.257407436,1,0,0,0.6357,Basalt_rect,2,0.636,0,8,0,8,0,1,,,,,,,,,,,,,
664167adcaa569ada842f8de,SCN,2024-06-24_14h48.38.919,LearnStrategy,2023.2.3,Win32,60.24096386,9,1,10,0.394444501,0.3787037,1,0,0,0.5308,Gabbro_16,4,16,6,7,0.531,0.354629658,-0.241666653,1,0,0,1.1972,Gabbro_rect,4,1.197,1,9,0,9,0,1,,,,,,,,,,,,,
664167adcaa569ada842f8de,SCN,2024-06-24_14h48.38.919,LearnStrategy,2023.2.3,Win32,60.24096386,9,1,11,0.238888917,0.44259259,1,0,0,0.5816,Andesite_03,1,03,6,6,0.582,0.407407407,-0.247222265,1,0,0,0.9882,Gabbro_rect,4,0.988,0,10,0,10,0,1,,,,,,,,,,,,,
664167adcaa569ada842f8de,SCN,2024-06-24_14h48.38.919,LearnStrategy,2023.2.3,Win32,60.24096386,9,1,12,0.241666653,0.113888882,1,0,0,0.887,Andesite_05,1,05,4,6,0.887,-0.354629623,-0.23055557,1,0,0,0.7651,Andesite_rect,1,0.765,1,11,0,11,0,1,,,,,,,,,,,,,
664167adcaa569ada842f8de,SCN,2024-06-24_14h48.38.919,LearnStrategy,2023.2.3,Win32,60.24096386,9,1,13,0.100000028,-0.112037023,1,0,0,0.6314,Peridotite_02,7,02,3,5,0.631,-0.119444459,-0.408333319,1,0,0,1.1649,Pegmatite_rect,6,1.165,0,12,0,12,0,1,,,,,,,,,,,,,
664167adcaa569ada842f8de,SCN,2024-06-24_14h48.38.919,LearnStrategy,2023.2.3,Win32,60.24096386,9,1,14,0.08148151,-0.10555557,1,0,0,0.815,Peridotite_02,7,02,3,5,0.815,0.155555584,-0.393518519,1,0,0,0.6599,Peridotite_rect,7,0.66,1,13,0,13,0,1,,,,,,,,,,,,,
664167adcaa569ada842f8de,SCN,2024-06-24_14h48.38.919,LearnStrategy,2023.2.3,Win32,60.24096386,9,1,15,0.518518519,0.247222212,1,0,0,0.72,Diorite_08,3,08,5,8,0.72,0.125925912,-0.261111153,1,0,0,1.3471,Diorite_rect,3,1.347,1,14,0,14,0,1,,,,,,,,,,,,,
664167adcaa569ada842f8de,SCN,2024-06-24_14h48.38.919,LearnStrategy,2023.2.3,Win32,60.24096386,9,1,16,0.54351849,0.25462963,1,0,0,1.0642,Diorite_08,3,08,5,8,1.064,0.10092594,-0.259259259,1,0,0,0.7709,Diorite_rect,3,0.771,1,15,0,15,0,1,,,,,,,,,,,,,
664167adcaa569ada842f8de,SCN,2024-06-24_14h48.38.919,LearnStrategy,2023.2.3,Win32,60.24096386,9,2,1,,,,,,,,2,12,,,,,,,,,,,8,2.755,0,,,,,,0.40833339,-0.417592578,1,0,0,2.7553,Pumice_rect,0,0,0,0,1,
664167adcaa569ada842f8de,SCN,2024-06-24_14h48.38.919,LearnStrategy,2023.2.3,Win32,60.24096386,9,2,2,,,,,,,,4,05,,,,,,,,,,,7,1.392,0,,,,,,0.141666695,-0.410185213,1,0,0,1.392,Peridotite_rect,1,0,1,0,1,
664167adcaa569ada842f8de,SCN,2024-06-24_14h48.38.919,LearnStrategy,2023.2.3,Win32,60.24096386,9,2,3,,,,,,,,1,16,,,,,,,,,,,3,1.234,0,,,,,,0.145370413,-0.231481481,1,0,0,1.2336,Diorite_rect,2,0,2,0,1,
664167adcaa569ada842f8de,SCN,2024-06-24_14h48.38.919,LearnStrategy,2023.2.3,Win32,60.24096386,9,2,4,,,,,,,,3,15,,,,,,,,,,,3,0.963,1,,,,,,0.12962963,-0.251851894,1,0,0,0.9626,Diorite_rect,3,0,3,0,1,
664167adcaa569ada842f8de,SCN,2024-06-24_14h48.38.919,LearnStrategy,2023.2.3,Win32,60.24096386,9,2,5,,,,,,,,8,03,,,,,,,,,,,8,1.022,1,,,,,,0.385185242,-0.395370413,1,0,0,1.0222,Pumice_rect,4,0,4,0,1,
664167adcaa569ada842f8de,SCN,2024-06-24_14h48.38.919,LearnStrategy,2023.2.3,Win32,60.24096386,9,2,6,,,,,,,,2,04,,,,,,,,,,,2,0.933,1,,,,,,-0.10092594,-0.232407393,1,0,0,0.9326,Basalt_rect,5,0,5,0,1,
664167adcaa569ada842f8de,SCN,2024-06-24_14h48.38.919,LearnStrategy,2023.2.3,Win32,60.24096386,9,2,7,,,,,,,,5,04,,,,,,,,,,,5,0.813,1,,,,,,-0.356481481,-0.384259259,1,0,0,0.8134,Obsidian_rect,6,0,6,0,1,
664167adcaa569ada842f8de,SCN,2024-06-24_14h48.38.919,LearnStrategy,2023.2.3,Win32,60.24096386,9,2,8,,,,,,,,3,02,,,,,,,,,,,3,1.382,1,,,,,,0.166666667,-0.251851894,1,0,0,1.3816,Diorite_rect,7,0,7,0,1,
664167adcaa569ada842f8de,SCN,2024-06-24_14h48.38.919,LearnStrategy,2023.2.3,Win32,60.24096386,9,2,9,,,,,,,,1,14,,,,,,,,,,,1,1.048,1,,,,,,-0.357407393,-0.253703718,1,0,0,1.0478,Andesite_rect,8,0,8,0,1,
664167adcaa569ada842f8de,SCN,2024-06-24_14h48.38.919,LearnStrategy,2023.2.3,Win32,60.24096386,9,2,10,,,,,,,,5,09,,,,,,,,,,,5,1.054,1,,,,,,-0.359259252,-0.402777778,1,0,0,1.054,Obsidian_rect,9,0,9,0,1,
664167adcaa569ada842f8de,SCN,2024-06-24_14h48.38.919,LearnStrategy,2023.2.3,Win32,60.24096386,9,2,11,,,,,,,,4,15,,,,,,,,,,,4,2.121,1,,,,,,0.385185242,-0.25462963,1,0,0,2.1208,Gabbro_rect,10,0,10,0,1,
664167adcaa569ada842f8de,SCN,2024-06-24_14h48.38.919,LearnStrategy,2023.2.3,Win32,60.24096386,9,2,12,,,,,,,,7,05,,,,,,,,,,,4,1.03,0,,,,,,0.378703788,-0.241666653,1,0,0,1.0304,Gabbro_rect,11,0,11,0,1,
664167adcaa569ada842f8de,SCN,2024-06-24_14h48.38.919,LearnStrategy,2023.2.3,Win32,60.24096386,9,2,13,,,,,,,,6,15,,,,,,,,,,,6,1.006,1,,,,,,-0.131481453,-0.384259259,1,0,0,1.0058,Pegmatite_rect,12,0,12,0,1,
664167adcaa569ada842f8de,SCN,2024-06-24_14h48.38.919,LearnStrategy,2023.2.3,Win32,60.24096386,9,2,14,,,,,,,,6,03,,,,,,,,,,,6,0.915,1,,,,,,-0.10555557,-0.392592607,1,0,0,0.9147,Pegmatite_rect,13,0,13,0,1,
664167adcaa569ada842f8de,SCN,2024-06-24_14h48.38.919,LearnStrategy,2023.2.3,Win32,60.24096386,9,2,15,,,,,,,,8,13,,,,,,,,,,,8,1.449,1,,,,,,0.377777806,-0.383333347,1,0,0,1.4492,Pumice_rect,14,0,14,0,1,
664167adcaa569ada842f8de,SCN,2024-06-24_14h48.38.919,LearnStrategy,2023.2.3,Win32,60.24096386,9,2,16,,,,,,,,7,12,,,,,,,,,,,3,0.927,0,,,,,,0.118518547,-0.228703746,1,0,0,0.927,Diorite_rect,15,0,15,0,1,
664167adcaa569ada842f8de,SCN,2024-06-24_14h48.38.919,LearnStrategy,2023.2.3,Win32,60.24096386,,,,,,,,,,,,,,,,,,,,,,,,,,,,,,,,,,,,,,,,,,,1
664167adcaa569ada842f8de,SCN,2024-06-24_14h48.38.919,LearnStrategy,2023.2.3,Win32,60.24096386,,,,,,,,,,,,,,,,,,,,,,,,,,,,,,,,,,,,,,,,,,,
664167adcaa569ada842f8de,SCN,2024-06-24_14h48.38.919,LearnStrategy,2023.2.3,Win32,60.24096386,,,,,,,,,,,1,09,1,1,,,,,,,,,,,,,,,,,,,,,,,,,,,,,
664167adcaa569ada842f8de,SCN,2024-06-24_14h48.38.919,LearnStrategy,2023.2.3,Win32,60.24096386,,,,,,,,,,,2,08,1,2,,,,,,,,,,,,,,,,,,,,,,,,,,,,,
664167adcaa569ada842f8de,SCN,2024-06-24_14h48.38.919,LearnStrategy,2023.2.3,Win32,60.24096386,,,,,,,,,,,5,10,1,3,,,,,,,,,,,,,,,,,,,,,,,,,,,,,
664167adcaa569ada842f8de,SCN,2024-06-24_14h48.38.919,LearnStrategy,2023.2.3,Win32,60.24096386,,,,,,,,,,,8,02,1,4,,,,,,,,,,,,,,,,,,,,,,,,,,,,,
664167adcaa569ada842f8de,SCN,2024-06-24_14h48.38.919,LearnStrategy,2023.2.3,Win32,60.24096386,,,,,,,,,,,8,16,1,5,,,,,,,,,,,,,,,,,,,,,,,,,,,,,
664167adcaa569ada842f8de,SCN,2024-06-24_14h48.38.919,LearnStrategy,2023.2.3,Win32,60.24096386,,,,,,,,,,,4,13,1,6,,,,,,,,,,,,,,,,,,,,,,,,,,,,,
664167adcaa569ada842f8de,SCN,2024-06-24_14h48.38.919,LearnStrategy,2023.2.3,Win32,60.24096386,,,,,,,,,,,6,16,1,7,,,,,,,,,,,,,,,,,,,,,,,,,,,,,
664167adcaa569ada842f8de,SCN,2024-06-24_14h48.38.919,LearnStrategy,2023.2.3,Win32,60.24096386,,,,,,,,,,,7,13,1,8,,,,,,,,,,,,,,,,,,,,,,,,,,,,,
664167adcaa569ada842f8de,SCN,2024-06-24_14h48.38.919,LearnStrategy,2023.2.3,Win32,60.24096386,,,,,,,,,,,2,06,2,1,,,,,,,,,,,,,,,,,,,,,,,,,,,,,
664167adcaa569ada842f8de,SCN,2024-06-24_14h48.38.919,LearnStrategy,2023.2.3,Win32,60.24096386,,,,,,,,,,,8,14,2,2,,,,,,,,,,,,,,,,,,,,,,,,,,,,,
664167adcaa569ada842f8de,SCN,2024-06-24_14h48.38.919,LearnStrategy,2023.2.3,Win32,60.24096386,,,,,,,,,,,3,14,2,3,,,,,,,,,,,,,,,,,,,,,,,,,,,,,
664167adcaa569ada842f8de,SCN,2024-06-24_14h48.38.919,LearnStrategy,2023.2.3,Win32,60.24096386,,,,,,,,,,,7,06,2,4,,,,,,,,,,,,,,,,,,,,,,,,,,,,,
664167adcaa569ada842f8de,SCN,2024-06-24_14h48.38.919,LearnStrategy,2023.2.3,Win32,60.24096386,,,,,,,,,,,3,09,2,5,,,,,,,,,,,,,,,,,,,,,,,,,,,,,
664167adcaa569ada842f8de,SCN,2024-06-24_14h48.38.919,LearnStrategy,2023.2.3,Win32,60.24096386,,,,,,,,,,,5,08,2,6,,,,,,,,,,,,,,,,,,,,,,,,,,,,,
664167adcaa569ada842f8de,SCN,2024-06-24_14h48.38.919,LearnStrategy,2023.2.3,Win32,60.24096386,,,,,,,,,,,6,06,2,7,,,,,,,,,,,,,,,,,,,,,,,,,,,,,
664167adcaa569ada842f8de,SCN,2024-06-24_14h48.38.919,LearnStrategy,2023.2.3,Win32,60.24096386,,,,,,,,,,,6,11,2,8,,,,,,,,,,,,,,,,,,,,,,,,,,,,,
664167adcaa569ada842f8de,SCN,2024-06-24_14h48.38.919,LearnStrategy,2023.2.3,Win32,60.24096386,,,,,,,,,,,5,07,3,1,,,,,,,,,,,,,,,,,,,,,,,,,,,,,
664167adcaa569ada842f8de,SCN,2024-06-24_14h48.38.919,LearnStrategy,2023.2.3,Win32,60.24096386,,,,,,,,,,,1,07,3,2,,,,,,,,,,,,,,,,,,,,,,,,,,,,,
664167adcaa569ada842f8de,SCN,2024-06-24_14h48.38.919,LearnStrategy,2023.2.3,Win32,60.24096386,,,,,,,,,,,4,12,3,3,,,,,,,,,,,,,,,,,,,,,,,,,,,,,
664167adcaa569ada842f8de,SCN,2024-06-24_14h48.38.919,LearnStrategy,2023.2.3,Win32,60.24096386,,,,,,,,,,,7,14,3,4,,,,,,,,,,,,,,,,,,,,,,,,,,,,,
664167adcaa569ada842f8de,SCN,2024-06-24_14h48.38.919,LearnStrategy,2023.2.3,Win32,60.24096386,,,,,,,,,,,7,02,3,5,,,,,,,,,,,,,,,,,,,,,,,,,,,,,
664167adcaa569ada842f8de,SCN,2024-06-24_14h48.38.919,LearnStrategy,2023.2.3,Win32,60.24096386,,,,,,,,,,,3,06,3,6,,,,,,,,,,,,,,,,,,,,,,,,,,,,,
664167adcaa569ada842f8de,SCN,2024-06-24_14h48.38.919,LearnStrategy,2023.2.3,Win32,60.24096386,,,,,,,,,,,3,13,3,7,,,,,,,,,,,,,,,,,,,,,,,,,,,,,
664167adcaa569ada842f8de,SCN,2024-06-24_14h48.38.919,LearnStrategy,2023.2.3,Win32,60.24096386,,,,,,,,,,,2,11,3,8,,,,,,,,,,,,,,,,,,,,,,,,,,,,,
664167adcaa569ada842f8de,SCN,2024-06-24_14h48.38.919,LearnStrategy,2023.2.3,Win32,60.24096386,,,,,,,,,,,7,10,4,1,,,,,,,,,,,,,,,,,,,,,,,,,,,,,
664167adcaa569ada842f8de,SCN,2024-06-24_14h48.38.919,LearnStrategy,2023.2.3,Win32,60.24096386,,,,,,,,,,,6,13,4,2,,,,,,,,,,,,,,,,,,,,,,,,,,,,,
664167adcaa569ada842f8de,SCN,2024-06-24_14h48.38.919,LearnStrategy,2023.2.3,Win32,60.24096386,,,,,,,,,,,6,07,4,3,,,,,,,,,,,,,,,,,,,,,,,,,,,,,
664167adcaa569ada842f8de,SCN,2024-06-24_14h48.38.919,LearnStrategy,2023.2.3,Win32,60.24096386,,,,,,,,,,,8,06,4,4,,,,,,,,,,,,,,,,,,,,,,,,,,,,,
664167adcaa569ada842f8de,SCN,2024-06-24_14h48.38.919,LearnStrategy,2023.2.3,Win32,60.24096386,,,,,,,,,,,5,05,4,5,,,,,,,,,,,,,,,,,,,,,,,,,,,,,
664167adcaa569ada842f8de,SCN,2024-06-24_14h48.38.919,LearnStrategy,2023.2.3,Win32,60.24096386,,,,,,,,,,,1,05,4,6,,,,,,,,,,,,,,,,,,,,,,,,,,,,,
664167adcaa569ada842f8de,SCN,2024-06-24_14h48.38.919,LearnStrategy,2023.2.3,Win32,60.24096386,,,,,,,,,,,5,16,4,7,,,,,,,,,,,,,,,,,,,,,,,,,,,,,
664167adcaa569ada842f8de,SCN,2024-06-24_14h48.38.919,LearnStrategy,2023.2.3,Win32,60.24096386,,,,,,,,,,,6,09,4,8,,,,,,,,,,,,,,,,,,,,,,,,,,,,,
664167adcaa569ada842f8de,SCN,2024-06-24_14h48.38.919,LearnStrategy,2023.2.3,Win32,60.24096386,,,,,,,,,,,8,05,5,1,,,,,,,,,,,,,,,,,,,,,,,,,,,,,
664167adcaa569ada842f8de,SCN,2024-06-24_14h48.38.919,LearnStrategy,2023.2.3,Win32,60.24096386,,,,,,,,,,,1,04,5,2,,,,,,,,,,,,,,,,,,,,,,,,,,,,,
664167adcaa569ada842f8de,SCN,2024-06-24_14h48.38.919,LearnStrategy,2023.2.3,Win32,60.24096386,,,,,,,,,,,2,10,5,3,,,,,,,,,,,,,,,,,,,,,,,,,,,,,
664167adcaa569ada842f8de,SCN,2024-06-24_14h48.38.919,LearnStrategy,2023.2.3,Win32,60.24096386,,,,,,,,,,,1,02,5,4,,,,,,,,,,,,,,,,,,,,,,,,,,,,,
664167adcaa569ada842f8de,SCN,2024-06-24_14h48.38.919,LearnStrategy,2023.2.3,Win32,60.24096386,,,,,,,,,,,8,09,5,5,,,,,,,,,,,,,,,,,,,,,,,,,,,,,
664167adcaa569ada842f8de,SCN,2024-06-24_14h48.38.919,LearnStrategy,2023.2.3,Win32,60.24096386,,,,,,,,,,,4,14,5,6,,,,,,,,,,,,,,,,,,,,,,,,,,,,,
664167adcaa569ada842f8de,SCN,2024-06-24_14h48.38.919,LearnStrategy,2023.2.3,Win32,60.24096386,,,,,,,,,,,2,16,5,7,,,,,,,,,,,,,,,,,,,,,,,,,,,,,
664167adcaa569ada842f8de,SCN,2024-06-24_14h48.38.919,LearnStrategy,2023.2.3,Win32,60.24096386,,,,,,,,,,,3,08,5,8,,,,,,,,,,,,,,,,,,,,,,,,,,,,,
664167adcaa569ada842f8de,SCN,2024-06-24_14h48.38.919,LearnStrategy,2023.2.3,Win32,60.24096386,,,,,,,,,,,2,05,6,1,,,,,,,,,,,,,,,,,,,,,,,,,,,,,
664167adcaa569ada842f8de,SCN,2024-06-24_14h48.38.919,LearnStrategy,2023.2.3,Win32,60.24096386,,,,,,,,,,,4,08,6,2,,,,,,,,,,,,,,,,,,,,,,,,,,,,,
664167adcaa569ada842f8de,SCN,2024-06-24_14h48.38.919,LearnStrategy,2023.2.3,Win32,60.24096386,,,,,,,,,,,4,09,6,3,,,,,,,,,,,,,,,,,,,,,,,,,,,,,
664167adcaa569ada842f8de,SCN,2024-06-24_14h48.38.919,LearnStrategy,2023.2.3,Win32,60.24096386,,,,,,,,,,,5,12,6,4,,,,,,,,,,,,,,,,,,,,,,,,,,,,,
664167adcaa569ada842f8de,SCN,2024-06-24_14h48.38.919,LearnStrategy,2023.2.3,Win32,60.24096386,,,,,,,,,,,7,15,6,5,,,,,,,,,,,,,,,,,,,,,,,,,,,,,
664167adcaa569ada842f8de,SCN,2024-06-24_14h48.38.919,LearnStrategy,2023.2.3,Win32,60.24096386,,,,,,,,,,,1,03,6,6,,,,,,,,,,,,,,,,,,,,,,,,,,,,,
664167adcaa569ada842f8de,SCN,2024-06-24_14h48.38.919,LearnStrategy,2023.2.3,Win32,60.24096386,,,,,,,,,,,4,16,6,7,,,,,,,,,,,,,,,,,,,,,,,,,,,,,
664167adcaa569ada842f8de,SCN,2024-06-24_14h48.38.919,LearnStrategy,2023.2.3,Win32,60.24096386,,,,,,,,,,,3,12,6,8,,,,,,,,,,,,,,,,,,,,,,,,,,,,,