participant,condition,date,expName,psychopyVersion,OS,frameRate,block,phase,trial,learn_mouse_2.x,learn_mouse_2.y,learn_mouse_2.leftButton,learn_mouse_2.midButton,learn_mouse_2.rightButton,learn_mouse_2.time,learn_mouse_2.clicked_name,cat,token,row,col,t_select,cat_mouse_l.x,cat_mouse_l.y,cat_mouse_l.leftButton,cat_mouse_l.midButton,cat_mouse_l.rightButton,cat_mouse_l.time,cat_mouse_l.clicked_name,resp,t_resp,corr,train_trials.thisRepN,train_trials.thisTrialN,train_trials.thisN,train_trials.thisIndex,train_trials.ran,cat_mouse_t.x,cat_mouse_t.y,cat_mouse_t.leftButton,cat_mouse_t.midButton,cat_mouse_t.rightButton,cat_mouse_t.time,cat_mouse_t.clicked_name,test_trials.thisRepN,test_trials.thisTrialN,test_trials.thisN,test_trials.thisIndex,test_trials.ran,Bonus
66438bd9fb5f98e37d2c8539,TCN,2024-06-25_13h25.23.032,LearnStrategy,2023.2.3,MacIntel,59.84082341,,,,,,,,,,,,,,,,,,,,,,,,,,,,,,,,,,,,,,,,,,,
66438bd9fb5f98e37d2c8539,TCN,2024-06-25_13h25.23.032,LearnStrategy,2023.2.3,MacIntel,59.84082341,1,1,1,0.133072917,0.016653646,1,0,0,4.2741,rock_grid_rect_2,2,12,-1,-1,4.274,0.085529514,-0.387313368,1,0,0,4.6314,Peridotite_rect,7,4.631,0,0,0,0,0,1,,,,,,,,,,,,,
66438bd9fb5f98e37d2c8539,TCN,2024-06-25_13h25.23.032,LearnStrategy,2023.2.3,MacIntel,59.84082341,1,1,2,0.105568576,0.003125,1,0,0,2.4173,rock_grid_rect_2,5,11,-1,-1,2.417,0.302508681,-0.387413194,1,0,0,3.3305,Pumice_rect,8,3.331,0,1,0,1,0,1,,,,,,,,,,,,,
66438bd9fb5f98e37d2c8539,TCN,2024-06-25_13h25.23.032,LearnStrategy,2023.2.3,MacIntel,59.84082341,1,1,3,-0.002786458,-0.000924479,1,0,0,4.5897,rock_grid_rect_2,3,07,-1,-1,4.59,-0.388624132,-0.249544271,1,0,0,1.8817,Andesite_rect,1,1.882,0,2,0,2,0,1,,,,,,,,,,,,,
66438bd9fb5f98e37d2c8539,TCN,2024-06-25_13h25.23.032,LearnStrategy,2023.2.3,MacIntel,59.84082341,1,1,4,0.092582465,0,1,0,0,1.9658,rock_grid_rect_2,7,10,-1,-1,1.966,0.349405382,-0.252760417,1,0,0,2.9689,Gabbro_rect,4,2.969,0,3,0,3,0,1,,,,,,,,,,,,,
66438bd9fb5f98e37d2c8539,TCN,2024-06-25_13h25.23.032,LearnStrategy,2023.2.3,MacIntel,59.84082341,1,1,5,0.088355035,0.000694444,1,0,0,1.6146,rock_grid_rect_2,6,13,-1,-1,1.615,0.074188368,-0.398094618,1,0,0,4.5873,Peridotite_rect,7,4.587,0,4,0,4,0,1,,,,,,,,,,,,,
66438bd9fb5f98e37d2c8539,TCN,2024-06-25_13h25.23.032,LearnStrategy,2023.2.3,MacIntel,59.84082341,1,1,6,0.066749132,0.000460069,1,0,0,1.3306,rock_grid_rect_2,1,04,-1,-1,1.331,0.385021701,-0.389014757,1,0,0,2.5652,Pumice_rect,8,2.565,0,5,0,5,0,1,,,,,,,,,,,,,
66438bd9fb5f98e37d2c8539,TCN,2024-06-25_13h25.23.032,LearnStrategy,2023.2.3,MacIntel,59.84082341,1,1,7,-0.113680556,-0.007773437,1,0,0,2.2516,rock_grid_rect_2,7,06,-1,-1,2.252,0.220616319,-0.419075521,1,0,0,17.1254,Peridotite_rect,7,17.125,1,6,0,6,0,1,,,,,,,,,,,,,
66438bd9fb5f98e37d2c8539,TCN,2024-06-25_13h25.23.032,LearnStrategy,2023.2.3,MacIntel,59.84082341,1,1,8,-0.078880208,0.022287326,1,0,0,1.614,rock_grid_rect_2,8,05,-1,-1,1.614,0.324435764,-0.258485243,1,0,0,2.8135,Gabbro_rect,4,2.813,0,7,0,7,0,1,,,,,,,,,,,,,
66438bd9fb5f98e37d2c8539,TCN,2024-06-25_13h25.23.032,LearnStrategy,2023.2.3,MacIntel,59.84082341,1,1,9,0.018585069,-0.003580729,1,0,0,1.3319,rock_grid_rect_2,4,10,-1,-1,1.332,-0.407278646,-0.401115451,1,0,0,4.7711,Obsidian_rect,5,4.771,0,8,0,8,0,1,,,,,,,,,,,,,
66438bd9fb5f98e37d2c8539,TCN,2024-06-25_13h25.23.032,LearnStrategy,2023.2.3,MacIntel,59.84082341,1,1,10,0.104453125,0.013658854,1,0,0,1.0121,rock_grid_rect_2,3,06,-1,-1,1.012,0.072764757,-0.258415799,1,0,0,12.5925,Diorite_rect,3,12.593,1,9,0,9,0,1,,,,,,,,,,,,,
66438bd9fb5f98e37d2c8539,TCN,2024-06-25_13h25.23.032,LearnStrategy,2023.2.3,MacIntel,59.84082341,1,1,11,0.03641059,-0.01421875,1,0,0,1.2986,rock_grid_rect_2,6,15,-1,-1,1.299,-0.343025174,-0.252109375,1,0,0,4.6204,Andesite_rect,1,4.62,0,10,0,10,0,1,,,,,,,,,,,,,
66438bd9fb5f98e37d2c8539,TCN,2024-06-25_13h25.23.032,LearnStrategy,2023.2.3,MacIntel,59.84082341,1,1,12,0.127465278,-0.018194444,1,0,0,1.4472,rock_grid_rect_2,1,07,-1,-1,1.447,-0.359032118,-0.252378472,1,0,0,7.2357,Andesite_rect,1,7.236,1,11,0,11,0,1,,,,,,,,,,,,,
66438bd9fb5f98e37d2c8539,TCN,2024-06-25_13h25.23.032,LearnStrategy,2023.2.3,MacIntel,59.84082341,1,1,13,0.057799479,0.010507812,1,0,0,1.8333,rock_grid_rect_2,8,13,-1,-1,1.833,0.419748264,-0.382456597,1,0,0,6.0618,Pumice_rect,8,6.062,1,12,0,12,0,1,,,,,,,,,,,,,
66438bd9fb5f98e37d2c8539,TCN,2024-06-25_13h25.23.032,LearnStrategy,2023.2.3,MacIntel,59.84082341,1,1,14,0.010915799,0.003420139,1,0,0,1.933,rock_grid_rect_2,5,07,-1,-1,1.933,-0.390664063,-0.406215278,1,0,0,1.8318,Obsidian_rect,5,1.832,1,13,0,13,0,1,,,,,,,,,,,,,
66438bd9fb5f98e37d2c8539,TCN,2024-06-25_13h25.23.032,LearnStrategy,2023.2.3,MacIntel,59.84082341,1,1,15,0.022608507,-0.006523437,1,0,0,0.9487,rock_grid_rect_2,4,01,-1,-1,0.949,0.328142361,-0.258476563,1,0,0,5.2142,Gabbro_rect,4,5.214,1,14,0,14,0,1,,,,,,,,,,,,,
66438bd9fb5f98e37d2c8539,TCN,2024-06-25_13h25.23.032,LearnStrategy,2023.2.3,MacIntel,59.84082341,1,1,16,0.049257812,-0.011948785,1,0,0,1.3992,rock_grid_rect_2,2,16,-1,-1,1.399,0.417560764,-0.400442708,1,0,0,5.4821,Pumice_rect,8,5.482,0,15,0,15,0,1,,,,,,,,,,,,,
66438bd9fb5f98e37d2c8539,TCN,2024-06-25_13h25.23.032,LearnStrategy,2023.2.3,MacIntel,59.84082341,1,2,1,,,,,,,,5,16,,,,,,,,,,,5,1.615,1,,,,,,-0.362608507,-0.412083333,1,0,0,1.6151,Obsidian_rect,0,0,0,0,1,
66438bd9fb5f98e37d2c8539,TCN,2024-06-25_13h25.23.032,LearnStrategy,2023.2.3,MacIntel,59.84082341,1,2,2,,,,,,,,4,08,,,,,,,,,,,2,17.962,0,,,,,,-0.077274306,-0.257313368,1,0,0,17.9618,Basalt_rect,1,0,1,0,1,
66438bd9fb5f98e37d2c8539,TCN,2024-06-25_13h25.23.032,LearnStrategy,2023.2.3,MacIntel,59.84082341,1,2,3,,,,,,,,1,02,,,,,,,,,,,3,7.079,0,,,,,,0.142947049,-0.232248264,1,0,0,7.0795,Diorite_rect,2,0,2,0,1,
66438bd9fb5f98e37d2c8539,TCN,2024-06-25_13h25.23.032,LearnStrategy,2023.2.3,MacIntel,59.84082341,1,2,4,,,,,,,,8,16,,,,,,,,,,,8,8.756,1,,,,,,0.382608507,-0.394344618,1,0,0,8.7557,Pumice_rect,3,0,3,0,1,
66438bd9fb5f98e37d2c8539,TCN,2024-06-25_13h25.23.032,LearnStrategy,2023.2.3,MacIntel,59.84082341,1,2,5,,,,,,,,5,10,,,,,,,,,,,5,2.189,1,,,,,,-0.395073785,-0.402534722,1,0,0,2.1887,Obsidian_rect,4,0,4,0,1,
66438bd9fb5f98e37d2c8539,TCN,2024-06-25_13h25.23.032,LearnStrategy,2023.2.3,MacIntel,59.84082341,1,2,6,,,,,,,,8,15,,,,,,,,,,,8,5.017,1,,,,,,0.366532118,-0.393936632,1,0,0,5.0165,Pumice_rect,5,0,5,0,1,
66438bd9fb5f98e37d2c8539,TCN,2024-06-25_13h25.23.032,LearnStrategy,2023.2.3,MacIntel,59.84082341,1,2,7,,,,,,,,6,10,,,,,,,,,,,6,7.308,1,,,,,,-0.133602431,-0.384939236,1,0,0,7.3077,Pegmatite_rect,6,0,6,0,1,
66438bd9fb5f98e37d2c8539,TCN,2024-06-25_13h25.23.032,LearnStrategy,2023.2.3,MacIntel,59.84082341,1,2,8,,,,,,,,2,09,,,,,,,,,,,2,32.201,1,,,,,,-0.141644965,-0.263962674,1,0,0,32.201,Basalt_rect,7,0,7,0,1,
66438bd9fb5f98e37d2c8539,TCN,2024-06-25_13h25.23.032,LearnStrategy,2023.2.3,MacIntel,59.84082341,1,2,9,,,,,,,,4,14,,,,,,,,,,,7,9.862,0,,,,,,0.154023437,-0.41858941,1,0,0,9.8622,Peridotite_rect,8,0,8,0,1,
66438bd9fb5f98e37d2c8539,TCN,2024-06-25_13h25.23.032,LearnStrategy,2023.2.3,MacIntel,59.84082341,1,2,10,,,,,,,,3,14,,,,,,,,,,,3,6.707,1,,,,,,0.166315104,-0.247174479,1,0,0,6.7067,Diorite_rect,9,0,9,0,1,
66438bd9fb5f98e37d2c8539,TCN,2024-06-25_13h25.23.032,LearnStrategy,2023.2.3,MacIntel,59.84082341,1,2,11,,,,,,,,6,05,,,,,,,,,,,3,4.929,0,,,,,,0.158932292,-0.248802083,1,0,0,4.9288,Diorite_rect,10,0,10,0,1,
66438bd9fb5f98e37d2c8539,TCN,2024-06-25_13h25.23.032,LearnStrategy,2023.2.3,MacIntel,59.84082341,1,2,12,,,,,,,,2,08,,,,,,,,,,,2,12.242,1,,,,,,-0.131679688,-0.237921007,1,0,0,12.2423,Basalt_rect,11,0,11,0,1,
66438bd9fb5f98e37d2c8539,TCN,2024-06-25_13h25.23.032,LearnStrategy,2023.2.3,MacIntel,59.84082341,1,2,13,,,,,,,,1,09,,,,,,,,,,,1,9.777,1,,,,,,-0.417539063,-0.257083333,1,0,0,9.7771,Andesite_rect,12,0,12,0,1,
66438bd9fb5f98e37d2c8539,TCN,2024-06-25_13h25.23.032,LearnStrategy,2023.2.3,MacIntel,59.84082341,1,2,14,,,,,,,,7,16,,,,,,,,,,,3,17.3,0,,,,,,0.125672743,-0.253450521,1,0,0,17.3003,Diorite_rect,13,0,13,0,1,
66438bd9fb5f98e37d2c8539,TCN,2024-06-25_13h25.23.032,LearnStrategy,2023.2.3,MacIntel,59.84082341,1,2,15,,,,,,,,7,12,,,,,,,,,,,6,6.265,0,,,,,,-0.043971354,-0.400967882,1,0,0,6.265,Pegmatite_rect,14,0,14,0,1,
66438bd9fb5f98e37d2c8539,TCN,2024-06-25_13h25.23.032,LearnStrategy,2023.2.3,MacIntel,59.84082341,1,2,16,,,,,,,,3,11,,,,,,,,,,,8,6.71,0,,,,,,0.434131944,-0.416063368,1,0,0,6.7105,Pumice_rect,15,0,15,0,1,
66438bd9fb5f98e37d2c8539,TCN,2024-06-25_13h25.23.032,LearnStrategy,2023.2.3,MacIntel,59.84082341,2,1,1,0.120967882,-0.013476563,1,0,0,2.6363,rock_grid_rect_2,5,08,-1,-1,2.636,-0.359414063,-0.398819444,1,0,0,6.0257,Obsidian_rect,5,6.026,1,0,0,0,0,1,,,,,,,,,,,,,
66438bd9fb5f98e37d2c8539,TCN,2024-06-25_13h25.23.032,LearnStrategy,2023.2.3,MacIntel,59.84082341,2,1,2,0.050603299,-0.009678819,1,0,0,0.8622,rock_grid_rect_2,8,10,-1,-1,0.862,0.375763889,-0.402617187,1,0,0,13.9857,Pumice_rect,8,13.986,1,1,0,1,0,1,,,,,,,,,,,,,
66438bd9fb5f98e37d2c8539,TCN,2024-06-25_13h25.23.032,LearnStrategy,2023.2.3,MacIntel,59.84082341,2,1,3,0.137894965,-0.009322917,1,0,0,1.3474,rock_grid_rect_2,7,13,-1,-1,1.347,-0.204331597,-0.401901042,1,0,0,9.9641,Pegmatite_rect,6,9.964,0,2,0,2,0,1,,,,,,,,,,,,,
66438bd9fb5f98e37d2c8539,TCN,2024-06-25_13h25.23.032,LearnStrategy,2023.2.3,MacIntel,59.84082341,2,1,4,0.114986979,-0.003311632,1,0,0,0.9152,rock_grid_rect_2,6,09,-1,-1,0.915,0.114874132,-0.239396701,1,0,0,10.3343,Diorite_rect,3,10.334,0,3,0,3,0,1,,,,,,,,,,,,,
66438bd9fb5f98e37d2c8539,TCN,2024-06-25_13h25.23.032,LearnStrategy,2023.2.3,MacIntel,59.84082341,2,1,5,0.144748264,-0.00874566,1,0,0,1.0979,rock_grid_rect_2,2,02,-1,-1,1.098,-0.11484809,-0.235850694,1,0,0,15.1378,Basalt_rect,2,15.138,1,4,0,4,0,1,,,,,,,,,,,,,
66438bd9fb5f98e37d2c8539,TCN,2024-06-25_13h25.23.032,LearnStrategy,2023.2.3,MacIntel,59.84082341,2,1,6,0.114262153,-0.0028125,1,0,0,1.0149,rock_grid_rect_2,5,05,-1,-1,1.015,-0.442200521,-0.379605035,1,0,0,4.097,Obsidian_rect,5,4.097,1,5,0,5,0,1,,,,,,,,,,,,,
66438bd9fb5f98e37d2c8539,TCN,2024-06-25_13h25.23.032,LearnStrategy,2023.2.3,MacIntel,59.84082341,2,1,7,0.100677083,0.003263889,1,0,0,1.0641,rock_grid_rect_2,7,04,-1,-1,1.064,0.109461806,-0.410837674,1,0,0,3.7114,Peridotite_rect,7,3.711,1,6,0,6,0,1,,,,,,,,,,,,,
66438bd9fb5f98e37d2c8539,TCN,2024-06-25_13h25.23.032,LearnStrategy,2023.2.3,MacIntel,59.84082341,2,1,8,0.13406684,-0.016328125,1,0,0,0.9988,rock_grid_rect_2,8,09,-1,-1,0.999,0.386597222,-0.41781684,1,0,0,8.7411,Pumice_rect,8,8.741,1,7,0,7,0,1,,,,,,,,,,,,,
66438bd9fb5f98e37d2c8539,TCN,2024-06-25_13h25.23.032,LearnStrategy,2023.2.3,MacIntel,59.84082341,2,1,9,0.091167535,-0.017881944,1,0,0,1.3995,rock_grid_rect_2,6,03,-1,-1,1.399,0.155993924,-0.394192708,1,0,0,3.3602,Peridotite_rect,7,3.36,0,8,0,8,0,1,,,,,,,,,,,,,
66438bd9fb5f98e37d2c8539,TCN,2024-06-25_13h25.23.032,LearnStrategy,2023.2.3,MacIntel,59.84082341,2,1,10,0.073515625,-0.015355903,1,0,0,0.9316,rock_grid_rect_2,1,06,-1,-1,0.932,0.138684896,-0.412825521,1,0,0,6.6731,Peridotite_rect,7,6.673,0,9,0,9,0,1,,,,,,,,,,,,,
66438bd9fb5f98e37d2c8539,TCN,2024-06-25_13h25.23.032,LearnStrategy,2023.2.3,MacIntel,59.84082341,2,1,11,0.11484809,0.002682292,1,0,0,1.1476,rock_grid_rect_2,1,01,-1,-1,1.148,0.370186632,-0.262291667,1,0,0,13.3981,Gabbro_rect,4,13.398,0,10,0,10,0,1,,,,,,,,,,,,,
66438bd9fb5f98e37d2c8539,TCN,2024-06-25_13h25.23.032,LearnStrategy,2023.2.3,MacIntel,59.84082341,2,1,12,0.112296007,-0.011727431,1,0,0,0.9474,rock_grid_rect_2,4,13,-1,-1,0.947,-0.146744792,-0.260798611,1,0,0,16.0595,Basalt_rect,2,16.059,0,11,0,11,0,1,,,,,,,,,,,,,
66438bd9fb5f98e37d2c8539,TCN,2024-06-25_13h25.23.032,LearnStrategy,2023.2.3,MacIntel,59.84082341,2,1,13,0.12343316,-0.00484375,1,0,0,0.8966,rock_grid_rect_2,3,12,-1,-1,0.897,-0.36109809,-0.236124132,1,0,0,9.4332,Andesite_rect,1,9.433,0,12,0,12,0,1,,,,,,,,,,,,,
66438bd9fb5f98e37d2c8539,TCN,2024-06-25_13h25.23.032,LearnStrategy,2023.2.3,MacIntel,59.84082341,2,1,14,0.108472222,-0.005212674,1,0,0,0.8288,rock_grid_rect_2,4,15,-1,-1,0.829,0.399613715,-0.244444444,1,0,0,4.7144,Gabbro_rect,4,4.714,1,13,0,13,0,1,,,,,,,,,,,,,
66438bd9fb5f98e37d2c8539,TCN,2024-06-25_13h25.23.032,LearnStrategy,2023.2.3,MacIntel,59.84082341,2,1,15,0.105993924,-0.007243924,1,0,0,0.7477,rock_grid_rect_2,2,06,-1,-1,0.748,-0.105633681,-0.252239583,1,0,0,8.0327,Basalt_rect,2,8.033,1,14,0,14,0,1,,,,,,,,,,,,,
66438bd9fb5f98e37d2c8539,TCN,2024-06-25_13h25.23.032,LearnStrategy,2023.2.3,MacIntel,59.84082341,2,1,16,0.09375,-0.004635417,1,0,0,0.8131,rock_grid_rect_2,3,16,-1,-1,0.813,-0.041618924,-0.420438368,1,0,0,16.037,Pegmatite_rect,6,16.037,0,15,0,15,0,1,,,,,,,,,,,,,
66438bd9fb5f98e37d2c8539,TCN,2024-06-25_13h25.23.032,LearnStrategy,2023.2.3,MacIntel,59.84082341,2,2,1,,,,,,,,8,04,,,,,,,,,,,8,7.489,1,,,,,,0.35405816,-0.412916667,1,0,0,7.4888,Pumice_rect,0,0,0,0,1,
66438bd9fb5f98e37d2c8539,TCN,2024-06-25_13h25.23.032,LearnStrategy,2023.2.3,MacIntel,59.84082341,2,2,2,,,,,,,,7,05,,,,,,,,,,,7,18.551,1,,,,,,0.126944444,-0.391388889,1,0,0,18.5508,Peridotite_rect,1,0,1,0,1,
66438bd9fb5f98e37d2c8539,TCN,2024-06-25_13h25.23.032,LearnStrategy,2023.2.3,MacIntel,59.84082341,2,2,3,,,,,,,,1,05,,,,,,,,,,,7,10.406,0,,,,,,0.169105903,-0.384665799,1,0,0,10.4062,Peridotite_rect,2,0,2,0,1,
66438bd9fb5f98e37d2c8539,TCN,2024-06-25_13h25.23.032,LearnStrategy,2023.2.3,MacIntel,59.84082341,2,2,4,,,,,,,,3,08,,,,,,,,,,,7,20.921,0,,,,,,0.093862847,-0.397361111,1,0,0,20.9213,Peridotite_rect,3,0,3,0,1,
66438bd9fb5f98e37d2c8539,TCN,2024-06-25_13h25.23.032,LearnStrategy,2023.2.3,MacIntel,59.84082341,2,2,5,,,,,,,,5,04,,,,,,,,,,,5,1.808,1,,,,,,-0.446458333,-0.408064236,1,0,0,1.8075,Obsidian_rect,4,0,4,0,1,
66438bd9fb5f98e37d2c8539,TCN,2024-06-25_13h25.23.032,LearnStrategy,2023.2.3,MacIntel,59.84082341,2,2,6,,,,,,,,6,12,,,,,,,,,,,3,15.299,0,,,,,,0.131666667,-0.26280816,1,0,0,15.2994,Diorite_rect,5,0,5,0,1,
66438bd9fb5f98e37d2c8539,TCN,2024-06-25_13h25.23.032,LearnStrategy,2023.2.3,MacIntel,59.84082341,2,2,7,,,,,,,,8,08,,,,,,,,,,,8,5.658,1,,,,,,0.427113715,-0.408350694,1,0,0,5.6581,Pumice_rect,6,0,6,0,1,
66438bd9fb5f98e37d2c8539,TCN,2024-06-25_13h25.23.032,LearnStrategy,2023.2.3,MacIntel,59.84082341,2,2,8,,,,,,,,7,15,,,,,,,,,,,3,5.921,0,,,,,,0.112795139,-0.268051215,1,0,0,5.9206,Diorite_rect,7,0,7,0,1,
66438bd9fb5f98e37d2c8539,TCN,2024-06-25_13h25.23.032,LearnStrategy,2023.2.3,MacIntel,59.84082341,2,2,9,,,,,,,,6,16,,,,,,,,,,,6,12.507,1,,,,,,-0.094574653,-0.419357639,1,0,0,12.5067,Pegmatite_rect,8,0,8,0,1,
66438bd9fb5f98e37d2c8539,TCN,2024-06-25_13h25.23.032,LearnStrategy,2023.2.3,MacIntel,59.84082341,2,2,10,,,,,,,,4,16,,,,,,,,,,,2,9.501,0,,,,,,-0.135902778,-0.241297743,1,0,0,9.5014,Basalt_rect,9,0,9,0,1,
66438bd9fb5f98e37d2c8539,TCN,2024-06-25_13h25.23.032,LearnStrategy,2023.2.3,MacIntel,59.84082341,2,2,11,,,,,,,,5,06,,,,,,,,,,,5,1.506,1,,,,,,-0.377152778,-0.397426215,1,0,0,1.5061,Obsidian_rect,10,0,10,0,1,
66438bd9fb5f98e37d2c8539,TCN,2024-06-25_13h25.23.032,LearnStrategy,2023.2.3,MacIntel,59.84082341,2,2,12,,,,,,,,1,03,,,,,,,,,,,1,16.562,1,,,,,,-0.324657118,-0.239739583,1,0,0,16.5617,Andesite_rect,11,0,11,0,1,
66438bd9fb5f98e37d2c8539,TCN,2024-06-25_13h25.23.032,LearnStrategy,2023.2.3,MacIntel,59.84082341,2,2,13,,,,,,,,2,01,,,,,,,,,,,2,12.072,1,,,,,,-0.110442708,-0.240186632,1,0,0,12.0721,Basalt_rect,12,0,12,0,1,
66438bd9fb5f98e37d2c8539,TCN,2024-06-25_13h25.23.032,LearnStrategy,2023.2.3,MacIntel,59.84082341,2,2,14,,,,,,,,2,05,,,,,,,,,,,2,3.029,1,,,,,,-0.056814236,-0.245898438,1,0,0,3.0291,Basalt_rect,13,0,13,0,1,
66438bd9fb5f98e37d2c8539,TCN,2024-06-25_13h25.23.032,LearnStrategy,2023.2.3,MacIntel,59.84082341,2,2,15,,,,,,,,3,02,,,,,,,,,,,3,13.304,1,,,,,,0.170820312,-0.248984375,1,0,0,13.3038,Diorite_rect,14,0,14,0,1,
66438bd9fb5f98e37d2c8539,TCN,2024-06-25_13h25.23.032,LearnStrategy,2023.2.3,MacIntel,59.84082341,2,2,16,,,,,,,,4,05,,,,,,,,,,,4,5.781,1,,,,,,0.405130208,-0.261154514,1,0,0,5.7805,Gabbro_rect,15,0,15,0,1,
66438bd9fb5f98e37d2c8539,TCN,2024-06-25_13h25.23.032,LearnStrategy,2023.2.3,MacIntel,59.84082341,3,1,1,0.057994792,0.002278646,1,0,0,2.2719,rock_grid_rect_2,5,09,-1,-1,2.272,-0.428797743,-0.402842882,1,0,0,5.5988,Obsidian_rect,5,5.599,1,0,0,0,0,1,,,,,,,,,,,,,
66438bd9fb5f98e37d2c8539,TCN,2024-06-25_13h25.23.032,LearnStrategy,2023.2.3,MacIntel,59.84082341,3,1,2,0.065633681,0.02140191,1,0,0,1.2675,rock_grid_rect_2,6,06,-1,-1,1.268,-0.087269965,-0.395512153,1,0,0,5.3215,Pegmatite_rect,6,5.321,1,1,0,1,0,1,,,,,,,,,,,,,
66438bd9fb5f98e37d2c8539,TCN,2024-06-25_13h25.23.032,LearnStrategy,2023.2.3,MacIntel,59.84082341,3,1,3,0.111796875,0.001666667,1,0,0,0.9986,rock_grid_rect_2,6,08,-1,-1,0.999,0.188394097,-0.236046007,1,0,0,2.0205,Diorite_rect,3,2.02,0,2,0,2,0,1,,,,,,,,,,,,,
66438bd9fb5f98e37d2c8539,TCN,2024-06-25_13h25.23.032,LearnStrategy,2023.2.3,MacIntel,59.84082341,3,1,4,0.097157118,0.001549479,1,0,0,1.0158,rock_grid_rect_2,4,09,-1,-1,1.016,-0.139861111,-0.228771701,1,0,0,2.4903,Basalt_rect,2,2.49,0,3,0,3,0,1,,,,,,,,,,,,,
66438bd9fb5f98e37d2c8539,TCN,2024-06-25_13h25.23.032,LearnStrategy,2023.2.3,MacIntel,59.84082341,3,1,5,0.052456597,-0.010798611,1,0,0,0.947,rock_grid_rect_2,7,07,-1,-1,0.947,-0.074470486,-0.244409722,1,0,0,2.0331,Basalt_rect,2,2.033,0,4,0,4,0,1,,,,,,,,,,,,,
66438bd9fb5f98e37d2c8539,TCN,2024-06-25_13h25.23.032,LearnStrategy,2023.2.3,MacIntel,59.84082341,3,1,6,0.120837674,-0.015954861,1,0,0,1.0647,rock_grid_rect_2,3,09,-1,-1,1.065,0.182994792,-0.414735243,1,0,0,1.9942,Peridotite_rect,7,1.994,0,5,0,5,0,1,,,,,,,,,,,,,
66438bd9fb5f98e37d2c8539,TCN,2024-06-25_13h25.23.032,LearnStrategy,2023.2.3,MacIntel,59.84082341,3,1,7,0.114952257,0.003476563,1,0,0,0.9807,rock_grid_rect_2,3,15,-1,-1,0.981,0.087278646,-0.412326389,1,0,0,8.0052,Peridotite_rect,7,8.005,0,6,0,6,0,1,,,,,,,,,,,,,
66438bd9fb5f98e37d2c8539,TCN,2024-06-25_13h25.23.032,LearnStrategy,2023.2.3,MacIntel,59.84082341,3,1,8,0.103580729,-0.018320313,1,0,0,1.2839,rock_grid_rect_2,1,16,-1,-1,1.284,0.124900174,-0.240173611,1,0,0,2.1957,Diorite_rect,3,2.196,0,7,0,7,0,1,,,,,,,,,,,,,
66438bd9fb5f98e37d2c8539,TCN,2024-06-25_13h25.23.032,LearnStrategy,2023.2.3,MacIntel,59.84082341,3,1,9,0.156931424,0.013020833,1,0,0,0.965,rock_grid_rect_2,8,03,-1,-1,0.965,-0.197695312,-0.242039931,1,0,0,1.6734,Basalt_rect,2,1.673,0,8,0,8,0,1,,,,,,,,,,,,,
66438bd9fb5f98e37d2c8539,TCN,2024-06-25_13h25.23.032,LearnStrategy,2023.2.3,MacIntel,59.84082341,3,1,10,0.037417535,-0.021393229,1,0,0,0.9317,rock_grid_rect_2,4,03,-1,-1,0.932,0.106974826,-0.249405382,1,0,0,6.6236,Diorite_rect,3,6.624,0,9,0,9,0,1,,,,,,,,,,,,,
66438bd9fb5f98e37d2c8539,TCN,2024-06-25_13h25.23.032,LearnStrategy,2023.2.3,MacIntel,59.84082341,3,1,11,0.088502604,0.009609375,1,0,0,1.4323,rock_grid_rect_2,5,02,-1,-1,1.432,-0.343142361,-0.407434896,1,0,0,1.2733,Obsidian_rect,5,1.273,1,10,0,10,0,1,,,,,,,,,,,,,
66438bd9fb5f98e37d2c8539,TCN,2024-06-25_13h25.23.032,LearnStrategy,2023.2.3,MacIntel,59.84082341,3,1,12,0.128311632,-0.009965278,1,0,0,1.0126,rock_grid_rect_2,2,04,-1,-1,1.013,-0.165872396,-0.251493056,1,0,0,1.2163,Basalt_rect,2,1.216,1,11,0,11,0,1,,,,,,,,,,,,,
66438bd9fb5f98e37d2c8539,TCN,2024-06-25_13h25.23.032,LearnStrategy,2023.2.3,MacIntel,59.84082341,3,1,13,0.023064236,-0.011987847,1,0,0,1.2982,rock_grid_rect_2,2,11,-1,-1,1.298,-0.080065104,-0.242387153,1,0,0,16.6057,Basalt_rect,2,16.606,1,12,0,12,0,1,,,,,,,,,,,,,
66438bd9fb5f98e37d2c8539,TCN,2024-06-25_13h25.23.032,LearnStrategy,2023.2.3,MacIntel,59.84082341,3,1,14,0.113975694,-0.008081597,1,0,0,1.1801,rock_grid_rect_2,8,06,-1,-1,1.18,0.34437066,-0.384184028,1,0,0,1.5203,Pumice_rect,8,1.52,1,13,0,13,0,1,,,,,,,,,,,,,
66438bd9fb5f98e37d2c8539,TCN,2024-06-25_13h25.23.032,LearnStrategy,2023.2.3,MacIntel,59.84082341,3,1,15,0.103771701,0.010069444,1,0,0,0.9969,rock_grid_rect_2,1,11,-1,-1,0.997,0.060529514,-0.39859375,1,0,0,4.3192,Peridotite_rect,7,4.319,0,14,0,14,0,1,,,,,,,,,,,,,
66438bd9fb5f98e37d2c8539,TCN,2024-06-25_13h25.23.032,LearnStrategy,2023.2.3,MacIntel,59.84082341,3,1,16,0.058628472,0.000690104,1,0,0,1.1821,rock_grid_rect_2,7,14,-1,-1,1.182,-0.321115451,-0.235095486,1,0,0,8.5896,Andesite_rect,1,8.59,0,15,0,15,0,1,,,,,,,,,,,,,
66438bd9fb5f98e37d2c8539,TCN,2024-06-25_13h25.23.032,LearnStrategy,2023.2.3,MacIntel,59.84082341,3,2,1,,,,,,,,4,12,,,,,,,,,,,2,5.81,0,,,,,,-0.166605903,-0.259505208,1,0,0,5.8096,Basalt_rect,0,0,0,0,1,
66438bd9fb5f98e37d2c8539,TCN,2024-06-25_13h25.23.032,LearnStrategy,2023.2.3,MacIntel,59.84082341,3,2,2,,,,,,,,6,07,,,,,,,,,,,1,5.322,0,,,,,,-0.318823785,-0.237717014,1,0,0,5.3222,Andesite_rect,1,0,1,0,1,
66438bd9fb5f98e37d2c8539,TCN,2024-06-25_13h25.23.032,LearnStrategy,2023.2.3,MacIntel,59.84082341,3,2,3,,,,,,,,2,10,,,,,,,,,,,2,13.669,1,,,,,,-0.080577257,-0.245073785,1,0,0,13.6694,Basalt_rect,2,0,2,0,1,
66438bd9fb5f98e37d2c8539,TCN,2024-06-25_13h25.23.032,LearnStrategy,2023.2.3,MacIntel,59.84082341,3,2,4,,,,,,,,3,13,,,,,,,,,,,3,13.437,1,,,,,,0.163715278,-0.249743924,1,0,0,13.4365,Diorite_rect,3,0,3,0,1,
66438bd9fb5f98e37d2c8539,TCN,2024-06-25_13h25.23.032,LearnStrategy,2023.2.3,MacIntel,59.84082341,3,2,5,,,,,,,,5,12,,,,,,,,,,,5,1.142,1,,,,,,-0.326180556,-0.389709201,1,0,0,1.1416,Obsidian_rect,4,0,4,0,1,
66438bd9fb5f98e37d2c8539,TCN,2024-06-25_13h25.23.032,LearnStrategy,2023.2.3,MacIntel,59.84082341,3,2,6,,,,,,,,8,02,,,,,,,,,,,8,3.466,1,,,,,,0.413111979,-0.381388889,1,0,0,3.4662,Pumice_rect,5,0,5,0,1,
66438bd9fb5f98e37d2c8539,TCN,2024-06-25_13h25.23.032,LearnStrategy,2023.2.3,MacIntel,59.84082341,3,2,7,,,,,,,,5,14,,,,,,,,,,,5,1.183,1,,,,,,-0.381809896,-0.380260417,1,0,0,1.1833,Obsidian_rect,6,0,6,0,1,
66438bd9fb5f98e37d2c8539,TCN,2024-06-25_13h25.23.032,LearnStrategy,2023.2.3,MacIntel,59.84082341,3,2,8,,,,,,,,4,11,,,,,,,,,,,2,2.462,0,,,,,,-0.136302083,-0.241662326,1,0,0,2.462,Basalt_rect,7,0,7,0,1,
66438bd9fb5f98e37d2c8539,TCN,2024-06-25_13h25.23.032,LearnStrategy,2023.2.3,MacIntel,59.84082341,3,2,9,,,,,,,,2,14,,,,,,,,,,,8,12.249,0,,,,,,0.400651042,-0.418446181,1,0,0,12.2495,Pumice_rect,8,0,8,0,1,
66438bd9fb5f98e37d2c8539,TCN,2024-06-25_13h25.23.032,LearnStrategy,2023.2.3,MacIntel,59.84082341,3,2,10,,,,,,,,7,02,,,,,,,,,,,7,10.21,1,,,,,,0.093975694,-0.402131076,1,0,0,10.2096,Peridotite_rect,9,0,9,0,1,
66438bd9fb5f98e37d2c8539,TCN,2024-06-25_13h25.23.032,LearnStrategy,2023.2.3,MacIntel,59.84082341,3,2,11,,,,,,,,1,10,,,,,,,,,,,1,11.269,1,,,,,,-0.39593316,-0.244309896,1,0,0,11.2686,Andesite_rect,10,0,10,0,1,
66438bd9fb5f98e37d2c8539,TCN,2024-06-25_13h25.23.032,LearnStrategy,2023.2.3,MacIntel,59.84082341,3,2,12,,,,,,,,3,10,,,,,,,,,,,4,4.46,0,,,,,,0.348932292,-0.264887153,1,0,0,4.4595,Gabbro_rect,11,0,11,0,1,
66438bd9fb5f98e37d2c8539,TCN,2024-06-25_13h25.23.032,LearnStrategy,2023.2.3,MacIntel,59.84082341,3,2,13,,,,,,,,1,14,,,,,,,,,,,1,4.316,1,,,,,,-0.348537326,-0.259236111,1,0,0,4.316,Andesite_rect,12,0,12,0,1,
66438bd9fb5f98e37d2c8539,TCN,2024-06-25_13h25.23.032,LearnStrategy,2023.2.3,MacIntel,59.84082341,3,2,14,,,,,,,,7,08,,,,,,,,,,,3,8.453,0,,,,,,0.155447049,-0.245898438,1,0,0,8.4533,Diorite_rect,13,0,13,0,1,
66438bd9fb5f98e37d2c8539,TCN,2024-06-25_13h25.23.032,LearnStrategy,2023.2.3,MacIntel,59.84082341,3,2,15,,,,,,,,6,11,,,,,,,,,,,6,4.509,1,,,,,,-0.073420139,-0.404522569,1,0,0,4.5085,Pegmatite_rect,14,0,14,0,1,
66438bd9fb5f98e37d2c8539,TCN,2024-06-25_13h25.23.032,LearnStrategy,2023.2.3,MacIntel,59.84082341,3,2,16,,,,,,,,8,14,,,,,,,,,,,8,1.846,1,,,,,,0.325078125,-0.379149306,1,0,0,1.8458,Pumice_rect,15,0,15,0,1,
66438bd9fb5f98e37d2c8539,TCN,2024-06-25_13h25.23.032,LearnStrategy,2023.2.3,MacIntel,59.84082341,4,1,1,0.095447049,-0.004657118,1,0,0,2.151,rock_grid_rect_2,7,04,-1,-1,2.151,-0.365664062,-0.405351562,1,0,0,8.6593,Obsidian_rect,5,8.659,0,0,0,0,0,1,,,,,,,,,,,,,
66438bd9fb5f98e37d2c8539,TCN,2024-06-25_13h25.23.032,LearnStrategy,2023.2.3,MacIntel,59.84082341,4,1,2,0.071966146,-0.019561632,1,0,0,1.3144,rock_grid_rect_2,2,06,-1,-1,1.314,-0.143428819,-0.253715278,1,0,0,1.2454,Basalt_rect,2,1.245,1,1,0,1,0,1,,,,,,,,,,,,,
66438bd9fb5f98e37d2c8539,TCN,2024-06-25_13h25.23.032,LearnStrategy,2023.2.3,MacIntel,59.84082341,4,1,3,0.094418403,-0.006380208,1,0,0,0.8965,rock_grid_rect_2,6,13,-1,-1,0.896,0.135824653,-0.264561632,1,0,0,17.5625,Diorite_rect,3,17.563,0,2,0,2,0,1,,,,,,,,,,,,,
66438bd9fb5f98e37d2c8539,TCN,2024-06-25_13h25.23.032,LearnStrategy,2023.2.3,MacIntel,59.84082341,4,1,4,-0.019895833,0.017899306,1,0,0,1.2982,rock_grid_rect_2,8,13,-1,-1,1.298,0.377599826,-0.393220486,1,0,0,1.4517,Pumice_rect,8,1.452,1,3,0,3,0,1,,,,,,,,,,,,,
66438bd9fb5f98e37d2c8539,TCN,2024-06-25_13h25.23.032,LearnStrategy,2023.2.3,MacIntel,59.84082341,4,1,5,0.116063368,-0.013250868,1,0,0,0.9304,rock_grid_rect_2,3,07,-1,-1,0.93,0.119826389,-0.233029514,1,0,0,1.8949,Diorite_rect,3,1.895,1,4,0,4,0,1,,,,,,,,,,,,,
66438bd9fb5f98e37d2c8539,TCN,2024-06-25_13h25.23.032,LearnStrategy,2023.2.3,MacIntel,59.84082341,4,1,6,0.023359375,0.008563368,1,0,0,3.6241,rock_grid_rect_2,5,08,-1,-1,3.624,-0.411957465,-0.421914063,1,0,0,1.4423,Obsidian_rect,5,1.442,1,5,0,5,0,1,,,,,,,,,,,,,
66438bd9fb5f98e37d2c8539,TCN,2024-06-25_13h25.23.032,LearnStrategy,2023.2.3,MacIntel,59.84082341,4,1,7,0.085043403,-0.002382812,1,0,0,1.4356,rock_grid_rect_2,7,14,-1,-1,1.436,0.100863715,-0.407643229,1,0,0,4.2301,Peridotite_rect,7,4.23,1,6,0,6,0,1,,,,,,,,,,,,,
66438bd9fb5f98e37d2c8539,TCN,2024-06-25_13h25.23.032,LearnStrategy,2023.2.3,MacIntel,59.84082341,4,1,8,0.11483941,0.004036458,1,0,0,0.9657,rock_grid_rect_2,6,15,-1,-1,0.966,-0.123624132,-0.392109375,1,0,0,20.6762,Pegmatite_rect,6,20.676,1,7,0,7,0,1,,,,,,,,,,,,,
66438bd9fb5f98e37d2c8539,TCN,2024-06-25_13h25.23.032,LearnStrategy,2023.2.3,MacIntel,59.84082341,4,1,9,0.088953993,0.004383681,1,0,0,1.0462,rock_grid_rect_2,2,04,-1,-1,1.046,-0.152092014,-0.231575521,1,0,0,1.5121,Basalt_rect,2,1.512,1,8,0,8,0,1,,,,,,,,,,,,,
66438bd9fb5f98e37d2c8539,TCN,2024-06-25_13h25.23.032,LearnStrategy,2023.2.3,MacIntel,59.84082341,4,1,10,0.038823785,0.005125868,1,0,0,0.7801,rock_grid_rect_2,1,11,-1,-1,0.78,-0.392595486,-0.233103299,1,0,0,4.1004,Andesite_rect,1,4.1,1,9,0,9,0,1,,,,,,,,,,,,,
66438bd9fb5f98e37d2c8539,TCN,2024-06-25_13h25.23.032,LearnStrategy,2023.2.3,MacIntel,59.84082341,4,1,11,0.148567708,-0.010095486,1,0,0,0.8615,rock_grid_rect_2,5,07,-1,-1,0.861,-0.346770833,-0.413159722,1,0,0,1.7418,Obsidian_rect,5,1.742,1,10,0,10,0,1,,,,,,,,,,,,,
66438bd9fb5f98e37d2c8539,TCN,2024-06-25_13h25.23.032,LearnStrategy,2023.2.3,MacIntel,59.84082341,4,1,12,0.121184896,-0.019513889,1,0,0,0.9329,rock_grid_rect_2,8,03,-1,-1,0.933,0.387296007,-0.415247396,1,0,0,1.699,Pumice_rect,8,1.699,1,11,0,11,0,1,,,,,,,,,,,,,
66438bd9fb5f98e37d2c8539,TCN,2024-06-25_13h25.23.032,LearnStrategy,2023.2.3,MacIntel,59.84082341,4,1,13,0.111124132,0.00172309,1,0,0,0.8339,rock_grid_rect_2,3,06,-1,-1,0.834,0.142608507,-0.241388889,1,0,0,2.0484,Diorite_rect,3,2.048,1,12,0,12,0,1,,,,,,,,,,,,,
66438bd9fb5f98e37d2c8539,TCN,2024-06-25_13h25.23.032,LearnStrategy,2023.2.3,MacIntel,59.84082341,4,1,14,0.107196181,0.015273438,1,0,0,1.0665,rock_grid_rect_2,4,09,-1,-1,1.067,0.387595486,-0.248984375,1,0,0,6.2616,Gabbro_rect,4,6.262,1,13,0,13,0,1,,,,,,,,,,,,,
66438bd9fb5f98e37d2c8539,TCN,2024-06-25_13h25.23.032,LearnStrategy,2023.2.3,MacIntel,59.84082341,4,1,15,0.120247396,-0.007469618,1,0,0,0.964,rock_grid_rect_2,1,06,-1,-1,0.964,-0.346631944,-0.245885417,1,0,0,6.1721,Andesite_rect,1,6.172,1,14,0,14,0,1,,,,,,,,,,,,,
66438bd9fb5f98e37d2c8539,TCN,2024-06-25_13h25.23.032,LearnStrategy,2023.2.3,MacIntel,59.84082341,4,1,16,0.103506944,-0.007178819,1,0,0,0.9627,rock_grid_rect_2,4,15,-1,-1,0.963,0.435164931,-0.267634549,1,0,0,5.3642,Gabbro_rect,4,5.364,1,15,0,15,0,1,,,,,,,,,,,,,
66438bd9fb5f98e37d2c8539,TCN,2024-06-25_13h25.23.032,LearnStrategy,2023.2.3,MacIntel,59.84082341,4,2,1,,,,,,,,8,02,,,,,,,,,,,8,1.206,1,,,,,,0.401744792,-0.396614583,1,0,0,1.2061,Pumice_rect,0,0,0,0,1,
66438bd9fb5f98e37d2c8539,TCN,2024-06-25_13h25.23.032,LearnStrategy,2023.2.3,MacIntel,59.84082341,4,2,2,,,,,,,,4,14,,,,,,,,,,,4,6.412,1,,,,,,0.38328559,-0.253958333,1,0,0,6.4118,Gabbro_rect,1,0,1,0,1,
66438bd9fb5f98e37d2c8539,TCN,2024-06-25_13h25.23.032,LearnStrategy,2023.2.3,MacIntel,59.84082341,4,2,3,,,,,,,,6,07,,,,,,,,,,,6,12.405,1,,,,,,-0.080555556,-0.415264757,1,0,0,12.4047,Pegmatite_rect,2,0,2,0,1,
66438bd9fb5f98e37d2c8539,TCN,2024-06-25_13h25.23.032,LearnStrategy,2023.2.3,MacIntel,59.84082341,4,2,4,,,,,,,,2,10,,,,,,,,,,,2,11.783,1,,,,,,-0.097000868,-0.254631076,1,0,0,11.7829,Basalt_rect,3,0,3,0,1,
66438bd9fb5f98e37d2c8539,TCN,2024-06-25_13h25.23.032,LearnStrategy,2023.2.3,MacIntel,59.84082341,4,2,5,,,,,,,,1,10,,,,,,,,,,,1,3.917,1,,,,,,-0.373611111,-0.254943576,1,0,0,3.9169,Andesite_rect,4,0,4,0,1,
66438bd9fb5f98e37d2c8539,TCN,2024-06-25_13h25.23.032,LearnStrategy,2023.2.3,MacIntel,59.84082341,4,2,6,,,,,,,,5,06,,,,,,,,,,,5,1.057,1,,,,,,-0.327261285,-0.403268229,1,0,0,1.0572,Obsidian_rect,5,0,5,0,1,
66438bd9fb5f98e37d2c8539,TCN,2024-06-25_13h25.23.032,LearnStrategy,2023.2.3,MacIntel,59.84082341,4,2,7,,,,,,,,4,16,,,,,,,,,,,2,13.317,0,,,,,,-0.121940104,-0.269739583,1,0,0,13.3173,Basalt_rect,6,0,6,0,1,
66438bd9fb5f98e37d2c8539,TCN,2024-06-25_13h25.23.032,LearnStrategy,2023.2.3,MacIntel,59.84082341,4,2,8,,,,,,,,5,12,,,,,,,,,,,5,1.137,1,,,,,,-0.340125868,-0.383016493,1,0,0,1.1365,Obsidian_rect,7,0,7,0,1,
66438bd9fb5f98e37d2c8539,TCN,2024-06-25_13h25.23.032,LearnStrategy,2023.2.3,MacIntel,59.84082341,4,2,9,,,,,,,,1,05,,,,,,,,,,,1,3.853,1,,,,,,-0.344253472,-0.245529514,1,0,0,3.8529,Andesite_rect,8,0,8,0,1,
66438bd9fb5f98e37d2c8539,TCN,2024-06-25_13h25.23.032,LearnStrategy,2023.2.3,MacIntel,59.84082341,4,2,10,,,,,,,,3,14,,,,,,,,,,,3,1.73,1,,,,,,0.188229167,-0.250329861,1,0,0,1.7305,Diorite_rect,9,0,9,0,1,
66438bd9fb5f98e37d2c8539,TCN,2024-06-25_13h25.23.032,LearnStrategy,2023.2.3,MacIntel,59.84082341,4,2,11,,,,,,,,7,08,,,,,,,,,,,3,2.121,0,,,,,,0.161032986,-0.256128472,1,0,0,2.1206,Diorite_rect,10,0,10,0,1,
66438bd9fb5f98e37d2c8539,TCN,2024-06-25_13h25.23.032,LearnStrategy,2023.2.3,MacIntel,59.84082341,4,2,12,,,,,,,,2,08,,,,,,,,,,,2,1.144,1,,,,,,-0.053524306,-0.254913194,1,0,0,1.1443,Basalt_rect,11,0,11,0,1,
66438bd9fb5f98e37d2c8539,TCN,2024-06-25_13h25.23.032,LearnStrategy,2023.2.3,MacIntel,59.84082341,4,2,13,,,,,,,,3,02,,,,,,,,,,,3,19.321,1,,,,,,0.096453993,-0.267682292,1,0,0,19.3208,Diorite_rect,12,0,12,0,1,
66438bd9fb5f98e37d2c8539,TCN,2024-06-25_13h25.23.032,LearnStrategy,2023.2.3,MacIntel,59.84082341,4,2,14,,,,,,,,6,10,,,,,,,,,,,6,8.661,1,,,,,,-0.07469184,-0.415559896,1,0,0,8.6611,Pegmatite_rect,13,0,13,0,1,
66438bd9fb5f98e37d2c8539,TCN,2024-06-25_13h25.23.032,LearnStrategy,2023.2.3,MacIntel,59.84082341,4,2,15,,,,,,,,7,12,,,,,,,,,,,3,19.566,0,,,,,,0.110512153,-0.247717014,1,0,0,19.5664,Diorite_rect,14,0,14,0,1,
66438bd9fb5f98e37d2c8539,TCN,2024-06-25_13h25.23.032,LearnStrategy,2023.2.3,MacIntel,59.84082341,4,2,16,,,,,,,,8,15,,,,,,,,,,,8,1.146,1,,,,,,0.406102431,-0.409583333,1,0,0,1.1461,Pumice_rect,15,0,15,0,1,
66438bd9fb5f98e37d2c8539,TCN,2024-06-25_13h25.23.032,LearnStrategy,2023.2.3,MacIntel,59.84082341,5,1,1,0.107703993,-0.0053125,1,0,0,1.098,rock_grid_rect_2,1,16,-1,-1,1.098,-0.384071181,-0.231006944,1,0,0,5.3276,Andesite_rect,1,5.328,1,0,0,0,0,1,,,,,,,,,,,,,
66438bd9fb5f98e37d2c8539,TCN,2024-06-25_13h25.23.032,LearnStrategy,2023.2.3,MacIntel,59.84082341,5,1,2,0.093025174,0.017304687,1,0,0,0.7962,rock_grid_rect_2,5,02,-1,-1,0.796,-0.364283854,-0.410230035,1,0,0,1.0605,Obsidian_rect,5,1.061,1,1,0,1,0,1,,,,,,,,,,,,,
66438bd9fb5f98e37d2c8539,TCN,2024-06-25_13h25.23.032,LearnStrategy,2023.2.3,MacIntel,59.84082341,5,1,3,0.001171875,-0.014709201,1,0,0,0.7847,rock_grid_rect_2,3,16,-1,-1,0.785,0.104314236,-0.236536458,1,0,0,1.5787,Diorite_rect,3,1.579,1,2,0,2,0,1,,,,,,,,,,,,,
66438bd9fb5f98e37d2c8539,TCN,2024-06-25_13h25.23.032,LearnStrategy,2023.2.3,MacIntel,59.84082341,5,1,4,0.096271701,-0.013033854,1,0,0,0.8483,rock_grid_rect_2,6,06,-1,-1,0.848,-0.113511285,-0.397916667,1,0,0,1.3483,Pegmatite_rect,6,1.348,1,3,0,3,0,1,,,,,,,,,,,,,
66438bd9fb5f98e37d2c8539,TCN,2024-06-25_13h25.23.032,LearnStrategy,2023.2.3,MacIntel,59.84082341,5,1,5,0.036006944,0.004639757,1,0,0,1.9196,rock_grid_rect_2,6,03,-1,-1,1.92,0.102825521,-0.420898438,1,0,0,3.8253,Peridotite_rect,7,3.825,0,4,0,4,0,1,,,,,,,,,,,,,
66438bd9fb5f98e37d2c8539,TCN,2024-06-25_13h25.23.032,LearnStrategy,2023.2.3,MacIntel,59.84082341,5,1,6,0.109869792,-0.012096354,1,0,0,1.1485,rock_grid_rect_2,4,10,-1,-1,1.149,-0.054210069,-0.261727431,1,0,0,3.0569,Basalt_rect,2,3.057,0,5,0,5,0,1,,,,,,,,,,,,,
66438bd9fb5f98e37d2c8539,TCN,2024-06-25_13h25.23.032,LearnStrategy,2023.2.3,MacIntel,59.84082341,5,1,7,0.140394965,0.007013889,1,0,0,3.5378,rock_grid_rect_2,1,07,-1,-1,3.538,-0.316488715,-0.266280382,1,0,0,1.5614,Andesite_rect,1,1.561,1,6,0,6,0,1,,,,,,,,,,,,,
66438bd9fb5f98e37d2c8539,TCN,2024-06-25_13h25.23.032,LearnStrategy,2023.2.3,MacIntel,59.84082341,5,1,8,0.047799479,-0.015855035,1,0,0,0.9315,rock_grid_rect_2,8,10,-1,-1,0.931,0.370815972,-0.417252604,1,0,0,2.6246,Pumice_rect,8,2.625,1,7,0,7,0,1,,,,,,,,,,,,,
66438bd9fb5f98e37d2c8539,TCN,2024-06-25_13h25.23.032,LearnStrategy,2023.2.3,MacIntel,59.84082341,5,1,9,0.136835938,-0.014500868,1,0,0,0.7795,rock_grid_rect_2,4,01,-1,-1,0.78,0.313016493,-0.238810764,1,0,0,2.2792,Gabbro_rect,4,2.279,1,8,0,8,0,1,,,,,,,,,,,,,
66438bd9fb5f98e37d2c8539,TCN,2024-06-25_13h25.23.032,LearnStrategy,2023.2.3,MacIntel,59.84082341,5,1,10,0.152521701,-0.012178819,1,0,0,1.1146,rock_grid_rect_2,8,06,-1,-1,1.115,0.388463542,-0.395638021,1,0,0,0.938,Pumice_rect,8,0.938,1,9,0,9,0,1,,,,,,,,,,,,,
66438bd9fb5f98e37d2c8539,TCN,2024-06-25_13h25.23.032,LearnStrategy,2023.2.3,MacIntel,59.84082341,5,1,11,0.060907118,0.004084201,1,0,0,2.3704,rock_grid_rect_2,2,12,-1,-1,2.37,-0.061901042,-0.23406684,1,0,0,3.0625,Basalt_rect,2,3.063,1,10,0,10,0,1,,,,,,,,,,,,,
66438bd9fb5f98e37d2c8539,TCN,2024-06-25_13h25.23.032,LearnStrategy,2023.2.3,MacIntel,59.84082341,5,1,12,0.041215278,-0.001046007,1,0,0,0.7484,rock_grid_rect_2,7,10,-1,-1,0.748,0.17140191,-0.239353299,1,0,0,1.222,Diorite_rect,3,1.222,0,11,0,11,0,1,,,,,,,,,,,,,
66438bd9fb5f98e37d2c8539,TCN,2024-06-25_13h25.23.032,LearnStrategy,2023.2.3,MacIntel,59.84082341,5,1,13,0.136809896,0.007690972,1,0,0,1.0003,rock_grid_rect_2,2,16,-1,-1,1,-0.130403646,-0.269609375,1,0,0,1.074,Basalt_rect,2,1.074,1,12,0,12,0,1,,,,,,,,,,,,,
66438bd9fb5f98e37d2c8539,TCN,2024-06-25_13h25.23.032,LearnStrategy,2023.2.3,MacIntel,59.84082341,5,1,14,0.085755208,0.003025174,1,0,0,0.9164,rock_grid_rect_2,7,13,-1,-1,0.916,0.100885417,-0.403528646,1,0,0,2.1109,Peridotite_rect,7,2.111,1,13,0,13,0,1,,,,,,,,,,,,,
66438bd9fb5f98e37d2c8539,TCN,2024-06-25_13h25.23.032,LearnStrategy,2023.2.3,MacIntel,59.84082341,5,1,15,0.132942708,-0.014539931,1,0,0,0.7995,rock_grid_rect_2,3,12,-1,-1,0.8,0.146267361,-0.228463542,1,0,0,1.2297,Diorite_rect,3,1.23,1,14,0,14,0,1,,,,,,,,,,,,,
66438bd9fb5f98e37d2c8539,TCN,2024-06-25_13h25.23.032,LearnStrategy,2023.2.3,MacIntel,59.84082341,5,1,16,0.099717882,-0.003524306,1,0,0,0.7493,rock_grid_rect_2,5,05,-1,-1,0.749,-0.350694444,-0.404852431,1,0,0,5.62,Obsidian_rect,5,5.62,1,15,0,15,0,1,,,,,,,,,,,,,
66438bd9fb5f98e37d2c8539,TCN,2024-06-25_13h25.23.032,LearnStrategy,2023.2.3,MacIntel,59.84082341,5,2,1,,,,,,,,3,13,,,,,,,,,,,7,6.642,0,,,,,,0.062139757,-0.402421875,1,0,0,6.6419,Peridotite_rect,0,0,0,0,1,
66438bd9fb5f98e37d2c8539,TCN,2024-06-25_13h25.23.032,LearnStrategy,2023.2.3,MacIntel,59.84082341,5,2,2,,,,,,,,4,12,,,,,,,,,,,2,3.277,0,,,,,,-0.138719618,-0.253446181,1,0,0,3.2767,Basalt_rect,1,0,1,0,1,
66438bd9fb5f98e37d2c8539,TCN,2024-06-25_13h25.23.032,LearnStrategy,2023.2.3,MacIntel,59.84082341,5,2,3,,,,,,,,8,04,,,,,,,,,,,8,1.277,1,,,,,,0.371536458,-0.405013021,1,0,0,1.2773,Pumice_rect,2,0,2,0,1,
66438bd9fb5f98e37d2c8539,TCN,2024-06-25_13h25.23.032,LearnStrategy,2023.2.3,MacIntel,59.84082341,5,2,4,,,,,,,,7,16,,,,,,,,,,,4,10.283,0,,,,,,0.440590278,-0.232934028,1,0,0,10.2825,Gabbro_rect,3,0,3,0,1,
66438bd9fb5f98e37d2c8539,TCN,2024-06-25_13h25.23.032,LearnStrategy,2023.2.3,MacIntel,59.84082341,5,2,5,,,,,,,,8,16,,,,,,,,,,,8,1.2,1,,,,,,0.369891493,-0.410407986,1,0,0,1.1996,Pumice_rect,4,0,4,0,1,
66438bd9fb5f98e37d2c8539,TCN,2024-06-25_13h25.23.032,LearnStrategy,2023.2.3,MacIntel,59.84082341,5,2,6,,,,,,,,4,08,,,,,,,,,,,4,5.046,1,,,,,,0.368606771,-0.24937066,1,0,0,5.0462,Gabbro_rect,5,0,5,0,1,
66438bd9fb5f98e37d2c8539,TCN,2024-06-25_13h25.23.032,LearnStrategy,2023.2.3,MacIntel,59.84082341,5,2,7,,,,,,,,5,10,,,,,,,,,,,5,1.368,1,,,,,,-0.329366319,-0.407430556,1,0,0,1.3677,Obsidian_rect,6,0,6,0,1,
66438bd9fb5f98e37d2c8539,TCN,2024-06-25_13h25.23.032,LearnStrategy,2023.2.3,MacIntel,59.84082341,5,2,8,,,,,,,,1,09,,,,,,,,,,,1,2.446,1,,,,,,-0.344296875,-0.235685764,1,0,0,2.4462,Andesite_rect,7,0,7,0,1,
66438bd9fb5f98e37d2c8539,TCN,2024-06-25_13h25.23.032,LearnStrategy,2023.2.3,MacIntel,59.84082341,5,2,9,,,,,,,,2,14,,,,,,,,,,,8,4.214,0,,,,,,0.372868924,-0.391362847,1,0,0,4.2143,Pumice_rect,8,0,8,0,1,
66438bd9fb5f98e37d2c8539,TCN,2024-06-25_13h25.23.032,LearnStrategy,2023.2.3,MacIntel,59.84082341,5,2,10,,,,,,,,3,08,,,,,,,,,,,3,7.967,1,,,,,,0.183532986,-0.256523438,1,0,0,7.9675,Diorite_rect,9,0,9,0,1,
66438bd9fb5f98e37d2c8539,TCN,2024-06-25_13h25.23.032,LearnStrategy,2023.2.3,MacIntel,59.84082341,5,2,11,,,,,,,,1,03,,,,,,,,,,,1,1.359,1,,,,,,-0.328836806,-0.257916667,1,0,0,1.3587,Andesite_rect,10,0,10,0,1,
66438bd9fb5f98e37d2c8539,TCN,2024-06-25_13h25.23.032,LearnStrategy,2023.2.3,MacIntel,59.84082341,5,2,12,,,,,,,,2,09,,,,,,,,,,,2,1.337,1,,,,,,-0.088337674,-0.2371875,1,0,0,1.3368,Basalt_rect,11,0,11,0,1,
66438bd9fb5f98e37d2c8539,TCN,2024-06-25_13h25.23.032,LearnStrategy,2023.2.3,MacIntel,59.84082341,5,2,13,,,,,,,,6,12,,,,,,,,,,,7,8.843,0,,,,,,0.092916667,-0.403780382,1,0,0,8.8435,Peridotite_rect,12,0,12,0,1,
66438bd9fb5f98e37d2c8539,TCN,2024-06-25_13h25.23.032,LearnStrategy,2023.2.3,MacIntel,59.84082341,5,2,14,,,,,,,,6,11,,,,,,,,,,,6,1.418,1,,,,,,-0.081124132,-0.378424479,1,0,0,1.418,Pegmatite_rect,13,0,13,0,1,
66438bd9fb5f98e37d2c8539,TCN,2024-06-25_13h25.23.032,LearnStrategy,2023.2.3,MacIntel,59.84082341,5,2,15,,,,,,,,7,15,,,,,,,,,,,7,2.053,1,,,,,,0.166284722,-0.387491319,1,0,0,2.053,Peridotite_rect,14,0,14,0,1,
66438bd9fb5f98e37d2c8539,TCN,2024-06-25_13h25.23.032,LearnStrategy,2023.2.3,MacIntel,59.84082341,5,2,16,,,,,,,,5,14,,,,,,,,,,,5,1.26,1,,,,,,-0.341067708,-0.397942708,1,0,0,1.2604,Obsidian_rect,15,0,15,0,1,
66438bd9fb5f98e37d2c8539,TCN,2024-06-25_13h25.23.032,LearnStrategy,2023.2.3,MacIntel,59.84082341,6,1,1,0.117825521,-0.011206597,1,0,0,2.0045,rock_grid_rect_2,4,13,-1,-1,2.005,0.113858507,-0.4040625,1,0,0,10.3405,Peridotite_rect,7,10.341,0,0,0,0,0,1,,,,,,,,,,,,,
66438bd9fb5f98e37d2c8539,TCN,2024-06-25_13h25.23.032,LearnStrategy,2023.2.3,MacIntel,59.84082341,6,1,2,0.120972222,-0.011571181,1,0,0,1.2327,rock_grid_rect_2,3,15,-1,-1,1.233,0.068971354,-0.26406684,1,0,0,6.2384,Diorite_rect,3,6.238,1,1,0,1,0,1,,,,,,,,,,,,,
66438bd9fb5f98e37d2c8539,TCN,2024-06-25_13h25.23.032,LearnStrategy,2023.2.3,MacIntel,59.84082341,6,1,3,0.111948785,-0.024969618,1,0,0,1.1651,rock_grid_rect_2,7,06,-1,-1,1.165,0.043836806,-0.392161458,1,0,0,1.3537,Peridotite_rect,7,1.354,1,2,0,2,0,1,,,,,,,,,,,,,
66438bd9fb5f98e37d2c8539,TCN,2024-06-25_13h25.23.032,LearnStrategy,2023.2.3,MacIntel,59.84082341,6,1,4,0.042443576,0.001380208,1,0,0,0.8505,rock_grid_rect_2,3,09,-1,-1,0.851,0.089092882,-0.261740451,1,0,0,1.0867,Diorite_rect,3,1.087,1,3,0,3,0,1,,,,,,,,,,,,,
66438bd9fb5f98e37d2c8539,TCN,2024-06-25_13h25.23.032,LearnStrategy,2023.2.3,MacIntel,59.84082341,6,1,5,0.101497396,-0.012013889,1,0,0,0.9984,rock_grid_rect_2,1,01,-1,-1,0.998,-0.389027778,-0.262074653,1,0,0,5.778,Andesite_rect,1,5.778,1,4,0,4,0,1,,,,,,,,,,,,,
66438bd9fb5f98e37d2c8539,TCN,2024-06-25_13h25.23.032,LearnStrategy,2023.2.3,MacIntel,59.84082341,6,1,6,0.110894097,-0.00859375,1,0,0,1.1656,rock_grid_rect_2,8,09,-1,-1,1.166,0.367243924,-0.401180556,1,0,0,1.1198,Pumice_rect,8,1.12,1,5,0,5,0,1,,,,,,,,,,,,,
66438bd9fb5f98e37d2c8539,TCN,2024-06-25_13h25.23.032,LearnStrategy,2023.2.3,MacIntel,59.84082341,6,1,7,0.055598958,-0.00047309,1,0,0,0.7976,rock_grid_rect_2,1,04,-1,-1,0.798,-0.366085069,-0.254804688,1,0,0,1.3075,Andesite_rect,1,1.308,1,6,0,6,0,1,,,,,,,,,,,,,
66438bd9fb5f98e37d2c8539,TCN,2024-06-25_13h25.23.032,LearnStrategy,2023.2.3,MacIntel,59.84082341,6,1,8,0.009587674,0.007790799,1,0,0,0.9676,rock_grid_rect_2,6,09,-1,-1,0.968,-0.093559028,-0.388242188,1,0,0,1.166,Pegmatite_rect,6,1.166,1,7,0,7,0,1,,,,,,,,,,,,,
66438bd9fb5f98e37d2c8539,TCN,2024-06-25_13h25.23.032,LearnStrategy,2023.2.3,MacIntel,59.84082341,6,1,9,0.066510417,0.002131076,1,0,0,0.8481,rock_grid_rect_2,6,08,-1,-1,0.848,-0.115260417,-0.395525174,1,0,0,1.2485,Pegmatite_rect,6,1.248,1,8,0,8,0,1,,,,,,,,,,,,,
66438bd9fb5f98e37d2c8539,TCN,2024-06-25_13h25.23.032,LearnStrategy,2023.2.3,MacIntel,59.84082341,6,1,10,0.076527778,0.00766059,1,0,0,0.7127,rock_grid_rect_2,2,02,-1,-1,0.713,-0.116940104,-0.270881076,1,0,0,2.1623,Basalt_rect,2,2.162,1,9,0,9,0,1,,,,,,,,,,,,,
66438bd9fb5f98e37d2c8539,TCN,2024-06-25_13h25.23.032,LearnStrategy,2023.2.3,MacIntel,59.84082341,6,1,11,0.004444444,0.015898438,1,0,0,0.6485,rock_grid_rect_2,8,05,-1,-1,0.649,0.365342882,-0.408407118,1,0,0,1.085,Pumice_rect,8,1.085,1,10,0,10,0,1,,,,,,,,,,,,,
66438bd9fb5f98e37d2c8539,TCN,2024-06-25_13h25.23.032,LearnStrategy,2023.2.3,MacIntel,59.84082341,6,1,12,0.013159722,-0.011992187,1,0,0,0.6327,rock_grid_rect_2,2,11,-1,-1,0.633,-0.141940104,-0.263155382,1,0,0,1.0225,Basalt_rect,2,1.023,1,11,0,11,0,1,,,,,,,,,,,,,
66438bd9fb5f98e37d2c8539,TCN,2024-06-25_13h25.23.032,LearnStrategy,2023.2.3,MacIntel,59.84082341,6,1,13,0.07421875,-0.008042535,1,0,0,0.8828,rock_grid_rect_2,7,07,-1,-1,0.883,0.118776042,-0.242743056,1,0,0,2.2892,Diorite_rect,3,2.289,0,12,0,12,0,1,,,,,,,,,,,,,
66438bd9fb5f98e37d2c8539,TCN,2024-06-25_13h25.23.032,LearnStrategy,2023.2.3,MacIntel,59.84082341,6,1,14,0.067682292,-0.017977431,1,0,0,1.0169,rock_grid_rect_2,4,03,-1,-1,1.017,0.140355903,-0.264366319,1,0,0,1.1491,Diorite_rect,3,1.149,0,13,0,13,0,1,,,,,,,,,,,,,
66438bd9fb5f98e37d2c8539,TCN,2024-06-25_13h25.23.032,LearnStrategy,2023.2.3,MacIntel,59.84082341,6,1,15,0.129249132,-0.007486979,1,0,0,0.8495,rock_grid_rect_2,5,11,-1,-1,0.849,-0.398723958,-0.404314236,1,0,0,1.1222,Obsidian_rect,5,1.122,1,14,0,14,0,1,,,,,,,,,,,,,
66438bd9fb5f98e37d2c8539,TCN,2024-06-25_13h25.23.032,LearnStrategy,2023.2.3,MacIntel,59.84082341,6,1,16,0.136792535,0.012539062,1,0,0,0.716,rock_grid_rect_2,5,09,-1,-1,0.716,-0.373671875,-0.408003472,1,0,0,0.8909,Obsidian_rect,5,0.891,1,15,0,15,0,1,,,,,,,,,,,,,
66438bd9fb5f98e37d2c8539,TCN,2024-06-25_13h25.23.032,LearnStrategy,2023.2.3,MacIntel,59.84082341,6,2,1,,,,,,,,5,04,,,,,,,,,,,5,1.126,1,,,,,,-0.353346354,-0.421679688,1,0,0,1.1264,Obsidian_rect,0,0,0,0,1,
66438bd9fb5f98e37d2c8539,TCN,2024-06-25_13h25.23.032,LearnStrategy,2023.2.3,MacIntel,59.84082341,6,2,2,,,,,,,,8,08,,,,,,,,,,,8,2.444,1,,,,,,0.384548611,-0.384210069,1,0,0,2.4441,Pumice_rect,1,0,1,0,1,
66438bd9fb5f98e37d2c8539,TCN,2024-06-25_13h25.23.032,LearnStrategy,2023.2.3,MacIntel,59.84082341,6,2,3,,,,,,,,8,14,,,,,,,,,,,8,1.062,1,,,,,,0.386931424,-0.421597222,1,0,0,1.062,Pumice_rect,2,0,2,0,1,
66438bd9fb5f98e37d2c8539,TCN,2024-06-25_13h25.23.032,LearnStrategy,2023.2.3,MacIntel,59.84082341,6,2,4,,,,,,,,7,05,,,,,,,,,,,3,23.763,0,,,,,,0.154509549,-0.255342882,1,0,0,23.7631,Diorite_rect,3,0,3,0,1,
66438bd9fb5f98e37d2c8539,TCN,2024-06-25_13h25.23.032,LearnStrategy,2023.2.3,MacIntel,59.84082341,6,2,5,,,,,,,,1,14,,,,,,,,,,,1,1.889,1,,,,,,-0.353368056,-0.259348958,1,0,0,1.8889,Andesite_rect,4,0,4,0,1,
66438bd9fb5f98e37d2c8539,TCN,2024-06-25_13h25.23.032,LearnStrategy,2023.2.3,MacIntel,59.84082341,6,2,6,,,,,,,,7,02,,,,,,,,,,,7,12.302,1,,,,,,0.121124132,-0.399262153,1,0,0,12.3017,Peridotite_rect,5,0,5,0,1,
66438bd9fb5f98e37d2c8539,TCN,2024-06-25_13h25.23.032,LearnStrategy,2023.2.3,MacIntel,59.84082341,6,2,7,,,,,,,,4,11,,,,,,,,,,,2,3.658,0,,,,,,-0.121588542,-0.257265625,1,0,0,3.658,Basalt_rect,6,0,6,0,1,
66438bd9fb5f98e37d2c8539,TCN,2024-06-25_13h25.23.032,LearnStrategy,2023.2.3,MacIntel,59.84082341,6,2,8,,,,,,,,3,10,,,,,,,,,,,3,1.336,1,,,,,,0.107009549,-0.261727431,1,0,0,1.3356,Diorite_rect,7,0,7,0,1,
66438bd9fb5f98e37d2c8539,TCN,2024-06-25_13h25.23.032,LearnStrategy,2023.2.3,MacIntel,59.84082341,6,2,9,,,,,,,,4,05,,,,,,,,,,,4,5.503,1,,,,,,0.422864583,-0.25141059,1,0,0,5.5031,Gabbro_rect,8,0,8,0,1,
66438bd9fb5f98e37d2c8539,TCN,2024-06-25_13h25.23.032,LearnStrategy,2023.2.3,MacIntel,59.84082341,6,2,10,,,,,,,,6,05,,,,,,,,,,,6,4.464,1,,,,,,-0.056024306,-0.38859809,1,0,0,4.4643,Pegmatite_rect,9,0,9,0,1,
66438bd9fb5f98e37d2c8539,TCN,2024-06-25_13h25.23.032,LearnStrategy,2023.2.3,MacIntel,59.84082341,6,2,11,,,,,,,,5,16,,,,,,,,,,,5,1.093,1,,,,,,-0.376605903,-0.406046007,1,0,0,1.0927,Obsidian_rect,10,0,10,0,1,
66438bd9fb5f98e37d2c8539,TCN,2024-06-25_13h25.23.032,LearnStrategy,2023.2.3,MacIntel,59.84082341,6,2,12,,,,,,,,2,01,,,,,,,,,,,2,1.009,1,,,,,,-0.090707465,-0.243515625,1,0,0,1.0087,Basalt_rect,11,0,11,0,1,
66438bd9fb5f98e37d2c8539,TCN,2024-06-25_13h25.23.032,LearnStrategy,2023.2.3,MacIntel,59.84082341,6,2,13,,,,,,,,2,05,,,,,,,,,,,4,10.94,0,,,,,,0.423880208,-0.257313368,1,0,0,10.9398,Gabbro_rect,12,0,12,0,1,
66438bd9fb5f98e37d2c8539,TCN,2024-06-25_13h25.23.032,LearnStrategy,2023.2.3,MacIntel,59.84082341,6,2,14,,,,,,,,6,16,,,,,,,,,,,6,1.291,1,,,,,,-0.127317708,-0.402556424,1,0,0,1.2909,Pegmatite_rect,13,0,13,0,1,
66438bd9fb5f98e37d2c8539,TCN,2024-06-25_13h25.23.032,LearnStrategy,2023.2.3,MacIntel,59.84082341,6,2,15,,,,,,,,1,02,,,,,,,,,,,1,1.601,1,,,,,,-0.349427083,-0.229730903,1,0,0,1.601,Andesite_rect,14,0,14,0,1,
66438bd9fb5f98e37d2c8539,TCN,2024-06-25_13h25.23.032,LearnStrategy,2023.2.3,MacIntel,59.84082341,6,2,16,,,,,,,,3,11,,,,,,,,,,,3,3.255,1,,,,,,0.148211806,-0.263815104,1,0,0,3.2554,Diorite_rect,15,0,15,0,1,
66438bd9fb5f98e37d2c8539,TCN,2024-06-25_13h25.23.032,LearnStrategy,2023.2.3,MacIntel,59.84082341,7,1,1,0.05219184,0.017265625,1,0,0,1.0336,rock_grid_rect_2,6,09,-1,-1,1.034,-0.134210069,-0.39203559,1,0,0,1.1393,Pegmatite_rect,6,1.139,1,0,0,0,0,1,,,,,,,,,,,,,
66438bd9fb5f98e37d2c8539,TCN,2024-06-25_13h25.23.032,LearnStrategy,2023.2.3,MacIntel,59.84082341,7,1,2,0.005859375,-0.0175,1,0,0,0.7458,rock_grid_rect_2,8,10,-1,-1,0.746,0.372686632,-0.413116319,1,0,0,1.959,Pumice_rect,8,1.959,1,1,0,1,0,1,,,,,,,,,,,,,
66438bd9fb5f98e37d2c8539,TCN,2024-06-25_13h25.23.032,LearnStrategy,2023.2.3,MacIntel,59.84082341,7,1,3,0.061050347,-0.005572917,1,0,0,0.7976,rock_grid_rect_2,3,15,-1,-1,0.798,0.094544271,-0.235664062,1,0,0,0.9807,Diorite_rect,3,0.981,1,2,0,2,0,1,,,,,,,,,,,,,
66438bd9fb5f98e37d2c8539,TCN,2024-06-25_13h25.23.032,LearnStrategy,2023.2.3,MacIntel,59.84082341,7,1,4,0.080121528,-0.004257813,1,0,0,1.1643,rock_grid_rect_2,2,02,-1,-1,1.164,-0.135442708,-0.236579861,1,0,0,2.234,Basalt_rect,2,2.234,1,3,0,3,0,1,,,,,,,,,,,,,
66438bd9fb5f98e37d2c8539,TCN,2024-06-25_13h25.23.032,LearnStrategy,2023.2.3,MacIntel,59.84082341,7,1,5,0.123836806,-0.013684896,1,0,0,0.7473,rock_grid_rect_2,8,06,-1,-1,0.747,0.368424479,-0.408164062,1,0,0,0.9834,Pumice_rect,8,0.983,1,4,0,4,0,1,,,,,,,,,,,,,
66438bd9fb5f98e37d2c8539,TCN,2024-06-25_13h25.23.032,LearnStrategy,2023.2.3,MacIntel,59.84082341,7,1,6,0.080664062,-0.021202257,1,0,0,0.6635,rock_grid_rect_2,7,06,-1,-1,0.664,0.116280382,-0.409192708,1,0,0,1.7435,Peridotite_rect,7,1.743,1,5,0,5,0,1,,,,,,,,,,,,,
66438bd9fb5f98e37d2c8539,TCN,2024-06-25_13h25.23.032,LearnStrategy,2023.2.3,MacIntel,59.84082341,7,1,7,0.118663194,-0.021796875,1,0,0,0.747,rock_grid_rect_2,5,05,-1,-1,0.747,-0.350759549,-0.39578125,1,0,0,2.0678,Obsidian_rect,5,2.068,1,6,0,6,0,1,,,,,,,,,,,,,
66438bd9fb5f98e37d2c8539,TCN,2024-06-25_13h25.23.032,LearnStrategy,2023.2.3,MacIntel,59.84082341,7,1,8,0.081779514,0.003923611,1,0,0,0.8302,rock_grid_rect_2,7,13,-1,-1,0.83,0.132521701,-0.404835069,1,0,0,1.3157,Peridotite_rect,7,1.316,1,7,0,7,0,1,,,,,,,,,,,,,
66438bd9fb5f98e37d2c8539,TCN,2024-06-25_13h25.23.032,LearnStrategy,2023.2.3,MacIntel,59.84082341,7,1,9,0.126384549,-0.001449653,1,0,0,0.7319,rock_grid_rect_2,4,15,-1,-1,0.732,0.145199653,-0.243177083,1,0,0,2.5289,Diorite_rect,3,2.529,0,8,0,8,0,1,,,,,,,,,,,,,
66438bd9fb5f98e37d2c8539,TCN,2024-06-25_13h25.23.032,LearnStrategy,2023.2.3,MacIntel,59.84082341,7,1,10,0.058741319,0.00124566,1,0,0,4.7229,rock_grid_rect_2,3,07,-1,-1,4.723,0.111345486,-0.411631944,1,0,0,2.233,Peridotite_rect,7,2.233,0,9,0,9,0,1,,,,,,,,,,,,,
66438bd9fb5f98e37d2c8539,TCN,2024-06-25_13h25.23.032,LearnStrategy,2023.2.3,MacIntel,59.84082341,7,1,11,0.146966146,-0.017204861,1,0,0,1.0331,rock_grid_rect_2,4,01,-1,-1,1.033,0.110299479,-0.243884549,1,0,0,2.1582,Diorite_rect,3,2.158,0,10,0,10,0,1,,,,,,,,,,,,,
66438bd9fb5f98e37d2c8539,TCN,2024-06-25_13h25.23.032,LearnStrategy,2023.2.3,MacIntel,59.84082341,7,1,12,0.080833333,-0.015846354,1,0,0,2.0691,rock_grid_rect_2,1,06,-1,-1,2.069,-0.359965278,-0.250108507,1,0,0,1.2562,Andesite_rect,1,1.256,1,11,0,11,0,1,,,,,,,,,,,,,
66438bd9fb5f98e37d2c8539,TCN,2024-06-25_13h25.23.032,LearnStrategy,2023.2.3,MacIntel,59.84082341,7,1,13,0.125685764,-0.00530816,1,0,0,0.6811,rock_grid_rect_2,1,04,-1,-1,0.681,-0.317296007,-0.255581597,1,0,0,1.4136,Andesite_rect,1,1.414,1,12,0,12,0,1,,,,,,,,,,,,,
66438bd9fb5f98e37d2c8539,TCN,2024-06-25_13h25.23.032,LearnStrategy,2023.2.3,MacIntel,59.84082341,7,1,14,0.121605903,-0.004127604,1,0,0,0.6638,rock_grid_rect_2,2,16,-1,-1,0.664,-0.124830729,-0.268242188,1,0,0,1.0799,Basalt_rect,2,1.08,1,13,0,13,0,1,,,,,,,,,,,,,
66438bd9fb5f98e37d2c8539,TCN,2024-06-25_13h25.23.032,LearnStrategy,2023.2.3,MacIntel,59.84082341,7,1,15,-0.028450521,-0.02453125,1,0,0,0.6654,rock_grid_rect_2,5,08,-1,-1,0.665,-0.435039063,-0.409322917,1,0,0,6.2873,Obsidian_rect,5,6.287,1,14,0,14,0,1,,,,,,,,,,,,,
66438bd9fb5f98e37d2c8539,TCN,2024-06-25_13h25.23.032,LearnStrategy,2023.2.3,MacIntel,59.84082341,7,1,16,0.090190972,0.010355903,1,0,0,1.0479,rock_grid_rect_2,6,06,-1,-1,1.048,-0.156380208,-0.414201389,1,0,0,1.5277,Pegmatite_rect,6,1.528,1,15,0,15,0,1,,,,,,,,,,,,,
66438bd9fb5f98e37d2c8539,TCN,2024-06-25_13h25.23.032,LearnStrategy,2023.2.3,MacIntel,59.84082341,7,2,1,,,,,,,,7,16,,,,,,,,,,,4,19.625,0,,,,,,0.334947917,-0.263680556,1,0,0,19.6253,Gabbro_rect,0,0,0,0,1,
66438bd9fb5f98e37d2c8539,TCN,2024-06-25_13h25.23.032,LearnStrategy,2023.2.3,MacIntel,59.84082341,7,2,2,,,,,,,,1,10,,,,,,,,,,,1,2.357,1,,,,,,-0.412664931,-0.247682292,1,0,0,2.3572,Andesite_rect,1,0,1,0,1,
66438bd9fb5f98e37d2c8539,TCN,2024-06-25_13h25.23.032,LearnStrategy,2023.2.3,MacIntel,59.84082341,7,2,3,,,,,,,,5,06,,,,,,,,,,,5,0.943,1,,,,,,-0.381032986,-0.383736979,1,0,0,0.9428,Obsidian_rect,2,0,2,0,1,
66438bd9fb5f98e37d2c8539,TCN,2024-06-25_13h25.23.032,LearnStrategy,2023.2.3,MacIntel,59.84082341,7,2,4,,,,,,,,5,10,,,,,,,,,,,5,1.216,1,,,,,,-0.369153646,-0.402938368,1,0,0,1.2157,Obsidian_rect,3,0,3,0,1,
66438bd9fb5f98e37d2c8539,TCN,2024-06-25_13h25.23.032,LearnStrategy,2023.2.3,MacIntel,59.84082341,7,2,5,,,,,,,,7,08,,,,,,,,,,,7,4.196,1,,,,,,0.138975694,-0.388467882,1,0,0,4.1958,Peridotite_rect,4,0,4,0,1,
66438bd9fb5f98e37d2c8539,TCN,2024-06-25_13h25.23.032,LearnStrategy,2023.2.3,MacIntel,59.84082341,7,2,6,,,,,,,,1,05,,,,,,,,,,,1,1.25,1,,,,,,-0.348033854,-0.257595486,1,0,0,1.2499,Andesite_rect,5,0,5,0,1,
66438bd9fb5f98e37d2c8539,TCN,2024-06-25_13h25.23.032,LearnStrategy,2023.2.3,MacIntel,59.84082341,7,2,7,,,,,,,,4,11,,,,,,,,,,,4,4.075,1,,,,,,0.3471875,-0.257387153,1,0,0,4.0751,Gabbro_rect,6,0,6,0,1,
66438bd9fb5f98e37d2c8539,TCN,2024-06-25_13h25.23.032,LearnStrategy,2023.2.3,MacIntel,59.84082341,7,2,8,,,,,,,,8,16,,,,,,,,,,,8,1.657,1,,,,,,0.34391059,-0.404809028,1,0,0,1.6567,Pumice_rect,7,0,7,0,1,
66438bd9fb5f98e37d2c8539,TCN,2024-06-25_13h25.23.032,LearnStrategy,2023.2.3,MacIntel,59.84082341,7,2,9,,,,,,,,2,09,,,,,,,,,,,2,1.036,1,,,,,,-0.075664063,-0.23890191,1,0,0,1.0356,Basalt_rect,8,0,8,0,1,
66438bd9fb5f98e37d2c8539,TCN,2024-06-25_13h25.23.032,LearnStrategy,2023.2.3,MacIntel,59.84082341,7,2,10,,,,,,,,4,08,,,,,,,,,,,4,2.365,1,,,,,,0.416519097,-0.245798611,1,0,0,2.3647,Gabbro_rect,9,0,9,0,1,
66438bd9fb5f98e37d2c8539,TCN,2024-06-25_13h25.23.032,LearnStrategy,2023.2.3,MacIntel,59.84082341,7,2,11,,,,,,,,6,12,,,,,,,,,,,3,11.961,0,,,,,,0.195585938,-0.247703993,1,0,0,11.9613,Diorite_rect,10,0,10,0,1,
66438bd9fb5f98e37d2c8539,TCN,2024-06-25_13h25.23.032,LearnStrategy,2023.2.3,MacIntel,59.84082341,7,2,12,,,,,,,,8,15,,,,,,,,,,,8,1.001,1,,,,,,0.364006076,-0.379361979,1,0,0,1.0008,Pumice_rect,11,0,11,0,1,
66438bd9fb5f98e37d2c8539,TCN,2024-06-25_13h25.23.032,LearnStrategy,2023.2.3,MacIntel,59.84082341,7,2,13,,,,,,,,6,16,,,,,,,,,,,6,1.693,1,,,,,,-0.055611979,-0.391449653,1,0,0,1.6933,Pegmatite_rect,12,0,12,0,1,
66438bd9fb5f98e37d2c8539,TCN,2024-06-25_13h25.23.032,LearnStrategy,2023.2.3,MacIntel,59.84082341,7,2,14,,,,,,,,2,14,,,,,,,,,,,2,3.959,1,,,,,,-0.080572917,-0.267065972,1,0,0,3.9587,Basalt_rect,13,0,13,0,1,
66438bd9fb5f98e37d2c8539,TCN,2024-06-25_13h25.23.032,LearnStrategy,2023.2.3,MacIntel,59.84082341,7,2,15,,,,,,,,3,11,,,,,,,,,,,3,1.72,1,,,,,,0.104713542,-0.269257813,1,0,0,1.7203,Diorite_rect,14,0,14,0,1,
66438bd9fb5f98e37d2c8539,TCN,2024-06-25_13h25.23.032,LearnStrategy,2023.2.3,MacIntel,59.84082341,7,2,16,,,,,,,,3,13,,,,,,,,,,,3,1.133,1,,,,,,0.101770833,-0.270325521,1,0,0,1.1328,Diorite_rect,15,0,15,0,1,
66438bd9fb5f98e37d2c8539,TCN,2024-06-25_13h25.23.032,LearnStrategy,2023.2.3,MacIntel,59.84082341,8,1,1,0.071519097,0.003810764,1,0,0,1.2315,rock_grid_rect_2,4,03,-1,-1,1.232,0.143702257,-0.235381944,1,0,0,1.2424,Diorite_rect,3,1.242,0,0,0,0,0,1,,,,,,,,,,,,,
66438bd9fb5f98e37d2c8539,TCN,2024-06-25_13h25.23.032,LearnStrategy,2023.2.3,MacIntel,59.84082341,8,1,2,0.112708333,0.00469184,1,0,0,1.4825,rock_grid_rect_2,3,06,-1,-1,1.483,0.133736979,-0.263237847,1,0,0,1.0598,Diorite_rect,3,1.06,1,1,0,1,0,1,,,,,,,,,,,,,
66438bd9fb5f98e37d2c8539,TCN,2024-06-25_13h25.23.032,LearnStrategy,2023.2.3,MacIntel,59.84082341,8,1,3,0.138190104,-0.011184896,1,0,0,0.7474,rock_grid_rect_2,3,16,-1,-1,0.747,0.08391059,-0.242335069,1,0,0,0.8268,Diorite_rect,3,0.827,1,2,0,2,0,1,,,,,,,,,,,,,
66438bd9fb5f98e37d2c8539,TCN,2024-06-25_13h25.23.032,LearnStrategy,2023.2.3,MacIntel,59.84082341,8,1,4,0.129144965,0.010520833,1,0,0,0.6991,rock_grid_rect_2,1,11,-1,-1,0.699,-0.367708333,-0.231549479,1,0,0,3.4639,Andesite_rect,1,3.464,1,3,0,3,0,1,,,,,,,,,,,,,
66438bd9fb5f98e37d2c8539,TCN,2024-06-25_13h25.23.032,LearnStrategy,2023.2.3,MacIntel,59.84082341,8,1,5,0.131901042,-0.002434896,1,0,0,0.9317,rock_grid_rect_2,2,04,-1,-1,0.932,-0.083493924,-0.23625434,1,0,0,3.4568,Basalt_rect,2,3.457,1,4,0,4,0,1,,,,,,,,,,,,,
66438bd9fb5f98e37d2c8539,TCN,2024-06-25_13h25.23.032,LearnStrategy,2023.2.3,MacIntel,59.84082341,8,1,6,0.084904514,0.003971354,1,0,0,1.0163,rock_grid_rect_2,6,08,-1,-1,1.016,-0.10108941,-0.399110243,1,0,0,1.6138,Pegmatite_rect,6,1.614,1,5,0,5,0,1,,,,,,,,,,,,,
66438bd9fb5f98e37d2c8539,TCN,2024-06-25_13h25.23.032,LearnStrategy,2023.2.3,MacIntel,59.84082341,8,1,7,0.081137153,-0.018172743,1,0,0,1.1324,rock_grid_rect_2,5,09,-1,-1,1.132,-0.391388889,-0.418172743,1,0,0,0.9241,Obsidian_rect,5,0.924,1,6,0,6,0,1,,,,,,,,,,,,,
66438bd9fb5f98e37d2c8539,TCN,2024-06-25_13h25.23.032,LearnStrategy,2023.2.3,MacIntel,59.84082341,8,1,8,0.075234375,0.003736979,1,0,0,0.7323,rock_grid_rect_2,1,01,-1,-1,0.732,-0.449622396,-0.268532986,1,0,0,6.394,Andesite_rect,1,6.394,1,7,0,7,0,1,,,,,,,,,,,,,
66438bd9fb5f98e37d2c8539,TCN,2024-06-25_13h25.23.032,LearnStrategy,2023.2.3,MacIntel,59.84082341,8,1,9,0.055013021,-0.009969618,1,0,0,1.0327,rock_grid_rect_2,8,03,-1,-1,1.033,0.377473958,-0.396979167,1,0,0,1.155,Pumice_rect,8,1.155,1,8,0,8,0,1,,,,,,,,,,,,,
66438bd9fb5f98e37d2c8539,TCN,2024-06-25_13h25.23.032,LearnStrategy,2023.2.3,MacIntel,59.84082341,8,1,10,0.11796875,-0.011631944,1,0,0,0.8638,rock_grid_rect_2,7,07,-1,-1,0.864,0.176931424,-0.389809028,1,0,0,2.0961,Peridotite_rect,7,2.096,1,9,0,9,0,1,,,,,,,,,,,,,
66438bd9fb5f98e37d2c8539,TCN,2024-06-25_13h25.23.032,LearnStrategy,2023.2.3,MacIntel,59.84082341,8,1,11,0.118728299,-0.019053819,1,0,0,0.8491,rock_grid_rect_2,4,10,-1,-1,0.849,0.34703559,-0.24843316,1,0,0,1.0568,Gabbro_rect,4,1.057,1,10,0,10,0,1,,,,,,,,,,,,,
66438bd9fb5f98e37d2c8539,TCN,2024-06-25_13h25.23.032,LearnStrategy,2023.2.3,MacIntel,59.84082341,8,1,12,0.097777778,-0.002912326,1,0,0,0.7831,rock_grid_rect_2,6,13,-1,-1,0.783,-0.058953993,-0.400972222,1,0,0,2.634,Pegmatite_rect,6,2.634,1,11,0,11,0,1,,,,,,,,,,,,,
66438bd9fb5f98e37d2c8539,TCN,2024-06-25_13h25.23.032,LearnStrategy,2023.2.3,MacIntel,59.84082341,8,1,13,0.088936632,0.009496528,1,0,0,0.8968,rock_grid_rect_2,7,04,-1,-1,0.897,0.171046007,-0.255833333,1,0,0,8.105,Diorite_rect,3,8.105,0,12,0,12,0,1,,,,,,,,,,,,,
66438bd9fb5f98e37d2c8539,TCN,2024-06-25_13h25.23.032,LearnStrategy,2023.2.3,MacIntel,59.84082341,8,1,14,0.084574653,0.000902778,1,0,0,1.601,rock_grid_rect_2,2,11,-1,-1,1.601,0.384001736,-0.269522569,1,0,0,1.7421,Gabbro_rect,4,1.742,0,13,0,13,0,1,,,,,,,,,,,,,
66438bd9fb5f98e37d2c8539,TCN,2024-06-25_13h25.23.032,LearnStrategy,2023.2.3,MacIntel,59.84082341,8,1,15,0.085559896,-0.017756076,1,0,0,0.8301,rock_grid_rect_2,5,02,-1,-1,0.83,-0.348880208,-0.415859375,1,0,0,0.9999,Obsidian_rect,5,1,1,14,0,14,0,1,,,,,,,,,,,,,
66438bd9fb5f98e37d2c8539,TCN,2024-06-25_13h25.23.032,LearnStrategy,2023.2.3,MacIntel,59.84082341,8,1,16,0.122196181,-0.007413194,1,0,0,1.1645,rock_grid_rect_2,8,13,-1,-1,1.165,0.427734375,-0.404249132,1,0,0,1.1219,Pumice_rect,8,1.122,1,15,0,15,0,1,,,,,,,,,,,,,
66438bd9fb5f98e37d2c8539,TCN,2024-06-25_13h25.23.032,LearnStrategy,2023.2.3,MacIntel,59.84082341,8,2,1,,,,,,,,5,04,,,,,,,,,,,5,1.31,1,,,,,,-0.374596354,-0.378463542,1,0,0,1.3096,Obsidian_rect,0,0,0,0,1,
66438bd9fb5f98e37d2c8539,TCN,2024-06-25_13h25.23.032,LearnStrategy,2023.2.3,MacIntel,59.84082341,8,2,2,,,,,,,,2,08,,,,,,,,,,,2,1.997,1,,,,,,-0.075,-0.24516059,1,0,0,1.9972,Basalt_rect,1,0,1,0,1,
66438bd9fb5f98e37d2c8539,TCN,2024-06-25_13h25.23.032,LearnStrategy,2023.2.3,MacIntel,59.84082341,8,2,3,,,,,,,,4,12,,,,,,,,,,,4,3.01,1,,,,,,0.43172309,-0.267647569,1,0,0,3.0101,Gabbro_rect,2,0,2,0,1,
66438bd9fb5f98e37d2c8539,TCN,2024-06-25_13h25.23.032,LearnStrategy,2023.2.3,MacIntel,59.84082341,8,2,4,,,,,,,,4,16,,,,,,,,,,,4,3.378,1,,,,,,0.379127604,-0.231835938,1,0,0,3.3784,Gabbro_rect,3,0,3,0,1,
66438bd9fb5f98e37d2c8539,TCN,2024-06-25_13h25.23.032,LearnStrategy,2023.2.3,MacIntel,59.84082341,8,2,5,,,,,,,,5,12,,,,,,,,,,,5,1.03,1,,,,,,-0.368220486,-0.414301215,1,0,0,1.0299,Obsidian_rect,4,0,4,0,1,
66438bd9fb5f98e37d2c8539,TCN,2024-06-25_13h25.23.032,LearnStrategy,2023.2.3,MacIntel,59.84082341,8,2,6,,,,,,,,8,04,,,,,,,,,,,8,1.156,1,,,,,,0.387165799,-0.403975694,1,0,0,1.1561,Pumice_rect,5,0,5,0,1,
66438bd9fb5f98e37d2c8539,TCN,2024-06-25_13h25.23.032,LearnStrategy,2023.2.3,MacIntel,59.84082341,8,2,7,,,,,,,,7,12,,,,,,,,,,,7,2.764,1,,,,,,0.125655382,-0.408324653,1,0,0,2.7642,Peridotite_rect,6,0,6,0,1,
66438bd9fb5f98e37d2c8539,TCN,2024-06-25_13h25.23.032,LearnStrategy,2023.2.3,MacIntel,59.84082341,8,2,8,,,,,,,,6,05,,,,,,,,,,,6,1.245,1,,,,,,-0.085546875,-0.402391493,1,0,0,1.2449,Pegmatite_rect,7,0,7,0,1,
66438bd9fb5f98e37d2c8539,TCN,2024-06-25_13h25.23.032,LearnStrategy,2023.2.3,MacIntel,59.84082341,8,2,9,,,,,,,,6,11,,,,,,,,,,,6,0.928,1,,,,,,-0.085546875,-0.402391493,1,0,0,0.9281,Pegmatite_rect,8,0,8,0,1,
66438bd9fb5f98e37d2c8539,TCN,2024-06-25_13h25.23.032,LearnStrategy,2023.2.3,MacIntel,59.84082341,8,2,10,,,,,,,,2,05,,,,,,,,,,,2,1.713,1,,,,,,-0.065881076,-0.240707465,1,0,0,1.7134,Basalt_rect,9,0,9,0,1,
66438bd9fb5f98e37d2c8539,TCN,2024-06-25_13h25.23.032,LearnStrategy,2023.2.3,MacIntel,59.84082341,8,2,11,,,,,,,,1,09,,,,,,,,,,,1,1.176,1,,,,,,-0.367157118,-0.244344618,1,0,0,1.1762,Andesite_rect,10,0,10,0,1,
66438bd9fb5f98e37d2c8539,TCN,2024-06-25_13h25.23.032,LearnStrategy,2023.2.3,MacIntel,59.84082341,8,2,12,,,,,,,,7,05,,,,,,,,,,,7,2.636,1,,,,,,0.114622396,-0.389227431,1,0,0,2.6362,Peridotite_rect,11,0,11,0,1,
66438bd9fb5f98e37d2c8539,TCN,2024-06-25_13h25.23.032,LearnStrategy,2023.2.3,MacIntel,59.84082341,8,2,13,,,,,,,,8,14,,,,,,,,,,,8,1.529,1,,,,,,0.377699653,-0.403398437,1,0,0,1.5288,Pumice_rect,12,0,12,0,1,
66438bd9fb5f98e37d2c8539,TCN,2024-06-25_13h25.23.032,LearnStrategy,2023.2.3,MacIntel,59.84082341,8,2,14,,,,,,,,1,02,,,,,,,,,,,1,1.393,1,,,,,,-0.300421007,-0.271844618,1,0,0,1.3932,Andesite_rect,13,0,13,0,1,
66438bd9fb5f98e37d2c8539,TCN,2024-06-25_13h25.23.032,LearnStrategy,2023.2.3,MacIntel,59.84082341,8,2,15,,,,,,,,3,08,,,,,,,,,,,3,1.461,1,,,,,,0.156896701,-0.249236111,1,0,0,1.4609,Diorite_rect,14,0,14,0,1,
66438bd9fb5f98e37d2c8539,TCN,2024-06-25_13h25.23.032,LearnStrategy,2023.2.3,MacIntel,59.84082341,8,2,16,,,,,,,,3,14,,,,,,,,,,,3,3.978,1,,,,,,0.174592014,-0.250208333,1,0,0,3.9777,Diorite_rect,15,0,15,0,1,
66438bd9fb5f98e37d2c8539,TCN,2024-06-25_13h25.23.032,LearnStrategy,2023.2.3,MacIntel,59.84082341,9,1,1,0.136219618,-0.001727431,1,0,0,1.4357,rock_grid_rect_2,5,11,-1,-1,1.436,-0.366445313,-0.391657986,1,0,0,1.0269,Obsidian_rect,5,1.027,1,0,0,0,0,1,,,,,,,,,,,,,
66438bd9fb5f98e37d2c8539,TCN,2024-06-25_13h25.23.032,LearnStrategy,2023.2.3,MacIntel,59.84082341,9,1,2,0.01562066,-0.000837674,1,0,0,0.8978,rock_grid_rect_2,2,06,-1,-1,0.898,-0.107730035,-0.249088542,1,0,0,1.023,Basalt_rect,2,1.023,1,1,0,1,0,1,,,,,,,,,,,,,
66438bd9fb5f98e37d2c8539,TCN,2024-06-25_13h25.23.032,LearnStrategy,2023.2.3,MacIntel,59.84082341,9,1,3,0.055711806,0.011883681,1,0,0,0.8621,rock_grid_rect_2,4,09,-1,-1,0.862,0.34281684,-0.260698785,1,0,0,2.5331,Gabbro_rect,4,2.533,1,2,0,2,0,1,,,,,,,,,,,,,
66438bd9fb5f98e37d2c8539,TCN,2024-06-25_13h25.23.032,LearnStrategy,2023.2.3,MacIntel,59.84082341,9,1,4,0.06624566,0.003368056,1,0,0,0.7497,rock_grid_rect_2,7,14,-1,-1,0.75,0.148389757,-0.416332465,1,0,0,1.4367,Peridotite_rect,7,1.437,1,3,0,3,0,1,,,,,,,,,,,,,
66438bd9fb5f98e37d2c8539,TCN,2024-06-25_13h25.23.032,LearnStrategy,2023.2.3,MacIntel,59.84082341,9,1,5,0.117052951,-0.010164931,1,0,0,0.6976,rock_grid_rect_2,4,13,-1,-1,0.698,0.145863715,-0.245516493,1,0,0,5.4773,Diorite_rect,3,5.477,0,4,0,4,0,1,,,,,,,,,,,,,
66438bd9fb5f98e37d2c8539,TCN,2024-06-25_13h25.23.032,LearnStrategy,2023.2.3,MacIntel,59.84082341,9,1,6,0.05828125,-0.010993924,1,0,0,0.7969,rock_grid_rect_2,8,05,-1,-1,0.797,0.333702257,-0.392122396,1,0,0,1.6688,Pumice_rect,8,1.669,1,5,0,5,0,1,,,,,,,,,,,,,
66438bd9fb5f98e37d2c8539,TCN,2024-06-25_13h25.23.032,LearnStrategy,2023.2.3,MacIntel,59.84082341,9,1,7,0.078480903,0.002391493,1,0,0,0.7978,rock_grid_rect_2,7,10,-1,-1,0.798,0.176710069,-0.401462674,1,0,0,1.2522,Peridotite_rect,7,1.252,1,6,0,6,0,1,,,,,,,,,,,,,
66438bd9fb5f98e37d2c8539,TCN,2024-06-25_13h25.23.032,LearnStrategy,2023.2.3,MacIntel,59.84082341,9,1,8,0.133255208,0.01125,1,0,0,0.8974,rock_grid_rect_2,1,16,-1,-1,0.897,0.108854167,-0.265581597,1,0,0,1.4258,Diorite_rect,3,1.426,0,7,0,7,0,1,,,,,,,,,,,,,
66438bd9fb5f98e37d2c8539,TCN,2024-06-25_13h25.23.032,LearnStrategy,2023.2.3,MacIntel,59.84082341,9,1,9,0.05891059,-0.013741319,1,0,0,0.8318,rock_grid_rect_2,2,12,-1,-1,0.832,0.370082465,-0.380525174,1,0,0,1.8976,Pumice_rect,8,1.898,0,8,0,8,0,1,,,,,,,,,,,,,
66438bd9fb5f98e37d2c8539,TCN,2024-06-25_13h25.23.032,LearnStrategy,2023.2.3,MacIntel,59.84082341,9,1,10,0.121853299,0.00937934,1,0,0,0.9309,rock_grid_rect_2,6,15,-1,-1,0.931,-0.107374132,-0.416171875,1,0,0,1.0454,Pegmatite_rect,6,1.045,1,9,0,9,0,1,,,,,,,,,,,,,
66438bd9fb5f98e37d2c8539,TCN,2024-06-25_13h25.23.032,LearnStrategy,2023.2.3,MacIntel,59.84082341,9,1,11,0.124357639,-0.010125868,1,0,0,0.8474,rock_grid_rect_2,6,03,-1,-1,0.847,-0.167144097,-0.405429688,1,0,0,1.3316,Pegmatite_rect,6,1.332,1,10,0,10,0,1,,,,,,,,,,,,,
66438bd9fb5f98e37d2c8539,TCN,2024-06-25_13h25.23.032,LearnStrategy,2023.2.3,MacIntel,59.84082341,9,1,12,0.052092014,-0.004613715,1,0,0,1.9515,rock_grid_rect_2,3,12,-1,-1,1.951,0.180169271,-0.266085069,1,0,0,1.3159,Diorite_rect,3,1.316,1,11,0,11,0,1,,,,,,,,,,,,,
66438bd9fb5f98e37d2c8539,TCN,2024-06-25_13h25.23.032,LearnStrategy,2023.2.3,MacIntel,59.84082341,9,1,13,0.13094184,-0.014166667,1,0,0,0.8965,rock_grid_rect_2,5,07,-1,-1,0.896,-0.330104167,-0.393919271,1,0,0,1.1589,Obsidian_rect,5,1.159,1,12,0,12,0,1,,,,,,,,,,,,,
66438bd9fb5f98e37d2c8539,TCN,2024-06-25_13h25.23.032,LearnStrategy,2023.2.3,MacIntel,59.84082341,9,1,14,0.059709201,0.020234375,1,0,0,0.9165,rock_grid_rect_2,3,09,-1,-1,0.917,0.135199653,-0.260512153,1,0,0,1.3521,Diorite_rect,3,1.352,1,13,0,13,0,1,,,,,,,,,,,,,
66438bd9fb5f98e37d2c8539,TCN,2024-06-25_13h25.23.032,LearnStrategy,2023.2.3,MacIntel,59.84082341,9,1,15,0.105798611,0.009665799,1,0,0,0.7813,rock_grid_rect_2,1,07,-1,-1,0.781,-0.359496528,-0.230186632,1,0,0,1.2008,Andesite_rect,1,1.201,1,14,0,14,0,1,,,,,,,,,,,,,
66438bd9fb5f98e37d2c8539,TCN,2024-06-25_13h25.23.032,LearnStrategy,2023.2.3,MacIntel,59.84082341,9,1,16,0.076783854,-0.00250434,1,0,0,0.8992,rock_grid_rect_2,8,09,-1,-1,0.899,0.386753472,-0.404309896,1,0,0,1.0581,Pumice_rect,8,1.058,1,15,0,15,0,1,,,,,,,,,,,,,
66438bd9fb5f98e37d2c8539,TCN,2024-06-25_13h25.23.032,LearnStrategy,2023.2.3,MacIntel,59.84082341,9,2,1,,,,,,,,3,02,,,,,,,,,,,3,1.629,1,,,,,,0.148342014,-0.232690972,1,0,0,1.629,Diorite_rect,0,0,0,0,1,
66438bd9fb5f98e37d2c8539,TCN,2024-06-25_13h25.23.032,LearnStrategy,2023.2.3,MacIntel,59.84082341,9,2,2,,,,,,,,5,14,,,,,,,,,,,5,1.019,1,,,,,,-0.373676215,-0.381857639,1,0,0,1.0195,Obsidian_rect,1,0,1,0,1,
66438bd9fb5f98e37d2c8539,TCN,2024-06-25_13h25.23.032,LearnStrategy,2023.2.3,MacIntel,59.84082341,9,2,3,,,,,,,,1,14,,,,,,,,,,,1,1.561,1,,,,,,-0.384561632,-0.243242188,1,0,0,1.5607,Andesite_rect,2,0,2,0,1,
66438bd9fb5f98e37d2c8539,TCN,2024-06-25_13h25.23.032,LearnStrategy,2023.2.3,MacIntel,59.84082341,9,2,4,,,,,,,,7,15,,,,,,,,,,,7,4.684,1,,,,,,0.167526042,-0.378975694,1,0,0,4.684,Peridotite_rect,3,0,3,0,1,
66438bd9fb5f98e37d2c8539,TCN,2024-06-25_13h25.23.032,LearnStrategy,2023.2.3,MacIntel,59.84082341,9,2,5,,,,,,,,8,08,,,,,,,,,,,8,1.273,1,,,,,,0.341132812,-0.399774306,1,0,0,1.2725,Pumice_rect,4,0,4,0,1,
66438bd9fb5f98e37d2c8539,TCN,2024-06-25_13h25.23.032,LearnStrategy,2023.2.3,MacIntel,59.84082341,9,2,6,,,,,,,,8,02,,,,,,,,,,,8,2.642,1,,,,,,0.393654514,-0.395928819,1,0,0,2.6418,Pumice_rect,5,0,5,0,1,
66438bd9fb5f98e37d2c8539,TCN,2024-06-25_13h25.23.032,LearnStrategy,2023.2.3,MacIntel,59.84082341,9,2,7,,,,,,,,2,01,,,,,,,,,,,2,1.607,1,,,,,,-0.127582465,-0.265282118,1,0,0,1.6074,Basalt_rect,6,0,6,0,1,
66438bd9fb5f98e37d2c8539,TCN,2024-06-25_13h25.23.032,LearnStrategy,2023.2.3,MacIntel,59.84082341,9,2,8,,,,,,,,6,07,,,,,,,,,,,6,1.179,1,,,,,,-0.123988715,-0.414474826,1,0,0,1.1788,Pegmatite_rect,7,0,7,0,1,
66438bd9fb5f98e37d2c8539,TCN,2024-06-25_13h25.23.032,LearnStrategy,2023.2.3,MacIntel,59.84082341,9,2,9,,,,,,,,4,05,,,,,,,,,,,4,2.455,1,,,,,,0.420681424,-0.248402778,1,0,0,2.4549,Gabbro_rect,8,0,8,0,1,
66438bd9fb5f98e37d2c8539,TCN,2024-06-25_13h25.23.032,LearnStrategy,2023.2.3,MacIntel,59.84082341,9,2,10,,,,,,,,5,16,,,,,,,,,,,5,1.145,1,,,,,,-0.339704861,-0.395533854,1,0,0,1.1446,Obsidian_rect,9,0,9,0,1,
66438bd9fb5f98e37d2c8539,TCN,2024-06-25_13h25.23.032,LearnStrategy,2023.2.3,MacIntel,59.84082341,9,2,11,,,,,,,,1,03,,,,,,,,,,,1,1.198,1,,,,,,-0.33265625,-0.245772569,1,0,0,1.1976,Andesite_rect,10,0,10,0,1,
66438bd9fb5f98e37d2c8539,TCN,2024-06-25_13h25.23.032,LearnStrategy,2023.2.3,MacIntel,59.84082341,9,2,12,,,,,,,,7,02,,,,,,,,,,,7,1.316,1,,,,,,0.126840278,-0.38859809,1,0,0,1.316,Peridotite_rect,11,0,11,0,1,
66438bd9fb5f98e37d2c8539,TCN,2024-06-25_13h25.23.032,LearnStrategy,2023.2.3,MacIntel,59.84082341,9,2,13,,,,,,,,3,10,,,,,,,,,,,3,1.368,1,,,,,,0.142664931,-0.25921441,1,0,0,1.3678,Diorite_rect,12,0,12,0,1,
66438bd9fb5f98e37d2c8539,TCN,2024-06-25_13h25.23.032,LearnStrategy,2023.2.3,MacIntel,59.84082341,9,2,14,,,,,,,,2,10,,,,,,,,,,,2,1.429,1,,,,,,-0.083467882,-0.256575521,1,0,0,1.4294,Basalt_rect,13,0,13,0,1,
66438bd9fb5f98e37d2c8539,TCN,2024-06-25_13h25.23.032,LearnStrategy,2023.2.3,MacIntel,59.84082341,9,2,15,,,,,,,,4,14,,,,,,,,,,,4,3.842,1,,,,,,0.395963542,-0.247842882,1,0,0,3.8419,Gabbro_rect,14,0,14,0,1,
66438bd9fb5f98e37d2c8539,TCN,2024-06-25_13h25.23.032,LearnStrategy,2023.2.3,MacIntel,59.84082341,9,2,16,,,,,,,,6,10,,,,,,,,,,,6,2.482,1,,,,,,-0.078867188,-0.407947049,1,0,0,2.4823,Pegmatite_rect,15,0,15,0,1,
66438bd9fb5f98e37d2c8539,TCN,2024-06-25_13h25.23.032,LearnStrategy,2023.2.3,MacIntel,59.84082341,,,,,,,,,,,,,,,,,,,,,,,,,,,,,,,,,,,,,,,,,,,1
66438bd9fb5f98e37d2c8539,TCN,2024-06-25_13h25.23.032,LearnStrategy,2023.2.3,MacIntel,59.84082341,,,,,,,,,,,,,,,,,,,,,,,,,,,,,,,,,,,,,,,,,,,
66438bd9fb5f98e37d2c8539,TCN,2024-06-25_13h25.23.032,LearnStrategy,2023.2.3,MacIntel,59.84082341,,,,,,,,,,,7,14,1,1,,,,,,,,,,,,,,,,,,,,,,,,,,,,,
66438bd9fb5f98e37d2c8539,TCN,2024-06-25_13h25.23.032,LearnStrategy,2023.2.3,MacIntel,59.84082341,,,,,,,,,,,4,13,1,2,,,,,,,,,,,,,,,,,,,,,,,,,,,,,
66438bd9fb5f98e37d2c8539,TCN,2024-06-25_13h25.23.032,LearnStrategy,2023.2.3,MacIntel,59.84082341,,,,,,,,,,,5,08,1,3,,,,,,,,,,,,,,,,,,,,,,,,,,,,,
66438bd9fb5f98e37d2c8539,TCN,2024-06-25_13h25.23.032,LearnStrategy,2023.2.3,MacIntel,59.84082341,,,,,,,,,,,7,10,1,4,,,,,,,,,,,,,,,,,,,,,,,,,,,,,
66438bd9fb5f98e37d2c8539,TCN,2024-06-25_13h25.23.032,LearnStrategy,2023.2.3,MacIntel,59.84082341,,,,,,,,,,,5,02,1,5,,,,,,,,,,,,,,,,,,,,,,,,,,,,,
66438bd9fb5f98e37d2c8539,TCN,2024-06-25_13h25.23.032,LearnStrategy,2023.2.3,MacIntel,59.84082341,,,,,,,,,,,6,03,1,6,,,,,,,,,,,,,,,,,,,,,,,,,,,,,
66438bd9fb5f98e37d2c8539,TCN,2024-06-25_13h25.23.032,LearnStrategy,2023.2.3,MacIntel,59.84082341,,,,,,,,,,,2,12,1,7,,,,,,,,,,,,,,,,,,,,,,,,,,,,,
66438bd9fb5f98e37d2c8539,TCN,2024-06-25_13h25.23.032,LearnStrategy,2023.2.3,MacIntel,59.84082341,,,,,,,,,,,4,01,1,8,,,,,,,,,,,,,,,,,,,,,,,,,,,,,
66438bd9fb5f98e37d2c8539,TCN,2024-06-25_13h25.23.032,LearnStrategy,2023.2.3,MacIntel,59.84082341,,,,,,,,,,,8,03,2,1,,,,,,,,,,,,,,,,,,,,,,,,,,,,,
66438bd9fb5f98e37d2c8539,TCN,2024-06-25_13h25.23.032,LearnStrategy,2023.2.3,MacIntel,59.84082341,,,,,,,,,,,4,03,2,2,,,,,,,,,,,,,,,,,,,,,,,,,,,,,
66438bd9fb5f98e37d2c8539,TCN,2024-06-25_13h25.23.032,LearnStrategy,2023.2.3,MacIntel,59.84082341,,,,,,,,,,,4,09,2,3,,,,,,,,,,,,,,,,,,,,,,,,,,,,,
66438bd9fb5f98e37d2c8539,TCN,2024-06-25_13h25.23.032,LearnStrategy,2023.2.3,MacIntel,59.84082341,,,,,,,,,,,3,12,2,4,,,,,,,,,,,,,,,,,,,,,,,,,,,,,
66438bd9fb5f98e37d2c8539,TCN,2024-06-25_13h25.23.032,LearnStrategy,2023.2.3,MacIntel,59.84082341,,,,,,,,,,,8,13,2,5,,,,,,,,,,,,,,,,,,,,,,,,,,,,,
66438bd9fb5f98e37d2c8539,TCN,2024-06-25_13h25.23.032,LearnStrategy,2023.2.3,MacIntel,59.84082341,,,,,,,,,,,6,15,2,6,,,,,,,,,,,,,,,,,,,,,,,,,,,,,
66438bd9fb5f98e37d2c8539,TCN,2024-06-25_13h25.23.032,LearnStrategy,2023.2.3,MacIntel,59.84082341,,,,,,,,,,,4,15,2,7,,,,,,,,,,,,,,,,,,,,,,,,,,,,,
66438bd9fb5f98e37d2c8539,TCN,2024-06-25_13h25.23.032,LearnStrategy,2023.2.3,MacIntel,59.84082341,,,,,,,,,,,3,15,2,8,,,,,,,,,,,,,,,,,,,,,,,,,,,,,
66438bd9fb5f98e37d2c8539,TCN,2024-06-25_13h25.23.032,LearnStrategy,2023.2.3,MacIntel,59.84082341,,,,,,,,,,,3,07,3,1,,,,,,,,,,,,,,,,,,,,,,,,,,,,,
66438bd9fb5f98e37d2c8539,TCN,2024-06-25_13h25.23.032,LearnStrategy,2023.2.3,MacIntel,59.84082341,,,,,,,,,,,1,11,3,2,,,,,,,,,,,,,,,,,,,,,,,,,,,,,
66438bd9fb5f98e37d2c8539,TCN,2024-06-25_13h25.23.032,LearnStrategy,2023.2.3,MacIntel,59.84082341,,,,,,,,,,,1,04,3,3,,,,,,,,,,,,,,,,,,,,,,,,,,,,,
66438bd9fb5f98e37d2c8539,TCN,2024-06-25_13h25.23.032,LearnStrategy,2023.2.3,MacIntel,59.84082341,,,,,,,,,,,2,06,3,4,,,,,,,,,,,,,,,,,,,,,,,,,,,,,
66438bd9fb5f98e37d2c8539,TCN,2024-06-25_13h25.23.032,LearnStrategy,2023.2.3,MacIntel,59.84082341,,,,,,,,,,,3,09,3,5,,,,,,,,,,,,,,,,,,,,,,,,,,,,,
66438bd9fb5f98e37d2c8539,TCN,2024-06-25_13h25.23.032,LearnStrategy,2023.2.3,MacIntel,59.84082341,,,,,,,,,,,3,06,3,6,,,,,,,,,,,,,,,,,,,,,,,,,,,,,
66438bd9fb5f98e37d2c8539,TCN,2024-06-25_13h25.23.032,LearnStrategy,2023.2.3,MacIntel,59.84082341,,,,,,,,,,,7,13,3,7,,,,,,,,,,,,,,,,,,,,,,,,,,,,,
66438bd9fb5f98e37d2c8539,TCN,2024-06-25_13h25.23.032,LearnStrategy,2023.2.3,MacIntel,59.84082341,,,,,,,,,,,1,01,3,8,,,,,,,,,,,,,,,,,,,,,,,,,,,,,
66438bd9fb5f98e37d2c8539,TCN,2024-06-25_13h25.23.032,LearnStrategy,2023.2.3,MacIntel,59.84082341,,,,,,,,,,,7,06,4,1,,,,,,,,,,,,,,,,,,,,,,,,,,,,,
66438bd9fb5f98e37d2c8539,TCN,2024-06-25_13h25.23.032,LearnStrategy,2023.2.3,MacIntel,59.84082341,,,,,,,,,,,2,16,4,2,,,,,,,,,,,,,,,,,,,,,,,,,,,,,
66438bd9fb5f98e37d2c8539,TCN,2024-06-25_13h25.23.032,LearnStrategy,2023.2.3,MacIntel,59.84082341,,,,,,,,,,,5,11,4,3,,,,,,,,,,,,,,,,,,,,,,,,,,,,,
66438bd9fb5f98e37d2c8539,TCN,2024-06-25_13h25.23.032,LearnStrategy,2023.2.3,MacIntel,59.84082341,,,,,,,,,,,8,06,4,4,,,,,,,,,,,,,,,,,,,,,,,,,,,,,
66438bd9fb5f98e37d2c8539,TCN,2024-06-25_13h25.23.032,LearnStrategy,2023.2.3,MacIntel,59.84082341,,,,,,,,,,,1,16,4,5,,,,,,,,,,,,,,,,,,,,,,,,,,,,,
66438bd9fb5f98e37d2c8539,TCN,2024-06-25_13h25.23.032,LearnStrategy,2023.2.3,MacIntel,59.84082341,,,,,,,,,,,6,06,4,6,,,,,,,,,,,,,,,,,,,,,,,,,,,,,
66438bd9fb5f98e37d2c8539,TCN,2024-06-25_13h25.23.032,LearnStrategy,2023.2.3,MacIntel,59.84082341,,,,,,,,,,,3,16,4,7,,,,,,,,,,,,,,,,,,,,,,,,,,,,,
66438bd9fb5f98e37d2c8539,TCN,2024-06-25_13h25.23.032,LearnStrategy,2023.2.3,MacIntel,59.84082341,,,,,,,,,,,8,09,4,8,,,,,,,,,,,,,,,,,,,,,,,,,,,,,
66438bd9fb5f98e37d2c8539,TCN,2024-06-25_13h25.23.032,LearnStrategy,2023.2.3,MacIntel,59.84082341,,,,,,,,,,,6,13,5,1,,,,,,,,,,,,,,,,,,,,,,,,,,,,,
66438bd9fb5f98e37d2c8539,TCN,2024-06-25_13h25.23.032,LearnStrategy,2023.2.3,MacIntel,59.84082341,,,,,,,,,,,5,09,5,2,,,,,,,,,,,,,,,,,,,,,,,,,,,,,
66438bd9fb5f98e37d2c8539,TCN,2024-06-25_13h25.23.032,LearnStrategy,2023.2.3,MacIntel,59.84082341,,,,,,,,,,,7,04,5,3,,,,,,,,,,,,,,,,,,,,,,,,,,,,,
66438bd9fb5f98e37d2c8539,TCN,2024-06-25_13h25.23.032,LearnStrategy,2023.2.3,MacIntel,59.84082341,,,,,,,,,,,5,05,5,4,,,,,,,,,,,,,,,,,,,,,,,,,,,,,
66438bd9fb5f98e37d2c8539,TCN,2024-06-25_13h25.23.032,LearnStrategy,2023.2.3,MacIntel,59.84082341,,,,,,,,,,,1,07,5,5,,,,,,,,,,,,,,,,,,,,,,,,,,,,,
66438bd9fb5f98e37d2c8539,TCN,2024-06-25_13h25.23.032,LearnStrategy,2023.2.3,MacIntel,59.84082341,,,,,,,,,,,4,10,5,6,,,,,,,,,,,,,,,,,,,,,,,,,,,,,
66438bd9fb5f98e37d2c8539,TCN,2024-06-25_13h25.23.032,LearnStrategy,2023.2.3,MacIntel,59.84082341,,,,,,,,,,,2,02,5,7,,,,,,,,,,,,,,,,,,,,,,,,,,,,,
66438bd9fb5f98e37d2c8539,TCN,2024-06-25_13h25.23.032,LearnStrategy,2023.2.3,MacIntel,59.84082341,,,,,,,,,,,6,09,5,8,,,,,,,,,,,,,,,,,,,,,,,,,,,,,
66438bd9fb5f98e37d2c8539,TCN,2024-06-25_13h25.23.032,LearnStrategy,2023.2.3,MacIntel,59.84082341,,,,,,,,,,,1,06,6,1,,,,,,,,,,,,,,,,,,,,,,,,,,,,,
66438bd9fb5f98e37d2c8539,TCN,2024-06-25_13h25.23.032,LearnStrategy,2023.2.3,MacIntel,59.84082341,,,,,,,,,,,2,11,6,2,,,,,,,,,,,,,,,,,,,,,,,,,,,,,
66438bd9fb5f98e37d2c8539,TCN,2024-06-25_13h25.23.032,LearnStrategy,2023.2.3,MacIntel,59.84082341,,,,,,,,,,,2,04,6,3,,,,,,,,,,,,,,,,,,,,,,,,,,,,,
66438bd9fb5f98e37d2c8539,TCN,2024-06-25_13h25.23.032,LearnStrategy,2023.2.3,MacIntel,59.84082341,,,,,,,,,,,8,05,6,4,,,,,,,,,,,,,,,,,,,,,,,,,,,,,
66438bd9fb5f98e37d2c8539,TCN,2024-06-25_13h25.23.032,LearnStrategy,2023.2.3,MacIntel,59.84082341,,,,,,,,,,,8,10,6,5,,,,,,,,,,,,,,,,,,,,,,,,,,,,,
66438bd9fb5f98e37d2c8539,TCN,2024-06-25_13h25.23.032,LearnStrategy,2023.2.3,MacIntel,59.84082341,,,,,,,,,,,5,07,6,6,,,,,,,,,,,,,,,,,,,,,,,,,,,,,
66438bd9fb5f98e37d2c8539,TCN,2024-06-25_13h25.23.032,LearnStrategy,2023.2.3,MacIntel,59.84082341,,,,,,,,,,,7,07,6,7,,,,,,,,,,,,,,,,,,,,,,,,,,,,,
66438bd9fb5f98e37d2c8539,TCN,2024-06-25_13h25.23.032,LearnStrategy,2023.2.3,MacIntel,59.84082341,,,,,,,,,,,6,08,6,8,,,,,,,,,,,,,,,,,,,,,,,,,,,,,