participant,condition,date,expName,psychopyVersion,OS,frameRate,block,phase,trial,learn_mouse.x,learn_mouse.y,learn_mouse.leftButton,learn_mouse.midButton,learn_mouse.rightButton,learn_mouse.time,learn_mouse.clicked_name,cat,token,row,col,t_select,cat_mouse_l.x,cat_mouse_l.y,cat_mouse_l.leftButton,cat_mouse_l.midButton,cat_mouse_l.rightButton,cat_mouse_l.time,cat_mouse_l.clicked_name,resp,t_resp,corr,train_trials.thisRepN,train_trials.thisTrialN,train_trials.thisN,train_trials.thisIndex,train_trials.ran,cat_mouse_t.x,cat_mouse_t.y,cat_mouse_t.leftButton,cat_mouse_t.midButton,cat_mouse_t.rightButton,cat_mouse_t.time,cat_mouse_t.clicked_name,test_trials.thisRepN,test_trials.thisTrialN,test_trials.thisN,test_trials.thisIndex,test_trials.ran,Bonus
6643b96e963b9b0cf7d216f3,SCN,2024-06-25_14h30.52.257,LearnStrategy,2023.2.3,Win32,5.460065084,,,,,,,,,,,,,,,,,,,,,,,,,,,,,,,,,,,,,,,,,,,
6643b96e963b9b0cf7d216f3,SCN,2024-06-25_14h30.52.257,LearnStrategy,2023.2.3,Win32,5.460065084,1,1,1,-0.235416667,0.094791667,1,0,0,13.4146,Obsidian_02,5,02,4,3,13.415,-0.365625,-0.391666667,1,0,0,2.7387,Obsidian_rect,5,2.739,1,0,0,0,0,1,,,,,,,,,,,,,
6643b96e963b9b0cf7d216f3,SCN,2024-06-25_14h30.52.257,LearnStrategy,2023.2.3,Win32,5.460065084,1,1,2,0.402083333,-0.40625,1,0,0,4.3868,Pumice_08,8,08,1,7,4.387,0.384375,-0.404166667,1,0,0,7.0373,Pumice_rect,8,7.037,1,1,0,1,0,1,,,,,,,,,,,,,
6643b96e963b9b0cf7d216f3,SCN,2024-06-25_14h30.52.257,LearnStrategy,2023.2.3,Win32,5.460065084,1,1,3,-0.064583333,-0.257291667,1,0,0,13.7979,Peridotite_13,7,13,2,4,13.798,0.159375,-0.247916667,1,0,0,12.5847,Diorite_rect,3,12.585,0,2,0,2,0,1,,,,,,,,,,,,,
6643b96e963b9b0cf7d216f3,SCN,2024-06-25_14h30.52.257,LearnStrategy,2023.2.3,Win32,5.460065084,1,1,4,-0.084375,0.245833333,1,0,0,10.8465,Pegmatite_16,6,16,5,4,10.846,0.148958333,-0.241666667,1,0,0,11.9357,Diorite_rect,3,11.936,0,3,0,3,0,1,,,,,,,,,,,,,
6643b96e963b9b0cf7d216f3,SCN,2024-06-25_14h30.52.257,LearnStrategy,2023.2.3,Win32,5.460065084,1,1,5,-0.572916667,-0.398958333,1,0,0,3.854,Pumice_16,8,16,1,1,3.854,-0.083333333,-0.251041667,1,0,0,7.3502,Basalt_rect,2,7.35,0,4,0,4,0,1,,,,,,,,,,,,,
6643b96e963b9b0cf7d216f3,SCN,2024-06-25_14h30.52.257,LearnStrategy,2023.2.3,Win32,5.460065084,1,1,6,-0.429166667,0.425,1,0,0,3.6235,Peridotite_04,7,04,6,2,3.624,0.098958333,-0.239583333,1,0,0,8.01,Diorite_rect,3,8.01,0,5,0,5,0,1,,,,,,,,,,,,,
6643b96e963b9b0cf7d216f3,SCN,2024-06-25_14h30.52.257,LearnStrategy,2023.2.3,Win32,5.460065084,1,1,7,0.548958333,0.227083333,1,0,0,2.3291,Diorite_10,3,10,5,8,2.329,-0.113541667,-0.254166667,1,0,0,9.2701,Basalt_rect,2,9.27,0,6,0,6,0,1,,,,,,,,,,,,,
6643b96e963b9b0cf7d216f3,SCN,2024-06-25_14h30.52.257,LearnStrategy,2023.2.3,Win32,5.460065084,1,1,8,-0.076041667,0.447916667,1,0,0,3.1687,Andesite_02,1,02,6,4,3.169,0.115625,-0.232291667,1,0,0,7.2186,Diorite_rect,3,7.219,0,7,0,7,0,1,,,,,,,,,,,,,
6643b96e963b9b0cf7d216f3,SCN,2024-06-25_14h30.52.257,LearnStrategy,2023.2.3,Win32,5.460065084,1,1,9,-0.54375,0.242708333,1,0,0,2.2131,Gabbro_13,4,13,5,1,2.213,-0.136458333,-0.247916667,1,0,0,3.5314,Basalt_rect,2,3.531,0,8,0,8,0,1,,,,,,,,,,,,,
6643b96e963b9b0cf7d216f3,SCN,2024-06-25_14h30.52.257,LearnStrategy,2023.2.3,Win32,5.460065084,1,1,10,0.380208333,-0.0875,1,0,0,3.8291,Gabbro_14,4,14,3,7,3.829,0.3625,-0.2375,1,0,0,2.0299,Gabbro_rect,4,2.03,1,9,0,9,0,1,,,,,,,,,,,,,
6643b96e963b9b0cf7d216f3,SCN,2024-06-25_14h30.52.257,LearnStrategy,2023.2.3,Win32,5.460065084,1,1,11,0.075,-0.405208333,1,0,0,6.7136,Gabbro_03,4,03,1,5,6.714,0.128125,-0.238541667,1,0,0,10.2282,Diorite_rect,3,10.228,0,10,0,10,0,1,,,,,,,,,,,,,
6643b96e963b9b0cf7d216f3,SCN,2024-06-25_14h30.52.257,LearnStrategy,2023.2.3,Win32,5.460065084,1,1,12,-0.226041667,0.253125,1,0,0,2.8201,Pegmatite_11,6,11,5,3,2.82,0.134375,-0.385416667,1,0,0,10.002,Peridotite_rect,7,10.002,0,11,0,11,0,1,,,,,,,,,,,,,
6643b96e963b9b0cf7d216f3,SCN,2024-06-25_14h30.52.257,LearnStrategy,2023.2.3,Win32,5.460065084,1,1,13,0.221875,0.404166667,1,0,0,6.3859,Basalt_09,2,09,6,6,6.386,-0.140625,-0.254166667,1,0,0,2.8782,Basalt_rect,2,2.878,1,12,0,12,0,1,,,,,,,,,,,,,
6643b96e963b9b0cf7d216f3,SCN,2024-06-25_14h30.52.257,LearnStrategy,2023.2.3,Win32,5.460065084,1,1,14,0.214583333,-0.239583333,1,0,0,4.6636,Basalt_04,2,04,2,6,4.664,-0.082291667,-0.23125,1,0,0,1.327,Basalt_rect,2,1.327,1,13,0,13,0,1,,,,,,,,,,,,,
6643b96e963b9b0cf7d216f3,SCN,2024-06-25_14h30.52.257,LearnStrategy,2023.2.3,Win32,5.460065084,1,1,15,-0.217708333,0.415625,1,0,0,5.2023,Diorite_08,3,08,6,3,5.202,-0.409375,-0.251041667,1,0,0,3.4187,Andesite_rect,1,3.419,0,14,0,14,0,1,,,,,,,,,,,,,
6643b96e963b9b0cf7d216f3,SCN,2024-06-25_14h30.52.257,LearnStrategy,2023.2.3,Win32,5.460065084,1,1,16,-0.21875,-0.251041667,1,0,0,7.411,Pumice_02,8,02,2,3,7.411,0.377083333,-0.404166667,1,0,0,1.8134,Pumice_rect,8,1.813,1,15,0,15,0,1,,,,,,,,,,,,,
6643b96e963b9b0cf7d216f3,SCN,2024-06-25_14h30.52.257,LearnStrategy,2023.2.3,Win32,5.460065084,1,2,1,,,,,,,,2,06,,,,,,,,,,,2,9.749,1,,,,,,-0.102083333,-0.25,1,0,0,9.7492,Basalt_rect,0,0,0,0,1,
6643b96e963b9b0cf7d216f3,SCN,2024-06-25_14h30.52.257,LearnStrategy,2023.2.3,Win32,5.460065084,1,2,2,,,,,,,,3,06,,,,,,,,,,,3,13.058,1,,,,,,0.139583333,-0.244791667,1,0,0,13.0577,Diorite_rect,1,0,1,0,1,
6643b96e963b9b0cf7d216f3,SCN,2024-06-25_14h30.52.257,LearnStrategy,2023.2.3,Win32,5.460065084,1,2,3,,,,,,,,6,07,,,,,,,,,,,6,3.717,1,,,,,,-0.107291667,-0.407291667,1,0,0,3.7171,Pegmatite_rect,2,0,2,0,1,
6643b96e963b9b0cf7d216f3,SCN,2024-06-25_14h30.52.257,LearnStrategy,2023.2.3,Win32,5.460065084,1,2,4,,,,,,,,6,15,,,,,,,,,,,6,13.659,1,,,,,,-0.173958333,-0.384375,1,0,0,13.6593,Pegmatite_rect,3,0,3,0,1,
6643b96e963b9b0cf7d216f3,SCN,2024-06-25_14h30.52.257,LearnStrategy,2023.2.3,Win32,5.460065084,1,2,5,,,,,,,,2,12,,,,,,,,,,,3,14.202,0,,,,,,0.157291667,-0.25,1,0,0,14.2017,Diorite_rect,4,0,4,0,1,
6643b96e963b9b0cf7d216f3,SCN,2024-06-25_14h30.52.257,LearnStrategy,2023.2.3,Win32,5.460065084,1,2,6,,,,,,,,4,10,,,,,,,,,,,2,8.416,0,,,,,,-0.154166667,-0.240625,1,0,0,8.416,Basalt_rect,5,0,5,0,1,
6643b96e963b9b0cf7d216f3,SCN,2024-06-25_14h30.52.257,LearnStrategy,2023.2.3,Win32,5.460065084,1,2,7,,,,,,,,7,10,,,,,,,,,,,3,8.612,0,,,,,,0.10625,-0.245833333,1,0,0,8.6124,Diorite_rect,6,0,6,0,1,
6643b96e963b9b0cf7d216f3,SCN,2024-06-25_14h30.52.257,LearnStrategy,2023.2.3,Win32,5.460065084,1,2,8,,,,,,,,4,05,,,,,,,,,,,1,6.76,0,,,,,,-0.366666667,-0.251041667,1,0,0,6.7604,Andesite_rect,7,0,7,0,1,
6643b96e963b9b0cf7d216f3,SCN,2024-06-25_14h30.52.257,LearnStrategy,2023.2.3,Win32,5.460065084,1,2,9,,,,,,,,3,09,,,,,,,,,,,1,3.097,0,,,,,,-0.385416667,-0.260416667,1,0,0,3.0965,Andesite_rect,8,0,8,0,1,
6643b96e963b9b0cf7d216f3,SCN,2024-06-25_14h30.52.257,LearnStrategy,2023.2.3,Win32,5.460065084,1,2,10,,,,,,,,1,04,,,,,,,,,,,7,9.933,0,,,,,,0.070833333,-0.39375,1,0,0,9.9332,Peridotite_rect,9,0,9,0,1,
6643b96e963b9b0cf7d216f3,SCN,2024-06-25_14h30.52.257,LearnStrategy,2023.2.3,Win32,5.460065084,1,2,11,,,,,,,,5,16,,,,,,,,,,,5,3.066,1,,,,,,-0.453125,-0.388541667,1,0,0,3.0658,Obsidian_rect,10,0,10,0,1,
6643b96e963b9b0cf7d216f3,SCN,2024-06-25_14h30.52.257,LearnStrategy,2023.2.3,Win32,5.460065084,1,2,12,,,,,,,,7,14,,,,,,,,,,,3,3.281,0,,,,,,0.070833333,-0.242708333,1,0,0,3.281,Diorite_rect,11,0,11,0,1,
6643b96e963b9b0cf7d216f3,SCN,2024-06-25_14h30.52.257,LearnStrategy,2023.2.3,Win32,5.460065084,1,2,13,,,,,,,,8,09,,,,,,,,,,,8,1.598,1,,,,,,0.367708333,-0.388541667,1,0,0,1.5984,Pumice_rect,12,0,12,0,1,
6643b96e963b9b0cf7d216f3,SCN,2024-06-25_14h30.52.257,LearnStrategy,2023.2.3,Win32,5.460065084,1,2,14,,,,,,,,8,06,,,,,,,,,,,8,3.177,1,,,,,,0.38125,-0.409375,1,0,0,3.177,Pumice_rect,13,0,13,0,1,
6643b96e963b9b0cf7d216f3,SCN,2024-06-25_14h30.52.257,LearnStrategy,2023.2.3,Win32,5.460065084,1,2,15,,,,,,,,1,06,,,,,,,,,,,7,13.185,0,,,,,,0.160416667,-0.394791667,1,0,0,13.1854,Peridotite_rect,14,0,14,0,1,
6643b96e963b9b0cf7d216f3,SCN,2024-06-25_14h30.52.257,LearnStrategy,2023.2.3,Win32,5.460065084,1,2,16,,,,,,,,5,10,,,,,,,,,,,5,5.935,1,,,,,,-0.440625,-0.384375,1,0,0,5.9353,Obsidian_rect,15,0,15,0,1,
6643b96e963b9b0cf7d216f3,SCN,2024-06-25_14h30.52.257,LearnStrategy,2023.2.3,Win32,5.460065084,2,1,1,0.104166667,0.43125,1,0,0,6.4502,Diorite_02,3,02,6,5,6.45,0.186458333,-0.235416667,1,0,0,13.6292,Diorite_rect,3,13.629,1,0,0,0,0,1,,,,,,,,,,,,,
6643b96e963b9b0cf7d216f3,SCN,2024-06-25_14h30.52.257,LearnStrategy,2023.2.3,Win32,5.460065084,2,1,2,0.566666667,-0.276041667,1,0,0,6.9906,Pegmatite_05,6,05,2,8,6.991,-0.390625,-0.259375,1,0,0,6.7124,Andesite_rect,1,6.712,0,1,0,1,0,1,,,,,,,,,,,,,
6643b96e963b9b0cf7d216f3,SCN,2024-06-25_14h30.52.257,LearnStrategy,2023.2.3,Win32,5.460065084,2,1,3,-0.363541667,-0.213541667,1,0,0,2.8343,Diorite_07,3,07,2,2,2.834,-0.3625,-0.235416667,1,0,0,7.7386,Andesite_rect,1,7.739,0,2,0,2,0,1,,,,,,,,,,,,,
6643b96e963b9b0cf7d216f3,SCN,2024-06-25_14h30.52.257,LearnStrategy,2023.2.3,Win32,5.460065084,2,1,4,0.563541667,0.242708333,1,0,0,2.8687,Diorite_10,3,10,5,8,2.869,0.111458333,-0.25,1,0,0,3.0957,Diorite_rect,3,3.096,1,3,0,3,0,1,,,,,,,,,,,,,
6643b96e963b9b0cf7d216f3,SCN,2024-06-25_14h30.52.257,LearnStrategy,2023.2.3,Win32,5.460065084,2,1,5,-0.053125,0.427083333,1,0,0,1.8741,Andesite_02,1,02,6,4,1.874,-0.34375,-0.2375,1,0,0,1.7932,Andesite_rect,1,1.793,1,4,0,4,0,1,,,,,,,,,,,,,
6643b96e963b9b0cf7d216f3,SCN,2024-06-25_14h30.52.257,LearnStrategy,2023.2.3,Win32,5.460065084,2,1,6,-0.389583333,-0.3875,1,0,0,5.2102,Andesite_01,1,01,1,2,5.21,0.139583333,-0.38125,1,0,0,6.0885,Peridotite_rect,7,6.089,0,5,0,5,0,1,,,,,,,,,,,,,
6643b96e963b9b0cf7d216f3,SCN,2024-06-25_14h30.52.257,LearnStrategy,2023.2.3,Win32,5.460065084,2,1,7,-0.3875,-0.105208333,1,0,0,6.4163,Peridotite_16,7,16,3,2,6.416,0.138541667,-0.245833333,1,0,0,3.848,Diorite_rect,3,3.848,0,6,0,6,0,1,,,,,,,,,,,,,
6643b96e963b9b0cf7d216f3,SCN,2024-06-25_14h30.52.257,LearnStrategy,2023.2.3,Win32,5.460065084,2,1,8,-0.06875,-0.429166667,1,0,0,12.1538,Peridotite_07,7,07,1,4,12.154,0.094791667,-0.25625,1,0,0,2.0509,Diorite_rect,3,2.051,0,7,0,7,0,1,,,,,,,,,,,,,
6643b96e963b9b0cf7d216f3,SCN,2024-06-25_14h30.52.257,LearnStrategy,2023.2.3,Win32,5.460065084,2,1,9,-0.070833333,-0.254166667,1,0,0,2.8168,Peridotite_13,7,13,2,4,2.817,0.089583333,-0.233333333,1,0,0,1.2994,Diorite_rect,3,1.299,0,8,0,8,0,1,,,,,,,,,,,,,
6643b96e963b9b0cf7d216f3,SCN,2024-06-25_14h30.52.257,LearnStrategy,2023.2.3,Win32,5.460065084,2,1,10,-0.054166667,0.084375,1,0,0,2.561,Andesite_05,1,05,4,4,2.561,-0.15,-0.3875,1,0,0,4.4109,Pegmatite_rect,6,4.411,0,9,0,9,0,1,,,,,,,,,,,,,
6643b96e963b9b0cf7d216f3,SCN,2024-06-25_14h30.52.257,LearnStrategy,2023.2.3,Win32,5.460065084,2,1,11,0.241666667,-0.084375,1,0,0,5.4845,Diorite_12,3,12,3,6,5.484,0.107291667,-0.247916667,1,0,0,4.9107,Diorite_rect,3,4.911,1,10,0,10,0,1,,,,,,,,,,,,,
6643b96e963b9b0cf7d216f3,SCN,2024-06-25_14h30.52.257,LearnStrategy,2023.2.3,Win32,5.460065084,2,1,12,0.069791667,0.404166667,1,0,0,2.0744,Diorite_02,3,02,6,5,2.074,0.125,-0.251041667,1,0,0,9.9108,Diorite_rect,3,9.911,1,11,0,11,0,1,,,,,,,,,,,,,
6643b96e963b9b0cf7d216f3,SCN,2024-06-25_14h30.52.257,LearnStrategy,2023.2.3,Win32,5.460065084,2,1,13,-0.432291667,0.413541667,1,0,0,3.378,Peridotite_04,7,04,6,2,3.378,0.107291667,-0.396875,1,0,0,8.7985,Peridotite_rect,7,8.799,1,12,0,12,0,1,,,,,,,,,,,,,
6643b96e963b9b0cf7d216f3,SCN,2024-06-25_14h30.52.257,LearnStrategy,2023.2.3,Win32,5.460065084,2,1,14,0.577083333,-0.1,1,0,0,2.3567,Pegmatite_03,6,03,3,8,2.357,-0.082291667,-0.390625,1,0,0,3.7906,Pegmatite_rect,6,3.791,1,13,0,13,0,1,,,,,,,,,,,,,
6643b96e963b9b0cf7d216f3,SCN,2024-06-25_14h30.52.257,LearnStrategy,2023.2.3,Win32,5.460065084,2,1,15,0.407291667,-0.266666667,1,0,0,2.8767,Peridotite_08,7,08,2,7,2.877,0.127083333,-0.386458333,1,0,0,2.3706,Peridotite_rect,7,2.371,1,14,0,14,0,1,,,,,,,,,,,,,
6643b96e963b9b0cf7d216f3,SCN,2024-06-25_14h30.52.257,LearnStrategy,2023.2.3,Win32,5.460065084,2,1,16,0.077083333,-0.432291667,1,0,0,5.4346,Gabbro_03,4,03,1,5,5.435,0.377083333,-0.252083333,1,0,0,5.8214,Gabbro_rect,4,5.821,1,15,0,15,0,1,,,,,,,,,,,,,
6643b96e963b9b0cf7d216f3,SCN,2024-06-25_14h30.52.257,LearnStrategy,2023.2.3,Win32,5.460065084,2,2,1,,,,,,,,3,13,,,,,,,,,,,7,9.863,0,,,,,,0.119791667,-0.404166667,1,0,0,9.8632,Peridotite_rect,0,0,0,0,1,
6643b96e963b9b0cf7d216f3,SCN,2024-06-25_14h30.52.257,LearnStrategy,2023.2.3,Win32,5.460065084,2,2,2,,,,,,,,5,07,,,,,,,,,,,5,4.451,1,,,,,,-0.405208333,-0.390625,1,0,0,4.4509,Obsidian_rect,1,0,1,0,1,
6643b96e963b9b0cf7d216f3,SCN,2024-06-25_14h30.52.257,LearnStrategy,2023.2.3,Win32,5.460065084,2,2,3,,,,,,,,6,06,,,,,,,,,,,6,6.863,1,,,,,,-0.104166667,-0.397916667,1,0,0,6.8631,Pegmatite_rect,2,0,2,0,1,
6643b96e963b9b0cf7d216f3,SCN,2024-06-25_14h30.52.257,LearnStrategy,2023.2.3,Win32,5.460065084,2,2,4,,,,,,,,4,01,,,,,,,,,,,4,17.904,1,,,,,,0.357291667,-0.245833333,1,0,0,17.9044,Gabbro_rect,3,0,3,0,1,
6643b96e963b9b0cf7d216f3,SCN,2024-06-25_14h30.52.257,LearnStrategy,2023.2.3,Win32,5.460065084,2,2,5,,,,,,,,3,15,,,,,,,,,,,4,12.486,0,,,,,,0.3625,-0.255208333,1,0,0,12.4855,Gabbro_rect,4,0,4,0,1,
6643b96e963b9b0cf7d216f3,SCN,2024-06-25_14h30.52.257,LearnStrategy,2023.2.3,Win32,5.460065084,2,2,6,,,,,,,,2,08,,,,,,,,,,,2,3.925,1,,,,,,-0.127083333,-0.257291667,1,0,0,3.9251,Basalt_rect,5,0,5,0,1,
6643b96e963b9b0cf7d216f3,SCN,2024-06-25_14h30.52.257,LearnStrategy,2023.2.3,Win32,5.460065084,2,2,7,,,,,,,,7,02,,,,,,,,,,,7,1.888,1,,,,,,0.092708333,-0.397916667,1,0,0,1.8877,Peridotite_rect,6,0,6,0,1,
6643b96e963b9b0cf7d216f3,SCN,2024-06-25_14h30.52.257,LearnStrategy,2023.2.3,Win32,5.460065084,2,2,8,,,,,,,,8,05,,,,,,,,,,,8,2.682,1,,,,,,0.367708333,-0.3875,1,0,0,2.6815,Pumice_rect,7,0,7,0,1,
6643b96e963b9b0cf7d216f3,SCN,2024-06-25_14h30.52.257,LearnStrategy,2023.2.3,Win32,5.460065084,2,2,9,,,,,,,,8,15,,,,,,,,,,,8,1.541,1,,,,,,0.375,-0.402083333,1,0,0,1.5413,Pumice_rect,8,0,8,0,1,
6643b96e963b9b0cf7d216f3,SCN,2024-06-25_14h30.52.257,LearnStrategy,2023.2.3,Win32,5.460065084,2,2,10,,,,,,,,4,15,,,,,,,,,,,4,19.349,1,,,,,,0.434375,-0.234375,1,0,0,19.3486,Gabbro_rect,9,0,9,0,1,
6643b96e963b9b0cf7d216f3,SCN,2024-06-25_14h30.52.257,LearnStrategy,2023.2.3,Win32,5.460065084,2,2,11,,,,,,,,1,07,,,,,,,,,,,1,14.765,1,,,,,,-0.355208333,-0.236458333,1,0,0,14.7648,Andesite_rect,10,0,10,0,1,
6643b96e963b9b0cf7d216f3,SCN,2024-06-25_14h30.52.257,LearnStrategy,2023.2.3,Win32,5.460065084,2,2,12,,,,,,,,5,11,,,,,,,,,,,5,4.28,1,,,,,,-0.40625,-0.414583333,1,0,0,4.2802,Obsidian_rect,11,0,11,0,1,
6643b96e963b9b0cf7d216f3,SCN,2024-06-25_14h30.52.257,LearnStrategy,2023.2.3,Win32,5.460065084,2,2,13,,,,,,,,6,13,,,,,,,,,,,6,2.29,1,,,,,,-0.101041667,-0.407291667,1,0,0,2.2903,Pegmatite_rect,12,0,12,0,1,
6643b96e963b9b0cf7d216f3,SCN,2024-06-25_14h30.52.257,LearnStrategy,2023.2.3,Win32,5.460065084,2,2,14,,,,,,,,2,10,,,,,,,,,,,2,1.616,1,,,,,,-0.15,-0.267708333,1,0,0,1.6162,Basalt_rect,13,0,13,0,1,
6643b96e963b9b0cf7d216f3,SCN,2024-06-25_14h30.52.257,LearnStrategy,2023.2.3,Win32,5.460065084,2,2,15,,,,,,,,1,16,,,,,,,,,,,3,2.159,0,,,,,,0.160416667,-0.247916667,1,0,0,2.1589,Diorite_rect,14,0,14,0,1,
6643b96e963b9b0cf7d216f3,SCN,2024-06-25_14h30.52.257,LearnStrategy,2023.2.3,Win32,5.460065084,2,2,16,,,,,,,,7,05,,,,,,,,,,,7,7.539,1,,,,,,0.144791667,-0.397916667,1,0,0,7.5385,Peridotite_rect,15,0,15,0,1,
6643b96e963b9b0cf7d216f3,SCN,2024-06-25_14h30.52.257,LearnStrategy,2023.2.3,Win32,5.460065084,3,1,1,0.059375,0.40625,1,0,0,2.6176,Diorite_02,3,02,6,5,2.618,0.086458333,-0.244791667,1,0,0,10.8363,Diorite_rect,3,10.836,1,0,0,0,0,1,,,,,,,,,,,,,
6643b96e963b9b0cf7d216f3,SCN,2024-06-25_14h30.52.257,LearnStrategy,2023.2.3,Win32,5.460065084,3,1,2,-0.239583333,0.411458333,1,0,0,2.5465,Diorite_08,3,08,6,3,2.547,0.116666667,-0.229166667,1,0,0,6.5311,Diorite_rect,3,6.531,1,1,0,1,0,1,,,,,,,,,,,,,
6643b96e963b9b0cf7d216f3,SCN,2024-06-25_14h30.52.257,LearnStrategy,2023.2.3,Win32,5.460065084,3,1,3,-0.246875,-0.405208333,1,0,0,2.0311,Diorite_14,3,14,1,3,2.031,0.182291667,-0.242708333,1,0,0,1.568,Diorite_rect,3,1.568,1,2,0,2,0,1,,,,,,,,,,,,,
6643b96e963b9b0cf7d216f3,SCN,2024-06-25_14h30.52.257,LearnStrategy,2023.2.3,Win32,5.460065084,3,1,4,-0.077083333,0.271875,1,0,0,2.3287,Pegmatite_16,6,16,5,4,2.329,-0.104166667,-0.392708333,1,0,0,1.4012,Pegmatite_rect,6,1.401,1,3,0,3,0,1,,,,,,,,,,,,,
6643b96e963b9b0cf7d216f3,SCN,2024-06-25_14h30.52.257,LearnStrategy,2023.2.3,Win32,5.460065084,3,1,5,-0.386458333,0.101041667,1,0,0,4.8799,Pegmatite_08,6,08,4,2,4.88,-0.158333333,-0.392708333,1,0,0,2.3351,Pegmatite_rect,6,2.335,1,4,0,4,0,1,,,,,,,,,,,,,
6643b96e963b9b0cf7d216f3,SCN,2024-06-25_14h30.52.257,LearnStrategy,2023.2.3,Win32,5.460065084,3,1,6,0.567708333,0.245833333,1,0,0,2.0358,Diorite_10,3,10,5,8,2.036,0.120833333,-0.401041667,1,0,0,2.1068,Peridotite_rect,7,2.107,0,5,0,5,0,1,,,,,,,,,,,,,
6643b96e963b9b0cf7d216f3,SCN,2024-06-25_14h30.52.257,LearnStrategy,2023.2.3,Win32,5.460065084,3,1,7,0.25625,-0.071875,1,0,0,1.8251,Diorite_12,3,12,3,6,1.825,0.129166667,-0.235416667,1,0,0,3.0759,Diorite_rect,3,3.076,1,6,0,6,0,1,,,,,,,,,,,,,
6643b96e963b9b0cf7d216f3,SCN,2024-06-25_14h30.52.257,LearnStrategy,2023.2.3,Win32,5.460065084,3,1,8,-0.541666667,0.414583333,1,0,0,3.1465,Peridotite_15,7,15,6,1,3.146,0.123958333,-0.380208333,1,0,0,2.2632,Peridotite_rect,7,2.263,1,7,0,7,0,1,,,,,,,,,,,,,
6643b96e963b9b0cf7d216f3,SCN,2024-06-25_14h30.52.257,LearnStrategy,2023.2.3,Win32,5.460065084,3,1,9,-0.433333333,0.435416667,1,0,0,1.536,Peridotite_04,7,04,6,2,1.536,-0.372916667,-0.25,1,0,0,1.3002,Andesite_rect,1,1.3,0,8,0,8,0,1,,,,,,,,,,,,,
6643b96e963b9b0cf7d216f3,SCN,2024-06-25_14h30.52.257,LearnStrategy,2023.2.3,Win32,5.460065084,3,1,10,-0.365625,-0.222916667,1,0,0,9.4702,Diorite_07,3,07,2,2,9.47,-0.36875,-0.2375,1,0,0,2.9559,Andesite_rect,1,2.956,0,9,0,9,0,1,,,,,,,,,,,,,
6643b96e963b9b0cf7d216f3,SCN,2024-06-25_14h30.52.257,LearnStrategy,2023.2.3,Win32,5.460065084,3,1,11,-0.585416667,0.267708333,1,0,0,4.3961,Gabbro_13,4,13,5,1,4.396,0.3375,-0.230208333,1,0,0,2.1635,Gabbro_rect,4,2.163,1,10,0,10,0,1,,,,,,,,,,,,,
6643b96e963b9b0cf7d216f3,SCN,2024-06-25_14h30.52.257,LearnStrategy,2023.2.3,Win32,5.460065084,3,1,12,0.40625,-0.275,1,0,0,3.8903,Peridotite_08,7,08,2,7,3.89,0.065625,-0.401041667,1,0,0,2.0736,Peridotite_rect,7,2.074,1,11,0,11,0,1,,,,,,,,,,,,,
6643b96e963b9b0cf7d216f3,SCN,2024-06-25_14h30.52.257,LearnStrategy,2023.2.3,Win32,5.460065084,3,1,13,-0.523958333,-0.097916667,1,0,0,2.397,Pumice_10,8,10,3,1,2.397,0.425,-0.419791667,1,0,0,1.8103,Pumice_rect,8,1.81,1,12,0,12,0,1,,,,,,,,,,,,,
6643b96e963b9b0cf7d216f3,SCN,2024-06-25_14h30.52.257,LearnStrategy,2023.2.3,Win32,5.460065084,3,1,14,0.378125,0.38125,1,0,0,3.4913,Gabbro_11,4,11,6,7,3.491,-0.140625,-0.244791667,1,0,0,2.8987,Basalt_rect,2,2.899,0,13,0,13,0,1,,,,,,,,,,,,,
6643b96e963b9b0cf7d216f3,SCN,2024-06-25_14h30.52.257,LearnStrategy,2023.2.3,Win32,5.460065084,3,1,15,-0.052083333,0.084375,1,0,0,3.7942,Andesite_05,1,05,4,4,3.794,-0.327083333,-0.23125,1,0,0,1.9957,Andesite_rect,1,1.996,1,14,0,14,0,1,,,,,,,,,,,,,
6643b96e963b9b0cf7d216f3,SCN,2024-06-25_14h30.52.257,LearnStrategy,2023.2.3,Win32,5.460065084,3,1,16,0.560416667,0.091666667,1,0,0,4.1455,Andesite_09,1,09,4,8,4.145,-0.365625,-0.236458333,1,0,0,1.3149,Andesite_rect,1,1.315,1,15,0,15,0,1,,,,,,,,,,,,,
6643b96e963b9b0cf7d216f3,SCN,2024-06-25_14h30.52.257,LearnStrategy,2023.2.3,Win32,5.460065084,3,2,1,,,,,,,,1,14,,,,,,,,,,,1,15.79,1,,,,,,-0.378125,-0.247916667,1,0,0,15.7903,Andesite_rect,0,0,0,0,1,
6643b96e963b9b0cf7d216f3,SCN,2024-06-25_14h30.52.257,LearnStrategy,2023.2.3,Win32,5.460065084,3,2,2,,,,,,,,1,03,,,,,,,,,,,3,18.802,0,,,,,,0.176041667,-0.239583333,1,0,0,18.8017,Diorite_rect,1,0,1,0,1,
6643b96e963b9b0cf7d216f3,SCN,2024-06-25_14h30.52.257,LearnStrategy,2023.2.3,Win32,5.460065084,3,2,3,,,,,,,,3,16,,,,,,,,,,,3,4.538,1,,,,,,0.15625,-0.2375,1,0,0,4.5378,Diorite_rect,2,0,2,0,1,
6643b96e963b9b0cf7d216f3,SCN,2024-06-25_14h30.52.257,LearnStrategy,2023.2.3,Win32,5.460065084,3,2,4,,,,,,,,4,09,,,,,,,,,,,2,8.851,0,,,,,,-0.134375,-0.25625,1,0,0,8.8508,Basalt_rect,3,0,3,0,1,
6643b96e963b9b0cf7d216f3,SCN,2024-06-25_14h30.52.257,LearnStrategy,2023.2.3,Win32,5.460065084,3,2,5,,,,,,,,3,11,,,,,,,,,,,7,8.628,0,,,,,,0.136458333,-0.39375,1,0,0,8.6277,Peridotite_rect,4,0,4,0,1,
6643b96e963b9b0cf7d216f3,SCN,2024-06-25_14h30.52.257,LearnStrategy,2023.2.3,Win32,5.460065084,3,2,6,,,,,,,,5,05,,,,,,,,,,,5,1.578,1,,,,,,-0.344791667,-0.392708333,1,0,0,1.5776,Obsidian_rect,5,0,5,0,1,
6643b96e963b9b0cf7d216f3,SCN,2024-06-25_14h30.52.257,LearnStrategy,2023.2.3,Win32,5.460065084,3,2,7,,,,,,,,6,12,,,,,,,,,,,6,3.001,1,,,,,,-0.191666667,-0.402083333,1,0,0,3.0013,Pegmatite_rect,6,0,6,0,1,
6643b96e963b9b0cf7d216f3,SCN,2024-06-25_14h30.52.257,LearnStrategy,2023.2.3,Win32,5.460065084,3,2,8,,,,,,,,8,13,,,,,,,,,,,8,2.569,1,,,,,,0.330208333,-0.388541667,1,0,0,2.5694,Pumice_rect,7,0,7,0,1,
6643b96e963b9b0cf7d216f3,SCN,2024-06-25_14h30.52.257,LearnStrategy,2023.2.3,Win32,5.460065084,3,2,9,,,,,,,,6,10,,,,,,,,,,,7,7.144,0,,,,,,0.079166667,-0.397916667,1,0,0,7.1435,Peridotite_rect,8,0,8,0,1,
6643b96e963b9b0cf7d216f3,SCN,2024-06-25_14h30.52.257,LearnStrategy,2023.2.3,Win32,5.460065084,3,2,10,,,,,,,,2,14,,,,,,,,,,,4,4.062,0,,,,,,0.353125,-0.244791667,1,0,0,4.0616,Gabbro_rect,9,0,9,0,1,
6643b96e963b9b0cf7d216f3,SCN,2024-06-25_14h30.52.257,LearnStrategy,2023.2.3,Win32,5.460065084,3,2,11,,,,,,,,7,06,,,,,,,,,,,7,2.065,1,,,,,,0.082291667,-0.401041667,1,0,0,2.065,Peridotite_rect,10,0,10,0,1,
6643b96e963b9b0cf7d216f3,SCN,2024-06-25_14h30.52.257,LearnStrategy,2023.2.3,Win32,5.460065084,3,2,12,,,,,,,,2,05,,,,,,,,,,,2,1.339,1,,,,,,-0.088541667,-0.245833333,1,0,0,1.3385,Basalt_rect,11,0,11,0,1,
6643b96e963b9b0cf7d216f3,SCN,2024-06-25_14h30.52.257,LearnStrategy,2023.2.3,Win32,5.460065084,3,2,13,,,,,,,,8,14,,,,,,,,,,,8,2.221,1,,,,,,0.329166667,-0.379166667,1,0,0,2.221,Pumice_rect,12,0,12,0,1,
6643b96e963b9b0cf7d216f3,SCN,2024-06-25_14h30.52.257,LearnStrategy,2023.2.3,Win32,5.460065084,3,2,14,,,,,,,,7,12,,,,,,,,,,,7,3.384,1,,,,,,0.091666667,-0.39375,1,0,0,3.3842,Peridotite_rect,13,0,13,0,1,
6643b96e963b9b0cf7d216f3,SCN,2024-06-25_14h30.52.257,LearnStrategy,2023.2.3,Win32,5.460065084,3,2,15,,,,,,,,4,12,,,,,,,,,,,4,14.318,1,,,,,,0.39375,-0.24375,1,0,0,14.3184,Gabbro_rect,14,0,14,0,1,
6643b96e963b9b0cf7d216f3,SCN,2024-06-25_14h30.52.257,LearnStrategy,2023.2.3,Win32,5.460065084,3,2,16,,,,,,,,5,14,,,,,,,,,,,5,1.321,1,,,,,,-0.3875,-0.39375,1,0,0,1.3212,Obsidian_rect,15,0,15,0,1,
6643b96e963b9b0cf7d216f3,SCN,2024-06-25_14h30.52.257,LearnStrategy,2023.2.3,Win32,5.460065084,4,1,1,0.067708333,0.389583333,1,0,0,2.2933,Diorite_02,3,02,6,5,2.293,0.127083333,-0.238541667,1,0,0,3.4405,Diorite_rect,3,3.441,1,0,0,0,0,1,,,,,,,,,,,,,
6643b96e963b9b0cf7d216f3,SCN,2024-06-25_14h30.52.257,LearnStrategy,2023.2.3,Win32,5.460065084,4,1,2,-0.082291667,0.43125,1,0,0,2.8876,Andesite_02,1,02,6,4,2.888,-0.379166667,-0.244791667,1,0,0,2.0222,Andesite_rect,1,2.022,1,1,0,1,0,1,,,,,,,,,,,,,
6643b96e963b9b0cf7d216f3,SCN,2024-06-25_14h30.52.257,LearnStrategy,2023.2.3,Win32,5.460065084,4,1,3,-0.55,0.442708333,1,0,0,1.3059,Peridotite_15,7,15,6,1,1.306,0.039583333,-0.411458333,1,0,0,1.6015,Peridotite_rect,7,1.601,1,2,0,2,0,1,,,,,,,,,,,,,
6643b96e963b9b0cf7d216f3,SCN,2024-06-25_14h30.52.257,LearnStrategy,2023.2.3,Win32,5.460065084,4,1,4,-0.351041667,0.385416667,1,0,0,1.5476,Peridotite_04,7,04,6,2,1.548,-0.334375,-0.241666667,1,0,0,4.1481,Andesite_rect,1,4.148,0,3,0,3,0,1,,,,,,,,,,,,,
6643b96e963b9b0cf7d216f3,SCN,2024-06-25_14h30.52.257,LearnStrategy,2023.2.3,Win32,5.460065084,4,1,5,0.347916667,0.394791667,1,0,0,1.7985,Gabbro_11,4,11,6,7,1.798,-0.102083333,-0.255208333,1,0,0,1.5923,Basalt_rect,2,1.592,0,4,0,4,0,1,,,,,,,,,,,,,
6643b96e963b9b0cf7d216f3,SCN,2024-06-25_14h30.52.257,LearnStrategy,2023.2.3,Win32,5.460065084,4,1,6,0.233333333,0.39375,1,0,0,2.8548,Basalt_09,2,09,6,6,2.855,-0.110416667,-0.238541667,1,0,0,2.6788,Basalt_rect,2,2.679,1,5,0,5,0,1,,,,,,,,,,,,,
6643b96e963b9b0cf7d216f3,SCN,2024-06-25_14h30.52.257,LearnStrategy,2023.2.3,Win32,5.460065084,4,1,7,0.569791667,0.401041667,1,0,0,1.2636,Basalt_01,2,01,6,8,1.264,-0.123958333,-0.230208333,1,0,0,2.255,Basalt_rect,2,2.255,1,6,0,6,0,1,,,,,,,,,,,,,
6643b96e963b9b0cf7d216f3,SCN,2024-06-25_14h30.52.257,LearnStrategy,2023.2.3,Win32,5.460065084,4,1,8,0.101041667,0.098958333,1,0,0,2.326,Andesite_11,1,11,4,5,2.326,-0.077083333,-0.396875,1,0,0,1.7476,Pegmatite_rect,6,1.748,0,7,0,7,0,1,,,,,,,,,,,,,
6643b96e963b9b0cf7d216f3,SCN,2024-06-25_14h30.52.257,LearnStrategy,2023.2.3,Win32,5.460065084,4,1,9,-0.215625,-0.115625,1,0,0,5.366,Basalt_11,2,11,3,3,5.366,-0.378125,-0.246875,1,0,0,1.3808,Andesite_rect,1,1.381,0,8,0,8,0,1,,,,,,,,,,,,,
6643b96e963b9b0cf7d216f3,SCN,2024-06-25_14h30.52.257,LearnStrategy,2023.2.3,Win32,5.460065084,4,1,10,0.540625,0.097916667,1,0,0,4.0758,Andesite_09,1,09,4,8,4.076,-0.360416667,-0.238541667,1,0,0,3.9289,Andesite_rect,1,3.929,1,9,0,9,0,1,,,,,,,,,,,,,
6643b96e963b9b0cf7d216f3,SCN,2024-06-25_14h30.52.257,LearnStrategy,2023.2.3,Win32,5.460065084,4,1,11,0.371875,0.069791667,1,0,0,1.5363,Gabbro_08,4,08,4,7,1.536,-0.329166667,-0.240625,1,0,0,5.3455,Andesite_rect,1,5.345,0,10,0,10,0,1,,,,,,,,,,,,,
6643b96e963b9b0cf7d216f3,SCN,2024-06-25_14h30.52.257,LearnStrategy,2023.2.3,Win32,5.460065084,4,1,12,-0.514583333,-0.092708333,1,0,0,2.5694,Pumice_10,8,10,3,1,2.569,0.378125,-0.407291667,1,0,0,4.6306,Pumice_rect,8,4.631,1,11,0,11,0,1,,,,,,,,,,,,,
6643b96e963b9b0cf7d216f3,SCN,2024-06-25_14h30.52.257,LearnStrategy,2023.2.3,Win32,5.460065084,4,1,13,-0.369791667,-0.105208333,1,0,0,1.8661,Peridotite_16,7,16,3,2,1.866,0.083333333,-0.389583333,1,0,0,1.5285,Peridotite_rect,7,1.529,1,12,0,12,0,1,,,,,,,,,,,,,
6643b96e963b9b0cf7d216f3,SCN,2024-06-25_14h30.52.257,LearnStrategy,2023.2.3,Win32,5.460065084,4,1,14,0.233333333,-0.102083333,1,0,0,3.6404,Diorite_12,3,12,3,6,3.64,0.164583333,-0.247916667,1,0,0,7.1693,Diorite_rect,3,7.169,1,13,0,13,0,1,,,,,,,,,,,,,
6643b96e963b9b0cf7d216f3,SCN,2024-06-25_14h30.52.257,LearnStrategy,2023.2.3,Win32,5.460065084,4,1,15,0.528125,-0.095833333,1,0,0,1.8347,Pegmatite_03,6,03,3,8,1.835,-0.148958333,-0.38125,1,0,0,2.407,Pegmatite_rect,6,2.407,1,14,0,14,0,1,,,,,,,,,,,,,
6643b96e963b9b0cf7d216f3,SCN,2024-06-25_14h30.52.257,LearnStrategy,2023.2.3,Win32,5.460065084,4,1,16,0.379166667,-0.276041667,1,0,0,1.7787,Peridotite_08,7,08,2,7,1.779,0.063541667,-0.384375,1,0,0,2.5897,Peridotite_rect,7,2.59,1,15,0,15,0,1,,,,,,,,,,,,,
6643b96e963b9b0cf7d216f3,SCN,2024-06-25_14h30.52.257,LearnStrategy,2023.2.3,Win32,5.460065084,4,2,1,,,,,,,,6,10,,,,,,,,,,,6,21.976,1,,,,,,-0.147916667,-0.401041667,1,0,0,21.9757,Pegmatite_rect,0,0,0,0,1,
6643b96e963b9b0cf7d216f3,SCN,2024-06-25_14h30.52.257,LearnStrategy,2023.2.3,Win32,5.460065084,4,2,2,,,,,,,,2,10,,,,,,,,,,,2,3.234,1,,,,,,-0.088541667,-0.239583333,1,0,0,3.2337,Basalt_rect,1,0,1,0,1,
6643b96e963b9b0cf7d216f3,SCN,2024-06-25_14h30.52.257,LearnStrategy,2023.2.3,Win32,5.460065084,4,2,3,,,,,,,,1,16,,,,,,,,,,,1,2.164,1,,,,,,-0.390625,-0.254166667,1,0,0,2.1639,Andesite_rect,2,0,2,0,1,
6643b96e963b9b0cf7d216f3,SCN,2024-06-25_14h30.52.257,LearnStrategy,2023.2.3,Win32,5.460065084,4,2,4,,,,,,,,8,13,,,,,,,,,,,4,6.935,0,,,,,,0.398958333,-0.229166667,1,0,0,6.9351,Gabbro_rect,3,0,3,0,1,
6643b96e963b9b0cf7d216f3,SCN,2024-06-25_14h30.52.257,LearnStrategy,2023.2.3,Win32,5.460065084,4,2,5,,,,,,,,3,11,,,,,,,,,,,1,20.4,0,,,,,,-0.40625,-0.244791667,1,0,0,20.4002,Andesite_rect,4,0,4,0,1,
6643b96e963b9b0cf7d216f3,SCN,2024-06-25_14h30.52.257,LearnStrategy,2023.2.3,Win32,5.460065084,4,2,6,,,,,,,,3,09,,,,,,,,,,,3,2.535,1,,,,,,0.080208333,-0.246875,1,0,0,2.5349,Diorite_rect,5,0,5,0,1,
6643b96e963b9b0cf7d216f3,SCN,2024-06-25_14h30.52.257,LearnStrategy,2023.2.3,Win32,5.460065084,4,2,7,,,,,,,,4,15,,,,,,,,,,,1,13.025,0,,,,,,-0.398958333,-0.264583333,1,0,0,13.025,Andesite_rect,6,0,6,0,1,
6643b96e963b9b0cf7d216f3,SCN,2024-06-25_14h30.52.257,LearnStrategy,2023.2.3,Win32,5.460065084,4,2,8,,,,,,,,1,03,,,,,,,,,,,1,6.252,1,,,,,,-0.367708333,-0.236458333,1,0,0,6.2524,Andesite_rect,7,0,7,0,1,
6643b96e963b9b0cf7d216f3,SCN,2024-06-25_14h30.52.257,LearnStrategy,2023.2.3,Win32,5.460065084,4,2,9,,,,,,,,2,06,,,,,,,,,,,2,1.582,1,,,,,,-0.103125,-0.238541667,1,0,0,1.5817,Basalt_rect,8,0,8,0,1,
6643b96e963b9b0cf7d216f3,SCN,2024-06-25_14h30.52.257,LearnStrategy,2023.2.3,Win32,5.460065084,4,2,10,,,,,,,,4,12,,,,,,,,,,,4,1.302,1,,,,,,0.472916667,-0.246875,1,0,0,1.3019,Gabbro_rect,9,0,9,0,1,
6643b96e963b9b0cf7d216f3,SCN,2024-06-25_14h30.52.257,LearnStrategy,2023.2.3,Win32,5.460065084,4,2,11,,,,,,,,5,07,,,,,,,,,,,5,2.212,1,,,,,,-0.364583333,-0.41875,1,0,0,2.212,Obsidian_rect,10,0,10,0,1,
6643b96e963b9b0cf7d216f3,SCN,2024-06-25_14h30.52.257,LearnStrategy,2023.2.3,Win32,5.460065084,4,2,12,,,,,,,,5,05,,,,,,,,,,,5,1.366,1,,,,,,-0.363541667,-0.40625,1,0,0,1.3658,Obsidian_rect,11,0,11,0,1,
6643b96e963b9b0cf7d216f3,SCN,2024-06-25_14h30.52.257,LearnStrategy,2023.2.3,Win32,5.460065084,4,2,13,,,,,,,,6,06,,,,,,,,,,,6,6.91,1,,,,,,-0.090625,-0.385416667,1,0,0,6.9104,Pegmatite_rect,12,0,12,0,1,
6643b96e963b9b0cf7d216f3,SCN,2024-06-25_14h30.52.257,LearnStrategy,2023.2.3,Win32,5.460065084,4,2,14,,,,,,,,7,05,,,,,,,,,,,7,16.7,1,,,,,,0.138541667,-0.391666667,1,0,0,16.7,Peridotite_rect,13,0,13,0,1,
6643b96e963b9b0cf7d216f3,SCN,2024-06-25_14h30.52.257,LearnStrategy,2023.2.3,Win32,5.460065084,4,2,15,,,,,,,,7,14,,,,,,,,,,,1,4.217,0,,,,,,-0.352083333,-0.235416667,1,0,0,4.2167,Andesite_rect,14,0,14,0,1,
6643b96e963b9b0cf7d216f3,SCN,2024-06-25_14h30.52.257,LearnStrategy,2023.2.3,Win32,5.460065084,4,2,16,,,,,,,,8,14,,,,,,,,,,,8,1.839,1,,,,,,0.44375,-0.38125,1,0,0,1.8392,Pumice_rect,15,0,15,0,1,
6643b96e963b9b0cf7d216f3,SCN,2024-06-25_14h30.52.257,LearnStrategy,2023.2.3,Win32,5.460065084,5,1,1,-0.05,0.066666667,1,0,0,2.8263,Andesite_05,1,05,4,4,2.826,-0.370833333,-0.23125,1,0,0,4.2077,Andesite_rect,1,4.208,1,0,0,0,0,1,,,,,,,,,,,,,
6643b96e963b9b0cf7d216f3,SCN,2024-06-25_14h30.52.257,LearnStrategy,2023.2.3,Win32,5.460065084,5,1,2,0.551041667,-0.1,1,0,0,1.8223,Pegmatite_03,6,03,3,8,1.822,-0.129166667,-0.410416667,1,0,0,2.4367,Pegmatite_rect,6,2.437,1,1,0,1,0,1,,,,,,,,,,,,,
6643b96e963b9b0cf7d216f3,SCN,2024-06-25_14h30.52.257,LearnStrategy,2023.2.3,Win32,5.460065084,5,1,3,0.578125,0.095833333,1,0,0,1.2853,Andesite_09,1,09,4,8,1.285,-0.30625,-0.248958333,1,0,0,3.7035,Andesite_rect,1,3.704,1,2,0,2,0,1,,,,,,,,,,,,,
6643b96e963b9b0cf7d216f3,SCN,2024-06-25_14h30.52.257,LearnStrategy,2023.2.3,Win32,5.460065084,5,1,4,-0.388541667,-0.095833333,1,0,0,3.5993,Peridotite_16,7,16,3,2,3.599,0.14375,-0.380208333,1,0,0,2.6218,Peridotite_rect,7,2.622,1,3,0,3,0,1,,,,,,,,,,,,,
6643b96e963b9b0cf7d216f3,SCN,2024-06-25_14h30.52.257,LearnStrategy,2023.2.3,Win32,5.460065084,5,1,5,-0.396875,-0.432291667,1,0,0,1.2711,Andesite_01,1,01,1,2,1.271,0.077083333,-0.239583333,1,0,0,2.3915,Diorite_rect,3,2.391,0,4,0,4,0,1,,,,,,,,,,,,,
6643b96e963b9b0cf7d216f3,SCN,2024-06-25_14h30.52.257,LearnStrategy,2023.2.3,Win32,5.460065084,5,1,6,-0.378125,-0.244791667,1,0,0,4.64,Diorite_07,3,07,2,2,4.64,0.167708333,-0.235416667,1,0,0,2.3895,Diorite_rect,3,2.39,1,5,0,5,0,1,,,,,,,,,,,,,
6643b96e963b9b0cf7d216f3,SCN,2024-06-25_14h30.52.257,LearnStrategy,2023.2.3,Win32,5.460065084,5,1,7,0.384375,-0.25625,1,0,0,2.1138,Peridotite_08,7,08,2,7,2.114,0.1,-0.388541667,1,0,0,2.5702,Peridotite_rect,7,2.57,1,6,0,6,0,1,,,,,,,,,,,,,
6643b96e963b9b0cf7d216f3,SCN,2024-06-25_14h30.52.257,LearnStrategy,2023.2.3,Win32,5.460065084,5,1,8,0.553125,-0.261458333,1,0,0,2.0597,Pegmatite_05,6,05,2,8,2.06,-0.113541667,-0.413541667,1,0,0,1.5885,Pegmatite_rect,6,1.589,1,7,0,7,0,1,,,,,,,,,,,,,
6643b96e963b9b0cf7d216f3,SCN,2024-06-25_14h30.52.257,LearnStrategy,2023.2.3,Win32,5.460065084,5,1,9,0.541666667,0.222916667,1,0,0,2.8718,Diorite_10,3,10,5,8,2.872,0.113541667,-0.233333333,1,0,0,5.8458,Diorite_rect,3,5.846,1,8,0,8,0,1,,,,,,,,,,,,,
6643b96e963b9b0cf7d216f3,SCN,2024-06-25_14h30.52.257,LearnStrategy,2023.2.3,Win32,5.460065084,5,1,10,-0.063541667,0.086458333,1,0,0,2.5502,Andesite_05,1,05,4,4,2.55,-0.414583333,-0.253125,1,0,0,2.2031,Andesite_rect,1,2.203,1,9,0,9,0,1,,,,,,,,,,,,,
6643b96e963b9b0cf7d216f3,SCN,2024-06-25_14h30.52.257,LearnStrategy,2023.2.3,Win32,5.460065084,5,1,11,-0.403125,0.395833333,1,0,0,3.8845,Peridotite_04,7,04,6,2,3.885,-0.31875,-0.245833333,1,0,0,1.3031,Andesite_rect,1,1.303,0,10,0,10,0,1,,,,,,,,,,,,,
6643b96e963b9b0cf7d216f3,SCN,2024-06-25_14h30.52.257,LearnStrategy,2023.2.3,Win32,5.460065084,5,1,12,0.221875,0.411458333,1,0,0,2.5928,Basalt_09,2,09,6,6,2.593,-0.082291667,-0.246875,1,0,0,3.422,Basalt_rect,2,3.422,1,11,0,11,0,1,,,,,,,,,,,,,
6643b96e963b9b0cf7d216f3,SCN,2024-06-25_14h30.52.257,LearnStrategy,2023.2.3,Win32,5.460065084,5,1,13,0.383333333,0.4,1,0,0,2.8569,Gabbro_11,4,11,6,7,2.857,0.327083333,-0.236458333,1,0,0,2.635,Gabbro_rect,4,2.635,1,12,0,12,0,1,,,,,,,,,,,,,
6643b96e963b9b0cf7d216f3,SCN,2024-06-25_14h30.52.257,LearnStrategy,2023.2.3,Win32,5.460065084,5,1,14,0.570833333,0.447916667,1,0,0,1.308,Basalt_01,2,01,6,8,1.308,-0.127083333,-0.239583333,1,0,0,1.7644,Basalt_rect,2,1.764,1,13,0,13,0,1,,,,,,,,,,,,,
6643b96e963b9b0cf7d216f3,SCN,2024-06-25_14h30.52.257,LearnStrategy,2023.2.3,Win32,5.460065084,5,1,15,-0.229166667,-0.375,1,0,0,2.3945,Diorite_14,3,14,1,3,2.394,0.204166667,-0.236458333,1,0,0,1.3353,Diorite_rect,3,1.335,1,14,0,14,0,1,,,,,,,,,,,,,
6643b96e963b9b0cf7d216f3,SCN,2024-06-25_14h30.52.257,LearnStrategy,2023.2.3,Win32,5.460065084,5,1,16,-0.4125,-0.232291667,1,0,0,2.0735,Diorite_07,3,07,2,2,2.073,0.126041667,-0.2375,1,0,0,1.9135,Diorite_rect,3,1.914,1,15,0,15,0,1,,,,,,,,,,,,,
6643b96e963b9b0cf7d216f3,SCN,2024-06-25_14h30.52.257,LearnStrategy,2023.2.3,Win32,5.460065084,5,2,1,,,,,,,,4,10,,,,,,,,,,,2,4.615,0,,,,,,-0.080208333,-0.25,1,0,0,4.615,Basalt_rect,0,0,0,0,1,
6643b96e963b9b0cf7d216f3,SCN,2024-06-25_14h30.52.257,LearnStrategy,2023.2.3,Win32,5.460065084,5,2,2,,,,,,,,3,06,,,,,,,,,,,1,13.757,0,,,,,,-0.336458333,-0.247916667,1,0,0,13.7574,Andesite_rect,1,0,1,0,1,
6643b96e963b9b0cf7d216f3,SCN,2024-06-25_14h30.52.257,LearnStrategy,2023.2.3,Win32,5.460065084,5,2,3,,,,,,,,8,06,,,,,,,,,,,8,1.626,1,,,,,,0.414583333,-0.382291667,1,0,0,1.6258,Pumice_rect,2,0,2,0,1,
6643b96e963b9b0cf7d216f3,SCN,2024-06-25_14h30.52.257,LearnStrategy,2023.2.3,Win32,5.460065084,5,2,4,,,,,,,,7,02,,,,,,,,,,,7,2.217,1,,,,,,0.045833333,-0.416666667,1,0,0,2.2174,Peridotite_rect,3,0,3,0,1,
6643b96e963b9b0cf7d216f3,SCN,2024-06-25_14h30.52.257,LearnStrategy,2023.2.3,Win32,5.460065084,5,2,5,,,,,,,,6,07,,,,,,,,,,,6,1.614,1,,,,,,-0.066666667,-0.396875,1,0,0,1.6136,Pegmatite_rect,4,0,4,0,1,
6643b96e963b9b0cf7d216f3,SCN,2024-06-25_14h30.52.257,LearnStrategy,2023.2.3,Win32,5.460065084,5,2,6,,,,,,,,4,01,,,,,,,,,,,3,4.392,0,,,,,,0.155208333,-0.252083333,1,0,0,4.3925,Diorite_rect,5,0,5,0,1,
6643b96e963b9b0cf7d216f3,SCN,2024-06-25_14h30.52.257,LearnStrategy,2023.2.3,Win32,5.460065084,5,2,7,,,,,,,,1,04,,,,,,,,,,,1,2.741,1,,,,,,-0.4125,-0.247916667,1,0,0,2.7407,Andesite_rect,6,0,6,0,1,
6643b96e963b9b0cf7d216f3,SCN,2024-06-25_14h30.52.257,LearnStrategy,2023.2.3,Win32,5.460065084,5,2,8,,,,,,,,2,14,,,,,,,,,,,8,1.917,0,,,,,,0.428125,-0.392708333,1,0,0,1.9171,Pumice_rect,7,0,7,0,1,
6643b96e963b9b0cf7d216f3,SCN,2024-06-25_14h30.52.257,LearnStrategy,2023.2.3,Win32,5.460065084,5,2,9,,,,,,,,2,12,,,,,,,,,,,2,10.768,1,,,,,,-0.091666667,-0.244791667,1,0,0,10.7678,Basalt_rect,8,0,8,0,1,
6643b96e963b9b0cf7d216f3,SCN,2024-06-25_14h30.52.257,LearnStrategy,2023.2.3,Win32,5.460065084,5,2,10,,,,,,,,5,16,,,,,,,,,,,5,3.595,1,,,,,,-0.40625,-0.394791667,1,0,0,3.5948,Obsidian_rect,9,0,9,0,1,
6643b96e963b9b0cf7d216f3,SCN,2024-06-25_14h30.52.257,LearnStrategy,2023.2.3,Win32,5.460065084,5,2,11,,,,,,,,3,15,,,,,,,,,,,3,9.557,1,,,,,,0.1375,-0.239583333,1,0,0,9.5573,Diorite_rect,10,0,10,0,1,
6643b96e963b9b0cf7d216f3,SCN,2024-06-25_14h30.52.257,LearnStrategy,2023.2.3,Win32,5.460065084,5,2,12,,,,,,,,5,11,,,,,,,,,,,5,2.987,1,,,,,,-0.416666667,-0.389583333,1,0,0,2.9868,Obsidian_rect,11,0,11,0,1,
6643b96e963b9b0cf7d216f3,SCN,2024-06-25_14h30.52.257,LearnStrategy,2023.2.3,Win32,5.460065084,5,2,13,,,,,,,,7,12,,,,,,,,,,,7,1.989,1,,,,,,0.10625,-0.4,1,0,0,1.9892,Peridotite_rect,12,0,12,0,1,
6643b96e963b9b0cf7d216f3,SCN,2024-06-25_14h30.52.257,LearnStrategy,2023.2.3,Win32,5.460065084,5,2,14,,,,,,,,8,09,,,,,,,,,,,8,1.354,1,,,,,,0.426041667,-0.395833333,1,0,0,1.3538,Pumice_rect,13,0,13,0,1,
6643b96e963b9b0cf7d216f3,SCN,2024-06-25_14h30.52.257,LearnStrategy,2023.2.3,Win32,5.460065084,5,2,15,,,,,,,,1,06,,,,,,,,,,,1,1.641,1,,,,,,-0.352083333,-0.266666667,1,0,0,1.641,Andesite_rect,14,0,14,0,1,
6643b96e963b9b0cf7d216f3,SCN,2024-06-25_14h30.52.257,LearnStrategy,2023.2.3,Win32,5.460065084,5,2,16,,,,,,,,6,13,,,,,,,,,,,6,1.993,1,,,,,,-0.113541667,-0.388541667,1,0,0,1.9928,Pegmatite_rect,15,0,15,0,1,
6643b96e963b9b0cf7d216f3,SCN,2024-06-25_14h30.52.257,LearnStrategy,2023.2.3,Win32,5.460065084,6,1,1,0.353125,-0.105208333,1,0,0,2.0407,Gabbro_14,4,14,3,7,2.041,0.413541667,-0.239583333,1,0,0,5.974,Gabbro_rect,4,5.974,1,0,0,0,0,1,,,,,,,,,,,,,
6643b96e963b9b0cf7d216f3,SCN,2024-06-25_14h30.52.257,LearnStrategy,2023.2.3,Win32,5.460065084,6,1,2,0.4,0.244791667,1,0,0,1.5459,Gabbro_16,4,16,5,7,1.546,0.357291667,-0.252083333,1,0,0,1.3111,Gabbro_rect,4,1.311,1,1,0,1,0,1,,,,,,,,,,,,,
6643b96e963b9b0cf7d216f3,SCN,2024-06-25_14h30.52.257,LearnStrategy,2023.2.3,Win32,5.460065084,6,1,3,0.257291667,-0.420833333,1,0,0,1.5523,Basalt_16,2,16,1,6,1.552,0.333333333,-0.244791667,1,0,0,2.2943,Gabbro_rect,4,2.294,0,2,0,2,0,1,,,,,,,,,,,,,
6643b96e963b9b0cf7d216f3,SCN,2024-06-25_14h30.52.257,LearnStrategy,2023.2.3,Win32,5.460065084,6,1,4,-0.557291667,-0.404166667,1,0,0,3.7961,Pumice_16,8,16,1,1,3.796,0.394791667,-0.407291667,1,0,0,1.6154,Pumice_rect,8,1.615,1,3,0,3,0,1,,,,,,,,,,,,,
6643b96e963b9b0cf7d216f3,SCN,2024-06-25_14h30.52.257,LearnStrategy,2023.2.3,Win32,5.460065084,6,1,5,-0.046875,0.402083333,1,0,0,4.9654,Andesite_02,1,02,6,4,4.965,-0.407291667,-0.252083333,1,0,0,1.5239,Andesite_rect,1,1.524,1,4,0,4,0,1,,,,,,,,,,,,,
6643b96e963b9b0cf7d216f3,SCN,2024-06-25_14h30.52.257,LearnStrategy,2023.2.3,Win32,5.460065084,6,1,6,0.272916667,0.414583333,1,0,0,2.836,Basalt_09,2,09,6,6,2.836,-0.123958333,-0.234375,1,0,0,4.6953,Basalt_rect,2,4.695,1,5,0,5,0,1,,,,,,,,,,,,,
6643b96e963b9b0cf7d216f3,SCN,2024-06-25_14h30.52.257,LearnStrategy,2023.2.3,Win32,5.460065084,6,1,7,0.433333333,0.425,1,0,0,1.5892,Gabbro_11,4,11,6,7,1.589,0.336458333,-0.229166667,1,0,0,1.5822,Gabbro_rect,4,1.582,1,6,0,6,0,1,,,,,,,,,,,,,
6643b96e963b9b0cf7d216f3,SCN,2024-06-25_14h30.52.257,LearnStrategy,2023.2.3,Win32,5.460065084,6,1,8,0.55,0.419791667,1,0,0,2.6484,Basalt_01,2,01,6,8,2.648,-0.075,-0.235416667,1,0,0,1.7608,Basalt_rect,2,1.761,1,7,0,7,0,1,,,,,,,,,,,,,
6643b96e963b9b0cf7d216f3,SCN,2024-06-25_14h30.52.257,LearnStrategy,2023.2.3,Win32,5.460065084,6,1,9,-0.370833333,-0.4,1,0,0,3.0448,Andesite_01,1,01,1,2,3.045,0.0875,-0.245833333,1,0,0,1.3249,Diorite_rect,3,1.325,0,8,0,8,0,1,,,,,,,,,,,,,
6643b96e963b9b0cf7d216f3,SCN,2024-06-25_14h30.52.257,LearnStrategy,2023.2.3,Win32,5.460065084,6,1,10,-0.213541667,-0.407291667,1,0,0,2.8627,Diorite_14,3,14,1,3,2.863,0.094791667,-0.235416667,1,0,0,1.465,Diorite_rect,3,1.465,1,9,0,9,0,1,,,,,,,,,,,,,
6643b96e963b9b0cf7d216f3,SCN,2024-06-25_14h30.52.257,LearnStrategy,2023.2.3,Win32,5.460065084,6,1,11,0.097916667,-0.435416667,1,0,0,1.8209,Gabbro_03,4,03,1,5,1.821,0.330208333,-0.233333333,1,0,0,3.8401,Gabbro_rect,4,3.84,1,10,0,10,0,1,,,,,,,,,,,,,
6643b96e963b9b0cf7d216f3,SCN,2024-06-25_14h30.52.257,LearnStrategy,2023.2.3,Win32,5.460065084,6,1,12,-0.567708333,-0.108333333,1,0,0,1.8171,Pumice_10,8,10,3,1,1.817,0.34375,-0.379166667,1,0,0,1.2892,Pumice_rect,8,1.289,1,11,0,11,0,1,,,,,,,,,,,,,
6643b96e963b9b0cf7d216f3,SCN,2024-06-25_14h30.52.257,LearnStrategy,2023.2.3,Win32,5.460065084,6,1,13,0.235416667,0.079166667,1,0,0,1.5796,Pumice_03,8,03,4,6,1.58,0.385416667,-0.409375,1,0,0,1.3269,Pumice_rect,8,1.327,1,12,0,12,0,1,,,,,,,,,,,,,
6643b96e963b9b0cf7d216f3,SCN,2024-06-25_14h30.52.257,LearnStrategy,2023.2.3,Win32,5.460065084,6,1,14,0.086458333,0.082291667,1,0,0,1.5874,Andesite_11,1,11,4,5,1.587,-0.394791667,-0.266666667,1,0,0,1.6142,Andesite_rect,1,1.614,1,13,0,13,0,1,,,,,,,,,,,,,
6643b96e963b9b0cf7d216f3,SCN,2024-06-25_14h30.52.257,LearnStrategy,2023.2.3,Win32,5.460065084,6,1,15,0.352083333,0.25625,1,0,0,3.383,Gabbro_16,4,16,5,7,3.383,0.379166667,-0.242708333,1,0,0,1.8435,Gabbro_rect,4,1.843,1,14,0,14,0,1,,,,,,,,,,,,,
6643b96e963b9b0cf7d216f3,SCN,2024-06-25_14h30.52.257,LearnStrategy,2023.2.3,Win32,5.460065084,6,1,16,0.084375,0.234375,1,0,0,2.5509,Basalt_02,2,02,5,5,2.551,-0.13125,-0.229166667,1,0,0,2.3234,Basalt_rect,2,2.323,1,15,0,15,0,1,,,,,,,,,,,,,
6643b96e963b9b0cf7d216f3,SCN,2024-06-25_14h30.52.257,LearnStrategy,2023.2.3,Win32,5.460065084,6,2,1,,,,,,,,8,15,,,,,,,,,,,8,4.238,1,,,,,,0.408333333,-0.396875,1,0,0,4.2382,Pumice_rect,0,0,0,0,1,
6643b96e963b9b0cf7d216f3,SCN,2024-06-25_14h30.52.257,LearnStrategy,2023.2.3,Win32,5.460065084,6,2,2,,,,,,,,3,13,,,,,,,,,,,1,9.891,0,,,,,,-0.369791667,-0.230208333,1,0,0,9.8912,Andesite_rect,1,0,1,0,1,
6643b96e963b9b0cf7d216f3,SCN,2024-06-25_14h30.52.257,LearnStrategy,2023.2.3,Win32,5.460065084,6,2,3,,,,,,,,7,06,,,,,,,,,,,7,5.215,1,,,,,,0.095833333,-0.382291667,1,0,0,5.2154,Peridotite_rect,2,0,2,0,1,
6643b96e963b9b0cf7d216f3,SCN,2024-06-25_14h30.52.257,LearnStrategy,2023.2.3,Win32,5.460065084,6,2,4,,,,,,,,8,05,,,,,,,,,,,8,2.729,1,,,,,,0.369791667,-0.379166667,1,0,0,2.7288,Pumice_rect,3,0,3,0,1,
6643b96e963b9b0cf7d216f3,SCN,2024-06-25_14h30.52.257,LearnStrategy,2023.2.3,Win32,5.460065084,6,2,5,,,,,,,,5,10,,,,,,,,,,,5,2.704,1,,,,,,-0.413541667,-0.397916667,1,0,0,2.7041,Obsidian_rect,4,0,4,0,1,
6643b96e963b9b0cf7d216f3,SCN,2024-06-25_14h30.52.257,LearnStrategy,2023.2.3,Win32,5.460065084,6,2,6,,,,,,,,2,08,,,,,,,,,,,2,1.279,1,,,,,,-0.096875,-0.2375,1,0,0,1.2794,Basalt_rect,5,0,5,0,1,
6643b96e963b9b0cf7d216f3,SCN,2024-06-25_14h30.52.257,LearnStrategy,2023.2.3,Win32,5.460065084,6,2,7,,,,,,,,1,07,,,,,,,,,,,1,2.727,1,,,,,,-0.385416667,-0.24375,1,0,0,2.7266,Andesite_rect,6,0,6,0,1,
6643b96e963b9b0cf7d216f3,SCN,2024-06-25_14h30.52.257,LearnStrategy,2023.2.3,Win32,5.460065084,6,2,8,,,,,,,,7,10,,,,,,,,,,,7,2.726,1,,,,,,0.071875,-0.394791667,1,0,0,2.7257,Peridotite_rect,7,0,7,0,1,
6643b96e963b9b0cf7d216f3,SCN,2024-06-25_14h30.52.257,LearnStrategy,2023.2.3,Win32,5.460065084,6,2,9,,,,,,,,3,16,,,,,,,,,,,3,1.9,1,,,,,,0.105208333,-0.2375,1,0,0,1.9004,Diorite_rect,8,0,8,0,1,
6643b96e963b9b0cf7d216f3,SCN,2024-06-25_14h30.52.257,LearnStrategy,2023.2.3,Win32,5.460065084,6,2,10,,,,,,,,1,14,,,,,,,,,,,6,3.018,0,,,,,,-0.125,-0.416666667,1,0,0,3.0179,Pegmatite_rect,9,0,9,0,1,
6643b96e963b9b0cf7d216f3,SCN,2024-06-25_14h30.52.257,LearnStrategy,2023.2.3,Win32,5.460065084,6,2,11,,,,,,,,4,09,,,,,,,,,,,4,3.764,1,,,,,,0.357291667,-0.257291667,1,0,0,3.764,Gabbro_rect,10,0,10,0,1,
6643b96e963b9b0cf7d216f3,SCN,2024-06-25_14h30.52.257,LearnStrategy,2023.2.3,Win32,5.460065084,6,2,12,,,,,,,,6,15,,,,,,,,,,,6,2.178,1,,,,,,-0.134375,-0.39375,1,0,0,2.1776,Pegmatite_rect,11,0,11,0,1,
6643b96e963b9b0cf7d216f3,SCN,2024-06-25_14h30.52.257,LearnStrategy,2023.2.3,Win32,5.460065084,6,2,13,,,,,,,,6,12,,,,,,,,,,,6,3.53,1,,,,,,-0.127083333,-0.409375,1,0,0,3.5303,Pegmatite_rect,12,0,12,0,1,
6643b96e963b9b0cf7d216f3,SCN,2024-06-25_14h30.52.257,LearnStrategy,2023.2.3,Win32,5.460065084,6,2,14,,,,,,,,2,05,,,,,,,,,,,2,1.605,1,,,,,,-0.097916667,-0.24375,1,0,0,1.6046,Basalt_rect,13,0,13,0,1,
6643b96e963b9b0cf7d216f3,SCN,2024-06-25_14h30.52.257,LearnStrategy,2023.2.3,Win32,5.460065084,6,2,15,,,,,,,,5,14,,,,,,,,,,,5,1.854,1,,,,,,-0.341666667,-0.401041667,1,0,0,1.8542,Obsidian_rect,14,0,14,0,1,
6643b96e963b9b0cf7d216f3,SCN,2024-06-25_14h30.52.257,LearnStrategy,2023.2.3,Win32,5.460065084,6,2,16,,,,,,,,4,05,,,,,,,,,,,7,9.239,0,,,,,,0.138541667,-0.4125,1,0,0,9.2385,Peridotite_rect,15,0,15,0,1,
6643b96e963b9b0cf7d216f3,SCN,2024-06-25_14h30.52.257,LearnStrategy,2023.2.3,Win32,5.460065084,7,1,1,-0.116666667,0.390625,1,0,0,6.2662,Andesite_02,1,02,6,4,6.266,-0.373958333,-0.255208333,1,0,0,1.2869,Andesite_rect,1,1.287,1,0,0,0,0,1,,,,,,,,,,,,,
6643b96e963b9b0cf7d216f3,SCN,2024-06-25_14h30.52.257,LearnStrategy,2023.2.3,Win32,5.460065084,7,1,2,-0.036458333,-0.102083333,1,0,0,1.5242,Obsidian_06,5,06,3,4,1.524,-0.373958333,-0.41875,1,0,0,2.307,Obsidian_rect,5,2.307,1,1,0,1,0,1,,,,,,,,,,,,,
6643b96e963b9b0cf7d216f3,SCN,2024-06-25_14h30.52.257,LearnStrategy,2023.2.3,Win32,5.460065084,7,1,3,0.269791667,-0.116666667,1,0,0,1.5336,Diorite_12,3,12,3,6,1.534,0.123958333,-0.239583333,1,0,0,1.4335,Diorite_rect,3,1.434,1,2,0,2,0,1,,,,,,,,,,,,,
6643b96e963b9b0cf7d216f3,SCN,2024-06-25_14h30.52.257,LearnStrategy,2023.2.3,Win32,5.460065084,7,1,4,-0.542708333,0.219791667,1,0,0,1.5628,Gabbro_13,4,13,5,1,1.563,0.475,-0.269791667,1,0,0,1.8853,Gabbro_rect,4,1.885,1,3,0,3,0,1,,,,,,,,,,,,,
6643b96e963b9b0cf7d216f3,SCN,2024-06-25_14h30.52.257,LearnStrategy,2023.2.3,Win32,5.460065084,7,1,5,-0.086458333,-0.2625,1,0,0,1.0037,Peridotite_13,7,13,2,4,1.004,0.184375,-0.398958333,1,0,0,1.0356,Peridotite_rect,7,1.036,1,4,0,4,0,1,,,,,,,,,,,,,
6643b96e963b9b0cf7d216f3,SCN,2024-06-25_14h30.52.257,LearnStrategy,2023.2.3,Win32,5.460065084,7,1,6,-0.10625,-0.436458333,1,0,0,1.3725,Peridotite_07,7,07,1,4,1.372,0.063541667,-0.403125,1,0,0,1.9083,Peridotite_rect,7,1.908,1,5,0,5,0,1,,,,,,,,,,,,,
6643b96e963b9b0cf7d216f3,SCN,2024-06-25_14h30.52.257,LearnStrategy,2023.2.3,Win32,5.460065084,7,1,7,0.590625,-0.0625,1,0,0,1.3047,Pegmatite_03,6,03,3,8,1.305,-0.140625,-0.4,1,0,0,5.9445,Pegmatite_rect,6,5.945,1,6,0,6,0,1,,,,,,,,,,,,,
6643b96e963b9b0cf7d216f3,SCN,2024-06-25_14h30.52.257,LearnStrategy,2023.2.3,Win32,5.460065084,7,1,8,0.354166667,-0.091666667,1,0,0,2.3249,Gabbro_14,4,14,3,7,2.325,0.365625,-0.255208333,1,0,0,2.5364,Gabbro_rect,4,2.536,1,7,0,7,0,1,,,,,,,,,,,,,
6643b96e963b9b0cf7d216f3,SCN,2024-06-25_14h30.52.257,LearnStrategy,2023.2.3,Win32,5.460065084,7,1,9,0.108333333,0.119791667,1,0,0,2.6297,Andesite_11,1,11,4,5,2.63,-0.476041667,-0.254166667,1,0,0,1.6247,Andesite_rect,1,1.625,1,8,0,8,0,1,,,,,,,,,,,,,
6643b96e963b9b0cf7d216f3,SCN,2024-06-25_14h30.52.257,LearnStrategy,2023.2.3,Win32,5.460065084,7,1,10,-0.517708333,0.261458333,1,0,0,3.1646,Gabbro_13,4,13,5,1,3.165,0.373958333,-0.234375,1,0,0,2.2325,Gabbro_rect,4,2.233,1,9,0,9,0,1,,,,,,,,,,,,,
6643b96e963b9b0cf7d216f3,SCN,2024-06-25_14h30.52.257,LearnStrategy,2023.2.3,Win32,5.460065084,7,1,11,0.388541667,0.427083333,1,0,0,1.5366,Gabbro_11,4,11,6,7,1.537,-0.120833333,-0.2375,1,0,0,2.913,Basalt_rect,2,2.913,0,10,0,10,0,1,,,,,,,,,,,,,
6643b96e963b9b0cf7d216f3,SCN,2024-06-25_14h30.52.257,LearnStrategy,2023.2.3,Win32,5.460065084,7,1,12,0.234375,0.415625,1,0,0,1.3021,Basalt_09,2,09,6,6,1.302,-0.161458333,-0.236458333,1,0,0,1.5677,Basalt_rect,2,1.568,1,11,0,11,0,1,,,,,,,,,,,,,
6643b96e963b9b0cf7d216f3,SCN,2024-06-25_14h30.52.257,LearnStrategy,2023.2.3,Win32,5.460065084,7,1,13,0.56875,0.427083333,1,0,0,1.0354,Basalt_01,2,01,6,8,1.035,-0.063541667,-0.258333333,1,0,0,3.5869,Basalt_rect,2,3.587,1,12,0,12,0,1,,,,,,,,,,,,,
6643b96e963b9b0cf7d216f3,SCN,2024-06-25_14h30.52.257,LearnStrategy,2023.2.3,Win32,5.460065084,7,1,14,-0.044791667,0.415625,1,0,0,1.2907,Andesite_02,1,02,6,4,1.291,-0.386458333,-0.244791667,1,0,0,1.2789,Andesite_rect,1,1.279,1,13,0,13,0,1,,,,,,,,,,,,,
6643b96e963b9b0cf7d216f3,SCN,2024-06-25_14h30.52.257,LearnStrategy,2023.2.3,Win32,5.460065084,7,1,15,-0.039583333,-0.398958333,1,0,0,2.855,Peridotite_07,7,07,1,4,2.855,0.1125,-0.396875,1,0,0,1.1037,Peridotite_rect,7,1.104,1,14,0,14,0,1,,,,,,,,,,,,,
6643b96e963b9b0cf7d216f3,SCN,2024-06-25_14h30.52.257,LearnStrategy,2023.2.3,Win32,5.460065084,7,1,16,0.111458333,-0.405208333,1,0,0,1.2846,Gabbro_03,4,03,1,5,1.285,0.111458333,-0.405208333,1,0,0,0.5332,Peridotite_rect,7,0.533,0,15,0,15,0,1,,,,,,,,,,,,,
6643b96e963b9b0cf7d216f3,SCN,2024-06-25_14h30.52.257,LearnStrategy,2023.2.3,Win32,5.460065084,7,2,1,,,,,,,,3,15,,,,,,,,,,,3,12.818,1,,,,,,0.140625,-0.242708333,1,0,0,12.818,Diorite_rect,0,0,0,0,1,
6643b96e963b9b0cf7d216f3,SCN,2024-06-25_14h30.52.257,LearnStrategy,2023.2.3,Win32,5.460065084,7,2,2,,,,,,,,8,05,,,,,,,,,,,8,1.544,1,,,,,,0.338541667,-0.383333333,1,0,0,1.5445,Pumice_rect,1,0,1,0,1,
6643b96e963b9b0cf7d216f3,SCN,2024-06-25_14h30.52.257,LearnStrategy,2023.2.3,Win32,5.460065084,7,2,3,,,,,,,,7,14,,,,,,,,,,,7,4.992,1,,,,,,0.170833333,-0.405208333,1,0,0,4.9925,Peridotite_rect,2,0,2,0,1,
6643b96e963b9b0cf7d216f3,SCN,2024-06-25_14h30.52.257,LearnStrategy,2023.2.3,Win32,5.460065084,7,2,4,,,,,,,,4,09,,,,,,,,,,,4,7.661,1,,,,,,0.394791667,-0.24375,1,0,0,7.6611,Gabbro_rect,3,0,3,0,1,
6643b96e963b9b0cf7d216f3,SCN,2024-06-25_14h30.52.257,LearnStrategy,2023.2.3,Win32,5.460065084,7,2,5,,,,,,,,2,12,,,,,,,,,,,2,4.626,1,,,,,,-0.090625,-0.239583333,1,0,0,4.6262,Basalt_rect,4,0,4,0,1,
6643b96e963b9b0cf7d216f3,SCN,2024-06-25_14h30.52.257,LearnStrategy,2023.2.3,Win32,5.460065084,7,2,6,,,,,,,,5,11,,,,,,,,,,,5,1.354,1,,,,,,-0.408333333,-0.39375,1,0,0,1.3535,Obsidian_rect,5,0,5,0,1,
6643b96e963b9b0cf7d216f3,SCN,2024-06-25_14h30.52.257,LearnStrategy,2023.2.3,Win32,5.460065084,7,2,7,,,,,,,,4,10,,,,,,,,,,,4,5.284,1,,,,,,0.383333333,-0.25625,1,0,0,5.2842,Gabbro_rect,6,0,6,0,1,
6643b96e963b9b0cf7d216f3,SCN,2024-06-25_14h30.52.257,LearnStrategy,2023.2.3,Win32,5.460065084,7,2,8,,,,,,,,1,14,,,,,,,,,,,1,1.399,1,,,,,,-0.354166667,-0.232291667,1,0,0,1.3988,Andesite_rect,7,0,7,0,1,
6643b96e963b9b0cf7d216f3,SCN,2024-06-25_14h30.52.257,LearnStrategy,2023.2.3,Win32,5.460065084,7,2,9,,,,,,,,2,06,,,,,,,,,,,2,2.167,1,,,,,,-0.107291667,-0.242708333,1,0,0,2.1673,Basalt_rect,8,0,8,0,1,
6643b96e963b9b0cf7d216f3,SCN,2024-06-25_14h30.52.257,LearnStrategy,2023.2.3,Win32,5.460065084,7,2,10,,,,,,,,5,14,,,,,,,,,,,5,2.625,1,,,,,,-0.357291667,-0.382291667,1,0,0,2.625,Obsidian_rect,9,0,9,0,1,
6643b96e963b9b0cf7d216f3,SCN,2024-06-25_14h30.52.257,LearnStrategy,2023.2.3,Win32,5.460065084,7,2,11,,,,,,,,3,16,,,,,,,,,,,3,2.623,1,,,,,,0.092708333,-0.239583333,1,0,0,2.623,Diorite_rect,10,0,10,0,1,
6643b96e963b9b0cf7d216f3,SCN,2024-06-25_14h30.52.257,LearnStrategy,2023.2.3,Win32,5.460065084,7,2,12,,,,,,,,8,09,,,,,,,,,,,8,2.393,1,,,,,,0.390625,-0.383333333,1,0,0,2.3931,Pumice_rect,11,0,11,0,1,
6643b96e963b9b0cf7d216f3,SCN,2024-06-25_14h30.52.257,LearnStrategy,2023.2.3,Win32,5.460065084,7,2,13,,,,,,,,1,03,,,,,,,,,,,1,1.962,1,,,,,,-0.348958333,-0.251041667,1,0,0,1.9621,Andesite_rect,12,0,12,0,1,
6643b96e963b9b0cf7d216f3,SCN,2024-06-25_14h30.52.257,LearnStrategy,2023.2.3,Win32,5.460065084,7,2,14,,,,,,,,6,12,,,,,,,,,,,6,1.883,1,,,,,,-0.091666667,-0.392708333,1,0,0,1.8825,Pegmatite_rect,13,0,13,0,1,
6643b96e963b9b0cf7d216f3,SCN,2024-06-25_14h30.52.257,LearnStrategy,2023.2.3,Win32,5.460065084,7,2,15,,,,,,,,7,05,,,,,,,,,,,7,1.299,1,,,,,,0.105208333,-0.386458333,1,0,0,1.2992,Peridotite_rect,14,0,14,0,1,
6643b96e963b9b0cf7d216f3,SCN,2024-06-25_14h30.52.257,LearnStrategy,2023.2.3,Win32,5.460065084,7,2,16,,,,,,,,6,06,,,,,,,,,,,6,2.739,1,,,,,,-0.117708333,-0.386458333,1,0,0,2.739,Pegmatite_rect,15,0,15,0,1,
6643b96e963b9b0cf7d216f3,SCN,2024-06-25_14h30.52.257,LearnStrategy,2023.2.3,Win32,5.460065084,8,1,1,-0.069791667,0.257291667,1,0,0,1.2798,Pegmatite_16,6,16,5,4,1.28,-0.129166667,-0.419791667,1,0,0,1.5667,Pegmatite_rect,6,1.567,1,0,0,0,0,1,,,,,,,,,,,,,
6643b96e963b9b0cf7d216f3,SCN,2024-06-25_14h30.52.257,LearnStrategy,2023.2.3,Win32,5.460065084,8,1,2,-0.069791667,0.426041667,1,0,0,2.8559,Andesite_02,1,02,6,4,2.856,-0.369791667,-0.251041667,1,0,0,1.2808,Andesite_rect,1,1.281,1,1,0,1,0,1,,,,,,,,,,,,,
6643b96e963b9b0cf7d216f3,SCN,2024-06-25_14h30.52.257,LearnStrategy,2023.2.3,Win32,5.460065084,8,1,3,0.247916667,0.397916667,1,0,0,1.0413,Basalt_09,2,09,6,6,1.041,-0.046875,-0.261458333,1,0,0,4.2176,Basalt_rect,2,4.218,1,2,0,2,0,1,,,,,,,,,,,,,
6643b96e963b9b0cf7d216f3,SCN,2024-06-25_14h30.52.257,LearnStrategy,2023.2.3,Win32,5.460065084,8,1,4,-0.215625,-0.117708333,1,0,0,2.3607,Basalt_11,2,11,3,3,2.361,0.380208333,-0.384375,1,0,0,5.6038,Pumice_rect,8,5.604,0,3,0,3,0,1,,,,,,,,,,,,,
6643b96e963b9b0cf7d216f3,SCN,2024-06-25_14h30.52.257,LearnStrategy,2023.2.3,Win32,5.460065084,8,1,5,-0.055208333,0.094791667,1,0,0,2.8436,Andesite_05,1,05,4,4,2.844,-0.361458333,-0.260416667,1,0,0,1.6868,Andesite_rect,1,1.687,1,4,0,4,0,1,,,,,,,,,,,,,
6643b96e963b9b0cf7d216f3,SCN,2024-06-25_14h30.52.257,LearnStrategy,2023.2.3,Win32,5.460065084,8,1,6,0.123958333,0.094791667,1,0,0,1.272,Andesite_11,1,11,4,5,1.272,-0.394791667,-0.242708333,1,0,0,1.3612,Andesite_rect,1,1.361,1,5,0,5,0,1,,,,,,,,,,,,,
6643b96e963b9b0cf7d216f3,SCN,2024-06-25_14h30.52.257,LearnStrategy,2023.2.3,Win32,5.460065084,8,1,7,-0.35625,0.403125,1,0,0,2.5896,Peridotite_04,7,04,6,2,2.59,0.175,-0.40625,1,0,0,2.134,Peridotite_rect,7,2.134,1,6,0,6,0,1,,,,,,,,,,,,,
6643b96e963b9b0cf7d216f3,SCN,2024-06-25_14h30.52.257,LearnStrategy,2023.2.3,Win32,5.460065084,8,1,8,0.55,0.21875,1,0,0,2.3602,Diorite_10,3,10,5,8,2.36,0.15,-0.251041667,1,0,0,2.698,Diorite_rect,3,2.698,1,7,0,7,0,1,,,,,,,,,,,,,
6643b96e963b9b0cf7d216f3,SCN,2024-06-25_14h30.52.257,LearnStrategy,2023.2.3,Win32,5.460065084,8,1,9,0.4125,0.235416667,1,0,0,1.5116,Gabbro_16,4,16,5,7,1.512,0.396875,-0.239583333,1,0,0,1.3321,Gabbro_rect,4,1.332,1,8,0,8,0,1,,,,,,,,,,,,,
6643b96e963b9b0cf7d216f3,SCN,2024-06-25_14h30.52.257,LearnStrategy,2023.2.3,Win32,5.460065084,8,1,10,0.363541667,-0.09375,1,0,0,1.2853,Gabbro_14,4,14,3,7,1.285,0.340625,-0.233333333,1,0,0,2.8157,Gabbro_rect,4,2.816,1,9,0,9,0,1,,,,,,,,,,,,,
6643b96e963b9b0cf7d216f3,SCN,2024-06-25_14h30.52.257,LearnStrategy,2023.2.3,Win32,5.460065084,8,1,11,0.20625,-0.403125,1,0,0,1.5674,Basalt_16,2,16,1,6,1.567,-0.064583333,-0.248958333,1,0,0,5.3472,Basalt_rect,2,5.347,1,10,0,10,0,1,,,,,,,,,,,,,
6643b96e963b9b0cf7d216f3,SCN,2024-06-25_14h30.52.257,LearnStrategy,2023.2.3,Win32,5.460065084,8,1,12,-0.059375,-0.229166667,1,0,0,1.5492,Peridotite_13,7,13,2,4,1.549,0.133333333,-0.385416667,1,0,0,1.0513,Peridotite_rect,7,1.051,1,11,0,11,0,1,,,,,,,,,,,,,
6643b96e963b9b0cf7d216f3,SCN,2024-06-25_14h30.52.257,LearnStrategy,2023.2.3,Win32,5.460065084,8,1,13,-0.067708333,-0.426041667,1,0,0,1.2653,Peridotite_07,7,07,1,4,1.265,0.073958333,-0.395833333,1,0,0,2.9714,Peridotite_rect,7,2.971,1,12,0,12,0,1,,,,,,,,,,,,,
6643b96e963b9b0cf7d216f3,SCN,2024-06-25_14h30.52.257,LearnStrategy,2023.2.3,Win32,5.460065084,8,1,14,0.23125,-0.391666667,1,0,0,1.3017,Basalt_16,2,16,1,6,1.302,-0.078125,-0.248958333,1,0,0,1.2954,Basalt_rect,2,1.295,1,13,0,13,0,1,,,,,,,,,,,,,
6643b96e963b9b0cf7d216f3,SCN,2024-06-25_14h30.52.257,LearnStrategy,2023.2.3,Win32,5.460065084,8,1,15,0.048958333,0.219791667,1,0,0,2.8606,Basalt_02,2,02,5,5,2.861,-0.08125,-0.230208333,1,0,0,1.5516,Basalt_rect,2,1.552,1,14,0,14,0,1,,,,,,,,,,,,,
6643b96e963b9b0cf7d216f3,SCN,2024-06-25_14h30.52.257,LearnStrategy,2023.2.3,Win32,5.460065084,8,1,16,0.270833333,0.091666667,1,0,0,1.6124,Pumice_03,8,03,4,6,1.612,0.391666667,-0.383333333,1,0,0,3.1687,Pumice_rect,8,3.169,1,15,0,15,0,1,,,,,,,,,,,,,
6643b96e963b9b0cf7d216f3,SCN,2024-06-25_14h30.52.257,LearnStrategy,2023.2.3,Win32,5.460065084,8,2,1,,,,,,,,8,14,,,,,,,,,,,8,5.43,1,,,,,,0.434375,-0.391666667,1,0,0,5.4297,Pumice_rect,0,0,0,0,1,
6643b96e963b9b0cf7d216f3,SCN,2024-06-25_14h30.52.257,LearnStrategy,2023.2.3,Win32,5.460065084,8,2,2,,,,,,,,1,06,,,,,,,,,,,1,1.611,1,,,,,,-0.345833333,-0.254166667,1,0,0,1.6112,Andesite_rect,1,0,1,0,1,
6643b96e963b9b0cf7d216f3,SCN,2024-06-25_14h30.52.257,LearnStrategy,2023.2.3,Win32,5.460065084,8,2,3,,,,,,,,5,10,,,,,,,,,,,5,1.357,1,,,,,,-0.329166667,-0.385416667,1,0,0,1.3569,Obsidian_rect,2,0,2,0,1,
6643b96e963b9b0cf7d216f3,SCN,2024-06-25_14h30.52.257,LearnStrategy,2023.2.3,Win32,5.460065084,8,2,4,,,,,,,,7,10,,,,,,,,,,,7,1.407,1,,,,,,0.085416667,-0.379166667,1,0,0,1.4065,Peridotite_rect,3,0,3,0,1,
6643b96e963b9b0cf7d216f3,SCN,2024-06-25_14h30.52.257,LearnStrategy,2023.2.3,Win32,5.460065084,8,2,5,,,,,,,,3,06,,,,,,,,,,,3,5.66,1,,,,,,0.191666667,-0.24375,1,0,0,5.6597,Diorite_rect,4,0,4,0,1,
6643b96e963b9b0cf7d216f3,SCN,2024-06-25_14h30.52.257,LearnStrategy,2023.2.3,Win32,5.460065084,8,2,6,,,,,,,,2,14,,,,,,,,,,,4,4.581,0,,,,,,0.38125,-0.238541667,1,0,0,4.5812,Gabbro_rect,5,0,5,0,1,
6643b96e963b9b0cf7d216f3,SCN,2024-06-25_14h30.52.257,LearnStrategy,2023.2.3,Win32,5.460065084,8,2,7,,,,,,,,4,12,,,,,,,,,,,4,4.21,1,,,,,,0.383333333,-0.25625,1,0,0,4.2102,Gabbro_rect,6,0,6,0,1,
6643b96e963b9b0cf7d216f3,SCN,2024-06-25_14h30.52.257,LearnStrategy,2023.2.3,Win32,5.460065084,8,2,8,,,,,,,,6,07,,,,,,,,,,,6,1.391,1,,,,,,-0.110416667,-0.391666667,1,0,0,1.3907,Pegmatite_rect,7,0,7,0,1,
6643b96e963b9b0cf7d216f3,SCN,2024-06-25_14h30.52.257,LearnStrategy,2023.2.3,Win32,5.460065084,8,2,9,,,,,,,,3,13,,,,,,,,,,,3,1.62,1,,,,,,0.140625,-0.236458333,1,0,0,1.6204,Diorite_rect,8,0,8,0,1,
6643b96e963b9b0cf7d216f3,SCN,2024-06-25_14h30.52.257,LearnStrategy,2023.2.3,Win32,5.460065084,8,2,10,,,,,,,,1,07,,,,,,,,,,,1,1.917,1,,,,,,-0.38125,-0.25,1,0,0,1.9169,Andesite_rect,9,0,9,0,1,
6643b96e963b9b0cf7d216f3,SCN,2024-06-25_14h30.52.257,LearnStrategy,2023.2.3,Win32,5.460065084,8,2,11,,,,,,,,2,05,,,,,,,,,,,2,3.94,1,,,,,,-0.129166667,-0.248958333,1,0,0,3.9397,Basalt_rect,10,0,10,0,1,
6643b96e963b9b0cf7d216f3,SCN,2024-06-25_14h30.52.257,LearnStrategy,2023.2.3,Win32,5.460065084,8,2,12,,,,,,,,7,06,,,,,,,,,,,7,1.364,1,,,,,,0.103125,-0.383333333,1,0,0,1.3642,Peridotite_rect,11,0,11,0,1,
6643b96e963b9b0cf7d216f3,SCN,2024-06-25_14h30.52.257,LearnStrategy,2023.2.3,Win32,5.460065084,8,2,13,,,,,,,,8,15,,,,,,,,,,,8,8.535,1,,,,,,0.491666667,-0.392708333,1,0,0,8.5346,Pumice_rect,12,0,12,0,1,
6643b96e963b9b0cf7d216f3,SCN,2024-06-25_14h30.52.257,LearnStrategy,2023.2.3,Win32,5.460065084,8,2,14,,,,,,,,4,05,,,,,,,,,,,7,7.661,0,,,,,,0.067708333,-0.379166667,1,0,0,7.6607,Peridotite_rect,13,0,13,0,1,
6643b96e963b9b0cf7d216f3,SCN,2024-06-25_14h30.52.257,LearnStrategy,2023.2.3,Win32,5.460065084,8,2,15,,,,,,,,6,10,,,,,,,,,,,6,2.599,1,,,,,,-0.092708333,-0.392708333,1,0,0,2.5994,Pegmatite_rect,14,0,14,0,1,
6643b96e963b9b0cf7d216f3,SCN,2024-06-25_14h30.52.257,LearnStrategy,2023.2.3,Win32,5.460065084,8,2,16,,,,,,,,5,16,,,,,,,,,,,5,5.818,1,,,,,,-0.357291667,-0.398958333,1,0,0,5.8183,Obsidian_rect,15,0,15,0,1,
6643b96e963b9b0cf7d216f3,SCN,2024-06-25_14h30.52.257,LearnStrategy,2023.2.3,Win32,5.460065084,9,1,1,0.388541667,0.395833333,1,0,0,3.9174,Gabbro_11,4,11,6,7,3.917,0.392708333,-0.25,1,0,0,2.9342,Gabbro_rect,4,2.934,1,0,0,0,0,1,,,,,,,,,,,,,
6643b96e963b9b0cf7d216f3,SCN,2024-06-25_14h30.52.257,LearnStrategy,2023.2.3,Win32,5.460065084,9,1,2,0.51875,0.110416667,1,0,0,5.6635,Andesite_09,1,09,4,8,5.664,-0.338541667,-0.239583333,1,0,0,1.8878,Andesite_rect,1,1.888,1,1,0,1,0,1,,,,,,,,,,,,,
6643b96e963b9b0cf7d216f3,SCN,2024-06-25_14h30.52.257,LearnStrategy,2023.2.3,Win32,5.460065084,9,1,3,-0.048958333,0.084375,1,0,0,1.2806,Andesite_05,1,05,4,4,1.281,-0.341666667,-0.232291667,1,0,0,2.79,Andesite_rect,1,2.79,1,2,0,2,0,1,,,,,,,,,,,,,
6643b96e963b9b0cf7d216f3,SCN,2024-06-25_14h30.52.257,LearnStrategy,2023.2.3,Win32,5.460065084,9,1,4,0.105208333,0.109375,1,0,0,1.2952,Andesite_11,1,11,4,5,1.295,-0.354166667,-0.23125,1,0,0,1.1379,Andesite_rect,1,1.138,1,3,0,3,0,1,,,,,,,,,,,,,
6643b96e963b9b0cf7d216f3,SCN,2024-06-25_14h30.52.257,LearnStrategy,2023.2.3,Win32,5.460065084,9,1,5,0.192708333,-0.421875,1,0,0,1.2766,Basalt_16,2,16,1,6,1.277,0.382291667,-0.239583333,1,0,0,2.2965,Gabbro_rect,4,2.296,0,4,0,4,0,1,,,,,,,,,,,,,
6643b96e963b9b0cf7d216f3,SCN,2024-06-25_14h30.52.257,LearnStrategy,2023.2.3,Win32,5.460065084,9,1,6,-0.111458333,-0.4125,1,0,0,3.1182,Peridotite_07,7,07,1,4,3.118,0.185416667,-0.38125,1,0,0,1.3855,Peridotite_rect,7,1.386,1,5,0,5,0,1,,,,,,,,,,,,,
6643b96e963b9b0cf7d216f3,SCN,2024-06-25_14h30.52.257,LearnStrategy,2023.2.3,Win32,5.460065084,9,1,7,0.230208333,0.096875,1,0,0,1.8427,Pumice_03,8,03,4,6,1.843,0.402083333,-0.382291667,1,0,0,1.6032,Pumice_rect,8,1.603,1,6,0,6,0,1,,,,,,,,,,,,,
6643b96e963b9b0cf7d216f3,SCN,2024-06-25_14h30.52.257,LearnStrategy,2023.2.3,Win32,5.460065084,9,1,8,-0.354166667,0.404166667,1,0,0,2.2483,Peridotite_04,7,04,6,2,2.248,0.092708333,-0.407291667,1,0,0,4.2968,Peridotite_rect,7,4.297,1,7,0,7,0,1,,,,,,,,,,,,,
6643b96e963b9b0cf7d216f3,SCN,2024-06-25_14h30.52.257,LearnStrategy,2023.2.3,Win32,5.460065084,9,1,9,-0.351041667,-0.414583333,1,0,0,1.8349,Andesite_01,1,01,1,2,1.835,0.095833333,-0.245833333,1,0,0,1.3346,Diorite_rect,3,1.335,0,8,0,8,0,1,,,,,,,,,,,,,
6643b96e963b9b0cf7d216f3,SCN,2024-06-25_14h30.52.257,LearnStrategy,2023.2.3,Win32,5.460065084,9,1,10,-0.220833333,-0.119791667,1,0,0,2.147,Basalt_11,2,11,3,3,2.147,-0.1625,-0.2625,1,0,0,2.3845,Basalt_rect,2,2.385,1,9,0,9,0,1,,,,,,,,,,,,,
6643b96e963b9b0cf7d216f3,SCN,2024-06-25_14h30.52.257,LearnStrategy,2023.2.3,Win32,5.460065084,9,1,11,0.232291667,-0.113541667,1,0,0,1.8465,Diorite_12,3,12,3,6,1.847,0.082291667,-0.251041667,1,0,0,1.856,Diorite_rect,3,1.856,1,10,0,10,0,1,,,,,,,,,,,,,
6643b96e963b9b0cf7d216f3,SCN,2024-06-25_14h30.52.257,LearnStrategy,2023.2.3,Win32,5.460065084,9,1,12,-0.039583333,0.094791667,1,0,0,1.2467,Andesite_05,1,05,4,4,1.247,-0.35,-0.247916667,1,0,0,3.7134,Andesite_rect,1,3.713,1,11,0,11,0,1,,,,,,,,,,,,,
6643b96e963b9b0cf7d216f3,SCN,2024-06-25_14h30.52.257,LearnStrategy,2023.2.3,Win32,5.460065084,9,1,13,-0.517708333,-0.402083333,1,0,0,2.0631,Pumice_16,8,16,1,1,2.063,0.40625,-0.408333333,1,0,0,2.1304,Pumice_rect,8,2.13,1,12,0,12,0,1,,,,,,,,,,,,,
6643b96e963b9b0cf7d216f3,SCN,2024-06-25_14h30.52.257,LearnStrategy,2023.2.3,Win32,5.460065084,9,1,14,0.236458333,-0.40625,1,0,0,1.0196,Basalt_16,2,16,1,6,1.02,-0.0375,-0.238541667,1,0,0,1.2839,Basalt_rect,2,1.284,1,13,0,13,0,1,,,,,,,,,,,,,
6643b96e963b9b0cf7d216f3,SCN,2024-06-25_14h30.52.257,LearnStrategy,2023.2.3,Win32,5.460065084,9,1,15,0.579166667,0.091666667,1,0,0,1.5577,Andesite_09,1,09,4,8,1.558,-0.371875,-0.252083333,1,0,0,1.6611,Andesite_rect,1,1.661,1,14,0,14,0,1,,,,,,,,,,,,,
6643b96e963b9b0cf7d216f3,SCN,2024-06-25_14h30.52.257,LearnStrategy,2023.2.3,Win32,5.460065084,9,1,16,0.3875,0.078125,1,0,0,1.7719,Gabbro_08,4,08,4,7,1.772,0.363541667,-0.248958333,1,0,0,3.2275,Gabbro_rect,4,3.227,1,15,0,15,0,1,,,,,,,,,,,,,
6643b96e963b9b0cf7d216f3,SCN,2024-06-25_14h30.52.257,LearnStrategy,2023.2.3,Win32,5.460065084,9,2,1,,,,,,,,5,05,,,,,,,,,,,5,6.191,1,,,,,,-0.378125,-0.395833333,1,0,0,6.1911,Obsidian_rect,0,0,0,0,1,
6643b96e963b9b0cf7d216f3,SCN,2024-06-25_14h30.52.257,LearnStrategy,2023.2.3,Win32,5.460065084,9,2,2,,,,,,,,3,09,,,,,,,,,,,3,1.454,1,,,,,,0.123958333,-0.25,1,0,0,1.454,Diorite_rect,1,0,1,0,1,
6643b96e963b9b0cf7d216f3,SCN,2024-06-25_14h30.52.257,LearnStrategy,2023.2.3,Win32,5.460065084,9,2,3,,,,,,,,4,15,,,,,,,,,,,4,2.939,1,,,,,,0.371875,-0.242708333,1,0,0,2.9392,Gabbro_rect,2,0,2,0,1,
6643b96e963b9b0cf7d216f3,SCN,2024-06-25_14h30.52.257,LearnStrategy,2023.2.3,Win32,5.460065084,9,2,4,,,,,,,,3,11,,,,,,,,,,,3,5.556,1,,,,,,0.101041667,-0.259375,1,0,0,5.5562,Diorite_rect,3,0,3,0,1,
6643b96e963b9b0cf7d216f3,SCN,2024-06-25_14h30.52.257,LearnStrategy,2023.2.3,Win32,5.460065084,9,2,5,,,,,,,,7,02,,,,,,,,,,,7,1.649,1,,,,,,0.065625,-0.395833333,1,0,0,1.649,Peridotite_rect,4,0,4,0,1,
6643b96e963b9b0cf7d216f3,SCN,2024-06-25_14h30.52.257,LearnStrategy,2023.2.3,Win32,5.460065084,9,2,6,,,,,,,,1,16,,,,,,,,,,,1,2.411,1,,,,,,-0.35,-0.248958333,1,0,0,2.4114,Andesite_rect,5,0,5,0,1,
6643b96e963b9b0cf7d216f3,SCN,2024-06-25_14h30.52.257,LearnStrategy,2023.2.3,Win32,5.460065084,9,2,7,,,,,,,,6,13,,,,,,,,,,,6,1.445,1,,,,,,-0.130208333,-0.378125,1,0,0,1.4447,Pegmatite_rect,6,0,6,0,1,
6643b96e963b9b0cf7d216f3,SCN,2024-06-25_14h30.52.257,LearnStrategy,2023.2.3,Win32,5.460065084,9,2,8,,,,,,,,8,13,,,,,,,,,,,4,9.755,0,,,,,,0.428125,-0.2375,1,0,0,9.7552,Gabbro_rect,7,0,7,0,1,
6643b96e963b9b0cf7d216f3,SCN,2024-06-25_14h30.52.257,LearnStrategy,2023.2.3,Win32,5.460065084,9,2,9,,,,,,,,5,07,,,,,,,,,,,5,1.465,1,,,,,,-0.379166667,-0.397916667,1,0,0,1.4654,Obsidian_rect,8,0,8,0,1,
6643b96e963b9b0cf7d216f3,SCN,2024-06-25_14h30.52.257,LearnStrategy,2023.2.3,Win32,5.460065084,9,2,10,,,,,,,,8,06,,,,,,,,,,,8,1.372,1,,,,,,0.415625,-0.401041667,1,0,0,1.3716,Pumice_rect,9,0,9,0,1,
6643b96e963b9b0cf7d216f3,SCN,2024-06-25_14h30.52.257,LearnStrategy,2023.2.3,Win32,5.460065084,9,2,11,,,,,,,,7,12,,,,,,,,,,,7,2.568,1,,,,,,0.144791667,-0.378125,1,0,0,2.5679,Peridotite_rect,10,0,10,0,1,
6643b96e963b9b0cf7d216f3,SCN,2024-06-25_14h30.52.257,LearnStrategy,2023.2.3,Win32,5.460065084,9,2,12,,,,,,,,2,08,,,,,,,,,,,2,4.829,1,,,,,,-0.145833333,-0.247916667,1,0,0,4.8292,Basalt_rect,11,0,11,0,1,
6643b96e963b9b0cf7d216f3,SCN,2024-06-25_14h30.52.257,LearnStrategy,2023.2.3,Win32,5.460065084,9,2,13,,,,,,,,1,04,,,,,,,,,,,1,6.225,1,,,,,,-0.397916667,-0.235416667,1,0,0,6.2251,Andesite_rect,12,0,12,0,1,
6643b96e963b9b0cf7d216f3,SCN,2024-06-25_14h30.52.257,LearnStrategy,2023.2.3,Win32,5.460065084,9,2,14,,,,,,,,6,15,,,,,,,,,,,6,1.406,1,,,,,,-0.134375,-0.384375,1,0,0,1.4058,Pegmatite_rect,13,0,13,0,1,
6643b96e963b9b0cf7d216f3,SCN,2024-06-25_14h30.52.257,LearnStrategy,2023.2.3,Win32,5.460065084,9,2,15,,,,,,,,4,01,,,,,,,,,,,7,9.265,0,,,,,,0.1625,-0.398958333,1,0,0,9.2647,Peridotite_rect,14,0,14,0,1,
6643b96e963b9b0cf7d216f3,SCN,2024-06-25_14h30.52.257,LearnStrategy,2023.2.3,Win32,5.460065084,9,2,16,,,,,,,,2,10,,,,,,,,,,,4,7.314,0,,,,,,0.452083333,-0.25625,1,0,0,7.3145,Gabbro_rect,15,0,15,0,1,
6643b96e963b9b0cf7d216f3,SCN,2024-06-25_14h30.52.257,LearnStrategy,2023.2.3,Win32,5.460065084,,,,,,,,,,,,,,,,,,,,,,,,,,,,,,,,,,,,,,,,,,,1
6643b96e963b9b0cf7d216f3,SCN,2024-06-25_14h30.52.257,LearnStrategy,2023.2.3,Win32,5.460065084,,,,,,,,,,,,,,,,,,,,,,,,,,,,,,,,,,,,,,,,,,,
6643b96e963b9b0cf7d216f3,SCN,2024-06-25_14h30.52.257,LearnStrategy,2023.2.3,Win32,5.460065084,,,,,,,,,,,8,16,1,1,,,,,,,,,,,,,,,,,,,,,,,,,,,,,
6643b96e963b9b0cf7d216f3,SCN,2024-06-25_14h30.52.257,LearnStrategy,2023.2.3,Win32,5.460065084,,,,,,,,,,,1,01,1,2,,,,,,,,,,,,,,,,,,,,,,,,,,,,,
6643b96e963b9b0cf7d216f3,SCN,2024-06-25_14h30.52.257,LearnStrategy,2023.2.3,Win32,5.460065084,,,,,,,,,,,3,14,1,3,,,,,,,,,,,,,,,,,,,,,,,,,,,,,
6643b96e963b9b0cf7d216f3,SCN,2024-06-25_14h30.52.257,LearnStrategy,2023.2.3,Win32,5.460065084,,,,,,,,,,,7,07,1,4,,,,,,,,,,,,,,,,,,,,,,,,,,,,,
6643b96e963b9b0cf7d216f3,SCN,2024-06-25_14h30.52.257,LearnStrategy,2023.2.3,Win32,5.460065084,,,,,,,,,,,4,03,1,5,,,,,,,,,,,,,,,,,,,,,,,,,,,,,
6643b96e963b9b0cf7d216f3,SCN,2024-06-25_14h30.52.257,LearnStrategy,2023.2.3,Win32,5.460065084,,,,,,,,,,,2,16,1,6,,,,,,,,,,,,,,,,,,,,,,,,,,,,,
6643b96e963b9b0cf7d216f3,SCN,2024-06-25_14h30.52.257,LearnStrategy,2023.2.3,Win32,5.460065084,,,,,,,,,,,8,08,1,7,,,,,,,,,,,,,,,,,,,,,,,,,,,,,
6643b96e963b9b0cf7d216f3,SCN,2024-06-25_14h30.52.257,LearnStrategy,2023.2.3,Win32,5.460065084,,,,,,,,,,,5,08,1,8,,,,,,,,,,,,,,,,,,,,,,,,,,,,,
6643b96e963b9b0cf7d216f3,SCN,2024-06-25_14h30.52.257,LearnStrategy,2023.2.3,Win32,5.460065084,,,,,,,,,,,5,04,2,1,,,,,,,,,,,,,,,,,,,,,,,,,,,,,
6643b96e963b9b0cf7d216f3,SCN,2024-06-25_14h30.52.257,LearnStrategy,2023.2.3,Win32,5.460065084,,,,,,,,,,,3,07,2,2,,,,,,,,,,,,,,,,,,,,,,,,,,,,,
6643b96e963b9b0cf7d216f3,SCN,2024-06-25_14h30.52.257,LearnStrategy,2023.2.3,Win32,5.460065084,,,,,,,,,,,8,02,2,3,,,,,,,,,,,,,,,,,,,,,,,,,,,,,
6643b96e963b9b0cf7d216f3,SCN,2024-06-25_14h30.52.257,LearnStrategy,2023.2.3,Win32,5.460065084,,,,,,,,,,,7,13,2,4,,,,,,,,,,,,,,,,,,,,,,,,,,,,,
6643b96e963b9b0cf7d216f3,SCN,2024-06-25_14h30.52.257,LearnStrategy,2023.2.3,Win32,5.460065084,,,,,,,,,,,1,10,2,5,,,,,,,,,,,,,,,,,,,,,,,,,,,,,
6643b96e963b9b0cf7d216f3,SCN,2024-06-25_14h30.52.257,LearnStrategy,2023.2.3,Win32,5.460065084,,,,,,,,,,,2,04,2,6,,,,,,,,,,,,,,,,,,,,,,,,,,,,,
6643b96e963b9b0cf7d216f3,SCN,2024-06-25_14h30.52.257,LearnStrategy,2023.2.3,Win32,5.460065084,,,,,,,,,,,7,08,2,7,,,,,,,,,,,,,,,,,,,,,,,,,,,,,
6643b96e963b9b0cf7d216f3,SCN,2024-06-25_14h30.52.257,LearnStrategy,2023.2.3,Win32,5.460065084,,,,,,,,,,,6,05,2,8,,,,,,,,,,,,,,,,,,,,,,,,,,,,,
6643b96e963b9b0cf7d216f3,SCN,2024-06-25_14h30.52.257,LearnStrategy,2023.2.3,Win32,5.460065084,,,,,,,,,,,8,10,3,1,,,,,,,,,,,,,,,,,,,,,,,,,,,,,
6643b96e963b9b0cf7d216f3,SCN,2024-06-25_14h30.52.257,LearnStrategy,2023.2.3,Win32,5.460065084,,,,,,,,,,,7,16,3,2,,,,,,,,,,,,,,,,,,,,,,,,,,,,,
6643b96e963b9b0cf7d216f3,SCN,2024-06-25_14h30.52.257,LearnStrategy,2023.2.3,Win32,5.460065084,,,,,,,,,,,2,11,3,3,,,,,,,,,,,,,,,,,,,,,,,,,,,,,
6643b96e963b9b0cf7d216f3,SCN,2024-06-25_14h30.52.257,LearnStrategy,2023.2.3,Win32,5.460065084,,,,,,,,,,,5,06,3,4,,,,,,,,,,,,,,,,,,,,,,,,,,,,,
6643b96e963b9b0cf7d216f3,SCN,2024-06-25_14h30.52.257,LearnStrategy,2023.2.3,Win32,5.460065084,,,,,,,,,,,5,12,3,5,,,,,,,,,,,,,,,,,,,,,,,,,,,,,
6643b96e963b9b0cf7d216f3,SCN,2024-06-25_14h30.52.257,LearnStrategy,2023.2.3,Win32,5.460065084,,,,,,,,,,,3,12,3,6,,,,,,,,,,,,,,,,,,,,,,,,,,,,,
6643b96e963b9b0cf7d216f3,SCN,2024-06-25_14h30.52.257,LearnStrategy,2023.2.3,Win32,5.460065084,,,,,,,,,,,4,14,3,7,,,,,,,,,,,,,,,,,,,,,,,,,,,,,
6643b96e963b9b0cf7d216f3,SCN,2024-06-25_14h30.52.257,LearnStrategy,2023.2.3,Win32,5.460065084,,,,,,,,,,,6,03,3,8,,,,,,,,,,,,,,,,,,,,,,,,,,,,,
6643b96e963b9b0cf7d216f3,SCN,2024-06-25_14h30.52.257,LearnStrategy,2023.2.3,Win32,5.460065084,,,,,,,,,,,6,09,4,1,,,,,,,,,,,,,,,,,,,,,,,,,,,,,
6643b96e963b9b0cf7d216f3,SCN,2024-06-25_14h30.52.257,LearnStrategy,2023.2.3,Win32,5.460065084,,,,,,,,,,,6,08,4,2,,,,,,,,,,,,,,,,,,,,,,,,,,,,,
6643b96e963b9b0cf7d216f3,SCN,2024-06-25_14h30.52.257,LearnStrategy,2023.2.3,Win32,5.460065084,,,,,,,,,,,5,02,4,3,,,,,,,,,,,,,,,,,,,,,,,,,,,,,
6643b96e963b9b0cf7d216f3,SCN,2024-06-25_14h30.52.257,LearnStrategy,2023.2.3,Win32,5.460065084,,,,,,,,,,,1,05,4,4,,,,,,,,,,,,,,,,,,,,,,,,,,,,,
6643b96e963b9b0cf7d216f3,SCN,2024-06-25_14h30.52.257,LearnStrategy,2023.2.3,Win32,5.460065084,,,,,,,,,,,1,11,4,5,,,,,,,,,,,,,,,,,,,,,,,,,,,,,
6643b96e963b9b0cf7d216f3,SCN,2024-06-25_14h30.52.257,LearnStrategy,2023.2.3,Win32,5.460065084,,,,,,,,,,,8,03,4,6,,,,,,,,,,,,,,,,,,,,,,,,,,,,,
6643b96e963b9b0cf7d216f3,SCN,2024-06-25_14h30.52.257,LearnStrategy,2023.2.3,Win32,5.460065084,,,,,,,,,,,4,08,4,7,,,,,,,,,,,,,,,,,,,,,,,,,,,,,
6643b96e963b9b0cf7d216f3,SCN,2024-06-25_14h30.52.257,LearnStrategy,2023.2.3,Win32,5.460065084,,,,,,,,,,,1,09,4,8,,,,,,,,,,,,,,,,,,,,,,,,,,,,,
6643b96e963b9b0cf7d216f3,SCN,2024-06-25_14h30.52.257,LearnStrategy,2023.2.3,Win32,5.460065084,,,,,,,,,,,4,13,5,1,,,,,,,,,,,,,,,,,,,,,,,,,,,,,
6643b96e963b9b0cf7d216f3,SCN,2024-06-25_14h30.52.257,LearnStrategy,2023.2.3,Win32,5.460065084,,,,,,,,,,,5,09,5,2,,,,,,,,,,,,,,,,,,,,,,,,,,,,,
6643b96e963b9b0cf7d216f3,SCN,2024-06-25_14h30.52.257,LearnStrategy,2023.2.3,Win32,5.460065084,,,,,,,,,,,6,11,5,3,,,,,,,,,,,,,,,,,,,,,,,,,,,,,
6643b96e963b9b0cf7d216f3,SCN,2024-06-25_14h30.52.257,LearnStrategy,2023.2.3,Win32,5.460065084,,,,,,,,,,,6,16,5,4,,,,,,,,,,,,,,,,,,,,,,,,,,,,,
6643b96e963b9b0cf7d216f3,SCN,2024-06-25_14h30.52.257,LearnStrategy,2023.2.3,Win32,5.460065084,,,,,,,,,,,2,02,5,5,,,,,,,,,,,,,,,,,,,,,,,,,,,,,
6643b96e963b9b0cf7d216f3,SCN,2024-06-25_14h30.52.257,LearnStrategy,2023.2.3,Win32,5.460065084,,,,,,,,,,,8,04,5,6,,,,,,,,,,,,,,,,,,,,,,,,,,,,,
6643b96e963b9b0cf7d216f3,SCN,2024-06-25_14h30.52.257,LearnStrategy,2023.2.3,Win32,5.460065084,,,,,,,,,,,4,16,5,7,,,,,,,,,,,,,,,,,,,,,,,,,,,,,
6643b96e963b9b0cf7d216f3,SCN,2024-06-25_14h30.52.257,LearnStrategy,2023.2.3,Win32,5.460065084,,,,,,,,,,,3,10,5,8,,,,,,,,,,,,,,,,,,,,,,,,,,,,,
6643b96e963b9b0cf7d216f3,SCN,2024-06-25_14h30.52.257,LearnStrategy,2023.2.3,Win32,5.460065084,,,,,,,,,,,7,15,6,1,,,,,,,,,,,,,,,,,,,,,,,,,,,,,
6643b96e963b9b0cf7d216f3,SCN,2024-06-25_14h30.52.257,LearnStrategy,2023.2.3,Win32,5.460065084,,,,,,,,,,,7,04,6,2,,,,,,,,,,,,,,,,,,,,,,,,,,,,,
6643b96e963b9b0cf7d216f3,SCN,2024-06-25_14h30.52.257,LearnStrategy,2023.2.3,Win32,5.460065084,,,,,,,,,,,3,08,6,3,,,,,,,,,,,,,,,,,,,,,,,,,,,,,
6643b96e963b9b0cf7d216f3,SCN,2024-06-25_14h30.52.257,LearnStrategy,2023.2.3,Win32,5.460065084,,,,,,,,,,,1,02,6,4,,,,,,,,,,,,,,,,,,,,,,,,,,,,,
6643b96e963b9b0cf7d216f3,SCN,2024-06-25_14h30.52.257,LearnStrategy,2023.2.3,Win32,5.460065084,,,,,,,,,,,3,02,6,5,,,,,,,,,,,,,,,,,,,,,,,,,,,,,
6643b96e963b9b0cf7d216f3,SCN,2024-06-25_14h30.52.257,LearnStrategy,2023.2.3,Win32,5.460065084,,,,,,,,,,,2,09,6,6,,,,,,,,,,,,,,,,,,,,,,,,,,,,,
6643b96e963b9b0cf7d216f3,SCN,2024-06-25_14h30.52.257,LearnStrategy,2023.2.3,Win32,5.460065084,,,,,,,,,,,4,11,6,7,,,,,,,,,,,,,,,,,,,,,,,,,,,,,
6643b96e963b9b0cf7d216f3,SCN,2024-06-25_14h30.52.257,LearnStrategy,2023.2.3,Win32,5.460065084,,,,,,,,,,,2,01,6,8,,,,,,,,,,,,,,,,,,,,,,,,,,,,,