participant,condition,date,expName,psychopyVersion,OS,frameRate,block,phase,trial,learn_mouse_2.x,learn_mouse_2.y,learn_mouse_2.leftButton,learn_mouse_2.midButton,learn_mouse_2.rightButton,learn_mouse_2.time,learn_mouse_2.clicked_name,cat,token,row,col,t_select,cat_mouse_l.x,cat_mouse_l.y,cat_mouse_l.leftButton,cat_mouse_l.midButton,cat_mouse_l.rightButton,cat_mouse_l.time,cat_mouse_l.clicked_name,resp,t_resp,corr,train_trials.thisRepN,train_trials.thisTrialN,train_trials.thisN,train_trials.thisIndex,train_trials.ran,cat_mouse_t.x,cat_mouse_t.y,cat_mouse_t.leftButton,cat_mouse_t.midButton,cat_mouse_t.rightButton,cat_mouse_t.time,cat_mouse_t.clicked_name,test_trials.thisRepN,test_trials.thisTrialN,test_trials.thisN,test_trials.thisIndex,test_trials.ran,Bonus
6643894e1f7aa75c4410d42b,TCR,2024-06-25_11h39.30.695,LearnStrategy,2023.2.3,MacIntel,56.81818182,,,,,,,,,,,,,,,,,,,,,,,,,,,,,,,,,,,,,,,,,,,
6643894e1f7aa75c4410d42b,TCR,2024-06-25_11h39.30.695,LearnStrategy,2023.2.3,MacIntel,56.81818182,1,1,1,0.058994887,-0.022829149,1,0,0,1.9839,rock_grid_rect_2,8,04,-1,-1,1.984,-0.436260478,-0.253620945,1,0,0,3.5338,Andesite_rect,1,3.534,0,0,0,0,0,1,,,,,,,,,,,,,
6643894e1f7aa75c4410d42b,TCR,2024-06-25_11h39.30.695,LearnStrategy,2023.2.3,MacIntel,56.81818182,1,1,2,0.00554891,0.021780972,1,0,0,1.0287,rock_grid_rect_2,7,04,-1,-1,1.029,-0.151307441,-0.397047119,1,0,0,5.3509,Pegmatite_rect,6,5.351,0,1,0,1,0,1,,,,,,,,,,,,,
6643894e1f7aa75c4410d42b,TCR,2024-06-25_11h39.30.695,LearnStrategy,2023.2.3,MacIntel,56.81818182,1,1,3,-0.030329183,-0.01122467,1,0,0,1.2696,rock_grid_rect_2,1,14,-1,-1,1.27,-0.099124891,-0.399484049,1,0,0,6.3188,Pegmatite_rect,6,6.319,0,2,0,2,0,1,,,,,,,,,,,,,
6643894e1f7aa75c4410d42b,TCR,2024-06-25_11h39.30.695,LearnStrategy,2023.2.3,MacIntel,56.81818182,1,1,4,-0.018273383,-0.009131809,1,0,0,1.5482,rock_grid_rect_2,3,12,-1,-1,1.548,-0.073339844,-0.410539347,1,0,0,4.6532,Pegmatite_rect,6,4.653,0,3,0,3,0,1,,,,,,,,,,,,,
6643894e1f7aa75c4410d42b,TCR,2024-06-25_11h39.30.695,LearnStrategy,2023.2.3,MacIntel,56.81818182,1,1,5,-0.002864312,0.003492771,1,0,0,0.9195,rock_grid_rect_2,6,03,-1,-1,0.919,-0.386656291,-0.396322293,1,0,0,5.4977,Obsidian_rect,5,5.498,0,4,0,4,0,1,,,,,,,,,,,,,
6643894e1f7aa75c4410d42b,TCR,2024-06-25_11h39.30.695,LearnStrategy,2023.2.3,MacIntel,56.81818182,1,1,6,0.032810126,0.010274183,1,0,0,1.9143,rock_grid_rect_2,4,08,-1,-1,1.914,-0.14854777,-0.244234687,1,0,0,4.7532,Basalt_rect,2,4.753,0,5,0,5,0,1,,,,,,,,,,,,,
6643894e1f7aa75c4410d42b,TCR,2024-06-25_11h39.30.695,LearnStrategy,2023.2.3,MacIntel,56.81818182,1,1,7,0.068231269,0.007945624,1,0,0,1.1504,rock_grid_rect_2,8,02,-1,-1,1.15,0.357686361,-0.386701118,1,0,0,1.4422,Pumice_rect,8,1.442,1,6,0,6,0,1,,,,,,,,,,,,,
6643894e1f7aa75c4410d42b,TCR,2024-06-25_11h39.30.695,LearnStrategy,2023.2.3,MacIntel,56.81818182,1,1,8,-0.000829671,-0.017863973,1,0,0,0.7189,rock_grid_rect_2,6,08,-1,-1,0.719,-0.437956679,-0.420169,1,0,0,2.0694,Obsidian_rect,5,2.069,0,7,0,7,0,1,,,,,,,,,,,,,
6643894e1f7aa75c4410d42b,TCR,2024-06-25_11h39.30.695,LearnStrategy,2023.2.3,MacIntel,56.81818182,1,1,9,-0.009079725,-0.010679525,1,0,0,0.6409,rock_grid_rect_2,4,16,-1,-1,0.641,-0.361841431,-0.39437439,1,0,0,2.3551,Obsidian_rect,5,2.355,0,8,0,8,0,1,,,,,,,,,,,,,
6643894e1f7aa75c4410d42b,TCR,2024-06-25_11h39.30.695,LearnStrategy,2023.2.3,MacIntel,56.81818182,1,1,10,0.071610582,-0.018296712,1,0,0,28.872,rock_grid_rect_2,5,11,-1,-1,28.872,-0.446114265,-0.399909939,1,0,0,1.1322,Obsidian_rect,5,1.132,1,9,0,9,0,1,,,,,,,,,,,,,
6643894e1f7aa75c4410d42b,TCR,2024-06-25_11h39.30.695,LearnStrategy,2023.2.3,MacIntel,56.81818182,1,1,11,-0.019544406,0.007533942,1,0,0,1.0519,rock_grid_rect_2,2,08,-1,-1,1.052,0.396873101,-0.242001682,1,0,0,1.5894,Gabbro_rect,4,1.589,0,10,0,10,0,1,,,,,,,,,,,,,
6643894e1f7aa75c4410d42b,TCR,2024-06-25_11h39.30.695,LearnStrategy,2023.2.3,MacIntel,56.81818182,1,1,12,0.007543877,-0.014181213,1,0,0,0.6878,rock_grid_rect_2,3,09,-1,-1,0.688,0.123109334,-0.249843682,1,0,0,1.9882,Diorite_rect,3,1.988,1,11,0,11,0,1,,,,,,,,,,,,,
6643894e1f7aa75c4410d42b,TCR,2024-06-25_11h39.30.695,LearnStrategy,2023.2.3,MacIntel,56.81818182,1,1,13,0.05237854,0.015970052,1,0,0,1.0138,rock_grid_rect_2,7,12,-1,-1,1.014,0.103153144,-0.236343655,1,0,0,2.8267,Diorite_rect,3,2.827,0,12,0,12,0,1,,,,,,,,,,,,,
6643894e1f7aa75c4410d42b,TCR,2024-06-25_11h39.30.695,LearnStrategy,2023.2.3,MacIntel,56.81818182,1,1,14,-0.003598294,0.010946791,1,0,0,1.8315,rock_grid_rect_2,1,01,-1,-1,1.831,0.106749268,-0.242594876,1,0,0,5.2076,Diorite_rect,3,5.208,0,13,0,13,0,1,,,,,,,,,,,,,
6643894e1f7aa75c4410d42b,TCR,2024-06-25_11h39.30.695,LearnStrategy,2023.2.3,MacIntel,56.81818182,1,1,15,0.030574409,-0.014579671,1,0,0,0.624,rock_grid_rect_2,2,16,-1,-1,0.624,-0.107916124,-0.245445421,1,0,0,2.6457,Basalt_rect,2,2.646,1,14,0,14,0,1,,,,,,,,,,,,,
6643894e1f7aa75c4410d42b,TCR,2024-06-25_11h39.30.695,LearnStrategy,2023.2.3,MacIntel,56.81818182,1,1,16,0.017981703,-0.019934523,1,0,0,0.71,rock_grid_rect_2,5,09,-1,-1,0.71,-0.399580044,-0.420873549,1,0,0,1.5042,Obsidian_rect,5,1.504,1,15,0,15,0,1,,,,,,,,,,,,,
6643894e1f7aa75c4410d42b,TCR,2024-06-25_11h39.30.695,LearnStrategy,2023.2.3,MacIntel,56.81818182,1,2,1,,,,,,,,3,15,,,,,,,,,,,3,8.689,1,,,,,,0.113688558,-0.235412055,1,0,0,8.6894,Diorite_rect,0,0,0,0,1,
6643894e1f7aa75c4410d42b,TCR,2024-06-25_11h39.30.695,LearnStrategy,2023.2.3,MacIntel,56.81818182,1,2,2,,,,,,,,8,06,,,,,,,,,,,8,1.425,1,,,,,,0.341024441,-0.398015679,1,0,0,1.4249,Pumice_rect,1,0,1,0,1,
6643894e1f7aa75c4410d42b,TCR,2024-06-25_11h39.30.695,LearnStrategy,2023.2.3,MacIntel,56.81818182,1,2,3,,,,,,,,4,11,,,,,,,,,,,2,2.541,0,,,,,,-0.138505181,-0.248530138,1,0,0,2.5407,Basalt_rect,2,0,2,0,1,
6643894e1f7aa75c4410d42b,TCR,2024-06-25_11h39.30.695,LearnStrategy,2023.2.3,MacIntel,56.81818182,1,2,4,,,,,,,,7,05,,,,,,,,,,,7,8.488,1,,,,,,0.073996989,-0.407290107,1,0,0,8.4882,Peridotite_rect,3,0,3,0,1,
6643894e1f7aa75c4410d42b,TCR,2024-06-25_11h39.30.695,LearnStrategy,2023.2.3,MacIntel,56.81818182,1,2,5,,,,,,,,2,12,,,,,,,,,,,8,3.823,0,,,,,,0.34496148,-0.402089572,1,0,0,3.8235,Pumice_rect,4,0,4,0,1,
6643894e1f7aa75c4410d42b,TCR,2024-06-25_11h39.30.695,LearnStrategy,2023.2.3,MacIntel,56.81818182,1,2,6,,,,,,,,6,11,,,,,,,,,,,6,11.695,1,,,,,,-0.076867133,-0.387236599,1,0,0,11.6954,Pegmatite_rect,5,0,5,0,1,
6643894e1f7aa75c4410d42b,TCR,2024-06-25_11h39.30.695,LearnStrategy,2023.2.3,MacIntel,56.81818182,1,2,7,,,,,,,,5,04,,,,,,,,,,,5,1.054,1,,,,,,-0.396758864,-0.408359239,1,0,0,1.0543,Obsidian_rect,6,0,6,0,1,
6643894e1f7aa75c4410d42b,TCR,2024-06-25_11h39.30.695,LearnStrategy,2023.2.3,MacIntel,56.81818182,1,2,8,,,,,,,,5,02,,,,,,,,,,,5,1.024,1,,,,,,-0.446302829,-0.419120144,1,0,0,1.0241,Obsidian_rect,7,0,7,0,1,
6643894e1f7aa75c4410d42b,TCR,2024-06-25_11h39.30.695,LearnStrategy,2023.2.3,MacIntel,56.81818182,1,2,9,,,,,,,,7,16,,,,,,,,,,,7,5.18,1,,,,,,0.090704617,-0.409314846,1,0,0,5.1801,Peridotite_rect,8,0,8,0,1,
6643894e1f7aa75c4410d42b,TCR,2024-06-25_11h39.30.695,LearnStrategy,2023.2.3,MacIntel,56.81818182,1,2,10,,,,,,,,8,16,,,,,,,,,,,8,1.629,1,,,,,,0.372937826,-0.395060764,1,0,0,1.6289,Pumice_rect,9,0,9,0,1,
6643894e1f7aa75c4410d42b,TCR,2024-06-25_11h39.30.695,LearnStrategy,2023.2.3,MacIntel,56.81818182,1,2,11,,,,,,,,1,03,,,,,,,,,,,2,2.454,0,,,,,,-0.111381158,-0.229456991,1,0,0,2.4538,Basalt_rect,10,0,10,0,1,
6643894e1f7aa75c4410d42b,TCR,2024-06-25_11h39.30.695,LearnStrategy,2023.2.3,MacIntel,56.81818182,1,2,12,,,,,,,,3,13,,,,,,,,,,,3,10.732,1,,,,,,0.160169135,-0.248485379,1,0,0,10.7319,Diorite_rect,11,0,11,0,1,
6643894e1f7aa75c4410d42b,TCR,2024-06-25_11h39.30.695,LearnStrategy,2023.2.3,MacIntel,56.81818182,1,2,13,,,,,,,,6,13,,,,,,,,,,,6,14.989,1,,,,,,-0.069235297,-0.384065213,1,0,0,14.9892,Pegmatite_rect,12,0,12,0,1,
6643894e1f7aa75c4410d42b,TCR,2024-06-25_11h39.30.695,LearnStrategy,2023.2.3,MacIntel,56.81818182,1,2,14,,,,,,,,2,14,,,,,,,,,,,2,3.226,1,,,,,,-0.148949246,-0.243947211,1,0,0,3.2261,Basalt_rect,13,0,13,0,1,
6643894e1f7aa75c4410d42b,TCR,2024-06-25_11h39.30.695,LearnStrategy,2023.2.3,MacIntel,56.81818182,1,2,15,,,,,,,,4,15,,,,,,,,,,,4,5.809,1,,,,,,0.340242242,-0.249139743,1,0,0,5.809,Gabbro_rect,14,0,14,0,1,
6643894e1f7aa75c4410d42b,TCR,2024-06-25_11h39.30.695,LearnStrategy,2023.2.3,MacIntel,56.81818182,1,2,16,,,,,,,,1,02,,,,,,,,,,,3,9.115,0,,,,,,0.117667779,-0.254195353,1,0,0,9.1145,Diorite_rect,15,0,15,0,1,
6643894e1f7aa75c4410d42b,TCR,2024-06-25_11h39.30.695,LearnStrategy,2023.2.3,MacIntel,56.81818182,2,1,1,0.063594157,-0.009590115,1,0,0,1.0966,rock_grid_rect_2,1,07,-1,-1,1.097,0.101013997,-0.236245795,1,0,0,4.1634,Diorite_rect,3,4.163,0,0,0,0,0,1,,,,,,,,,,,,,
6643894e1f7aa75c4410d42b,TCR,2024-06-25_11h39.30.695,LearnStrategy,2023.2.3,MacIntel,56.81818182,2,1,2,0.092699178,-0.01080424,1,0,0,0.9505,rock_grid_rect_2,4,12,-1,-1,0.95,-0.116463555,-0.26773234,1,0,0,2.7167,Basalt_rect,2,2.717,0,1,0,1,0,1,,,,,,,,,,,,,
6643894e1f7aa75c4410d42b,TCR,2024-06-25_11h39.30.695,LearnStrategy,2023.2.3,MacIntel,56.81818182,2,1,3,0.023047078,-0.008448079,1,0,0,0.7799,rock_grid_rect_2,4,16,-1,-1,0.78,0.350907118,-0.253994751,1,0,0,1.4345,Gabbro_rect,4,1.434,1,2,0,2,0,1,,,,,,,,,,,,,
6643894e1f7aa75c4410d42b,TCR,2024-06-25_11h39.30.695,LearnStrategy,2023.2.3,MacIntel,56.81818182,2,1,4,0.033547974,-0.018805474,1,0,0,0.9236,rock_grid_rect_2,1,16,-1,-1,0.924,0.312473891,-0.239516127,1,0,0,12.0912,Gabbro_rect,4,12.091,0,3,0,3,0,1,,,,,,,,,,,,,
6643894e1f7aa75c4410d42b,TCR,2024-06-25_11h39.30.695,LearnStrategy,2023.2.3,MacIntel,56.81818182,2,1,5,0.031856689,0.003893365,1,0,0,1.2445,rock_grid_rect_2,2,01,-1,-1,1.245,-0.148984239,-0.267358805,1,0,0,1.6391,Basalt_rect,2,1.639,1,4,0,4,0,1,,,,,,,,,,,,,
6643894e1f7aa75c4410d42b,TCR,2024-06-25_11h39.30.695,LearnStrategy,2023.2.3,MacIntel,56.81818182,2,1,6,-0.005840047,0.002618646,1,0,0,0.9143,rock_grid_rect_2,8,09,-1,-1,0.914,0.367098796,-0.402933417,1,0,0,1.2196,Pumice_rect,8,1.22,1,5,0,5,0,1,,,,,,,,,,,,,
6643894e1f7aa75c4410d42b,TCR,2024-06-25_11h39.30.695,LearnStrategy,2023.2.3,MacIntel,56.81818182,2,1,7,0.001096937,0.017387424,1,0,0,0.698,rock_grid_rect_2,1,07,-1,-1,0.698,-0.379506293,-0.26947035,1,0,0,7.7511,Andesite_rect,1,7.751,1,6,0,6,0,1,,,,,,,,,,,,,
6643894e1f7aa75c4410d42b,TCR,2024-06-25_11h39.30.695,LearnStrategy,2023.2.3,MacIntel,56.81818182,2,1,8,0.001946886,0.007002021,1,0,0,0.7956,rock_grid_rect_2,2,06,-1,-1,0.796,-0.113481649,-0.251626858,1,0,0,1.1204,Basalt_rect,2,1.12,1,7,0,7,0,1,,,,,,,,,,,,,
6643894e1f7aa75c4410d42b,TCR,2024-06-25_11h39.30.695,LearnStrategy,2023.2.3,MacIntel,56.81818182,2,1,9,-0.003570896,0.023717109,1,0,0,0.7301,rock_grid_rect_2,6,15,-1,-1,0.73,-0.129950629,-0.399529419,1,0,0,2.1154,Pegmatite_rect,6,2.115,1,8,0,8,0,1,,,,,,,,,,,,,
6643894e1f7aa75c4410d42b,TCR,2024-06-25_11h39.30.695,LearnStrategy,2023.2.3,MacIntel,56.81818182,2,1,10,0.011747097,0.005295614,1,0,0,0.7343,rock_grid_rect_2,4,01,-1,-1,0.734,-0.38124627,-0.264197388,1,0,0,2.8982,Andesite_rect,1,2.898,0,9,0,9,0,1,,,,,,,,,,,,,
6643894e1f7aa75c4410d42b,TCR,2024-06-25_11h39.30.695,LearnStrategy,2023.2.3,MacIntel,56.81818182,2,1,11,0.047286784,0.01343099,1,0,0,6.2054,rock_grid_rect_2,3,12,-1,-1,6.205,0.086238336,-0.249963515,1,0,0,3.1385,Diorite_rect,3,3.138,1,10,0,10,0,1,,,,,,,,,,,,,
6643894e1f7aa75c4410d42b,TCR,2024-06-25_11h39.30.695,LearnStrategy,2023.2.3,MacIntel,56.81818182,2,1,12,0.044434814,0.005353767,1,0,0,14.142,rock_grid_rect_2,5,12,-1,-1,14.142,-0.370458713,-0.39934333,1,0,0,2.1884,Obsidian_rect,5,2.188,1,11,0,11,0,1,,,,,,,,,,,,,
6643894e1f7aa75c4410d42b,TCR,2024-06-25_11h39.30.695,LearnStrategy,2023.2.3,MacIntel,56.81818182,2,1,13,-0.005779758,-0.012579176,1,0,0,0.7806,rock_grid_rect_2,2,06,-1,-1,0.781,-0.094838121,-0.254855754,1,0,0,1.5242,Basalt_rect,2,1.524,1,12,0,12,0,1,,,,,,,,,,,,,
6643894e1f7aa75c4410d42b,TCR,2024-06-25_11h39.30.695,LearnStrategy,2023.2.3,MacIntel,56.81818182,2,1,14,0.0163817,-0.014676954,1,0,0,0.8118,rock_grid_rect_2,1,01,-1,-1,0.812,0.390683458,-0.24328342,1,0,0,18.4247,Gabbro_rect,4,18.425,0,13,0,13,0,1,,,,,,,,,,,,,
6643894e1f7aa75c4410d42b,TCR,2024-06-25_11h39.30.695,LearnStrategy,2023.2.3,MacIntel,56.81818182,2,1,15,0.028276842,0.008589138,1,0,0,0.995,rock_grid_rect_2,2,16,-1,-1,0.995,-0.082923923,-0.237890082,1,0,0,1.2441,Basalt_rect,2,1.244,1,14,0,14,0,1,,,,,,,,,,,,,
6643894e1f7aa75c4410d42b,TCR,2024-06-25_11h39.30.695,LearnStrategy,2023.2.3,MacIntel,56.81818182,2,1,16,-0.012501221,0.014716153,1,0,0,0.6942,rock_grid_rect_2,1,09,-1,-1,0.694,-0.148980306,-0.250333591,1,0,0,4.5646,Basalt_rect,2,4.565,0,15,0,15,0,1,,,,,,,,,,,,,
6643894e1f7aa75c4410d42b,TCR,2024-06-25_11h39.30.695,LearnStrategy,2023.2.3,MacIntel,56.81818182,2,2,1,,,,,,,,2,11,,,,,,,,,,,8,6.527,0,,,,,,0.376109619,-0.399677192,1,0,0,6.5275,Pumice_rect,0,0,0,0,1,
6643894e1f7aa75c4410d42b,TCR,2024-06-25_11h39.30.695,LearnStrategy,2023.2.3,MacIntel,56.81818182,2,2,2,,,,,,,,8,15,,,,,,,,,,,8,3.669,1,,,,,,0.351378038,-0.393931342,1,0,0,3.6691,Pumice_rect,1,0,1,0,1,
6643894e1f7aa75c4410d42b,TCR,2024-06-25_11h39.30.695,LearnStrategy,2023.2.3,MacIntel,56.81818182,2,2,3,,,,,,,,5,14,,,,,,,,,,,5,1.148,1,,,,,,-0.407566562,-0.384840224,1,0,0,1.1476,Obsidian_rect,2,0,2,0,1,
6643894e1f7aa75c4410d42b,TCR,2024-06-25_11h39.30.695,LearnStrategy,2023.2.3,MacIntel,56.81818182,2,2,4,,,,,,,,6,07,,,,,,,,,,,6,2.332,1,,,,,,-0.12818061,-0.405254042,1,0,0,2.3322,Pegmatite_rect,3,0,3,0,1,
6643894e1f7aa75c4410d42b,TCR,2024-06-25_11h39.30.695,LearnStrategy,2023.2.3,MacIntel,56.81818182,2,2,5,,,,,,,,5,16,,,,,,,,,,,5,1.45,1,,,,,,-0.361490546,-0.393594428,1,0,0,1.4503,Obsidian_rect,4,0,4,0,1,
6643894e1f7aa75c4410d42b,TCR,2024-06-25_11h39.30.695,LearnStrategy,2023.2.3,MacIntel,56.81818182,2,2,6,,,,,,,,4,03,,,,,,,,,,,1,4.367,0,,,,,,-0.325050761,-0.250809801,1,0,0,4.3669,Andesite_rect,5,0,5,0,1,
6643894e1f7aa75c4410d42b,TCR,2024-06-25_11h39.30.695,LearnStrategy,2023.2.3,MacIntel,56.81818182,2,2,7,,,,,,,,1,05,,,,,,,,,,,1,13.834,1,,,,,,-0.469769558,-0.254550442,1,0,0,13.8338,Andesite_rect,6,0,6,0,1,
6643894e1f7aa75c4410d42b,TCR,2024-06-25_11h39.30.695,LearnStrategy,2023.2.3,MacIntel,56.81818182,2,2,8,,,,,,,,3,07,,,,,,,,,,,6,2.398,0,,,,,,-0.137728068,-0.41617669,1,0,0,2.3976,Pegmatite_rect,7,0,7,0,1,
6643894e1f7aa75c4410d42b,TCR,2024-06-25_11h39.30.695,LearnStrategy,2023.2.3,MacIntel,56.81818182,2,2,9,,,,,,,,8,08,,,,,,,,,,,8,2.193,1,,,,,,0.361187066,-0.407863091,1,0,0,2.1927,Pumice_rect,8,0,8,0,1,
6643894e1f7aa75c4410d42b,TCR,2024-06-25_11h39.30.695,LearnStrategy,2023.2.3,MacIntel,56.81818182,2,2,10,,,,,,,,2,05,,,,,,,,,,,2,1.28,1,,,,,,-0.111967095,-0.251688165,1,0,0,1.28,Basalt_rect,9,0,9,0,1,
6643894e1f7aa75c4410d42b,TCR,2024-06-25_11h39.30.695,LearnStrategy,2023.2.3,MacIntel,56.81818182,2,2,11,,,,,,,,3,11,,,,,,,,,,,4,2.718,0,,,,,,0.363830702,-0.243745456,1,0,0,2.718,Gabbro_rect,10,0,10,0,1,
6643894e1f7aa75c4410d42b,TCR,2024-06-25_11h39.30.695,LearnStrategy,2023.2.3,MacIntel,56.81818182,2,2,12,,,,,,,,7,13,,,,,,,,,,,7,2.227,1,,,,,,0.125763075,-0.400020752,1,0,0,2.2267,Peridotite_rect,11,0,11,0,1,
6643894e1f7aa75c4410d42b,TCR,2024-06-25_11h39.30.695,LearnStrategy,2023.2.3,MacIntel,56.81818182,2,2,13,,,,,,,,7,02,,,,,,,,,,,7,1.289,1,,,,,,0.098205973,-0.384847548,1,0,0,1.2892,Peridotite_rect,12,0,12,0,1,
6643894e1f7aa75c4410d42b,TCR,2024-06-25_11h39.30.695,LearnStrategy,2023.2.3,MacIntel,56.81818182,2,2,14,,,,,,,,6,16,,,,,,,,,,,6,2.976,1,,,,,,-0.130097724,-0.389824693,1,0,0,2.9764,Pegmatite_rect,13,0,13,0,1,
6643894e1f7aa75c4410d42b,TCR,2024-06-25_11h39.30.695,LearnStrategy,2023.2.3,MacIntel,56.81818182,2,2,15,,,,,,,,1,04,,,,,,,,,,,1,5.127,1,,,,,,-0.389570753,-0.240408054,1,0,0,5.1266,Andesite_rect,14,0,14,0,1,
6643894e1f7aa75c4410d42b,TCR,2024-06-25_11h39.30.695,LearnStrategy,2023.2.3,MacIntel,56.81818182,2,2,16,,,,,,,,4,13,,,,,,,,,,,4,11.085,1,,,,,,0.3423565,-0.268876072,1,0,0,11.0852,Gabbro_rect,15,0,15,0,1,
6643894e1f7aa75c4410d42b,TCR,2024-06-25_11h39.30.695,LearnStrategy,2023.2.3,MacIntel,56.81818182,3,1,1,0.020304362,0.002988349,1,0,0,0.7302,rock_grid_rect_2,3,08,-1,-1,0.73,0.105448947,-0.245596313,1,0,0,2.6609,Diorite_rect,3,2.661,1,0,0,0,0,1,,,,,,,,,,,,,
6643894e1f7aa75c4410d42b,TCR,2024-06-25_11h39.30.695,LearnStrategy,2023.2.3,MacIntel,56.81818182,3,1,2,0.00848999,0.00595971,1,0,0,1.4647,rock_grid_rect_2,3,16,-1,-1,1.465,0.09985989,-0.245557115,1,0,0,1.751,Diorite_rect,3,1.751,1,1,0,1,0,1,,,,,,,,,,,,,
6643894e1f7aa75c4410d42b,TCR,2024-06-25_11h39.30.695,LearnStrategy,2023.2.3,MacIntel,56.81818182,3,1,3,-0.038773465,0.023963725,1,0,0,0.7804,rock_grid_rect_2,4,08,-1,-1,0.78,0.362240397,-0.261570435,1,0,0,3.6459,Gabbro_rect,4,3.646,1,2,0,2,0,1,,,,,,,,,,,,,
6643894e1f7aa75c4410d42b,TCR,2024-06-25_11h39.30.695,LearnStrategy,2023.2.3,MacIntel,56.81818182,3,1,4,-0.011941867,0.003876953,1,0,0,0.862,rock_grid_rect_2,2,10,-1,-1,0.862,-0.118099569,-0.230711806,1,0,0,1.2379,Basalt_rect,2,1.238,1,3,0,3,0,1,,,,,,,,,,,,,
6643894e1f7aa75c4410d42b,TCR,2024-06-25_11h39.30.695,LearnStrategy,2023.2.3,MacIntel,56.81818182,3,1,5,-0.070825602,-0.006791178,1,0,0,0.7143,rock_grid_rect_2,8,14,-1,-1,0.714,0.402769775,-0.408235202,1,0,0,2.0045,Pumice_rect,8,2.004,1,4,0,4,0,1,,,,,,,,,,,,,
6643894e1f7aa75c4410d42b,TCR,2024-06-25_11h39.30.695,LearnStrategy,2023.2.3,MacIntel,56.81818182,3,1,6,-0.040242784,0.011752387,1,0,0,0.7279,rock_grid_rect_2,3,12,-1,-1,0.728,0.16101393,-0.263783773,1,0,0,8.6638,Diorite_rect,3,8.664,1,5,0,5,0,1,,,,,,,,,,,,,
6643894e1f7aa75c4410d42b,TCR,2024-06-25_11h39.30.695,LearnStrategy,2023.2.3,MacIntel,56.81818182,3,1,7,-0.004038222,-0.000918884,1,0,0,1.1896,rock_grid_rect_2,1,07,-1,-1,1.19,-0.369777018,-0.259816827,1,0,0,3.0179,Andesite_rect,1,3.018,1,6,0,6,0,1,,,,,,,,,,,,,
6643894e1f7aa75c4410d42b,TCR,2024-06-25_11h39.30.695,LearnStrategy,2023.2.3,MacIntel,56.81818182,3,1,8,-0.000534871,0.001653137,1,0,0,0.9296,rock_grid_rect_2,1,14,-1,-1,0.93,-0.095451457,-0.417713962,1,0,0,2.122,Pegmatite_rect,6,2.122,0,7,0,7,0,1,,,,,,,,,,,,,
6643894e1f7aa75c4410d42b,TCR,2024-06-25_11h39.30.695,LearnStrategy,2023.2.3,MacIntel,56.81818182,3,1,9,0.063522407,0.014905328,1,0,0,1.1456,rock_grid_rect_2,6,15,-1,-1,1.146,-0.115955878,-0.391105008,1,0,0,1.4897,Pegmatite_rect,6,1.49,1,8,0,8,0,1,,,,,,,,,,,,,
6643894e1f7aa75c4410d42b,TCR,2024-06-25_11h39.30.695,LearnStrategy,2023.2.3,MacIntel,56.81818182,3,1,10,0.005134413,0.017098456,1,0,0,0.9306,rock_grid_rect_2,5,10,-1,-1,0.931,-0.346550259,-0.406188558,1,0,0,1.7894,Obsidian_rect,5,1.789,1,9,0,9,0,1,,,,,,,,,,,,,
6643894e1f7aa75c4410d42b,TCR,2024-06-25_11h39.30.695,LearnStrategy,2023.2.3,MacIntel,56.81818182,3,1,11,0.056342638,0.018245341,1,0,0,0.7308,rock_grid_rect_2,2,10,-1,-1,0.731,-0.094593167,-0.237027384,1,0,0,0.9534,Basalt_rect,2,0.953,1,10,0,10,0,1,,,,,,,,,,,,,
6643894e1f7aa75c4410d42b,TCR,2024-06-25_11h39.30.695,LearnStrategy,2023.2.3,MacIntel,56.81818182,3,1,12,-0.017198147,-0.002707723,1,0,0,0.7288,rock_grid_rect_2,4,05,-1,-1,0.729,0.32253323,-0.234581028,1,0,0,2.8206,Gabbro_rect,4,2.821,1,11,0,11,0,1,,,,,,,,,,,,,
6643894e1f7aa75c4410d42b,TCR,2024-06-25_11h39.30.695,LearnStrategy,2023.2.3,MacIntel,56.81818182,3,1,13,-8.57205E-05,-9.59947E-05,1,0,0,0.6969,rock_grid_rect_2,1,09,-1,-1,0.697,-0.343061795,-0.251165636,1,0,0,1.3566,Andesite_rect,1,1.357,1,12,0,12,0,1,,,,,,,,,,,,,
6643894e1f7aa75c4410d42b,TCR,2024-06-25_11h39.30.695,LearnStrategy,2023.2.3,MacIntel,56.81818182,3,1,14,-0.011749403,0.017374234,1,0,0,0.7289,rock_grid_rect_2,3,06,-1,-1,0.729,0.1164603,-0.255395508,1,0,0,3.7551,Diorite_rect,3,3.755,1,13,0,13,0,1,,,,,,,,,,,,,
6643894e1f7aa75c4410d42b,TCR,2024-06-25_11h39.30.695,LearnStrategy,2023.2.3,MacIntel,56.81818182,3,1,15,0.001645643,0.008837925,1,0,0,0.7309,rock_grid_rect_2,4,16,-1,-1,0.731,-0.10150845,-0.235447049,1,0,0,1.5864,Basalt_rect,2,1.586,0,14,0,14,0,1,,,,,,,,,,,,,
6643894e1f7aa75c4410d42b,TCR,2024-06-25_11h39.30.695,LearnStrategy,2023.2.3,MacIntel,56.81818182,3,1,16,0.09227322,-0.00328576,1,0,0,0.8139,rock_grid_rect_2,2,08,-1,-1,0.814,-0.127183567,-0.252590671,1,0,0,1.0887,Basalt_rect,2,1.089,1,15,0,15,0,1,,,,,,,,,,,,,
6643894e1f7aa75c4410d42b,TCR,2024-06-25_11h39.30.695,LearnStrategy,2023.2.3,MacIntel,56.81818182,3,2,1,,,,,,,,4,10,,,,,,,,,,,4,2.153,1,,,,,,0.352447238,-0.233044095,1,0,0,2.153,Gabbro_rect,0,0,0,0,1,
6643894e1f7aa75c4410d42b,TCR,2024-06-25_11h39.30.695,LearnStrategy,2023.2.3,MacIntel,56.81818182,3,2,2,,,,,,,,5,05,,,,,,,,,,,5,4.106,1,,,,,,-0.359177517,-0.403757528,1,0,0,4.1064,Obsidian_rect,1,0,1,0,1,
6643894e1f7aa75c4410d42b,TCR,2024-06-25_11h39.30.695,LearnStrategy,2023.2.3,MacIntel,56.81818182,3,2,3,,,,,,,,3,02,,,,,,,,,,,3,1.487,1,,,,,,0.124664307,-0.242615221,1,0,0,1.4871,Diorite_rect,2,0,2,0,1,
6643894e1f7aa75c4410d42b,TCR,2024-06-25_11h39.30.695,LearnStrategy,2023.2.3,MacIntel,56.81818182,3,2,4,,,,,,,,4,09,,,,,,,,,,,4,3.252,1,,,,,,0.364008382,-0.234699164,1,0,0,3.2524,Gabbro_rect,3,0,3,0,1,
6643894e1f7aa75c4410d42b,TCR,2024-06-25_11h39.30.695,LearnStrategy,2023.2.3,MacIntel,56.81818182,3,2,5,,,,,,,,6,10,,,,,,,,,,,7,2.872,0,,,,,,0.12814487,-0.408593614,1,0,0,2.8719,Peridotite_rect,4,0,4,0,1,
6643894e1f7aa75c4410d42b,TCR,2024-06-25_11h39.30.695,LearnStrategy,2023.2.3,MacIntel,56.81818182,3,2,6,,,,,,,,3,10,,,,,,,,,,,3,1.51,1,,,,,,0.097291938,-0.258838908,1,0,0,1.5103,Diorite_rect,5,0,5,0,1,
6643894e1f7aa75c4410d42b,TCR,2024-06-25_11h39.30.695,LearnStrategy,2023.2.3,MacIntel,56.81818182,3,2,7,,,,,,,,8,10,,,,,,,,,,,8,2.486,1,,,,,,0.373758952,-0.390422974,1,0,0,2.486,Pumice_rect,6,0,6,0,1,
6643894e1f7aa75c4410d42b,TCR,2024-06-25_11h39.30.695,LearnStrategy,2023.2.3,MacIntel,56.81818182,3,2,8,,,,,,,,1,11,,,,,,,,,,,1,2.553,1,,,,,,-0.36777849,-0.244247301,1,0,0,2.5534,Andesite_rect,7,0,7,0,1,
6643894e1f7aa75c4410d42b,TCR,2024-06-25_11h39.30.695,LearnStrategy,2023.2.3,MacIntel,56.81818182,3,2,9,,,,,,,,8,05,,,,,,,,,,,8,1.239,1,,,,,,0.321503364,-0.393733792,1,0,0,1.2388,Pumice_rect,8,0,8,0,1,
6643894e1f7aa75c4410d42b,TCR,2024-06-25_11h39.30.695,LearnStrategy,2023.2.3,MacIntel,56.81818182,3,2,10,,,,,,,,6,05,,,,,,,,,,,5,4.017,0,,,,,,-0.346068217,-0.393771973,1,0,0,4.0173,Obsidian_rect,9,0,9,0,1,
6643894e1f7aa75c4410d42b,TCR,2024-06-25_11h39.30.695,LearnStrategy,2023.2.3,MacIntel,56.81818182,3,2,11,,,,,,,,2,09,,,,,,,,,,,2,0.941,1,,,,,,-0.0821521,-0.26359531,1,0,0,0.9408,Basalt_rect,10,0,10,0,1,
6643894e1f7aa75c4410d42b,TCR,2024-06-25_11h39.30.695,LearnStrategy,2023.2.3,MacIntel,56.81818182,3,2,12,,,,,,,,7,07,,,,,,,,,,,1,2.518,0,,,,,,-0.364054159,-0.236241387,1,0,0,2.5184,Andesite_rect,11,0,11,0,1,
6643894e1f7aa75c4410d42b,TCR,2024-06-25_11h39.30.695,LearnStrategy,2023.2.3,MacIntel,56.81818182,3,2,13,,,,,,,,5,08,,,,,,,,,,,5,1.221,1,,,,,,-0.352182617,-0.399997965,1,0,0,1.2205,Obsidian_rect,12,0,12,0,1,
6643894e1f7aa75c4410d42b,TCR,2024-06-25_11h39.30.695,LearnStrategy,2023.2.3,MacIntel,56.81818182,3,2,14,,,,,,,,7,14,,,,,,,,,,,7,2.453,1,,,,,,0.11668986,-0.401405911,1,0,0,2.4534,Peridotite_rect,13,0,13,0,1,
6643894e1f7aa75c4410d42b,TCR,2024-06-25_11h39.30.695,LearnStrategy,2023.2.3,MacIntel,56.81818182,3,2,15,,,,,,,,1,10,,,,,,,,,,,1,4.319,1,,,,,,-0.386297234,-0.252335341,1,0,0,4.3187,Andesite_rect,14,0,14,0,1,
6643894e1f7aa75c4410d42b,TCR,2024-06-25_11h39.30.695,LearnStrategy,2023.2.3,MacIntel,56.81818182,3,2,16,,,,,,,,2,04,,,,,,,,,,,2,1.006,1,,,,,,-0.111051704,-0.253476359,1,0,0,1.0059,Basalt_rect,15,0,15,0,1,
6643894e1f7aa75c4410d42b,TCR,2024-06-25_11h39.30.695,LearnStrategy,2023.2.3,MacIntel,56.81818182,4,1,1,0.04750434,0.001042209,1,0,0,0.6312,rock_grid_rect_2,6,09,-1,-1,0.631,-0.097281494,-0.399898275,1,0,0,3.0538,Pegmatite_rect,6,3.054,1,0,0,0,0,1,,,,,,,,,,,,,
6643894e1f7aa75c4410d42b,TCR,2024-06-25_11h39.30.695,LearnStrategy,2023.2.3,MacIntel,56.81818182,4,1,2,-0.053393216,-0.001526218,1,0,0,0.7967,rock_grid_rect_2,7,10,-1,-1,0.797,0.091853706,-0.394916653,1,0,0,3.6871,Peridotite_rect,7,3.687,1,1,0,1,0,1,,,,,,,,,,,,,
6643894e1f7aa75c4410d42b,TCR,2024-06-25_11h39.30.695,LearnStrategy,2023.2.3,MacIntel,56.81818182,4,1,3,-0.039469944,-0.002524245,1,0,0,0.7967,rock_grid_rect_2,5,10,-1,-1,0.797,-0.380303887,-0.396067912,1,0,0,0.9875,Obsidian_rect,5,0.988,1,2,0,2,0,1,,,,,,,,,,,,,
6643894e1f7aa75c4410d42b,TCR,2024-06-25_11h39.30.695,LearnStrategy,2023.2.3,MacIntel,56.81818182,4,1,4,0.015208672,-0.005690036,1,0,0,0.7292,rock_grid_rect_2,6,15,-1,-1,0.729,-0.146393975,-0.405525784,1,0,0,1.2879,Pegmatite_rect,6,1.288,1,3,0,3,0,1,,,,,,,,,,,,,
6643894e1f7aa75c4410d42b,TCR,2024-06-25_11h39.30.695,LearnStrategy,2023.2.3,MacIntel,56.81818182,4,1,5,-0.003522881,0.010206807,1,0,0,0.6983,rock_grid_rect_2,2,10,-1,-1,0.698,-0.091925252,-0.238627455,1,0,0,1.0564,Basalt_rect,2,1.056,1,4,0,4,0,1,,,,,,,,,,,,,
6643894e1f7aa75c4410d42b,TCR,2024-06-25_11h39.30.695,LearnStrategy,2023.2.3,MacIntel,56.81818182,4,1,6,0.000310262,-0.022853868,1,0,0,0.7314,rock_grid_rect_2,6,09,-1,-1,0.731,-0.106129489,-0.397618273,1,0,0,1.7557,Pegmatite_rect,6,1.756,1,5,0,5,0,1,,,,,,,,,,,,,
6643894e1f7aa75c4410d42b,TCR,2024-06-25_11h39.30.695,LearnStrategy,2023.2.3,MacIntel,56.81818182,4,1,7,0.003540514,-0.001670363,1,0,0,1.1631,rock_grid_rect_2,6,12,-1,-1,1.163,-0.327179972,-0.230637004,1,0,0,4.8538,Andesite_rect,1,4.854,0,6,0,6,0,1,,,,,,,,,,,,,
6643894e1f7aa75c4410d42b,TCR,2024-06-25_11h39.30.695,LearnStrategy,2023.2.3,MacIntel,56.81818182,4,1,8,0.019471029,-0.003764818,1,0,0,1.0635,rock_grid_rect_2,8,04,-1,-1,1.063,0.382277696,-0.41192315,1,0,0,1.5554,Pumice_rect,8,1.555,1,7,0,7,0,1,,,,,,,,,,,,,
6643894e1f7aa75c4410d42b,TCR,2024-06-25_11h39.30.695,LearnStrategy,2023.2.3,MacIntel,56.81818182,4,1,9,0.001409844,0.01165351,1,0,0,0.7305,rock_grid_rect_2,2,16,-1,-1,0.731,-0.144122111,-0.255221151,1,0,0,0.988,Basalt_rect,2,0.988,1,8,0,8,0,1,,,,,,,,,,,,,
6643894e1f7aa75c4410d42b,TCR,2024-06-25_11h39.30.695,LearnStrategy,2023.2.3,MacIntel,56.81818182,4,1,10,0.00829522,-0.014457126,1,0,0,0.6971,rock_grid_rect_2,3,06,-1,-1,0.697,0.119722765,-0.242265896,1,0,0,2.52,Diorite_rect,3,2.52,1,9,0,9,0,1,,,,,,,,,,,,,
6643894e1f7aa75c4410d42b,TCR,2024-06-25_11h39.30.695,LearnStrategy,2023.2.3,MacIntel,56.81818182,4,1,11,-0.010652601,0.010536702,1,0,0,0.7963,rock_grid_rect_2,1,07,-1,-1,0.796,0.05696323,-0.257819282,1,0,0,4.8185,Diorite_rect,3,4.819,0,10,0,10,0,1,,,,,,,,,,,,,
6643894e1f7aa75c4410d42b,TCR,2024-06-25_11h39.30.695,LearnStrategy,2023.2.3,MacIntel,56.81818182,4,1,12,0.011808879,-0.013044501,1,0,0,0.8951,rock_grid_rect_2,1,07,-1,-1,0.895,-0.369255032,-0.255952352,1,0,0,1.0215,Andesite_rect,1,1.021,1,11,0,11,0,1,,,,,,,,,,,,,
6643894e1f7aa75c4410d42b,TCR,2024-06-25_11h39.30.695,LearnStrategy,2023.2.3,MacIntel,56.81818182,4,1,13,-0.018573405,0.001779582,1,0,0,0.6966,rock_grid_rect_2,4,01,-1,-1,0.697,-0.348192274,-0.246443346,1,0,0,4.9197,Andesite_rect,1,4.92,0,12,0,12,0,1,,,,,,,,,,,,,
6643894e1f7aa75c4410d42b,TCR,2024-06-25_11h39.30.695,LearnStrategy,2023.2.3,MacIntel,56.81818182,4,1,14,0.043134291,-0.012238397,1,0,0,0.929,rock_grid_rect_2,4,14,-1,-1,0.929,0.40893297,-0.228988037,1,0,0,1.4879,Gabbro_rect,4,1.488,1,13,0,13,0,1,,,,,,,,,,,,,
6643894e1f7aa75c4410d42b,TCR,2024-06-25_11h39.30.695,LearnStrategy,2023.2.3,MacIntel,56.81818182,4,1,15,0.036229723,0.017351786,1,0,0,0.7635,rock_grid_rect_2,7,15,-1,-1,0.764,0.107035455,-0.413607856,1,0,0,1.4886,Peridotite_rect,7,1.489,1,14,0,14,0,1,,,,,,,,,,,,,
6643894e1f7aa75c4410d42b,TCR,2024-06-25_11h39.30.695,LearnStrategy,2023.2.3,MacIntel,56.81818182,4,1,16,-0.018598768,-0.007052714,1,0,0,0.764,rock_grid_rect_2,3,06,-1,-1,0.764,0.119248793,-0.267000326,1,0,0,2.088,Diorite_rect,3,2.088,1,15,0,15,0,1,,,,,,,,,,,,,
6643894e1f7aa75c4410d42b,TCR,2024-06-25_11h39.30.695,LearnStrategy,2023.2.3,MacIntel,56.81818182,4,2,1,,,,,,,,6,16,,,,,,,,,,,6,4.085,1,,,,,,-0.122907783,-0.390467733,1,0,0,4.0846,Pegmatite_rect,0,0,0,0,1,
6643894e1f7aa75c4410d42b,TCR,2024-06-25_11h39.30.695,LearnStrategy,2023.2.3,MacIntel,56.81818182,4,2,2,,,,,,,,4,15,,,,,,,,,,,4,3.939,1,,,,,,0.342453071,-0.253057658,1,0,0,3.9395,Gabbro_rect,1,0,1,0,1,
6643894e1f7aa75c4410d42b,TCR,2024-06-25_11h39.30.695,LearnStrategy,2023.2.3,MacIntel,56.81818182,4,2,3,,,,,,,,1,03,,,,,,,,,,,1,3.04,1,,,,,,-0.346372545,-0.240255737,1,0,0,3.0396,Andesite_rect,2,0,2,0,1,
6643894e1f7aa75c4410d42b,TCR,2024-06-25_11h39.30.695,LearnStrategy,2023.2.3,MacIntel,56.81818182,4,2,4,,,,,,,,2,05,,,,,,,,,,,2,1.875,1,,,,,,-0.121486003,-0.260725979,1,0,0,1.8754,Basalt_rect,3,0,3,0,1,
6643894e1f7aa75c4410d42b,TCR,2024-06-25_11h39.30.695,LearnStrategy,2023.2.3,MacIntel,56.81818182,4,2,5,,,,,,,,3,07,,,,,,,,,,,6,1.754,0,,,,,,-0.107699856,-0.391273126,1,0,0,1.7542,Pegmatite_rect,4,0,4,0,1,
6643894e1f7aa75c4410d42b,TCR,2024-06-25_11h39.30.695,LearnStrategy,2023.2.3,MacIntel,56.81818182,4,2,6,,,,,,,,8,16,,,,,,,,,,,8,1.122,1,,,,,,0.382027724,-0.387706706,1,0,0,1.1225,Pumice_rect,5,0,5,0,1,
6643894e1f7aa75c4410d42b,TCR,2024-06-25_11h39.30.695,LearnStrategy,2023.2.3,MacIntel,56.81818182,4,2,7,,,,,,,,7,13,,,,,,,,,,,7,1.055,1,,,,,,0.127278375,-0.421208293,1,0,0,1.0546,Peridotite_rect,6,0,6,0,1,
6643894e1f7aa75c4410d42b,TCR,2024-06-25_11h39.30.695,LearnStrategy,2023.2.3,MacIntel,56.81818182,4,2,8,,,,,,,,5,02,,,,,,,,,,,5,1.12,1,,,,,,-0.360002713,-0.382254096,1,0,0,1.1199,Obsidian_rect,7,0,7,0,1,
6643894e1f7aa75c4410d42b,TCR,2024-06-25_11h39.30.695,LearnStrategy,2023.2.3,MacIntel,56.81818182,4,2,9,,,,,,,,3,13,,,,,,,,,,,6,5.918,0,,,,,,-0.168998074,-0.411137424,1,0,0,5.9176,Pegmatite_rect,8,0,8,0,1,
6643894e1f7aa75c4410d42b,TCR,2024-06-25_11h39.30.695,LearnStrategy,2023.2.3,MacIntel,56.81818182,4,2,10,,,,,,,,7,05,,,,,,,,,,,7,6.47,1,,,,,,0.13423489,-0.400342136,1,0,0,6.4696,Peridotite_rect,9,0,9,0,1,
6643894e1f7aa75c4410d42b,TCR,2024-06-25_11h39.30.695,LearnStrategy,2023.2.3,MacIntel,56.81818182,4,2,11,,,,,,,,4,10,,,,,,,,,,,4,2.573,1,,,,,,0.353881429,-0.261431139,1,0,0,2.5727,Gabbro_rect,10,0,10,0,1,
6643894e1f7aa75c4410d42b,TCR,2024-06-25_11h39.30.695,LearnStrategy,2023.2.3,MacIntel,56.81818182,4,2,12,,,,,,,,1,10,,,,,,,,,,,1,2.905,1,,,,,,-0.354023777,-0.250953098,1,0,0,2.9049,Andesite_rect,11,0,11,0,1,
6643894e1f7aa75c4410d42b,TCR,2024-06-25_11h39.30.695,LearnStrategy,2023.2.3,MacIntel,56.81818182,4,2,13,,,,,,,,6,13,,,,,,,,,,,6,1.22,1,,,,,,-0.101964925,-0.406335517,1,0,0,1.2203,Pegmatite_rect,12,0,12,0,1,
6643894e1f7aa75c4410d42b,TCR,2024-06-25_11h39.30.695,LearnStrategy,2023.2.3,MacIntel,56.81818182,4,2,14,,,,,,,,2,11,,,,,,,,,,,8,6.35,0,,,,,,0.351046007,-0.396469184,1,0,0,6.3503,Pumice_rect,13,0,13,0,1,
6643894e1f7aa75c4410d42b,TCR,2024-06-25_11h39.30.695,LearnStrategy,2023.2.3,MacIntel,56.81818182,4,2,15,,,,,,,,8,05,,,,,,,,,,,8,1.177,1,,,,,,0.324881795,-0.393826836,1,0,0,1.177,Pumice_rect,14,0,14,0,1,
6643894e1f7aa75c4410d42b,TCR,2024-06-25_11h39.30.695,LearnStrategy,2023.2.3,MacIntel,56.81818182,4,2,16,,,,,,,,5,08,,,,,,,,,,,5,1.387,1,,,,,,-0.40602339,-0.40215644,1,0,0,1.3867,Obsidian_rect,15,0,15,0,1,
6643894e1f7aa75c4410d42b,TCR,2024-06-25_11h39.30.695,LearnStrategy,2023.2.3,MacIntel,56.81818182,5,1,1,0.030385946,-0.005593024,1,0,0,0.7311,rock_grid_rect_2,3,16,-1,-1,0.731,-0.353839349,-0.252934367,1,0,0,2.4884,Andesite_rect,1,2.488,0,0,0,0,0,1,,,,,,,,,,,,,
6643894e1f7aa75c4410d42b,TCR,2024-06-25_11h39.30.695,LearnStrategy,2023.2.3,MacIntel,56.81818182,5,1,2,-0.001436632,-0.002098965,1,0,0,0.963,rock_grid_rect_2,7,12,-1,-1,0.963,0.105507202,-0.253916423,1,0,0,3.4909,Diorite_rect,3,3.491,0,1,0,1,0,1,,,,,,,,,,,,,
6643894e1f7aa75c4410d42b,TCR,2024-06-25_11h39.30.695,LearnStrategy,2023.2.3,MacIntel,56.81818182,5,1,3,0.040007053,-0.013852607,1,0,0,0.7637,rock_grid_rect_2,7,04,-1,-1,0.764,0.107097643,-0.405448812,1,0,0,1.1536,Peridotite_rect,7,1.154,1,2,0,2,0,1,,,,,,,,,,,,,
6643894e1f7aa75c4410d42b,TCR,2024-06-25_11h39.30.695,LearnStrategy,2023.2.3,MacIntel,56.81818182,5,1,4,-0.023031481,0.006773953,1,0,0,0.7954,rock_grid_rect_2,3,14,-1,-1,0.795,0.081160617,-0.254843207,1,0,0,1.7557,Diorite_rect,3,1.756,1,3,0,3,0,1,,,,,,,,,,,,,
6643894e1f7aa75c4410d42b,TCR,2024-06-25_11h39.30.695,LearnStrategy,2023.2.3,MacIntel,56.81818182,5,1,5,0.015307482,-0.002645399,1,0,0,0.6984,rock_grid_rect_2,3,08,-1,-1,0.698,0.111186184,-0.250839437,1,0,0,1.0228,Diorite_rect,3,1.023,1,4,0,4,0,1,,,,,,,,,,,,,
6643894e1f7aa75c4410d42b,TCR,2024-06-25_11h39.30.695,LearnStrategy,2023.2.3,MacIntel,56.81818182,5,1,6,0.030464342,0.004827237,1,0,0,0.931,rock_grid_rect_2,1,14,-1,-1,0.931,-0.139458076,-0.388754612,1,0,0,1.9868,Pegmatite_rect,6,1.987,0,5,0,5,0,1,,,,,,,,,,,,,
6643894e1f7aa75c4410d42b,TCR,2024-06-25_11h39.30.695,LearnStrategy,2023.2.3,MacIntel,56.81818182,5,1,7,0.027414415,0.013594598,1,0,0,0.8124,rock_grid_rect_2,2,10,-1,-1,0.812,-0.110041165,-0.25529914,1,0,0,1.3882,Basalt_rect,2,1.388,1,6,0,6,0,1,,,,,,,,,,,,,
6643894e1f7aa75c4410d42b,TCR,2024-06-25_11h39.30.695,LearnStrategy,2023.2.3,MacIntel,56.81818182,5,1,8,0.000303819,0.00686615,1,0,0,0.8982,rock_grid_rect_2,3,06,-1,-1,0.898,0.129651693,-0.255664808,1,0,0,2.2524,Diorite_rect,3,2.252,1,7,0,7,0,1,,,,,,,,,,,,,
6643894e1f7aa75c4410d42b,TCR,2024-06-25_11h39.30.695,LearnStrategy,2023.2.3,MacIntel,56.81818182,5,1,9,0.004361979,-0.005945367,1,0,0,0.7967,rock_grid_rect_2,4,05,-1,-1,0.797,0.390599094,-0.243773329,1,0,0,3.5881,Gabbro_rect,4,3.588,1,8,0,8,0,1,,,,,,,,,,,,,
6643894e1f7aa75c4410d42b,TCR,2024-06-25_11h39.30.695,LearnStrategy,2023.2.3,MacIntel,56.81818182,5,1,10,0.027345852,-0.012323201,1,0,0,0.7634,rock_grid_rect_2,8,04,-1,-1,0.763,0.344269613,-0.384599406,1,0,0,1.2218,Pumice_rect,8,1.222,1,9,0,9,0,1,,,,,,,,,,,,,
6643894e1f7aa75c4410d42b,TCR,2024-06-25_11h39.30.695,LearnStrategy,2023.2.3,MacIntel,56.81818182,5,1,11,0.00530877,-0.008819478,1,0,0,0.7652,rock_grid_rect_2,2,08,-1,-1,0.765,-0.123651937,-0.257574599,1,0,0,3.1203,Basalt_rect,2,3.12,1,10,0,10,0,1,,,,,,,,,,,,,
6643894e1f7aa75c4410d42b,TCR,2024-06-25_11h39.30.695,LearnStrategy,2023.2.3,MacIntel,56.81818182,5,1,12,-0.024702488,-0.010729099,1,0,0,0.7633,rock_grid_rect_2,6,09,-1,-1,0.763,-0.105925293,-0.390994602,1,0,0,1.653,Pegmatite_rect,6,1.653,1,11,0,11,0,1,,,,,,,,,,,,,
6643894e1f7aa75c4410d42b,TCR,2024-06-25_11h39.30.695,LearnStrategy,2023.2.3,MacIntel,56.81818182,5,1,13,0.041618788,0.001942647,1,0,0,0.7964,rock_grid_rect_2,6,12,-1,-1,0.796,-0.081225315,-0.409548408,1,0,0,2.2205,Pegmatite_rect,6,2.22,1,12,0,12,0,1,,,,,,,,,,,,,
6643894e1f7aa75c4410d42b,TCR,2024-06-25_11h39.30.695,LearnStrategy,2023.2.3,MacIntel,56.81818182,5,1,14,-0.017465142,-0.009639486,1,0,0,0.763,rock_grid_rect_2,5,06,-1,-1,0.763,-0.394077081,-0.391341688,1,0,0,1.8567,Obsidian_rect,5,1.857,1,13,0,13,0,1,,,,,,,,,,,,,
6643894e1f7aa75c4410d42b,TCR,2024-06-25_11h39.30.695,LearnStrategy,2023.2.3,MacIntel,56.81818182,5,1,15,0.016777683,-0.005360175,1,0,0,0.7289,rock_grid_rect_2,6,09,-1,-1,0.729,-0.124790853,-0.405687934,1,0,0,1.2231,Pegmatite_rect,6,1.223,1,14,0,14,0,1,,,,,,,,,,,,,
6643894e1f7aa75c4410d42b,TCR,2024-06-25_11h39.30.695,LearnStrategy,2023.2.3,MacIntel,56.81818182,5,1,16,-0.015232001,0.021434903,1,0,0,0.7306,rock_grid_rect_2,2,06,-1,-1,0.731,-0.14461263,-0.244900716,1,0,0,0.9222,Basalt_rect,2,0.922,1,15,0,15,0,1,,,,,,,,,,,,,
6643894e1f7aa75c4410d42b,TCR,2024-06-25_11h39.30.695,LearnStrategy,2023.2.3,MacIntel,56.81818182,5,2,1,,,,,,,,8,08,,,,,,,,,,,8,1.353,1,,,,,,0.338916558,-0.401743707,1,0,0,1.3534,Pumice_rect,0,0,0,0,1,
6643894e1f7aa75c4410d42b,TCR,2024-06-25_11h39.30.695,LearnStrategy,2023.2.3,MacIntel,56.81818182,5,2,2,,,,,,,,7,16,,,,,,,,,,,4,2.29,0,,,,,,0.337394952,-0.241999851,1,0,0,2.2903,Gabbro_rect,1,0,1,0,1,
6643894e1f7aa75c4410d42b,TCR,2024-06-25_11h39.30.695,LearnStrategy,2023.2.3,MacIntel,56.81818182,5,2,3,,,,,,,,7,14,,,,,,,,,,,7,1.854,1,,,,,,0.142168376,-0.396134508,1,0,0,1.8535,Peridotite_rect,2,0,2,0,1,
6643894e1f7aa75c4410d42b,TCR,2024-06-25_11h39.30.695,LearnStrategy,2023.2.3,MacIntel,56.81818182,5,2,4,,,,,,,,6,07,,,,,,,,,,,6,1.072,1,,,,,,-0.124925537,-0.396329007,1,0,0,1.0717,Pegmatite_rect,3,0,3,0,1,
6643894e1f7aa75c4410d42b,TCR,2024-06-25_11h39.30.695,LearnStrategy,2023.2.3,MacIntel,56.81818182,5,2,5,,,,,,,,1,02,,,,,,,,,,,1,2.486,1,,,,,,-0.352743768,-0.238533664,1,0,0,2.4859,Andesite_rect,4,0,4,0,1,
6643894e1f7aa75c4410d42b,TCR,2024-06-25_11h39.30.695,LearnStrategy,2023.2.3,MacIntel,56.81818182,5,2,6,,,,,,,,8,06,,,,,,,,,,,8,1.108,1,,,,,,0.317764214,-0.405283881,1,0,0,1.1076,Pumice_rect,5,0,5,0,1,
6643894e1f7aa75c4410d42b,TCR,2024-06-25_11h39.30.695,LearnStrategy,2023.2.3,MacIntel,56.81818182,5,2,7,,,,,,,,6,05,,,,,,,,,,,6,4.718,1,,,,,,-0.118454183,-0.39941135,1,0,0,4.7184,Pegmatite_rect,6,0,6,0,1,
6643894e1f7aa75c4410d42b,TCR,2024-06-25_11h39.30.695,LearnStrategy,2023.2.3,MacIntel,56.81818182,5,2,8,,,,,,,,4,03,,,,,,,,,,,3,3.704,0,,,,,,0.151128404,-0.256796739,1,0,0,3.7044,Diorite_rect,7,0,7,0,1,
6643894e1f7aa75c4410d42b,TCR,2024-06-25_11h39.30.695,LearnStrategy,2023.2.3,MacIntel,56.81818182,5,2,9,,,,,,,,5,04,,,,,,,,,,,5,1.006,1,,,,,,-0.319161377,-0.405395711,1,0,0,1.0064,Obsidian_rect,8,0,8,0,1,
6643894e1f7aa75c4410d42b,TCR,2024-06-25_11h39.30.695,LearnStrategy,2023.2.3,MacIntel,56.81818182,5,2,10,,,,,,,,3,10,,,,,,,,,,,1,5.818,0,,,,,,-0.358908318,-0.254765896,1,0,0,5.8184,Andesite_rect,9,0,9,0,1,
6643894e1f7aa75c4410d42b,TCR,2024-06-25_11h39.30.695,LearnStrategy,2023.2.3,MacIntel,56.81818182,5,2,11,,,,,,,,5,05,,,,,,,,,,,5,1.074,1,,,,,,-0.421701321,-0.406339654,1,0,0,1.0737,Obsidian_rect,10,0,10,0,1,
6643894e1f7aa75c4410d42b,TCR,2024-06-25_11h39.30.695,LearnStrategy,2023.2.3,MacIntel,56.81818182,5,2,12,,,,,,,,4,09,,,,,,,,,,,4,1.786,1,,,,,,0.323179864,-0.250451931,1,0,0,1.7863,Gabbro_rect,11,0,11,0,1,
6643894e1f7aa75c4410d42b,TCR,2024-06-25_11h39.30.695,LearnStrategy,2023.2.3,MacIntel,56.81818182,5,2,13,,,,,,,,2,09,,,,,,,,,,,1,33.098,0,,,,,,-0.372836372,-0.237244059,1,0,0,33.0985,Andesite_rect,12,0,12,0,1,
6643894e1f7aa75c4410d42b,TCR,2024-06-25_11h39.30.695,LearnStrategy,2023.2.3,MacIntel,56.81818182,5,2,14,,,,,,,,1,04,,,,,,,,,,,1,4.103,1,,,,,,-0.342639092,-0.247817315,1,0,0,4.1032,Andesite_rect,13,0,13,0,1,
6643894e1f7aa75c4410d42b,TCR,2024-06-25_11h39.30.695,LearnStrategy,2023.2.3,MacIntel,56.81818182,5,2,15,,,,,,,,2,04,,,,,,,,,,,2,0.909,1,,,,,,-0.111632962,-0.262060004,1,0,0,0.9093,Basalt_rect,14,0,14,0,1,
6643894e1f7aa75c4410d42b,TCR,2024-06-25_11h39.30.695,LearnStrategy,2023.2.3,MacIntel,56.81818182,5,2,16,,,,,,,,3,11,,,,,,,,,,,3,1.419,1,,,,,,0.13374566,-0.240148722,1,0,0,1.4191,Diorite_rect,15,0,15,0,1,
6643894e1f7aa75c4410d42b,TCR,2024-06-25_11h39.30.695,LearnStrategy,2023.2.3,MacIntel,56.81818182,6,1,1,0.027070719,-0.013449436,1,0,0,0.5963,rock_grid_rect_2,1,07,-1,-1,0.596,0.120282118,-0.269545424,1,0,0,1.1238,Diorite_rect,3,1.124,0,0,0,0,0,1,,,,,,,,,,,,,
6643894e1f7aa75c4410d42b,TCR,2024-06-25_11h39.30.695,LearnStrategy,2023.2.3,MacIntel,56.81818182,6,1,2,0.024109904,-0.008394301,1,0,0,1.0304,rock_grid_rect_2,4,16,-1,-1,1.03,0.419798041,-0.242125448,1,0,0,1.255,Gabbro_rect,4,1.255,1,1,0,1,0,1,,,,,,,,,,,,,
6643894e1f7aa75c4410d42b,TCR,2024-06-25_11h39.30.695,LearnStrategy,2023.2.3,MacIntel,56.81818182,6,1,3,0.008326416,-0.004247199,1,0,0,0.7626,rock_grid_rect_2,6,03,-1,-1,0.763,-0.120812649,-0.404261949,1,0,0,1.589,Pegmatite_rect,6,1.589,1,2,0,2,0,1,,,,,,,,,,,,,
6643894e1f7aa75c4410d42b,TCR,2024-06-25_11h39.30.695,LearnStrategy,2023.2.3,MacIntel,56.81818182,6,1,4,0.002813314,0.014184842,1,0,0,0.6293,rock_grid_rect_2,3,12,-1,-1,0.629,0.110470785,-0.24117391,1,0,0,5.3189,Diorite_rect,3,5.319,1,3,0,3,0,1,,,,,,,,,,,,,
6643894e1f7aa75c4410d42b,TCR,2024-06-25_11h39.30.695,LearnStrategy,2023.2.3,MacIntel,56.81818182,6,1,5,0.014683228,-0.016078966,1,0,0,0.831,rock_grid_rect_2,4,12,-1,-1,0.831,0.374968804,-0.259230821,1,0,0,1.5536,Gabbro_rect,4,1.554,1,4,0,4,0,1,,,,,,,,,,,,,
6643894e1f7aa75c4410d42b,TCR,2024-06-25_11h39.30.695,LearnStrategy,2023.2.3,MacIntel,56.81818182,6,1,6,0.016740587,0.005851339,1,0,0,0.7647,rock_grid_rect_2,6,12,-1,-1,0.765,-0.12607015,-0.416613227,1,0,0,1.487,Pegmatite_rect,6,1.487,1,5,0,5,0,1,,,,,,,,,,,,,
6643894e1f7aa75c4410d42b,TCR,2024-06-25_11h39.30.695,LearnStrategy,2023.2.3,MacIntel,56.81818182,6,1,7,0.020709296,-0.008767463,1,0,0,0.7298,rock_grid_rect_2,2,06,-1,-1,0.73,-0.105379571,-0.249131198,1,0,0,1.0212,Basalt_rect,2,1.021,1,6,0,6,0,1,,,,,,,,,,,,,
6643894e1f7aa75c4410d42b,TCR,2024-06-25_11h39.30.695,LearnStrategy,2023.2.3,MacIntel,56.81818182,6,1,8,0.006536323,-0.009992167,1,0,0,1.3298,rock_grid_rect_2,7,12,-1,-1,1.33,0.112764553,-0.378791775,1,0,0,4.2881,Peridotite_rect,7,4.288,1,7,0,7,0,1,,,,,,,,,,,,,
6643894e1f7aa75c4410d42b,TCR,2024-06-25_11h39.30.695,LearnStrategy,2023.2.3,MacIntel,56.81818182,6,1,9,-0.01433275,0.002361925,1,0,0,0.7636,rock_grid_rect_2,8,04,-1,-1,0.764,0.342952745,-0.383933784,1,0,0,1.1222,Pumice_rect,8,1.122,1,8,0,8,0,1,,,,,,,,,,,,,
6643894e1f7aa75c4410d42b,TCR,2024-06-25_11h39.30.695,LearnStrategy,2023.2.3,MacIntel,56.81818182,6,1,10,0.027966715,0.013239644,1,0,0,1.1958,rock_grid_rect_2,3,08,-1,-1,1.196,0.097800022,-0.239966024,1,0,0,3.886,Diorite_rect,3,3.886,1,9,0,9,0,1,,,,,,,,,,,,,
6643894e1f7aa75c4410d42b,TCR,2024-06-25_11h39.30.695,LearnStrategy,2023.2.3,MacIntel,56.81818182,6,1,11,-0.00993042,0.020125766,1,0,0,0.664,rock_grid_rect_2,5,06,-1,-1,0.664,-0.377357551,-0.396401774,1,0,0,1.1239,Obsidian_rect,5,1.124,1,10,0,10,0,1,,,,,,,,,,,,,
6643894e1f7aa75c4410d42b,TCR,2024-06-25_11h39.30.695,LearnStrategy,2023.2.3,MacIntel,56.81818182,6,1,12,0.029592896,0.001345011,1,0,0,0.897,rock_grid_rect_2,7,08,-1,-1,0.897,0.133603516,-0.419188843,1,0,0,2.0875,Peridotite_rect,7,2.088,1,11,0,11,0,1,,,,,,,,,,,,,
6643894e1f7aa75c4410d42b,TCR,2024-06-25_11h39.30.695,LearnStrategy,2023.2.3,MacIntel,56.81818182,6,1,13,-0.000193481,-0.015680576,1,0,0,0.7635,rock_grid_rect_2,2,10,-1,-1,0.764,-0.121015896,-0.254909329,1,0,0,1.0885,Basalt_rect,2,1.089,1,12,0,12,0,1,,,,,,,,,,,,,
6643894e1f7aa75c4410d42b,TCR,2024-06-25_11h39.30.695,LearnStrategy,2023.2.3,MacIntel,56.81818182,6,1,14,-0.01509569,0.006271328,1,0,0,0.7638,rock_grid_rect_2,2,08,-1,-1,0.764,-0.107880859,-0.228690864,1,0,0,0.9218,Basalt_rect,2,0.922,1,13,0,13,0,1,,,,,,,,,,,,,
6643894e1f7aa75c4410d42b,TCR,2024-06-25_11h39.30.695,LearnStrategy,2023.2.3,MacIntel,56.81818182,6,1,15,0.003320177,-0.013048537,1,0,0,0.6961,rock_grid_rect_2,3,14,-1,-1,0.696,-0.362010701,-0.249449938,1,0,0,2.1215,Andesite_rect,1,2.121,0,14,0,14,0,1,,,,,,,,,,,,,
6643894e1f7aa75c4410d42b,TCR,2024-06-25_11h39.30.695,LearnStrategy,2023.2.3,MacIntel,56.81818182,6,1,16,0.071907552,0.001215413,1,0,0,0.9299,rock_grid_rect_2,3,06,-1,-1,0.93,-0.342492472,-0.237284614,1,0,0,1.7898,Andesite_rect,1,1.79,0,15,0,15,0,1,,,,,,,,,,,,,
6643894e1f7aa75c4410d42b,TCR,2024-06-25_11h39.30.695,LearnStrategy,2023.2.3,MacIntel,56.81818182,6,2,1,,,,,,,,7,07,,,,,,,,,,,7,2.318,1,,,,,,0.125447998,-0.397522447,1,0,0,2.3184,Peridotite_rect,0,0,0,0,1,
6643894e1f7aa75c4410d42b,TCR,2024-06-25_11h39.30.695,LearnStrategy,2023.2.3,MacIntel,56.81818182,6,2,2,,,,,,,,7,02,,,,,,,,,,,7,1.041,1,,,,,,0.117244466,-0.386375326,1,0,0,1.0407,Peridotite_rect,1,0,1,0,1,
6643894e1f7aa75c4410d42b,TCR,2024-06-25_11h39.30.695,LearnStrategy,2023.2.3,MacIntel,56.81818182,6,2,3,,,,,,,,4,13,,,,,,,,,,,1,6.15,0,,,,,,-0.43711263,-0.254142727,1,0,0,6.1501,Andesite_rect,2,0,2,0,1,
6643894e1f7aa75c4410d42b,TCR,2024-06-25_11h39.30.695,LearnStrategy,2023.2.3,MacIntel,56.81818182,6,2,4,,,,,,,,1,11,,,,,,,,,,,6,7.369,0,,,,,,-0.134256456,-0.40530443,1,0,0,7.3686,Pegmatite_rect,3,0,3,0,1,
6643894e1f7aa75c4410d42b,TCR,2024-06-25_11h39.30.695,LearnStrategy,2023.2.3,MacIntel,56.81818182,6,2,5,,,,,,,,4,11,,,,,,,,,,,4,1.305,1,,,,,,0.382138808,-0.263536445,1,0,0,1.3051,Gabbro_rect,4,0,4,0,1,
6643894e1f7aa75c4410d42b,TCR,2024-06-25_11h39.30.695,LearnStrategy,2023.2.3,MacIntel,56.81818182,6,2,6,,,,,,,,5,16,,,,,,,,,,,5,0.987,1,,,,,,-0.344243842,-0.410340712,1,0,0,0.9872,Obsidian_rect,5,0,5,0,1,
6643894e1f7aa75c4410d42b,TCR,2024-06-25_11h39.30.695,LearnStrategy,2023.2.3,MacIntel,56.81818182,6,2,7,,,,,,,,6,10,,,,,,,,,,,7,1.153,0,,,,,,0.115252957,-0.420191718,1,0,0,1.1527,Peridotite_rect,6,0,6,0,1,
6643894e1f7aa75c4410d42b,TCR,2024-06-25_11h39.30.695,LearnStrategy,2023.2.3,MacIntel,56.81818182,6,2,8,,,,,,,,8,10,,,,,,,,,,,8,1.587,1,,,,,,0.348513726,-0.407860311,1,0,0,1.5865,Pumice_rect,7,0,7,0,1,
6643894e1f7aa75c4410d42b,TCR,2024-06-25_11h39.30.695,LearnStrategy,2023.2.3,MacIntel,56.81818182,6,2,9,,,,,,,,6,11,,,,,,,,,,,5,2.986,0,,,,,,-0.38281311,-0.411304253,1,0,0,2.9865,Obsidian_rect,8,0,8,0,1,
6643894e1f7aa75c4410d42b,TCR,2024-06-25_11h39.30.695,LearnStrategy,2023.2.3,MacIntel,56.81818182,6,2,10,,,,,,,,1,05,,,,,,,,,,,1,6.438,1,,,,,,-0.335039808,-0.231908502,1,0,0,6.4375,Andesite_rect,9,0,9,0,1,
6643894e1f7aa75c4410d42b,TCR,2024-06-25_11h39.30.695,LearnStrategy,2023.2.3,MacIntel,56.81818182,6,2,11,,,,,,,,2,14,,,,,,,,,,,8,3.172,0,,,,,,0.377049154,-0.402396376,1,0,0,3.1723,Pumice_rect,10,0,10,0,1,
6643894e1f7aa75c4410d42b,TCR,2024-06-25_11h39.30.695,LearnStrategy,2023.2.3,MacIntel,56.81818182,6,2,12,,,,,,,,3,15,,,,,,,,,,,3,3.437,1,,,,,,0.118112929,-0.233018188,1,0,0,3.4374,Diorite_rect,11,0,11,0,1,
6643894e1f7aa75c4410d42b,TCR,2024-06-25_11h39.30.695,LearnStrategy,2023.2.3,MacIntel,56.81818182,6,2,13,,,,,,,,3,02,,,,,,,,,,,3,1.307,1,,,,,,0.074115262,-0.23235555,1,0,0,1.3071,Diorite_rect,12,0,12,0,1,
6643894e1f7aa75c4410d42b,TCR,2024-06-25_11h39.30.695,LearnStrategy,2023.2.3,MacIntel,56.81818182,6,2,14,,,,,,,,2,12,,,,,,,,,,,8,1.854,0,,,,,,0.420585802,-0.411417169,1,0,0,1.8542,Pumice_rect,13,0,13,0,1,
6643894e1f7aa75c4410d42b,TCR,2024-06-25_11h39.30.695,LearnStrategy,2023.2.3,MacIntel,56.81818182,6,2,15,,,,,,,,5,14,,,,,,,,,,,5,1.188,1,,,,,,-0.320044691,-0.395732625,1,0,0,1.1876,Obsidian_rect,14,0,14,0,1,
6643894e1f7aa75c4410d42b,TCR,2024-06-25_11h39.30.695,LearnStrategy,2023.2.3,MacIntel,56.81818182,6,2,16,,,,,,,,8,15,,,,,,,,,,,8,1.288,1,,,,,,0.340222032,-0.399848362,1,0,0,1.2877,Pumice_rect,15,0,15,0,1,
6643894e1f7aa75c4410d42b,TCR,2024-06-25_11h39.30.695,LearnStrategy,2023.2.3,MacIntel,56.81818182,7,1,1,0.025710992,0.007984416,1,0,0,1.0644,rock_grid_rect_2,5,06,-1,-1,1.064,-0.363433838,-0.401064657,1,0,0,1.5535,Obsidian_rect,5,1.553,1,0,0,0,0,1,,,,,,,,,,,,,
6643894e1f7aa75c4410d42b,TCR,2024-06-25_11h39.30.695,LearnStrategy,2023.2.3,MacIntel,56.81818182,7,1,2,-0.01813151,0.011498413,1,0,0,0.6301,rock_grid_rect_2,2,08,-1,-1,0.63,-0.108600803,-0.235451457,1,0,0,1.0225,Basalt_rect,2,1.023,1,1,0,1,0,1,,,,,,,,,,,,,
6643894e1f7aa75c4410d42b,TCR,2024-06-25_11h39.30.695,LearnStrategy,2023.2.3,MacIntel,56.81818182,7,1,3,-0.002503255,-0.013246121,1,0,0,0.8305,rock_grid_rect_2,3,16,-1,-1,0.831,0.137013753,-0.236476508,1,0,0,1.4546,Diorite_rect,3,1.455,1,2,0,2,0,1,,,,,,,,,,,,,
6643894e1f7aa75c4410d42b,TCR,2024-06-25_11h39.30.695,LearnStrategy,2023.2.3,MacIntel,56.81818182,7,1,4,-0.032186686,-0.01097975,1,0,0,0.7626,rock_grid_rect_2,6,09,-1,-1,0.763,-0.146244778,-0.37892612,1,0,0,1.0891,Pegmatite_rect,6,1.089,1,3,0,3,0,1,,,,,,,,,,,,,
6643894e1f7aa75c4410d42b,TCR,2024-06-25_11h39.30.695,LearnStrategy,2023.2.3,MacIntel,56.81818182,7,1,5,-0.002930094,0.002410719,1,0,0,0.7974,rock_grid_rect_2,1,01,-1,-1,0.797,-0.430076803,-0.268644206,1,0,0,2.5536,Andesite_rect,1,2.554,1,4,0,4,0,1,,,,,,,,,,,,,
6643894e1f7aa75c4410d42b,TCR,2024-06-25_11h39.30.695,LearnStrategy,2023.2.3,MacIntel,56.81818182,7,1,6,0.063395114,0.013640713,1,0,0,0.6626,rock_grid_rect_2,3,08,-1,-1,0.663,0.090980428,-0.265090129,1,0,0,1.9589,Diorite_rect,3,1.959,1,5,0,5,0,1,,,,,,,,,,,,,
6643894e1f7aa75c4410d42b,TCR,2024-06-25_11h39.30.695,LearnStrategy,2023.2.3,MacIntel,56.81818182,7,1,7,0.020139838,0.019793294,1,0,0,0.6969,rock_grid_rect_2,1,16,-1,-1,0.697,-0.404906887,-0.244162462,1,0,0,1.4565,Andesite_rect,1,1.457,1,6,0,6,0,1,,,,,,,,,,,,,
6643894e1f7aa75c4410d42b,TCR,2024-06-25_11h39.30.695,LearnStrategy,2023.2.3,MacIntel,56.81818182,7,1,8,-0.009250353,-0.011259901,1,0,0,0.7637,rock_grid_rect_2,4,01,-1,-1,0.764,-0.403373345,-0.257596029,1,0,0,2.2217,Andesite_rect,1,2.222,0,7,0,7,0,1,,,,,,,,,,,,,
6643894e1f7aa75c4410d42b,TCR,2024-06-25_11h39.30.695,LearnStrategy,2023.2.3,MacIntel,56.81818182,7,1,9,0.047362739,-0.000493944,1,0,0,1.095,rock_grid_rect_2,2,01,-1,-1,1.095,-0.125538194,-0.259709947,1,0,0,1.0574,Basalt_rect,2,1.057,1,8,0,8,0,1,,,,,,,,,,,,,
6643894e1f7aa75c4410d42b,TCR,2024-06-25_11h39.30.695,LearnStrategy,2023.2.3,MacIntel,56.81818182,7,1,10,-0.020044081,-0.014829508,1,0,0,0.6322,rock_grid_rect_2,6,15,-1,-1,0.632,-0.122943658,-0.39164171,1,0,0,1.2221,Pegmatite_rect,6,1.222,1,9,0,9,0,1,,,,,,,,,,,,,
6643894e1f7aa75c4410d42b,TCR,2024-06-25_11h39.30.695,LearnStrategy,2023.2.3,MacIntel,56.81818182,7,1,11,0.012743937,-0.014712084,1,0,0,0.6971,rock_grid_rect_2,2,08,-1,-1,0.697,-0.093855523,-0.259237603,1,0,0,0.889,Basalt_rect,2,0.889,1,10,0,10,0,1,,,,,,,,,,,,,
6643894e1f7aa75c4410d42b,TCR,2024-06-25_11h39.30.695,LearnStrategy,2023.2.3,MacIntel,56.81818182,7,1,12,0.00433431,-0.006893039,1,0,0,0.6307,rock_grid_rect_2,7,12,-1,-1,0.631,0.114687432,-0.407820299,1,0,0,3.186,Peridotite_rect,7,3.186,1,11,0,11,0,1,,,,,,,,,,,,,
6643894e1f7aa75c4410d42b,TCR,2024-06-25_11h39.30.695,LearnStrategy,2023.2.3,MacIntel,56.81818182,7,1,13,0.023720974,0.002969123,1,0,0,0.7627,rock_grid_rect_2,2,02,-1,-1,0.763,-0.140513984,-0.232708808,1,0,0,0.9229,Basalt_rect,2,0.923,1,12,0,12,0,1,,,,,,,,,,,,,
6643894e1f7aa75c4410d42b,TCR,2024-06-25_11h39.30.695,LearnStrategy,2023.2.3,MacIntel,56.81818182,7,1,14,-0.011512926,-0.015834317,1,0,0,0.6647,rock_grid_rect_2,4,14,-1,-1,0.665,0.355881755,-0.258814562,1,0,0,3.2198,Gabbro_rect,4,3.22,1,13,0,13,0,1,,,,,,,,,,,,,
6643894e1f7aa75c4410d42b,TCR,2024-06-25_11h39.30.695,LearnStrategy,2023.2.3,MacIntel,56.81818182,7,1,15,-0.010206367,0.005131463,1,0,0,0.6985,rock_grid_rect_2,6,08,-1,-1,0.698,-0.159725342,-0.408550618,1,0,0,1.0547,Pegmatite_rect,6,1.055,1,14,0,14,0,1,,,,,,,,,,,,,
6643894e1f7aa75c4410d42b,TCR,2024-06-25_11h39.30.695,LearnStrategy,2023.2.3,MacIntel,56.81818182,7,1,16,0.027495795,-0.001162109,1,0,0,0.5627,rock_grid_rect_2,8,03,-1,-1,0.563,0.362130669,-0.380378961,1,0,0,0.9559,Pumice_rect,8,0.956,1,15,0,15,0,1,,,,,,,,,,,,,
6643894e1f7aa75c4410d42b,TCR,2024-06-25_11h39.30.695,LearnStrategy,2023.2.3,MacIntel,56.81818182,7,2,1,,,,,,,,3,10,,,,,,,,,,,1,2.629,0,,,,,,-0.336136068,-0.243090346,1,0,0,2.6294,Andesite_rect,0,0,0,0,1,
6643894e1f7aa75c4410d42b,TCR,2024-06-25_11h39.30.695,LearnStrategy,2023.2.3,MacIntel,56.81818182,7,2,2,,,,,,,,6,13,,,,,,,,,,,6,1.153,1,,,,,,-0.080515544,-0.395204129,1,0,0,1.1534,Pegmatite_rect,1,0,1,0,1,
6643894e1f7aa75c4410d42b,TCR,2024-06-25_11h39.30.695,LearnStrategy,2023.2.3,MacIntel,56.81818182,7,2,3,,,,,,,,1,02,,,,,,,,,,,6,9.616,0,,,,,,-0.113285862,-0.396943834,1,0,0,9.6155,Pegmatite_rect,2,0,2,0,1,
6643894e1f7aa75c4410d42b,TCR,2024-06-25_11h39.30.695,LearnStrategy,2023.2.3,MacIntel,56.81818182,7,2,4,,,,,,,,6,10,,,,,,,,,,,7,2.374,0,,,,,,0.151289741,-0.391421305,1,0,0,2.3736,Peridotite_rect,3,0,3,0,1,
6643894e1f7aa75c4410d42b,TCR,2024-06-25_11h39.30.695,LearnStrategy,2023.2.3,MacIntel,56.81818182,7,2,5,,,,,,,,3,11,,,,,,,,,,,3,1.253,1,,,,,,0.085069173,-0.258662923,1,0,0,1.2532,Diorite_rect,4,0,4,0,1,
6643894e1f7aa75c4410d42b,TCR,2024-06-25_11h39.30.695,LearnStrategy,2023.2.3,MacIntel,56.81818182,7,2,6,,,,,,,,4,15,,,,,,,,,,,1,5.051,0,,,,,,-0.44127238,-0.26500278,1,0,0,5.051,Andesite_rect,5,0,5,0,1,
6643894e1f7aa75c4410d42b,TCR,2024-06-25_11h39.30.695,LearnStrategy,2023.2.3,MacIntel,56.81818182,7,2,7,,,,,,,,7,16,,,,,,,,,,,4,2.106,0,,,,,,0.35453125,-0.244998644,1,0,0,2.1059,Gabbro_rect,6,0,6,0,1,
6643894e1f7aa75c4410d42b,TCR,2024-06-25_11h39.30.695,LearnStrategy,2023.2.3,MacIntel,56.81818182,7,2,8,,,,,,,,8,10,,,,,,,,,,,8,0.92,1,,,,,,0.361142714,-0.403317396,1,0,0,0.9204,Pumice_rect,7,0,7,0,1,
6643894e1f7aa75c4410d42b,TCR,2024-06-25_11h39.30.695,LearnStrategy,2023.2.3,MacIntel,56.81818182,7,2,9,,,,,,,,5,08,,,,,,,,,,,5,0.92,1,,,,,,-0.369552273,-0.399106174,1,0,0,0.9203,Obsidian_rect,8,0,8,0,1,
6643894e1f7aa75c4410d42b,TCR,2024-06-25_11h39.30.695,LearnStrategy,2023.2.3,MacIntel,56.81818182,7,2,10,,,,,,,,2,12,,,,,,,,,,,8,1.22,0,,,,,,0.366186523,-0.383139513,1,0,0,1.2199,Pumice_rect,9,0,9,0,1,
6643894e1f7aa75c4410d42b,TCR,2024-06-25_11h39.30.695,LearnStrategy,2023.2.3,MacIntel,56.81818182,7,2,11,,,,,,,,7,02,,,,,,,,,,,7,1.288,1,,,,,,0.117048272,-0.399129096,1,0,0,1.2882,Peridotite_rect,10,0,10,0,1,
6643894e1f7aa75c4410d42b,TCR,2024-06-25_11h39.30.695,LearnStrategy,2023.2.3,MacIntel,56.81818182,7,2,12,,,,,,,,4,09,,,,,,,,,,,4,2.019,1,,,,,,0.406669651,-0.245741645,1,0,0,2.0191,Gabbro_rect,11,0,11,0,1,
6643894e1f7aa75c4410d42b,TCR,2024-06-25_11h39.30.695,LearnStrategy,2023.2.3,MacIntel,56.81818182,7,2,13,,,,,,,,1,04,,,,,,,,,,,1,2.22,1,,,,,,-0.370791016,-0.250106879,1,0,0,2.2198,Andesite_rect,12,0,12,0,1,
6643894e1f7aa75c4410d42b,TCR,2024-06-25_11h39.30.695,LearnStrategy,2023.2.3,MacIntel,56.81818182,7,2,14,,,,,,,,8,06,,,,,,,,,,,8,1.072,1,,,,,,0.342545437,-0.411868286,1,0,0,1.0725,Pumice_rect,13,0,13,0,1,
6643894e1f7aa75c4410d42b,TCR,2024-06-25_11h39.30.695,LearnStrategy,2023.2.3,MacIntel,56.81818182,7,2,15,,,,,,,,2,09,,,,,,,,,,,2,0.854,1,,,,,,-0.104744059,-0.238862779,1,0,0,0.8542,Basalt_rect,14,0,14,0,1,
6643894e1f7aa75c4410d42b,TCR,2024-06-25_11h39.30.695,LearnStrategy,2023.2.3,MacIntel,56.81818182,7,2,16,,,,,,,,5,16,,,,,,,,,,,5,0.953,1,,,,,,-0.386012336,-0.420260484,1,0,0,0.9533,Obsidian_rect,15,0,15,0,1,
6643894e1f7aa75c4410d42b,TCR,2024-06-25_11h39.30.695,LearnStrategy,2023.2.3,MacIntel,56.81818182,8,1,1,0.017383355,0.004134827,1,0,0,0.9969,rock_grid_rect_2,6,03,-1,-1,0.997,-0.087112766,-0.387649468,1,0,0,2.1543,Pegmatite_rect,6,2.154,1,0,0,0,0,1,,,,,,,,,,,,,
6643894e1f7aa75c4410d42b,TCR,2024-06-25_11h39.30.695,LearnStrategy,2023.2.3,MacIntel,56.81818182,8,1,2,0.03413893,-0.00350647,1,0,0,0.6955,rock_grid_rect_2,1,07,-1,-1,0.696,0.108252496,-0.237991401,1,0,0,1.4554,Diorite_rect,3,1.455,0,1,0,1,0,1,,,,,,,,,,,,,
6643894e1f7aa75c4410d42b,TCR,2024-06-25_11h39.30.695,LearnStrategy,2023.2.3,MacIntel,56.81818182,8,1,3,0.002847222,0.002593926,1,0,0,0.7952,rock_grid_rect_2,2,02,-1,-1,0.795,-0.091986491,-0.259102376,1,0,0,0.8893,Basalt_rect,2,0.889,1,2,0,2,0,1,,,,,,,,,,,,,
6643894e1f7aa75c4410d42b,TCR,2024-06-25_11h39.30.695,LearnStrategy,2023.2.3,MacIntel,56.81818182,8,1,4,-0.014630398,-0.016207377,1,0,0,0.6971,rock_grid_rect_2,7,12,-1,-1,0.697,0.110041911,-0.391747165,1,0,0,1.6224,Peridotite_rect,7,1.622,1,3,0,3,0,1,,,,,,,,,,,,,
6643894e1f7aa75c4410d42b,TCR,2024-06-25_11h39.30.695,LearnStrategy,2023.2.3,MacIntel,56.81818182,8,1,5,-0.002873535,0.005057678,1,0,0,0.6957,rock_grid_rect_2,6,06,-1,-1,0.696,-0.098329739,-0.401276923,1,0,0,4.2206,Pegmatite_rect,6,4.221,1,4,0,4,0,1,,,,,,,,,,,,,
6643894e1f7aa75c4410d42b,TCR,2024-06-25_11h39.30.695,LearnStrategy,2023.2.3,MacIntel,56.81818182,8,1,6,-0.024244588,-0.006656087,1,0,0,0.8285,rock_grid_rect_2,2,10,-1,-1,0.829,-0.07727105,-0.247223239,1,0,0,1.2563,Basalt_rect,2,1.256,1,5,0,5,0,1,,,,,,,,,,,,,
6643894e1f7aa75c4410d42b,TCR,2024-06-25_11h39.30.695,LearnStrategy,2023.2.3,MacIntel,56.81818182,8,1,7,0.042110799,0.010054728,1,0,0,1.0959,rock_grid_rect_2,4,01,-1,-1,1.096,0.360593262,-0.249551731,1,0,0,8.1859,Gabbro_rect,4,8.186,1,6,0,6,0,1,,,,,,,,,,,,,
6643894e1f7aa75c4410d42b,TCR,2024-06-25_11h39.30.695,LearnStrategy,2023.2.3,MacIntel,56.81818182,8,1,8,0.047757907,0.009083693,1,0,0,1.0973,rock_grid_rect_2,8,04,-1,-1,1.097,0.378721653,-0.405169542,1,0,0,1.0317,Pumice_rect,8,1.032,1,7,0,7,0,1,,,,,,,,,,,,,
6643894e1f7aa75c4410d42b,TCR,2024-06-25_11h39.30.695,LearnStrategy,2023.2.3,MacIntel,56.81818182,8,1,9,-0.029651828,-0.008327942,1,0,0,0.6981,rock_grid_rect_2,6,08,-1,-1,0.698,-0.141506144,-0.421491089,1,0,0,1.122,Pegmatite_rect,6,1.122,1,8,0,8,0,1,,,,,,,,,,,,,
6643894e1f7aa75c4410d42b,TCR,2024-06-25_11h39.30.695,LearnStrategy,2023.2.3,MacIntel,56.81818182,8,1,10,0.001671549,0.013991394,1,0,0,0.663,rock_grid_rect_2,3,09,-1,-1,0.663,0.113025784,-0.244366794,1,0,0,3.7885,Diorite_rect,3,3.788,1,9,0,9,0,1,,,,,,,,,,,,,
6643894e1f7aa75c4410d42b,TCR,2024-06-25_11h39.30.695,LearnStrategy,2023.2.3,MacIntel,56.81818182,8,1,11,0.001642999,-0.000354173,1,0,0,1.1645,rock_grid_rect_2,7,15,-1,-1,1.165,0.159186876,-0.392638346,1,0,0,1.3542,Peridotite_rect,7,1.354,1,10,0,10,0,1,,,,,,,,,,,,,
6643894e1f7aa75c4410d42b,TCR,2024-06-25_11h39.30.695,LearnStrategy,2023.2.3,MacIntel,56.81818182,8,1,12,-0.004167616,-0.009381036,1,0,0,0.7301,rock_grid_rect_2,1,01,-1,-1,0.73,0.383223741,-0.259149712,1,0,0,3.8552,Gabbro_rect,4,3.855,0,11,0,11,0,1,,,,,,,,,,,,,
6643894e1f7aa75c4410d42b,TCR,2024-06-25_11h39.30.695,LearnStrategy,2023.2.3,MacIntel,56.81818182,8,1,13,-0.018873223,0.000854187,1,0,0,0.7304,rock_grid_rect_2,3,14,-1,-1,0.73,0.086437107,-0.25121087,1,0,0,1.6539,Diorite_rect,3,1.654,1,12,0,12,0,1,,,,,,,,,,,,,
6643894e1f7aa75c4410d42b,TCR,2024-06-25_11h39.30.695,LearnStrategy,2023.2.3,MacIntel,56.81818182,8,1,14,-0.006250203,-0.001953023,1,0,0,0.7975,rock_grid_rect_2,5,09,-1,-1,0.797,-0.34901201,-0.396625502,1,0,0,1.1216,Obsidian_rect,5,1.122,1,13,0,13,0,1,,,,,,,,,,,,,
6643894e1f7aa75c4410d42b,TCR,2024-06-25_11h39.30.695,LearnStrategy,2023.2.3,MacIntel,56.81818182,8,1,15,0.003832397,-0.000618693,1,0,0,0.996,rock_grid_rect_2,2,08,-1,-1,0.996,-0.081577488,-0.237005073,1,0,0,0.8898,Basalt_rect,2,0.89,1,14,0,14,0,1,,,,,,,,,,,,,
6643894e1f7aa75c4410d42b,TCR,2024-06-25_11h39.30.695,LearnStrategy,2023.2.3,MacIntel,56.81818182,8,1,16,0.038882311,-0.005122715,1,0,0,0.7309,rock_grid_rect_2,4,08,-1,-1,0.731,0.34573622,-0.246691962,1,0,0,1.7207,Gabbro_rect,4,1.721,1,15,0,15,0,1,,,,,,,,,,,,,
6643894e1f7aa75c4410d42b,TCR,2024-06-25_11h39.30.695,LearnStrategy,2023.2.3,MacIntel,56.81818182,8,2,1,,,,,,,,1,10,,,,,,,,,,,4,1.754,0,,,,,,0.341956516,-0.2446934,1,0,0,1.7537,Gabbro_rect,0,0,0,0,1,
6643894e1f7aa75c4410d42b,TCR,2024-06-25_11h39.30.695,LearnStrategy,2023.2.3,MacIntel,56.81818182,8,2,2,,,,,,,,4,03,,,,,,,,,,,3,1.588,0,,,,,,0.093737929,-0.233347846,1,0,0,1.5875,Diorite_rect,1,0,1,0,1,
6643894e1f7aa75c4410d42b,TCR,2024-06-25_11h39.30.695,LearnStrategy,2023.2.3,MacIntel,56.81818182,8,2,3,,,,,,,,5,14,,,,,,,,,,,5,1.153,1,,,,,,-0.356531033,-0.394377916,1,0,0,1.1528,Obsidian_rect,2,0,2,0,1,
6643894e1f7aa75c4410d42b,TCR,2024-06-25_11h39.30.695,LearnStrategy,2023.2.3,MacIntel,56.81818182,8,2,4,,,,,,,,5,02,,,,,,,,,,,5,0.919,1,,,,,,-0.385483466,-0.401938612,1,0,0,0.9194,Obsidian_rect,3,0,3,0,1,
6643894e1f7aa75c4410d42b,TCR,2024-06-25_11h39.30.695,LearnStrategy,2023.2.3,MacIntel,56.81818182,8,2,5,,,,,,,,6,05,,,,,,,,,,,6,1.289,1,,,,,,-0.121638523,-0.394352281,1,0,0,1.2885,Pegmatite_rect,4,0,4,0,1,
6643894e1f7aa75c4410d42b,TCR,2024-06-25_11h39.30.695,LearnStrategy,2023.2.3,MacIntel,56.81818182,8,2,6,,,,,,,,7,14,,,,,,,,,,,7,1.505,1,,,,,,0.122083672,-0.401438124,1,0,0,1.5055,Peridotite_rect,5,0,5,0,1,
6643894e1f7aa75c4410d42b,TCR,2024-06-25_11h39.30.695,LearnStrategy,2023.2.3,MacIntel,56.81818182,8,2,7,,,,,,,,1,11,,,,,,,,,,,1,14.479,1,,,,,,-0.354285821,-0.241902195,1,0,0,14.4788,Andesite_rect,6,0,6,0,1,
6643894e1f7aa75c4410d42b,TCR,2024-06-25_11h39.30.695,LearnStrategy,2023.2.3,MacIntel,56.81818182,8,2,8,,,,,,,,7,07,,,,,,,,,,,4,1.773,0,,,,,,0.39327691,-0.242509562,1,0,0,1.7731,Gabbro_rect,7,0,7,0,1,
6643894e1f7aa75c4410d42b,TCR,2024-06-25_11h39.30.695,LearnStrategy,2023.2.3,MacIntel,56.81818182,8,2,9,,,,,,,,2,04,,,,,,,,,,,2,0.955,1,,,,,,-0.103098551,-0.254390666,1,0,0,0.9549,Basalt_rect,8,0,8,0,1,
6643894e1f7aa75c4410d42b,TCR,2024-06-25_11h39.30.695,LearnStrategy,2023.2.3,MacIntel,56.81818182,8,2,10,,,,,,,,3,13,,,,,,,,,,,3,1.22,1,,,,,,0.1093632,-0.2444477,1,0,0,1.2199,Diorite_rect,9,0,9,0,1,
6643894e1f7aa75c4410d42b,TCR,2024-06-25_11h39.30.695,LearnStrategy,2023.2.3,MacIntel,56.81818182,8,2,11,,,,,,,,8,05,,,,,,,,,,,8,1.255,1,,,,,,0.346650933,-0.39973626,1,0,0,1.2548,Pumice_rect,10,0,10,0,1,
6643894e1f7aa75c4410d42b,TCR,2024-06-25_11h39.30.695,LearnStrategy,2023.2.3,MacIntel,56.81818182,8,2,12,,,,,,,,2,14,,,,,,,,,,,8,8.215,0,,,,,,0.372527534,-0.412322388,1,0,0,8.2146,Pumice_rect,11,0,11,0,1,
6643894e1f7aa75c4410d42b,TCR,2024-06-25_11h39.30.695,LearnStrategy,2023.2.3,MacIntel,56.81818182,8,2,13,,,,,,,,4,11,,,,,,,,,,,4,1.738,1,,,,,,0.34270223,-0.238386773,1,0,0,1.7382,Gabbro_rect,12,0,12,0,1,
6643894e1f7aa75c4410d42b,TCR,2024-06-25_11h39.30.695,LearnStrategy,2023.2.3,MacIntel,56.81818182,8,2,14,,,,,,,,8,16,,,,,,,,,,,8,1.306,1,,,,,,0.36068278,-0.407456733,1,0,0,1.3056,Pumice_rect,13,0,13,0,1,
6643894e1f7aa75c4410d42b,TCR,2024-06-25_11h39.30.695,LearnStrategy,2023.2.3,MacIntel,56.81818182,8,2,15,,,,,,,,6,16,,,,,,,,,,,6,1.121,1,,,,,,-0.107297092,-0.399809638,1,0,0,1.1207,Pegmatite_rect,14,0,14,0,1,
6643894e1f7aa75c4410d42b,TCR,2024-06-25_11h39.30.695,LearnStrategy,2023.2.3,MacIntel,56.81818182,8,2,16,,,,,,,,3,07,,,,,,,,,,,1,2.22,0,,,,,,-0.339595032,-0.247787747,1,0,0,2.22,Andesite_rect,15,0,15,0,1,
6643894e1f7aa75c4410d42b,TCR,2024-06-25_11h39.30.695,LearnStrategy,2023.2.3,MacIntel,56.81818182,9,1,1,0.039544746,0.004136726,1,0,0,0.7307,rock_grid_rect_2,7,08,-1,-1,0.731,0.113190511,-0.417675781,1,0,0,1.8237,Peridotite_rect,7,1.824,1,0,0,0,0,1,,,,,,,,,,,,,
6643894e1f7aa75c4410d42b,TCR,2024-06-25_11h39.30.695,LearnStrategy,2023.2.3,MacIntel,56.81818182,9,1,2,0.011803792,-0.00326728,1,0,0,0.7966,rock_grid_rect_2,7,10,-1,-1,0.797,0.123075629,-0.403295492,1,0,0,1.3558,Peridotite_rect,7,1.356,1,1,0,1,0,1,,,,,,,,,,,,,
6643894e1f7aa75c4410d42b,TCR,2024-06-25_11h39.30.695,LearnStrategy,2023.2.3,MacIntel,56.81818182,9,1,3,0.020417006,0.006151937,1,0,0,0.6312,rock_grid_rect_2,1,14,-1,-1,0.631,-0.103251343,-0.395852322,1,0,0,1.3872,Pegmatite_rect,6,1.387,0,2,0,2,0,1,,,,,,,,,,,,,
6643894e1f7aa75c4410d42b,TCR,2024-06-25_11h39.30.695,LearnStrategy,2023.2.3,MacIntel,56.81818182,9,1,4,-0.017593113,-0.01200453,1,0,0,0.6955,rock_grid_rect_2,1,09,-1,-1,0.696,0.408022732,-0.249754503,1,0,0,1.3611,Gabbro_rect,4,1.361,0,3,0,3,0,1,,,,,,,,,,,,,
6643894e1f7aa75c4410d42b,TCR,2024-06-25_11h39.30.695,LearnStrategy,2023.2.3,MacIntel,56.81818182,9,1,5,0.028878445,0.008768005,1,0,0,0.7645,rock_grid_rect_2,2,06,-1,-1,0.764,-0.096640964,-0.253794217,1,0,0,1.0212,Basalt_rect,2,1.021,1,4,0,4,0,1,,,,,,,,,,,,,
6643894e1f7aa75c4410d42b,TCR,2024-06-25_11h39.30.695,LearnStrategy,2023.2.3,MacIntel,56.81818182,9,1,6,0.017480469,0.013350661,1,0,0,0.6976,rock_grid_rect_2,4,16,-1,-1,0.698,0.353900553,-0.248497925,1,0,0,0.8891,Gabbro_rect,4,0.889,1,5,0,5,0,1,,,,,,,,,,,,,
6643894e1f7aa75c4410d42b,TCR,2024-06-25_11h39.30.695,LearnStrategy,2023.2.3,MacIntel,56.81818182,9,1,7,0.029825982,-0.017014838,1,0,0,0.965,rock_grid_rect_2,3,08,-1,-1,0.965,-0.392969733,-0.256748589,1,0,0,1.8562,Andesite_rect,1,1.856,0,6,0,6,0,1,,,,,,,,,,,,,
6643894e1f7aa75c4410d42b,TCR,2024-06-25_11h39.30.695,LearnStrategy,2023.2.3,MacIntel,56.81818182,9,1,8,0.012923448,0.00026496,1,0,0,0.7641,rock_grid_rect_2,6,06,-1,-1,0.764,-0.125393473,-0.399693604,1,0,0,3.6854,Pegmatite_rect,6,3.685,1,7,0,7,0,1,,,,,,,,,,,,,
6643894e1f7aa75c4410d42b,TCR,2024-06-25_11h39.30.695,LearnStrategy,2023.2.3,MacIntel,56.81818182,9,1,9,0.042526449,-0.007263794,1,0,0,0.9971,rock_grid_rect_2,8,02,-1,-1,0.997,0.321997681,-0.416791789,1,0,0,1.2229,Pumice_rect,8,1.223,1,8,0,8,0,1,,,,,,,,,,,,,
6643894e1f7aa75c4410d42b,TCR,2024-06-25_11h39.30.695,LearnStrategy,2023.2.3,MacIntel,56.81818182,9,1,10,0.023174981,-0.014160156,1,0,0,0.897,rock_grid_rect_2,4,05,-1,-1,0.897,0.389236654,-0.266114705,1,0,0,2.4868,Gabbro_rect,4,2.487,1,9,0,9,0,1,,,,,,,,,,,,,
6643894e1f7aa75c4410d42b,TCR,2024-06-25_11h39.30.695,LearnStrategy,2023.2.3,MacIntel,56.81818182,9,1,11,0.003262465,-0.021720547,1,0,0,0.6969,rock_grid_rect_2,3,12,-1,-1,0.697,0.081137967,-0.23365214,1,0,0,1.3904,Diorite_rect,3,1.39,1,10,0,10,0,1,,,,,,,,,,,,,
6643894e1f7aa75c4410d42b,TCR,2024-06-25_11h39.30.695,LearnStrategy,2023.2.3,MacIntel,56.81818182,9,1,12,-0.016853163,-0.005767924,1,0,0,0.7628,rock_grid_rect_2,4,01,-1,-1,0.763,0.417515055,-0.258151042,1,0,0,6.8519,Gabbro_rect,4,6.852,1,11,0,11,0,1,,,,,,,,,,,,,
6643894e1f7aa75c4410d42b,TCR,2024-06-25_11h39.30.695,LearnStrategy,2023.2.3,MacIntel,56.81818182,9,1,13,0.007191162,-0.000295851,1,0,0,0.9974,rock_grid_rect_2,2,16,-1,-1,0.997,0.366713325,-0.238214247,1,0,0,3.2225,Gabbro_rect,4,3.223,0,12,0,12,0,1,,,,,,,,,,,,,
6643894e1f7aa75c4410d42b,TCR,2024-06-25_11h39.30.695,LearnStrategy,2023.2.3,MacIntel,56.81818182,9,1,14,0.000717706,-0.00221656,1,0,0,0.8958,rock_grid_rect_2,2,10,-1,-1,0.896,-0.122495321,-0.26793335,1,0,0,0.9542,Basalt_rect,2,0.954,1,13,0,13,0,1,,,,,,,,,,,,,
6643894e1f7aa75c4410d42b,TCR,2024-06-25_11h39.30.695,LearnStrategy,2023.2.3,MacIntel,56.81818182,9,1,15,-0.007518582,0.007858649,1,0,0,0.8634,rock_grid_rect_2,6,08,-1,-1,0.863,-0.111705594,-0.396866862,1,0,0,1.0545,Pegmatite_rect,6,1.054,1,14,0,14,0,1,,,,,,,,,,,,,
6643894e1f7aa75c4410d42b,TCR,2024-06-25_11h39.30.695,LearnStrategy,2023.2.3,MacIntel,56.81818182,9,1,16,-0.041743639,0.000290426,1,0,0,0.7977,rock_grid_rect_2,5,07,-1,-1,0.798,-0.340765042,-0.406617432,1,0,0,0.955,Obsidian_rect,5,0.955,1,15,0,15,0,1,,,,,,,,,,,,,
6643894e1f7aa75c4410d42b,TCR,2024-06-25_11h39.30.695,LearnStrategy,2023.2.3,MacIntel,56.81818182,9,2,1,,,,,,,,8,15,,,,,,,,,,,8,2.29,1,,,,,,0.390497911,-0.392830675,1,0,0,2.2899,Pumice_rect,0,0,0,0,1,
6643894e1f7aa75c4410d42b,TCR,2024-06-25_11h39.30.695,LearnStrategy,2023.2.3,MacIntel,56.81818182,9,2,2,,,,,,,,5,05,,,,,,,,,,,5,1.62,1,,,,,,-0.35654914,-0.390421482,1,0,0,1.6201,Obsidian_rect,1,0,1,0,1,
6643894e1f7aa75c4410d42b,TCR,2024-06-25_11h39.30.695,LearnStrategy,2023.2.3,MacIntel,56.81818182,9,2,3,,,,,,,,7,13,,,,,,,,,,,7,1.519,1,,,,,,0.144853787,-0.402528347,1,0,0,1.5193,Peridotite_rect,2,0,2,0,1,
6643894e1f7aa75c4410d42b,TCR,2024-06-25_11h39.30.695,LearnStrategy,2023.2.3,MacIntel,56.81818182,9,2,4,,,,,,,,8,08,,,,,,,,,,,8,1.321,1,,,,,,0.362115207,-0.409120348,1,0,0,1.3213,Pumice_rect,3,0,3,0,1,
6643894e1f7aa75c4410d42b,TCR,2024-06-25_11h39.30.695,LearnStrategy,2023.2.3,MacIntel,56.81818182,9,2,5,,,,,,,,5,04,,,,,,,,,,,5,1.154,1,,,,,,-0.367157322,-0.408026666,1,0,0,1.1543,Obsidian_rect,4,0,4,0,1,
6643894e1f7aa75c4410d42b,TCR,2024-06-25_11h39.30.695,LearnStrategy,2023.2.3,MacIntel,56.81818182,9,2,6,,,,,,,,2,11,,,,,,,,,,,4,4.389,0,,,,,,0.351196289,-0.246700507,1,0,0,4.3885,Gabbro_rect,5,0,5,0,1,
6643894e1f7aa75c4410d42b,TCR,2024-06-25_11h39.30.695,LearnStrategy,2023.2.3,MacIntel,56.81818182,9,2,7,,,,,,,,3,02,,,,,,,,,,,3,1.106,1,,,,,,0.113310411,-0.265622491,1,0,0,1.1064,Diorite_rect,6,0,6,0,1,
6643894e1f7aa75c4410d42b,TCR,2024-06-25_11h39.30.695,LearnStrategy,2023.2.3,MacIntel,56.81818182,9,2,8,,,,,,,,1,03,,,,,,,,,,,1,1.887,1,,,,,,-0.342722507,-0.25067159,1,0,0,1.8873,Andesite_rect,7,0,7,0,1,
6643894e1f7aa75c4410d42b,TCR,2024-06-25_11h39.30.695,LearnStrategy,2023.2.3,MacIntel,56.81818182,9,2,9,,,,,,,,3,15,,,,,,,,,,,3,1.554,1,,,,,,0.113576389,-0.255580241,1,0,0,1.5541,Diorite_rect,8,0,8,0,1,
6643894e1f7aa75c4410d42b,TCR,2024-06-25_11h39.30.695,LearnStrategy,2023.2.3,MacIntel,56.81818182,9,2,10,,,,,,,,1,05,,,,,,,,,,,1,2.687,1,,,,,,-0.345615234,-0.251147393,1,0,0,2.687,Andesite_rect,9,0,9,0,1,
6643894e1f7aa75c4410d42b,TCR,2024-06-25_11h39.30.695,LearnStrategy,2023.2.3,MacIntel,56.81818182,9,2,11,,,,,,,,6,07,,,,,,,,,,,6,1.305,1,,,,,,-0.131452433,-0.391046007,1,0,0,1.3055,Pegmatite_rect,10,0,10,0,1,
6643894e1f7aa75c4410d42b,TCR,2024-06-25_11h39.30.695,LearnStrategy,2023.2.3,MacIntel,56.81818182,9,2,12,,,,,,,,7,05,,,,,,,,,,,7,2.053,1,,,,,,0.141864963,-0.400996908,1,0,0,2.0532,Peridotite_rect,11,0,11,0,1,
6643894e1f7aa75c4410d42b,TCR,2024-06-25_11h39.30.695,LearnStrategy,2023.2.3,MacIntel,56.81818182,9,2,13,,,,,,,,4,13,,,,,,,,,,,4,3.885,1,,,,,,0.354825304,-0.253028293,1,0,0,3.8848,Gabbro_rect,12,0,12,0,1,
6643894e1f7aa75c4410d42b,TCR,2024-06-25_11h39.30.695,LearnStrategy,2023.2.3,MacIntel,56.81818182,9,2,14,,,,,,,,6,11,,,,,,,,,,,6,1.198,1,,,,,,-0.096978963,-0.389578518,1,0,0,1.1985,Pegmatite_rect,13,0,13,0,1,
6643894e1f7aa75c4410d42b,TCR,2024-06-25_11h39.30.695,LearnStrategy,2023.2.3,MacIntel,56.81818182,9,2,15,,,,,,,,4,10,,,,,,,,,,,4,1.566,1,,,,,,0.355949164,-0.232728,1,0,0,1.5661,Gabbro_rect,14,0,14,0,1,
6643894e1f7aa75c4410d42b,TCR,2024-06-25_11h39.30.695,LearnStrategy,2023.2.3,MacIntel,56.81818182,9,2,16,,,,,,,,2,05,,,,,,,,,,,2,0.789,1,,,,,,-0.101722344,-0.271136475,1,0,0,0.7887,Basalt_rect,15,0,15,0,1,
6643894e1f7aa75c4410d42b,TCR,2024-06-25_11h39.30.695,LearnStrategy,2023.2.3,MacIntel,56.81818182,,,,,,,,,,,,,,,,,,,,,,,,,,,,,,,,,,,,,,,,,,,1
6643894e1f7aa75c4410d42b,TCR,2024-06-25_11h39.30.695,LearnStrategy,2023.2.3,MacIntel,56.81818182,,,,,,,,,,,,,,,,,,,,,,,,,,,,,,,,,,,,,,,,,,,
6643894e1f7aa75c4410d42b,TCR,2024-06-25_11h39.30.695,LearnStrategy,2023.2.3,MacIntel,56.81818182,,,,,,,,,,,6,15,1,1,,,,,,,,,,,,,,,,,,,,,,,,,,,,,
6643894e1f7aa75c4410d42b,TCR,2024-06-25_11h39.30.695,LearnStrategy,2023.2.3,MacIntel,56.81818182,,,,,,,,,,,1,09,1,2,,,,,,,,,,,,,,,,,,,,,,,,,,,,,
6643894e1f7aa75c4410d42b,TCR,2024-06-25_11h39.30.695,LearnStrategy,2023.2.3,MacIntel,56.81818182,,,,,,,,,,,5,10,1,3,,,,,,,,,,,,,,,,,,,,,,,,,,,,,
6643894e1f7aa75c4410d42b,TCR,2024-06-25_11h39.30.695,LearnStrategy,2023.2.3,MacIntel,56.81818182,,,,,,,,,,,1,16,1,4,,,,,,,,,,,,,,,,,,,,,,,,,,,,,
6643894e1f7aa75c4410d42b,TCR,2024-06-25_11h39.30.695,LearnStrategy,2023.2.3,MacIntel,56.81818182,,,,,,,,,,,1,06,1,5,,,,,,,,,,,,,,,,,,,,,,,,,,,,,
6643894e1f7aa75c4410d42b,TCR,2024-06-25_11h39.30.695,LearnStrategy,2023.2.3,MacIntel,56.81818182,,,,,,,,,,,7,04,1,6,,,,,,,,,,,,,,,,,,,,,,,,,,,,,
6643894e1f7aa75c4410d42b,TCR,2024-06-25_11h39.30.695,LearnStrategy,2023.2.3,MacIntel,56.81818182,,,,,,,,,,,4,05,1,7,,,,,,,,,,,,,,,,,,,,,,,,,,,,,
6643894e1f7aa75c4410d42b,TCR,2024-06-25_11h39.30.695,LearnStrategy,2023.2.3,MacIntel,56.81818182,,,,,,,,,,,7,12,1,8,,,,,,,,,,,,,,,,,,,,,,,,,,,,,
6643894e1f7aa75c4410d42b,TCR,2024-06-25_11h39.30.695,LearnStrategy,2023.2.3,MacIntel,56.81818182,,,,,,,,,,,8,02,2,1,,,,,,,,,,,,,,,,,,,,,,,,,,,,,
6643894e1f7aa75c4410d42b,TCR,2024-06-25_11h39.30.695,LearnStrategy,2023.2.3,MacIntel,56.81818182,,,,,,,,,,,6,12,2,2,,,,,,,,,,,,,,,,,,,,,,,,,,,,,
6643894e1f7aa75c4410d42b,TCR,2024-06-25_11h39.30.695,LearnStrategy,2023.2.3,MacIntel,56.81818182,,,,,,,,,,,3,08,2,3,,,,,,,,,,,,,,,,,,,,,,,,,,,,,
6643894e1f7aa75c4410d42b,TCR,2024-06-25_11h39.30.695,LearnStrategy,2023.2.3,MacIntel,56.81818182,,,,,,,,,,,3,09,2,4,,,,,,,,,,,,,,,,,,,,,,,,,,,,,
6643894e1f7aa75c4410d42b,TCR,2024-06-25_11h39.30.695,LearnStrategy,2023.2.3,MacIntel,56.81818182,,,,,,,,,,,2,01,2,5,,,,,,,,,,,,,,,,,,,,,,,,,,,,,
6643894e1f7aa75c4410d42b,TCR,2024-06-25_11h39.30.695,LearnStrategy,2023.2.3,MacIntel,56.81818182,,,,,,,,,,,3,06,2,6,,,,,,,,,,,,,,,,,,,,,,,,,,,,,
6643894e1f7aa75c4410d42b,TCR,2024-06-25_11h39.30.695,LearnStrategy,2023.2.3,MacIntel,56.81818182,,,,,,,,,,,7,06,2,7,,,,,,,,,,,,,,,,,,,,,,,,,,,,,
6643894e1f7aa75c4410d42b,TCR,2024-06-25_11h39.30.695,LearnStrategy,2023.2.3,MacIntel,56.81818182,,,,,,,,,,,8,03,2,8,,,,,,,,,,,,,,,,,,,,,,,,,,,,,
6643894e1f7aa75c4410d42b,TCR,2024-06-25_11h39.30.695,LearnStrategy,2023.2.3,MacIntel,56.81818182,,,,,,,,,,,6,03,3,1,,,,,,,,,,,,,,,,,,,,,,,,,,,,,
6643894e1f7aa75c4410d42b,TCR,2024-06-25_11h39.30.695,LearnStrategy,2023.2.3,MacIntel,56.81818182,,,,,,,,,,,5,06,3,2,,,,,,,,,,,,,,,,,,,,,,,,,,,,,
6643894e1f7aa75c4410d42b,TCR,2024-06-25_11h39.30.695,LearnStrategy,2023.2.3,MacIntel,56.81818182,,,,,,,,,,,4,12,3,3,,,,,,,,,,,,,,,,,,,,,,,,,,,,,
6643894e1f7aa75c4410d42b,TCR,2024-06-25_11h39.30.695,LearnStrategy,2023.2.3,MacIntel,56.81818182,,,,,,,,,,,7,15,3,4,,,,,,,,,,,,,,,,,,,,,,,,,,,,,
6643894e1f7aa75c4410d42b,TCR,2024-06-25_11h39.30.695,LearnStrategy,2023.2.3,MacIntel,56.81818182,,,,,,,,,,,6,08,3,5,,,,,,,,,,,,,,,,,,,,,,,,,,,,,
6643894e1f7aa75c4410d42b,TCR,2024-06-25_11h39.30.695,LearnStrategy,2023.2.3,MacIntel,56.81818182,,,,,,,,,,,4,14,3,6,,,,,,,,,,,,,,,,,,,,,,,,,,,,,
6643894e1f7aa75c4410d42b,TCR,2024-06-25_11h39.30.695,LearnStrategy,2023.2.3,MacIntel,56.81818182,,,,,,,,,,,7,08,3,7,,,,,,,,,,,,,,,,,,,,,,,,,,,,,
6643894e1f7aa75c4410d42b,TCR,2024-06-25_11h39.30.695,LearnStrategy,2023.2.3,MacIntel,56.81818182,,,,,,,,,,,4,01,3,8,,,,,,,,,,,,,,,,,,,,,,,,,,,,,
6643894e1f7aa75c4410d42b,TCR,2024-06-25_11h39.30.695,LearnStrategy,2023.2.3,MacIntel,56.81818182,,,,,,,,,,,3,12,4,1,,,,,,,,,,,,,,,,,,,,,,,,,,,,,
6643894e1f7aa75c4410d42b,TCR,2024-06-25_11h39.30.695,LearnStrategy,2023.2.3,MacIntel,56.81818182,,,,,,,,,,,5,07,4,2,,,,,,,,,,,,,,,,,,,,,,,,,,,,,
6643894e1f7aa75c4410d42b,TCR,2024-06-25_11h39.30.695,LearnStrategy,2023.2.3,MacIntel,56.81818182,,,,,,,,,,,4,16,4,3,,,,,,,,,,,,,,,,,,,,,,,,,,,,,
6643894e1f7aa75c4410d42b,TCR,2024-06-25_11h39.30.695,LearnStrategy,2023.2.3,MacIntel,56.81818182,,,,,,,,,,,4,08,4,4,,,,,,,,,,,,,,,,,,,,,,,,,,,,,
6643894e1f7aa75c4410d42b,TCR,2024-06-25_11h39.30.695,LearnStrategy,2023.2.3,MacIntel,56.81818182,,,,,,,,,,,2,08,4,5,,,,,,,,,,,,,,,,,,,,,,,,,,,,,
6643894e1f7aa75c4410d42b,TCR,2024-06-25_11h39.30.695,LearnStrategy,2023.2.3,MacIntel,56.81818182,,,,,,,,,,,8,04,4,6,,,,,,,,,,,,,,,,,,,,,,,,,,,,,
6643894e1f7aa75c4410d42b,TCR,2024-06-25_11h39.30.695,LearnStrategy,2023.2.3,MacIntel,56.81818182,,,,,,,,,,,2,06,4,7,,,,,,,,,,,,,,,,,,,,,,,,,,,,,
6643894e1f7aa75c4410d42b,TCR,2024-06-25_11h39.30.695,LearnStrategy,2023.2.3,MacIntel,56.81818182,,,,,,,,,,,6,09,4,8,,,,,,,,,,,,,,,,,,,,,,,,,,,,,
6643894e1f7aa75c4410d42b,TCR,2024-06-25_11h39.30.695,LearnStrategy,2023.2.3,MacIntel,56.81818182,,,,,,,,,,,8,14,5,1,,,,,,,,,,,,,,,,,,,,,,,,,,,,,
6643894e1f7aa75c4410d42b,TCR,2024-06-25_11h39.30.695,LearnStrategy,2023.2.3,MacIntel,56.81818182,,,,,,,,,,,2,10,5,2,,,,,,,,,,,,,,,,,,,,,,,,,,,,,
6643894e1f7aa75c4410d42b,TCR,2024-06-25_11h39.30.695,LearnStrategy,2023.2.3,MacIntel,56.81818182,,,,,,,,,,,8,13,5,3,,,,,,,,,,,,,,,,,,,,,,,,,,,,,
6643894e1f7aa75c4410d42b,TCR,2024-06-25_11h39.30.695,LearnStrategy,2023.2.3,MacIntel,56.81818182,,,,,,,,,,,5,12,5,4,,,,,,,,,,,,,,,,,,,,,,,,,,,,,
6643894e1f7aa75c4410d42b,TCR,2024-06-25_11h39.30.695,LearnStrategy,2023.2.3,MacIntel,56.81818182,,,,,,,,,,,1,01,5,5,,,,,,,,,,,,,,,,,,,,,,,,,,,,,
6643894e1f7aa75c4410d42b,TCR,2024-06-25_11h39.30.695,LearnStrategy,2023.2.3,MacIntel,56.81818182,,,,,,,,,,,1,07,5,6,,,,,,,,,,,,,,,,,,,,,,,,,,,,,
6643894e1f7aa75c4410d42b,TCR,2024-06-25_11h39.30.695,LearnStrategy,2023.2.3,MacIntel,56.81818182,,,,,,,,,,,3,14,5,7,,,,,,,,,,,,,,,,,,,,,,,,,,,,,
6643894e1f7aa75c4410d42b,TCR,2024-06-25_11h39.30.695,LearnStrategy,2023.2.3,MacIntel,56.81818182,,,,,,,,,,,5,09,5,8,,,,,,,,,,,,,,,,,,,,,,,,,,,,,
6643894e1f7aa75c4410d42b,TCR,2024-06-25_11h39.30.695,LearnStrategy,2023.2.3,MacIntel,56.81818182,,,,,,,,,,,2,16,6,1,,,,,,,,,,,,,,,,,,,,,,,,,,,,,
6643894e1f7aa75c4410d42b,TCR,2024-06-25_11h39.30.695,LearnStrategy,2023.2.3,MacIntel,56.81818182,,,,,,,,,,,8,09,6,2,,,,,,,,,,,,,,,,,,,,,,,,,,,,,
6643894e1f7aa75c4410d42b,TCR,2024-06-25_11h39.30.695,LearnStrategy,2023.2.3,MacIntel,56.81818182,,,,,,,,,,,2,02,6,3,,,,,,,,,,,,,,,,,,,,,,,,,,,,,
6643894e1f7aa75c4410d42b,TCR,2024-06-25_11h39.30.695,LearnStrategy,2023.2.3,MacIntel,56.81818182,,,,,,,,,,,1,14,6,4,,,,,,,,,,,,,,,,,,,,,,,,,,,,,
6643894e1f7aa75c4410d42b,TCR,2024-06-25_11h39.30.695,LearnStrategy,2023.2.3,MacIntel,56.81818182,,,,,,,,,,,7,10,6,5,,,,,,,,,,,,,,,,,,,,,,,,,,,,,
6643894e1f7aa75c4410d42b,TCR,2024-06-25_11h39.30.695,LearnStrategy,2023.2.3,MacIntel,56.81818182,,,,,,,,,,,6,06,6,6,,,,,,,,,,,,,,,,,,,,,,,,,,,,,
6643894e1f7aa75c4410d42b,TCR,2024-06-25_11h39.30.695,LearnStrategy,2023.2.3,MacIntel,56.81818182,,,,,,,,,,,5,11,6,7,,,,,,,,,,,,,,,,,,,,,,,,,,,,,
6643894e1f7aa75c4410d42b,TCR,2024-06-25_11h39.30.695,LearnStrategy,2023.2.3,MacIntel,56.81818182,,,,,,,,,,,3,16,6,8,,,,,,,,,,,,,,,,,,,,,,,,,,,,,