participant,condition,date,expName,psychopyVersion,OS,frameRate,block,phase,trial,learn_mouse_2.x,learn_mouse_2.y,learn_mouse_2.leftButton,learn_mouse_2.midButton,learn_mouse_2.rightButton,learn_mouse_2.time,learn_mouse_2.clicked_name,cat,token,row,col,t_select,cat_mouse_l.x,cat_mouse_l.y,cat_mouse_l.leftButton,cat_mouse_l.midButton,cat_mouse_l.rightButton,cat_mouse_l.time,cat_mouse_l.clicked_name,resp,t_resp,corr,train_trials.thisRepN,train_trials.thisTrialN,train_trials.thisN,train_trials.thisIndex,train_trials.ran,cat_mouse_t.x,cat_mouse_t.y,cat_mouse_t.leftButton,cat_mouse_t.midButton,cat_mouse_t.rightButton,cat_mouse_t.time,cat_mouse_t.clicked_name,test_trials.thisRepN,test_trials.thisTrialN,test_trials.thisN,test_trials.thisIndex,test_trials.ran,Bonus
6643bc4b7c72a9f1bcb44c5d,TCR,2024-06-25_14h26.42.640,LearnStrategy,2023.2.3,Win32,15.01501502,,,,,,,,,,,,,,,,,,,,,,,,,,,,,,,,,,,,,,,,,,,
6643bc4b7c72a9f1bcb44c5d,TCR,2024-06-25_14h26.42.640,LearnStrategy,2023.2.3,Win32,15.01501502,1,1,1,0.081904762,-0.008571429,1,0,0,12.3223,rock_grid_rect_2,3,14,-1,-1,12.322,0.171428571,-0.25047619,1,0,0,49.1769,Diorite_rect,3,49.177,1,0,0,0,0,1,,,,,,,,,,,,,
6643bc4b7c72a9f1bcb44c5d,TCR,2024-06-25_14h26.42.640,LearnStrategy,2023.2.3,Win32,15.01501502,1,1,2,0.065714286,-0.001904762,1,0,0,1.6012,rock_grid_rect_2,5,02,-1,-1,1.601,-0.356190476,-0.404761905,1,0,0,30.0036,Obsidian_rect,5,30.004,1,1,0,1,0,1,,,,,,,,,,,,,
6643bc4b7c72a9f1bcb44c5d,TCR,2024-06-25_14h26.42.640,LearnStrategy,2023.2.3,Win32,15.01501502,1,1,3,0.08,0.011428571,1,0,0,1.6668,rock_grid_rect_2,4,01,-1,-1,1.667,-0.405714286,-0.256190476,1,0,0,53.2157,Andesite_rect,1,53.216,0,2,0,2,0,1,,,,,,,,,,,,,
6643bc4b7c72a9f1bcb44c5d,TCR,2024-06-25_14h26.42.640,LearnStrategy,2023.2.3,Win32,15.01501502,1,1,4,0.044761905,0.000952381,1,0,0,1.1995,rock_grid_rect_2,4,05,-1,-1,1.2,0.166666667,-0.394285714,1,0,0,65.421,Peridotite_rect,7,65.421,0,3,0,3,0,1,,,,,,,,,,,,,
6643bc4b7c72a9f1bcb44c5d,TCR,2024-06-25_14h26.42.640,LearnStrategy,2023.2.3,Win32,15.01501502,1,1,5,-0.063809524,-0.022857143,1,0,0,10.661,rock_grid_rect_2,8,10,-1,-1,10.661,0.400952381,-0.414285714,1,0,0,22.0772,Pumice_rect,8,22.077,1,4,0,4,0,1,,,,,,,,,,,,,
6643bc4b7c72a9f1bcb44c5d,TCR,2024-06-25_14h26.42.640,LearnStrategy,2023.2.3,Win32,15.01501502,1,1,6,0.057142857,0.004761905,1,0,0,1.1674,rock_grid_rect_2,1,03,-1,-1,1.167,0.147619048,-0.400952381,1,0,0,33.2026,Peridotite_rect,7,33.203,0,5,0,5,0,1,,,,,,,,,,,,,
6643bc4b7c72a9f1bcb44c5d,TCR,2024-06-25_14h26.42.640,LearnStrategy,2023.2.3,Win32,15.01501502,1,1,7,0.06952381,0.003809524,1,0,0,1.0487,rock_grid_rect_2,7,05,-1,-1,1.049,-0.346666667,-0.247619048,1,0,0,33.6436,Andesite_rect,1,33.644,0,6,0,6,0,1,,,,,,,,,,,,,
6643bc4b7c72a9f1bcb44c5d,TCR,2024-06-25_14h26.42.640,LearnStrategy,2023.2.3,Win32,15.01501502,1,1,8,-0.007619048,-0.011428571,1,0,0,6.7933,rock_grid_rect_2,3,11,-1,-1,6.793,0.115238095,-0.253333333,1,0,0,43.53,Diorite_rect,3,43.53,1,7,0,7,0,1,,,,,,,,,,,,,
6643bc4b7c72a9f1bcb44c5d,TCR,2024-06-25_14h26.42.640,LearnStrategy,2023.2.3,Win32,15.01501502,1,1,9,-0.016190476,0.008571429,1,0,0,1.2269,rock_grid_rect_2,7,08,-1,-1,1.227,-0.395238095,-0.251428571,1,0,0,49.9707,Andesite_rect,1,49.971,0,8,0,8,0,1,,,,,,,,,,,,,
6643bc4b7c72a9f1bcb44c5d,TCR,2024-06-25_14h26.42.640,LearnStrategy,2023.2.3,Win32,15.01501502,1,1,10,0.071428571,-0.020952381,1,0,0,1.0742,rock_grid_rect_2,1,09,-1,-1,1.074,-0.377142857,-0.252380952,1,0,0,26.4552,Andesite_rect,1,26.455,1,9,0,9,0,1,,,,,,,,,,,,,
6643bc4b7c72a9f1bcb44c5d,TCR,2024-06-25_14h26.42.640,LearnStrategy,2023.2.3,Win32,15.01501502,1,1,11,-0.045714286,0.004761905,1,0,0,1.2324,rock_grid_rect_2,8,04,-1,-1,1.232,0.328571429,-0.382857143,1,0,0,25.5628,Pumice_rect,8,25.563,1,10,0,10,0,1,,,,,,,,,,,,,
6643bc4b7c72a9f1bcb44c5d,TCR,2024-06-25_14h26.42.640,LearnStrategy,2023.2.3,Win32,15.01501502,1,1,12,0.047619048,-0.023809524,1,0,0,5.5317,rock_grid_rect_2,2,08,-1,-1,5.532,-0.132380952,-0.271428571,1,0,0,22.4184,Basalt_rect,2,22.418,1,11,0,11,0,1,,,,,,,,,,,,,
6643bc4b7c72a9f1bcb44c5d,TCR,2024-06-25_14h26.42.640,LearnStrategy,2023.2.3,Win32,15.01501502,1,1,13,-0.000952381,-0.021904762,1,0,0,0.7675,rock_grid_rect_2,2,01,-1,-1,0.768,-0.119047619,-0.265714286,1,0,0,30.2011,Basalt_rect,2,30.201,1,12,0,12,0,1,,,,,,,,,,,,,
6643bc4b7c72a9f1bcb44c5d,TCR,2024-06-25_14h26.42.640,LearnStrategy,2023.2.3,Win32,15.01501502,1,1,14,-0.024761905,-0.018095238,1,0,0,0.8408,rock_grid_rect_2,6,16,-1,-1,0.841,-0.104761905,-0.381904762,1,0,0,32.6139,Pegmatite_rect,6,32.614,1,13,0,13,0,1,,,,,,,,,,,,,
6643bc4b7c72a9f1bcb44c5d,TCR,2024-06-25_14h26.42.640,LearnStrategy,2023.2.3,Win32,15.01501502,1,1,15,0.01047619,-0.014285714,1,0,0,4.3276,rock_grid_rect_2,5,06,-1,-1,4.328,-0.351428571,-0.381904762,1,0,0,36.1252,Obsidian_rect,5,36.125,1,14,0,14,0,1,,,,,,,,,,,,,
6643bc4b7c72a9f1bcb44c5d,TCR,2024-06-25_14h26.42.640,LearnStrategy,2023.2.3,Win32,15.01501502,1,1,16,0.01047619,-0.013333333,1,0,0,1.7951,rock_grid_rect_2,6,07,-1,-1,1.795,-0.162857143,-0.402857143,1,0,0,45.728,Pegmatite_rect,6,45.728,1,15,0,15,0,1,,,,,,,,,,,,,
6643bc4b7c72a9f1bcb44c5d,TCR,2024-06-25_14h26.42.640,LearnStrategy,2023.2.3,Win32,15.01501502,1,2,1,,,,,,,,1,07,,,,,,,,,,,3,11.84,0,,,,,,0.195238095,-0.26952381,1,0,0,11.8397,Diorite_rect,0,0,0,0,1,
6643bc4b7c72a9f1bcb44c5d,TCR,2024-06-25_14h26.42.640,LearnStrategy,2023.2.3,Win32,15.01501502,1,2,2,,,,,,,,1,11,,,,,,,,,,,1,16.64,1,,,,,,-0.383809524,-0.260952381,1,0,0,16.6399,Andesite_rect,1,0,1,0,1,
6643bc4b7c72a9f1bcb44c5d,TCR,2024-06-25_14h26.42.640,LearnStrategy,2023.2.3,Win32,15.01501502,1,2,3,,,,,,,,8,08,,,,,,,,,,,8,1.687,1,,,,,,0.42,-0.400952381,1,0,0,1.6869,Pumice_rect,2,0,2,0,1,
6643bc4b7c72a9f1bcb44c5d,TCR,2024-06-25_14h26.42.640,LearnStrategy,2023.2.3,Win32,15.01501502,1,2,4,,,,,,,,4,14,,,,,,,,,,,7,35.188,0,,,,,,0.114285714,-0.413333333,1,0,0,35.1882,Peridotite_rect,3,0,3,0,1,
6643bc4b7c72a9f1bcb44c5d,TCR,2024-06-25_14h26.42.640,LearnStrategy,2023.2.3,Win32,15.01501502,1,2,5,,,,,,,,4,10,,,,,,,,,,,2,18.723,0,,,,,,-0.101904762,-0.237142857,1,0,0,18.7227,Basalt_rect,4,0,4,0,1,
6643bc4b7c72a9f1bcb44c5d,TCR,2024-06-25_14h26.42.640,LearnStrategy,2023.2.3,Win32,15.01501502,1,2,6,,,,,,,,2,04,,,,,,,,,,,2,47.006,1,,,,,,-0.119047619,-0.234285714,1,0,0,47.006,Basalt_rect,5,0,5,0,1,
6643bc4b7c72a9f1bcb44c5d,TCR,2024-06-25_14h26.42.640,LearnStrategy,2023.2.3,Win32,15.01501502,1,2,7,,,,,,,,5,04,,,,,,,,,,,5,1.55,1,,,,,,-0.378095238,-0.412380952,1,0,0,1.5495,Obsidian_rect,6,0,6,0,1,
6643bc4b7c72a9f1bcb44c5d,TCR,2024-06-25_14h26.42.640,LearnStrategy,2023.2.3,Win32,15.01501502,1,2,8,,,,,,,,6,12,,,,,,,,,,,6,45.971,1,,,,,,-0.086666667,-0.420952381,1,0,0,45.9705,Pegmatite_rect,7,0,7,0,1,
6643bc4b7c72a9f1bcb44c5d,TCR,2024-06-25_14h26.42.640,LearnStrategy,2023.2.3,Win32,15.01501502,1,2,9,,,,,,,,7,13,,,,,,,,,,,7,9.716,1,,,,,,0.118095238,-0.40952381,1,0,0,9.7161,Peridotite_rect,8,0,8,0,1,
6643bc4b7c72a9f1bcb44c5d,TCR,2024-06-25_14h26.42.640,LearnStrategy,2023.2.3,Win32,15.01501502,1,2,10,,,,,,,,7,15,,,,,,,,,,,7,10.926,1,,,,,,0.097142857,-0.393333333,1,0,0,10.9255,Peridotite_rect,9,0,9,0,1,
6643bc4b7c72a9f1bcb44c5d,TCR,2024-06-25_14h26.42.640,LearnStrategy,2023.2.3,Win32,15.01501502,1,2,11,,,,,,,,5,16,,,,,,,,,,,5,1.554,1,,,,,,-0.385714286,-0.413333333,1,0,0,1.5541,Obsidian_rect,10,0,10,0,1,
6643bc4b7c72a9f1bcb44c5d,TCR,2024-06-25_14h26.42.640,LearnStrategy,2023.2.3,Win32,15.01501502,1,2,12,,,,,,,,6,05,,,,,,,,,,,6,15,1,,,,,,-0.124761905,-0.384761905,1,0,0,15.0005,Pegmatite_rect,11,0,11,0,1,
6643bc4b7c72a9f1bcb44c5d,TCR,2024-06-25_14h26.42.640,LearnStrategy,2023.2.3,Win32,15.01501502,1,2,13,,,,,,,,3,15,,,,,,,,,,,3,31.153,1,,,,,,0.121904762,-0.253333333,1,0,0,31.1529,Diorite_rect,12,0,12,0,1,
6643bc4b7c72a9f1bcb44c5d,TCR,2024-06-25_14h26.42.640,LearnStrategy,2023.2.3,Win32,15.01501502,1,2,14,,,,,,,,2,02,,,,,,,,,,,1,7.341,0,,,,,,-0.336190476,-0.24,1,0,0,7.3409,Andesite_rect,13,0,13,0,1,
6643bc4b7c72a9f1bcb44c5d,TCR,2024-06-25_14h26.42.640,LearnStrategy,2023.2.3,Win32,15.01501502,1,2,15,,,,,,,,8,16,,,,,,,,,,,8,16.441,1,,,,,,0.411428571,-0.417142857,1,0,0,16.4407,Pumice_rect,14,0,14,0,1,
6643bc4b7c72a9f1bcb44c5d,TCR,2024-06-25_14h26.42.640,LearnStrategy,2023.2.3,Win32,15.01501502,1,2,16,,,,,,,,3,02,,,,,,,,,,,3,12.039,1,,,,,,0.072380952,-0.259047619,1,0,0,12.0388,Diorite_rect,15,0,15,0,1,
6643bc4b7c72a9f1bcb44c5d,TCR,2024-06-25_14h26.42.640,LearnStrategy,2023.2.3,Win32,15.01501502,2,1,1,-0.007619048,0.022857143,1,0,0,22.3449,rock_grid_rect_2,3,16,-1,-1,22.345,0.076190476,-0.24952381,1,0,0,13.8723,Diorite_rect,3,13.872,1,0,0,0,0,1,,,,,,,,,,,,,
6643bc4b7c72a9f1bcb44c5d,TCR,2024-06-25_14h26.42.640,LearnStrategy,2023.2.3,Win32,15.01501502,2,1,2,-0.007619048,-0.024761905,1,0,0,1.5087,rock_grid_rect_2,1,09,-1,-1,1.509,-0.414285714,-0.258095238,1,0,0,14.8706,Andesite_rect,1,14.871,1,1,0,1,0,1,,,,,,,,,,,,,
6643bc4b7c72a9f1bcb44c5d,TCR,2024-06-25_14h26.42.640,LearnStrategy,2023.2.3,Win32,15.01501502,2,1,3,-0.045714286,-0.001904762,1,0,0,0.725,rock_grid_rect_2,2,08,-1,-1,0.725,-0.074285714,-0.255238095,1,0,0,8.101,Basalt_rect,2,8.101,1,2,0,2,0,1,,,,,,,,,,,,,
6643bc4b7c72a9f1bcb44c5d,TCR,2024-06-25_14h26.42.640,LearnStrategy,2023.2.3,Win32,15.01501502,2,1,4,0.122857143,0.013333333,1,0,0,1.4585,rock_grid_rect_2,4,11,-1,-1,1.458,-0.38,-0.24,1,0,0,24.3661,Andesite_rect,1,24.366,0,3,0,3,0,1,,,,,,,,,,,,,
6643bc4b7c72a9f1bcb44c5d,TCR,2024-06-25_14h26.42.640,LearnStrategy,2023.2.3,Win32,15.01501502,2,1,5,0.041904762,0.004761905,1,0,0,1.8799,rock_grid_rect_2,5,14,-1,-1,1.88,-0.384761905,-0.401904762,1,0,0,2.9321,Obsidian_rect,5,2.932,1,4,0,4,0,1,,,,,,,,,,,,,
6643bc4b7c72a9f1bcb44c5d,TCR,2024-06-25_14h26.42.640,LearnStrategy,2023.2.3,Win32,15.01501502,2,1,6,0.007619048,0.003809524,1,0,0,2.6459,rock_grid_rect_2,2,08,-1,-1,2.646,-0.135238095,-0.245714286,1,0,0,2.8296,Basalt_rect,2,2.83,1,5,0,5,0,1,,,,,,,,,,,,,
6643bc4b7c72a9f1bcb44c5d,TCR,2024-06-25_14h26.42.640,LearnStrategy,2023.2.3,Win32,15.01501502,2,1,7,0.027619048,0.01047619,1,0,0,2.2659,rock_grid_rect_2,1,09,-1,-1,2.266,-0.404761905,-0.247619048,1,0,0,2.981,Andesite_rect,1,2.981,1,6,0,6,0,1,,,,,,,,,,,,,
6643bc4b7c72a9f1bcb44c5d,TCR,2024-06-25_14h26.42.640,LearnStrategy,2023.2.3,Win32,15.01501502,2,1,8,-0.00952381,-0.001904762,1,0,0,1.8246,rock_grid_rect_2,6,03,-1,-1,1.825,0.099047619,-0.398095238,1,0,0,37.701,Peridotite_rect,7,37.701,0,7,0,7,0,1,,,,,,,,,,,,,
6643bc4b7c72a9f1bcb44c5d,TCR,2024-06-25_14h26.42.640,LearnStrategy,2023.2.3,Win32,15.01501502,2,1,9,-0.014285714,-0.005714286,1,0,0,20.0986,rock_grid_rect_2,2,11,-1,-1,20.099,-0.191428571,-0.257142857,1,0,0,16.7173,Basalt_rect,2,16.717,1,8,0,8,0,1,,,,,,,,,,,,,
6643bc4b7c72a9f1bcb44c5d,TCR,2024-06-25_14h26.42.640,LearnStrategy,2023.2.3,Win32,15.01501502,2,1,10,-0.102857143,0,1,0,0,1.0853,rock_grid_rect_2,4,11,-1,-1,1.085,0.354285714,-0.254285714,1,0,0,6.6018,Gabbro_rect,4,6.602,1,9,0,9,0,1,,,,,,,,,,,,,
6643bc4b7c72a9f1bcb44c5d,TCR,2024-06-25_14h26.42.640,LearnStrategy,2023.2.3,Win32,15.01501502,2,1,11,-0.093333333,-0.023809524,1,0,0,0.8135,rock_grid_rect_2,7,06,-1,-1,0.813,-0.064761905,-0.420952381,1,0,0,9.1274,Pegmatite_rect,6,9.127,0,10,0,10,0,1,,,,,,,,,,,,,
6643bc4b7c72a9f1bcb44c5d,TCR,2024-06-25_14h26.42.640,LearnStrategy,2023.2.3,Win32,15.01501502,2,1,12,-0.001904762,0.001904762,1,0,0,2.0943,rock_grid_rect_2,1,03,-1,-1,2.094,-0.380952381,-0.23047619,1,0,0,15.9259,Andesite_rect,1,15.926,1,11,0,11,0,1,,,,,,,,,,,,,
6643bc4b7c72a9f1bcb44c5d,TCR,2024-06-25_14h26.42.640,LearnStrategy,2023.2.3,Win32,15.01501502,2,1,13,-0.058095238,0.002857143,1,0,0,0.9583,rock_grid_rect_2,8,15,-1,-1,0.958,0.442857143,-0.40952381,1,0,0,13.6538,Pumice_rect,8,13.654,1,12,0,12,0,1,,,,,,,,,,,,,
6643bc4b7c72a9f1bcb44c5d,TCR,2024-06-25_14h26.42.640,LearnStrategy,2023.2.3,Win32,15.01501502,2,1,14,0.002857143,0.007619048,1,0,0,0.9298,rock_grid_rect_2,4,03,-1,-1,0.93,0.124761905,-0.24,1,0,0,5.4261,Diorite_rect,3,5.426,0,13,0,13,0,1,,,,,,,,,,,,,
6643bc4b7c72a9f1bcb44c5d,TCR,2024-06-25_14h26.42.640,LearnStrategy,2023.2.3,Win32,15.01501502,2,1,15,0.025714286,0.002857143,1,0,0,1.6187,rock_grid_rect_2,4,08,-1,-1,1.619,0.417142857,-0.255238095,1,0,0,35.9233,Gabbro_rect,4,35.923,1,14,0,14,0,1,,,,,,,,,,,,,
6643bc4b7c72a9f1bcb44c5d,TCR,2024-06-25_14h26.42.640,LearnStrategy,2023.2.3,Win32,15.01501502,2,1,16,0.036190476,-0.014285714,1,0,0,0.9696,rock_grid_rect_2,4,15,-1,-1,0.97,-0.15047619,-0.255238095,1,0,0,22.0104,Basalt_rect,2,22.01,0,15,0,15,0,1,,,,,,,,,,,,,
6643bc4b7c72a9f1bcb44c5d,TCR,2024-06-25_14h26.42.640,LearnStrategy,2023.2.3,Win32,15.01501502,2,2,1,,,,,,,,8,13,,,,,,,,,,,7,58.923,0,,,,,,0.122857143,-0.400952381,1,0,0,58.9228,Peridotite_rect,0,0,0,0,1,
6643bc4b7c72a9f1bcb44c5d,TCR,2024-06-25_14h26.42.640,LearnStrategy,2023.2.3,Win32,15.01501502,2,2,2,,,,,,,,3,08,,,,,,,,,,,3,21.091,1,,,,,,0.095238095,-0.256190476,1,0,0,21.091,Diorite_rect,1,0,1,0,1,
6643bc4b7c72a9f1bcb44c5d,TCR,2024-06-25_14h26.42.640,LearnStrategy,2023.2.3,Win32,15.01501502,2,2,3,,,,,,,,1,02,,,,,,,,,,,4,6.349,0,,,,,,0.448571429,-0.259047619,1,0,0,6.3486,Gabbro_rect,2,0,2,0,1,
6643bc4b7c72a9f1bcb44c5d,TCR,2024-06-25_14h26.42.640,LearnStrategy,2023.2.3,Win32,15.01501502,2,2,4,,,,,,,,7,16,,,,,,,,,,,6,7.559,0,,,,,,-0.151428571,-0.4,1,0,0,7.5593,Pegmatite_rect,3,0,3,0,1,
6643bc4b7c72a9f1bcb44c5d,TCR,2024-06-25_14h26.42.640,LearnStrategy,2023.2.3,Win32,15.01501502,2,2,5,,,,,,,,8,09,,,,,,,,,,,8,2.118,1,,,,,,0.424761905,-0.402857143,1,0,0,2.1184,Pumice_rect,4,0,4,0,1,
6643bc4b7c72a9f1bcb44c5d,TCR,2024-06-25_14h26.42.640,LearnStrategy,2023.2.3,Win32,15.01501502,2,2,6,,,,,,,,3,07,,,,,,,,,,,3,4.76,1,,,,,,0.12,-0.255238095,1,0,0,4.76,Diorite_rect,5,0,5,0,1,
6643bc4b7c72a9f1bcb44c5d,TCR,2024-06-25_14h26.42.640,LearnStrategy,2023.2.3,Win32,15.01501502,2,2,7,,,,,,,,5,08,,,,,,,,,,,5,1.348,1,,,,,,-0.453333333,-0.401904762,1,0,0,1.3478,Obsidian_rect,6,0,6,0,1,
6643bc4b7c72a9f1bcb44c5d,TCR,2024-06-25_14h26.42.640,LearnStrategy,2023.2.3,Win32,15.01501502,2,2,8,,,,,,,,1,10,,,,,,,,,,,1,13.117,1,,,,,,-0.413333333,-0.263809524,1,0,0,13.1167,Andesite_rect,7,0,7,0,1,
6643bc4b7c72a9f1bcb44c5d,TCR,2024-06-25_14h26.42.640,LearnStrategy,2023.2.3,Win32,15.01501502,2,2,9,,,,,,,,2,09,,,,,,,,,,,1,3.738,0,,,,,,-0.36952381,-0.260952381,1,0,0,3.7381,Andesite_rect,8,0,8,0,1,
6643bc4b7c72a9f1bcb44c5d,TCR,2024-06-25_14h26.42.640,LearnStrategy,2023.2.3,Win32,15.01501502,2,2,10,,,,,,,,5,07,,,,,,,,,,,5,1.265,1,,,,,,-0.377142857,-0.403809524,1,0,0,1.2653,Obsidian_rect,9,0,9,0,1,
6643bc4b7c72a9f1bcb44c5d,TCR,2024-06-25_14h26.42.640,LearnStrategy,2023.2.3,Win32,15.01501502,2,2,11,,,,,,,,4,12,,,,,,,,,,,4,8.183,1,,,,,,0.4,-0.268571429,1,0,0,8.1834,Gabbro_rect,10,0,10,0,1,
6643bc4b7c72a9f1bcb44c5d,TCR,2024-06-25_14h26.42.640,LearnStrategy,2023.2.3,Win32,15.01501502,2,2,12,,,,,,,,4,09,,,,,,,,,,,1,67.218,0,,,,,,-0.404761905,-0.264761905,1,0,0,67.2184,Andesite_rect,11,0,11,0,1,
6643bc4b7c72a9f1bcb44c5d,TCR,2024-06-25_14h26.42.640,LearnStrategy,2023.2.3,Win32,15.01501502,2,2,13,,,,,,,,2,06,,,,,,,,,,,2,3.618,1,,,,,,-0.120952381,-0.25047619,1,0,0,3.6176,Basalt_rect,12,0,12,0,1,
6643bc4b7c72a9f1bcb44c5d,TCR,2024-06-25_14h26.42.640,LearnStrategy,2023.2.3,Win32,15.01501502,2,2,14,,,,,,,,6,11,,,,,,,,,,,6,15.128,1,,,,,,-0.107619048,-0.408571429,1,0,0,15.1283,Pegmatite_rect,13,0,13,0,1,
6643bc4b7c72a9f1bcb44c5d,TCR,2024-06-25_14h26.42.640,LearnStrategy,2023.2.3,Win32,15.01501502,2,2,15,,,,,,,,7,12,,,,,,,,,,,4,26.464,0,,,,,,0.391428571,-0.255238095,1,0,0,26.4639,Gabbro_rect,14,0,14,0,1,
6643bc4b7c72a9f1bcb44c5d,TCR,2024-06-25_14h26.42.640,LearnStrategy,2023.2.3,Win32,15.01501502,2,2,16,,,,,,,,6,08,,,,,,,,,,,7,44.718,0,,,,,,0.097142857,-0.393333333,1,0,0,44.7178,Peridotite_rect,15,0,15,0,1,
6643bc4b7c72a9f1bcb44c5d,TCR,2024-06-25_14h26.42.640,LearnStrategy,2023.2.3,Win32,15.01501502,3,1,1,-0.08952381,0.003809524,1,0,0,62.2919,rock_grid_rect_2,4,15,-1,-1,62.292,0.424761905,-0.258095238,1,0,0,9.2884,Gabbro_rect,4,9.288,1,0,0,0,0,1,,,,,,,,,,,,,
6643bc4b7c72a9f1bcb44c5d,TCR,2024-06-25_14h26.42.640,LearnStrategy,2023.2.3,Win32,15.01501502,3,1,2,-0.052380952,-0.005714286,1,0,0,0.939,rock_grid_rect_2,1,14,-1,-1,0.939,0.096190476,-0.22952381,1,0,0,103.4858,Diorite_rect,3,103.486,0,1,0,1,0,1,,,,,,,,,,,,,
6643bc4b7c72a9f1bcb44c5d,TCR,2024-06-25_14h26.42.640,LearnStrategy,2023.2.3,Win32,15.01501502,3,1,3,0.084761905,0.01047619,1,0,0,1.6122,rock_grid_rect_2,7,14,-1,-1,1.612,0.14952381,-0.39047619,1,0,0,7.4496,Peridotite_rect,7,7.45,1,2,0,2,0,1,,,,,,,,,,,,,
6643bc4b7c72a9f1bcb44c5d,TCR,2024-06-25_14h26.42.640,LearnStrategy,2023.2.3,Win32,15.01501502,3,1,4,0.043809524,-0.016190476,1,0,0,0.9667,rock_grid_rect_2,3,13,-1,-1,0.967,0.366666667,-0.236190476,1,0,0,3.1232,Gabbro_rect,4,3.123,0,3,0,3,0,1,,,,,,,,,,,,,
6643bc4b7c72a9f1bcb44c5d,TCR,2024-06-25_14h26.42.640,LearnStrategy,2023.2.3,Win32,15.01501502,3,1,5,0.013333333,0.004761905,1,0,0,1.9711,rock_grid_rect_2,4,01,-1,-1,1.971,0.415238095,-0.26,1,0,0,7.8832,Gabbro_rect,4,7.883,1,4,0,4,0,1,,,,,,,,,,,,,
6643bc4b7c72a9f1bcb44c5d,TCR,2024-06-25_14h26.42.640,LearnStrategy,2023.2.3,Win32,15.01501502,3,1,6,-0.062857143,0.02,1,0,0,0.6825,rock_grid_rect_2,4,03,-1,-1,0.682,0.386666667,-0.256190476,1,0,0,12.3661,Gabbro_rect,4,12.366,1,5,0,5,0,1,,,,,,,,,,,,,
6643bc4b7c72a9f1bcb44c5d,TCR,2024-06-25_14h26.42.640,LearnStrategy,2023.2.3,Win32,15.01501502,3,1,7,-0.02952381,0,1,0,0,0.8539,rock_grid_rect_2,8,05,-1,-1,0.854,0.399047619,-0.419047619,1,0,0,1.3393,Pumice_rect,8,1.339,1,6,0,6,0,1,,,,,,,,,,,,,
6643bc4b7c72a9f1bcb44c5d,TCR,2024-06-25_14h26.42.640,LearnStrategy,2023.2.3,Win32,15.01501502,3,1,8,-0.194285714,0.004761905,1,0,0,0.8331,rock_grid_rect_2,6,10,-1,-1,0.833,-0.148571429,-0.393333333,1,0,0,9.0186,Pegmatite_rect,6,9.019,1,7,0,7,0,1,,,,,,,,,,,,,
6643bc4b7c72a9f1bcb44c5d,TCR,2024-06-25_14h26.42.640,LearnStrategy,2023.2.3,Win32,15.01501502,3,1,9,0.000952381,-0.016190476,1,0,0,0.8538,rock_grid_rect_2,6,15,-1,-1,0.854,0.419047619,-0.238095238,1,0,0,8.2258,Gabbro_rect,4,8.226,0,8,0,8,0,1,,,,,,,,,,,,,
6643bc4b7c72a9f1bcb44c5d,TCR,2024-06-25_14h26.42.640,LearnStrategy,2023.2.3,Win32,15.01501502,3,1,10,-0.053333333,-0.004761905,1,0,0,1.0675,rock_grid_rect_2,2,08,-1,-1,1.068,-0.168571429,-0.253333333,1,0,0,1.4262,Basalt_rect,2,1.426,1,9,0,9,0,1,,,,,,,,,,,,,
6643bc4b7c72a9f1bcb44c5d,TCR,2024-06-25_14h26.42.640,LearnStrategy,2023.2.3,Win32,15.01501502,3,1,11,0.164761905,0.003809524,1,0,0,0.6362,rock_grid_rect_2,1,05,-1,-1,0.636,-0.373333333,-0.255238095,1,0,0,10.1823,Andesite_rect,1,10.182,1,10,0,10,0,1,,,,,,,,,,,,,
6643bc4b7c72a9f1bcb44c5d,TCR,2024-06-25_14h26.42.640,LearnStrategy,2023.2.3,Win32,15.01501502,3,1,12,-0.024761905,-0.014285714,1,0,0,0.6671,rock_grid_rect_2,7,10,-1,-1,0.667,0.101904762,-0.395238095,1,0,0,12.0473,Peridotite_rect,7,12.047,1,11,0,11,0,1,,,,,,,,,,,,,
6643bc4b7c72a9f1bcb44c5d,TCR,2024-06-25_14h26.42.640,LearnStrategy,2023.2.3,Win32,15.01501502,3,1,13,-0.040952381,0.001904762,1,0,0,1.7118,rock_grid_rect_2,7,07,-1,-1,1.712,-0.112380952,-0.411428571,1,0,0,6.9496,Pegmatite_rect,6,6.95,0,12,0,12,0,1,,,,,,,,,,,,,
6643bc4b7c72a9f1bcb44c5d,TCR,2024-06-25_14h26.42.640,LearnStrategy,2023.2.3,Win32,15.01501502,3,1,14,-0.018095238,-0.01047619,1,0,0,1.5345,rock_grid_rect_2,2,14,-1,-1,1.535,0.154285714,-0.395238095,1,0,0,25.9776,Peridotite_rect,7,25.978,0,13,0,13,0,1,,,,,,,,,,,,,
6643bc4b7c72a9f1bcb44c5d,TCR,2024-06-25_14h26.42.640,LearnStrategy,2023.2.3,Win32,15.01501502,3,1,15,0.046666667,-0.005714286,1,0,0,1.2098,rock_grid_rect_2,8,03,-1,-1,1.21,0.36,-0.395238095,1,0,0,4.8015,Pumice_rect,8,4.802,1,14,0,14,0,1,,,,,,,,,,,,,
6643bc4b7c72a9f1bcb44c5d,TCR,2024-06-25_14h26.42.640,LearnStrategy,2023.2.3,Win32,15.01501502,3,1,16,-0.155238095,0.02,1,0,0,0.7213,rock_grid_rect_2,1,01,-1,-1,0.721,0.334285714,-0.24952381,1,0,0,3.3888,Gabbro_rect,4,3.389,0,15,0,15,0,1,,,,,,,,,,,,,
6643bc4b7c72a9f1bcb44c5d,TCR,2024-06-25_14h26.42.640,LearnStrategy,2023.2.3,Win32,15.01501502,3,2,1,,,,,,,,5,12,,,,,,,,,,,5,13.682,1,,,,,,-0.454285714,-0.408571429,1,0,0,13.6816,Obsidian_rect,0,0,0,0,1,
6643bc4b7c72a9f1bcb44c5d,TCR,2024-06-25_14h26.42.640,LearnStrategy,2023.2.3,Win32,15.01501502,3,2,2,,,,,,,,3,12,,,,,,,,,,,3,36.675,1,,,,,,0.117142857,-0.258095238,1,0,0,36.6751,Diorite_rect,1,0,1,0,1,
6643bc4b7c72a9f1bcb44c5d,TCR,2024-06-25_14h26.42.640,LearnStrategy,2023.2.3,Win32,15.01501502,3,2,3,,,,,,,,4,13,,,,,,,,,,,4,5.578,1,,,,,,0.427619048,-0.24952381,1,0,0,5.5782,Gabbro_rect,2,0,2,0,1,
6643bc4b7c72a9f1bcb44c5d,TCR,2024-06-25_14h26.42.640,LearnStrategy,2023.2.3,Win32,15.01501502,3,2,4,,,,,,,,2,16,,,,,,,,,,,2,28.205,1,,,,,,-0.135238095,-0.231428571,1,0,0,28.2054,Basalt_rect,3,0,3,0,1,
6643bc4b7c72a9f1bcb44c5d,TCR,2024-06-25_14h26.42.640,LearnStrategy,2023.2.3,Win32,15.01501502,3,2,5,,,,,,,,3,09,,,,,,,,,,,3,72.089,1,,,,,,0.094285714,-0.239047619,1,0,0,72.0891,Diorite_rect,4,0,4,0,1,
6643bc4b7c72a9f1bcb44c5d,TCR,2024-06-25_14h26.42.640,LearnStrategy,2023.2.3,Win32,15.01501502,3,2,6,,,,,,,,1,16,,,,,,,,,,,1,19.99,1,,,,,,-0.440952381,-0.235238095,1,0,0,19.9901,Andesite_rect,5,0,5,0,1,
6643bc4b7c72a9f1bcb44c5d,TCR,2024-06-25_14h26.42.640,LearnStrategy,2023.2.3,Win32,15.01501502,3,2,7,,,,,,,,1,06,,,,,,,,,,,4,18.378,0,,,,,,0.474285714,-0.25047619,1,0,0,18.3783,Gabbro_rect,6,0,6,0,1,
6643bc4b7c72a9f1bcb44c5d,TCR,2024-06-25_14h26.42.640,LearnStrategy,2023.2.3,Win32,15.01501502,3,2,8,,,,,,,,4,16,,,,,,,,,,,2,29.753,0,,,,,,-0.140952381,-0.238095238,1,0,0,29.7528,Basalt_rect,7,0,7,0,1,
6643bc4b7c72a9f1bcb44c5d,TCR,2024-06-25_14h26.42.640,LearnStrategy,2023.2.3,Win32,15.01501502,3,2,9,,,,,,,,8,14,,,,,,,,,,,8,1.128,1,,,,,,0.456190476,-0.416190476,1,0,0,1.1282,Pumice_rect,8,0,8,0,1,
6643bc4b7c72a9f1bcb44c5d,TCR,2024-06-25_14h26.42.640,LearnStrategy,2023.2.3,Win32,15.01501502,3,2,10,,,,,,,,6,09,,,,,,,,,,,6,6.624,1,,,,,,-0.145714286,-0.397142857,1,0,0,6.624,Pegmatite_rect,9,0,9,0,1,
6643bc4b7c72a9f1bcb44c5d,TCR,2024-06-25_14h26.42.640,LearnStrategy,2023.2.3,Win32,15.01501502,3,2,11,,,,,,,,2,12,,,,,,,,,,,2,25.007,1,,,,,,-0.08952381,-0.265714286,1,0,0,25.0073,Basalt_rect,10,0,10,0,1,
6643bc4b7c72a9f1bcb44c5d,TCR,2024-06-25_14h26.42.640,LearnStrategy,2023.2.3,Win32,15.01501502,3,2,12,,,,,,,,7,02,,,,,,,,,,,7,15.136,1,,,,,,0.14,-0.407619048,1,0,0,15.136,Peridotite_rect,11,0,11,0,1,
6643bc4b7c72a9f1bcb44c5d,TCR,2024-06-25_14h26.42.640,LearnStrategy,2023.2.3,Win32,15.01501502,3,2,13,,,,,,,,5,10,,,,,,,,,,,5,4.052,1,,,,,,-0.398095238,-0.392380952,1,0,0,4.0521,Obsidian_rect,12,0,12,0,1,
6643bc4b7c72a9f1bcb44c5d,TCR,2024-06-25_14h26.42.640,LearnStrategy,2023.2.3,Win32,15.01501502,3,2,14,,,,,,,,7,04,,,,,,,,,,,6,10.302,0,,,,,,-0.12952381,-0.417142857,1,0,0,10.3025,Pegmatite_rect,13,0,13,0,1,
6643bc4b7c72a9f1bcb44c5d,TCR,2024-06-25_14h26.42.640,LearnStrategy,2023.2.3,Win32,15.01501502,3,2,15,,,,,,,,6,06,,,,,,,,,,,6,57.781,1,,,,,,-0.167619048,-0.402857143,1,0,0,57.7808,Pegmatite_rect,14,0,14,0,1,
6643bc4b7c72a9f1bcb44c5d,TCR,2024-06-25_14h26.42.640,LearnStrategy,2023.2.3,Win32,15.01501502,3,2,16,,,,,,,,8,06,,,,,,,,,,,8,2.629,1,,,,,,0.42,-0.408571429,1,0,0,2.6288,Pumice_rect,15,0,15,0,1,
6643bc4b7c72a9f1bcb44c5d,TCR,2024-06-25_14h26.42.640,LearnStrategy,2023.2.3,Win32,15.01501502,4,1,1,0.06,0.005714286,1,0,0,98.441,rock_grid_rect_2,4,08,-1,-1,98.441,0.12,-0.405714286,1,0,0,46.0662,Peridotite_rect,7,46.066,0,0,0,0,0,1,,,,,,,,,,,,,
6643bc4b7c72a9f1bcb44c5d,TCR,2024-06-25_14h26.42.640,LearnStrategy,2023.2.3,Win32,15.01501502,4,1,2,-0.103809524,-0.008571429,1,0,0,6.2989,rock_grid_rect_2,6,16,-1,-1,6.299,-0.094285714,-0.41047619,1,0,0,6.7316,Pegmatite_rect,6,6.732,1,1,0,1,0,1,,,,,,,,,,,,,
6643bc4b7c72a9f1bcb44c5d,TCR,2024-06-25_14h26.42.640,LearnStrategy,2023.2.3,Win32,15.01501502,4,1,3,-0.051428571,0.007619048,1,0,0,1.0825,rock_grid_rect_2,5,02,-1,-1,1.083,-0.357142857,-0.40952381,1,0,0,1.3601,Obsidian_rect,5,1.36,1,2,0,2,0,1,,,,,,,,,,,,,
6643bc4b7c72a9f1bcb44c5d,TCR,2024-06-25_14h26.42.640,LearnStrategy,2023.2.3,Win32,15.01501502,4,1,4,0.007619048,0.008571429,1,0,0,0.73,rock_grid_rect_2,1,14,-1,-1,0.73,-0.35047619,-0.246666667,1,0,0,19.9386,Andesite_rect,1,19.939,1,3,0,3,0,1,,,,,,,,,,,,,
6643bc4b7c72a9f1bcb44c5d,TCR,2024-06-25_14h26.42.640,LearnStrategy,2023.2.3,Win32,15.01501502,4,1,5,0.008571429,0.003809524,1,0,0,1.1998,rock_grid_rect_2,4,15,-1,-1,1.2,0.38952381,-0.24,1,0,0,5.4904,Gabbro_rect,4,5.49,1,4,0,4,0,1,,,,,,,,,,,,,
6643bc4b7c72a9f1bcb44c5d,TCR,2024-06-25_14h26.42.640,LearnStrategy,2023.2.3,Win32,15.01501502,4,1,6,-0.012380952,0,1,0,0,0.7071,rock_grid_rect_2,2,14,-1,-1,0.707,0.137142857,-0.420952381,1,0,0,4.2435,Peridotite_rect,7,4.244,0,5,0,5,0,1,,,,,,,,,,,,,
6643bc4b7c72a9f1bcb44c5d,TCR,2024-06-25_14h26.42.640,LearnStrategy,2023.2.3,Win32,15.01501502,4,1,7,-0.045714286,-0.006666667,1,0,0,1.6983,rock_grid_rect_2,4,03,-1,-1,1.698,0.416190476,-0.246666667,1,0,0,4.8774,Gabbro_rect,4,4.877,1,6,0,6,0,1,,,,,,,,,,,,,
6643bc4b7c72a9f1bcb44c5d,TCR,2024-06-25_14h26.42.640,LearnStrategy,2023.2.3,Win32,15.01501502,4,1,8,-0.067619048,0.017142857,1,0,0,0.8521,rock_grid_rect_2,7,05,-1,-1,0.852,0.143809524,-0.404761905,1,0,0,18.489,Peridotite_rect,7,18.489,1,7,0,7,0,1,,,,,,,,,,,,,
6643bc4b7c72a9f1bcb44c5d,TCR,2024-06-25_14h26.42.640,LearnStrategy,2023.2.3,Win32,15.01501502,4,1,9,-0.026666667,-0.012380952,1,0,0,1.4559,rock_grid_rect_2,3,14,-1,-1,1.456,0.14952381,-0.240952381,1,0,0,4.2285,Diorite_rect,3,4.229,1,8,0,8,0,1,,,,,,,,,,,,,
6643bc4b7c72a9f1bcb44c5d,TCR,2024-06-25_14h26.42.640,LearnStrategy,2023.2.3,Win32,15.01501502,4,1,10,-0.028571429,0.007619048,1,0,0,0.7377,rock_grid_rect_2,8,15,-1,-1,0.738,0.457142857,-0.396190476,1,0,0,3.839,Pumice_rect,8,3.839,1,9,0,9,0,1,,,,,,,,,,,,,
6643bc4b7c72a9f1bcb44c5d,TCR,2024-06-25_14h26.42.640,LearnStrategy,2023.2.3,Win32,15.01501502,4,1,11,-0.037142857,-0.007619048,1,0,0,0.7557,rock_grid_rect_2,2,14,-1,-1,0.756,-0.08,-0.253333333,1,0,0,1.892,Basalt_rect,2,1.892,1,10,0,10,0,1,,,,,,,,,,,,,
6643bc4b7c72a9f1bcb44c5d,TCR,2024-06-25_14h26.42.640,LearnStrategy,2023.2.3,Win32,15.01501502,4,1,12,-0.027619048,-0.011428571,1,0,0,0.6913,rock_grid_rect_2,4,01,-1,-1,0.691,0.352380952,-0.239047619,1,0,0,4.6911,Gabbro_rect,4,4.691,1,11,0,11,0,1,,,,,,,,,,,,,
6643bc4b7c72a9f1bcb44c5d,TCR,2024-06-25_14h26.42.640,LearnStrategy,2023.2.3,Win32,15.01501502,4,1,13,0.171428571,-0.007619048,1,0,0,1.108,rock_grid_rect_2,1,01,-1,-1,1.108,-0.35047619,-0.245714286,1,0,0,5.977,Andesite_rect,1,5.977,1,12,0,12,0,1,,,,,,,,,,,,,
6643bc4b7c72a9f1bcb44c5d,TCR,2024-06-25_14h26.42.640,LearnStrategy,2023.2.3,Win32,15.01501502,4,1,14,0.079047619,-0.013333333,1,0,0,0.694,rock_grid_rect_2,7,10,-1,-1,0.694,0.107619048,-0.419047619,1,0,0,6.0144,Peridotite_rect,7,6.014,1,13,0,13,0,1,,,,,,,,,,,,,
6643bc4b7c72a9f1bcb44c5d,TCR,2024-06-25_14h26.42.640,LearnStrategy,2023.2.3,Win32,15.01501502,4,1,15,-0.100952381,-0.022857143,1,0,0,1.3277,rock_grid_rect_2,7,08,-1,-1,1.328,-0.108571429,-0.41047619,1,0,0,13.5002,Pegmatite_rect,6,13.5,0,14,0,14,0,1,,,,,,,,,,,,,
6643bc4b7c72a9f1bcb44c5d,TCR,2024-06-25_14h26.42.640,LearnStrategy,2023.2.3,Win32,15.01501502,4,1,16,-0.031428571,-0.016190476,1,0,0,0.7841,rock_grid_rect_2,1,05,-1,-1,0.784,-0.4,-0.241904762,1,0,0,5.0202,Andesite_rect,1,5.02,1,15,0,15,0,1,,,,,,,,,,,,,
6643bc4b7c72a9f1bcb44c5d,TCR,2024-06-25_14h26.42.640,LearnStrategy,2023.2.3,Win32,15.01501502,4,2,1,,,,,,,,8,16,,,,,,,,,,,8,19.692,1,,,,,,0.353333333,-0.396190476,1,0,0,19.692,Pumice_rect,0,0,0,0,1,
6643bc4b7c72a9f1bcb44c5d,TCR,2024-06-25_14h26.42.640,LearnStrategy,2023.2.3,Win32,15.01501502,4,2,2,,,,,,,,7,04,,,,,,,,,,,7,10.774,1,,,,,,0.06952381,-0.413333333,1,0,0,10.7741,Peridotite_rect,1,0,1,0,1,
6643bc4b7c72a9f1bcb44c5d,TCR,2024-06-25_14h26.42.640,LearnStrategy,2023.2.3,Win32,15.01501502,4,2,3,,,,,,,,1,10,,,,,,,,,,,1,24.003,1,,,,,,-0.331428571,-0.241904762,1,0,0,24.0031,Andesite_rect,2,0,2,0,1,
6643bc4b7c72a9f1bcb44c5d,TCR,2024-06-25_14h26.42.640,LearnStrategy,2023.2.3,Win32,15.01501502,4,2,4,,,,,,,,5,04,,,,,,,,,,,5,1.215,1,,,,,,-0.361904762,-0.399047619,1,0,0,1.2147,Obsidian_rect,3,0,3,0,1,
6643bc4b7c72a9f1bcb44c5d,TCR,2024-06-25_14h26.42.640,LearnStrategy,2023.2.3,Win32,15.01501502,4,2,5,,,,,,,,5,12,,,,,,,,,,,5,0.955,1,,,,,,-0.354285714,-0.404761905,1,0,0,0.9545,Obsidian_rect,4,0,4,0,1,
6643bc4b7c72a9f1bcb44c5d,TCR,2024-06-25_14h26.42.640,LearnStrategy,2023.2.3,Win32,15.01501502,4,2,6,,,,,,,,1,07,,,,,,,,,,,4,34.882,0,,,,,,0.38952381,-0.26,1,0,0,34.8825,Gabbro_rect,5,0,5,0,1,
6643bc4b7c72a9f1bcb44c5d,TCR,2024-06-25_14h26.42.640,LearnStrategy,2023.2.3,Win32,15.01501502,4,2,7,,,,,,,,2,02,,,,,,,,,,,2,9.445,1,,,,,,-0.182857143,-0.238095238,1,0,0,9.4449,Basalt_rect,6,0,6,0,1,
6643bc4b7c72a9f1bcb44c5d,TCR,2024-06-25_14h26.42.640,LearnStrategy,2023.2.3,Win32,15.01501502,4,2,8,,,,,,,,3,07,,,,,,,,,,,3,14.735,1,,,,,,0.094285714,-0.255238095,1,0,0,14.7351,Diorite_rect,7,0,7,0,1,
6643bc4b7c72a9f1bcb44c5d,TCR,2024-06-25_14h26.42.640,LearnStrategy,2023.2.3,Win32,15.01501502,4,2,9,,,,,,,,4,14,,,,,,,,,,,7,32.483,0,,,,,,0.180952381,-0.401904762,1,0,0,32.4826,Peridotite_rect,8,0,8,0,1,
6643bc4b7c72a9f1bcb44c5d,TCR,2024-06-25_14h26.42.640,LearnStrategy,2023.2.3,Win32,15.01501502,4,2,10,,,,,,,,8,14,,,,,,,,,,,8,1.118,1,,,,,,0.47047619,-0.399047619,1,0,0,1.1179,Pumice_rect,9,0,9,0,1,
6643bc4b7c72a9f1bcb44c5d,TCR,2024-06-25_14h26.42.640,LearnStrategy,2023.2.3,Win32,15.01501502,4,2,11,,,,,,,,6,09,,,,,,,,,,,6,4.531,1,,,,,,-0.1,-0.402857143,1,0,0,4.5313,Pegmatite_rect,10,0,10,0,1,
6643bc4b7c72a9f1bcb44c5d,TCR,2024-06-25_14h26.42.640,LearnStrategy,2023.2.3,Win32,15.01501502,4,2,12,,,,,,,,3,08,,,,,,,,,,,3,5.157,1,,,,,,0.135238095,-0.256190476,1,0,0,5.1573,Diorite_rect,11,0,11,0,1,
6643bc4b7c72a9f1bcb44c5d,TCR,2024-06-25_14h26.42.640,LearnStrategy,2023.2.3,Win32,15.01501502,4,2,13,,,,,,,,2,04,,,,,,,,,,,2,4.022,1,,,,,,-0.076190476,-0.252380952,1,0,0,4.0218,Basalt_rect,12,0,12,0,1,
6643bc4b7c72a9f1bcb44c5d,TCR,2024-06-25_14h26.42.640,LearnStrategy,2023.2.3,Win32,15.01501502,4,2,14,,,,,,,,7,02,,,,,,,,,,,7,14.388,1,,,,,,0.096190476,-0.38952381,1,0,0,14.3879,Peridotite_rect,13,0,13,0,1,
6643bc4b7c72a9f1bcb44c5d,TCR,2024-06-25_14h26.42.640,LearnStrategy,2023.2.3,Win32,15.01501502,4,2,15,,,,,,,,6,11,,,,,,,,,,,6,4.35,1,,,,,,-0.106666667,-0.405714286,1,0,0,4.3499,Pegmatite_rect,14,0,14,0,1,
6643bc4b7c72a9f1bcb44c5d,TCR,2024-06-25_14h26.42.640,LearnStrategy,2023.2.3,Win32,15.01501502,4,2,16,,,,,,,,4,13,,,,,,,,,,,4,4.434,1,,,,,,0.364761905,-0.247619048,1,0,0,4.4344,Gabbro_rect,15,0,15,0,1,
6643bc4b7c72a9f1bcb44c5d,TCR,2024-06-25_14h26.42.640,LearnStrategy,2023.2.3,Win32,15.01501502,5,1,1,0.042857143,-0.005714286,1,0,0,1.7126,rock_grid_rect_2,4,05,-1,-1,1.713,0.421904762,-0.247619048,1,0,0,22.9508,Gabbro_rect,4,22.951,1,0,0,0,0,1,,,,,,,,,,,,,
6643bc4b7c72a9f1bcb44c5d,TCR,2024-06-25_14h26.42.640,LearnStrategy,2023.2.3,Win32,15.01501502,5,1,2,0.136190476,-0.016190476,1,0,0,1.3933,rock_grid_rect_2,8,03,-1,-1,1.393,0.358095238,-0.411428571,1,0,0,1.6128,Pumice_rect,8,1.613,1,1,0,1,0,1,,,,,,,,,,,,,
6643bc4b7c72a9f1bcb44c5d,TCR,2024-06-25_14h26.42.640,LearnStrategy,2023.2.3,Win32,15.01501502,5,1,3,0.12,-0.003809524,1,0,0,1.7224,rock_grid_rect_2,3,13,-1,-1,1.722,0.123809524,-0.255238095,1,0,0,2.0837,Diorite_rect,3,2.084,1,2,0,2,0,1,,,,,,,,,,,,,
6643bc4b7c72a9f1bcb44c5d,TCR,2024-06-25_14h26.42.640,LearnStrategy,2023.2.3,Win32,15.01501502,5,1,4,0.134285714,-0.007619048,1,0,0,0.8717,rock_grid_rect_2,7,05,-1,-1,0.872,-0.13047619,-0.415238095,1,0,0,4.9401,Pegmatite_rect,6,4.94,0,3,0,3,0,1,,,,,,,,,,,,,
6643bc4b7c72a9f1bcb44c5d,TCR,2024-06-25_14h26.42.640,LearnStrategy,2023.2.3,Win32,15.01501502,5,1,5,0.122857143,-0.018095238,1,0,0,0.6726,rock_grid_rect_2,6,10,-1,-1,0.673,-0.094285714,-0.387619048,1,0,0,4.3682,Pegmatite_rect,6,4.368,1,4,0,4,0,1,,,,,,,,,,,,,
6643bc4b7c72a9f1bcb44c5d,TCR,2024-06-25_14h26.42.640,LearnStrategy,2023.2.3,Win32,15.01501502,5,1,6,0.122857143,-0.004761905,1,0,0,1.1042,rock_grid_rect_2,4,01,-1,-1,1.104,0.415238095,-0.243809524,1,0,0,4.4458,Gabbro_rect,4,4.446,1,5,0,5,0,1,,,,,,,,,,,,,
6643bc4b7c72a9f1bcb44c5d,TCR,2024-06-25_14h26.42.640,LearnStrategy,2023.2.3,Win32,15.01501502,5,1,7,0.003809524,-0.004761905,1,0,0,1.0149,rock_grid_rect_2,1,05,-1,-1,1.015,-0.402857143,-0.241904762,1,0,0,6.5177,Andesite_rect,1,6.518,1,6,0,6,0,1,,,,,,,,,,,,,
6643bc4b7c72a9f1bcb44c5d,TCR,2024-06-25_14h26.42.640,LearnStrategy,2023.2.3,Win32,15.01501502,5,1,8,-0.161904762,0.005714286,1,0,0,0.7161,rock_grid_rect_2,4,08,-1,-1,0.716,0.353333333,-0.246666667,1,0,0,13.3656,Gabbro_rect,4,13.366,1,7,0,7,0,1,,,,,,,,,,,,,
6643bc4b7c72a9f1bcb44c5d,TCR,2024-06-25_14h26.42.640,LearnStrategy,2023.2.3,Win32,15.01501502,5,1,9,-0.085714286,0.013333333,1,0,0,0.8078,rock_grid_rect_2,1,04,-1,-1,0.808,-0.477142857,-0.264761905,1,0,0,49.1211,Andesite_rect,1,49.121,1,8,0,8,0,1,,,,,,,,,,,,,
6643bc4b7c72a9f1bcb44c5d,TCR,2024-06-25_14h26.42.640,LearnStrategy,2023.2.3,Win32,15.01501502,5,1,10,-0.02,-0.013333333,1,0,0,0.9917,rock_grid_rect_2,1,03,-1,-1,0.992,-0.435238095,-0.25047619,1,0,0,6.3873,Andesite_rect,1,6.387,1,9,0,9,0,1,,,,,,,,,,,,,
6643bc4b7c72a9f1bcb44c5d,TCR,2024-06-25_14h26.42.640,LearnStrategy,2023.2.3,Win32,15.01501502,5,1,11,-0.060952381,-0.008571429,1,0,0,0.7054,rock_grid_rect_2,1,14,-1,-1,0.705,0.391428571,-0.232380952,1,0,0,54.7555,Gabbro_rect,4,54.755,0,10,0,10,0,1,,,,,,,,,,,,,
6643bc4b7c72a9f1bcb44c5d,TCR,2024-06-25_14h26.42.640,LearnStrategy,2023.2.3,Win32,15.01501502,5,1,12,0.007619048,0.002857143,1,0,0,1.0626,rock_grid_rect_2,2,01,-1,-1,1.063,-0.147619048,-0.25047619,1,0,0,2.3795,Basalt_rect,2,2.38,1,11,0,11,0,1,,,,,,,,,,,,,
6643bc4b7c72a9f1bcb44c5d,TCR,2024-06-25_14h26.42.640,LearnStrategy,2023.2.3,Win32,15.01501502,5,1,13,-0.002857143,-0.01047619,1,0,0,1.17,rock_grid_rect_2,4,11,-1,-1,1.17,0.413333333,-0.239047619,1,0,0,6.0495,Gabbro_rect,4,6.05,1,12,0,12,0,1,,,,,,,,,,,,,
6643bc4b7c72a9f1bcb44c5d,TCR,2024-06-25_14h26.42.640,LearnStrategy,2023.2.3,Win32,15.01501502,5,1,14,0.024761905,-0.002857143,1,0,0,0.7041,rock_grid_rect_2,7,08,-1,-1,0.704,0.153333333,-0.41047619,1,0,0,6.4226,Peridotite_rect,7,6.423,1,13,0,13,0,1,,,,,,,,,,,,,
6643bc4b7c72a9f1bcb44c5d,TCR,2024-06-25_14h26.42.640,LearnStrategy,2023.2.3,Win32,15.01501502,5,1,15,0.102857143,-0.018095238,1,0,0,1.966,rock_grid_rect_2,7,08,-1,-1,1.966,0.144761905,-0.408571429,1,0,0,2.0438,Peridotite_rect,7,2.044,1,14,0,14,0,1,,,,,,,,,,,,,
6643bc4b7c72a9f1bcb44c5d,TCR,2024-06-25_14h26.42.640,LearnStrategy,2023.2.3,Win32,15.01501502,5,1,16,0.059047619,-0.012380952,1,0,0,1.2574,rock_grid_rect_2,5,14,-1,-1,1.257,-0.401904762,-0.396190476,1,0,0,1.3094,Obsidian_rect,5,1.309,1,15,0,15,0,1,,,,,,,,,,,,,
6643bc4b7c72a9f1bcb44c5d,TCR,2024-06-25_14h26.42.640,LearnStrategy,2023.2.3,Win32,15.01501502,5,2,1,,,,,,,,2,12,,,,,,,,,,,2,21.646,1,,,,,,-0.122857143,-0.254285714,1,0,0,21.646,Basalt_rect,0,0,0,0,1,
6643bc4b7c72a9f1bcb44c5d,TCR,2024-06-25_14h26.42.640,LearnStrategy,2023.2.3,Win32,15.01501502,5,2,2,,,,,,,,4,10,,,,,,,,,,,4,11.253,1,,,,,,0.422857143,-0.266666667,1,0,0,11.2532,Gabbro_rect,1,0,1,0,1,
6643bc4b7c72a9f1bcb44c5d,TCR,2024-06-25_14h26.42.640,LearnStrategy,2023.2.3,Win32,15.01501502,5,2,3,,,,,,,,3,09,,,,,,,,,,,3,4.189,1,,,,,,0.144761905,-0.244761905,1,0,0,4.1895,Diorite_rect,2,0,2,0,1,
6643bc4b7c72a9f1bcb44c5d,TCR,2024-06-25_14h26.42.640,LearnStrategy,2023.2.3,Win32,15.01501502,5,2,4,,,,,,,,1,16,,,,,,,,,,,1,10.367,1,,,,,,-0.372380952,-0.261904762,1,0,0,10.3672,Andesite_rect,3,0,3,0,1,
6643bc4b7c72a9f1bcb44c5d,TCR,2024-06-25_14h26.42.640,LearnStrategy,2023.2.3,Win32,15.01501502,5,2,5,,,,,,,,5,07,,,,,,,,,,,5,5.862,1,,,,,,-0.387619048,-0.40952381,1,0,0,5.862,Obsidian_rect,4,0,4,0,1,
6643bc4b7c72a9f1bcb44c5d,TCR,2024-06-25_14h26.42.640,LearnStrategy,2023.2.3,Win32,15.01501502,5,2,6,,,,,,,,5,08,,,,,,,,,,,5,3.387,1,,,,,,-0.358095238,-0.38952381,1,0,0,3.3867,Obsidian_rect,5,0,5,0,1,
6643bc4b7c72a9f1bcb44c5d,TCR,2024-06-25_14h26.42.640,LearnStrategy,2023.2.3,Win32,15.01501502,5,2,7,,,,,,,,1,11,,,,,,,,,,,1,13.601,1,,,,,,-0.403809524,-0.241904762,1,0,0,13.6009,Andesite_rect,6,0,6,0,1,
6643bc4b7c72a9f1bcb44c5d,TCR,2024-06-25_14h26.42.640,LearnStrategy,2023.2.3,Win32,15.01501502,5,2,8,,,,,,,,7,13,,,,,,,,,,,6,15.195,0,,,,,,-0.079047619,-0.399047619,1,0,0,15.1949,Pegmatite_rect,7,0,7,0,1,
6643bc4b7c72a9f1bcb44c5d,TCR,2024-06-25_14h26.42.640,LearnStrategy,2023.2.3,Win32,15.01501502,5,2,9,,,,,,,,6,08,,,,,,,,,,,6,6.719,1,,,,,,-0.140952381,-0.413333333,1,0,0,6.7185,Pegmatite_rect,8,0,8,0,1,
6643bc4b7c72a9f1bcb44c5d,TCR,2024-06-25_14h26.42.640,LearnStrategy,2023.2.3,Win32,15.01501502,5,2,10,,,,,,,,8,13,,,,,,,,,,,8,3.762,1,,,,,,0.36952381,-0.420952381,1,0,0,3.7619,Pumice_rect,9,0,9,0,1,
6643bc4b7c72a9f1bcb44c5d,TCR,2024-06-25_14h26.42.640,LearnStrategy,2023.2.3,Win32,15.01501502,5,2,11,,,,,,,,7,16,,,,,,,,,,,7,22.911,1,,,,,,0.077142857,-0.4,1,0,0,22.9108,Peridotite_rect,10,0,10,0,1,
6643bc4b7c72a9f1bcb44c5d,TCR,2024-06-25_14h26.42.640,LearnStrategy,2023.2.3,Win32,15.01501502,5,2,12,,,,,,,,4,16,,,,,,,,,,,2,2.584,0,,,,,,-0.111428571,-0.265714286,1,0,0,2.5844,Basalt_rect,11,0,11,0,1,
6643bc4b7c72a9f1bcb44c5d,TCR,2024-06-25_14h26.42.640,LearnStrategy,2023.2.3,Win32,15.01501502,5,2,13,,,,,,,,2,16,,,,,,,,,,,7,22.048,0,,,,,,0.115238095,-0.396190476,1,0,0,22.0482,Peridotite_rect,12,0,12,0,1,
6643bc4b7c72a9f1bcb44c5d,TCR,2024-06-25_14h26.42.640,LearnStrategy,2023.2.3,Win32,15.01501502,5,2,14,,,,,,,,8,09,,,,,,,,,,,8,1.71,1,,,,,,0.38,-0.398095238,1,0,0,1.7102,Pumice_rect,13,0,13,0,1,
6643bc4b7c72a9f1bcb44c5d,TCR,2024-06-25_14h26.42.640,LearnStrategy,2023.2.3,Win32,15.01501502,5,2,15,,,,,,,,6,12,,,,,,,,,,,6,11.259,1,,,,,,-0.092380952,-0.384761905,1,0,0,11.2589,Pegmatite_rect,14,0,14,0,1,
6643bc4b7c72a9f1bcb44c5d,TCR,2024-06-25_14h26.42.640,LearnStrategy,2023.2.3,Win32,15.01501502,5,2,16,,,,,,,,3,15,,,,,,,,,,,3,42.013,1,,,,,,0.152380952,-0.26952381,1,0,0,42.0128,Diorite_rect,15,0,15,0,1,
6643bc4b7c72a9f1bcb44c5d,TCR,2024-06-25_14h26.42.640,LearnStrategy,2023.2.3,Win32,15.01501502,6,1,1,-0.06952381,0.000952381,1,0,0,2.0855,rock_grid_rect_2,4,01,-1,-1,2.086,0.437142857,-0.260952381,1,0,0,5.3819,Gabbro_rect,4,5.382,1,0,0,0,0,1,,,,,,,,,,,,,
6643bc4b7c72a9f1bcb44c5d,TCR,2024-06-25_14h26.42.640,LearnStrategy,2023.2.3,Win32,15.01501502,6,1,2,-0.025714286,0.003809524,1,0,0,0.9077,rock_grid_rect_2,2,01,-1,-1,0.908,-0.118095238,-0.243809524,1,0,0,1.3265,Basalt_rect,2,1.327,1,1,0,1,0,1,,,,,,,,,,,,,
6643bc4b7c72a9f1bcb44c5d,TCR,2024-06-25_14h26.42.640,LearnStrategy,2023.2.3,Win32,15.01501502,6,1,3,-0.007619048,-0.018095238,1,0,0,0.8492,rock_grid_rect_2,1,14,-1,-1,0.849,-0.414285714,-0.261904762,1,0,0,2.3534,Andesite_rect,1,2.353,1,2,0,2,0,1,,,,,,,,,,,,,
6643bc4b7c72a9f1bcb44c5d,TCR,2024-06-25_14h26.42.640,LearnStrategy,2023.2.3,Win32,15.01501502,6,1,4,-0.047619048,0.00952381,1,0,0,0.8353,rock_grid_rect_2,2,11,-1,-1,0.835,-0.131428571,-0.246666667,1,0,0,20.2002,Basalt_rect,2,20.2,1,3,0,3,0,1,,,,,,,,,,,,,
6643bc4b7c72a9f1bcb44c5d,TCR,2024-06-25_14h26.42.640,LearnStrategy,2023.2.3,Win32,15.01501502,6,1,5,0.012380952,-0.00952381,1,0,0,0.7556,rock_grid_rect_2,1,03,-1,-1,0.756,-0.399047619,-0.237142857,1,0,0,4.5565,Andesite_rect,1,4.557,1,4,0,4,0,1,,,,,,,,,,,,,
6643bc4b7c72a9f1bcb44c5d,TCR,2024-06-25_14h26.42.640,LearnStrategy,2023.2.3,Win32,15.01501502,6,1,6,0.008571429,-0.001904762,1,0,0,0.7279,rock_grid_rect_2,5,06,-1,-1,0.728,-0.363809524,-0.40952381,1,0,0,1.1286,Obsidian_rect,5,1.129,1,5,0,5,0,1,,,,,,,,,,,,,
6643bc4b7c72a9f1bcb44c5d,TCR,2024-06-25_14h26.42.640,LearnStrategy,2023.2.3,Win32,15.01501502,6,1,7,-0.01047619,-0.003809524,1,0,0,1.017,rock_grid_rect_2,4,05,-1,-1,1.017,0.356190476,-0.236190476,1,0,0,3.9664,Gabbro_rect,4,3.966,1,6,0,6,0,1,,,,,,,,,,,,,
6643bc4b7c72a9f1bcb44c5d,TCR,2024-06-25_14h26.42.640,LearnStrategy,2023.2.3,Win32,15.01501502,6,1,8,-0.019047619,-0.008571429,1,0,0,1.34,rock_grid_rect_2,7,06,-1,-1,1.34,-0.133333333,-0.38952381,1,0,0,6.5117,Pegmatite_rect,6,6.512,0,7,0,7,0,1,,,,,,,,,,,,,
6643bc4b7c72a9f1bcb44c5d,TCR,2024-06-25_14h26.42.640,LearnStrategy,2023.2.3,Win32,15.01501502,6,1,9,0.111428571,-0.017142857,1,0,0,6.1526,rock_grid_rect_2,7,08,-1,-1,6.153,0.140952381,-0.399047619,1,0,0,4.6827,Peridotite_rect,7,4.683,1,8,0,8,0,1,,,,,,,,,,,,,
6643bc4b7c72a9f1bcb44c5d,TCR,2024-06-25_14h26.42.640,LearnStrategy,2023.2.3,Win32,15.01501502,6,1,10,0.081904762,-0.02,1,0,0,0.8292,rock_grid_rect_2,3,16,-1,-1,0.829,0.184761905,-0.257142857,1,0,0,5.8408,Diorite_rect,3,5.841,1,9,0,9,0,1,,,,,,,,,,,,,
6643bc4b7c72a9f1bcb44c5d,TCR,2024-06-25_14h26.42.640,LearnStrategy,2023.2.3,Win32,15.01501502,6,1,11,0.077142857,-0.01047619,1,0,0,0.8228,rock_grid_rect_2,4,03,-1,-1,0.823,0.446666667,-0.245714286,1,0,0,2.9445,Gabbro_rect,4,2.945,1,10,0,10,0,1,,,,,,,,,,,,,
6643bc4b7c72a9f1bcb44c5d,TCR,2024-06-25_14h26.42.640,LearnStrategy,2023.2.3,Win32,15.01501502,6,1,12,0.02952381,-0.004761905,1,0,0,0.7847,rock_grid_rect_2,8,10,-1,-1,0.785,0.479047619,-0.388571429,1,0,0,1.073,Pumice_rect,8,1.073,1,11,0,11,0,1,,,,,,,,,,,,,
6643bc4b7c72a9f1bcb44c5d,TCR,2024-06-25_14h26.42.640,LearnStrategy,2023.2.3,Win32,15.01501502,6,1,13,0.172380952,-0.01047619,1,0,0,0.8172,rock_grid_rect_2,2,11,-1,-1,0.817,-0.088571429,-0.235238095,1,0,0,17.5259,Basalt_rect,2,17.526,1,12,0,12,0,1,,,,,,,,,,,,,
6643bc4b7c72a9f1bcb44c5d,TCR,2024-06-25_14h26.42.640,LearnStrategy,2023.2.3,Win32,15.01501502,6,1,14,0.079047619,0.004761905,1,0,0,1.0956,rock_grid_rect_2,6,07,-1,-1,1.096,-0.10952381,-0.402857143,1,0,0,7.1664,Pegmatite_rect,6,7.166,1,13,0,13,0,1,,,,,,,,,,,,,
6643bc4b7c72a9f1bcb44c5d,TCR,2024-06-25_14h26.42.640,LearnStrategy,2023.2.3,Win32,15.01501502,6,1,15,-0.003809524,0.013333333,1,0,0,0.8061,rock_grid_rect_2,7,10,-1,-1,0.806,0.156190476,-0.399047619,1,0,0,3.9865,Peridotite_rect,7,3.986,1,14,0,14,0,1,,,,,,,,,,,,,
6643bc4b7c72a9f1bcb44c5d,TCR,2024-06-25_14h26.42.640,LearnStrategy,2023.2.3,Win32,15.01501502,6,1,16,0.002857143,0.000952381,1,0,0,0.8111,rock_grid_rect_2,4,08,-1,-1,0.811,0.433333333,-0.248571429,1,0,0,4.2459,Gabbro_rect,4,4.246,1,15,0,15,0,1,,,,,,,,,,,,,
6643bc4b7c72a9f1bcb44c5d,TCR,2024-06-25_14h26.42.640,LearnStrategy,2023.2.3,Win32,15.01501502,6,2,1,,,,,,,,4,12,,,,,,,,,,,4,4.374,1,,,,,,0.42,-0.252380952,1,0,0,4.374,Gabbro_rect,0,0,0,0,1,
6643bc4b7c72a9f1bcb44c5d,TCR,2024-06-25_14h26.42.640,LearnStrategy,2023.2.3,Win32,15.01501502,6,2,2,,,,,,,,1,06,,,,,,,,,,,1,20.561,1,,,,,,-0.377142857,-0.258095238,1,0,0,20.5612,Andesite_rect,1,0,1,0,1,
6643bc4b7c72a9f1bcb44c5d,TCR,2024-06-25_14h26.42.640,LearnStrategy,2023.2.3,Win32,15.01501502,6,2,3,,,,,,,,1,02,,,,,,,,,,,4,4.379,0,,,,,,0.4,-0.263809524,1,0,0,4.3791,Gabbro_rect,2,0,2,0,1,
6643bc4b7c72a9f1bcb44c5d,TCR,2024-06-25_14h26.42.640,LearnStrategy,2023.2.3,Win32,15.01501502,6,2,4,,,,,,,,8,06,,,,,,,,,,,8,1.292,1,,,,,,0.432380952,-0.388571429,1,0,0,1.2923,Pumice_rect,3,0,3,0,1,
6643bc4b7c72a9f1bcb44c5d,TCR,2024-06-25_14h26.42.640,LearnStrategy,2023.2.3,Win32,15.01501502,6,2,5,,,,,,,,5,16,,,,,,,,,,,5,1.288,1,,,,,,-0.415238095,-0.413333333,1,0,0,1.2878,Obsidian_rect,4,0,4,0,1,
6643bc4b7c72a9f1bcb44c5d,TCR,2024-06-25_14h26.42.640,LearnStrategy,2023.2.3,Win32,15.01501502,6,2,6,,,,,,,,3,12,,,,,,,,,,,3,2.504,1,,,,,,0.162857143,-0.234285714,1,0,0,2.5041,Diorite_rect,5,0,5,0,1,
6643bc4b7c72a9f1bcb44c5d,TCR,2024-06-25_14h26.42.640,LearnStrategy,2023.2.3,Win32,15.01501502,6,2,7,,,,,,,,2,09,,,,,,,,,,,2,33.712,1,,,,,,-0.06952381,-0.259047619,1,0,0,33.7115,Basalt_rect,6,0,6,0,1,
6643bc4b7c72a9f1bcb44c5d,TCR,2024-06-25_14h26.42.640,LearnStrategy,2023.2.3,Win32,15.01501502,6,2,8,,,,,,,,4,09,,,,,,,,,,,1,6.65,0,,,,,,-0.392380952,-0.254285714,1,0,0,6.6496,Andesite_rect,7,0,7,0,1,
6643bc4b7c72a9f1bcb44c5d,TCR,2024-06-25_14h26.42.640,LearnStrategy,2023.2.3,Win32,15.01501502,6,2,9,,,,,,,,8,08,,,,,,,,,,,8,2.671,1,,,,,,0.391428571,-0.403809524,1,0,0,2.6707,Pumice_rect,8,0,8,0,1,
6643bc4b7c72a9f1bcb44c5d,TCR,2024-06-25_14h26.42.640,LearnStrategy,2023.2.3,Win32,15.01501502,6,2,10,,,,,,,,6,06,,,,,,,,,,,6,6.9,1,,,,,,-0.062857143,-0.40952381,1,0,0,6.8997,Pegmatite_rect,9,0,9,0,1,
6643bc4b7c72a9f1bcb44c5d,TCR,2024-06-25_14h26.42.640,LearnStrategy,2023.2.3,Win32,15.01501502,6,2,11,,,,,,,,6,05,,,,,,,,,,,6,7.354,1,,,,,,-0.121904762,-0.396190476,1,0,0,7.3539,Pegmatite_rect,10,0,10,0,1,
6643bc4b7c72a9f1bcb44c5d,TCR,2024-06-25_14h26.42.640,LearnStrategy,2023.2.3,Win32,15.01501502,6,2,12,,,,,,,,7,12,,,,,,,,,,,3,41.379,0,,,,,,0.095238095,-0.240952381,1,0,0,41.3786,Diorite_rect,11,0,11,0,1,
6643bc4b7c72a9f1bcb44c5d,TCR,2024-06-25_14h26.42.640,LearnStrategy,2023.2.3,Win32,15.01501502,6,2,13,,,,,,,,7,15,,,,,,,,,,,7,4.156,1,,,,,,0.116190476,-0.398095238,1,0,0,4.1558,Peridotite_rect,12,0,12,0,1,
6643bc4b7c72a9f1bcb44c5d,TCR,2024-06-25_14h26.42.640,LearnStrategy,2023.2.3,Win32,15.01501502,6,2,14,,,,,,,,3,02,,,,,,,,,,,3,5.601,1,,,,,,0.143809524,-0.258095238,1,0,0,5.6005,Diorite_rect,13,0,13,0,1,
6643bc4b7c72a9f1bcb44c5d,TCR,2024-06-25_14h26.42.640,LearnStrategy,2023.2.3,Win32,15.01501502,6,2,15,,,,,,,,2,06,,,,,,,,,,,2,1.267,1,,,,,,-0.136190476,-0.257142857,1,0,0,1.2671,Basalt_rect,14,0,14,0,1,
6643bc4b7c72a9f1bcb44c5d,TCR,2024-06-25_14h26.42.640,LearnStrategy,2023.2.3,Win32,15.01501502,6,2,16,,,,,,,,5,10,,,,,,,,,,,5,1.893,1,,,,,,-0.411428571,-0.404761905,1,0,0,1.8929,Obsidian_rect,15,0,15,0,1,
6643bc4b7c72a9f1bcb44c5d,TCR,2024-06-25_14h26.42.640,LearnStrategy,2023.2.3,Win32,15.01501502,7,1,1,-0.02,0,1,0,0,1.9489,rock_grid_rect_2,2,14,-1,-1,1.949,-0.103809524,-0.254285714,1,0,0,32.8367,Basalt_rect,2,32.837,1,0,0,0,0,1,,,,,,,,,,,,,
6643bc4b7c72a9f1bcb44c5d,TCR,2024-06-25_14h26.42.640,LearnStrategy,2023.2.3,Win32,15.01501502,7,1,2,0.088571429,0.002857143,1,0,0,0.9972,rock_grid_rect_2,3,10,-1,-1,0.997,0.161904762,-0.259047619,1,0,0,2.4798,Diorite_rect,3,2.48,1,1,0,1,0,1,,,,,,,,,,,,,
6643bc4b7c72a9f1bcb44c5d,TCR,2024-06-25_14h26.42.640,LearnStrategy,2023.2.3,Win32,15.01501502,7,1,3,-0.014285714,-0.004761905,1,0,0,1.1336,rock_grid_rect_2,2,10,-1,-1,1.134,-0.122857143,-0.267619048,1,0,0,2.6034,Basalt_rect,2,2.603,1,2,0,2,0,1,,,,,,,,,,,,,
6643bc4b7c72a9f1bcb44c5d,TCR,2024-06-25_14h26.42.640,LearnStrategy,2023.2.3,Win32,15.01501502,7,1,4,-0.058095238,-0.012380952,1,0,0,1.3898,rock_grid_rect_2,8,15,-1,-1,1.39,0.403809524,-0.388571429,1,0,0,1.3208,Pumice_rect,8,1.321,1,3,0,3,0,1,,,,,,,,,,,,,
6643bc4b7c72a9f1bcb44c5d,TCR,2024-06-25_14h26.42.640,LearnStrategy,2023.2.3,Win32,15.01501502,7,1,5,-0.064761905,0.001904762,1,0,0,1.7693,rock_grid_rect_2,5,06,-1,-1,1.769,-0.473333333,-0.404761905,1,0,0,1.0864,Obsidian_rect,5,1.086,1,4,0,4,0,1,,,,,,,,,,,,,
6643bc4b7c72a9f1bcb44c5d,TCR,2024-06-25_14h26.42.640,LearnStrategy,2023.2.3,Win32,15.01501502,7,1,6,-0.073333333,-0.008571429,1,0,0,0.91,rock_grid_rect_2,1,04,-1,-1,0.91,-0.384761905,-0.240952381,1,0,0,1.7365,Andesite_rect,1,1.736,1,5,0,5,0,1,,,,,,,,,,,,,
6643bc4b7c72a9f1bcb44c5d,TCR,2024-06-25_14h26.42.640,LearnStrategy,2023.2.3,Win32,15.01501502,7,1,7,0.003809524,-0.013333333,1,0,0,1.062,rock_grid_rect_2,6,16,-1,-1,1.062,-0.043809524,-0.39047619,1,0,0,5.0281,Pegmatite_rect,6,5.028,1,6,0,6,0,1,,,,,,,,,,,,,
6643bc4b7c72a9f1bcb44c5d,TCR,2024-06-25_14h26.42.640,LearnStrategy,2023.2.3,Win32,15.01501502,7,1,8,0.017142857,0,1,0,0,2.0419,rock_grid_rect_2,4,11,-1,-1,2.042,0.42,-0.241904762,1,0,0,3.45,Gabbro_rect,4,3.45,1,7,0,7,0,1,,,,,,,,,,,,,
6643bc4b7c72a9f1bcb44c5d,TCR,2024-06-25_14h26.42.640,LearnStrategy,2023.2.3,Win32,15.01501502,7,1,9,0.01047619,-0.00952381,1,0,0,1.4714,rock_grid_rect_2,7,06,-1,-1,1.471,0.14,-0.415238095,1,0,0,4.3218,Peridotite_rect,7,4.322,1,8,0,8,0,1,,,,,,,,,,,,,
6643bc4b7c72a9f1bcb44c5d,TCR,2024-06-25_14h26.42.640,LearnStrategy,2023.2.3,Win32,15.01501502,7,1,10,-0.002857143,-0.008571429,1,0,0,0.7008,rock_grid_rect_2,4,08,-1,-1,0.701,0.42952381,-0.235238095,1,0,0,5.5021,Gabbro_rect,4,5.502,1,9,0,9,0,1,,,,,,,,,,,,,
6643bc4b7c72a9f1bcb44c5d,TCR,2024-06-25_14h26.42.640,LearnStrategy,2023.2.3,Win32,15.01501502,7,1,11,0.051428571,-0.01047619,1,0,0,0.7284,rock_grid_rect_2,4,03,-1,-1,0.728,0.434285714,-0.246666667,1,0,0,7.4716,Gabbro_rect,4,7.472,1,10,0,10,0,1,,,,,,,,,,,,,
6643bc4b7c72a9f1bcb44c5d,TCR,2024-06-25_14h26.42.640,LearnStrategy,2023.2.3,Win32,15.01501502,7,1,12,0.096190476,-0.023809524,1,0,0,1.4143,rock_grid_rect_2,7,07,-1,-1,1.414,0.132380952,-0.403809524,1,0,0,4.6731,Peridotite_rect,7,4.673,1,11,0,11,0,1,,,,,,,,,,,,,
6643bc4b7c72a9f1bcb44c5d,TCR,2024-06-25_14h26.42.640,LearnStrategy,2023.2.3,Win32,15.01501502,7,1,13,-0.011428571,-0.000952381,1,0,0,0.7485,rock_grid_rect_2,4,15,-1,-1,0.749,0.445714286,-0.259047619,1,0,0,3.2368,Gabbro_rect,4,3.237,1,12,0,12,0,1,,,,,,,,,,,,,
6643bc4b7c72a9f1bcb44c5d,TCR,2024-06-25_14h26.42.640,LearnStrategy,2023.2.3,Win32,15.01501502,7,1,14,-0.038095238,0.001904762,1,0,0,0.6781,rock_grid_rect_2,7,10,-1,-1,0.678,0.079047619,-0.411428571,1,0,0,7.355,Peridotite_rect,7,7.355,1,13,0,13,0,1,,,,,,,,,,,,,
6643bc4b7c72a9f1bcb44c5d,TCR,2024-06-25_14h26.42.640,LearnStrategy,2023.2.3,Win32,15.01501502,7,1,15,0.06952381,0.011428571,1,0,0,0.8539,rock_grid_rect_2,1,01,-1,-1,0.854,-0.375238095,-0.264761905,1,0,0,3.0912,Andesite_rect,1,3.091,1,14,0,14,0,1,,,,,,,,,,,,,
6643bc4b7c72a9f1bcb44c5d,TCR,2024-06-25_14h26.42.640,LearnStrategy,2023.2.3,Win32,15.01501502,7,1,16,0.106666667,-0.015238095,1,0,0,0.8108,rock_grid_rect_2,1,05,-1,-1,0.811,-0.401904762,-0.247619048,1,0,0,2.7804,Andesite_rect,1,2.78,1,15,0,15,0,1,,,,,,,,,,,,,
6643bc4b7c72a9f1bcb44c5d,TCR,2024-06-25_14h26.42.640,LearnStrategy,2023.2.3,Win32,15.01501502,7,2,1,,,,,,,,3,15,,,,,,,,,,,3,3.764,1,,,,,,0.151428571,-0.246666667,1,0,0,3.7644,Diorite_rect,0,0,0,0,1,
6643bc4b7c72a9f1bcb44c5d,TCR,2024-06-25_14h26.42.640,LearnStrategy,2023.2.3,Win32,15.01501502,7,2,2,,,,,,,,1,16,,,,,,,,,,,1,8.829,1,,,,,,-0.412380952,-0.263809524,1,0,0,8.8289,Andesite_rect,1,0,1,0,1,
6643bc4b7c72a9f1bcb44c5d,TCR,2024-06-25_14h26.42.640,LearnStrategy,2023.2.3,Win32,15.01501502,7,2,3,,,,,,,,1,07,,,,,,,,,,,4,10.741,0,,,,,,0.441904762,-0.265714286,1,0,0,10.7414,Gabbro_rect,2,0,2,0,1,
6643bc4b7c72a9f1bcb44c5d,TCR,2024-06-25_14h26.42.640,LearnStrategy,2023.2.3,Win32,15.01501502,7,2,4,,,,,,,,2,06,,,,,,,,,,,2,1.018,1,,,,,,-0.12,-0.241904762,1,0,0,1.0178,Basalt_rect,3,0,3,0,1,
6643bc4b7c72a9f1bcb44c5d,TCR,2024-06-25_14h26.42.640,LearnStrategy,2023.2.3,Win32,15.01501502,7,2,5,,,,,,,,4,12,,,,,,,,,,,4,3.051,1,,,,,,0.48,-0.264761905,1,0,0,3.0508,Gabbro_rect,4,0,4,0,1,
6643bc4b7c72a9f1bcb44c5d,TCR,2024-06-25_14h26.42.640,LearnStrategy,2023.2.3,Win32,15.01501502,7,2,6,,,,,,,,5,07,,,,,,,,,,,5,1.189,1,,,,,,-0.385714286,-0.406666667,1,0,0,1.1894,Obsidian_rect,5,0,5,0,1,
6643bc4b7c72a9f1bcb44c5d,TCR,2024-06-25_14h26.42.640,LearnStrategy,2023.2.3,Win32,15.01501502,7,2,7,,,,,,,,6,12,,,,,,,,,,,6,4.566,1,,,,,,-0.116190476,-0.408571429,1,0,0,4.5656,Pegmatite_rect,6,0,6,0,1,
6643bc4b7c72a9f1bcb44c5d,TCR,2024-06-25_14h26.42.640,LearnStrategy,2023.2.3,Win32,15.01501502,7,2,8,,,,,,,,4,10,,,,,,,,,,,4,16.032,1,,,,,,0.399047619,-0.233333333,1,0,0,16.0324,Gabbro_rect,7,0,7,0,1,
6643bc4b7c72a9f1bcb44c5d,TCR,2024-06-25_14h26.42.640,LearnStrategy,2023.2.3,Win32,15.01501502,7,2,9,,,,,,,,5,16,,,,,,,,,,,5,1.055,1,,,,,,-0.373333333,-0.38952381,1,0,0,1.0553,Obsidian_rect,8,0,8,0,1,
6643bc4b7c72a9f1bcb44c5d,TCR,2024-06-25_14h26.42.640,LearnStrategy,2023.2.3,Win32,15.01501502,7,2,10,,,,,,,,8,14,,,,,,,,,,,8,1.073,1,,,,,,0.42,-0.408571429,1,0,0,1.0731,Pumice_rect,9,0,9,0,1,
6643bc4b7c72a9f1bcb44c5d,TCR,2024-06-25_14h26.42.640,LearnStrategy,2023.2.3,Win32,15.01501502,7,2,11,,,,,,,,7,13,,,,,,,,,,,7,14.382,1,,,,,,0.15047619,-0.413333333,1,0,0,14.382,Peridotite_rect,10,0,10,0,1,
6643bc4b7c72a9f1bcb44c5d,TCR,2024-06-25_14h26.42.640,LearnStrategy,2023.2.3,Win32,15.01501502,7,2,12,,,,,,,,2,12,,,,,,,,,,,2,3.286,1,,,,,,-0.067619048,-0.235238095,1,0,0,3.2856,Basalt_rect,11,0,11,0,1,
6643bc4b7c72a9f1bcb44c5d,TCR,2024-06-25_14h26.42.640,LearnStrategy,2023.2.3,Win32,15.01501502,7,2,13,,,,,,,,6,08,,,,,,,,,,,6,19.876,1,,,,,,-0.099047619,-0.394285714,1,0,0,19.8757,Pegmatite_rect,12,0,12,0,1,
6643bc4b7c72a9f1bcb44c5d,TCR,2024-06-25_14h26.42.640,LearnStrategy,2023.2.3,Win32,15.01501502,7,2,14,,,,,,,,3,08,,,,,,,,,,,3,3.058,1,,,,,,0.114285714,-0.24952381,1,0,0,3.0582,Diorite_rect,13,0,13,0,1,
6643bc4b7c72a9f1bcb44c5d,TCR,2024-06-25_14h26.42.640,LearnStrategy,2023.2.3,Win32,15.01501502,7,2,15,,,,,,,,7,02,,,,,,,,,,,7,7.425,1,,,,,,0.168571429,-0.419047619,1,0,0,7.4246,Peridotite_rect,14,0,14,0,1,
6643bc4b7c72a9f1bcb44c5d,TCR,2024-06-25_14h26.42.640,LearnStrategy,2023.2.3,Win32,15.01501502,7,2,16,,,,,,,,8,16,,,,,,,,,,,2,19.973,0,,,,,,-0.095238095,-0.238095238,1,0,0,19.9731,Basalt_rect,15,0,15,0,1,
6643bc4b7c72a9f1bcb44c5d,TCR,2024-06-25_14h26.42.640,LearnStrategy,2023.2.3,Win32,15.01501502,8,1,1,-0.034285714,-0.014285714,1,0,0,66.8252,rock_grid_rect_2,4,01,-1,-1,66.825,0.391428571,-0.24,1,0,0,10.0318,Gabbro_rect,4,10.032,1,0,0,0,0,1,,,,,,,,,,,,,
6643bc4b7c72a9f1bcb44c5d,TCR,2024-06-25_14h26.42.640,LearnStrategy,2023.2.3,Win32,15.01501502,8,1,2,0.007619048,0.004761905,1,0,0,1.302,rock_grid_rect_2,8,04,-1,-1,1.302,0.452380952,-0.393333333,1,0,0,1.8581,Pumice_rect,8,1.858,1,1,0,1,0,1,,,,,,,,,,,,,
6643bc4b7c72a9f1bcb44c5d,TCR,2024-06-25_14h26.42.640,LearnStrategy,2023.2.3,Win32,15.01501502,8,1,3,-0.021904762,-0.013333333,1,0,0,1.1896,rock_grid_rect_2,4,15,-1,-1,1.19,0.406666667,-0.251428571,1,0,0,3.1944,Gabbro_rect,4,3.194,1,2,0,2,0,1,,,,,,,,,,,,,
6643bc4b7c72a9f1bcb44c5d,TCR,2024-06-25_14h26.42.640,LearnStrategy,2023.2.3,Win32,15.01501502,8,1,4,0.025714286,-0.012380952,1,0,0,0.8379,rock_grid_rect_2,7,14,-1,-1,0.838,-0.15047619,-0.402857143,1,0,0,1.9087,Pegmatite_rect,6,1.909,0,3,0,3,0,1,,,,,,,,,,,,,
6643bc4b7c72a9f1bcb44c5d,TCR,2024-06-25_14h26.42.640,LearnStrategy,2023.2.3,Win32,15.01501502,8,1,5,0.065714286,-0.001904762,1,0,0,1.1511,rock_grid_rect_2,1,03,-1,-1,1.151,-0.391428571,-0.252380952,1,0,0,3.5135,Andesite_rect,1,3.514,1,4,0,4,0,1,,,,,,,,,,,,,
6643bc4b7c72a9f1bcb44c5d,TCR,2024-06-25_14h26.42.640,LearnStrategy,2023.2.3,Win32,15.01501502,8,1,6,0.057142857,-0.01047619,1,0,0,0.7443,rock_grid_rect_2,1,05,-1,-1,0.744,-0.406666667,-0.268571429,1,0,0,1.0881,Andesite_rect,1,1.088,1,5,0,5,0,1,,,,,,,,,,,,,
6643bc4b7c72a9f1bcb44c5d,TCR,2024-06-25_14h26.42.640,LearnStrategy,2023.2.3,Win32,15.01501502,8,1,7,0.08,0.007619048,1,0,0,1.2114,rock_grid_rect_2,4,03,-1,-1,1.211,0.374285714,-0.246666667,1,0,0,3.0126,Gabbro_rect,4,3.013,1,6,0,6,0,1,,,,,,,,,,,,,
6643bc4b7c72a9f1bcb44c5d,TCR,2024-06-25_14h26.42.640,LearnStrategy,2023.2.3,Win32,15.01501502,8,1,8,0.04952381,0.022857143,1,0,0,0.7376,rock_grid_rect_2,8,03,-1,-1,0.738,0.367619048,-0.398095238,1,0,0,1.5665,Pumice_rect,8,1.566,1,7,0,7,0,1,,,,,,,,,,,,,
6643bc4b7c72a9f1bcb44c5d,TCR,2024-06-25_14h26.42.640,LearnStrategy,2023.2.3,Win32,15.01501502,8,1,9,-0.113333333,0.02,1,0,0,0.756,rock_grid_rect_2,7,08,-1,-1,0.756,0.134285714,-0.408571429,1,0,0,3.5423,Peridotite_rect,7,3.542,1,8,0,8,0,1,,,,,,,,,,,,,
6643bc4b7c72a9f1bcb44c5d,TCR,2024-06-25_14h26.42.640,LearnStrategy,2023.2.3,Win32,15.01501502,8,1,10,0.060952381,0.005714286,1,0,0,0.7514,rock_grid_rect_2,1,09,-1,-1,0.751,-0.415238095,-0.25047619,1,0,0,5.7279,Andesite_rect,1,5.728,1,9,0,9,0,1,,,,,,,,,,,,,
6643bc4b7c72a9f1bcb44c5d,TCR,2024-06-25_14h26.42.640,LearnStrategy,2023.2.3,Win32,15.01501502,8,1,11,0.041904762,0.01047619,1,0,0,0.8053,rock_grid_rect_2,1,05,-1,-1,0.805,-0.39047619,-0.263809524,1,0,0,1.2084,Andesite_rect,1,1.208,1,10,0,10,0,1,,,,,,,,,,,,,
6643bc4b7c72a9f1bcb44c5d,TCR,2024-06-25_14h26.42.640,LearnStrategy,2023.2.3,Win32,15.01501502,8,1,12,0.039047619,0.012380952,1,0,0,0.8711,rock_grid_rect_2,5,09,-1,-1,0.871,-0.333333333,-0.416190476,1,0,0,1.0871,Obsidian_rect,5,1.087,1,11,0,11,0,1,,,,,,,,,,,,,
6643bc4b7c72a9f1bcb44c5d,TCR,2024-06-25_14h26.42.640,LearnStrategy,2023.2.3,Win32,15.01501502,8,1,13,0.03047619,-0.002857143,1,0,0,0.8321,rock_grid_rect_2,2,05,-1,-1,0.832,-0.078095238,-0.259047619,1,0,0,1.4129,Basalt_rect,2,1.413,1,12,0,12,0,1,,,,,,,,,,,,,
6643bc4b7c72a9f1bcb44c5d,TCR,2024-06-25_14h26.42.640,LearnStrategy,2023.2.3,Win32,15.01501502,8,1,14,0.007619048,0,1,0,0,0.6948,rock_grid_rect_2,6,10,-1,-1,0.695,-0.16,-0.417142857,1,0,0,5.8123,Pegmatite_rect,6,5.812,1,13,0,13,0,1,,,,,,,,,,,,,
6643bc4b7c72a9f1bcb44c5d,TCR,2024-06-25_14h26.42.640,LearnStrategy,2023.2.3,Win32,15.01501502,8,1,15,0.112380952,0.005714286,1,0,0,0.8576,rock_grid_rect_2,3,16,-1,-1,0.858,0.125714286,-0.240952381,1,0,0,4.0436,Diorite_rect,3,4.044,1,14,0,14,0,1,,,,,,,,,,,,,
6643bc4b7c72a9f1bcb44c5d,TCR,2024-06-25_14h26.42.640,LearnStrategy,2023.2.3,Win32,15.01501502,8,1,16,-0.052380952,-0.011428571,1,0,0,0.7296,rock_grid_rect_2,2,11,-1,-1,0.73,-0.112380952,-0.233333333,1,0,0,2.5817,Basalt_rect,2,2.582,1,15,0,15,0,1,,,,,,,,,,,,,
6643bc4b7c72a9f1bcb44c5d,TCR,2024-06-25_14h26.42.640,LearnStrategy,2023.2.3,Win32,15.01501502,8,2,1,,,,,,,,1,06,,,,,,,,,,,1,5.041,1,,,,,,-0.354285714,-0.24952381,1,0,0,5.0414,Andesite_rect,0,0,0,0,1,
6643bc4b7c72a9f1bcb44c5d,TCR,2024-06-25_14h26.42.640,LearnStrategy,2023.2.3,Win32,15.01501502,8,2,2,,,,,,,,8,06,,,,,,,,,,,8,1.05,1,,,,,,0.462857143,-0.403809524,1,0,0,1.0498,Pumice_rect,1,0,1,0,1,
6643bc4b7c72a9f1bcb44c5d,TCR,2024-06-25_14h26.42.640,LearnStrategy,2023.2.3,Win32,15.01501502,8,2,3,,,,,,,,6,05,,,,,,,,,,,6,4.016,1,,,,,,-0.147619048,-0.416190476,1,0,0,4.0164,Pegmatite_rect,2,0,2,0,1,
6643bc4b7c72a9f1bcb44c5d,TCR,2024-06-25_14h26.42.640,LearnStrategy,2023.2.3,Win32,15.01501502,8,2,4,,,,,,,,5,10,,,,,,,,,,,5,3.101,1,,,,,,-0.357142857,-0.392380952,1,0,0,3.1012,Obsidian_rect,3,0,3,0,1,
6643bc4b7c72a9f1bcb44c5d,TCR,2024-06-25_14h26.42.640,LearnStrategy,2023.2.3,Win32,15.01501502,8,2,5,,,,,,,,5,12,,,,,,,,,,,5,0.852,1,,,,,,-0.356190476,-0.392380952,1,0,0,0.852,Obsidian_rect,4,0,4,0,1,
6643bc4b7c72a9f1bcb44c5d,TCR,2024-06-25_14h26.42.640,LearnStrategy,2023.2.3,Win32,15.01501502,8,2,6,,,,,,,,3,07,,,,,,,,,,,3,7.308,1,,,,,,0.080952381,-0.238095238,1,0,0,7.3076,Diorite_rect,5,0,5,0,1,
6643bc4b7c72a9f1bcb44c5d,TCR,2024-06-25_14h26.42.640,LearnStrategy,2023.2.3,Win32,15.01501502,8,2,7,,,,,,,,6,11,,,,,,,,,,,6,7.268,1,,,,,,-0.16,-0.407619048,1,0,0,7.268,Pegmatite_rect,6,0,6,0,1,
6643bc4b7c72a9f1bcb44c5d,TCR,2024-06-25_14h26.42.640,LearnStrategy,2023.2.3,Win32,15.01501502,8,2,8,,,,,,,,7,16,,,,,,,,,,,7,9.659,1,,,,,,0.096190476,-0.405714286,1,0,0,9.6586,Peridotite_rect,7,0,7,0,1,
6643bc4b7c72a9f1bcb44c5d,TCR,2024-06-25_14h26.42.640,LearnStrategy,2023.2.3,Win32,15.01501502,8,2,9,,,,,,,,4,16,,,,,,,,,,,2,34.955,0,,,,,,-0.082857143,-0.253333333,1,0,0,34.9547,Basalt_rect,8,0,8,0,1,
6643bc4b7c72a9f1bcb44c5d,TCR,2024-06-25_14h26.42.640,LearnStrategy,2023.2.3,Win32,15.01501502,8,2,10,,,,,,,,1,02,,,,,,,,,,,4,3.739,0,,,,,,0.357142857,-0.234285714,1,0,0,3.7393,Gabbro_rect,9,0,9,0,1,
6643bc4b7c72a9f1bcb44c5d,TCR,2024-06-25_14h26.42.640,LearnStrategy,2023.2.3,Win32,15.01501502,8,2,11,,,,,,,,8,09,,,,,,,,,,,8,1.019,1,,,,,,0.398095238,-0.387619048,1,0,0,1.0187,Pumice_rect,10,0,10,0,1,
6643bc4b7c72a9f1bcb44c5d,TCR,2024-06-25_14h26.42.640,LearnStrategy,2023.2.3,Win32,15.01501502,8,2,12,,,,,,,,3,02,,,,,,,,,,,3,6.131,1,,,,,,0.077142857,-0.236190476,1,0,0,6.1311,Diorite_rect,11,0,11,0,1,
6643bc4b7c72a9f1bcb44c5d,TCR,2024-06-25_14h26.42.640,LearnStrategy,2023.2.3,Win32,15.01501502,8,2,13,,,,,,,,7,15,,,,,,,,,,,7,7.707,1,,,,,,0.157142857,-0.411428571,1,0,0,7.7074,Peridotite_rect,12,0,12,0,1,
6643bc4b7c72a9f1bcb44c5d,TCR,2024-06-25_14h26.42.640,LearnStrategy,2023.2.3,Win32,15.01501502,8,2,14,,,,,,,,4,13,,,,,,,,,,,4,3.962,1,,,,,,0.36,-0.242857143,1,0,0,3.9618,Gabbro_rect,13,0,13,0,1,
6643bc4b7c72a9f1bcb44c5d,TCR,2024-06-25_14h26.42.640,LearnStrategy,2023.2.3,Win32,15.01501502,8,2,15,,,,,,,,2,16,,,,,,,,,,,2,1.196,1,,,,,,-0.108571429,-0.237142857,1,0,0,1.1964,Basalt_rect,14,0,14,0,1,
6643bc4b7c72a9f1bcb44c5d,TCR,2024-06-25_14h26.42.640,LearnStrategy,2023.2.3,Win32,15.01501502,8,2,16,,,,,,,,2,09,,,,,,,,,,,1,5.917,0,,,,,,-0.371428571,-0.255238095,1,0,0,5.917,Andesite_rect,15,0,15,0,1,
6643bc4b7c72a9f1bcb44c5d,TCR,2024-06-25_14h26.42.640,LearnStrategy,2023.2.3,Win32,15.01501502,9,1,1,-0.001904762,0.013333333,1,0,0,0.6135,rock_grid_rect_2,1,03,-1,-1,0.614,-0.340952381,-0.25047619,1,0,0,6.1218,Andesite_rect,1,6.122,1,0,0,0,0,1,,,,,,,,,,,,,
6643bc4b7c72a9f1bcb44c5d,TCR,2024-06-25_14h26.42.640,LearnStrategy,2023.2.3,Win32,15.01501502,9,1,2,0.065714286,-0.024761905,1,0,0,1.2454,rock_grid_rect_2,4,05,-1,-1,1.245,0.134285714,-0.408571429,1,0,0,2.4209,Peridotite_rect,7,2.421,0,1,0,1,0,1,,,,,,,,,,,,,
6643bc4b7c72a9f1bcb44c5d,TCR,2024-06-25_14h26.42.640,LearnStrategy,2023.2.3,Win32,15.01501502,9,1,3,0.137142857,0.000952381,1,0,0,0.6189,rock_grid_rect_2,3,06,-1,-1,0.619,0.145714286,-0.254285714,1,0,0,2.4747,Diorite_rect,3,2.475,1,2,0,2,0,1,,,,,,,,,,,,,
6643bc4b7c72a9f1bcb44c5d,TCR,2024-06-25_14h26.42.640,LearnStrategy,2023.2.3,Win32,15.01501502,9,1,4,0.040952381,0,1,0,0,0.8617,rock_grid_rect_2,5,09,-1,-1,0.862,-0.334285714,-0.4,1,0,0,2.2829,Obsidian_rect,5,2.283,1,3,0,3,0,1,,,,,,,,,,,,,
6643bc4b7c72a9f1bcb44c5d,TCR,2024-06-25_14h26.42.640,LearnStrategy,2023.2.3,Win32,15.01501502,9,1,5,0.135238095,-0.000952381,1,0,0,0.9023,rock_grid_rect_2,7,05,-1,-1,0.902,0.135238095,-0.417142857,1,0,0,5.0268,Peridotite_rect,7,5.027,1,4,0,4,0,1,,,,,,,,,,,,,
6643bc4b7c72a9f1bcb44c5d,TCR,2024-06-25_14h26.42.640,LearnStrategy,2023.2.3,Win32,15.01501502,9,1,6,0.15047619,0.002857143,1,0,0,0.6848,rock_grid_rect_2,1,05,-1,-1,0.685,-0.395238095,-0.239047619,1,0,0,1.2925,Andesite_rect,1,1.292,1,5,0,5,0,1,,,,,,,,,,,,,
6643bc4b7c72a9f1bcb44c5d,TCR,2024-06-25_14h26.42.640,LearnStrategy,2023.2.3,Win32,15.01501502,9,1,7,0.073333333,0.017142857,1,0,0,0.8337,rock_grid_rect_2,7,10,-1,-1,0.834,0.145714286,-0.414285714,1,0,0,1.3792,Peridotite_rect,7,1.379,1,6,0,6,0,1,,,,,,,,,,,,,
6643bc4b7c72a9f1bcb44c5d,TCR,2024-06-25_14h26.42.640,LearnStrategy,2023.2.3,Win32,15.01501502,9,1,8,0.07047619,0.024761905,1,0,0,0.7257,rock_grid_rect_2,2,01,-1,-1,0.726,-0.119047619,-0.256190476,1,0,0,1.7001,Basalt_rect,2,1.7,1,7,0,7,0,1,,,,,,,,,,,,,
6643bc4b7c72a9f1bcb44c5d,TCR,2024-06-25_14h26.42.640,LearnStrategy,2023.2.3,Win32,15.01501502,9,1,9,0.081904762,-0.017142857,1,0,0,0.6485,rock_grid_rect_2,1,04,-1,-1,0.648,-0.402857143,-0.264761905,1,0,0,1.2741,Andesite_rect,1,1.274,1,8,0,8,0,1,,,,,,,,,,,,,
6643bc4b7c72a9f1bcb44c5d,TCR,2024-06-25_14h26.42.640,LearnStrategy,2023.2.3,Win32,15.01501502,9,1,10,0.163809524,-0.007619048,1,0,0,0.7429,rock_grid_rect_2,2,01,-1,-1,0.743,-0.14952381,-0.255238095,1,0,0,1.1222,Basalt_rect,2,1.122,1,9,0,9,0,1,,,,,,,,,,,,,
6643bc4b7c72a9f1bcb44c5d,TCR,2024-06-25_14h26.42.640,LearnStrategy,2023.2.3,Win32,15.01501502,9,1,11,0.148571429,-0.006666667,1,0,0,0.8404,rock_grid_rect_2,8,02,-1,-1,0.84,0.384761905,-0.408571429,1,0,0,1.7952,Pumice_rect,8,1.795,1,10,0,10,0,1,,,,,,,,,,,,,
6643bc4b7c72a9f1bcb44c5d,TCR,2024-06-25_14h26.42.640,LearnStrategy,2023.2.3,Win32,15.01501502,9,1,12,0.004761905,-0.006666667,1,0,0,0.8034,rock_grid_rect_2,6,10,-1,-1,0.803,-0.11047619,-0.39047619,1,0,0,4.4097,Pegmatite_rect,6,4.41,1,11,0,11,0,1,,,,,,,,,,,,,
6643bc4b7c72a9f1bcb44c5d,TCR,2024-06-25_14h26.42.640,LearnStrategy,2023.2.3,Win32,15.01501502,9,1,13,0.095238095,0.001904762,1,0,0,0.8371,rock_grid_rect_2,4,15,-1,-1,0.837,0.357142857,-0.271428571,1,0,0,3.3352,Gabbro_rect,4,3.335,1,12,0,12,0,1,,,,,,,,,,,,,
6643bc4b7c72a9f1bcb44c5d,TCR,2024-06-25_14h26.42.640,LearnStrategy,2023.2.3,Win32,15.01501502,9,1,14,0.037142857,-0.00952381,1,0,0,0.8482,rock_grid_rect_2,2,05,-1,-1,0.848,-0.121904762,-0.265714286,1,0,0,1.3479,Basalt_rect,2,1.348,1,13,0,13,0,1,,,,,,,,,,,,,
6643bc4b7c72a9f1bcb44c5d,TCR,2024-06-25_14h26.42.640,LearnStrategy,2023.2.3,Win32,15.01501502,9,1,15,0.063809524,-0.006666667,1,0,0,0.6699,rock_grid_rect_2,1,01,-1,-1,0.67,-0.417142857,-0.26,1,0,0,3.199,Andesite_rect,1,3.199,1,14,0,14,0,1,,,,,,,,,,,,,
6643bc4b7c72a9f1bcb44c5d,TCR,2024-06-25_14h26.42.640,LearnStrategy,2023.2.3,Win32,15.01501502,9,1,16,-0.004761905,0.011428571,1,0,0,0.7352,rock_grid_rect_2,4,05,-1,-1,0.735,0.397142857,-0.260952381,1,0,0,3.6667,Gabbro_rect,4,3.667,1,15,0,15,0,1,,,,,,,,,,,,,
6643bc4b7c72a9f1bcb44c5d,TCR,2024-06-25_14h26.42.640,LearnStrategy,2023.2.3,Win32,15.01501502,9,2,1,,,,,,,,5,04,,,,,,,,,,,5,1.11,1,,,,,,-0.33047619,-0.408571429,1,0,0,1.1095,Obsidian_rect,0,0,0,0,1,
6643bc4b7c72a9f1bcb44c5d,TCR,2024-06-25_14h26.42.640,LearnStrategy,2023.2.3,Win32,15.01501502,9,2,2,,,,,,,,4,09,,,,,,,,,,,1,69.618,0,,,,,,-0.374285714,-0.253333333,1,0,0,69.6179,Andesite_rect,1,0,1,0,1,
6643bc4b7c72a9f1bcb44c5d,TCR,2024-06-25_14h26.42.640,LearnStrategy,2023.2.3,Win32,15.01501502,9,2,3,,,,,,,,3,09,,,,,,,,,,,3,3.718,1,,,,,,0.16952381,-0.255238095,1,0,0,3.7183,Diorite_rect,2,0,2,0,1,
6643bc4b7c72a9f1bcb44c5d,TCR,2024-06-25_14h26.42.640,LearnStrategy,2023.2.3,Win32,15.01501502,9,2,4,,,,,,,,2,02,,,,,,,,,,,2,5.62,1,,,,,,-0.126666667,-0.242857143,1,0,0,5.6196,Basalt_rect,3,0,3,0,1,
6643bc4b7c72a9f1bcb44c5d,TCR,2024-06-25_14h26.42.640,LearnStrategy,2023.2.3,Win32,15.01501502,9,2,5,,,,,,,,5,08,,,,,,,,,,,5,1.014,1,,,,,,-0.441904762,-0.380952381,1,0,0,1.0138,Obsidian_rect,4,0,4,0,1,
6643bc4b7c72a9f1bcb44c5d,TCR,2024-06-25_14h26.42.640,LearnStrategy,2023.2.3,Win32,15.01501502,9,2,6,,,,,,,,8,08,,,,,,,,,,,8,1.377,1,,,,,,0.396190476,-0.41047619,1,0,0,1.3767,Pumice_rect,5,0,5,0,1,
6643bc4b7c72a9f1bcb44c5d,TCR,2024-06-25_14h26.42.640,LearnStrategy,2023.2.3,Win32,15.01501502,9,2,7,,,,,,,,6,06,,,,,,,,,,,6,3.95,1,,,,,,-0.117142857,-0.414285714,1,0,0,3.95,Pegmatite_rect,6,0,6,0,1,
6643bc4b7c72a9f1bcb44c5d,TCR,2024-06-25_14h26.42.640,LearnStrategy,2023.2.3,Win32,15.01501502,9,2,8,,,,,,,,7,04,,,,,,,,,,,6,3.627,0,,,,,,-0.079047619,-0.402857143,1,0,0,3.6266,Pegmatite_rect,7,0,7,0,1,
6643bc4b7c72a9f1bcb44c5d,TCR,2024-06-25_14h26.42.640,LearnStrategy,2023.2.3,Win32,15.01501502,9,2,9,,,,,,,,3,12,,,,,,,,,,,3,6.862,1,,,,,,0.106666667,-0.24952381,1,0,0,6.8622,Diorite_rect,8,0,8,0,1,
6643bc4b7c72a9f1bcb44c5d,TCR,2024-06-25_14h26.42.640,LearnStrategy,2023.2.3,Win32,15.01501502,9,2,10,,,,,,,,1,10,,,,,,,,,,,1,8.368,1,,,,,,-0.322857143,-0.262857143,1,0,0,8.3681,Andesite_rect,9,0,9,0,1,
6643bc4b7c72a9f1bcb44c5d,TCR,2024-06-25_14h26.42.640,LearnStrategy,2023.2.3,Win32,15.01501502,9,2,11,,,,,,,,7,12,,,,,,,,,,,4,8.61,0,,,,,,0.378095238,-0.241904762,1,0,0,8.6104,Gabbro_rect,10,0,10,0,1,
6643bc4b7c72a9f1bcb44c5d,TCR,2024-06-25_14h26.42.640,LearnStrategy,2023.2.3,Win32,15.01501502,9,2,12,,,,,,,,4,14,,,,,,,,,,,4,5.288,1,,,,,,0.438095238,-0.261904762,1,0,0,5.2883,Gabbro_rect,11,0,11,0,1,
6643bc4b7c72a9f1bcb44c5d,TCR,2024-06-25_14h26.42.640,LearnStrategy,2023.2.3,Win32,15.01501502,9,2,13,,,,,,,,1,11,,,,,,,,,,,1,3.576,1,,,,,,-0.375238095,-0.246666667,1,0,0,3.5755,Andesite_rect,12,0,12,0,1,
6643bc4b7c72a9f1bcb44c5d,TCR,2024-06-25_14h26.42.640,LearnStrategy,2023.2.3,Win32,15.01501502,9,2,14,,,,,,,,8,13,,,,,,,,,,,8,1.217,1,,,,,,0.417142857,-0.413333333,1,0,0,1.2175,Pumice_rect,13,0,13,0,1,
6643bc4b7c72a9f1bcb44c5d,TCR,2024-06-25_14h26.42.640,LearnStrategy,2023.2.3,Win32,15.01501502,9,2,15,,,,,,,,2,04,,,,,,,,,,,2,1.119,1,,,,,,-0.123809524,-0.26952381,1,0,0,1.1193,Basalt_rect,14,0,14,0,1,
6643bc4b7c72a9f1bcb44c5d,TCR,2024-06-25_14h26.42.640,LearnStrategy,2023.2.3,Win32,15.01501502,9,2,16,,,,,,,,6,09,,,,,,,,,,,6,5.802,1,,,,,,-0.127619048,-0.411428571,1,0,0,5.8023,Pegmatite_rect,15,0,15,0,1,
6643bc4b7c72a9f1bcb44c5d,TCR,2024-06-25_14h26.42.640,LearnStrategy,2023.2.3,Win32,15.01501502,,,,,,,,,,,,,,,,,,,,,,,,,,,,,,,,,,,,,,,,,,,1
6643bc4b7c72a9f1bcb44c5d,TCR,2024-06-25_14h26.42.640,LearnStrategy,2023.2.3,Win32,15.01501502,,,,,,,,,,,,,,,,,,,,,,,,,,,,,,,,,,,,,,,,,,,
6643bc4b7c72a9f1bcb44c5d,TCR,2024-06-25_14h26.42.640,LearnStrategy,2023.2.3,Win32,15.01501502,,,,,,,,,,,6,15,1,1,,,,,,,,,,,,,,,,,,,,,,,,,,,,,
6643bc4b7c72a9f1bcb44c5d,TCR,2024-06-25_14h26.42.640,LearnStrategy,2023.2.3,Win32,15.01501502,,,,,,,,,,,7,14,1,2,,,,,,,,,,,,,,,,,,,,,,,,,,,,,
6643bc4b7c72a9f1bcb44c5d,TCR,2024-06-25_14h26.42.640,LearnStrategy,2023.2.3,Win32,15.01501502,,,,,,,,,,,6,07,1,3,,,,,,,,,,,,,,,,,,,,,,,,,,,,,
6643bc4b7c72a9f1bcb44c5d,TCR,2024-06-25_14h26.42.640,LearnStrategy,2023.2.3,Win32,15.01501502,,,,,,,,,,,1,05,1,4,,,,,,,,,,,,,,,,,,,,,,,,,,,,,
6643bc4b7c72a9f1bcb44c5d,TCR,2024-06-25_14h26.42.640,LearnStrategy,2023.2.3,Win32,15.01501502,,,,,,,,,,,8,10,1,5,,,,,,,,,,,,,,,,,,,,,,,,,,,,,
6643bc4b7c72a9f1bcb44c5d,TCR,2024-06-25_14h26.42.640,LearnStrategy,2023.2.3,Win32,15.01501502,,,,,,,,,,,1,04,1,6,,,,,,,,,,,,,,,,,,,,,,,,,,,,,
6643bc4b7c72a9f1bcb44c5d,TCR,2024-06-25_14h26.42.640,LearnStrategy,2023.2.3,Win32,15.01501502,,,,,,,,,,,8,04,1,7,,,,,,,,,,,,,,,,,,,,,,,,,,,,,
6643bc4b7c72a9f1bcb44c5d,TCR,2024-06-25_14h26.42.640,LearnStrategy,2023.2.3,Win32,15.01501502,,,,,,,,,,,4,11,1,8,,,,,,,,,,,,,,,,,,,,,,,,,,,,,
6643bc4b7c72a9f1bcb44c5d,TCR,2024-06-25_14h26.42.640,LearnStrategy,2023.2.3,Win32,15.01501502,,,,,,,,,,,2,01,2,1,,,,,,,,,,,,,,,,,,,,,,,,,,,,,
6643bc4b7c72a9f1bcb44c5d,TCR,2024-06-25_14h26.42.640,LearnStrategy,2023.2.3,Win32,15.01501502,,,,,,,,,,,1,01,2,2,,,,,,,,,,,,,,,,,,,,,,,,,,,,,
6643bc4b7c72a9f1bcb44c5d,TCR,2024-06-25_14h26.42.640,LearnStrategy,2023.2.3,Win32,15.01501502,,,,,,,,,,,4,15,2,3,,,,,,,,,,,,,,,,,,,,,,,,,,,,,
6643bc4b7c72a9f1bcb44c5d,TCR,2024-06-25_14h26.42.640,LearnStrategy,2023.2.3,Win32,15.01501502,,,,,,,,,,,1,14,2,4,,,,,,,,,,,,,,,,,,,,,,,,,,,,,
6643bc4b7c72a9f1bcb44c5d,TCR,2024-06-25_14h26.42.640,LearnStrategy,2023.2.3,Win32,15.01501502,,,,,,,,,,,6,16,2,5,,,,,,,,,,,,,,,,,,,,,,,,,,,,,
6643bc4b7c72a9f1bcb44c5d,TCR,2024-06-25_14h26.42.640,LearnStrategy,2023.2.3,Win32,15.01501502,,,,,,,,,,,7,06,2,6,,,,,,,,,,,,,,,,,,,,,,,,,,,,,
6643bc4b7c72a9f1bcb44c5d,TCR,2024-06-25_14h26.42.640,LearnStrategy,2023.2.3,Win32,15.01501502,,,,,,,,,,,5,09,2,7,,,,,,,,,,,,,,,,,,,,,,,,,,,,,
6643bc4b7c72a9f1bcb44c5d,TCR,2024-06-25_14h26.42.640,LearnStrategy,2023.2.3,Win32,15.01501502,,,,,,,,,,,3,16,2,8,,,,,,,,,,,,,,,,,,,,,,,,,,,,,
6643bc4b7c72a9f1bcb44c5d,TCR,2024-06-25_14h26.42.640,LearnStrategy,2023.2.3,Win32,15.01501502,,,,,,,,,,,5,02,3,1,,,,,,,,,,,,,,,,,,,,,,,,,,,,,
6643bc4b7c72a9f1bcb44c5d,TCR,2024-06-25_14h26.42.640,LearnStrategy,2023.2.3,Win32,15.01501502,,,,,,,,,,,8,02,3,2,,,,,,,,,,,,,,,,,,,,,,,,,,,,,
6643bc4b7c72a9f1bcb44c5d,TCR,2024-06-25_14h26.42.640,LearnStrategy,2023.2.3,Win32,15.01501502,,,,,,,,,,,6,03,3,3,,,,,,,,,,,,,,,,,,,,,,,,,,,,,
6643bc4b7c72a9f1bcb44c5d,TCR,2024-06-25_14h26.42.640,LearnStrategy,2023.2.3,Win32,15.01501502,,,,,,,,,,,3,13,3,4,,,,,,,,,,,,,,,,,,,,,,,,,,,,,
6643bc4b7c72a9f1bcb44c5d,TCR,2024-06-25_14h26.42.640,LearnStrategy,2023.2.3,Win32,15.01501502,,,,,,,,,,,6,13,3,5,,,,,,,,,,,,,,,,,,,,,,,,,,,,,
6643bc4b7c72a9f1bcb44c5d,TCR,2024-06-25_14h26.42.640,LearnStrategy,2023.2.3,Win32,15.01501502,,,,,,,,,,,3,10,3,6,,,,,,,,,,,,,,,,,,,,,,,,,,,,,
6643bc4b7c72a9f1bcb44c5d,TCR,2024-06-25_14h26.42.640,LearnStrategy,2023.2.3,Win32,15.01501502,,,,,,,,,,,4,08,3,7,,,,,,,,,,,,,,,,,,,,,,,,,,,,,
6643bc4b7c72a9f1bcb44c5d,TCR,2024-06-25_14h26.42.640,LearnStrategy,2023.2.3,Win32,15.01501502,,,,,,,,,,,1,03,3,8,,,,,,,,,,,,,,,,,,,,,,,,,,,,,
6643bc4b7c72a9f1bcb44c5d,TCR,2024-06-25_14h26.42.640,LearnStrategy,2023.2.3,Win32,15.01501502,,,,,,,,,,,7,05,4,1,,,,,,,,,,,,,,,,,,,,,,,,,,,,,
6643bc4b7c72a9f1bcb44c5d,TCR,2024-06-25_14h26.42.640,LearnStrategy,2023.2.3,Win32,15.01501502,,,,,,,,,,,6,10,4,2,,,,,,,,,,,,,,,,,,,,,,,,,,,,,
6643bc4b7c72a9f1bcb44c5d,TCR,2024-06-25_14h26.42.640,LearnStrategy,2023.2.3,Win32,15.01501502,,,,,,,,,,,1,09,4,3,,,,,,,,,,,,,,,,,,,,,,,,,,,,,
6643bc4b7c72a9f1bcb44c5d,TCR,2024-06-25_14h26.42.640,LearnStrategy,2023.2.3,Win32,15.01501502,,,,,,,,,,,4,01,4,4,,,,,,,,,,,,,,,,,,,,,,,,,,,,,
6643bc4b7c72a9f1bcb44c5d,TCR,2024-06-25_14h26.42.640,LearnStrategy,2023.2.3,Win32,15.01501502,,,,,,,,,,,8,15,4,5,,,,,,,,,,,,,,,,,,,,,,,,,,,,,
6643bc4b7c72a9f1bcb44c5d,TCR,2024-06-25_14h26.42.640,LearnStrategy,2023.2.3,Win32,15.01501502,,,,,,,,,,,4,05,4,6,,,,,,,,,,,,,,,,,,,,,,,,,,,,,
6643bc4b7c72a9f1bcb44c5d,TCR,2024-06-25_14h26.42.640,LearnStrategy,2023.2.3,Win32,15.01501502,,,,,,,,,,,3,11,4,7,,,,,,,,,,,,,,,,,,,,,,,,,,,,,
6643bc4b7c72a9f1bcb44c5d,TCR,2024-06-25_14h26.42.640,LearnStrategy,2023.2.3,Win32,15.01501502,,,,,,,,,,,3,06,4,8,,,,,,,,,,,,,,,,,,,,,,,,,,,,,
6643bc4b7c72a9f1bcb44c5d,TCR,2024-06-25_14h26.42.640,LearnStrategy,2023.2.3,Win32,15.01501502,,,,,,,,,,,8,03,5,1,,,,,,,,,,,,,,,,,,,,,,,,,,,,,
6643bc4b7c72a9f1bcb44c5d,TCR,2024-06-25_14h26.42.640,LearnStrategy,2023.2.3,Win32,15.01501502,,,,,,,,,,,8,05,5,2,,,,,,,,,,,,,,,,,,,,,,,,,,,,,
6643bc4b7c72a9f1bcb44c5d,TCR,2024-06-25_14h26.42.640,LearnStrategy,2023.2.3,Win32,15.01501502,,,,,,,,,,,2,14,5,3,,,,,,,,,,,,,,,,,,,,,,,,,,,,,
6643bc4b7c72a9f1bcb44c5d,TCR,2024-06-25_14h26.42.640,LearnStrategy,2023.2.3,Win32,15.01501502,,,,,,,,,,,5,14,5,4,,,,,,,,,,,,,,,,,,,,,,,,,,,,,
6643bc4b7c72a9f1bcb44c5d,TCR,2024-06-25_14h26.42.640,LearnStrategy,2023.2.3,Win32,15.01501502,,,,,,,,,,,2,10,5,5,,,,,,,,,,,,,,,,,,,,,,,,,,,,,
6643bc4b7c72a9f1bcb44c5d,TCR,2024-06-25_14h26.42.640,LearnStrategy,2023.2.3,Win32,15.01501502,,,,,,,,,,,2,08,5,6,,,,,,,,,,,,,,,,,,,,,,,,,,,,,
6643bc4b7c72a9f1bcb44c5d,TCR,2024-06-25_14h26.42.640,LearnStrategy,2023.2.3,Win32,15.01501502,,,,,,,,,,,7,08,5,7,,,,,,,,,,,,,,,,,,,,,,,,,,,,,
6643bc4b7c72a9f1bcb44c5d,TCR,2024-06-25_14h26.42.640,LearnStrategy,2023.2.3,Win32,15.01501502,,,,,,,,,,,4,03,5,8,,,,,,,,,,,,,,,,,,,,,,,,,,,,,
6643bc4b7c72a9f1bcb44c5d,TCR,2024-06-25_14h26.42.640,LearnStrategy,2023.2.3,Win32,15.01501502,,,,,,,,,,,2,05,6,1,,,,,,,,,,,,,,,,,,,,,,,,,,,,,
6643bc4b7c72a9f1bcb44c5d,TCR,2024-06-25_14h26.42.640,LearnStrategy,2023.2.3,Win32,15.01501502,,,,,,,,,,,5,05,6,2,,,,,,,,,,,,,,,,,,,,,,,,,,,,,
6643bc4b7c72a9f1bcb44c5d,TCR,2024-06-25_14h26.42.640,LearnStrategy,2023.2.3,Win32,15.01501502,,,,,,,,,,,3,14,6,3,,,,,,,,,,,,,,,,,,,,,,,,,,,,,
6643bc4b7c72a9f1bcb44c5d,TCR,2024-06-25_14h26.42.640,LearnStrategy,2023.2.3,Win32,15.01501502,,,,,,,,,,,7,07,6,4,,,,,,,,,,,,,,,,,,,,,,,,,,,,,
6643bc4b7c72a9f1bcb44c5d,TCR,2024-06-25_14h26.42.640,LearnStrategy,2023.2.3,Win32,15.01501502,,,,,,,,,,,2,11,6,5,,,,,,,,,,,,,,,,,,,,,,,,,,,,,
6643bc4b7c72a9f1bcb44c5d,TCR,2024-06-25_14h26.42.640,LearnStrategy,2023.2.3,Win32,15.01501502,,,,,,,,,,,5,11,6,6,,,,,,,,,,,,,,,,,,,,,,,,,,,,,
6643bc4b7c72a9f1bcb44c5d,TCR,2024-06-25_14h26.42.640,LearnStrategy,2023.2.3,Win32,15.01501502,,,,,,,,,,,7,10,6,7,,,,,,,,,,,,,,,,,,,,,,,,,,,,,
6643bc4b7c72a9f1bcb44c5d,TCR,2024-06-25_14h26.42.640,LearnStrategy,2023.2.3,Win32,15.01501502,,,,,,,,,,,5,06,6,8,,,,,,,,,,,,,,,,,,,,,,,,,,,,,