participant,condition,date,expName,psychopyVersion,OS,frameRate,block,phase,trial,learn_mouse_2.x,learn_mouse_2.y,learn_mouse_2.leftButton,learn_mouse_2.midButton,learn_mouse_2.rightButton,learn_mouse_2.time,learn_mouse_2.clicked_name,cat,token,row,col,t_select,cat_mouse_l.x,cat_mouse_l.y,cat_mouse_l.leftButton,cat_mouse_l.midButton,cat_mouse_l.rightButton,cat_mouse_l.time,cat_mouse_l.clicked_name,resp,t_resp,corr,train_trials.thisRepN,train_trials.thisTrialN,train_trials.thisN,train_trials.thisIndex,train_trials.ran,cat_mouse_t.x,cat_mouse_t.y,cat_mouse_t.leftButton,cat_mouse_t.midButton,cat_mouse_t.rightButton,cat_mouse_t.time,cat_mouse_t.clicked_name,test_trials.thisRepN,test_trials.thisTrialN,test_trials.thisN,test_trials.thisIndex,test_trials.ran,Bonus
664521606b8ee569d8076068,TCN,2024-06-11_12h10.46.281,LearnStrategy,2023.2.3,Linux armv81,120.4819277,,,,,,,,,,,,,,,,,,,,,,,,,,,,,,,,,,,,,,,,,,,
664521606b8ee569d8076068,TCN,2024-06-11_12h10.46.281,LearnStrategy,2023.2.3,Linux armv81,120.4819277,1,1,1,0.124133286,-0.001733724,1,0,0,3.113,rock_grid_rect_2,7,13,-1,-1,3.113,0.173370361,-0.256241437,1,0,0,1.8613,Diorite_rect,3,1.861,0,0,0,0,0,1,,,,,,,,,,,,,
664521606b8ee569d8076068,TCN,2024-06-11_12h10.46.281,LearnStrategy,2023.2.3,Linux armv81,120.4819277,1,1,2,-0.108876497,0.003120645,1,0,0,0.8928,rock_grid_rect_2,6,09,-1,-1,0.893,-0.113730866,-0.41643576,1,0,0,2.0944,Pegmatite_rect,6,2.094,1,1,0,1,0,1,,,,,,,,,,,,,
664521606b8ee569d8076068,TCN,2024-06-11_12h10.46.281,LearnStrategy,2023.2.3,Linux armv81,120.4819277,1,1,3,0.136615864,-0.006588093,1,0,0,1.2273,rock_grid_rect_2,1,03,-1,-1,1.227,0.438973658,-0.403259425,1,0,0,1.2268,Pumice_rect,8,1.227,0,2,0,2,0,1,,,,,,,,,,,,,
664521606b8ee569d8076068,TCN,2024-06-11_12h10.46.281,LearnStrategy,2023.2.3,Linux armv81,120.4819277,1,1,4,0.142857153,0.020457666,1,0,0,0.6391,rock_grid_rect_2,7,02,-1,-1,0.639,-0.389042993,-0.261789266,1,0,0,0.8317,Andesite_rect,1,0.832,0,3,0,3,0,1,,,,,,,,,,,,,
664521606b8ee569d8076068,TCN,2024-06-11_12h10.46.281,LearnStrategy,2023.2.3,Linux armv81,120.4819277,1,1,5,0.088765672,-0.001040264,1,0,0,1.3762,rock_grid_rect_2,5,09,-1,-1,1.376,-0.390429941,-0.412968163,1,0,0,0.8712,Obsidian_rect,5,0.871,1,4,0,4,0,1,,,,,,,,,,,,,
664521606b8ee569d8076068,TCN,2024-06-11_12h10.46.281,LearnStrategy,2023.2.3,Linux armv81,120.4819277,1,1,6,0.153952886,0.021151052,1,0,0,0.6387,rock_grid_rect_2,5,06,-1,-1,0.639,0.146324602,-0.238904342,1,0,0,1.5982,Diorite_rect,3,1.598,0,5,0,5,0,1,,,,,,,,,,,,,
664521606b8ee569d8076068,TCN,2024-06-11_12h10.46.281,LearnStrategy,2023.2.3,Linux armv81,120.4819277,1,1,7,0.025658876,-0.012829531,1,0,0,1.6732,rock_grid_rect_2,2,16,-1,-1,1.673,-0.169209378,-0.262482875,1,0,0,0.9275,Basalt_rect,2,0.927,1,6,0,6,0,1,,,,,,,,,,,,,
664521606b8ee569d8076068,TCN,2024-06-11_12h10.46.281,LearnStrategy,2023.2.3,Linux armv81,120.4819277,1,1,8,0.096393919,-0.016296831,1,0,0,0.9455,rock_grid_rect_2,2,12,-1,-1,0.945,0.375173402,-0.417822532,1,0,0,1.1412,Pumice_rect,8,1.141,0,7,0,7,0,1,,,,,,,,,,,,,
664521606b8ee569d8076068,TCN,2024-06-11_12h10.46.281,LearnStrategy,2023.2.3,Linux armv81,120.4819277,1,1,9,0.042302437,-0.023231654,1,0,0,1.087,rock_grid_rect_2,8,03,-1,-1,1.087,-0.147711485,-0.410887931,1,0,0,0.6347,Pegmatite_rect,6,0.635,0,8,0,8,0,1,,,,,,,,,,,,,
664521606b8ee569d8076068,TCN,2024-06-11_12h10.46.281,LearnStrategy,2023.2.3,Linux armv81,120.4819277,1,1,10,0.084604726,-0.001040264,1,0,0,0.5483,rock_grid_rect_2,3,11,-1,-1,0.548,-0.427877945,-0.266643635,1,0,0,0.523,Andesite_rect,1,0.523,0,9,0,9,0,1,,,,,,,,,,,,,
664521606b8ee569d8076068,TCN,2024-06-11_12h10.46.281,LearnStrategy,2023.2.3,Linux armv81,120.4819277,1,1,11,0.089459095,-0.021844808,1,0,0,0.7286,rock_grid_rect_2,6,13,-1,-1,0.729,0.131067961,-0.268724016,1,0,0,0.4067,Diorite_rect,3,0.407,0,10,0,10,0,1,,,,,,,,,,,,,
664521606b8ee569d8076068,TCN,2024-06-11_12h10.46.281,LearnStrategy,2023.2.3,Linux armv81,120.4819277,1,1,12,0.124826672,-0.023925115,1,0,0,0.4389,rock_grid_rect_2,1,02,-1,-1,0.439,0.151872505,-0.412274703,1,0,0,1.1722,Peridotite_rect,7,1.172,0,11,0,11,0,1,,,,,,,,,,,,,
664521606b8ee569d8076068,TCN,2024-06-11_12h10.46.281,LearnStrategy,2023.2.3,Linux armv81,120.4819277,1,1,13,0.162968237,-0.019764354,1,0,0,0.3996,rock_grid_rect_2,3,08,-1,-1,0.4,-0.17337025,-0.257628506,1,0,0,3.3594,Basalt_rect,2,3.359,0,12,0,12,0,1,,,,,,,,,,,,,
664521606b8ee569d8076068,TCN,2024-06-11_12h10.46.281,LearnStrategy,2023.2.3,Linux armv81,120.4819277,1,1,14,0.158113868,-0.016990439,1,0,0,0.3814,rock_grid_rect_2,4,14,-1,-1,0.381,0.427184614,-0.23821103,1,0,0,0.9783,Gabbro_rect,4,0.978,1,13,0,13,0,1,,,,,,,,,,,,,
664521606b8ee569d8076068,TCN,2024-06-11_12h10.46.281,LearnStrategy,2023.2.3,Linux armv81,120.4819277,1,1,15,0.165048544,0.001733576,1,0,0,0.4499,rock_grid_rect_2,8,14,-1,-1,0.45,0.163661623,-0.265256863,1,0,0,1.2893,Diorite_rect,3,1.289,0,14,0,14,0,1,,,,,,,,,,,,,
664521606b8ee569d8076068,TCN,2024-06-11_12h10.46.281,LearnStrategy,2023.2.3,Linux armv81,120.4819277,1,1,16,0.131067961,0.001733576,1,0,0,0.8204,rock_grid_rect_2,4,08,-1,-1,0.82,0.391816963,-0.418515992,1,0,0,0.981,Pumice_rect,8,0.981,0,15,0,15,0,1,,,,,,,,,,,,,
664521606b8ee569d8076068,TCN,2024-06-11_12h10.46.281,LearnStrategy,2023.2.3,Linux armv81,120.4819277,1,2,1,,,,,,,,7,05,,,,,,,,,,,7,2.046,1,,,,,,0.163661623,-0.402565965,1,0,0,2.0457,Peridotite_rect,0,0,0,0,1,
664521606b8ee569d8076068,TCN,2024-06-11_12h10.46.281,LearnStrategy,2023.2.3,Linux armv81,120.4819277,1,2,2,,,,,,,,4,10,,,,,,,,,,,1,1.563,0,,,,,,-0.428571419,-0.254160909,1,0,0,1.5635,Andesite_rect,1,0,1,0,1,
664521606b8ee569d8076068,TCN,2024-06-11_12h10.46.281,LearnStrategy,2023.2.3,Linux armv81,120.4819277,1,2,3,,,,,,,,6,07,,,,,,,,,,,2,1.033,0,,,,,,-0.151872394,-0.237517422,1,0,0,1.0329,Basalt_rect,2,0,2,0,1,
664521606b8ee569d8076068,TCN,2024-06-11_12h10.46.281,LearnStrategy,2023.2.3,Linux armv81,120.4819277,1,2,4,,,,,,,,2,10,,,,,,,,,,,8,1.484,0,,,,,,0.432038983,-0.389389779,1,0,0,1.4839,Pumice_rect,3,0,3,0,1,
664521606b8ee569d8076068,TCN,2024-06-11_12h10.46.281,LearnStrategy,2023.2.3,Linux armv81,120.4819277,1,2,5,,,,,,,,1,07,,,,,,,,,,,4,0.844,0,,,,,,0.426491006,-0.256934897,1,0,0,0.844,Gabbro_rect,4,0,4,0,1,
664521606b8ee569d8076068,TCN,2024-06-11_12h10.46.281,LearnStrategy,2023.2.3,Linux armv81,120.4819277,1,2,6,,,,,,,,5,07,,,,,,,,,,,5,2.834,1,,,,,,-0.386962548,-0.406727022,1,0,0,2.8337,Obsidian_rect,5,0,5,0,1,
664521606b8ee569d8076068,TCN,2024-06-11_12h10.46.281,LearnStrategy,2023.2.3,Linux armv81,120.4819277,1,2,7,,,,,,,,7,12,,,,,,,,,,,7,0.999,1,,,,,,0.144937608,-0.412968163,1,0,0,0.999,Peridotite_rect,6,0,6,0,1,
664521606b8ee569d8076068,TCN,2024-06-11_12h10.46.281,LearnStrategy,2023.2.3,Linux armv81,120.4819277,1,2,8,,,,,,,,3,07,,,,,,,,,,,2,1.991,0,,,,,,-0.141470159,-0.24861308,1,0,0,1.9908,Basalt_rect,7,0,7,0,1,
664521606b8ee569d8076068,TCN,2024-06-11_12h10.46.281,LearnStrategy,2023.2.3,Linux armv81,120.4819277,1,2,9,,,,,,,,4,13,,,,,,,,,,,3,0.437,0,,,,,,0.151872505,-0.235436893,1,0,0,0.4372,Diorite_rect,8,0,8,0,1,
664521606b8ee569d8076068,TCN,2024-06-11_12h10.46.281,LearnStrategy,2023.2.3,Linux armv81,120.4819277,1,2,10,,,,,,,,5,16,,,,,,,,,,,8,0.38,0,,,,,,0.420943177,-0.392163916,1,0,0,0.3803,Pumice_rect,9,0,9,0,1,
664521606b8ee569d8076068,TCN,2024-06-11_12h10.46.281,LearnStrategy,2023.2.3,Linux armv81,120.4819277,1,2,11,,,,,,,,8,06,,,,,,,,,,,1,0.737,0,,,,,,-0.406380024,-0.265950175,1,0,0,0.7373,Andesite_rect,10,0,10,0,1,
664521606b8ee569d8076068,TCN,2024-06-11_12h10.46.281,LearnStrategy,2023.2.3,Linux armv81,120.4819277,1,2,12,,,,,,,,6,16,,,,,,,,,,,4,0.617,0,,,,,,0.377253856,-0.263869647,1,0,0,0.6172,Gabbro_rect,11,0,11,0,1,
664521606b8ee569d8076068,TCN,2024-06-11_12h10.46.281,LearnStrategy,2023.2.3,Linux armv81,120.4819277,1,2,13,,,,,,,,1,16,,,,,,,,,,,6,0.287,0,,,,,,-0.188626854,-0.418515992,1,0,0,0.2869,Pegmatite_rect,12,0,12,0,1,
664521606b8ee569d8076068,TCN,2024-06-11_12h10.46.281,LearnStrategy,2023.2.3,Linux armv81,120.4819277,1,2,14,,,,,,,,2,04,,,,,,,,,,,7,0.723,0,,,,,,0.187240082,-0.388696319,1,0,0,0.7232,Peridotite_rect,13,0,13,0,1,
664521606b8ee569d8076068,TCN,2024-06-11_12h10.46.281,LearnStrategy,2023.2.3,Linux armv81,120.4819277,1,2,15,,,,,,,,8,10,,,,,,,,,,,5,0.4,0,,,,,,-0.412621359,-0.410194175,1,0,0,0.4001,Obsidian_rect,14,0,14,0,1,
664521606b8ee569d8076068,TCN,2024-06-11_12h10.46.281,LearnStrategy,2023.2.3,Linux armv81,120.4819277,1,2,16,,,,,,,,3,06,,,,,,,,,,,8,1.77,0,,,,,,0.389043123,-0.403952886,1,0,0,1.77,Pumice_rect,15,0,15,0,1,
664521606b8ee569d8076068,TCN,2024-06-11_12h10.46.281,LearnStrategy,2023.2.3,Linux armv81,120.4819277,2,1,1,0.209431398,0.02323158,1,0,0,2.1575,rock_grid_rect_2,8,02,-1,-1,2.157,0.142857153,-0.240985019,1,0,0,0.732,Diorite_rect,3,0.732,0,0,0,0,0,1,,,,,,,,,,,,,
664521606b8ee569d8076068,TCN,2024-06-11_12h10.46.281,LearnStrategy,2023.2.3,Linux armv81,120.4819277,2,1,2,0.17891819,-0.001040264,1,0,0,0.8531,rock_grid_rect_2,4,16,-1,-1,0.853,0.407767138,-0.235436893,1,0,0,2.878,Gabbro_rect,4,2.878,1,1,0,1,0,1,,,,,,,,,,,,,
664521606b8ee569d8076068,TCN,2024-06-11_12h10.46.281,LearnStrategy,2023.2.3,Linux armv81,120.4819277,2,1,3,0.158807255,-0.003814179,1,0,0,1.0449,rock_grid_rect_2,2,06,-1,-1,1.045,-0.404993048,-0.264563107,1,0,0,0.5597,Andesite_rect,1,0.56,0,2,0,2,0,1,,,,,,,,,,,,,
664521606b8ee569d8076068,TCN,2024-06-11_12h10.46.281,LearnStrategy,2023.2.3,Linux armv81,120.4819277,2,1,4,0.125520132,-0.007281702,1,0,0,0.9695,rock_grid_rect_2,6,08,-1,-1,0.97,-0.169209378,-0.397711596,1,0,0,0.4882,Pegmatite_rect,6,0.488,1,3,0,3,0,1,,,,,,,,,,,,,
664521606b8ee569d8076068,TCN,2024-06-11_12h10.46.281,LearnStrategy,2023.2.3,Linux armv81,120.4819277,2,1,5,0.118585309,-0.004507639,1,0,0,0.7545,rock_grid_rect_2,6,12,-1,-1,0.755,0.182385713,-0.412274703,1,0,0,0.4696,Peridotite_rect,7,0.47,0,4,0,4,0,1,,,,,,,,,,,,,
664521606b8ee569d8076068,TCN,2024-06-11_12h10.46.281,LearnStrategy,2023.2.3,Linux armv81,120.4819277,2,1,6,0.126907126,-0.002427333,1,0,0,0.9719,rock_grid_rect_2,1,01,-1,-1,0.972,0.387656054,-0.379681041,1,0,0,1.6819,Pumice_rect,8,1.682,0,5,0,5,0,1,,,,,,,,,,,,,
664521606b8ee569d8076068,TCN,2024-06-11_12h10.46.281,LearnStrategy,2023.2.3,Linux armv81,120.4819277,2,1,7,0.118585309,-0.015603371,1,0,0,1.8674,rock_grid_rect_2,5,11,-1,-1,1.867,-0.436199721,-0.413661623,1,0,0,2.5299,Obsidian_rect,5,2.53,1,6,0,6,0,1,,,,,,,,,,,,,
664521606b8ee569d8076068,TCN,2024-06-11_12h10.46.281,LearnStrategy,2023.2.3,Linux armv81,120.4819277,2,1,8,0.128294047,-0.01213607,1,0,0,0.5949,rock_grid_rect_2,4,12,-1,-1,0.595,0.419556183,-0.400485437,1,0,0,21.8318,Pumice_rect,8,21.832,0,7,0,7,0,1,,,,,,,,,,,,,
664521606b8ee569d8076068,TCN,2024-06-11_12h10.46.281,LearnStrategy,2023.2.3,Linux armv81,120.4819277,2,1,9,-0.148404982,-0.02045774,1,0,0,4.1108,rock_grid_rect_2,3,12,-1,-1,4.111,-0.142857079,-0.258321818,1,0,0,1.0142,Basalt_rect,2,1.014,0,8,0,8,0,1,,,,,,,,,,,,,
664521606b8ee569d8076068,TCN,2024-06-11_12h10.46.281,LearnStrategy,2023.2.3,Linux armv81,120.4819277,2,1,10,-0.13661579,0.017683751,1,0,0,0.5531,rock_grid_rect_2,3,14,-1,-1,0.553,-0.35991678,-0.402565965,1,0,0,3.4997,Obsidian_rect,5,3.5,0,9,0,9,0,1,,,,,,,,,,,,,
664521606b8ee569d8076068,TCN,2024-06-11_12h10.46.281,LearnStrategy,2023.2.3,Linux armv81,120.4819277,2,1,11,0.141470233,-0.007281702,1,0,0,0.4986,rock_grid_rect_2,8,08,-1,-1,0.499,0.160887709,-0.409500715,1,0,0,0.9128,Peridotite_rect,7,0.913,0,10,0,10,0,1,,,,,,,,,,,,,
664521606b8ee569d8076068,TCN,2024-06-11_12h10.46.281,LearnStrategy,2023.2.3,Linux armv81,120.4819277,2,1,12,0.099861367,-0.005894633,1,0,0,0.9198,rock_grid_rect_2,2,08,-1,-1,0.92,-0.423023576,-0.261789266,1,0,0,0.4337,Andesite_rect,1,0.434,0,11,0,11,0,1,,,,,,,,,,,,,
664521606b8ee569d8076068,TCN,2024-06-11_12h10.46.281,LearnStrategy,2023.2.3,Linux armv81,120.4819277,2,1,13,0.064493827,-0.006588093,1,0,0,0.5784,rock_grid_rect_2,1,06,-1,-1,0.578,0.38488214,-0.419902913,1,0,0,1.5644,Pumice_rect,8,1.564,0,12,0,12,0,1,,,,,,,,,,,,,
664521606b8ee569d8076068,TCN,2024-06-11_12h10.46.281,LearnStrategy,2023.2.3,Linux armv81,120.4819277,2,1,14,0.099167833,-0.015603371,1,0,0,0.9691,rock_grid_rect_2,5,02,-1,-1,0.969,-0.398058252,-0.406727022,1,0,0,1.3683,Obsidian_rect,5,1.368,1,13,0,13,0,1,,,,,,,,,,,,,
664521606b8ee569d8076068,TCN,2024-06-11_12h10.46.281,LearnStrategy,2023.2.3,Linux armv81,120.4819277,2,1,15,0.121359223,0.005201099,1,0,0,1.5332,rock_grid_rect_2,7,04,-1,-1,1.533,0.180998719,-0.394937608,1,0,0,0.8114,Peridotite_rect,7,0.811,1,14,0,14,0,1,,,,,,,,,,,,,
664521606b8ee569d8076068,TCN,2024-06-11_12h10.46.281,LearnStrategy,2023.2.3,Linux armv81,120.4819277,2,1,16,0.142163767,-0.013522917,1,0,0,0.8419,rock_grid_rect_2,7,08,-1,-1,0.842,0.171289981,-0.254160909,1,0,0,0.8328,Diorite_rect,3,0.833,0,15,0,15,0,1,,,,,,,,,,,,,
664521606b8ee569d8076068,TCN,2024-06-11_12h10.46.281,LearnStrategy,2023.2.3,Linux armv81,120.4819277,2,2,1,,,,,,,,7,10,,,,,,,,,,,7,2.514,1,,,,,,0.144244148,-0.403259425,1,0,0,2.5139,Peridotite_rect,0,0,0,0,1,
664521606b8ee569d8076068,TCN,2024-06-11_12h10.46.281,LearnStrategy,2023.2.3,Linux armv81,120.4819277,2,2,2,,,,,,,,3,09,,,,,,,,,,,2,2.374,0,,,,,,-0.158807143,-0.254854369,1,0,0,2.3744,Basalt_rect,1,0,1,0,1,
664521606b8ee569d8076068,TCN,2024-06-11_12h10.46.281,LearnStrategy,2023.2.3,Linux armv81,120.4819277,2,2,3,,,,,,,,8,13,,,,,,,,,,,3,0.579,0,,,,,,0.20596395,-0.242371791,1,0,0,0.5794,Diorite_rect,2,0,2,0,1,
664521606b8ee569d8076068,TCN,2024-06-11_12h10.46.281,LearnStrategy,2023.2.3,Linux armv81,120.4819277,2,2,4,,,,,,,,4,11,,,,,,,,,,,1,1.254,0,,,,,,-0.409153948,-0.254854369,1,0,0,1.2536,Andesite_rect,3,0,3,0,1,
664521606b8ee569d8076068,TCN,2024-06-11_12h10.46.281,LearnStrategy,2023.2.3,Linux armv81,120.4819277,2,2,5,,,,,,,,2,01,,,,,,,,,,,8,0.812,0,,,,,,0.389043123,-0.408113794,1,0,0,0.812,Pumice_rect,4,0,4,0,1,
664521606b8ee569d8076068,TCN,2024-06-11_12h10.46.281,LearnStrategy,2023.2.3,Linux armv81,120.4819277,2,2,6,,,,,,,,6,03,,,,,,,,,,,5,0.503,0,,,,,,-0.419556155,-0.410887931,1,0,0,0.5031,Obsidian_rect,5,0,5,0,1,
664521606b8ee569d8076068,TCN,2024-06-11_12h10.46.281,LearnStrategy,2023.2.3,Linux armv81,120.4819277,2,2,7,,,,,,,,8,15,,,,,,,,,,,4,1.201,0,,,,,,0.393204032,-0.229195604,1,0,0,1.2007,Gabbro_rect,6,0,6,0,1,
664521606b8ee569d8076068,TCN,2024-06-11_12h10.46.281,LearnStrategy,2023.2.3,Linux armv81,120.4819277,2,2,8,,,,,,,,6,05,,,,,,,,,,,3,0.694,0,,,,,,0.15603334,-0.252774137,1,0,0,0.6944,Diorite_rect,7,0,7,0,1,
664521606b8ee569d8076068,TCN,2024-06-11_12h10.46.281,LearnStrategy,2023.2.3,Linux armv81,120.4819277,2,2,9,,,,,,,,1,14,,,,,,,,,,,6,0.716,0,,,,,,-0.143550614,-0.411581391,1,0,0,0.716,Pegmatite_rect,8,0,8,0,1,
664521606b8ee569d8076068,TCN,2024-06-11_12h10.46.281,LearnStrategy,2023.2.3,Linux armv81,120.4819277,2,2,10,,,,,,,,5,10,,,,,,,,,,,2,0.62,0,,,,,,-0.093619967,-0.23821103,1,0,0,0.6201,Basalt_rect,9,0,9,0,1,
664521606b8ee569d8076068,TCN,2024-06-11_12h10.46.281,LearnStrategy,2023.2.3,Linux armv81,120.4819277,2,2,11,,,,,,,,2,14,,,,,,,,,,,5,0.669,0,,,,,,-0.420943121,-0.411581391,1,0,0,0.6686,Obsidian_rect,10,0,10,0,1,
664521606b8ee569d8076068,TCN,2024-06-11_12h10.46.281,LearnStrategy,2023.2.3,Linux armv81,120.4819277,2,2,12,,,,,,,,7,06,,,,,,,,,,,7,0.772,1,,,,,,0.190013923,-0.380374501,1,0,0,0.7716,Peridotite_rect,11,0,11,0,1,
664521606b8ee569d8076068,TCN,2024-06-11_12h10.46.281,LearnStrategy,2023.2.3,Linux armv81,120.4819277,2,2,13,,,,,,,,5,08,,,,,,,,,,,5,1.19,1,,,,,,-0.39528431,-0.410887931,1,0,0,1.1898,Obsidian_rect,12,0,12,0,1,
664521606b8ee569d8076068,TCN,2024-06-11_12h10.46.281,LearnStrategy,2023.2.3,Linux armv81,120.4819277,2,2,14,,,,,,,,3,15,,,,,,,,,,,3,22.172,1,,,,,,0.144937608,-0.263869647,1,0,0,22.1721,Diorite_rect,13,0,13,0,1,
664521606b8ee569d8076068,TCN,2024-06-11_12h10.46.281,LearnStrategy,2023.2.3,Linux armv81,120.4819277,2,2,15,,,,,,,,1,09,,,,,,,,,,,2,1.627,0,,,,,,-0.155339806,-0.256241437,1,0,0,1.6271,Basalt_rect,14,0,14,0,1,
664521606b8ee569d8076068,TCN,2024-06-11_12h10.46.281,LearnStrategy,2023.2.3,Linux armv81,120.4819277,2,2,16,,,,,,,,4,15,,,,,,,,,,,8,0.828,0,,,,,,0.390429969,-0.406727022,1,0,0,0.8282,Pumice_rect,15,0,15,0,1,
664521606b8ee569d8076068,TCN,2024-06-11_12h10.46.281,LearnStrategy,2023.2.3,Linux armv81,120.4819277,3,1,1,0.108183148,0.003814105,1,0,0,1.4315,rock_grid_rect_2,5,05,-1,-1,1.431,-0.404299579,-0.387309398,1,0,0,1.1229,Obsidian_rect,5,1.123,1,0,0,0,0,1,,,,,,,,,,,,,
664521606b8ee569d8076068,TCN,2024-06-11_12h10.46.281,LearnStrategy,2023.2.3,Linux armv81,120.4819277,3,1,2,0.171983367,0.006587945,1,0,0,3.9316,rock_grid_rect_2,4,09,-1,-1,3.932,-0.099167759,-0.400485437,1,0,0,0.9903,Pegmatite_rect,6,0.99,0,1,0,1,0,1,,,,,,,,,,,,,
664521606b8ee569d8076068,TCN,2024-06-11_12h10.46.281,LearnStrategy,2023.2.3,Linux armv81,120.4819277,3,1,3,0.13522887,-0.007975162,1,0,0,0.8956,rock_grid_rect_2,5,04,-1,-1,0.896,-0.397364755,-0.388696319,1,0,0,0.8912,Obsidian_rect,5,0.891,1,2,0,2,0,1,,,,,,,,,,,,,
664521606b8ee569d8076068,TCN,2024-06-11_12h10.46.281,LearnStrategy,2023.2.3,Linux armv81,120.4819277,3,1,4,0.153952886,0.00104019,1,0,0,9.9661,rock_grid_rect_2,2,11,-1,-1,9.966,0.191400843,-0.234049973,1,0,0,0.6986,Diorite_rect,3,0.699,0,3,0,3,0,1,,,,,,,,,,,,,
664521606b8ee569d8076068,TCN,2024-06-11_12h10.46.281,LearnStrategy,2023.2.3,Linux armv81,120.4819277,3,1,5,0.109570105,-0.002427333,1,0,0,8.363,rock_grid_rect_2,4,01,-1,-1,8.363,0.365464664,-0.388696319,1,0,0,0.9636,Pumice_rect,8,0.964,0,4,0,4,0,1,,,,,,,,,,,,,
664521606b8ee569d8076068,TCN,2024-06-11_12h10.46.281,LearnStrategy,2023.2.3,Linux armv81,120.4819277,3,1,6,0.105409233,-0.004507639,1,0,0,0.7214,rock_grid_rect_2,6,06,-1,-1,0.721,-0.405686545,-0.257628506,1,0,0,0.7349,Andesite_rect,1,0.735,0,5,0,5,0,1,,,,,,,,,,,,,
664521606b8ee569d8076068,TCN,2024-06-11_12h10.46.281,LearnStrategy,2023.2.3,Linux armv81,120.4819277,3,1,7,0.103328779,0.005894559,1,0,0,0.5092,rock_grid_rect_2,1,05,-1,-1,0.509,-0.16435501,-0.401179193,1,0,0,0.7779,Pegmatite_rect,6,0.778,0,6,0,6,0,1,,,,,,,,,,,,,
664521606b8ee569d8076068,TCN,2024-06-11_12h10.46.281,LearnStrategy,2023.2.3,Linux armv81,120.4819277,3,1,8,0.077669977,-0.005201247,1,0,0,0.5542,rock_grid_rect_2,1,11,-1,-1,0.554,0.162274629,-0.396324824,1,0,0,0.4183,Peridotite_rect,7,0.418,0,7,0,7,0,1,,,,,,,,,,,,,
664521606b8ee569d8076068,TCN,2024-06-11_12h10.46.281,LearnStrategy,2023.2.3,Linux armv81,120.4819277,3,1,9,0.138696393,-0.010749002,1,0,0,0.5705,rock_grid_rect_2,6,15,-1,-1,0.57,-0.064493753,-0.233356661,1,0,0,4.5768,Basalt_rect,2,4.577,0,8,0,8,0,1,,,,,,,,,,,,,
664521606b8ee569d8076068,TCN,2024-06-11_12h10.46.281,LearnStrategy,2023.2.3,Linux armv81,120.4819277,3,1,10,-0.13661579,-0.005201247,1,0,0,3.3453,rock_grid_rect_2,3,10,-1,-1,3.345,0.140776699,-0.231969593,1,0,0,0.7647,Diorite_rect,3,0.765,1,9,0,9,0,1,,,,,,,,,,,,,
664521606b8ee569d8076068,TCN,2024-06-11_12h10.46.281,LearnStrategy,2023.2.3,Linux armv81,120.4819277,3,1,11,0.151872505,0.00034673,1,0,0,4.3924,rock_grid_rect_2,2,05,-1,-1,4.392,0.146324602,-0.411581391,1,0,0,1.1582,Peridotite_rect,7,1.158,0,10,0,10,0,1,,,,,,,,,,,,,
664521606b8ee569d8076068,TCN,2024-06-11_12h10.46.281,LearnStrategy,2023.2.3,Linux armv81,120.4819277,3,1,12,0.115811394,-0.018377286,1,0,0,0.8455,rock_grid_rect_2,8,16,-1,-1,0.845,0.366158124,-0.413661623,1,0,0,1.8404,Pumice_rect,8,1.84,1,11,0,11,0,1,,,,,,,,,,,,,
664521606b8ee569d8076068,TCN,2024-06-11_12h10.46.281,LearnStrategy,2023.2.3,Linux armv81,120.4819277,3,1,13,0.167128998,-0.005201247,1,0,0,0.6119,rock_grid_rect_2,8,09,-1,-1,0.612,0.418169336,-0.245839387,1,0,0,0.8565,Gabbro_rect,4,0.857,0,12,0,12,0,1,,,,,,,,,,,,,
664521606b8ee569d8076068,TCN,2024-06-11_12h10.46.281,LearnStrategy,2023.2.3,Linux armv81,120.4819277,3,1,14,0.122746292,-0.014909985,1,0,0,0.9036,rock_grid_rect_2,7,16,-1,-1,0.904,0.126907126,-0.256934897,1,0,0,1.2585,Diorite_rect,3,1.258,0,13,0,13,0,1,,,,,,,,,,,,,
664521606b8ee569d8076068,TCN,2024-06-11_12h10.46.281,LearnStrategy,2023.2.3,Linux armv81,120.4819277,3,1,15,0.141470233,0.012829382,1,0,0,0.5434,rock_grid_rect_2,7,15,-1,-1,0.543,-0.385575572,-0.408113794,1,0,0,0.7322,Obsidian_rect,5,0.732,0,14,0,14,0,1,,,,,,,,,,,,,
664521606b8ee569d8076068,TCN,2024-06-11_12h10.46.281,LearnStrategy,2023.2.3,Linux armv81,120.4819277,3,1,16,0.083911303,-0.010055616,1,0,0,0.646,rock_grid_rect_2,3,02,-1,-1,0.646,0.11997234,-0.391470455,1,0,0,0.8466,Peridotite_rect,7,0.847,0,15,0,15,0,1,,,,,,,,,,,,,
664521606b8ee569d8076068,TCN,2024-06-11_12h10.46.281,LearnStrategy,2023.2.3,Linux armv81,120.4819277,3,2,1,,,,,,,,5,14,,,,,,,,,,,5,1.881,1,,,,,,-0.407073493,-0.410887931,1,0,0,1.8813,Obsidian_rect,0,0,0,0,1,
664521606b8ee569d8076068,TCN,2024-06-11_12h10.46.281,LearnStrategy,2023.2.3,Linux armv81,120.4819277,3,2,2,,,,,,,,1,10,,,,,,,,,,,7,1.184,0,,,,,,0.155339806,-0.397018284,1,0,0,1.1836,Peridotite_rect,1,0,1,0,1,
664521606b8ee569d8076068,TCN,2024-06-11_12h10.46.281,LearnStrategy,2023.2.3,Linux armv81,120.4819277,3,2,3,,,,,,,,2,09,,,,,,,,,,,8,1.334,0,,,,,,0.36338421,-0.406727022,1,0,0,1.334,Pumice_rect,2,0,2,0,1,
664521606b8ee569d8076068,TCN,2024-06-11_12h10.46.281,LearnStrategy,2023.2.3,Linux armv81,120.4819277,3,2,4,,,,,,,,8,05,,,,,,,,,,,2,0.9,0,,,,,,-0.160194175,-0.229195604,1,0,0,0.9001,Basalt_rect,3,0,3,0,1,
664521606b8ee569d8076068,TCN,2024-06-11_12h10.46.281,LearnStrategy,2023.2.3,Linux armv81,120.4819277,3,2,5,,,,,,,,4,05,,,,,,,,,,,6,1.671,0,,,,,,-0.146324528,-0.399791977,1,0,0,1.6709,Pegmatite_rect,4,0,4,0,1,
664521606b8ee569d8076068,TCN,2024-06-11_12h10.46.281,LearnStrategy,2023.2.3,Linux armv81,120.4819277,3,2,6,,,,,,,,2,02,,,,,,,,,,,4,1.483,0,,,,,,0.371706102,-0.262482875,1,0,0,1.4827,Gabbro_rect,5,0,5,0,1,
664521606b8ee569d8076068,TCN,2024-06-11_12h10.46.281,LearnStrategy,2023.2.3,Linux armv81,120.4819277,3,2,7,,,,,,,,3,13,,,,,,,,,,,3,0.927,1,,,,,,0.158113868,-0.238904342,1,0,0,0.9267,Diorite_rect,6,0,6,0,1,
664521606b8ee569d8076068,TCN,2024-06-11_12h10.46.281,LearnStrategy,2023.2.3,Linux armv81,120.4819277,3,2,8,,,,,,,,6,11,,,,,,,,,,,7,0.792,0,,,,,,0.171983367,-0.395631068,1,0,0,0.7921,Peridotite_rect,7,0,7,0,1,
664521606b8ee569d8076068,TCN,2024-06-11_12h10.46.281,LearnStrategy,2023.2.3,Linux armv81,120.4819277,3,2,9,,,,,,,,5,12,,,,,,,,,,,5,1.546,1,,,,,,-0.402219124,-0.388696319,1,0,0,1.5462,Obsidian_rect,8,0,8,0,1,
664521606b8ee569d8076068,TCN,2024-06-11_12h10.46.281,LearnStrategy,2023.2.3,Linux armv81,120.4819277,3,2,10,,,,,,,,1,04,,,,,,,,,,,8,0.912,0,,,,,,0.416088808,-0.417129072,1,0,0,0.9123,Pumice_rect,9,0,9,0,1,
664521606b8ee569d8076068,TCN,2024-06-11_12h10.46.281,LearnStrategy,2023.2.3,Linux armv81,120.4819277,3,2,11,,,,,,,,7,07,,,,,,,,,,,7,0.614,1,,,,,,0.168515992,-0.412968163,1,0,0,0.614,Peridotite_rect,10,0,10,0,1,
664521606b8ee569d8076068,TCN,2024-06-11_12h10.46.281,LearnStrategy,2023.2.3,Linux armv81,120.4819277,3,2,12,,,,,,,,3,16,,,,,,,,,,,2,5.972,0,,,,,,-0.090152555,-0.252774137,1,0,0,5.9722,Basalt_rect,11,0,11,0,1,
664521606b8ee569d8076068,TCN,2024-06-11_12h10.46.281,LearnStrategy,2023.2.3,Linux armv81,120.4819277,3,2,13,,,,,,,,7,14,,,,,,,,,,,3,0.981,0,,,,,,0.177531344,-0.252774137,1,0,0,0.9807,Diorite_rect,12,0,12,0,1,
664521606b8ee569d8076068,TCN,2024-06-11_12h10.46.281,LearnStrategy,2023.2.3,Linux armv81,120.4819277,3,2,14,,,,,,,,4,03,,,,,,,,,,,7,1.674,0,,,,,,0.163661623,-0.393550688,1,0,0,1.6736,Peridotite_rect,13,0,13,0,1,
664521606b8ee569d8076068,TCN,2024-06-11_12h10.46.281,LearnStrategy,2023.2.3,Linux armv81,120.4819277,3,2,15,,,,,,,,8,04,,,,,,,,,,,4,1.703,0,,,,,,0.415395422,-0.239597802,1,0,0,1.7034,Gabbro_rect,14,0,14,0,1,
664521606b8ee569d8076068,TCN,2024-06-11_12h10.46.281,LearnStrategy,2023.2.3,Linux armv81,120.4819277,3,2,16,,,,,,,,6,10,,,,,,,,,,,1,1.887,0,,,,,,-0.37725381,-0.265950175,1,0,0,1.8874,Andesite_rect,15,0,15,0,1,
664521606b8ee569d8076068,TCN,2024-06-11_12h10.46.281,LearnStrategy,2023.2.3,Linux armv81,120.4819277,4,1,1,0.13453541,-0.019764354,1,0,0,0.6667,rock_grid_rect_2,6,09,-1,-1,0.667,-0.189320388,-0.264563107,1,0,0,1.0955,Basalt_rect,2,1.095,0,0,0,0,0,1,,,,,,,,,,,,,
664521606b8ee569d8076068,TCN,2024-06-11_12h10.46.281,LearnStrategy,2023.2.3,Linux armv81,120.4819277,4,1,2,0.072122074,-0.0176839,1,0,0,1.9719,rock_grid_rect_2,3,14,-1,-1,1.972,0.176837736,-0.24930654,1,0,0,0.6428,Diorite_rect,3,0.643,1,1,0,1,0,1,,,,,,,,,,,,,
664521606b8ee569d8076068,TCN,2024-06-11_12h10.46.281,LearnStrategy,2023.2.3,Linux armv81,120.4819277,4,1,3,0.13522887,-0.02045774,1,0,0,0.6039,rock_grid_rect_2,2,06,-1,-1,0.604,0.171289981,-0.392163916,1,0,0,0.6887,Peridotite_rect,7,0.689,0,2,0,2,0,1,,,,,,,,,,,,,
664521606b8ee569d8076068,TCN,2024-06-11_12h10.46.281,LearnStrategy,2023.2.3,Linux armv81,120.4819277,4,1,4,0.145631068,-0.0176839,1,0,0,0.5109,rock_grid_rect_2,4,09,-1,-1,0.511,-0.160194175,-0.401179193,1,0,0,0.6469,Pegmatite_rect,6,0.647,0,3,0,3,0,1,,,,,,,,,,,,,
664521606b8ee569d8076068,TCN,2024-06-11_12h10.46.281,LearnStrategy,2023.2.3,Linux armv81,120.4819277,4,1,5,0.099861367,-0.003120793,1,0,0,0.5767,rock_grid_rect_2,7,13,-1,-1,0.577,0.162274629,-0.263869647,1,0,0,0.4349,Diorite_rect,3,0.435,0,4,0,4,0,1,,,,,,,,,,,,,
664521606b8ee569d8076068,TCN,2024-06-11_12h10.46.281,LearnStrategy,2023.2.3,Linux armv81,120.4819277,4,1,6,0.176837736,0.007281405,1,0,0,1.3435,rock_grid_rect_2,6,06,-1,-1,1.344,0.381414839,-0.245839387,1,0,0,0.6606,Gabbro_rect,4,0.661,0,5,0,5,0,1,,,,,,,,,,,,,
664521606b8ee569d8076068,TCN,2024-06-11_12h10.46.281,LearnStrategy,2023.2.3,Linux armv81,120.4819277,4,1,7,0.09847441,-0.005894633,1,0,0,0.4735,rock_grid_rect_2,8,08,-1,-1,0.474,0.375173402,-0.397018284,1,0,0,0.8851,Pumice_rect,8,0.885,1,6,0,6,0,1,,,,,,,,,,,,,
664521606b8ee569d8076068,TCN,2024-06-11_12h10.46.281,LearnStrategy,2023.2.3,Linux armv81,120.4819277,4,1,8,0.148405131,-0.01213607,1,0,0,0.4549,rock_grid_rect_2,4,08,-1,-1,0.455,-0.156033266,-0.23613065,1,0,0,1.8424,Basalt_rect,2,1.842,0,7,0,7,0,1,,,,,,,,,,,,,
664521606b8ee569d8076068,TCN,2024-06-11_12h10.46.281,LearnStrategy,2023.2.3,Linux armv81,120.4819277,4,1,9,0.195561826,0.010748928,1,0,0,1.2519,rock_grid_rect_2,7,02,-1,-1,1.252,-0.167822458,-0.418515992,1,0,0,1.8543,Pegmatite_rect,6,1.854,0,8,0,8,0,1,,,,,,,,,,,,,
664521606b8ee569d8076068,TCN,2024-06-11_12h10.46.281,LearnStrategy,2023.2.3,Linux armv81,120.4819277,4,1,10,0.082524346,-0.005894633,1,0,0,48.9741,rock_grid_rect_2,8,02,-1,-1,48.974,0.128294047,-0.268030556,1,0,0,0.6693,Diorite_rect,3,0.669,0,9,0,9,0,1,,,,,,,,,,,,,
664521606b8ee569d8076068,TCN,2024-06-11_12h10.46.281,LearnStrategy,2023.2.3,Linux armv81,120.4819277,4,1,11,0.086685181,-0.007975162,1,0,0,0.638,rock_grid_rect_2,3,10,-1,-1,0.638,0.130374501,-0.397711596,1,0,0,1.4129,Peridotite_rect,7,1.413,0,10,0,10,0,1,,,,,,,,,,,,,
664521606b8ee569d8076068,TCN,2024-06-11_12h10.46.281,LearnStrategy,2023.2.3,Linux armv81,120.4819277,4,1,12,0.086685181,0.015603297,1,0,0,0.7119,rock_grid_rect_2,1,01,-1,-1,0.712,0.410541053,-0.388002859,1,0,0,0.582,Pumice_rect,8,0.582,0,11,0,11,0,1,,,,,,,,,,,,,
664521606b8ee569d8076068,TCN,2024-06-11_12h10.46.281,LearnStrategy,2023.2.3,Linux armv81,120.4819277,4,1,13,0.115117971,-0.0211512,1,0,0,0.5418,rock_grid_rect_2,2,08,-1,-1,0.542,-0.09431339,-0.231969593,1,0,0,0.5437,Basalt_rect,2,0.544,1,12,0,12,0,1,,,,,,,,,,,,,
664521606b8ee569d8076068,TCN,2024-06-11_12h10.46.281,LearnStrategy,2023.2.3,Linux armv81,120.4819277,4,1,14,-0.149791903,-0.015603371,1,0,0,15.6381,rock_grid_rect_2,5,02,-1,-1,15.638,-0.415395283,-0.410194175,1,0,0,4.6741,Obsidian_rect,5,4.674,1,13,0,13,0,1,,,,,,,,,,,,,
664521606b8ee569d8076068,TCN,2024-06-11_12h10.46.281,LearnStrategy,2023.2.3,Linux armv81,120.4819277,4,1,15,0.127600661,0.007975014,1,0,0,1.2534,rock_grid_rect_2,5,09,-1,-1,1.253,-0.325242718,-0.412274703,1,0,0,1.8192,Obsidian_rect,5,1.819,1,14,0,14,0,1,,,,,,,,,,,,,
664521606b8ee569d8076068,TCN,2024-06-11_12h10.46.281,LearnStrategy,2023.2.3,Linux armv81,120.4819277,4,1,16,0.207350944,-0.0211512,1,0,0,0.6786,rock_grid_rect_2,1,05,-1,-1,0.679,0.181692105,-0.241678331,1,0,0,1.0648,Diorite_rect,3,1.065,0,15,0,15,0,1,,,,,,,,,,,,,
664521606b8ee569d8076068,TCN,2024-06-11_12h10.46.281,LearnStrategy,2023.2.3,Linux armv81,120.4819277,4,2,1,,,,,,,,4,05,,,,,,,,,,,7,3.417,0,,,,,,0.147711522,-0.406033562,1,0,0,3.4168,Peridotite_rect,0,0,0,0,1,
664521606b8ee569d8076068,TCN,2024-06-11_12h10.46.281,LearnStrategy,2023.2.3,Linux armv81,120.4819277,4,2,2,,,,,,,,3,09,,,,,,,,,,,8,3.847,0,,,,,,0.404993076,-0.399791977,1,0,0,3.8472,Pumice_rect,1,0,1,0,1,
664521606b8ee569d8076068,TCN,2024-06-11_12h10.46.281,LearnStrategy,2023.2.3,Linux armv81,120.4819277,4,2,3,,,,,,,,6,07,,,,,,,,,,,1,2.436,0,,,,,,-0.383495127,-0.262482875,1,0,0,2.4361,Andesite_rect,2,0,2,0,1,
664521606b8ee569d8076068,TCN,2024-06-11_12h10.46.281,LearnStrategy,2023.2.3,Linux armv81,120.4819277,4,2,4,,,,,,,,8,06,,,,,,,,,,,2,0.954,0,,,,,,-0.085298186,-0.239597802,1,0,0,0.9542,Basalt_rect,3,0,3,0,1,
664521606b8ee569d8076068,TCN,2024-06-11_12h10.46.281,LearnStrategy,2023.2.3,Linux armv81,120.4819277,4,2,5,,,,,,,,1,10,,,,,,,,,,,3,1.005,0,,,,,,0.145631068,-0.256241437,1,0,0,1.0046,Diorite_rect,4,0,4,0,1,
664521606b8ee569d8076068,TCN,2024-06-11_12h10.46.281,LearnStrategy,2023.2.3,Linux armv81,120.4819277,4,2,6,,,,,,,,2,14,,,,,,,,,,,2,38.748,1,,,,,,-0.147711485,-0.239597802,1,0,0,38.7484,Basalt_rect,5,0,5,0,1,
664521606b8ee569d8076068,TCN,2024-06-11_12h10.46.281,LearnStrategy,2023.2.3,Linux armv81,120.4819277,4,2,7,,,,,,,,6,03,,,,,,,,,,,1,1.107,0,,,,,,-0.434119271,-0.251387068,1,0,0,1.1072,Andesite_rect,6,0,6,0,1,
664521606b8ee569d8076068,TCN,2024-06-11_12h10.46.281,LearnStrategy,2023.2.3,Linux armv81,120.4819277,4,2,8,,,,,,,,8,04,,,,,,,,,,,7,0.957,0,,,,,,0.163661623,-0.4157423,1,0,0,0.9568,Peridotite_rect,7,0,7,0,1,
664521606b8ee569d8076068,TCN,2024-06-11_12h10.46.281,LearnStrategy,2023.2.3,Linux armv81,120.4819277,4,2,9,,,,,,,,5,07,,,,,,,,,,,5,2.263,1,,,,,,-0.348821066,-0.397711596,1,0,0,2.2627,Obsidian_rect,8,0,8,0,1,
664521606b8ee569d8076068,TCN,2024-06-11_12h10.46.281,LearnStrategy,2023.2.3,Linux armv81,120.4819277,4,2,10,,,,,,,,3,06,,,,,,,,,,,3,0.957,1,,,,,,0.142857153,-0.231969593,1,0,0,0.9567,Diorite_rect,9,0,9,0,1,
664521606b8ee569d8076068,TCN,2024-06-11_12h10.46.281,LearnStrategy,2023.2.3,Linux armv81,120.4819277,4,2,11,,,,,,,,7,05,,,,,,,,,,,8,1.295,0,,,,,,0.436199744,-0.389389779,1,0,0,1.2946,Pumice_rect,10,0,10,0,1,
664521606b8ee569d8076068,TCN,2024-06-11_12h10.46.281,LearnStrategy,2023.2.3,Linux armv81,120.4819277,4,2,12,,,,,,,,1,09,,,,,,,,,,,2,0.523,0,,,,,,-0.133841876,-0.24722616,1,0,0,0.5229,Basalt_rect,11,0,11,0,1,
664521606b8ee569d8076068,TCN,2024-06-11_12h10.46.281,LearnStrategy,2023.2.3,Linux armv81,120.4819277,4,2,13,,,,,,,,2,09,,,,,,,,,,,7,0.623,0,,,,,,0.160194175,-0.417129072,1,0,0,0.623,Peridotite_rect,12,0,12,0,1,
664521606b8ee569d8076068,TCN,2024-06-11_12h10.46.281,LearnStrategy,2023.2.3,Linux armv81,120.4819277,4,2,14,,,,,,,,5,08,,,,,,,,,,,5,3.559,1,,,,,,-0.401525655,-0.399098517,1,0,0,3.5589,Obsidian_rect,13,0,13,0,1,
664521606b8ee569d8076068,TCN,2024-06-11_12h10.46.281,LearnStrategy,2023.2.3,Linux armv81,120.4819277,4,2,15,,,,,,,,7,12,,,,,,,,,,,8,0.916,0,,,,,,0.417475876,-0.408113794,1,0,0,0.9158,Pumice_rect,14,0,14,0,1,
664521606b8ee569d8076068,TCN,2024-06-11_12h10.46.281,LearnStrategy,2023.2.3,Linux armv81,120.4819277,4,2,16,,,,,,,,4,10,,,,,,,,,,,4,0.9,1,,,,,,0.419556183,-0.237517422,1,0,0,0.9002,Gabbro_rect,15,0,15,0,1,
664521606b8ee569d8076068,TCN,2024-06-11_12h10.46.281,LearnStrategy,2023.2.3,Linux armv81,120.4819277,5,1,1,0.120665763,-0.009362008,1,0,0,14.0239,rock_grid_rect_2,4,16,-1,-1,14.024,0.147711522,-0.246532699,1,0,0,0.9056,Diorite_rect,3,0.906,0,0,0,0,0,1,,,,,,,,,,,,,
664521606b8ee569d8076068,TCN,2024-06-11_12h10.46.281,LearnStrategy,2023.2.3,Linux armv81,120.4819277,5,1,2,0.189320388,-0.012829531,1,0,0,1.373,rock_grid_rect_2,5,11,-1,-1,1.373,-0.43897364,-0.403259425,1,0,0,0.8166,Obsidian_rect,5,0.817,1,1,0,1,0,1,,,,,,,,,,,,,
664521606b8ee569d8076068,TCN,2024-06-11_12h10.46.281,LearnStrategy,2023.2.3,Linux armv81,120.4819277,5,1,3,0.122052757,-0.016990439,1,0,0,0.4295,rock_grid_rect_2,4,12,-1,-1,0.429,0.409153985,-0.403259425,1,0,0,0.9173,Pumice_rect,8,0.917,0,2,0,2,0,1,,,,,,,,,,,,,
664521606b8ee569d8076068,TCN,2024-06-11_12h10.46.281,LearnStrategy,2023.2.3,Linux armv81,120.4819277,5,1,4,0.121359223,-0.011442462,1,0,0,0.8037,rock_grid_rect_2,7,15,-1,-1,0.804,-0.133148342,-0.257628506,1,0,0,1.0976,Basalt_rect,2,1.098,0,3,0,3,0,1,,,,,,,,,,,,,
664521606b8ee569d8076068,TCN,2024-06-11_12h10.46.281,LearnStrategy,2023.2.3,Linux armv81,120.4819277,5,1,5,-0.168515881,-0.019764354,1,0,0,4.1929,rock_grid_rect_2,7,04,-1,-1,4.193,0.148405131,-0.381067961,1,0,0,1.4306,Peridotite_rect,7,1.431,1,4,0,4,0,1,,,,,,,,,,,,,
664521606b8ee569d8076068,TCN,2024-06-11_12h10.46.281,LearnStrategy,2023.2.3,Linux armv81,120.4819277,5,1,6,0.147711522,-0.024618723,1,0,0,0.5293,rock_grid_rect_2,8,09,-1,-1,0.529,-0.168515881,-0.256241437,1,0,0,2.173,Basalt_rect,2,2.173,0,5,0,5,0,1,,,,,,,,,,,,,
664521606b8ee569d8076068,TCN,2024-06-11_12h10.46.281,LearnStrategy,2023.2.3,Linux armv81,120.4819277,5,1,7,0.163661623,-0.007975162,1,0,0,0.4855,rock_grid_rect_2,1,06,-1,-1,0.486,0.154646346,-0.228502292,1,0,0,0.827,Diorite_rect,3,0.827,0,6,0,6,0,1,,,,,,,,,,,,,
664521606b8ee569d8076068,TCN,2024-06-11_12h10.46.281,LearnStrategy,2023.2.3,Linux armv81,120.4819277,5,1,8,0.146324602,-0.010749002,1,0,0,0.4469,rock_grid_rect_2,3,02,-1,-1,0.447,-0.394590841,-0.247919768,1,0,0,0.9394,Andesite_rect,1,0.939,0,7,0,7,0,1,,,,,,,,,,,,,
664521606b8ee569d8076068,TCN,2024-06-11_12h10.46.281,LearnStrategy,2023.2.3,Linux armv81,120.4819277,5,1,9,0.141470233,0.006587945,1,0,0,0.7867,rock_grid_rect_2,1,03,-1,-1,0.787,0.400138707,-0.259708738,1,0,0,0.6976,Gabbro_rect,4,0.698,0,8,0,8,0,1,,,,,,,,,,,,,
664521606b8ee569d8076068,TCN,2024-06-11_12h10.46.281,LearnStrategy,2023.2.3,Linux armv81,120.4819277,5,1,10,-0.180305111,-0.016990439,1,0,0,1.7338,rock_grid_rect_2,2,16,-1,-1,1.734,0.140776699,-0.410887931,1,0,0,0.9201,Peridotite_rect,7,0.92,0,9,0,9,0,1,,,,,,,,,,,,,
664521606b8ee569d8076068,TCN,2024-06-11_12h10.46.281,LearnStrategy,2023.2.3,Linux armv81,120.4819277,5,1,11,0.122052757,-0.012829531,1,0,0,0.837,rock_grid_rect_2,8,03,-1,-1,0.837,0.160194175,-0.392857228,1,0,0,12.0247,Peridotite_rect,7,12.025,0,10,0,10,0,1,,,,,,,,,,,,,
664521606b8ee569d8076068,TCN,2024-06-11_12h10.46.281,LearnStrategy,2023.2.3,Linux armv81,120.4819277,5,1,12,0.124826672,-0.003814179,1,0,0,1.219,rock_grid_rect_2,6,13,-1,-1,1.219,0.371706102,-0.395631068,1,0,0,0.9043,Pumice_rect,8,0.904,0,11,0,11,0,1,,,,,,,,,,,,,
664521606b8ee569d8076068,TCN,2024-06-11_12h10.46.281,LearnStrategy,2023.2.3,Linux armv81,120.4819277,5,1,13,0.130374501,-0.011442462,1,0,0,0.5433,rock_grid_rect_2,2,11,-1,-1,0.543,-0.176144239,-0.261789266,1,0,0,7.7252,Basalt_rect,2,7.725,1,12,0,12,0,1,,,,,,,,,,,,,
664521606b8ee569d8076068,TCN,2024-06-11_12h10.46.281,LearnStrategy,2023.2.3,Linux armv81,120.4819277,5,1,14,-0.144244037,-0.010055616,1,0,0,0.6005,rock_grid_rect_2,3,11,-1,-1,0.601,0.201803189,-0.255548125,1,0,0,1.2703,Diorite_rect,3,1.27,1,13,0,13,0,1,,,,,,,,,,,,,
664521606b8ee569d8076068,TCN,2024-06-11_12h10.46.281,LearnStrategy,2023.2.3,Linux armv81,120.4819277,5,1,15,0.129681041,0.015603297,1,0,0,0.8448,rock_grid_rect_2,6,15,-1,-1,0.845,-0.352981966,-0.411581391,1,0,0,1.1116,Obsidian_rect,5,1.112,0,14,0,14,0,1,,,,,,,,,,,,,
664521606b8ee569d8076068,TCN,2024-06-11_12h10.46.281,LearnStrategy,2023.2.3,Linux armv81,120.4819277,5,1,16,0.124133286,0.024618575,1,0,0,8.7191,rock_grid_rect_2,5,05,-1,-1,8.719,-0.13800271,-0.271498004,1,0,0,0.9746,Basalt_rect,2,0.975,0,15,0,15,0,1,,,,,,,,,,,,,
664521606b8ee569d8076068,TCN,2024-06-11_12h10.46.281,LearnStrategy,2023.2.3,Linux armv81,120.4819277,5,2,1,,,,,,,,6,16,,,,,,,,,,,8,0.719,0,,,,,,0.40638007,-0.410887931,1,0,0,0.7189,Pumice_rect,0,0,0,0,1,
664521606b8ee569d8076068,TCN,2024-06-11_12h10.46.281,LearnStrategy,2023.2.3,Linux armv81,120.4819277,5,2,2,,,,,,,,6,05,,,,,,,,,,,2,0.568,0,,,,,,-0.156726763,-0.255548125,1,0,0,0.568,Basalt_rect,1,0,1,0,1,
664521606b8ee569d8076068,TCN,2024-06-11_12h10.46.281,LearnStrategy,2023.2.3,Linux armv81,120.4819277,5,2,3,,,,,,,,4,11,,,,,,,,,,,3,1.789,0,,,,,,0.185159554,-0.234743433,1,0,0,1.7889,Diorite_rect,2,0,2,0,1,
664521606b8ee569d8076068,TCN,2024-06-11_12h10.46.281,LearnStrategy,2023.2.3,Linux armv81,120.4819277,5,2,4,,,,,,,,3,16,,,,,,,,,,,6,0.404,0,,,,,,-0.177531196,-0.405339806,1,0,0,0.4044,Pegmatite_rect,3,0,3,0,1,
664521606b8ee569d8076068,TCN,2024-06-11_12h10.46.281,LearnStrategy,2023.2.3,Linux armv81,120.4819277,5,2,5,,,,,,,,5,16,,,,,,,,,,,1,0.41,0,,,,,,-0.419556155,-0.263869647,1,0,0,0.4099,Andesite_rect,4,0,4,0,1,
664521606b8ee569d8076068,TCN,2024-06-11_12h10.46.281,LearnStrategy,2023.2.3,Linux armv81,120.4819277,5,2,6,,,,,,,,7,06,,,,,,,,,,,7,0.585,1,,,,,,0.211511927,-0.390776699,1,0,0,0.5853,Peridotite_rect,5,0,5,0,1,
664521606b8ee569d8076068,TCN,2024-06-11_12h10.46.281,LearnStrategy,2023.2.3,Linux armv81,120.4819277,5,2,7,,,,,,,,2,01,,,,,,,,,,,4,0.586,0,,,,,,0.391816963,-0.259015278,1,0,0,0.5861,Gabbro_rect,6,0,6,0,1,
664521606b8ee569d8076068,TCN,2024-06-11_12h10.46.281,LearnStrategy,2023.2.3,Linux armv81,120.4819277,5,2,8,,,,,,,,5,14,,,,,,,,,,,5,1.335,1,,,,,,-0.412621359,-0.412274703,1,0,0,1.3346,Obsidian_rect,7,0,7,0,1,
664521606b8ee569d8076068,TCN,2024-06-11_12h10.46.281,LearnStrategy,2023.2.3,Linux armv81,120.4819277,5,2,9,,,,,,,,3,15,,,,,,,,,,,2,0.77,0,,,,,,-0.172676827,-0.253467449,1,0,0,0.7699,Basalt_rect,8,0,8,0,1,
664521606b8ee569d8076068,TCN,2024-06-11_12h10.46.281,LearnStrategy,2023.2.3,Linux armv81,120.4819277,5,2,10,,,,,,,,1,07,,,,,,,,,,,7,0.991,0,,,,,,0.161581243,-0.417129072,1,0,0,0.9914,Peridotite_rect,9,0,9,0,1,
664521606b8ee569d8076068,TCN,2024-06-11_12h10.46.281,LearnStrategy,2023.2.3,Linux armv81,120.4819277,5,2,11,,,,,,,,7,14,,,,,,,,,,,8,0.951,0,,,,,,0.404993076,-0.395631068,1,0,0,0.951,Pumice_rect,10,0,10,0,1,
664521606b8ee569d8076068,TCN,2024-06-11_12h10.46.281,LearnStrategy,2023.2.3,Linux armv81,120.4819277,5,2,12,,,,,,,,4,03,,,,,,,,,,,4,0.473,1,,,,,,0.395977946,-0.242371791,1,0,0,0.4729,Gabbro_rect,11,0,11,0,1,
664521606b8ee569d8076068,TCN,2024-06-11_12h10.46.281,LearnStrategy,2023.2.3,Linux armv81,120.4819277,5,2,13,,,,,,,,8,05,,,,,,,,,,,6,0.724,0,,,,,,-0.174757282,-0.395631068,1,0,0,0.7241,Pegmatite_rect,12,0,12,0,1,
664521606b8ee569d8076068,TCN,2024-06-11_12h10.46.281,LearnStrategy,2023.2.3,Linux armv81,120.4819277,5,2,14,,,,,,,,1,14,,,,,,,,,,,7,0.798,0,,,,,,0.175450816,-0.395631068,1,0,0,0.7985,Peridotite_rect,13,0,13,0,1,
664521606b8ee569d8076068,TCN,2024-06-11_12h10.46.281,LearnStrategy,2023.2.3,Linux armv81,120.4819277,5,2,15,,,,,,,,8,15,,,,,,,,,,,3,0.596,0,,,,,,0.165742078,-0.228502292,1,0,0,0.5957,Diorite_rect,14,0,14,0,1,
664521606b8ee569d8076068,TCN,2024-06-11_12h10.46.281,LearnStrategy,2023.2.3,Linux armv81,120.4819277,5,2,16,,,,,,,,2,10,,,,,,,,,,,5,1.277,0,,,,,,-0.404993048,-0.389389779,1,0,0,1.2773,Obsidian_rect,15,0,15,0,1,
664521606b8ee569d8076068,TCN,2024-06-11_12h10.46.281,LearnStrategy,2023.2.3,Linux armv81,120.4819277,6,1,1,0.122052757,-0.010749002,1,0,0,0.5976,rock_grid_rect_2,4,14,-1,-1,0.598,0.109570105,-0.247919768,1,0,0,1.0926,Diorite_rect,3,1.093,0,0,0,0,0,1,,,,,,,,,,,,,
664521606b8ee569d8076068,TCN,2024-06-11_12h10.46.281,LearnStrategy,2023.2.3,Linux armv81,120.4819277,6,1,2,0.080443892,-0.014909985,1,0,0,0.8628,rock_grid_rect_2,5,06,-1,-1,0.863,-0.429264902,-0.410194175,1,0,0,0.7589,Obsidian_rect,5,0.759,1,1,0,1,0,1,,,,,,,,,,,,,
664521606b8ee569d8076068,TCN,2024-06-11_12h10.46.281,LearnStrategy,2023.2.3,Linux armv81,120.4819277,6,1,3,0.142857153,-0.0176839,1,0,0,0.8286,rock_grid_rect_2,6,08,-1,-1,0.829,-0.417475728,-0.261095806,1,0,0,3.3885,Andesite_rect,1,3.389,0,2,0,2,0,1,,,,,,,,,,,,,
664521606b8ee569d8076068,TCN,2024-06-11_12h10.46.281,LearnStrategy,2023.2.3,Linux armv81,120.4819277,6,1,4,0.088765672,-0.001040264,1,0,0,1.2848,rock_grid_rect_2,6,12,-1,-1,1.285,0.162968237,-0.392163916,1,0,0,0.6188,Peridotite_rect,7,0.619,0,3,0,3,0,1,,,,,,,,,,,,,
664521606b8ee569d8076068,TCN,2024-06-11_12h10.46.281,LearnStrategy,2023.2.3,Linux armv81,120.4819277,6,1,5,0.088765672,0.006587945,1,0,0,0.4857,rock_grid_rect_2,7,16,-1,-1,0.486,-0.153952774,-0.25,1,0,0,1.3166,Basalt_rect,2,1.317,0,4,0,4,0,1,,,,,,,,,,,,,
664521606b8ee569d8076068,TCN,2024-06-11_12h10.46.281,LearnStrategy,2023.2.3,Linux armv81,120.4819277,6,1,6,0.137309398,-0.024618723,1,0,0,0.4474,rock_grid_rect_2,7,08,-1,-1,0.447,-0.174757282,-0.401872653,1,0,0,0.8651,Pegmatite_rect,6,0.865,0,5,0,5,0,1,,,,,,,,,,,,,
664521606b8ee569d8076068,TCN,2024-06-11_12h10.46.281,LearnStrategy,2023.2.3,Linux armv81,120.4819277,6,1,7,0.155339806,0.02253812,1,0,0,1.4475,rock_grid_rect_2,1,11,-1,-1,1.447,0.147018136,-0.245145631,1,0,0,0.4429,Diorite_rect,3,0.443,0,6,0,6,0,1,,,,,,,,,,,,,
664521606b8ee569d8076068,TCN,2024-06-11_12h10.46.281,LearnStrategy,2023.2.3,Linux armv81,120.4819277,6,1,8,0.190707457,-0.003120793,1,0,0,0.5275,rock_grid_rect_2,4,01,-1,-1,0.528,0.373092948,-0.243065399,1,0,0,0.4273,Gabbro_rect,4,0.427,1,7,0,7,0,1,,,,,,,,,,,,,
664521606b8ee569d8076068,TCN,2024-06-11_12h10.46.281,LearnStrategy,2023.2.3,Linux armv81,120.4819277,6,1,9,0.205270564,0.00104019,1,0,0,0.4709,rock_grid_rect_2,8,16,-1,-1,0.471,0.359916909,-0.417129072,1,0,0,1.3822,Pumice_rect,8,1.382,1,8,0,8,0,1,,,,,,,,,,,,,
664521606b8ee569d8076068,TCN,2024-06-11_12h10.46.281,LearnStrategy,2023.2.3,Linux armv81,120.4819277,6,1,10,0.125520132,-0.016990439,1,0,0,0.4809,rock_grid_rect_2,3,08,-1,-1,0.481,0.160887709,-0.419209453,1,0,0,1.8397,Peridotite_rect,7,1.84,0,9,0,9,0,1,,,,,,,,,,,,,
664521606b8ee569d8076068,TCN,2024-06-11_12h10.46.281,LearnStrategy,2023.2.3,Linux armv81,120.4819277,6,1,11,0.162968237,-0.018377286,1,0,0,1.2179,rock_grid_rect_2,8,14,-1,-1,1.218,0.384188754,-0.397018284,1,0,0,1.4646,Pumice_rect,8,1.465,1,10,0,10,0,1,,,,,,,,,,,,,
664521606b8ee569d8076068,TCN,2024-06-11_12h10.46.281,LearnStrategy,2023.2.3,Linux armv81,120.4819277,6,1,12,0.147018136,-0.004507639,1,0,0,0.5711,rock_grid_rect_2,1,02,-1,-1,0.571,0.151178971,-0.252774137,1,0,0,1.1867,Diorite_rect,3,1.187,0,11,0,11,0,1,,,,,,,,,,,,,
664521606b8ee569d8076068,TCN,2024-06-11_12h10.46.281,LearnStrategy,2023.2.3,Linux armv81,120.4819277,6,1,13,0.165048544,-0.024618723,1,0,0,0.5191,rock_grid_rect_2,2,05,-1,-1,0.519,-0.144244037,-0.412274703,1,0,0,1.3342,Pegmatite_rect,6,1.334,0,12,0,12,0,1,,,,,,,,,,,,,
664521606b8ee569d8076068,TCN,2024-06-11_12h10.46.281,LearnStrategy,2023.2.3,Linux armv81,120.4819277,6,1,14,0.167822606,0.010748928,1,0,0,0.5805,rock_grid_rect_2,3,12,-1,-1,0.581,-0.411927871,-0.25,1,0,0,0.6063,Andesite_rect,1,0.606,0,13,0,13,0,1,,,,,,,,,,,,,
664521606b8ee569d8076068,TCN,2024-06-11_12h10.46.281,LearnStrategy,2023.2.3,Linux armv81,120.4819277,6,1,15,0.161581243,-0.003814179,1,0,0,1.0359,rock_grid_rect_2,2,12,-1,-1,1.036,-0.165048544,-0.246532699,1,0,0,0.4675,Basalt_rect,2,0.467,1,14,0,14,0,1,,,,,,,,,,,,,
664521606b8ee569d8076068,TCN,2024-06-11_12h10.46.281,LearnStrategy,2023.2.3,Linux armv81,120.4819277,6,1,16,0.15742026,0.011442314,1,0,0,0.5202,rock_grid_rect_2,5,04,-1,-1,0.52,-0.44729542,-0.403259425,1,0,0,0.9404,Obsidian_rect,5,0.94,1,15,0,15,0,1,,,,,,,,,,,,,
664521606b8ee569d8076068,TCN,2024-06-11_12h10.46.281,LearnStrategy,2023.2.3,Linux armv81,120.4819277,6,2,1,,,,,,,,5,12,,,,,,,,,,,5,1.98,1,,,,,,-0.438280166,-0.407420334,1,0,0,1.98,Obsidian_rect,0,0,0,0,1,
664521606b8ee569d8076068,TCN,2024-06-11_12h10.46.281,LearnStrategy,2023.2.3,Linux armv81,120.4819277,6,2,2,,,,,,,,8,13,,,,,,,,,,,7,30.405,0,,,,,,0.1532595,-0.398405057,1,0,0,30.4051,Peridotite_rect,1,0,1,0,1,
664521606b8ee569d8076068,TCN,2024-06-11_12h10.46.281,LearnStrategy,2023.2.3,Linux armv81,120.4819277,6,2,3,,,,,,,,4,13,,,,,,,,,,,1,0.986,0,,,,,,-0.414008316,-0.260402494,1,0,0,0.9865,Andesite_rect,2,0,2,0,1,
664521606b8ee569d8076068,TCN,2024-06-11_12h10.46.281,LearnStrategy,2023.2.3,Linux armv81,120.4819277,6,2,4,,,,,,,,7,07,,,,,,,,,,,8,0.759,0,,,,,,0.391816963,-0.399098517,1,0,0,0.7591,Pumice_rect,3,0,3,0,1,
664521606b8ee569d8076068,TCN,2024-06-11_12h10.46.281,LearnStrategy,2023.2.3,Linux armv81,120.4819277,6,2,5,,,,,,,,6,11,,,,,,,,,,,2,0.519,0,,,,,,-0.115811357,-0.260402494,1,0,0,0.5191,Basalt_rect,4,0,4,0,1,
664521606b8ee569d8076068,TCN,2024-06-11_12h10.46.281,LearnStrategy,2023.2.3,Linux armv81,120.4819277,6,2,6,,,,,,,,3,07,,,,,,,,,,,5,1.777,0,,,,,,-0.414008316,-0.399098517,1,0,0,1.7774,Obsidian_rect,5,0,5,0,1,
664521606b8ee569d8076068,TCN,2024-06-11_12h10.46.281,LearnStrategy,2023.2.3,Linux armv81,120.4819277,6,2,7,,,,,,,,4,15,,,,,,,,,,,3,0.437,0,,,,,,0.155339806,-0.243758711,1,0,0,0.4369,Diorite_rect,6,0,6,0,1,
664521606b8ee569d8076068,TCN,2024-06-11_12h10.46.281,LearnStrategy,2023.2.3,Linux armv81,120.4819277,6,2,8,,,,,,,,6,10,,,,,,,,,,,6,1.252,1,,,,,,-0.168515881,-0.396324824,1,0,0,1.2525,Pegmatite_rect,7,0,7,0,1,
664521606b8ee569d8076068,TCN,2024-06-11_12h10.46.281,LearnStrategy,2023.2.3,Linux armv81,120.4819277,6,2,9,,,,,,,,1,16,,,,,,,,,,,4,0.469,0,,,,,,0.404993076,-0.254160909,1,0,0,0.4691,Gabbro_rect,8,0,8,0,1,
664521606b8ee569d8076068,TCN,2024-06-11_12h10.46.281,LearnStrategy,2023.2.3,Linux armv81,120.4819277,6,2,10,,,,,,,,7,10,,,,,,,,,,,7,1.312,1,,,,,,0.192787837,-0.398405057,1,0,0,1.3119,Peridotite_rect,9,0,9,0,1,
664521606b8ee569d8076068,TCN,2024-06-11_12h10.46.281,LearnStrategy,2023.2.3,Linux armv81,120.4819277,6,2,11,,,,,,,,2,04,,,,,,,,,,,8,1.558,0,,,,,,0.380721231,-0.38245503,1,0,0,1.5578,Pumice_rect,10,0,10,0,1,
664521606b8ee569d8076068,TCN,2024-06-11_12h10.46.281,LearnStrategy,2023.2.3,Linux armv81,120.4819277,6,2,12,,,,,,,,8,10,,,,,,,,,,,8,0.941,1,,,,,,0.421636637,-0.380374501,1,0,0,0.9412,Pumice_rect,11,0,11,0,1,
664521606b8ee569d8076068,TCN,2024-06-11_12h10.46.281,LearnStrategy,2023.2.3,Linux armv81,120.4819277,6,2,13,,,,,,,,5,10,,,,,,,,,,,5,0.745,1,,,,,,-0.412621359,-0.401872653,1,0,0,0.7449,Obsidian_rect,12,0,12,0,1,
664521606b8ee569d8076068,TCN,2024-06-11_12h10.46.281,LearnStrategy,2023.2.3,Linux armv81,120.4819277,6,2,14,,,,,,,,3,13,,,,,,,,,,,2,1.254,0,,,,,,-0.110956988,-0.230582524,1,0,0,1.2544,Basalt_rect,13,0,13,0,1,
664521606b8ee569d8076068,TCN,2024-06-11_12h10.46.281,LearnStrategy,2023.2.3,Linux armv81,120.4819277,6,2,15,,,,,,,,1,04,,,,,,,,,,,7,2.53,0,,,,,,0.180305185,-0.389389779,1,0,0,2.5305,Peridotite_rect,14,0,14,0,1,
664521606b8ee569d8076068,TCN,2024-06-11_12h10.46.281,LearnStrategy,2023.2.3,Linux armv81,120.4819277,6,2,16,,,,,,,,2,02,,,,,,,,,,,6,0.567,0,,,,,,-0.089459021,-0.38453541,1,0,0,0.5669,Pegmatite_rect,15,0,15,0,1,
664521606b8ee569d8076068,TCN,2024-06-11_12h10.46.281,LearnStrategy,2023.2.3,Linux armv81,120.4819277,7,1,1,0.08529826,-0.0176839,1,0,0,1.2408,rock_grid_rect_2,8,14,-1,-1,1.241,0.152565891,-0.255548125,1,0,0,0.8603,Diorite_rect,3,0.86,0,0,0,0,0,1,,,,,,,,,,,,,
664521606b8ee569d8076068,TCN,2024-06-11_12h10.46.281,LearnStrategy,2023.2.3,Linux armv81,120.4819277,7,1,2,0.166435612,-0.013522917,1,0,0,0.9526,rock_grid_rect_2,2,05,-1,-1,0.953,0.404299616,-0.268724016,1,0,0,0.5973,Gabbro_rect,4,0.597,0,1,0,1,0,1,,,,,,,,,,,,,
664521606b8ee569d8076068,TCN,2024-06-11_12h10.46.281,LearnStrategy,2023.2.3,Linux armv81,120.4819277,7,1,3,0.161581243,0.007281405,1,0,0,0.4431,rock_grid_rect_2,6,09,-1,-1,0.443,-0.16435501,-0.256934897,1,0,0,0.9128,Basalt_rect,2,0.913,0,2,0,2,0,1,,,,,,,,,,,,,
664521606b8ee569d8076068,TCN,2024-06-11_12h10.46.281,LearnStrategy,2023.2.3,Linux armv81,120.4819277,7,1,4,0.11997234,-0.006588093,1,0,0,1.5632,rock_grid_rect_2,3,14,-1,-1,1.563,0.138696393,-0.38245503,1,0,0,1.5223,Peridotite_rect,7,1.522,0,3,0,3,0,1,,,,,,,,,,,,,
664521606b8ee569d8076068,TCN,2024-06-11_12h10.46.281,LearnStrategy,2023.2.3,Linux armv81,120.4819277,7,1,5,0.100554864,-0.010055616,1,0,0,0.6792,rock_grid_rect_2,4,08,-1,-1,0.679,-0.162274592,-0.392163916,1,0,0,0.8719,Pegmatite_rect,6,0.872,0,4,0,4,0,1,,,,,,,,,,,,,
664521606b8ee569d8076068,TCN,2024-06-11_12h10.46.281,LearnStrategy,2023.2.3,Linux armv81,120.4819277,7,1,6,0.148405131,-0.009362008,1,0,0,0.4718,rock_grid_rect_2,5,05,-1,-1,0.472,-0.432732314,-0.412274703,1,0,0,0.9162,Obsidian_rect,5,0.916,1,5,0,5,0,1,,,,,,,,,,,,,
664521606b8ee569d8076068,TCN,2024-06-11_12h10.46.281,LearnStrategy,2023.2.3,Linux armv81,120.4819277,7,1,7,0.139389779,-0.023925115,1,0,0,0.4533,rock_grid_rect_2,7,02,-1,-1,0.453,0.386962594,-0.401872653,1,0,0,1.0551,Pumice_rect,8,1.055,0,6,0,6,0,1,,,,,,,,,,,,,
664521606b8ee569d8076068,TCN,2024-06-11_12h10.46.281,LearnStrategy,2023.2.3,Linux armv81,120.4819277,7,1,8,0.133842024,-0.005201247,1,0,0,0.4469,rock_grid_rect_2,5,11,-1,-1,0.447,-0.40776699,-0.418515992,1,0,0,0.809,Obsidian_rect,5,0.809,1,7,0,7,0,1,,,,,,,,,,,,,
664521606b8ee569d8076068,TCN,2024-06-11_12h10.46.281,LearnStrategy,2023.2.3,Linux armv81,120.4819277,7,1,9,0.192787837,-0.014909985,1,0,0,0.5963,rock_grid_rect_2,3,12,-1,-1,0.596,-0.174063747,-0.259708738,1,0,0,0.9743,Basalt_rect,2,0.974,0,8,0,8,0,1,,,,,,,,,,,,,
664521606b8ee569d8076068,TCN,2024-06-11_12h10.46.281,LearnStrategy,2023.2.3,Linux armv81,120.4819277,7,1,10,0.122746292,-0.001733724,1,0,0,0.3959,rock_grid_rect_2,1,03,-1,-1,0.396,-0.158807143,-0.38453541,1,0,0,0.7571,Pegmatite_rect,6,0.757,0,9,0,9,0,1,,,,,,,,,,,,,
664521606b8ee569d8076068,TCN,2024-06-11_12h10.46.281,LearnStrategy,2023.2.3,Linux armv81,120.4819277,7,1,11,0.110957025,-0.001040264,1,0,0,1.45,rock_grid_rect_2,7,08,-1,-1,1.45,-0.42995839,-0.265950175,1,0,0,0.4252,Andesite_rect,1,0.425,0,10,0,10,0,1,,,,,,,,,,,,,
664521606b8ee569d8076068,TCN,2024-06-11_12h10.46.281,LearnStrategy,2023.2.3,Linux armv81,120.4819277,7,1,12,0.191400843,0.001733576,1,0,0,0.4039,rock_grid_rect_2,4,12,-1,-1,0.404,0.416088808,-0.228502292,1,0,0,1.1722,Gabbro_rect,4,1.172,1,11,0,11,0,1,,,,,,,,,,,,,
664521606b8ee569d8076068,TCN,2024-06-11_12h10.46.281,LearnStrategy,2023.2.3,Linux armv81,120.4819277,7,1,13,0.144244148,-0.019070746,1,0,0,0.4398,rock_grid_rect_2,6,08,-1,-1,0.44,0.160887709,-0.24861308,1,0,0,0.9564,Diorite_rect,3,0.956,0,12,0,12,0,1,,,,,,,,,,,,,
664521606b8ee569d8076068,TCN,2024-06-11_12h10.46.281,LearnStrategy,2023.2.3,Linux armv81,120.4819277,7,1,14,0.138002785,-0.005894633,1,0,0,0.4795,rock_grid_rect_2,2,11,-1,-1,0.48,0.127600661,-0.388002859,1,0,0,1.4179,Peridotite_rect,7,1.418,0,13,0,13,0,1,,,,,,,,,,,,,
664521606b8ee569d8076068,TCN,2024-06-11_12h10.46.281,LearnStrategy,2023.2.3,Linux armv81,120.4819277,7,1,15,0.136615864,-0.0176839,1,0,0,0.4088,rock_grid_rect_2,8,02,-1,-1,0.409,0.384188754,-0.394244148,1,0,0,1.322,Pumice_rect,8,1.322,1,14,0,14,0,1,,,,,,,,,,,,,
664521606b8ee569d8076068,TCN,2024-06-11_12h10.46.281,LearnStrategy,2023.2.3,Linux armv81,120.4819277,7,1,16,0.15603334,-0.005201247,1,0,0,1.3961,rock_grid_rect_2,1,06,-1,-1,1.396,-0.160887635,-0.262482875,1,0,0,1.3731,Basalt_rect,2,1.373,0,15,0,15,0,1,,,,,,,,,,,,,
664521606b8ee569d8076068,TCN,2024-06-11_12h10.46.281,LearnStrategy,2023.2.3,Linux armv81,120.4819277,7,2,1,,,,,,,,2,10,,,,,,,,,,,5,2.562,0,,,,,,-0.41678224,-0.392857228,1,0,0,2.5615,Obsidian_rect,0,0,0,0,1,
664521606b8ee569d8076068,TCN,2024-06-11_12h10.46.281,LearnStrategy,2023.2.3,Linux armv81,120.4819277,7,2,2,,,,,,,,1,04,,,,,,,,,,,7,0.988,0,,,,,,0.153952886,-0.400485437,1,0,0,0.9876,Peridotite_rect,1,0,1,0,1,
664521606b8ee569d8076068,TCN,2024-06-11_12h10.46.281,LearnStrategy,2023.2.3,Linux armv81,120.4819277,7,2,3,,,,,,,,3,06,,,,,,,,,,,1,0.39,0,,,,,,-0.402219124,-0.243758711,1,0,0,0.3904,Andesite_rect,2,0,2,0,1,
664521606b8ee569d8076068,TCN,2024-06-11_12h10.46.281,LearnStrategy,2023.2.3,Linux armv81,120.4819277,7,2,4,,,,,,,,8,05,,,,,,,,,,,4,0.735,0,,,,,,0.380027771,-0.231969593,1,0,0,0.7348,Gabbro_rect,3,0,3,0,1,
664521606b8ee569d8076068,TCN,2024-06-11_12h10.46.281,LearnStrategy,2023.2.3,Linux armv81,120.4819277,7,2,5,,,,,,,,4,03,,,,,,,,,,,8,1.25,0,,,,,,0.422330245,-0.38522887,1,0,0,1.25,Pumice_rect,4,0,4,0,1,
664521606b8ee569d8076068,TCN,2024-06-11_12h10.46.281,LearnStrategy,2023.2.3,Linux armv81,120.4819277,7,2,6,,,,,,,,3,16,,,,,,,,,,,3,1.104,1,,,,,,0.151872505,-0.256241437,1,0,0,1.1044,Diorite_rect,5,0,5,0,1,
664521606b8ee569d8076068,TCN,2024-06-11_12h10.46.281,LearnStrategy,2023.2.3,Linux armv81,120.4819277,7,2,7,,,,,,,,8,15,,,,,,,,,,,2,0.508,0,,,,,,-0.13592233,-0.240291262,1,0,0,0.5075,Basalt_rect,6,0,6,0,1,
664521606b8ee569d8076068,TCN,2024-06-11_12h10.46.281,LearnStrategy,2023.2.3,Linux armv81,120.4819277,7,2,8,,,,,,,,5,12,,,,,,,,,,,5,0.798,1,,,,,,-0.413314838,-0.419209453,1,0,0,0.7975,Obsidian_rect,7,0,7,0,1,
664521606b8ee569d8076068,TCN,2024-06-11_12h10.46.281,LearnStrategy,2023.2.3,Linux armv81,120.4819277,7,2,9,,,,,,,,6,05,,,,,,,,,,,6,1.008,1,,,,,,-0.167822458,-0.393550688,1,0,0,1.0081,Pegmatite_rect,8,0,8,0,1,
664521606b8ee569d8076068,TCN,2024-06-11_12h10.46.281,LearnStrategy,2023.2.3,Linux armv81,120.4819277,7,2,10,,,,,,,,7,12,,,,,,,,,,,7,0.546,1,,,,,,0.180998719,-0.413661623,1,0,0,0.5458,Peridotite_rect,9,0,9,0,1,
664521606b8ee569d8076068,TCN,2024-06-11_12h10.46.281,LearnStrategy,2023.2.3,Linux armv81,120.4819277,7,2,11,,,,,,,,5,08,,,,,,,,,,,5,1.763,1,,,,,,-0.400138679,-0.398405057,1,0,0,1.7632,Obsidian_rect,10,0,10,0,1,
664521606b8ee569d8076068,TCN,2024-06-11_12h10.46.281,LearnStrategy,2023.2.3,Linux armv81,120.4819277,7,2,12,,,,,,,,6,07,,,,,,,,,,,4,0.656,0,,,,,,0.371706102,-0.24930654,1,0,0,0.6564,Gabbro_rect,11,0,11,0,1,
664521606b8ee569d8076068,TCN,2024-06-11_12h10.46.281,LearnStrategy,2023.2.3,Linux armv81,120.4819277,7,2,13,,,,,,,,2,01,,,,,,,,,,,8,0.772,0,,,,,,0.372399488,-0.378987729,1,0,0,0.7724,Pumice_rect,12,0,12,0,1,
664521606b8ee569d8076068,TCN,2024-06-11_12h10.46.281,LearnStrategy,2023.2.3,Linux armv81,120.4819277,7,2,14,,,,,,,,4,13,,,,,,,,,,,1,0.904,0,,,,,,-0.432732314,-0.240291262,1,0,0,0.9037,Andesite_rect,13,0,13,0,1,
664521606b8ee569d8076068,TCN,2024-06-11_12h10.46.281,LearnStrategy,2023.2.3,Linux armv81,120.4819277,7,2,15,,,,,,,,1,07,,,,,,,,,,,2,0.663,0,,,,,,-0.124133138,-0.240291262,1,0,0,0.6625,Basalt_rect,14,0,14,0,1,
664521606b8ee569d8076068,TCN,2024-06-11_12h10.46.281,LearnStrategy,2023.2.3,Linux armv81,120.4819277,7,2,16,,,,,,,,7,14,,,,,,,,,,,7,0.88,1,,,,,,0.126213592,-0.394937608,1,0,0,0.8796,Peridotite_rect,15,0,15,0,1,
664521606b8ee569d8076068,TCN,2024-06-11_12h10.46.281,LearnStrategy,2023.2.3,Linux armv81,120.4819277,8,1,1,0.09153955,-0.001040264,1,0,0,2.5805,rock_grid_rect_2,5,04,-1,-1,2.581,-0.430651864,-0.412968163,1,0,0,0.8619,Obsidian_rect,5,0.862,1,0,0,0,0,1,,,,,,,,,,,,,
664521606b8ee569d8076068,TCN,2024-06-11_12h10.46.281,LearnStrategy,2023.2.3,Linux armv81,120.4819277,8,1,2,0.124826672,-0.02045774,1,0,0,0.4553,rock_grid_rect_2,1,05,-1,-1,0.455,-0.158807143,-0.259015278,1,0,0,1.0963,Basalt_rect,2,1.096,0,1,0,1,0,1,,,,,,,,,,,,,
664521606b8ee569d8076068,TCN,2024-06-11_12h10.46.281,LearnStrategy,2023.2.3,Linux armv81,120.4819277,8,1,3,0.106796191,-0.021844808,1,0,0,0.737,rock_grid_rect_2,8,03,-1,-1,0.737,0.390429969,-0.402565965,1,0,0,1.0713,Pumice_rect,8,1.071,1,2,0,2,0,1,,,,,,,,,,,,,
664521606b8ee569d8076068,TCN,2024-06-11_12h10.46.281,LearnStrategy,2023.2.3,Linux armv81,120.4819277,8,1,4,0.146324602,-0.005201247,1,0,0,0.4004,rock_grid_rect_2,2,16,-1,-1,0.4,0.146324602,-0.255548125,1,0,0,0.9235,Diorite_rect,3,0.923,0,3,0,3,0,1,,,,,,,,,,,,,
664521606b8ee569d8076068,TCN,2024-06-11_12h10.46.281,LearnStrategy,2023.2.3,Linux armv81,120.4819277,8,1,5,0.126907126,0.011442314,1,0,0,0.4064,rock_grid_rect_2,5,09,-1,-1,0.406,-0.412621359,-0.389389779,1,0,0,0.7231,Obsidian_rect,5,0.723,1,4,0,4,0,1,,,,,,,,,,,,,
664521606b8ee569d8076068,TCN,2024-06-11_12h10.46.281,LearnStrategy,2023.2.3,Linux armv81,120.4819277,8,1,6,0.139389779,0.011442314,1,0,0,0.4217,rock_grid_rect_2,2,08,-1,-1,0.422,0.162274629,-0.406727022,1,0,0,0.6717,Peridotite_rect,7,0.672,0,5,0,5,0,1,,,,,,,,,,,,,
664521606b8ee569d8076068,TCN,2024-06-11_12h10.46.281,LearnStrategy,2023.2.3,Linux armv81,120.4819277,8,1,7,0.077669977,-0.010749002,1,0,0,0.4738,rock_grid_rect_2,7,04,-1,-1,0.474,-0.151178897,-0.398405057,1,0,0,0.4339,Pegmatite_rect,6,0.434,0,6,0,6,0,1,,,,,,,,,,,,,
664521606b8ee569d8076068,TCN,2024-06-11_12h10.46.281,LearnStrategy,2023.2.3,Linux armv81,120.4819277,8,1,8,0.105409233,-0.003814179,1,0,0,0.9129,rock_grid_rect_2,3,11,-1,-1,0.913,0.398751861,-0.263869647,1,0,0,0.5111,Gabbro_rect,4,0.511,0,7,0,7,0,1,,,,,,,,,,,,,
664521606b8ee569d8076068,TCN,2024-06-11_12h10.46.281,LearnStrategy,2023.2.3,Linux armv81,120.4819277,8,1,9,0.103328779,-0.006588093,1,0,0,0.412,rock_grid_rect_2,7,16,-1,-1,0.412,-0.460471561,-0.245145631,1,0,0,1.6072,Andesite_rect,1,1.607,0,8,0,8,0,1,,,,,,,,,,,,,
664521606b8ee569d8076068,TCN,2024-06-11_12h10.46.281,LearnStrategy,2023.2.3,Linux armv81,120.4819277,8,1,10,0.131067961,-0.01213607,1,0,0,0.4343,rock_grid_rect_2,8,09,-1,-1,0.434,0.399445247,-0.415048544,1,0,0,0.6536,Pumice_rect,8,0.654,1,9,0,9,0,1,,,,,,,,,,,,,
664521606b8ee569d8076068,TCN,2024-06-11_12h10.46.281,LearnStrategy,2023.2.3,Linux armv81,120.4819277,8,1,11,0.13522887,-0.01213607,1,0,0,0.5068,rock_grid_rect_2,6,15,-1,-1,0.507,0.153952886,-0.411581391,1,0,0,0.9906,Peridotite_rect,7,0.991,0,10,0,10,0,1,,,,,,,,,,,,,
664521606b8ee569d8076068,TCN,2024-06-11_12h10.46.281,LearnStrategy,2023.2.3,Linux armv81,120.4819277,8,1,12,0.159500715,0.023924966,1,0,0,0.432,rock_grid_rect_2,4,14,-1,-1,0.432,0.189320388,-0.251387068,1,0,0,0.7171,Diorite_rect,3,0.717,0,11,0,11,0,1,,,,,,,,,,,,,
664521606b8ee569d8076068,TCN,2024-06-11_12h10.46.281,LearnStrategy,2023.2.3,Linux armv81,120.4819277,8,1,13,0.130374501,0.017683751,1,0,0,0.9444,rock_grid_rect_2,1,11,-1,-1,0.944,-0.128987507,-0.239597802,1,0,0,1.2862,Basalt_rect,2,1.286,0,12,0,12,0,1,,,,,,,,,,,,,
664521606b8ee569d8076068,TCN,2024-06-11_12h10.46.281,LearnStrategy,2023.2.3,Linux armv81,120.4819277,8,1,14,0.139389779,-0.007975162,1,0,0,0.4696,rock_grid_rect_2,4,09,-1,-1,0.47,-0.147711485,-0.397018284,1,0,0,0.4648,Pegmatite_rect,6,0.465,0,13,0,13,0,1,,,,,,,,,,,,,
664521606b8ee569d8076068,TCN,2024-06-11_12h10.46.281,LearnStrategy,2023.2.3,Linux armv81,120.4819277,8,1,15,0.1532595,-0.007281702,1,0,0,0.7968,rock_grid_rect_2,3,10,-1,-1,0.797,0.1532595,-0.378294121,1,0,0,0.429,Peridotite_rect,7,0.429,0,14,0,14,0,1,,,,,,,,,,,,,
664521606b8ee569d8076068,TCN,2024-06-11_12h10.46.281,LearnStrategy,2023.2.3,Linux armv81,120.4819277,8,1,16,0.162274629,0.00034673,1,0,0,0.4162,rock_grid_rect_2,6,12,-1,-1,0.416,0.40360623,-0.396324824,1,0,0,0.47,Pumice_rect,8,0.47,0,15,0,15,0,1,,,,,,,,,,,,,
664521606b8ee569d8076068,TCN,2024-06-11_12h10.46.281,LearnStrategy,2023.2.3,Linux armv81,120.4819277,8,2,1,,,,,,,,6,03,,,,,,,,,,,2,10.275,0,,,,,,-0.147018025,-0.234049973,1,0,0,10.275,Basalt_rect,0,0,0,0,1,
664521606b8ee569d8076068,TCN,2024-06-11_12h10.46.281,LearnStrategy,2023.2.3,Linux armv81,120.4819277,8,2,2,,,,,,,,2,09,,,,,,,,,,,7,1.97,0,,,,,,0.185853088,-0.402565965,1,0,0,1.9704,Peridotite_rect,1,0,1,0,1,
664521606b8ee569d8076068,TCN,2024-06-11_12h10.46.281,LearnStrategy,2023.2.3,Linux armv81,120.4819277,8,2,3,,,,,,,,6,16,,,,,,,,,,,5,1.447,0,,,,,,-0.382801648,-0.410887931,1,0,0,1.4473,Obsidian_rect,2,0,2,0,1,
664521606b8ee569d8076068,TCN,2024-06-11_12h10.46.281,LearnStrategy,2023.2.3,Linux armv81,120.4819277,8,2,4,,,,,,,,5,14,,,,,,,,,,,5,2.11,1,,,,,,-0.420249652,-0.389389779,1,0,0,2.1099,Obsidian_rect,3,0,3,0,1,
664521606b8ee569d8076068,TCN,2024-06-11_12h10.46.281,LearnStrategy,2023.2.3,Linux armv81,120.4819277,8,2,5,,,,,,,,4,15,,,,,,,,,,,5,15.226,0,,,,,,-0.420249652,-0.392163916,1,0,0,15.2261,Obsidian_rect,4,0,4,0,1,
664521606b8ee569d8076068,TCN,2024-06-11_12h10.46.281,LearnStrategy,2023.2.3,Linux armv81,120.4819277,8,2,6,,,,,,,,5,10,,,,,,,,,,,5,1.119,1,,,,,,-0.400832176,-0.381067961,1,0,0,1.1185,Obsidian_rect,5,0,5,0,1,
664521606b8ee569d8076068,TCN,2024-06-11_12h10.46.281,LearnStrategy,2023.2.3,Linux armv81,120.4819277,8,2,7,,,,,,,,8,10,,,,,,,,,,,7,19.923,0,,,,,,0.162968237,-0.403952886,1,0,0,19.9227,Peridotite_rect,6,0,6,0,1,
664521606b8ee569d8076068,TCN,2024-06-11_12h10.46.281,LearnStrategy,2023.2.3,Linux armv81,120.4819277,8,2,8,,,,,,,,4,11,,,,,,,,,,,4,1.378,1,,,,,,0.407767138,-0.252774137,1,0,0,1.3783,Gabbro_rect,7,0,7,0,1,
664521606b8ee569d8076068,TCN,2024-06-11_12h10.46.281,LearnStrategy,2023.2.3,Linux armv81,120.4819277,8,2,9,,,,,,,,7,07,,,,,,,,,,,6,1.288,0,,,,,,-0.100554716,-0.413661623,1,0,0,1.2875,Pegmatite_rect,8,0,8,0,1,
664521606b8ee569d8076068,TCN,2024-06-11_12h10.46.281,LearnStrategy,2023.2.3,Linux armv81,120.4819277,8,2,10,,,,,,,,1,10,,,,,,,,,,,2,1.238,0,,,,,,-0.110263454,-0.237517422,1,0,0,1.2384,Basalt_rect,9,0,9,0,1,
664521606b8ee569d8076068,TCN,2024-06-11_12h10.46.281,LearnStrategy,2023.2.3,Linux armv81,120.4819277,8,2,11,,,,,,,,7,05,,,,,,,,,,,7,0.907,1,,,,,,0.143550762,-0.408113794,1,0,0,0.907,Peridotite_rect,10,0,10,0,1,
664521606b8ee569d8076068,TCN,2024-06-11_12h10.46.281,LearnStrategy,2023.2.3,Linux armv81,120.4819277,8,2,12,,,,,,,,3,15,,,,,,,,,,,3,0.854,1,,,,,,0.15742026,-0.260402494,1,0,0,0.8539,Diorite_rect,11,0,11,0,1,
664521606b8ee569d8076068,TCN,2024-06-11_12h10.46.281,LearnStrategy,2023.2.3,Linux armv81,120.4819277,8,2,13,,,,,,,,1,16,,,,,,,,,,,7,2.323,0,,,,,,0.131761495,-0.400485437,1,0,0,2.3227,Peridotite_rect,12,0,12,0,1,
664521606b8ee569d8076068,TCN,2024-06-11_12h10.46.281,LearnStrategy,2023.2.3,Linux armv81,120.4819277,8,2,14,,,,,,,,8,13,,,,,,,,,,,8,0.934,1,,,,,,0.389043123,-0.394244148,1,0,0,0.9342,Pumice_rect,13,0,13,0,1,
664521606b8ee569d8076068,TCN,2024-06-11_12h10.46.281,LearnStrategy,2023.2.3,Linux armv81,120.4819277,8,2,15,,,,,,,,3,09,,,,,,,,,,,2,1.087,0,,,,,,-0.096393881,-0.255548125,1,0,0,1.0874,Basalt_rect,14,0,14,0,1,
664521606b8ee569d8076068,TCN,2024-06-11_12h10.46.281,LearnStrategy,2023.2.3,Linux armv81,120.4819277,8,2,16,,,,,,,,2,02,,,,,,,,,,,1,0.559,0,,,,,,-0.447988904,-0.240291262,1,0,0,0.5595,Andesite_rect,15,0,15,0,1,
664521606b8ee569d8076068,TCN,2024-06-11_12h10.46.281,LearnStrategy,2023.2.3,Linux armv81,120.4819277,9,1,1,0.151872505,0.016296683,1,0,0,3.7837,rock_grid_rect_2,5,02,-1,-1,3.784,-0.420249652,-0.401872653,1,0,0,1.4117,Obsidian_rect,5,1.412,1,0,0,0,0,1,,,,,,,,,,,,,
664521606b8ee569d8076068,TCN,2024-06-11_12h10.46.281,LearnStrategy,2023.2.3,Linux armv81,120.4819277,9,1,2,0.141470233,-0.0211512,1,0,0,1.6667,rock_grid_rect_2,5,06,-1,-1,1.667,-0.430651864,-0.408807255,1,0,0,0.7649,Obsidian_rect,5,0.765,1,1,0,1,0,1,,,,,,,,,,,,,
664521606b8ee569d8076068,TCN,2024-06-11_12h10.46.281,LearnStrategy,2023.2.3,Linux armv81,120.4819277,9,1,3,0.139389779,0.003814105,1,0,0,0.8443,rock_grid_rect_2,1,02,-1,-1,0.844,0.139389779,-0.405339806,1,0,0,1.2197,Peridotite_rect,7,1.22,0,2,0,2,0,1,,,,,,,,,,,,,
664521606b8ee569d8076068,TCN,2024-06-11_12h10.46.281,LearnStrategy,2023.2.3,Linux armv81,120.4819277,9,1,4,0.172676975,-0.001040264,1,0,0,0.555,rock_grid_rect_2,4,01,-1,-1,0.555,0.177531344,-0.252080528,1,0,0,3.3804,Diorite_rect,3,3.38,0,3,0,3,0,1,,,,,,,,,,,,,
664521606b8ee569d8076068,TCN,2024-06-11_12h10.46.281,LearnStrategy,2023.2.3,Linux armv81,120.4819277,9,1,5,0.139389779,-0.016990439,1,0,0,0.7869,rock_grid_rect_2,7,13,-1,-1,0.787,-0.160887635,-0.265950175,1,0,0,0.8124,Basalt_rect,2,0.812,0,4,0,4,0,1,,,,,,,,,,,,,
664521606b8ee569d8076068,TCN,2024-06-11_12h10.46.281,LearnStrategy,2023.2.3,Linux armv81,120.4819277,9,1,6,0.138002785,-0.010055616,1,0,0,0.5739,rock_grid_rect_2,2,12,-1,-1,0.574,0.399445247,-0.245145631,1,0,0,0.5555,Gabbro_rect,4,0.555,0,5,0,5,0,1,,,,,,,,,,,,,
664521606b8ee569d8076068,TCN,2024-06-11_12h10.46.281,LearnStrategy,2023.2.3,Linux armv81,120.4819277,9,1,7,0.161581243,-0.016296831,1,0,0,0.9213,rock_grid_rect_2,3,08,-1,-1,0.921,-0.427877945,-0.256241437,1,0,0,0.6416,Andesite_rect,1,0.642,0,6,0,6,0,1,,,,,,,,,,,,,
664521606b8ee569d8076068,TCN,2024-06-11_12h10.46.281,LearnStrategy,2023.2.3,Linux armv81,120.4819277,9,1,8,0.128294047,-0.02045774,1,0,0,10.9009,rock_grid_rect_2,7,15,-1,-1,10.901,0.151872505,-0.412274703,1,0,0,0.7484,Peridotite_rect,7,0.748,1,7,0,7,0,1,,,,,,,,,,,,,
664521606b8ee569d8076068,TCN,2024-06-11_12h10.46.281,LearnStrategy,2023.2.3,Linux armv81,120.4819277,9,1,9,0.136615864,-0.012829531,1,0,0,1.7436,rock_grid_rect_2,3,02,-1,-1,1.744,-0.144937571,-0.392857228,1,0,0,1.0114,Pegmatite_rect,6,1.011,0,8,0,8,0,1,,,,,,,,,,,,,
664521606b8ee569d8076068,TCN,2024-06-11_12h10.46.281,LearnStrategy,2023.2.3,Linux armv81,120.4819277,9,1,10,0.143550762,0.003120645,1,0,0,1.1424,rock_grid_rect_2,4,16,-1,-1,1.142,0.171983367,-0.240291262,1,0,0,1.0902,Diorite_rect,3,1.09,0,9,0,9,0,1,,,,,,,,,,,,,
664521606b8ee569d8076068,TCN,2024-06-11_12h10.46.281,LearnStrategy,2023.2.3,Linux armv81,120.4819277,9,1,11,-0.153259351,0.006587945,1,0,0,3.2048,rock_grid_rect_2,6,13,-1,-1,3.205,-0.162968089,-0.244452171,1,0,0,0.936,Basalt_rect,2,0.936,0,10,0,10,0,1,,,,,,,,,,,,,
664521606b8ee569d8076068,TCN,2024-06-11_12h10.46.281,LearnStrategy,2023.2.3,Linux armv81,120.4819277,9,1,12,0.109570105,0.021844512,1,0,0,1.0523,rock_grid_rect_2,1,01,-1,-1,1.052,0.404993076,-0.237517422,1,0,0,2.3809,Gabbro_rect,4,2.381,0,11,0,11,0,1,,,,,,,,,,,,,
664521606b8ee569d8076068,TCN,2024-06-11_12h10.46.281,LearnStrategy,2023.2.3,Linux armv81,120.4819277,9,1,13,0.058945924,-0.001040264,1,0,0,0.5807,rock_grid_rect_2,8,08,-1,-1,0.581,0.120665763,-0.403259425,1,0,0,0.7256,Peridotite_rect,7,0.726,0,12,0,12,0,1,,,,,,,,,,,,,
664521606b8ee569d8076068,TCN,2024-06-11_12h10.46.281,LearnStrategy,2023.2.3,Linux armv81,120.4819277,9,1,14,0.165742078,-0.007281702,1,0,0,1.9248,rock_grid_rect_2,8,16,-1,-1,1.925,0.35506254,-0.406033562,1,0,0,1.2286,Pumice_rect,8,1.229,1,13,0,13,0,1,,,,,,,,,,,,,
664521606b8ee569d8076068,TCN,2024-06-11_12h10.46.281,LearnStrategy,2023.2.3,Linux armv81,120.4819277,9,1,15,0.13592233,0.003120645,1,0,0,0.8587,rock_grid_rect_2,2,06,-1,-1,0.859,-0.125520095,-0.238904342,1,0,0,0.5778,Basalt_rect,2,0.578,1,14,0,14,0,1,,,,,,,,,,,,,
664521606b8ee569d8076068,TCN,2024-06-11_12h10.46.281,LearnStrategy,2023.2.3,Linux armv81,120.4819277,9,1,16,0.108183148,-0.015603371,1,0,0,1.3345,rock_grid_rect_2,6,06,-1,-1,1.334,-0.364077651,-0.392163916,1,0,0,0.831,Obsidian_rect,5,0.831,0,15,0,15,0,1,,,,,,,,,,,,,
664521606b8ee569d8076068,TCN,2024-06-11_12h10.46.281,LearnStrategy,2023.2.3,Linux armv81,120.4819277,9,2,1,,,,,,,,4,05,,,,,,,,,,,3,16.416,0,,,,,,0.13592233,-0.231276281,1,0,0,16.4162,Diorite_rect,0,0,0,0,1,
664521606b8ee569d8076068,TCN,2024-06-11_12h10.46.281,LearnStrategy,2023.2.3,Linux armv81,120.4819277,9,2,2,,,,,,,,5,16,,,,,,,,,,,5,1.011,1,,,,,,-0.418169207,-0.392163916,1,0,0,1.0107,Obsidian_rect,1,0,1,0,1,
664521606b8ee569d8076068,TCN,2024-06-11_12h10.46.281,LearnStrategy,2023.2.3,Linux armv81,120.4819277,9,2,3,,,,,,,,8,04,,,,,,,,,,,8,1.209,1,,,,,,0.389736509,-0.412274703,1,0,0,1.2086,Pumice_rect,2,0,2,0,1,
664521606b8ee569d8076068,TCN,2024-06-11_12h10.46.281,LearnStrategy,2023.2.3,Linux armv81,120.4819277,9,2,4,,,,,,,,2,14,,,,,,,,,,,4,1.673,0,,,,,,0.425797546,-0.245145631,1,0,0,1.6732,Gabbro_rect,3,0,3,0,1,
664521606b8ee569d8076068,TCN,2024-06-11_12h10.46.281,LearnStrategy,2023.2.3,Linux armv81,120.4819277,9,2,5,,,,,,,,1,14,,,,,,,,,,,6,0.865,0,,,,,,-0.091539513,-0.417822532,1,0,0,0.8653,Pegmatite_rect,4,0,4,0,1,
664521606b8ee569d8076068,TCN,2024-06-11_12h10.46.281,LearnStrategy,2023.2.3,Linux armv81,120.4819277,9,2,6,,,,,,,,6,10,,,,,,,,,,,1,0.954,0,,,,,,-0.389042993,-0.265950175,1,0,0,0.9539,Andesite_rect,5,0,5,0,1,
664521606b8ee569d8076068,TCN,2024-06-11_12h10.46.281,LearnStrategy,2023.2.3,Linux armv81,120.4819277,9,2,7,,,,,,,,3,07,,,,,,,,,,,7,0.412,0,,,,,,0.158113868,-0.390776699,1,0,0,0.412,Peridotite_rect,6,0,6,0,1,
664521606b8ee569d8076068,TCN,2024-06-11_12h10.46.281,LearnStrategy,2023.2.3,Linux armv81,120.4819277,9,2,8,,,,,,,,6,11,,,,,,,,,,,8,2.452,0,,,,,,0.426491006,-0.388696319,1,0,0,2.4521,Pumice_rect,7,0,7,0,1,
664521606b8ee569d8076068,TCN,2024-06-11_12h10.46.281,LearnStrategy,2023.2.3,Linux armv81,120.4819277,9,2,9,,,,,,,,2,04,,,,,,,,,,,3,0.908,0,,,,,,0.149098517,-0.23613065,1,0,0,0.9075,Diorite_rect,8,0,8,0,1,
664521606b8ee569d8076068,TCN,2024-06-11_12h10.46.281,LearnStrategy,2023.2.3,Linux armv81,120.4819277,9,2,10,,,,,,,,3,13,,,,,,,,,,,2,1.943,0,,,,,,-0.202496501,-0.231969593,1,0,0,1.943,Basalt_rect,9,0,9,0,1,
664521606b8ee569d8076068,TCN,2024-06-11_12h10.46.281,LearnStrategy,2023.2.3,Linux armv81,120.4819277,9,2,11,,,,,,,,7,06,,,,,,,,,,,4,2.12,0,,,,,,0.400832315,-0.271498004,1,0,0,2.1196,Gabbro_rect,10,0,10,0,1,
664521606b8ee569d8076068,TCN,2024-06-11_12h10.46.281,LearnStrategy,2023.2.3,Linux armv81,120.4819277,9,2,12,,,,,,,,8,06,,,,,,,,,,,8,0.856,1,,,,,,0.416088808,-0.401872653,1,0,0,0.856,Pumice_rect,11,0,11,0,1,
664521606b8ee569d8076068,TCN,2024-06-11_12h10.46.281,LearnStrategy,2023.2.3,Linux armv81,120.4819277,9,2,13,,,,,,,,7,10,,,,,,,,,,,2,1.122,0,,,,,,-0.122052683,-0.256241437,1,0,0,1.1219,Basalt_rect,12,0,12,0,1,
664521606b8ee569d8076068,TCN,2024-06-11_12h10.46.281,LearnStrategy,2023.2.3,Linux armv81,120.4819277,9,2,14,,,,,,,,1,09,,,,,,,,,,,7,3.566,0,,,,,,0.131761495,-0.402565965,1,0,0,3.5664,Peridotite_rect,13,0,13,0,1,
664521606b8ee569d8076068,TCN,2024-06-11_12h10.46.281,LearnStrategy,2023.2.3,Linux armv81,120.4819277,9,2,15,,,,,,,,5,07,,,,,,,,,,,6,30.817,0,,,,,,-0.090152555,-0.392163916,1,0,0,30.8168,Pegmatite_rect,14,0,14,0,1,
664521606b8ee569d8076068,TCN,2024-06-11_12h10.46.281,LearnStrategy,2023.2.3,Linux armv81,120.4819277,9,2,16,,,,,,,,4,10,,,,,,,,,,,5,4.44,0,,,,,,-0.404993048,-0.402565965,1,0,0,4.4403,Obsidian_rect,15,0,15,0,1,
664521606b8ee569d8076068,TCN,2024-06-11_12h10.46.281,LearnStrategy,2023.2.3,Linux armv81,120.4819277,,,,,,,,,,,,,,,,,,,,,,,,,,,,,,,,,,,,,,,,,,,0
664521606b8ee569d8076068,TCN,2024-06-11_12h10.46.281,LearnStrategy,2023.2.3,Linux armv81,120.4819277,,,,,,,,,,,,,,,,,,,,,,,,,,,,,,,,,,,,,,,,,,,
664521606b8ee569d8076068,TCN,2024-06-11_12h10.46.281,LearnStrategy,2023.2.3,Linux armv81,120.4819277,,,,,,,,,,,2,08,1,1,,,,,,,,,,,,,,,,,,,,,,,,,,,,,
664521606b8ee569d8076068,TCN,2024-06-11_12h10.46.281,LearnStrategy,2023.2.3,Linux armv81,120.4819277,,,,,,,,,,,7,16,1,2,,,,,,,,,,,,,,,,,,,,,,,,,,,,,
664521606b8ee569d8076068,TCN,2024-06-11_12h10.46.281,LearnStrategy,2023.2.3,Linux armv81,120.4819277,,,,,,,,,,,4,12,1,3,,,,,,,,,,,,,,,,,,,,,,,,,,,,,
664521606b8ee569d8076068,TCN,2024-06-11_12h10.46.281,LearnStrategy,2023.2.3,Linux armv81,120.4819277,,,,,,,,,,,3,10,1,4,,,,,,,,,,,,,,,,,,,,,,,,,,,,,
664521606b8ee569d8076068,TCN,2024-06-11_12h10.46.281,LearnStrategy,2023.2.3,Linux armv81,120.4819277,,,,,,,,,,,3,08,1,5,,,,,,,,,,,,,,,,,,,,,,,,,,,,,
664521606b8ee569d8076068,TCN,2024-06-11_12h10.46.281,LearnStrategy,2023.2.3,Linux armv81,120.4819277,,,,,,,,,,,1,05,1,6,,,,,,,,,,,,,,,,,,,,,,,,,,,,,
664521606b8ee569d8076068,TCN,2024-06-11_12h10.46.281,LearnStrategy,2023.2.3,Linux armv81,120.4819277,,,,,,,,,,,8,09,1,7,,,,,,,,,,,,,,,,,,,,,,,,,,,,,
664521606b8ee569d8076068,TCN,2024-06-11_12h10.46.281,LearnStrategy,2023.2.3,Linux armv81,120.4819277,,,,,,,,,,,6,06,1,8,,,,,,,,,,,,,,,,,,,,,,,,,,,,,
664521606b8ee569d8076068,TCN,2024-06-11_12h10.46.281,LearnStrategy,2023.2.3,Linux armv81,120.4819277,,,,,,,,,,,5,11,2,1,,,,,,,,,,,,,,,,,,,,,,,,,,,,,
664521606b8ee569d8076068,TCN,2024-06-11_12h10.46.281,LearnStrategy,2023.2.3,Linux armv81,120.4819277,,,,,,,,,,,1,02,2,2,,,,,,,,,,,,,,,,,,,,,,,,,,,,,
664521606b8ee569d8076068,TCN,2024-06-11_12h10.46.281,LearnStrategy,2023.2.3,Linux armv81,120.4819277,,,,,,,,,,,5,04,2,3,,,,,,,,,,,,,,,,,,,,,,,,,,,,,
664521606b8ee569d8076068,TCN,2024-06-11_12h10.46.281,LearnStrategy,2023.2.3,Linux armv81,120.4819277,,,,,,,,,,,5,05,2,4,,,,,,,,,,,,,,,,,,,,,,,,,,,,,
664521606b8ee569d8076068,TCN,2024-06-11_12h10.46.281,LearnStrategy,2023.2.3,Linux armv81,120.4819277,,,,,,,,,,,8,02,2,5,,,,,,,,,,,,,,,,,,,,,,,,,,,,,
664521606b8ee569d8076068,TCN,2024-06-11_12h10.46.281,LearnStrategy,2023.2.3,Linux armv81,120.4819277,,,,,,,,,,,2,05,2,6,,,,,,,,,,,,,,,,,,,,,,,,,,,,,
664521606b8ee569d8076068,TCN,2024-06-11_12h10.46.281,LearnStrategy,2023.2.3,Linux armv81,120.4819277,,,,,,,,,,,5,09,2,7,,,,,,,,,,,,,,,,,,,,,,,,,,,,,
664521606b8ee569d8076068,TCN,2024-06-11_12h10.46.281,LearnStrategy,2023.2.3,Linux armv81,120.4819277,,,,,,,,,,,7,13,2,8,,,,,,,,,,,,,,,,,,,,,,,,,,,,,
664521606b8ee569d8076068,TCN,2024-06-11_12h10.46.281,LearnStrategy,2023.2.3,Linux armv81,120.4819277,,,,,,,,,,,7,04,3,1,,,,,,,,,,,,,,,,,,,,,,,,,,,,,
664521606b8ee569d8076068,TCN,2024-06-11_12h10.46.281,LearnStrategy,2023.2.3,Linux armv81,120.4819277,,,,,,,,,,,4,09,3,2,,,,,,,,,,,,,,,,,,,,,,,,,,,,,
664521606b8ee569d8076068,TCN,2024-06-11_12h10.46.281,LearnStrategy,2023.2.3,Linux armv81,120.4819277,,,,,,,,,,,2,16,3,3,,,,,,,,,,,,,,,,,,,,,,,,,,,,,
664521606b8ee569d8076068,TCN,2024-06-11_12h10.46.281,LearnStrategy,2023.2.3,Linux armv81,120.4819277,,,,,,,,,,,6,12,3,4,,,,,,,,,,,,,,,,,,,,,,,,,,,,,
664521606b8ee569d8076068,TCN,2024-06-11_12h10.46.281,LearnStrategy,2023.2.3,Linux armv81,120.4819277,,,,,,,,,,,4,14,3,5,,,,,,,,,,,,,,,,,,,,,,,,,,,,,
664521606b8ee569d8076068,TCN,2024-06-11_12h10.46.281,LearnStrategy,2023.2.3,Linux armv81,120.4819277,,,,,,,,,,,8,16,3,6,,,,,,,,,,,,,,,,,,,,,,,,,,,,,
664521606b8ee569d8076068,TCN,2024-06-11_12h10.46.281,LearnStrategy,2023.2.3,Linux armv81,120.4819277,,,,,,,,,,,1,06,3,7,,,,,,,,,,,,,,,,,,,,,,,,,,,,,
664521606b8ee569d8076068,TCN,2024-06-11_12h10.46.281,LearnStrategy,2023.2.3,Linux armv81,120.4819277,,,,,,,,,,,8,03,3,8,,,,,,,,,,,,,,,,,,,,,,,,,,,,,
664521606b8ee569d8076068,TCN,2024-06-11_12h10.46.281,LearnStrategy,2023.2.3,Linux armv81,120.4819277,,,,,,,,,,,5,02,4,1,,,,,,,,,,,,,,,,,,,,,,,,,,,,,
664521606b8ee569d8076068,TCN,2024-06-11_12h10.46.281,LearnStrategy,2023.2.3,Linux armv81,120.4819277,,,,,,,,,,,6,09,4,2,,,,,,,,,,,,,,,,,,,,,,,,,,,,,
664521606b8ee569d8076068,TCN,2024-06-11_12h10.46.281,LearnStrategy,2023.2.3,Linux armv81,120.4819277,,,,,,,,,,,1,01,4,3,,,,,,,,,,,,,,,,,,,,,,,,,,,,,
664521606b8ee569d8076068,TCN,2024-06-11_12h10.46.281,LearnStrategy,2023.2.3,Linux armv81,120.4819277,,,,,,,,,,,3,02,4,4,,,,,,,,,,,,,,,,,,,,,,,,,,,,,
664521606b8ee569d8076068,TCN,2024-06-11_12h10.46.281,LearnStrategy,2023.2.3,Linux armv81,120.4819277,,,,,,,,,,,3,14,4,5,,,,,,,,,,,,,,,,,,,,,,,,,,,,,
664521606b8ee569d8076068,TCN,2024-06-11_12h10.46.281,LearnStrategy,2023.2.3,Linux armv81,120.4819277,,,,,,,,,,,2,12,4,6,,,,,,,,,,,,,,,,,,,,,,,,,,,,,
664521606b8ee569d8076068,TCN,2024-06-11_12h10.46.281,LearnStrategy,2023.2.3,Linux armv81,120.4819277,,,,,,,,,,,3,12,4,7,,,,,,,,,,,,,,,,,,,,,,,,,,,,,
664521606b8ee569d8076068,TCN,2024-06-11_12h10.46.281,LearnStrategy,2023.2.3,Linux armv81,120.4819277,,,,,,,,,,,4,16,4,8,,,,,,,,,,,,,,,,,,,,,,,,,,,,,
664521606b8ee569d8076068,TCN,2024-06-11_12h10.46.281,LearnStrategy,2023.2.3,Linux armv81,120.4819277,,,,,,,,,,,5,06,5,1,,,,,,,,,,,,,,,,,,,,,,,,,,,,,
664521606b8ee569d8076068,TCN,2024-06-11_12h10.46.281,LearnStrategy,2023.2.3,Linux armv81,120.4819277,,,,,,,,,,,6,15,5,2,,,,,,,,,,,,,,,,,,,,,,,,,,,,,
664521606b8ee569d8076068,TCN,2024-06-11_12h10.46.281,LearnStrategy,2023.2.3,Linux armv81,120.4819277,,,,,,,,,,,3,11,5,3,,,,,,,,,,,,,,,,,,,,,,,,,,,,,
664521606b8ee569d8076068,TCN,2024-06-11_12h10.46.281,LearnStrategy,2023.2.3,Linux armv81,120.4819277,,,,,,,,,,,7,08,5,4,,,,,,,,,,,,,,,,,,,,,,,,,,,,,
664521606b8ee569d8076068,TCN,2024-06-11_12h10.46.281,LearnStrategy,2023.2.3,Linux armv81,120.4819277,,,,,,,,,,,1,03,5,5,,,,,,,,,,,,,,,,,,,,,,,,,,,,,
664521606b8ee569d8076068,TCN,2024-06-11_12h10.46.281,LearnStrategy,2023.2.3,Linux armv81,120.4819277,,,,,,,,,,,4,01,5,6,,,,,,,,,,,,,,,,,,,,,,,,,,,,,
664521606b8ee569d8076068,TCN,2024-06-11_12h10.46.281,LearnStrategy,2023.2.3,Linux armv81,120.4819277,,,,,,,,,,,7,15,5,7,,,,,,,,,,,,,,,,,,,,,,,,,,,,,
664521606b8ee569d8076068,TCN,2024-06-11_12h10.46.281,LearnStrategy,2023.2.3,Linux armv81,120.4819277,,,,,,,,,,,7,02,5,8,,,,,,,,,,,,,,,,,,,,,,,,,,,,,
664521606b8ee569d8076068,TCN,2024-06-11_12h10.46.281,LearnStrategy,2023.2.3,Linux armv81,120.4819277,,,,,,,,,,,6,08,6,1,,,,,,,,,,,,,,,,,,,,,,,,,,,,,
664521606b8ee569d8076068,TCN,2024-06-11_12h10.46.281,LearnStrategy,2023.2.3,Linux armv81,120.4819277,,,,,,,,,,,8,14,6,2,,,,,,,,,,,,,,,,,,,,,,,,,,,,,
664521606b8ee569d8076068,TCN,2024-06-11_12h10.46.281,LearnStrategy,2023.2.3,Linux armv81,120.4819277,,,,,,,,,,,8,08,6,3,,,,,,,,,,,,,,,,,,,,,,,,,,,,,
664521606b8ee569d8076068,TCN,2024-06-11_12h10.46.281,LearnStrategy,2023.2.3,Linux armv81,120.4819277,,,,,,,,,,,2,06,6,4,,,,,,,,,,,,,,,,,,,,,,,,,,,,,
664521606b8ee569d8076068,TCN,2024-06-11_12h10.46.281,LearnStrategy,2023.2.3,Linux armv81,120.4819277,,,,,,,,,,,2,11,6,5,,,,,,,,,,,,,,,,,,,,,,,,,,,,,
664521606b8ee569d8076068,TCN,2024-06-11_12h10.46.281,LearnStrategy,2023.2.3,Linux armv81,120.4819277,,,,,,,,,,,1,11,6,6,,,,,,,,,,,,,,,,,,,,,,,,,,,,,
664521606b8ee569d8076068,TCN,2024-06-11_12h10.46.281,LearnStrategy,2023.2.3,Linux armv81,120.4819277,,,,,,,,,,,4,08,6,7,,,,,,,,,,,,,,,,,,,,,,,,,,,,,
664521606b8ee569d8076068,TCN,2024-06-11_12h10.46.281,LearnStrategy,2023.2.3,Linux armv81,120.4819277,,,,,,,,,,,6,13,6,8,,,,,,,,,,,,,,,,,,,,,,,,,,,,,