participant,condition,date,expName,psychopyVersion,OS,frameRate,block,phase,trial,learn_mouse_2.x,learn_mouse_2.y,learn_mouse_2.leftButton,learn_mouse_2.midButton,learn_mouse_2.rightButton,learn_mouse_2.time,learn_mouse_2.clicked_name,cat,token,row,col,t_select,cat_mouse_l.x,cat_mouse_l.y,cat_mouse_l.leftButton,cat_mouse_l.midButton,cat_mouse_l.rightButton,cat_mouse_l.time,cat_mouse_l.clicked_name,resp,t_resp,corr,train_trials.thisRepN,train_trials.thisTrialN,train_trials.thisN,train_trials.thisIndex,train_trials.ran,cat_mouse_t.x,cat_mouse_t.y,cat_mouse_t.leftButton,cat_mouse_t.midButton,cat_mouse_t.rightButton,cat_mouse_t.time,cat_mouse_t.clicked_name,test_trials.thisRepN,test_trials.thisTrialN,test_trials.thisN,test_trials.thisIndex,test_trials.ran,Bonus
66465c850d9a3e177f2649fa,TCR,2024-06-11_13h11.04.090,LearnStrategy,2023.2.3,Win32,60.0240096,,,,,,,,,,,,,,,,,,,,,,,,,,,,,,,,,,,,,,,,,,,
66465c850d9a3e177f2649fa,TCR,2024-06-11_13h11.04.090,LearnStrategy,2023.2.3,Win32,60.0240096,1,1,1,-0.009259259,-0.011111111,1,0,0,1.574,rock_grid_rect_2,6,13,-1,-1,1.574,-0.4,-0.389814815,1,0,0,8.804,Obsidian_rect,5,8.804,0,0,0,0,0,1,,,,,,,,,,,,,
66465c850d9a3e177f2649fa,TCR,2024-06-11_13h11.04.090,LearnStrategy,2023.2.3,Win32,60.0240096,1,1,2,0,0.007407407,1,0,0,1.113,rock_grid_rect_2,1,01,-1,-1,1.113,-0.152777778,-0.24537037,1,0,0,2.035,Basalt_rect,2,2.035,0,1,0,1,0,1,,,,,,,,,,,,,
66465c850d9a3e177f2649fa,TCR,2024-06-11_13h11.04.090,LearnStrategy,2023.2.3,Win32,60.0240096,1,1,3,0.012037037,-0.00462963,1,0,0,0.864,rock_grid_rect_2,2,01,-1,-1,0.864,0.099074074,-0.25462963,1,0,0,6.072,Diorite_rect,3,6.072,0,2,0,2,0,1,,,,,,,,,,,,,
66465c850d9a3e177f2649fa,TCR,2024-06-11_13h11.04.090,LearnStrategy,2023.2.3,Win32,60.0240096,1,1,4,0.018518519,-0.018518519,1,0,0,0.864,rock_grid_rect_2,8,16,-1,-1,0.864,0.113888889,-0.243518519,1,0,0,1.945,Diorite_rect,3,1.945,0,3,0,3,0,1,,,,,,,,,,,,,
66465c850d9a3e177f2649fa,TCR,2024-06-11_13h11.04.090,LearnStrategy,2023.2.3,Win32,60.0240096,1,1,5,-0.02037037,-0.010185185,1,0,0,0.794,rock_grid_rect_2,1,10,-1,-1,0.794,0.374074074,-0.249074074,1,0,0,2.178,Gabbro_rect,4,2.178,0,4,0,4,0,1,,,,,,,,,,,,,
66465c850d9a3e177f2649fa,TCR,2024-06-11_13h11.04.090,LearnStrategy,2023.2.3,Win32,60.0240096,1,1,6,0.007407407,-0.011111111,1,0,0,0.879,rock_grid_rect_2,4,13,-1,-1,0.879,0.108333333,-0.262037037,1,0,0,2.134,Diorite_rect,3,2.134,0,5,0,5,0,1,,,,,,,,,,,,,
66465c850d9a3e177f2649fa,TCR,2024-06-11_13h11.04.090,LearnStrategy,2023.2.3,Win32,60.0240096,1,1,7,0.047222222,-0.00462963,1,0,0,0.882,rock_grid_rect_2,8,05,-1,-1,0.882,0.163888889,-0.258333333,1,0,0,1.338,Diorite_rect,3,1.338,0,6,0,6,0,1,,,,,,,,,,,,,
66465c850d9a3e177f2649fa,TCR,2024-06-11_13h11.04.090,LearnStrategy,2023.2.3,Win32,60.0240096,1,1,8,0.019444444,0.002777778,1,0,0,1.531,rock_grid_rect_2,2,04,-1,-1,1.531,-0.168518519,-0.256481481,1,0,0,2.223,Basalt_rect,2,2.223,1,7,0,7,0,1,,,,,,,,,,,,,
66465c850d9a3e177f2649fa,TCR,2024-06-11_13h11.04.090,LearnStrategy,2023.2.3,Win32,60.0240096,1,1,9,-0.012962963,0.000925926,1,0,0,0.729,rock_grid_rect_2,5,06,-1,-1,0.729,-0.372222222,-0.403703704,1,0,0,3.113,Obsidian_rect,5,3.113,1,8,0,8,0,1,,,,,,,,,,,,,
66465c850d9a3e177f2649fa,TCR,2024-06-11_13h11.04.090,LearnStrategy,2023.2.3,Win32,60.0240096,1,1,10,-0.042592593,-0.012962963,1,0,0,0.781,rock_grid_rect_2,7,14,-1,-1,0.781,0.149074074,-0.266666667,1,0,0,1.855,Diorite_rect,3,1.855,0,9,0,9,0,1,,,,,,,,,,,,,
66465c850d9a3e177f2649fa,TCR,2024-06-11_13h11.04.090,LearnStrategy,2023.2.3,Win32,60.0240096,1,1,11,-0.037037037,0.003703704,1,0,0,0.847,rock_grid_rect_2,6,07,-1,-1,0.847,-0.356481481,-0.231481481,1,0,0,2.53,Andesite_rect,1,2.53,0,10,0,10,0,1,,,,,,,,,,,,,
66465c850d9a3e177f2649fa,TCR,2024-06-11_13h11.04.090,LearnStrategy,2023.2.3,Win32,60.0240096,1,1,12,0.019444444,0.000925926,1,0,0,0.842,rock_grid_rect_2,3,13,-1,-1,0.842,-0.100925926,-0.405555556,1,0,0,3.347,Pegmatite_rect,6,3.347,0,11,0,11,0,1,,,,,,,,,,,,,
66465c850d9a3e177f2649fa,TCR,2024-06-11_13h11.04.090,LearnStrategy,2023.2.3,Win32,60.0240096,1,1,13,0.003703704,-0.008333333,1,0,0,0.765,rock_grid_rect_2,5,08,-1,-1,0.765,-0.363888889,-0.399074074,1,0,0,1.201,Obsidian_rect,5,1.201,1,12,0,12,0,1,,,,,,,,,,,,,
66465c850d9a3e177f2649fa,TCR,2024-06-11_13h11.04.090,LearnStrategy,2023.2.3,Win32,60.0240096,1,1,14,-0.017592593,-0.005555556,1,0,0,0.714,rock_grid_rect_2,3,14,-1,-1,0.714,0.365740741,-0.253703704,1,0,0,4.897,Gabbro_rect,4,4.897,0,13,0,13,0,1,,,,,,,,,,,,,
66465c850d9a3e177f2649fa,TCR,2024-06-11_13h11.04.090,LearnStrategy,2023.2.3,Win32,60.0240096,1,1,15,-0.001851852,-0.000925926,1,0,0,0.747,rock_grid_rect_2,4,12,-1,-1,0.747,-0.149074074,-0.261111111,1,0,0,1.47,Basalt_rect,2,1.47,0,14,0,14,0,1,,,,,,,,,,,,,
66465c850d9a3e177f2649fa,TCR,2024-06-11_13h11.04.090,LearnStrategy,2023.2.3,Win32,60.0240096,1,1,16,0.067592593,-0.010185185,1,0,0,0.814,rock_grid_rect_2,7,05,-1,-1,0.814,-0.367592593,-0.251851852,1,0,0,2.333,Andesite_rect,1,2.333,0,15,0,15,0,1,,,,,,,,,,,,,
66465c850d9a3e177f2649fa,TCR,2024-06-11_13h11.04.090,LearnStrategy,2023.2.3,Win32,60.0240096,1,2,1,,,,,,,,2,14,,,,,,,,,,,8,3.846,0,,,,,,0.357407407,-0.403703704,1,0,0,3.846,Pumice_rect,0,0,0,0,1,
66465c850d9a3e177f2649fa,TCR,2024-06-11_13h11.04.090,LearnStrategy,2023.2.3,Win32,60.0240096,1,2,2,,,,,,,,5,09,,,,,,,,,,,5,1.268,1,,,,,,-0.426851852,-0.390740741,1,0,0,1.268,Obsidian_rect,1,0,1,0,1,
66465c850d9a3e177f2649fa,TCR,2024-06-11_13h11.04.090,LearnStrategy,2023.2.3,Win32,60.0240096,1,2,3,,,,,,,,1,16,,,,,,,,,,,1,3.79,1,,,,,,-0.375,-0.269444444,1,0,0,3.79,Andesite_rect,2,0,2,0,1,
66465c850d9a3e177f2649fa,TCR,2024-06-11_13h11.04.090,LearnStrategy,2023.2.3,Win32,60.0240096,1,2,4,,,,,,,,3,16,,,,,,,,,,,3,4.746,1,,,,,,0.156481481,-0.255555556,1,0,0,4.746,Diorite_rect,3,0,3,0,1,
66465c850d9a3e177f2649fa,TCR,2024-06-11_13h11.04.090,LearnStrategy,2023.2.3,Win32,60.0240096,1,2,5,,,,,,,,5,16,,,,,,,,,,,5,1.128,1,,,,,,-0.396296296,-0.414814815,1,0,0,1.128,Obsidian_rect,4,0,4,0,1,
66465c850d9a3e177f2649fa,TCR,2024-06-11_13h11.04.090,LearnStrategy,2023.2.3,Win32,60.0240096,1,2,6,,,,,,,,7,12,,,,,,,,,,,7,3.128,1,,,,,,0.105555556,-0.396296296,1,0,0,3.128,Peridotite_rect,5,0,5,0,1,
66465c850d9a3e177f2649fa,TCR,2024-06-11_13h11.04.090,LearnStrategy,2023.2.3,Win32,60.0240096,1,2,7,,,,,,,,3,15,,,,,,,,,,,7,1.912,0,,,,,,0.10462963,-0.390740741,1,0,0,1.912,Peridotite_rect,6,0,6,0,1,
66465c850d9a3e177f2649fa,TCR,2024-06-11_13h11.04.090,LearnStrategy,2023.2.3,Win32,60.0240096,1,2,8,,,,,,,,4,14,,,,,,,,,,,2,1.55,0,,,,,,-0.131481481,-0.252777778,1,0,0,1.55,Basalt_rect,7,0,7,0,1,
66465c850d9a3e177f2649fa,TCR,2024-06-11_13h11.04.090,LearnStrategy,2023.2.3,Win32,60.0240096,1,2,9,,,,,,,,4,08,,,,,,,,,,,2,2.064,0,,,,,,-0.133333333,-0.253703704,1,0,0,2.064,Basalt_rect,8,0,8,0,1,
66465c850d9a3e177f2649fa,TCR,2024-06-11_13h11.04.090,LearnStrategy,2023.2.3,Win32,60.0240096,1,2,10,,,,,,,,7,16,,,,,,,,,,,7,1.69,1,,,,,,0.112962963,-0.410185185,1,0,0,1.69,Peridotite_rect,9,0,9,0,1,
66465c850d9a3e177f2649fa,TCR,2024-06-11_13h11.04.090,LearnStrategy,2023.2.3,Win32,60.0240096,1,2,11,,,,,,,,8,14,,,,,,,,,,,8,1.505,1,,,,,,0.401851852,-0.408333333,1,0,0,1.505,Pumice_rect,10,0,10,0,1,
66465c850d9a3e177f2649fa,TCR,2024-06-11_13h11.04.090,LearnStrategy,2023.2.3,Win32,60.0240096,1,2,12,,,,,,,,6,06,,,,,,,,,,,3,2.833,0,,,,,,0.150925926,-0.262037037,1,0,0,2.833,Diorite_rect,11,0,11,0,1,
66465c850d9a3e177f2649fa,TCR,2024-06-11_13h11.04.090,LearnStrategy,2023.2.3,Win32,60.0240096,1,2,13,,,,,,,,2,09,,,,,,,,,,,2,1.081,1,,,,,,-0.135185185,-0.248148148,1,0,0,1.081,Basalt_rect,12,0,12,0,1,
66465c850d9a3e177f2649fa,TCR,2024-06-11_13h11.04.090,LearnStrategy,2023.2.3,Win32,60.0240096,1,2,14,,,,,,,,1,06,,,,,,,,,,,1,2.918,1,,,,,,-0.368518519,-0.241666667,1,0,0,2.918,Andesite_rect,13,0,13,0,1,
66465c850d9a3e177f2649fa,TCR,2024-06-11_13h11.04.090,LearnStrategy,2023.2.3,Win32,60.0240096,1,2,15,,,,,,,,8,02,,,,,,,,,,,8,2.157,1,,,,,,0.388888889,-0.407407407,1,0,0,2.157,Pumice_rect,14,0,14,0,1,
66465c850d9a3e177f2649fa,TCR,2024-06-11_13h11.04.090,LearnStrategy,2023.2.3,Win32,60.0240096,1,2,16,,,,,,,,6,05,,,,,,,,,,,4,2.573,0,,,,,,0.386111111,-0.25462963,1,0,0,2.573,Gabbro_rect,15,0,15,0,1,
66465c850d9a3e177f2649fa,TCR,2024-06-11_13h11.04.090,LearnStrategy,2023.2.3,Win32,60.0240096,2,1,1,-0.033333333,-0.001851852,1,0,0,1.098,rock_grid_rect_2,3,14,-1,-1,1.098,0.097222222,-0.40462963,1,0,0,4.441,Peridotite_rect,7,4.441,0,0,0,0,0,1,,,,,,,,,,,,,
66465c850d9a3e177f2649fa,TCR,2024-06-11_13h11.04.090,LearnStrategy,2023.2.3,Win32,60.0240096,2,1,2,0.011111111,0.007407407,1,0,0,1.131,rock_grid_rect_2,4,16,-1,-1,1.131,-0.167592593,-0.234259259,1,0,0,1.229,Basalt_rect,2,1.229,0,1,0,1,0,1,,,,,,,,,,,,,
66465c850d9a3e177f2649fa,TCR,2024-06-11_13h11.04.090,LearnStrategy,2023.2.3,Win32,60.0240096,2,1,3,-0.008333333,-0.006481481,1,0,0,0.764,rock_grid_rect_2,6,15,-1,-1,0.764,-0.337962963,-0.261111111,1,0,0,4.866,Andesite_rect,1,4.866,0,2,0,2,0,1,,,,,,,,,,,,,
66465c850d9a3e177f2649fa,TCR,2024-06-11_13h11.04.090,LearnStrategy,2023.2.3,Win32,60.0240096,2,1,4,0.101851852,-0.019444444,1,0,0,0.846,rock_grid_rect_2,7,13,-1,-1,0.846,0.174074074,-0.412037037,1,0,0,1.648,Peridotite_rect,7,1.648,1,3,0,3,0,1,,,,,,,,,,,,,
66465c850d9a3e177f2649fa,TCR,2024-06-11_13h11.04.090,LearnStrategy,2023.2.3,Win32,60.0240096,2,1,5,0.025,-0.001851852,1,0,0,0.863,rock_grid_rect_2,4,13,-1,-1,0.863,0.373148148,-0.249074074,1,0,0,1.498,Gabbro_rect,4,1.498,1,4,0,4,0,1,,,,,,,,,,,,,
66465c850d9a3e177f2649fa,TCR,2024-06-11_13h11.04.090,LearnStrategy,2023.2.3,Win32,60.0240096,2,1,6,0.000925926,-0.012962963,1,0,0,0.945,rock_grid_rect_2,4,12,-1,-1,0.945,0.367592593,-0.260185185,1,0,0,1.568,Gabbro_rect,4,1.568,1,5,0,5,0,1,,,,,,,,,,,,,
66465c850d9a3e177f2649fa,TCR,2024-06-11_13h11.04.090,LearnStrategy,2023.2.3,Win32,60.0240096,2,1,7,0.018518519,-0.001851852,1,0,0,0.664,rock_grid_rect_2,2,10,-1,-1,0.664,-0.138888889,-0.257407407,1,0,0,1.996,Basalt_rect,2,1.996,1,6,0,6,0,1,,,,,,,,,,,,,
66465c850d9a3e177f2649fa,TCR,2024-06-11_13h11.04.090,LearnStrategy,2023.2.3,Win32,60.0240096,2,1,8,0.008333333,-0.013888889,1,0,0,0.747,rock_grid_rect_2,6,12,-1,-1,0.747,-0.12962963,-0.4,1,0,0,2.612,Pegmatite_rect,6,2.612,1,7,0,7,0,1,,,,,,,,,,,,,
66465c850d9a3e177f2649fa,TCR,2024-06-11_13h11.04.090,LearnStrategy,2023.2.3,Win32,60.0240096,2,1,9,-0.003703704,0.022222222,1,0,0,0.715,rock_grid_rect_2,4,05,-1,-1,0.715,-0.385185185,-0.253703704,1,0,0,2.592,Andesite_rect,1,2.592,0,8,0,8,0,1,,,,,,,,,,,,,
66465c850d9a3e177f2649fa,TCR,2024-06-11_13h11.04.090,LearnStrategy,2023.2.3,Win32,60.0240096,2,1,10,0.038888889,-0.017592593,1,0,0,0.649,rock_grid_rect_2,8,05,-1,-1,0.649,0.371296296,-0.4,1,0,0,1.041,Pumice_rect,8,1.041,1,9,0,9,0,1,,,,,,,,,,,,,
66465c850d9a3e177f2649fa,TCR,2024-06-11_13h11.04.090,LearnStrategy,2023.2.3,Win32,60.0240096,2,1,11,0.005555556,0.011111111,1,0,0,0.715,rock_grid_rect_2,2,10,-1,-1,0.715,-0.178703704,-0.260185185,1,0,0,1.024,Basalt_rect,2,1.024,1,10,0,10,0,1,,,,,,,,,,,,,
66465c850d9a3e177f2649fa,TCR,2024-06-11_13h11.04.090,LearnStrategy,2023.2.3,Win32,60.0240096,2,1,12,-0.011111111,-0.00462963,1,0,0,0.731,rock_grid_rect_2,2,06,-1,-1,0.731,-0.125925926,-0.25,1,0,0,1.374,Basalt_rect,2,1.374,1,11,0,11,0,1,,,,,,,,,,,,,
66465c850d9a3e177f2649fa,TCR,2024-06-11_13h11.04.090,LearnStrategy,2023.2.3,Win32,60.0240096,2,1,13,-0.012962963,-0.007407407,1,0,0,0.614,rock_grid_rect_2,6,15,-1,-1,0.614,-0.131481481,-0.411111111,1,0,0,1.432,Pegmatite_rect,6,1.432,1,12,0,12,0,1,,,,,,,,,,,,,
66465c850d9a3e177f2649fa,TCR,2024-06-11_13h11.04.090,LearnStrategy,2023.2.3,Win32,60.0240096,2,1,14,-0.043518519,0.005555556,1,0,0,0.679,rock_grid_rect_2,3,14,-1,-1,0.679,0.10462963,-0.396296296,1,0,0,3.223,Peridotite_rect,7,3.223,0,13,0,13,0,1,,,,,,,,,,,,,
66465c850d9a3e177f2649fa,TCR,2024-06-11_13h11.04.090,LearnStrategy,2023.2.3,Win32,60.0240096,2,1,15,0.065740741,0.003703704,1,0,0,0.63,rock_grid_rect_2,3,06,-1,-1,0.63,0.12037037,-0.264814815,1,0,0,1.335,Diorite_rect,3,1.335,1,14,0,14,0,1,,,,,,,,,,,,,
66465c850d9a3e177f2649fa,TCR,2024-06-11_13h11.04.090,LearnStrategy,2023.2.3,Win32,60.0240096,2,1,16,0.011111111,-0.023148148,1,0,0,0.748,rock_grid_rect_2,6,12,-1,-1,0.748,0.109259259,-0.260185185,1,0,0,0.961,Diorite_rect,3,0.961,0,15,0,15,0,1,,,,,,,,,,,,,
66465c850d9a3e177f2649fa,TCR,2024-06-11_13h11.04.090,LearnStrategy,2023.2.3,Win32,60.0240096,2,2,1,,,,,,,,3,09,,,,,,,,,,,3,4.107,1,,,,,,0.14537037,-0.242592593,1,0,0,4.107,Diorite_rect,0,0,0,0,1,
66465c850d9a3e177f2649fa,TCR,2024-06-11_13h11.04.090,LearnStrategy,2023.2.3,Win32,60.0240096,2,2,2,,,,,,,,5,11,,,,,,,,,,,5,1.084,1,,,,,,-0.357407407,-0.409259259,1,0,0,1.084,Obsidian_rect,1,0,1,0,1,
66465c850d9a3e177f2649fa,TCR,2024-06-11_13h11.04.090,LearnStrategy,2023.2.3,Win32,60.0240096,2,2,3,,,,,,,,3,02,,,,,,,,,,,4,3.722,0,,,,,,0.382407407,-0.240740741,1,0,0,3.722,Gabbro_rect,2,0,2,0,1,
66465c850d9a3e177f2649fa,TCR,2024-06-11_13h11.04.090,LearnStrategy,2023.2.3,Win32,60.0240096,2,2,4,,,,,,,,2,02,,,,,,,,,,,2,0.916,1,,,,,,-0.136111111,-0.256481481,1,0,0,0.916,Basalt_rect,3,0,3,0,1,
66465c850d9a3e177f2649fa,TCR,2024-06-11_13h11.04.090,LearnStrategy,2023.2.3,Win32,60.0240096,2,2,5,,,,,,,,4,09,,,,,,,,,,,2,1.92,0,,,,,,-0.101851852,-0.253703704,1,0,0,1.92,Basalt_rect,4,0,4,0,1,
66465c850d9a3e177f2649fa,TCR,2024-06-11_13h11.04.090,LearnStrategy,2023.2.3,Win32,60.0240096,2,2,6,,,,,,,,8,06,,,,,,,,,,,8,1.053,1,,,,,,0.367592593,-0.412962963,1,0,0,1.053,Pumice_rect,5,0,5,0,1,
66465c850d9a3e177f2649fa,TCR,2024-06-11_13h11.04.090,LearnStrategy,2023.2.3,Win32,60.0240096,2,2,7,,,,,,,,1,14,,,,,,,,,,,3,2.867,0,,,,,,0.125925926,-0.22962963,1,0,0,2.867,Diorite_rect,6,0,6,0,1,
66465c850d9a3e177f2649fa,TCR,2024-06-11_13h11.04.090,LearnStrategy,2023.2.3,Win32,60.0240096,2,2,8,,,,,,,,1,03,,,,,,,,,,,1,2.234,1,,,,,,-0.387962963,-0.246296296,1,0,0,2.234,Andesite_rect,7,0,7,0,1,
66465c850d9a3e177f2649fa,TCR,2024-06-11_13h11.04.090,LearnStrategy,2023.2.3,Win32,60.0240096,2,2,9,,,,,,,,4,03,,,,,,,,,,,4,1.119,1,,,,,,0.398148148,-0.251851852,1,0,0,1.119,Gabbro_rect,8,0,8,0,1,
66465c850d9a3e177f2649fa,TCR,2024-06-11_13h11.04.090,LearnStrategy,2023.2.3,Win32,60.0240096,2,2,10,,,,,,,,7,07,,,,,,,,,,,7,1.602,1,,,,,,0.081481481,-0.399074074,1,0,0,1.602,Peridotite_rect,9,0,9,0,1,
66465c850d9a3e177f2649fa,TCR,2024-06-11_13h11.04.090,LearnStrategy,2023.2.3,Win32,60.0240096,2,2,11,,,,,,,,6,03,,,,,,,,,,,7,1.57,0,,,,,,0.127777778,-0.401851852,1,0,0,1.57,Peridotite_rect,10,0,10,0,1,
66465c850d9a3e177f2649fa,TCR,2024-06-11_13h11.04.090,LearnStrategy,2023.2.3,Win32,60.0240096,2,2,12,,,,,,,,5,12,,,,,,,,,,,5,1.067,1,,,,,,-0.390740741,-0.413888889,1,0,0,1.067,Obsidian_rect,11,0,11,0,1,
66465c850d9a3e177f2649fa,TCR,2024-06-11_13h11.04.090,LearnStrategy,2023.2.3,Win32,60.0240096,2,2,13,,,,,,,,6,16,,,,,,,,,,,1,6.206,0,,,,,,-0.37037037,-0.24537037,1,0,0,6.206,Andesite_rect,12,0,12,0,1,
66465c850d9a3e177f2649fa,TCR,2024-06-11_13h11.04.090,LearnStrategy,2023.2.3,Win32,60.0240096,2,2,14,,,,,,,,2,12,,,,,,,,,,,3,4.443,0,,,,,,0.118518519,-0.246296296,1,0,0,4.443,Diorite_rect,13,0,13,0,1,
66465c850d9a3e177f2649fa,TCR,2024-06-11_13h11.04.090,LearnStrategy,2023.2.3,Win32,60.0240096,2,2,15,,,,,,,,7,15,,,,,,,,,,,7,1.235,1,,,,,,0.106481481,-0.403703704,1,0,0,1.235,Peridotite_rect,14,0,14,0,1,
66465c850d9a3e177f2649fa,TCR,2024-06-11_13h11.04.090,LearnStrategy,2023.2.3,Win32,60.0240096,2,2,16,,,,,,,,8,15,,,,,,,,,,,8,1.617,1,,,,,,0.347222222,-0.394444444,1,0,0,1.617,Pumice_rect,15,0,15,0,1,
66465c850d9a3e177f2649fa,TCR,2024-06-11_13h11.04.090,LearnStrategy,2023.2.3,Win32,60.0240096,3,1,1,-0.032407407,-0.002777778,1,0,0,0.63,rock_grid_rect_2,6,07,-1,-1,0.63,0.089814815,-0.414814815,1,0,0,3.153,Peridotite_rect,7,3.153,0,0,0,0,0,1,,,,,,,,,,,,,
66465c850d9a3e177f2649fa,TCR,2024-06-11_13h11.04.090,LearnStrategy,2023.2.3,Win32,60.0240096,3,1,2,-0.052777778,0.012962963,1,0,0,0.712,rock_grid_rect_2,8,03,-1,-1,0.712,0.367592593,-0.397222222,1,0,0,1.13,Pumice_rect,8,1.13,1,1,0,1,0,1,,,,,,,,,,,,,
66465c850d9a3e177f2649fa,TCR,2024-06-11_13h11.04.090,LearnStrategy,2023.2.3,Win32,60.0240096,3,1,3,0.005555556,0.007407407,1,0,0,0.697,rock_grid_rect_2,4,15,-1,-1,0.697,-0.130555556,-0.409259259,1,0,0,1.558,Pegmatite_rect,6,1.558,0,2,0,2,0,1,,,,,,,,,,,,,
66465c850d9a3e177f2649fa,TCR,2024-06-11_13h11.04.090,LearnStrategy,2023.2.3,Win32,60.0240096,3,1,4,-0.006481481,-0.005555556,1,0,0,0.898,rock_grid_rect_2,1,01,-1,-1,0.898,0.092592593,-0.234259259,1,0,0,3.001,Diorite_rect,3,3.001,0,3,0,3,0,1,,,,,,,,,,,,,
66465c850d9a3e177f2649fa,TCR,2024-06-11_13h11.04.090,LearnStrategy,2023.2.3,Win32,60.0240096,3,1,5,-0.017592593,-0.009259259,1,0,0,0.914,rock_grid_rect_2,2,16,-1,-1,0.914,0.389814815,-0.413888889,1,0,0,2.696,Pumice_rect,8,2.696,0,4,0,4,0,1,,,,,,,,,,,,,
66465c850d9a3e177f2649fa,TCR,2024-06-11_13h11.04.090,LearnStrategy,2023.2.3,Win32,60.0240096,3,1,6,-0.017592593,-0.006481481,1,0,0,1.349,rock_grid_rect_2,7,13,-1,-1,1.349,0.089814815,-0.399074074,1,0,0,1.789,Peridotite_rect,7,1.789,1,5,0,5,0,1,,,,,,,,,,,,,
66465c850d9a3e177f2649fa,TCR,2024-06-11_13h11.04.090,LearnStrategy,2023.2.3,Win32,60.0240096,3,1,7,0.025,0.014814815,1,0,0,4.131,rock_grid_rect_2,3,07,-1,-1,4.131,-0.082407407,-0.387962963,1,0,0,1.939,Pegmatite_rect,6,1.939,0,6,0,6,0,1,,,,,,,,,,,,,
66465c850d9a3e177f2649fa,TCR,2024-06-11_13h11.04.090,LearnStrategy,2023.2.3,Win32,60.0240096,3,1,8,0.015740741,0.007407407,1,0,0,0.648,rock_grid_rect_2,3,10,-1,-1,0.648,-0.105555556,-0.412962963,1,0,0,1.461,Pegmatite_rect,6,1.461,0,7,0,7,0,1,,,,,,,,,,,,,
66465c850d9a3e177f2649fa,TCR,2024-06-11_13h11.04.090,LearnStrategy,2023.2.3,Win32,60.0240096,3,1,9,0.028703704,-0.011111111,1,0,0,2.366,rock_grid_rect_2,6,15,-1,-1,2.366,-0.093518519,-0.402777778,1,0,0,1.798,Pegmatite_rect,6,1.798,1,8,0,8,0,1,,,,,,,,,,,,,
66465c850d9a3e177f2649fa,TCR,2024-06-11_13h11.04.090,LearnStrategy,2023.2.3,Win32,60.0240096,3,1,10,-0.009259259,-0.019444444,1,0,0,0.645,rock_grid_rect_2,3,14,-1,-1,0.645,0.118518519,-0.25,1,0,0,1.492,Diorite_rect,3,1.492,1,9,0,9,0,1,,,,,,,,,,,,,
66465c850d9a3e177f2649fa,TCR,2024-06-11_13h11.04.090,LearnStrategy,2023.2.3,Win32,60.0240096,3,1,11,0.017592593,-0.009259259,1,0,0,0.713,rock_grid_rect_2,6,07,-1,-1,0.713,-0.123148148,-0.397222222,1,0,0,1.74,Pegmatite_rect,6,1.74,1,10,0,10,0,1,,,,,,,,,,,,,
66465c850d9a3e177f2649fa,TCR,2024-06-11_13h11.04.090,LearnStrategy,2023.2.3,Win32,60.0240096,3,1,12,-0.000925926,-0.010185185,1,0,0,0.997,rock_grid_rect_2,4,12,-1,-1,0.997,0.349074074,-0.236111111,1,0,0,1.151,Gabbro_rect,4,1.151,1,11,0,11,0,1,,,,,,,,,,,,,
66465c850d9a3e177f2649fa,TCR,2024-06-11_13h11.04.090,LearnStrategy,2023.2.3,Win32,60.0240096,3,1,13,-0.008333333,-0.002777778,1,0,0,0.664,rock_grid_rect_2,4,13,-1,-1,0.664,0.377777778,-0.246296296,1,0,0,1.165,Gabbro_rect,4,1.165,1,12,0,12,0,1,,,,,,,,,,,,,
66465c850d9a3e177f2649fa,TCR,2024-06-11_13h11.04.090,LearnStrategy,2023.2.3,Win32,60.0240096,3,1,14,-0.049074074,-0.016666667,1,0,0,0.68,rock_grid_rect_2,2,04,-1,-1,0.68,-0.139814815,-0.241666667,1,0,0,1.195,Basalt_rect,2,1.195,1,13,0,13,0,1,,,,,,,,,,,,,
66465c850d9a3e177f2649fa,TCR,2024-06-11_13h11.04.090,LearnStrategy,2023.2.3,Win32,60.0240096,3,1,15,-0.074074074,-0.006481481,1,0,0,0.681,rock_grid_rect_2,6,11,-1,-1,0.681,-0.380555556,-0.399074074,1,0,0,2.961,Obsidian_rect,5,2.961,0,14,0,14,0,1,,,,,,,,,,,,,
66465c850d9a3e177f2649fa,TCR,2024-06-11_13h11.04.090,LearnStrategy,2023.2.3,Win32,60.0240096,3,1,16,0.031481481,-0.001851852,1,0,0,0.63,rock_grid_rect_2,2,10,-1,-1,0.63,-0.140740741,-0.253703704,1,0,0,1.057,Basalt_rect,2,1.057,1,15,0,15,0,1,,,,,,,,,,,,,
66465c850d9a3e177f2649fa,TCR,2024-06-11_13h11.04.090,LearnStrategy,2023.2.3,Win32,60.0240096,3,2,1,,,,,,,,6,10,,,,,,,,,,,7,1.305,0,,,,,,0.137962963,-0.393518519,1,0,0,1.305,Peridotite_rect,0,0,0,0,1,
66465c850d9a3e177f2649fa,TCR,2024-06-11_13h11.04.090,LearnStrategy,2023.2.3,Win32,60.0240096,3,2,2,,,,,,,,1,07,,,,,,,,,,,1,2.874,1,,,,,,-0.382407407,-0.237962963,1,0,0,2.874,Andesite_rect,1,0,1,0,1,
66465c850d9a3e177f2649fa,TCR,2024-06-11_13h11.04.090,LearnStrategy,2023.2.3,Win32,60.0240096,3,2,3,,,,,,,,2,11,,,,,,,,,,,2,1.904,1,,,,,,-0.125925926,-0.239814815,1,0,0,1.904,Basalt_rect,2,0,2,0,1,
66465c850d9a3e177f2649fa,TCR,2024-06-11_13h11.04.090,LearnStrategy,2023.2.3,Win32,60.0240096,3,2,4,,,,,,,,1,02,,,,,,,,,,,6,3.857,0,,,,,,-0.138888889,-0.403703704,1,0,0,3.857,Pegmatite_rect,3,0,3,0,1,
66465c850d9a3e177f2649fa,TCR,2024-06-11_13h11.04.090,LearnStrategy,2023.2.3,Win32,60.0240096,3,2,5,,,,,,,,2,08,,,,,,,,,,,2,1.035,1,,,,,,-0.125925926,-0.263888889,1,0,0,1.035,Basalt_rect,4,0,4,0,1,
66465c850d9a3e177f2649fa,TCR,2024-06-11_13h11.04.090,LearnStrategy,2023.2.3,Win32,60.0240096,3,2,6,,,,,,,,3,11,,,,,,,,,,,3,2.101,1,,,,,,0.127777778,-0.269444444,1,0,0,2.101,Diorite_rect,5,0,5,0,1,
66465c850d9a3e177f2649fa,TCR,2024-06-11_13h11.04.090,LearnStrategy,2023.2.3,Win32,60.0240096,3,2,7,,,,,,,,8,08,,,,,,,,,,,8,1.21,1,,,,,,0.351851852,-0.411111111,1,0,0,1.21,Pumice_rect,6,0,6,0,1,
66465c850d9a3e177f2649fa,TCR,2024-06-11_13h11.04.090,LearnStrategy,2023.2.3,Win32,60.0240096,3,2,8,,,,,,,,4,10,,,,,,,,,,,3,3.302,0,,,,,,0.096296296,-0.248148148,1,0,0,3.302,Diorite_rect,7,0,7,0,1,
66465c850d9a3e177f2649fa,TCR,2024-06-11_13h11.04.090,LearnStrategy,2023.2.3,Win32,60.0240096,3,2,9,,,,,,,,8,13,,,,,,,,,,,8,1.001,1,,,,,,0.401851852,-0.409259259,1,0,0,1.001,Pumice_rect,8,0,8,0,1,
66465c850d9a3e177f2649fa,TCR,2024-06-11_13h11.04.090,LearnStrategy,2023.2.3,Win32,60.0240096,3,2,10,,,,,,,,7,06,,,,,,,,,,,7,1.08,1,,,,,,0.112962963,-0.399074074,1,0,0,1.08,Peridotite_rect,9,0,9,0,1,
66465c850d9a3e177f2649fa,TCR,2024-06-11_13h11.04.090,LearnStrategy,2023.2.3,Win32,60.0240096,3,2,11,,,,,,,,5,04,,,,,,,,,,,5,1.038,1,,,,,,-0.438888889,-0.408333333,1,0,0,1.038,Obsidian_rect,10,0,10,0,1,
66465c850d9a3e177f2649fa,TCR,2024-06-11_13h11.04.090,LearnStrategy,2023.2.3,Win32,60.0240096,3,2,12,,,,,,,,5,05,,,,,,,,,,,5,1.108,1,,,,,,-0.425925926,-0.402777778,1,0,0,1.108,Obsidian_rect,11,0,11,0,1,
66465c850d9a3e177f2649fa,TCR,2024-06-11_13h11.04.090,LearnStrategy,2023.2.3,Win32,60.0240096,3,2,13,,,,,,,,3,12,,,,,,,,,,,6,1.613,0,,,,,,-0.137037037,-0.399074074,1,0,0,1.613,Pegmatite_rect,12,0,12,0,1,
66465c850d9a3e177f2649fa,TCR,2024-06-11_13h11.04.090,LearnStrategy,2023.2.3,Win32,60.0240096,3,2,14,,,,,,,,4,01,,,,,,,,,,,6,1.845,0,,,,,,-0.134259259,-0.392592593,1,0,0,1.845,Pegmatite_rect,13,0,13,0,1,
66465c850d9a3e177f2649fa,TCR,2024-06-11_13h11.04.090,LearnStrategy,2023.2.3,Win32,60.0240096,3,2,15,,,,,,,,7,02,,,,,,,,,,,7,1.186,1,,,,,,0.098148148,-0.412962963,1,0,0,1.186,Peridotite_rect,14,0,14,0,1,
66465c850d9a3e177f2649fa,TCR,2024-06-11_13h11.04.090,LearnStrategy,2023.2.3,Win32,60.0240096,3,2,16,,,,,,,,6,08,,,,,,,,,,,6,3.112,1,,,,,,-0.109259259,-0.403703704,1,0,0,3.112,Pegmatite_rect,15,0,15,0,1,
66465c850d9a3e177f2649fa,TCR,2024-06-11_13h11.04.090,LearnStrategy,2023.2.3,Win32,60.0240096,4,1,1,-0.059259259,0.006481481,1,0,0,0.93,rock_grid_rect_2,6,15,-1,-1,0.93,-0.139814815,-0.402777778,1,0,0,1.11,Pegmatite_rect,6,1.11,1,0,0,0,0,1,,,,,,,,,,,,,
66465c850d9a3e177f2649fa,TCR,2024-06-11_13h11.04.090,LearnStrategy,2023.2.3,Win32,60.0240096,4,1,2,-0.061111111,-0.003703704,1,0,0,0.68,rock_grid_rect_2,2,10,-1,-1,0.68,-0.14537037,-0.24537037,1,0,0,0.966,Basalt_rect,2,0.966,1,1,0,1,0,1,,,,,,,,,,,,,
66465c850d9a3e177f2649fa,TCR,2024-06-11_13h11.04.090,LearnStrategy,2023.2.3,Win32,60.0240096,4,1,3,-0.074074074,-0.007407407,1,0,0,0.916,rock_grid_rect_2,6,13,-1,-1,0.916,-0.089814815,-0.398148148,1,0,0,1.484,Pegmatite_rect,6,1.484,1,2,0,2,0,1,,,,,,,,,,,,,
66465c850d9a3e177f2649fa,TCR,2024-06-11_13h11.04.090,LearnStrategy,2023.2.3,Win32,60.0240096,4,1,4,-0.034259259,0.022222222,1,0,0,0.68,rock_grid_rect_2,4,15,-1,-1,0.68,0.377777778,-0.24537037,1,0,0,1.025,Gabbro_rect,4,1.025,1,3,0,3,0,1,,,,,,,,,,,,,
66465c850d9a3e177f2649fa,TCR,2024-06-11_13h11.04.090,LearnStrategy,2023.2.3,Win32,60.0240096,4,1,5,0.009259259,-0.011111111,1,0,0,0.565,rock_grid_rect_2,6,11,-1,-1,0.565,-0.10462963,-0.411111111,1,0,0,2.184,Pegmatite_rect,6,2.184,1,4,0,4,0,1,,,,,,,,,,,,,
66465c850d9a3e177f2649fa,TCR,2024-06-11_13h11.04.090,LearnStrategy,2023.2.3,Win32,60.0240096,4,1,6,-0.032407407,0.000925926,1,0,0,0.648,rock_grid_rect_2,7,08,-1,-1,0.648,0.111111111,-0.398148148,1,0,0,1.288,Peridotite_rect,7,1.288,1,5,0,5,0,1,,,,,,,,,,,,,
66465c850d9a3e177f2649fa,TCR,2024-06-11_13h11.04.090,LearnStrategy,2023.2.3,Win32,60.0240096,4,1,7,0.003703704,-0.007407407,1,0,0,0.849,rock_grid_rect_2,4,15,-1,-1,0.849,0.397222222,-0.263888889,1,0,0,1.034,Gabbro_rect,4,1.034,1,6,0,6,0,1,,,,,,,,,,,,,
66465c850d9a3e177f2649fa,TCR,2024-06-11_13h11.04.090,LearnStrategy,2023.2.3,Win32,60.0240096,4,1,8,-0.00462963,0.00462963,1,0,0,0.733,rock_grid_rect_2,2,16,-1,-1,0.733,-0.100925926,-0.255555556,1,0,0,1.016,Basalt_rect,2,1.016,1,7,0,7,0,1,,,,,,,,,,,,,
66465c850d9a3e177f2649fa,TCR,2024-06-11_13h11.04.090,LearnStrategy,2023.2.3,Win32,60.0240096,4,1,9,0.006481481,-0.011111111,1,0,0,0.781,rock_grid_rect_2,3,06,-1,-1,0.781,0.111111111,-0.234259259,1,0,0,1.748,Diorite_rect,3,1.748,1,8,0,8,0,1,,,,,,,,,,,,,
66465c850d9a3e177f2649fa,TCR,2024-06-11_13h11.04.090,LearnStrategy,2023.2.3,Win32,60.0240096,4,1,10,0,-0.003703704,1,0,0,0.698,rock_grid_rect_2,8,05,-1,-1,0.698,0.355555556,-0.4,1,0,0,1.064,Pumice_rect,8,1.064,1,9,0,9,0,1,,,,,,,,,,,,,
66465c850d9a3e177f2649fa,TCR,2024-06-11_13h11.04.090,LearnStrategy,2023.2.3,Win32,60.0240096,4,1,11,-0.023148148,-0.006481481,1,0,0,0.681,rock_grid_rect_2,1,11,-1,-1,0.681,-0.373148148,-0.256481481,1,0,0,1.479,Andesite_rect,1,1.479,1,10,0,10,0,1,,,,,,,,,,,,,
66465c850d9a3e177f2649fa,TCR,2024-06-11_13h11.04.090,LearnStrategy,2023.2.3,Win32,60.0240096,4,1,12,-0.017592593,-0.007407407,1,0,0,0.681,rock_grid_rect_2,6,13,-1,-1,0.681,-0.121296296,-0.40462963,1,0,0,1.34,Pegmatite_rect,6,1.34,1,11,0,11,0,1,,,,,,,,,,,,,
66465c850d9a3e177f2649fa,TCR,2024-06-11_13h11.04.090,LearnStrategy,2023.2.3,Win32,60.0240096,4,1,13,-0.016666667,-0.017592593,1,0,0,0.629,rock_grid_rect_2,4,11,-1,-1,0.629,-0.428703704,-0.25,1,0,0,3.101,Andesite_rect,1,3.101,0,12,0,12,0,1,,,,,,,,,,,,,
66465c850d9a3e177f2649fa,TCR,2024-06-11_13h11.04.090,LearnStrategy,2023.2.3,Win32,60.0240096,4,1,14,0.007407407,-0.012037037,1,0,0,0.713,rock_grid_rect_2,3,14,-1,-1,0.713,0.092592593,-0.234259259,1,0,0,2.19,Diorite_rect,3,2.19,1,13,0,13,0,1,,,,,,,,,,,,,
66465c850d9a3e177f2649fa,TCR,2024-06-11_13h11.04.090,LearnStrategy,2023.2.3,Win32,60.0240096,4,1,15,0.046296296,-0.024074074,1,0,0,0.699,rock_grid_rect_2,3,14,-1,-1,0.699,0.101851852,-0.256481481,1,0,0,0.873,Diorite_rect,3,0.873,1,14,0,14,0,1,,,,,,,,,,,,,
66465c850d9a3e177f2649fa,TCR,2024-06-11_13h11.04.090,LearnStrategy,2023.2.3,Win32,60.0240096,4,1,16,0.031481481,0.006481481,1,0,0,0.58,rock_grid_rect_2,4,13,-1,-1,0.58,0.365740741,-0.252777778,1,0,0,1.293,Gabbro_rect,4,1.293,1,15,0,15,0,1,,,,,,,,,,,,,
66465c850d9a3e177f2649fa,TCR,2024-06-11_13h11.04.090,LearnStrategy,2023.2.3,Win32,60.0240096,4,2,1,,,,,,,,5,16,,,,,,,,,,,5,1.046,1,,,,,,-0.359259259,-0.401851852,1,0,0,1.046,Obsidian_rect,0,0,0,0,1,
66465c850d9a3e177f2649fa,TCR,2024-06-11_13h11.04.090,LearnStrategy,2023.2.3,Win32,60.0240096,4,2,2,,,,,,,,4,03,,,,,,,,,,,4,4.344,1,,,,,,0.337037037,-0.249074074,1,0,0,4.344,Gabbro_rect,1,0,1,0,1,
66465c850d9a3e177f2649fa,TCR,2024-06-11_13h11.04.090,LearnStrategy,2023.2.3,Win32,60.0240096,4,2,3,,,,,,,,6,10,,,,,,,,,,,7,0.969,0,,,,,,0.116666667,-0.418518519,1,0,0,0.969,Peridotite_rect,2,0,2,0,1,
66465c850d9a3e177f2649fa,TCR,2024-06-11_13h11.04.090,LearnStrategy,2023.2.3,Win32,60.0240096,4,2,4,,,,,,,,8,02,,,,,,,,,,,8,1.552,1,,,,,,0.384259259,-0.391666667,1,0,0,1.552,Pumice_rect,3,0,3,0,1,
66465c850d9a3e177f2649fa,TCR,2024-06-11_13h11.04.090,LearnStrategy,2023.2.3,Win32,60.0240096,4,2,5,,,,,,,,6,08,,,,,,,,,,,6,1.342,1,,,,,,-0.143518519,-0.4,1,0,0,1.342,Pegmatite_rect,4,0,4,0,1,
66465c850d9a3e177f2649fa,TCR,2024-06-11_13h11.04.090,LearnStrategy,2023.2.3,Win32,60.0240096,4,2,6,,,,,,,,3,09,,,,,,,,,,,3,2.87,1,,,,,,0.150925926,-0.264814815,1,0,0,2.87,Diorite_rect,5,0,5,0,1,
66465c850d9a3e177f2649fa,TCR,2024-06-11_13h11.04.090,LearnStrategy,2023.2.3,Win32,60.0240096,4,2,7,,,,,,,,2,02,,,,,,,,,,,2,0.956,1,,,,,,-0.161111111,-0.249074074,1,0,0,0.956,Basalt_rect,6,0,6,0,1,
66465c850d9a3e177f2649fa,TCR,2024-06-11_13h11.04.090,LearnStrategy,2023.2.3,Win32,60.0240096,4,2,8,,,,,,,,8,13,,,,,,,,,,,8,1.225,1,,,,,,0.387037037,-0.409259259,1,0,0,1.225,Pumice_rect,7,0,7,0,1,
66465c850d9a3e177f2649fa,TCR,2024-06-11_13h11.04.090,LearnStrategy,2023.2.3,Win32,60.0240096,4,2,9,,,,,,,,7,02,,,,,,,,,,,7,1.875,1,,,,,,0.128703704,-0.405555556,1,0,0,1.875,Peridotite_rect,8,0,8,0,1,
66465c850d9a3e177f2649fa,TCR,2024-06-11_13h11.04.090,LearnStrategy,2023.2.3,Win32,60.0240096,4,2,10,,,,,,,,1,02,,,,,,,,,,,3,3.381,0,,,,,,0.116666667,-0.244444444,1,0,0,3.381,Diorite_rect,9,0,9,0,1,
66465c850d9a3e177f2649fa,TCR,2024-06-11_13h11.04.090,LearnStrategy,2023.2.3,Win32,60.0240096,4,2,11,,,,,,,,1,06,,,,,,,,,,,1,1.341,1,,,,,,-0.364814815,-0.24537037,1,0,0,1.341,Andesite_rect,10,0,10,0,1,
66465c850d9a3e177f2649fa,TCR,2024-06-11_13h11.04.090,LearnStrategy,2023.2.3,Win32,60.0240096,4,2,12,,,,,,,,5,05,,,,,,,,,,,5,1.006,1,,,,,,-0.387962963,-0.402777778,1,0,0,1.006,Obsidian_rect,11,0,11,0,1,
66465c850d9a3e177f2649fa,TCR,2024-06-11_13h11.04.090,LearnStrategy,2023.2.3,Win32,60.0240096,4,2,13,,,,,,,,3,12,,,,,,,,,,,6,4.771,0,,,,,,-0.140740741,-0.381481481,1,0,0,4.771,Pegmatite_rect,12,0,12,0,1,
66465c850d9a3e177f2649fa,TCR,2024-06-11_13h11.04.090,LearnStrategy,2023.2.3,Win32,60.0240096,4,2,14,,,,,,,,4,08,,,,,,,,,,,6,2.22,0,,,,,,-0.140740741,-0.403703704,1,0,0,2.22,Pegmatite_rect,13,0,13,0,1,
66465c850d9a3e177f2649fa,TCR,2024-06-11_13h11.04.090,LearnStrategy,2023.2.3,Win32,60.0240096,4,2,15,,,,,,,,7,12,,,,,,,,,,,7,1.377,1,,,,,,0.136111111,-0.378703704,1,0,0,1.377,Peridotite_rect,14,0,14,0,1,
66465c850d9a3e177f2649fa,TCR,2024-06-11_13h11.04.090,LearnStrategy,2023.2.3,Win32,60.0240096,4,2,16,,,,,,,,2,14,,,,,,,,,,,8,1.34,0,,,,,,0.35,-0.390740741,1,0,0,1.34,Pumice_rect,15,0,15,0,1,
66465c850d9a3e177f2649fa,TCR,2024-06-11_13h11.04.090,LearnStrategy,2023.2.3,Win32,60.0240096,5,1,1,-0.061111111,0.002777778,1,0,0,0.797,rock_grid_rect_2,6,15,-1,-1,0.797,-0.117592593,-0.402777778,1,0,0,1.566,Pegmatite_rect,6,1.566,1,0,0,0,0,1,,,,,,,,,,,,,
66465c850d9a3e177f2649fa,TCR,2024-06-11_13h11.04.090,LearnStrategy,2023.2.3,Win32,60.0240096,5,1,2,-0.035185185,-0.001851852,1,0,0,0.708,rock_grid_rect_2,3,06,-1,-1,0.708,0.097222222,-0.253703704,1,0,0,2.158,Diorite_rect,3,2.158,1,1,0,1,0,1,,,,,,,,,,,,,
66465c850d9a3e177f2649fa,TCR,2024-06-11_13h11.04.090,LearnStrategy,2023.2.3,Win32,60.0240096,5,1,3,-0.025925926,-0.010185185,1,0,0,0.863,rock_grid_rect_2,4,15,-1,-1,0.863,0.373148148,-0.261111111,1,0,0,1.188,Gabbro_rect,4,1.188,1,2,0,2,0,1,,,,,,,,,,,,,
66465c850d9a3e177f2649fa,TCR,2024-06-11_13h11.04.090,LearnStrategy,2023.2.3,Win32,60.0240096,5,1,4,-0.015740741,0.011111111,1,0,0,0.696,rock_grid_rect_2,1,04,-1,-1,0.696,-0.421296296,-0.236111111,1,0,0,3.314,Andesite_rect,1,3.314,1,3,0,3,0,1,,,,,,,,,,,,,
66465c850d9a3e177f2649fa,TCR,2024-06-11_13h11.04.090,LearnStrategy,2023.2.3,Win32,60.0240096,5,1,5,-0.019444444,-0.005555556,1,0,0,1.031,rock_grid_rect_2,8,05,-1,-1,1.031,0.362037037,-0.40462963,1,0,0,1.403,Pumice_rect,8,1.403,1,4,0,4,0,1,,,,,,,,,,,,,
66465c850d9a3e177f2649fa,TCR,2024-06-11_13h11.04.090,LearnStrategy,2023.2.3,Win32,60.0240096,5,1,6,-0.02037037,-0.002777778,1,0,0,0.948,rock_grid_rect_2,3,10,-1,-1,0.948,0.123148148,-0.249074074,1,0,0,1.779,Diorite_rect,3,1.779,1,5,0,5,0,1,,,,,,,,,,,,,
66465c850d9a3e177f2649fa,TCR,2024-06-11_13h11.04.090,LearnStrategy,2023.2.3,Win32,60.0240096,5,1,7,0.007407407,-0.001851852,1,0,0,0.714,rock_grid_rect_2,6,11,-1,-1,0.714,-0.113888889,-0.396296296,1,0,0,1.073,Pegmatite_rect,6,1.073,1,6,0,6,0,1,,,,,,,,,,,,,
66465c850d9a3e177f2649fa,TCR,2024-06-11_13h11.04.090,LearnStrategy,2023.2.3,Win32,60.0240096,5,1,8,-0.000925926,-0.013888889,1,0,0,0.748,rock_grid_rect_2,3,07,-1,-1,0.748,0.108333333,-0.265740741,1,0,0,1.557,Diorite_rect,3,1.557,1,7,0,7,0,1,,,,,,,,,,,,,
66465c850d9a3e177f2649fa,TCR,2024-06-11_13h11.04.090,LearnStrategy,2023.2.3,Win32,60.0240096,5,1,9,0.003703704,-0.006481481,1,0,0,0.647,rock_grid_rect_2,2,10,-1,-1,0.647,-0.138888889,-0.264814815,1,0,0,0.949,Basalt_rect,2,0.949,1,8,0,8,0,1,,,,,,,,,,,,,
66465c850d9a3e177f2649fa,TCR,2024-06-11_13h11.04.090,LearnStrategy,2023.2.3,Win32,60.0240096,5,1,10,-0.031481481,0.006481481,1,0,0,0.699,rock_grid_rect_2,4,12,-1,-1,0.699,0.367592593,-0.252777778,1,0,0,1.268,Gabbro_rect,4,1.268,1,9,0,9,0,1,,,,,,,,,,,,,
66465c850d9a3e177f2649fa,TCR,2024-06-11_13h11.04.090,LearnStrategy,2023.2.3,Win32,60.0240096,5,1,11,-0.021296296,-0.005555556,1,0,0,0.663,rock_grid_rect_2,1,01,-1,-1,0.663,0.351851852,-0.262962963,1,0,0,2.784,Gabbro_rect,4,2.784,0,10,0,10,0,1,,,,,,,,,,,,,
66465c850d9a3e177f2649fa,TCR,2024-06-11_13h11.04.090,LearnStrategy,2023.2.3,Win32,60.0240096,5,1,12,-0.002777778,-0.007407407,1,0,0,1.207,rock_grid_rect_2,7,05,-1,-1,1.207,0.125925926,-0.405555556,1,0,0,1.164,Peridotite_rect,7,1.164,1,11,0,11,0,1,,,,,,,,,,,,,
66465c850d9a3e177f2649fa,TCR,2024-06-11_13h11.04.090,LearnStrategy,2023.2.3,Win32,60.0240096,5,1,13,0.025,-0.002777778,1,0,0,0.731,rock_grid_rect_2,4,05,-1,-1,0.731,-0.377777778,-0.24537037,1,0,0,4.188,Andesite_rect,1,4.188,0,12,0,12,0,1,,,,,,,,,,,,,
66465c850d9a3e177f2649fa,TCR,2024-06-11_13h11.04.090,LearnStrategy,2023.2.3,Win32,60.0240096,5,1,14,-0.048148148,-0.005555556,1,0,0,0.712,rock_grid_rect_2,2,10,-1,-1,0.712,-0.126851852,-0.27037037,1,0,0,0.852,Basalt_rect,2,0.852,1,13,0,13,0,1,,,,,,,,,,,,,
66465c850d9a3e177f2649fa,TCR,2024-06-11_13h11.04.090,LearnStrategy,2023.2.3,Win32,60.0240096,5,1,15,0.051851852,-0.003703704,1,0,0,0.631,rock_grid_rect_2,6,09,-1,-1,0.631,0.105555556,-0.417592593,1,0,0,0.975,Peridotite_rect,7,0.975,0,14,0,14,0,1,,,,,,,,,,,,,
66465c850d9a3e177f2649fa,TCR,2024-06-11_13h11.04.090,LearnStrategy,2023.2.3,Win32,60.0240096,5,1,16,-0.000925926,-0.011111111,1,0,0,0.83,rock_grid_rect_2,6,11,-1,-1,0.83,-0.110185185,-0.398148148,1,0,0,1.631,Pegmatite_rect,6,1.631,1,15,0,15,0,1,,,,,,,,,,,,,
66465c850d9a3e177f2649fa,TCR,2024-06-11_13h11.04.090,LearnStrategy,2023.2.3,Win32,60.0240096,5,2,1,,,,,,,,4,14,,,,,,,,,,,2,4.602,0,,,,,,-0.15462963,-0.237037037,1,0,0,4.602,Basalt_rect,0,0,0,0,1,
66465c850d9a3e177f2649fa,TCR,2024-06-11_13h11.04.090,LearnStrategy,2023.2.3,Win32,60.0240096,5,2,2,,,,,,,,7,06,,,,,,,,,,,7,2.107,1,,,,,,0.111111111,-0.403703704,1,0,0,2.107,Peridotite_rect,1,0,1,0,1,
66465c850d9a3e177f2649fa,TCR,2024-06-11_13h11.04.090,LearnStrategy,2023.2.3,Win32,60.0240096,5,2,3,,,,,,,,6,05,,,,,,,,,,,3,1.775,0,,,,,,0.128703704,-0.247222222,1,0,0,1.775,Diorite_rect,2,0,2,0,1,
66465c850d9a3e177f2649fa,TCR,2024-06-11_13h11.04.090,LearnStrategy,2023.2.3,Win32,60.0240096,5,2,4,,,,,,,,8,08,,,,,,,,,,,8,1.069,1,,,,,,0.35,-0.397222222,1,0,0,1.069,Pumice_rect,3,0,3,0,1,
66465c850d9a3e177f2649fa,TCR,2024-06-11_13h11.04.090,LearnStrategy,2023.2.3,Win32,60.0240096,5,2,5,,,,,,,,1,14,,,,,,,,,,,3,4.859,0,,,,,,0.078703704,-0.24537037,1,0,0,4.859,Diorite_rect,4,0,4,0,1,
66465c850d9a3e177f2649fa,TCR,2024-06-11_13h11.04.090,LearnStrategy,2023.2.3,Win32,60.0240096,5,2,6,,,,,,,,8,15,,,,,,,,,,,8,1.529,1,,,,,,0.351851852,-0.406481481,1,0,0,1.529,Pumice_rect,5,0,5,0,1,
66465c850d9a3e177f2649fa,TCR,2024-06-11_13h11.04.090,LearnStrategy,2023.2.3,Win32,60.0240096,5,2,7,,,,,,,,5,12,,,,,,,,,,,5,1.043,1,,,,,,-0.40462963,-0.399074074,1,0,0,1.043,Obsidian_rect,6,0,6,0,1,
66465c850d9a3e177f2649fa,TCR,2024-06-11_13h11.04.090,LearnStrategy,2023.2.3,Win32,60.0240096,5,2,8,,,,,,,,4,09,,,,,,,,,,,1,6.086,0,,,,,,-0.401851852,-0.260185185,1,0,0,6.086,Andesite_rect,7,0,7,0,1,
66465c850d9a3e177f2649fa,TCR,2024-06-11_13h11.04.090,LearnStrategy,2023.2.3,Win32,60.0240096,5,2,9,,,,,,,,3,11,,,,,,,,,,,3,1.229,1,,,,,,0.112037037,-0.251851852,1,0,0,1.229,Diorite_rect,8,0,8,0,1,
66465c850d9a3e177f2649fa,TCR,2024-06-11_13h11.04.090,LearnStrategy,2023.2.3,Win32,60.0240096,5,2,10,,,,,,,,6,16,,,,,,,,,,,3,1.661,0,,,,,,0.112037037,-0.251851852,1,0,0,1.661,Diorite_rect,9,0,9,0,1,
66465c850d9a3e177f2649fa,TCR,2024-06-11_13h11.04.090,LearnStrategy,2023.2.3,Win32,60.0240096,5,2,11,,,,,,,,7,16,,,,,,,,,,,7,2.051,1,,,,,,0.074074074,-0.392592593,1,0,0,2.051,Peridotite_rect,10,0,10,0,1,
66465c850d9a3e177f2649fa,TCR,2024-06-11_13h11.04.090,LearnStrategy,2023.2.3,Win32,60.0240096,5,2,12,,,,,,,,2,08,,,,,,,,,,,2,0.969,1,,,,,,-0.107407407,-0.250925926,1,0,0,0.969,Basalt_rect,11,0,11,0,1,
66465c850d9a3e177f2649fa,TCR,2024-06-11_13h11.04.090,LearnStrategy,2023.2.3,Win32,60.0240096,5,2,13,,,,,,,,5,11,,,,,,,,,,,5,0.933,1,,,,,,-0.418518519,-0.399074074,1,0,0,0.933,Obsidian_rect,12,0,12,0,1,
66465c850d9a3e177f2649fa,TCR,2024-06-11_13h11.04.090,LearnStrategy,2023.2.3,Win32,60.0240096,5,2,14,,,,,,,,2,09,,,,,,,,,,,2,1.312,1,,,,,,-0.126851852,-0.250925926,1,0,0,1.312,Basalt_rect,13,0,13,0,1,
66465c850d9a3e177f2649fa,TCR,2024-06-11_13h11.04.090,LearnStrategy,2023.2.3,Win32,60.0240096,5,2,15,,,,,,,,3,02,,,,,,,,,,,3,1.357,1,,,,,,0.117592593,-0.244444444,1,0,0,1.357,Diorite_rect,14,0,14,0,1,
66465c850d9a3e177f2649fa,TCR,2024-06-11_13h11.04.090,LearnStrategy,2023.2.3,Win32,60.0240096,5,2,16,,,,,,,,1,03,,,,,,,,,,,1,3.652,1,,,,,,-0.389814815,-0.258333333,1,0,0,3.652,Andesite_rect,15,0,15,0,1,
66465c850d9a3e177f2649fa,TCR,2024-06-11_13h11.04.090,LearnStrategy,2023.2.3,Win32,60.0240096,6,1,1,-0.027777778,-0.002777778,1,0,0,0.513,rock_grid_rect_2,1,09,-1,-1,0.513,-0.368518519,-0.247222222,1,0,0,1.538,Andesite_rect,1,1.538,1,0,0,0,0,1,,,,,,,,,,,,,
66465c850d9a3e177f2649fa,TCR,2024-06-11_13h11.04.090,LearnStrategy,2023.2.3,Win32,60.0240096,6,1,2,-0.005555556,-0.007407407,1,0,0,1.131,rock_grid_rect_2,6,11,-1,-1,1.131,-0.101851852,-0.385185185,1,0,0,1.044,Pegmatite_rect,6,1.044,1,1,0,1,0,1,,,,,,,,,,,,,
66465c850d9a3e177f2649fa,TCR,2024-06-11_13h11.04.090,LearnStrategy,2023.2.3,Win32,60.0240096,6,1,3,0.018518519,-0.000925926,1,0,0,0.747,rock_grid_rect_2,6,13,-1,-1,0.747,-0.108333333,-0.401851852,1,0,0,2.249,Pegmatite_rect,6,2.249,1,2,0,2,0,1,,,,,,,,,,,,,
66465c850d9a3e177f2649fa,TCR,2024-06-11_13h11.04.090,LearnStrategy,2023.2.3,Win32,60.0240096,6,1,4,-0.00462963,-0.021296296,1,0,0,0.865,rock_grid_rect_2,7,04,-1,-1,0.865,0.115740741,-0.400925926,1,0,0,4.764,Peridotite_rect,7,4.764,1,3,0,3,0,1,,,,,,,,,,,,,
66465c850d9a3e177f2649fa,TCR,2024-06-11_13h11.04.090,LearnStrategy,2023.2.3,Win32,60.0240096,6,1,5,0.019444444,-0.015740741,1,0,0,1.015,rock_grid_rect_2,1,05,-1,-1,1.015,0.149074074,-0.249074074,1,0,0,3.231,Diorite_rect,3,3.231,0,4,0,4,0,1,,,,,,,,,,,,,
66465c850d9a3e177f2649fa,TCR,2024-06-11_13h11.04.090,LearnStrategy,2023.2.3,Win32,60.0240096,6,1,6,-0.025925926,-0.001851852,1,0,0,0.781,rock_grid_rect_2,2,04,-1,-1,0.781,-0.146296296,-0.265740741,1,0,0,0.881,Basalt_rect,2,0.881,1,5,0,5,0,1,,,,,,,,,,,,,
66465c850d9a3e177f2649fa,TCR,2024-06-11_13h11.04.090,LearnStrategy,2023.2.3,Win32,60.0240096,6,1,7,-0.037962963,0.008333333,1,0,0,0.664,rock_grid_rect_2,4,13,-1,-1,0.664,0.439814815,-0.265740741,1,0,0,1.03,Gabbro_rect,4,1.03,1,6,0,6,0,1,,,,,,,,,,,,,
66465c850d9a3e177f2649fa,TCR,2024-06-11_13h11.04.090,LearnStrategy,2023.2.3,Win32,60.0240096,6,1,8,0.026851852,-0.013888889,1,0,0,0.711,rock_grid_rect_2,5,14,-1,-1,0.711,-0.352777778,-0.39537037,1,0,0,1.036,Obsidian_rect,5,1.036,1,7,0,7,0,1,,,,,,,,,,,,,
66465c850d9a3e177f2649fa,TCR,2024-06-11_13h11.04.090,LearnStrategy,2023.2.3,Win32,60.0240096,6,1,9,0.000925926,0.002777778,1,0,0,0.629,rock_grid_rect_2,6,12,-1,-1,0.629,-0.083333333,-0.413888889,1,0,0,2.796,Pegmatite_rect,6,2.796,1,8,0,8,0,1,,,,,,,,,,,,,
66465c850d9a3e177f2649fa,TCR,2024-06-11_13h11.04.090,LearnStrategy,2023.2.3,Win32,60.0240096,6,1,10,0.061111111,-0.010185185,1,0,0,0.813,rock_grid_rect_2,3,14,-1,-1,0.813,0.083333333,-0.252777778,1,0,0,1.131,Diorite_rect,3,1.131,1,9,0,9,0,1,,,,,,,,,,,,,
66465c850d9a3e177f2649fa,TCR,2024-06-11_13h11.04.090,LearnStrategy,2023.2.3,Win32,60.0240096,6,1,11,0.010185185,-0.001851852,1,0,0,0.715,rock_grid_rect_2,4,11,-1,-1,0.715,0.382407407,-0.248148148,1,0,0,1.269,Gabbro_rect,4,1.269,1,10,0,10,0,1,,,,,,,,,,,,,
66465c850d9a3e177f2649fa,TCR,2024-06-11_13h11.04.090,LearnStrategy,2023.2.3,Win32,60.0240096,6,1,12,0.00462963,-0.008333333,1,0,0,0.665,rock_grid_rect_2,4,16,-1,-1,0.665,0.411111111,-0.25462963,1,0,0,3.621,Gabbro_rect,4,3.621,1,11,0,11,0,1,,,,,,,,,,,,,
66465c850d9a3e177f2649fa,TCR,2024-06-11_13h11.04.090,LearnStrategy,2023.2.3,Win32,60.0240096,6,1,13,-0.021296296,-0.018518519,1,0,0,0.781,rock_grid_rect_2,3,13,-1,-1,0.781,-0.109259259,-0.389814815,1,0,0,2.142,Pegmatite_rect,6,2.142,0,12,0,12,0,1,,,,,,,,,,,,,
66465c850d9a3e177f2649fa,TCR,2024-06-11_13h11.04.090,LearnStrategy,2023.2.3,Win32,60.0240096,6,1,14,-0.026851852,0,1,0,0,0.748,rock_grid_rect_2,4,13,-1,-1,0.748,0.37962963,-0.265740741,1,0,0,0.954,Gabbro_rect,4,0.954,1,13,0,13,0,1,,,,,,,,,,,,,
66465c850d9a3e177f2649fa,TCR,2024-06-11_13h11.04.090,LearnStrategy,2023.2.3,Win32,60.0240096,6,1,15,0.032407407,-0.017592593,1,0,0,0.965,rock_grid_rect_2,8,04,-1,-1,0.965,0.375,-0.382407407,1,0,0,0.975,Pumice_rect,8,0.975,1,14,0,14,0,1,,,,,,,,,,,,,
66465c850d9a3e177f2649fa,TCR,2024-06-11_13h11.04.090,LearnStrategy,2023.2.3,Win32,60.0240096,6,1,16,0.023148148,-0.010185185,1,0,0,0.681,rock_grid_rect_2,6,13,-1,-1,0.681,-0.141666667,-0.396296296,1,0,0,1.065,Pegmatite_rect,6,1.065,1,15,0,15,0,1,,,,,,,,,,,,,
66465c850d9a3e177f2649fa,TCR,2024-06-11_13h11.04.090,LearnStrategy,2023.2.3,Win32,60.0240096,6,2,1,,,,,,,,8,14,,,,,,,,,,,8,1.056,1,,,,,,0.371296296,-0.398148148,1,0,0,1.056,Pumice_rect,0,0,0,0,1,
66465c850d9a3e177f2649fa,TCR,2024-06-11_13h11.04.090,LearnStrategy,2023.2.3,Win32,60.0240096,6,2,2,,,,,,,,1,16,,,,,,,,,,,6,9.609,0,,,,,,-0.112037037,-0.403703704,1,0,0,9.609,Pegmatite_rect,1,0,1,0,1,
66465c850d9a3e177f2649fa,TCR,2024-06-11_13h11.04.090,LearnStrategy,2023.2.3,Win32,60.0240096,6,2,3,,,,,,,,6,06,,,,,,,,,,,7,5.87,0,,,,,,0.12037037,-0.4,1,0,0,5.87,Peridotite_rect,2,0,2,0,1,
66465c850d9a3e177f2649fa,TCR,2024-06-11_13h11.04.090,LearnStrategy,2023.2.3,Win32,60.0240096,6,2,4,,,,,,,,8,06,,,,,,,,,,,8,1.077,1,,,,,,0.385185185,-0.411111111,1,0,0,1.077,Pumice_rect,3,0,3,0,1,
66465c850d9a3e177f2649fa,TCR,2024-06-11_13h11.04.090,LearnStrategy,2023.2.3,Win32,60.0240096,6,2,5,,,,,,,,3,16,,,,,,,,,,,3,1.427,1,,,,,,0.109259259,-0.25,1,0,0,1.427,Diorite_rect,4,0,4,0,1,
66465c850d9a3e177f2649fa,TCR,2024-06-11_13h11.04.090,LearnStrategy,2023.2.3,Win32,60.0240096,6,2,6,,,,,,,,5,09,,,,,,,,,,,5,0.967,1,,,,,,-0.419444444,-0.403703704,1,0,0,0.967,Obsidian_rect,5,0,5,0,1,
66465c850d9a3e177f2649fa,TCR,2024-06-11_13h11.04.090,LearnStrategy,2023.2.3,Win32,60.0240096,6,2,7,,,,,,,,7,07,,,,,,,,,,,7,1.541,1,,,,,,0.109259259,-0.407407407,1,0,0,1.541,Peridotite_rect,6,0,6,0,1,
66465c850d9a3e177f2649fa,TCR,2024-06-11_13h11.04.090,LearnStrategy,2023.2.3,Win32,60.0240096,6,2,8,,,,,,,,4,01,,,,,,,,,,,7,1.717,0,,,,,,0.133333333,-0.412037037,1,0,0,1.717,Peridotite_rect,7,0,7,0,1,
66465c850d9a3e177f2649fa,TCR,2024-06-11_13h11.04.090,LearnStrategy,2023.2.3,Win32,60.0240096,6,2,9,,,,,,,,2,11,,,,,,,,,,,1,3.178,0,,,,,,-0.375925926,-0.255555556,1,0,0,3.178,Andesite_rect,8,0,8,0,1,
66465c850d9a3e177f2649fa,TCR,2024-06-11_13h11.04.090,LearnStrategy,2023.2.3,Win32,60.0240096,6,2,10,,,,,,,,6,03,,,,,,,,,,,7,2.131,0,,,,,,0.082407407,-0.412962963,1,0,0,2.131,Peridotite_rect,9,0,9,0,1,
66465c850d9a3e177f2649fa,TCR,2024-06-11_13h11.04.090,LearnStrategy,2023.2.3,Win32,60.0240096,6,2,11,,,,,,,,2,12,,,,,,,,,,,1,2.502,0,,,,,,-0.339814815,-0.252777778,1,0,0,2.502,Andesite_rect,10,0,10,0,1,
66465c850d9a3e177f2649fa,TCR,2024-06-11_13h11.04.090,LearnStrategy,2023.2.3,Win32,60.0240096,6,2,12,,,,,,,,5,04,,,,,,,,,,,5,0.899,1,,,,,,-0.373148148,-0.407407407,1,0,0,0.899,Obsidian_rect,11,0,11,0,1,
66465c850d9a3e177f2649fa,TCR,2024-06-11_13h11.04.090,LearnStrategy,2023.2.3,Win32,60.0240096,6,2,13,,,,,,,,7,15,,,,,,,,,,,7,1.15,1,,,,,,0.127777778,-0.398148148,1,0,0,1.15,Peridotite_rect,12,0,12,0,1,
66465c850d9a3e177f2649fa,TCR,2024-06-11_13h11.04.090,LearnStrategy,2023.2.3,Win32,60.0240096,6,2,14,,,,,,,,1,07,,,,,,,,,,,1,5,1,,,,,,-0.37962963,-0.253703704,1,0,0,5,Andesite_rect,13,0,13,0,1,
66465c850d9a3e177f2649fa,TCR,2024-06-11_13h11.04.090,LearnStrategy,2023.2.3,Win32,60.0240096,6,2,15,,,,,,,,3,15,,,,,,,,,,,3,2.207,1,,,,,,0.096296296,-0.247222222,1,0,0,2.207,Diorite_rect,14,0,14,0,1,
66465c850d9a3e177f2649fa,TCR,2024-06-11_13h11.04.090,LearnStrategy,2023.2.3,Win32,60.0240096,6,2,16,,,,,,,,4,10,,,,,,,,,,,4,1.571,1,,,,,,0.382407407,-0.261111111,1,0,0,1.571,Gabbro_rect,15,0,15,0,1,
66465c850d9a3e177f2649fa,TCR,2024-06-11_13h11.04.090,LearnStrategy,2023.2.3,Win32,60.0240096,7,1,1,0.016666667,-0.00462963,1,0,0,1.315,rock_grid_rect_2,6,07,-1,-1,1.315,-0.113888889,-0.39537037,1,0,0,1.678,Pegmatite_rect,6,1.678,1,0,0,0,0,1,,,,,,,,,,,,,
66465c850d9a3e177f2649fa,TCR,2024-06-11_13h11.04.090,LearnStrategy,2023.2.3,Win32,60.0240096,7,1,2,-0.025,-0.012037037,1,0,0,0.798,rock_grid_rect_2,6,11,-1,-1,0.798,-0.117592593,-0.400925926,1,0,0,1.229,Pegmatite_rect,6,1.229,1,1,0,1,0,1,,,,,,,,,,,,,
66465c850d9a3e177f2649fa,TCR,2024-06-11_13h11.04.090,LearnStrategy,2023.2.3,Win32,60.0240096,7,1,3,-0.025,-0.015740741,1,0,0,0.731,rock_grid_rect_2,4,05,-1,-1,0.731,0.364814815,-0.252777778,1,0,0,3.37,Gabbro_rect,4,3.37,1,2,0,2,0,1,,,,,,,,,,,,,
66465c850d9a3e177f2649fa,TCR,2024-06-11_13h11.04.090,LearnStrategy,2023.2.3,Win32,60.0240096,7,1,4,0.013888889,0.002777778,1,0,0,0.727,rock_grid_rect_2,1,09,-1,-1,0.727,-0.367592593,-0.22962963,1,0,0,1.373,Andesite_rect,1,1.373,1,3,0,3,0,1,,,,,,,,,,,,,
66465c850d9a3e177f2649fa,TCR,2024-06-11_13h11.04.090,LearnStrategy,2023.2.3,Win32,60.0240096,7,1,5,-0.050925926,0.007407407,1,0,0,0.631,rock_grid_rect_2,1,05,-1,-1,0.631,-0.109259259,-0.393518519,1,0,0,2.335,Pegmatite_rect,6,2.335,0,4,0,4,0,1,,,,,,,,,,,,,
66465c850d9a3e177f2649fa,TCR,2024-06-11_13h11.04.090,LearnStrategy,2023.2.3,Win32,60.0240096,7,1,6,-0.005555556,0.000925926,1,0,0,0.665,rock_grid_rect_2,4,11,-1,-1,0.665,0.363888889,-0.231481481,1,0,0,1.083,Gabbro_rect,4,1.083,1,5,0,5,0,1,,,,,,,,,,,,,
66465c850d9a3e177f2649fa,TCR,2024-06-11_13h11.04.090,LearnStrategy,2023.2.3,Win32,60.0240096,7,1,7,0.012037037,0.003703704,1,0,0,0.582,rock_grid_rect_2,2,06,-1,-1,0.582,-0.165740741,-0.244444444,1,0,0,1.046,Basalt_rect,2,1.046,1,6,0,6,0,1,,,,,,,,,,,,,
66465c850d9a3e177f2649fa,TCR,2024-06-11_13h11.04.090,LearnStrategy,2023.2.3,Win32,60.0240096,7,1,8,-0.014814815,-0.009259259,1,0,0,0.849,rock_grid_rect_2,7,13,-1,-1,0.849,0.123148148,-0.387962963,1,0,0,1.06,Peridotite_rect,7,1.06,1,7,0,7,0,1,,,,,,,,,,,,,
66465c850d9a3e177f2649fa,TCR,2024-06-11_13h11.04.090,LearnStrategy,2023.2.3,Win32,60.0240096,7,1,9,0.010185185,0.012037037,1,0,0,0.682,rock_grid_rect_2,6,09,-1,-1,0.682,-0.100925926,-0.402777778,1,0,0,1.23,Pegmatite_rect,6,1.23,1,8,0,8,0,1,,,,,,,,,,,,,
66465c850d9a3e177f2649fa,TCR,2024-06-11_13h11.04.090,LearnStrategy,2023.2.3,Win32,60.0240096,7,1,10,-0.013888889,0.00462963,1,0,0,0.565,rock_grid_rect_2,2,01,-1,-1,0.565,-0.106481481,-0.251851852,1,0,0,0.886,Basalt_rect,2,0.886,1,9,0,9,0,1,,,,,,,,,,,,,
66465c850d9a3e177f2649fa,TCR,2024-06-11_13h11.04.090,LearnStrategy,2023.2.3,Win32,60.0240096,7,1,11,-0.013888889,0.000925926,1,0,0,0.531,rock_grid_rect_2,6,15,-1,-1,0.531,-0.151851852,-0.409259259,1,0,0,0.977,Pegmatite_rect,6,0.977,1,10,0,10,0,1,,,,,,,,,,,,,
66465c850d9a3e177f2649fa,TCR,2024-06-11_13h11.04.090,LearnStrategy,2023.2.3,Win32,60.0240096,7,1,12,-0.057407407,0.005555556,1,0,0,0.582,rock_grid_rect_2,2,10,-1,-1,0.582,-0.124074074,-0.244444444,1,0,0,0.928,Basalt_rect,2,0.928,1,11,0,11,0,1,,,,,,,,,,,,,
66465c850d9a3e177f2649fa,TCR,2024-06-11_13h11.04.090,LearnStrategy,2023.2.3,Win32,60.0240096,7,1,13,-0.012037037,-0.019444444,1,0,0,0.515,rock_grid_rect_2,1,09,-1,-1,0.515,-0.401851852,-0.257407407,1,0,0,1.031,Andesite_rect,1,1.031,1,12,0,12,0,1,,,,,,,,,,,,,
66465c850d9a3e177f2649fa,TCR,2024-06-11_13h11.04.090,LearnStrategy,2023.2.3,Win32,60.0240096,7,1,14,-0.022222222,-0.005555556,1,0,0,0.516,rock_grid_rect_2,8,05,-1,-1,0.516,0.362037037,-0.385185185,1,0,0,0.948,Pumice_rect,8,0.948,1,13,0,13,0,1,,,,,,,,,,,,,
66465c850d9a3e177f2649fa,TCR,2024-06-11_13h11.04.090,LearnStrategy,2023.2.3,Win32,60.0240096,7,1,15,-0.002777778,0.017592593,1,0,0,0.498,rock_grid_rect_2,3,06,-1,-1,0.498,0.119444444,-0.263888889,1,0,0,1.611,Diorite_rect,3,1.611,1,14,0,14,0,1,,,,,,,,,,,,,
66465c850d9a3e177f2649fa,TCR,2024-06-11_13h11.04.090,LearnStrategy,2023.2.3,Win32,60.0240096,7,1,16,0.003703704,0.000925926,1,0,0,0.563,rock_grid_rect_2,4,16,-1,-1,0.563,0.385185185,-0.268518519,1,0,0,1.374,Gabbro_rect,4,1.374,1,15,0,15,0,1,,,,,,,,,,,,,
66465c850d9a3e177f2649fa,TCR,2024-06-11_13h11.04.090,LearnStrategy,2023.2.3,Win32,60.0240096,7,2,1,,,,,,,,2,08,,,,,,,,,,,2,1.088,1,,,,,,-0.102777778,-0.247222222,1,0,0,1.088,Basalt_rect,0,0,0,0,1,
66465c850d9a3e177f2649fa,TCR,2024-06-11_13h11.04.090,LearnStrategy,2023.2.3,Win32,60.0240096,7,2,2,,,,,,,,7,16,,,,,,,,,,,7,2.011,1,,,,,,0.111111111,-0.397222222,1,0,0,2.011,Peridotite_rect,1,0,1,0,1,
66465c850d9a3e177f2649fa,TCR,2024-06-11_13h11.04.090,LearnStrategy,2023.2.3,Win32,60.0240096,7,2,3,,,,,,,,5,04,,,,,,,,,,,5,1.009,1,,,,,,-0.400925926,-0.399074074,1,0,0,1.009,Obsidian_rect,2,0,2,0,1,
66465c850d9a3e177f2649fa,TCR,2024-06-11_13h11.04.090,LearnStrategy,2023.2.3,Win32,60.0240096,7,2,4,,,,,,,,6,05,,,,,,,,,,,3,5.206,0,,,,,,0.109259259,-0.244444444,1,0,0,5.206,Diorite_rect,3,0,3,0,1,
66465c850d9a3e177f2649fa,TCR,2024-06-11_13h11.04.090,LearnStrategy,2023.2.3,Win32,60.0240096,7,2,5,,,,,,,,4,03,,,,,,,,,,,4,2.177,1,,,,,,0.407407407,-0.243518519,1,0,0,2.177,Gabbro_rect,4,0,4,0,1,
66465c850d9a3e177f2649fa,TCR,2024-06-11_13h11.04.090,LearnStrategy,2023.2.3,Win32,60.0240096,7,2,6,,,,,,,,7,02,,,,,,,,,,,7,1.55,1,,,,,,0.1,-0.396296296,1,0,0,1.55,Peridotite_rect,5,0,5,0,1,
66465c850d9a3e177f2649fa,TCR,2024-06-11_13h11.04.090,LearnStrategy,2023.2.3,Win32,60.0240096,7,2,7,,,,,,,,3,15,,,,,,,,,,,1,4.644,0,,,,,,-0.377777778,-0.241666667,1,0,0,4.644,Andesite_rect,6,0,6,0,1,
66465c850d9a3e177f2649fa,TCR,2024-06-11_13h11.04.090,LearnStrategy,2023.2.3,Win32,60.0240096,7,2,8,,,,,,,,8,08,,,,,,,,,,,8,1.116,1,,,,,,0.378703704,-0.405555556,1,0,0,1.116,Pumice_rect,7,0,7,0,1,
66465c850d9a3e177f2649fa,TCR,2024-06-11_13h11.04.090,LearnStrategy,2023.2.3,Win32,60.0240096,7,2,9,,,,,,,,1,02,,,,,,,,,,,1,3.974,1,,,,,,-0.374074074,-0.248148148,1,0,0,3.974,Andesite_rect,8,0,8,0,1,
66465c850d9a3e177f2649fa,TCR,2024-06-11_13h11.04.090,LearnStrategy,2023.2.3,Win32,60.0240096,7,2,10,,,,,,,,3,12,,,,,,,,,,,6,6.135,0,,,,,,-0.125,-0.405555556,1,0,0,6.135,Pegmatite_rect,9,0,9,0,1,
66465c850d9a3e177f2649fa,TCR,2024-06-11_13h11.04.090,LearnStrategy,2023.2.3,Win32,60.0240096,7,2,11,,,,,,,,5,09,,,,,,,,,,,5,1.037,1,,,,,,-0.393518519,-0.402777778,1,0,0,1.037,Obsidian_rect,10,0,10,0,1,
66465c850d9a3e177f2649fa,TCR,2024-06-11_13h11.04.090,LearnStrategy,2023.2.3,Win32,60.0240096,7,2,12,,,,,,,,2,12,,,,,,,,,,,2,1.917,1,,,,,,-0.114814815,-0.248148148,1,0,0,1.917,Basalt_rect,11,0,11,0,1,
66465c850d9a3e177f2649fa,TCR,2024-06-11_13h11.04.090,LearnStrategy,2023.2.3,Win32,60.0240096,7,2,13,,,,,,,,1,03,,,,,,,,,,,1,1.404,1,,,,,,-0.381481481,-0.244444444,1,0,0,1.404,Andesite_rect,12,0,12,0,1,
66465c850d9a3e177f2649fa,TCR,2024-06-11_13h11.04.090,LearnStrategy,2023.2.3,Win32,60.0240096,7,2,14,,,,,,,,8,14,,,,,,,,,,,8,0.991,1,,,,,,0.40462963,-0.403703704,1,0,0,0.991,Pumice_rect,13,0,13,0,1,
66465c850d9a3e177f2649fa,TCR,2024-06-11_13h11.04.090,LearnStrategy,2023.2.3,Win32,60.0240096,7,2,15,,,,,,,,6,16,,,,,,,,,,,6,2.628,1,,,,,,-0.12962963,-0.406481481,1,0,0,2.628,Pegmatite_rect,14,0,14,0,1,
66465c850d9a3e177f2649fa,TCR,2024-06-11_13h11.04.090,LearnStrategy,2023.2.3,Win32,60.0240096,7,2,16,,,,,,,,4,14,,,,,,,,,,,4,2.135,1,,,,,,0.377777778,-0.251851852,1,0,0,2.135,Gabbro_rect,15,0,15,0,1,
66465c850d9a3e177f2649fa,TCR,2024-06-11_13h11.04.090,LearnStrategy,2023.2.3,Win32,60.0240096,8,1,1,-0.077777778,-0.015740741,1,0,0,0.629,rock_grid_rect_2,1,01,-1,-1,0.629,0.368518519,-0.247222222,1,0,0,5.493,Gabbro_rect,4,5.493,0,0,0,0,0,1,,,,,,,,,,,,,
66465c850d9a3e177f2649fa,TCR,2024-06-11_13h11.04.090,LearnStrategy,2023.2.3,Win32,60.0240096,8,1,2,-0.066666667,-0.021296296,1,0,0,0.81,rock_grid_rect_2,6,07,-1,-1,0.81,-0.112037037,-0.40462963,1,0,0,1.295,Pegmatite_rect,6,1.295,1,1,0,1,0,1,,,,,,,,,,,,,
66465c850d9a3e177f2649fa,TCR,2024-06-11_13h11.04.090,LearnStrategy,2023.2.3,Win32,60.0240096,8,1,3,-0.040740741,-0.003703704,1,0,0,0.78,rock_grid_rect_2,5,08,-1,-1,0.78,-0.385185185,-0.400925926,1,0,0,1.16,Obsidian_rect,5,1.16,1,2,0,2,0,1,,,,,,,,,,,,,
66465c850d9a3e177f2649fa,TCR,2024-06-11_13h11.04.090,LearnStrategy,2023.2.3,Win32,60.0240096,8,1,4,0.011111111,0.001851852,1,0,0,0.831,rock_grid_rect_2,6,09,-1,-1,0.831,-0.090740741,-0.398148148,1,0,0,1.298,Pegmatite_rect,6,1.298,1,3,0,3,0,1,,,,,,,,,,,,,
66465c850d9a3e177f2649fa,TCR,2024-06-11_13h11.04.090,LearnStrategy,2023.2.3,Win32,60.0240096,8,1,5,0.001851852,-0.018518519,1,0,0,0.648,rock_grid_rect_2,6,15,-1,-1,0.648,-0.111111111,-0.408333333,1,0,0,0.978,Pegmatite_rect,6,0.978,1,4,0,4,0,1,,,,,,,,,,,,,
66465c850d9a3e177f2649fa,TCR,2024-06-11_13h11.04.090,LearnStrategy,2023.2.3,Win32,60.0240096,8,1,6,-0.059259259,0.014814815,1,0,0,0.632,rock_grid_rect_2,7,14,-1,-1,0.632,-0.4,-0.249074074,1,0,0,3.739,Andesite_rect,1,3.739,0,5,0,5,0,1,,,,,,,,,,,,,
66465c850d9a3e177f2649fa,TCR,2024-06-11_13h11.04.090,LearnStrategy,2023.2.3,Win32,60.0240096,8,1,7,-0.015740741,-0.012962963,1,0,0,0.665,rock_grid_rect_2,8,09,-1,-1,0.665,0.390740741,-0.399074074,1,0,0,1.155,Pumice_rect,8,1.155,1,6,0,6,0,1,,,,,,,,,,,,,
66465c850d9a3e177f2649fa,TCR,2024-06-11_13h11.04.090,LearnStrategy,2023.2.3,Win32,60.0240096,8,1,8,-0.02962963,-0.010185185,1,0,0,0.799,rock_grid_rect_2,3,06,-1,-1,0.799,0.12962963,-0.247222222,1,0,0,2.46,Diorite_rect,3,2.46,1,7,0,7,0,1,,,,,,,,,,,,,
66465c850d9a3e177f2649fa,TCR,2024-06-11_13h11.04.090,LearnStrategy,2023.2.3,Win32,60.0240096,8,1,9,0.000925926,-0.012962963,1,0,0,0.547,rock_grid_rect_2,2,05,-1,-1,0.547,-0.14537037,-0.252777778,1,0,0,1.034,Basalt_rect,2,1.034,1,8,0,8,0,1,,,,,,,,,,,,,
66465c850d9a3e177f2649fa,TCR,2024-06-11_13h11.04.090,LearnStrategy,2023.2.3,Win32,60.0240096,8,1,10,-0.034259259,-0.001851852,1,0,0,0.581,rock_grid_rect_2,4,16,-1,-1,0.581,0.37962963,-0.263888889,1,0,0,0.962,Gabbro_rect,4,0.962,1,9,0,9,0,1,,,,,,,,,,,,,
66465c850d9a3e177f2649fa,TCR,2024-06-11_13h11.04.090,LearnStrategy,2023.2.3,Win32,60.0240096,8,1,11,0.006481481,-0.012037037,1,0,0,0.609,rock_grid_rect_2,4,15,-1,-1,0.609,0.362962963,-0.250925926,1,0,0,2.335,Gabbro_rect,4,2.335,1,10,0,10,0,1,,,,,,,,,,,,,
66465c850d9a3e177f2649fa,TCR,2024-06-11_13h11.04.090,LearnStrategy,2023.2.3,Win32,60.0240096,8,1,12,-0.021296296,-0.014814815,1,0,0,0.898,rock_grid_rect_2,3,10,-1,-1,0.898,0.153703704,-0.240740741,1,0,0,3.118,Diorite_rect,3,3.118,1,11,0,11,0,1,,,,,,,,,,,,,
66465c850d9a3e177f2649fa,TCR,2024-06-11_13h11.04.090,LearnStrategy,2023.2.3,Win32,60.0240096,8,1,13,-0.007407407,0.02037037,1,0,0,0.497,rock_grid_rect_2,2,01,-1,-1,0.497,-0.107407407,-0.247222222,1,0,0,1.209,Basalt_rect,2,1.209,1,12,0,12,0,1,,,,,,,,,,,,,
66465c850d9a3e177f2649fa,TCR,2024-06-11_13h11.04.090,LearnStrategy,2023.2.3,Win32,60.0240096,8,1,14,-0.02037037,-0.002777778,1,0,0,0.715,rock_grid_rect_2,1,09,-1,-1,0.715,-0.366666667,-0.24537037,1,0,0,1.613,Andesite_rect,1,1.613,1,13,0,13,0,1,,,,,,,,,,,,,
66465c850d9a3e177f2649fa,TCR,2024-06-11_13h11.04.090,LearnStrategy,2023.2.3,Win32,60.0240096,8,1,15,-0.005555556,-0.022222222,1,0,0,0.649,rock_grid_rect_2,6,11,-1,-1,0.649,-0.116666667,-0.405555556,1,0,0,1.052,Pegmatite_rect,6,1.052,1,14,0,14,0,1,,,,,,,,,,,,,
66465c850d9a3e177f2649fa,TCR,2024-06-11_13h11.04.090,LearnStrategy,2023.2.3,Win32,60.0240096,8,1,16,-0.014814815,-0.011111111,1,0,0,0.631,rock_grid_rect_2,3,13,-1,-1,0.631,-0.096296296,-0.412037037,1,0,0,2.633,Pegmatite_rect,6,2.633,0,15,0,15,0,1,,,,,,,,,,,,,
66465c850d9a3e177f2649fa,TCR,2024-06-11_13h11.04.090,LearnStrategy,2023.2.3,Win32,60.0240096,8,2,1,,,,,,,,1,07,,,,,,,,,,,1,5.327,1,,,,,,-0.376851852,-0.25,1,0,0,5.327,Andesite_rect,0,0,0,0,1,
66465c850d9a3e177f2649fa,TCR,2024-06-11_13h11.04.090,LearnStrategy,2023.2.3,Win32,60.0240096,8,2,2,,,,,,,,5,12,,,,,,,,,,,5,0.992,1,,,,,,-0.394444444,-0.407407407,1,0,0,0.992,Obsidian_rect,1,0,1,0,1,
66465c850d9a3e177f2649fa,TCR,2024-06-11_13h11.04.090,LearnStrategy,2023.2.3,Win32,60.0240096,8,2,3,,,,,,,,3,02,,,,,,,,,,,3,1.416,1,,,,,,0.117592593,-0.251851852,1,0,0,1.416,Diorite_rect,2,0,2,0,1,
66465c850d9a3e177f2649fa,TCR,2024-06-11_13h11.04.090,LearnStrategy,2023.2.3,Win32,60.0240096,8,2,4,,,,,,,,7,15,,,,,,,,,,,7,1.116,1,,,,,,0.086111111,-0.400925926,1,0,0,1.116,Peridotite_rect,3,0,3,0,1,
66465c850d9a3e177f2649fa,TCR,2024-06-11_13h11.04.090,LearnStrategy,2023.2.3,Win32,60.0240096,8,2,5,,,,,,,,8,15,,,,,,,,,,,8,1.508,1,,,,,,0.352777778,-0.391666667,1,0,0,1.508,Pumice_rect,4,0,4,0,1,
66465c850d9a3e177f2649fa,TCR,2024-06-11_13h11.04.090,LearnStrategy,2023.2.3,Win32,60.0240096,8,2,6,,,,,,,,2,14,,,,,,,,,,,4,4.064,0,,,,,,0.367592593,-0.250925926,1,0,0,4.064,Gabbro_rect,5,0,5,0,1,
66465c850d9a3e177f2649fa,TCR,2024-06-11_13h11.04.090,LearnStrategy,2023.2.3,Win32,60.0240096,8,2,7,,,,,,,,7,07,,,,,,,,,,,7,1.494,1,,,,,,0.109259259,-0.416666667,1,0,0,1.494,Peridotite_rect,6,0,6,0,1,
66465c850d9a3e177f2649fa,TCR,2024-06-11_13h11.04.090,LearnStrategy,2023.2.3,Win32,60.0240096,8,2,8,,,,,,,,1,14,,,,,,,,,,,1,5.838,1,,,,,,-0.388888889,-0.24537037,1,0,0,5.838,Andesite_rect,7,0,7,0,1,
66465c850d9a3e177f2649fa,TCR,2024-06-11_13h11.04.090,LearnStrategy,2023.2.3,Win32,60.0240096,8,2,9,,,,,,,,6,08,,,,,,,,,,,6,2.016,1,,,,,,-0.117592593,-0.386111111,1,0,0,2.016,Pegmatite_rect,8,0,8,0,1,
66465c850d9a3e177f2649fa,TCR,2024-06-11_13h11.04.090,LearnStrategy,2023.2.3,Win32,60.0240096,8,2,10,,,,,,,,2,09,,,,,,,,,,,2,3.077,1,,,,,,-0.100925926,-0.252777778,1,0,0,3.077,Basalt_rect,9,0,9,0,1,
66465c850d9a3e177f2649fa,TCR,2024-06-11_13h11.04.090,LearnStrategy,2023.2.3,Win32,60.0240096,8,2,11,,,,,,,,3,09,,,,,,,,,,,3,1.472,1,,,,,,0.142592593,-0.264814815,1,0,0,1.472,Diorite_rect,10,0,10,0,1,
66465c850d9a3e177f2649fa,TCR,2024-06-11_13h11.04.090,LearnStrategy,2023.2.3,Win32,60.0240096,8,2,12,,,,,,,,8,02,,,,,,,,,,,8,1.058,1,,,,,,0.337037037,-0.394444444,1,0,0,1.058,Pumice_rect,11,0,11,0,1,
66465c850d9a3e177f2649fa,TCR,2024-06-11_13h11.04.090,LearnStrategy,2023.2.3,Win32,60.0240096,8,2,13,,,,,,,,6,06,,,,,,,,,,,6,5.912,1,,,,,,-0.173148148,-0.385185185,1,0,0,5.912,Pegmatite_rect,12,0,12,0,1,
66465c850d9a3e177f2649fa,TCR,2024-06-11_13h11.04.090,LearnStrategy,2023.2.3,Win32,60.0240096,8,2,14,,,,,,,,5,16,,,,,,,,,,,5,1.015,1,,,,,,-0.415740741,-0.415740741,1,0,0,1.015,Obsidian_rect,13,0,13,0,1,
66465c850d9a3e177f2649fa,TCR,2024-06-11_13h11.04.090,LearnStrategy,2023.2.3,Win32,60.0240096,8,2,15,,,,,,,,4,10,,,,,,,,,,,4,2.915,1,,,,,,0.353703704,-0.24537037,1,0,0,2.915,Gabbro_rect,14,0,14,0,1,
66465c850d9a3e177f2649fa,TCR,2024-06-11_13h11.04.090,LearnStrategy,2023.2.3,Win32,60.0240096,8,2,16,,,,,,,,4,08,,,,,,,,,,,4,1.843,1,,,,,,0.377777778,-0.246296296,1,0,0,1.843,Gabbro_rect,15,0,15,0,1,
66465c850d9a3e177f2649fa,TCR,2024-06-11_13h11.04.090,LearnStrategy,2023.2.3,Win32,60.0240096,9,1,1,-0.076851852,-0.00462963,1,0,0,0.68,rock_grid_rect_2,3,10,-1,-1,0.68,0.083333333,-0.246296296,1,0,0,2.754,Diorite_rect,3,2.754,1,0,0,0,0,1,,,,,,,,,,,,,
66465c850d9a3e177f2649fa,TCR,2024-06-11_13h11.04.090,LearnStrategy,2023.2.3,Win32,60.0240096,9,1,2,-0.010185185,-0.011111111,1,0,0,0.565,rock_grid_rect_2,2,06,-1,-1,0.565,-0.152777778,-0.266666667,1,0,0,0.925,Basalt_rect,2,0.925,1,1,0,1,0,1,,,,,,,,,,,,,
66465c850d9a3e177f2649fa,TCR,2024-06-11_13h11.04.090,LearnStrategy,2023.2.3,Win32,60.0240096,9,1,3,-0.026851852,-0.002777778,1,0,0,0.581,rock_grid_rect_2,5,14,-1,-1,0.581,-0.373148148,-0.40462963,1,0,0,0.985,Obsidian_rect,5,0.985,1,2,0,2,0,1,,,,,,,,,,,,,
66465c850d9a3e177f2649fa,TCR,2024-06-11_13h11.04.090,LearnStrategy,2023.2.3,Win32,60.0240096,9,1,4,-0.013888889,-0.00462963,1,0,0,0.58,rock_grid_rect_2,6,09,-1,-1,0.58,-0.100925926,-0.403703704,1,0,0,1.609,Pegmatite_rect,6,1.609,1,3,0,3,0,1,,,,,,,,,,,,,
66465c850d9a3e177f2649fa,TCR,2024-06-11_13h11.04.090,LearnStrategy,2023.2.3,Win32,60.0240096,9,1,5,0.025,0.002777778,1,0,0,0.598,rock_grid_rect_2,4,16,-1,-1,0.598,0.37037037,-0.241666667,1,0,0,1.575,Gabbro_rect,4,1.575,1,4,0,4,0,1,,,,,,,,,,,,,
66465c850d9a3e177f2649fa,TCR,2024-06-11_13h11.04.090,LearnStrategy,2023.2.3,Win32,60.0240096,9,1,6,0.005555556,0.000925926,1,0,0,0.548,rock_grid_rect_2,1,01,-1,-1,0.548,0.138888889,-0.253703704,1,0,0,2.854,Diorite_rect,3,2.854,0,5,0,5,0,1,,,,,,,,,,,,,
66465c850d9a3e177f2649fa,TCR,2024-06-11_13h11.04.090,LearnStrategy,2023.2.3,Win32,60.0240096,9,1,7,-0.021296296,-0.010185185,1,0,0,0.578,rock_grid_rect_2,2,04,-1,-1,0.578,-0.091666667,-0.252777778,1,0,0,1.576,Basalt_rect,2,1.576,1,6,0,6,0,1,,,,,,,,,,,,,
66465c850d9a3e177f2649fa,TCR,2024-06-11_13h11.04.090,LearnStrategy,2023.2.3,Win32,60.0240096,9,1,8,-0.019444444,0.015740741,1,0,0,0.531,rock_grid_rect_2,3,07,-1,-1,0.531,0.105555556,-0.259259259,1,0,0,1.046,Diorite_rect,3,1.046,1,7,0,7,0,1,,,,,,,,,,,,,
66465c850d9a3e177f2649fa,TCR,2024-06-11_13h11.04.090,LearnStrategy,2023.2.3,Win32,60.0240096,9,1,9,-0.000925926,-0.003703704,1,0,0,0.563,rock_grid_rect_2,4,13,-1,-1,0.563,0.369444444,-0.248148148,1,0,0,0.978,Gabbro_rect,4,0.978,1,8,0,8,0,1,,,,,,,,,,,,,
66465c850d9a3e177f2649fa,TCR,2024-06-11_13h11.04.090,LearnStrategy,2023.2.3,Win32,60.0240096,9,1,10,-0.001851852,0.002777778,1,0,0,0.614,rock_grid_rect_2,8,10,-1,-1,0.614,0.349074074,-0.401851852,1,0,0,1.297,Pumice_rect,8,1.297,1,9,0,9,0,1,,,,,,,,,,,,,
66465c850d9a3e177f2649fa,TCR,2024-06-11_13h11.04.090,LearnStrategy,2023.2.3,Win32,60.0240096,9,1,11,0.024074074,-0.007407407,1,0,0,0.548,rock_grid_rect_2,3,14,-1,-1,0.548,0.083333333,-0.247222222,1,0,0,1.071,Diorite_rect,3,1.071,1,10,0,10,0,1,,,,,,,,,,,,,
66465c850d9a3e177f2649fa,TCR,2024-06-11_13h11.04.090,LearnStrategy,2023.2.3,Win32,60.0240096,9,1,12,0.008333333,0.012962963,1,0,0,0.547,rock_grid_rect_2,2,10,-1,-1,0.547,-0.100925926,-0.247222222,1,0,0,0.791,Basalt_rect,2,0.791,1,11,0,11,0,1,,,,,,,,,,,,,
66465c850d9a3e177f2649fa,TCR,2024-06-11_13h11.04.090,LearnStrategy,2023.2.3,Win32,60.0240096,9,1,13,-0.011111111,-0.009259259,1,0,0,0.547,rock_grid_rect_2,6,13,-1,-1,0.547,-0.112037037,-0.408333333,1,0,0,1.092,Pegmatite_rect,6,1.092,1,12,0,12,0,1,,,,,,,,,,,,,
66465c850d9a3e177f2649fa,TCR,2024-06-11_13h11.04.090,LearnStrategy,2023.2.3,Win32,60.0240096,9,1,14,-0.035185185,0.014814815,1,0,0,0.548,rock_grid_rect_2,1,10,-1,-1,0.548,0.381481481,-0.230555556,1,0,0,1.703,Gabbro_rect,4,1.703,0,13,0,13,0,1,,,,,,,,,,,,,
66465c850d9a3e177f2649fa,TCR,2024-06-11_13h11.04.090,LearnStrategy,2023.2.3,Win32,60.0240096,9,1,15,-0.025925926,0.000925926,1,0,0,0.547,rock_grid_rect_2,7,04,-1,-1,0.547,0.090740741,-0.37962963,1,0,0,1.091,Peridotite_rect,7,1.091,1,14,0,14,0,1,,,,,,,,,,,,,
66465c850d9a3e177f2649fa,TCR,2024-06-11_13h11.04.090,LearnStrategy,2023.2.3,Win32,60.0240096,9,1,16,-0.00462963,-0.014814815,1,0,0,0.915,rock_grid_rect_2,6,15,-1,-1,0.915,-0.132407407,-0.417592593,1,0,0,0.949,Pegmatite_rect,6,0.949,1,15,0,15,0,1,,,,,,,,,,,,,
66465c850d9a3e177f2649fa,TCR,2024-06-11_13h11.04.090,LearnStrategy,2023.2.3,Win32,60.0240096,9,2,1,,,,,,,,2,11,,,,,,,,,,,1,5.006,0,,,,,,-0.403703704,-0.25,1,0,0,5.006,Andesite_rect,0,0,0,0,1,
66465c850d9a3e177f2649fa,TCR,2024-06-11_13h11.04.090,LearnStrategy,2023.2.3,Win32,60.0240096,9,2,2,,,,,,,,6,10,,,,,,,,,,,6,1.547,1,,,,,,-0.114814815,-0.401851852,1,0,0,1.547,Pegmatite_rect,1,0,1,0,1,
66465c850d9a3e177f2649fa,TCR,2024-06-11_13h11.04.090,LearnStrategy,2023.2.3,Win32,60.0240096,9,2,3,,,,,,,,3,16,,,,,,,,,,,3,0.951,1,,,,,,0.112962963,-0.253703704,1,0,0,0.951,Diorite_rect,2,0,2,0,1,
66465c850d9a3e177f2649fa,TCR,2024-06-11_13h11.04.090,LearnStrategy,2023.2.3,Win32,60.0240096,9,2,4,,,,,,,,5,05,,,,,,,,,,,5,1.062,1,,,,,,-0.394444444,-0.413888889,1,0,0,1.062,Obsidian_rect,3,0,3,0,1,
66465c850d9a3e177f2649fa,TCR,2024-06-11_13h11.04.090,LearnStrategy,2023.2.3,Win32,60.0240096,9,2,5,,,,,,,,8,06,,,,,,,,,,,8,0.998,1,,,,,,0.375925926,-0.411111111,1,0,0,0.998,Pumice_rect,4,0,4,0,1,
66465c850d9a3e177f2649fa,TCR,2024-06-11_13h11.04.090,LearnStrategy,2023.2.3,Win32,60.0240096,9,2,6,,,,,,,,7,12,,,,,,,,,,,7,1.703,1,,,,,,0.109259259,-0.399074074,1,0,0,1.703,Peridotite_rect,5,0,5,0,1,
66465c850d9a3e177f2649fa,TCR,2024-06-11_13h11.04.090,LearnStrategy,2023.2.3,Win32,60.0240096,9,2,7,,,,,,,,5,11,,,,,,,,,,,5,0.895,1,,,,,,-0.387962963,-0.383333333,1,0,0,0.895,Obsidian_rect,6,0,6,0,1,
66465c850d9a3e177f2649fa,TCR,2024-06-11_13h11.04.090,LearnStrategy,2023.2.3,Win32,60.0240096,9,2,8,,,,,,,,4,09,,,,,,,,,,,4,2.648,1,,,,,,0.357407407,-0.242592593,1,0,0,2.648,Gabbro_rect,7,0,7,0,1,
66465c850d9a3e177f2649fa,TCR,2024-06-11_13h11.04.090,LearnStrategy,2023.2.3,Win32,60.0240096,9,2,9,,,,,,,,1,06,,,,,,,,,,,1,4.827,1,,,,,,-0.401851852,-0.251851852,1,0,0,4.827,Andesite_rect,8,0,8,0,1,
66465c850d9a3e177f2649fa,TCR,2024-06-11_13h11.04.090,LearnStrategy,2023.2.3,Win32,60.0240096,9,2,10,,,,,,,,1,16,,,,,,,,,,,1,1.728,1,,,,,,-0.375925926,-0.261111111,1,0,0,1.728,Andesite_rect,9,0,9,0,1,
66465c850d9a3e177f2649fa,TCR,2024-06-11_13h11.04.090,LearnStrategy,2023.2.3,Win32,60.0240096,9,2,11,,,,,,,,6,03,,,,,,,,,,,6,2.343,1,,,,,,-0.1,-0.409259259,1,0,0,2.343,Pegmatite_rect,10,0,10,0,1,
66465c850d9a3e177f2649fa,TCR,2024-06-11_13h11.04.090,LearnStrategy,2023.2.3,Win32,60.0240096,9,2,12,,,,,,,,2,02,,,,,,,,,,,2,1.014,1,,,,,,-0.133333333,-0.262962963,1,0,0,1.014,Basalt_rect,11,0,11,0,1,
66465c850d9a3e177f2649fa,TCR,2024-06-11_13h11.04.090,LearnStrategy,2023.2.3,Win32,60.0240096,9,2,13,,,,,,,,8,13,,,,,,,,,,,8,1.218,1,,,,,,0.375925926,-0.4,1,0,0,1.218,Pumice_rect,12,0,12,0,1,
66465c850d9a3e177f2649fa,TCR,2024-06-11_13h11.04.090,LearnStrategy,2023.2.3,Win32,60.0240096,9,2,14,,,,,,,,3,11,,,,,,,,,,,3,1.168,1,,,,,,0.119444444,-0.256481481,1,0,0,1.168,Diorite_rect,13,0,13,0,1,
66465c850d9a3e177f2649fa,TCR,2024-06-11_13h11.04.090,LearnStrategy,2023.2.3,Win32,60.0240096,9,2,15,,,,,,,,4,01,,,,,,,,,,,4,1.721,1,,,,,,0.383333333,-0.248148148,1,0,0,1.721,Gabbro_rect,14,0,14,0,1,
66465c850d9a3e177f2649fa,TCR,2024-06-11_13h11.04.090,LearnStrategy,2023.2.3,Win32,60.0240096,9,2,16,,,,,,,,7,06,,,,,,,,,,,7,1.455,1,,,,,,0.12037037,-0.399074074,1,0,0,1.455,Peridotite_rect,15,0,15,0,1,
66465c850d9a3e177f2649fa,TCR,2024-06-11_13h11.04.090,LearnStrategy,2023.2.3,Win32,60.0240096,,,,,,,,,,,,,,,,,,,,,,,,,,,,,,,,,,,,,,,,,,,1
66465c850d9a3e177f2649fa,TCR,2024-06-11_13h11.04.090,LearnStrategy,2023.2.3,Win32,60.0240096,,,,,,,,,,,,,,,,,,,,,,,,,,,,,,,,,,,,,,,,,,,
66465c850d9a3e177f2649fa,TCR,2024-06-11_13h11.04.090,LearnStrategy,2023.2.3,Win32,60.0240096,,,,,,,,,,,7,08,1,1,,,,,,,,,,,,,,,,,,,,,,,,,,,,,
66465c850d9a3e177f2649fa,TCR,2024-06-11_13h11.04.090,LearnStrategy,2023.2.3,Win32,60.0240096,,,,,,,,,,,1,05,1,2,,,,,,,,,,,,,,,,,,,,,,,,,,,,,
66465c850d9a3e177f2649fa,TCR,2024-06-11_13h11.04.090,LearnStrategy,2023.2.3,Win32,60.0240096,,,,,,,,,,,5,07,1,3,,,,,,,,,,,,,,,,,,,,,,,,,,,,,
66465c850d9a3e177f2649fa,TCR,2024-06-11_13h11.04.090,LearnStrategy,2023.2.3,Win32,60.0240096,,,,,,,,,,,1,09,1,4,,,,,,,,,,,,,,,,,,,,,,,,,,,,,
66465c850d9a3e177f2649fa,TCR,2024-06-11_13h11.04.090,LearnStrategy,2023.2.3,Win32,60.0240096,,,,,,,,,,,8,16,1,5,,,,,,,,,,,,,,,,,,,,,,,,,,,,,
66465c850d9a3e177f2649fa,TCR,2024-06-11_13h11.04.090,LearnStrategy,2023.2.3,Win32,60.0240096,,,,,,,,,,,6,09,1,6,,,,,,,,,,,,,,,,,,,,,,,,,,,,,
66465c850d9a3e177f2649fa,TCR,2024-06-11_13h11.04.090,LearnStrategy,2023.2.3,Win32,60.0240096,,,,,,,,,,,8,04,1,7,,,,,,,,,,,,,,,,,,,,,,,,,,,,,
66465c850d9a3e177f2649fa,TCR,2024-06-11_13h11.04.090,LearnStrategy,2023.2.3,Win32,60.0240096,,,,,,,,,,,4,11,1,8,,,,,,,,,,,,,,,,,,,,,,,,,,,,,
66465c850d9a3e177f2649fa,TCR,2024-06-11_13h11.04.090,LearnStrategy,2023.2.3,Win32,60.0240096,,,,,,,,,,,1,04,2,1,,,,,,,,,,,,,,,,,,,,,,,,,,,,,
66465c850d9a3e177f2649fa,TCR,2024-06-11_13h11.04.090,LearnStrategy,2023.2.3,Win32,60.0240096,,,,,,,,,,,7,05,2,2,,,,,,,,,,,,,,,,,,,,,,,,,,,,,
66465c850d9a3e177f2649fa,TCR,2024-06-11_13h11.04.090,LearnStrategy,2023.2.3,Win32,60.0240096,,,,,,,,,,,2,05,2,3,,,,,,,,,,,,,,,,,,,,,,,,,,,,,
66465c850d9a3e177f2649fa,TCR,2024-06-11_13h11.04.090,LearnStrategy,2023.2.3,Win32,60.0240096,,,,,,,,,,,2,04,2,4,,,,,,,,,,,,,,,,,,,,,,,,,,,,,
66465c850d9a3e177f2649fa,TCR,2024-06-11_13h11.04.090,LearnStrategy,2023.2.3,Win32,60.0240096,,,,,,,,,,,1,10,2,5,,,,,,,,,,,,,,,,,,,,,,,,,,,,,
66465c850d9a3e177f2649fa,TCR,2024-06-11_13h11.04.090,LearnStrategy,2023.2.3,Win32,60.0240096,,,,,,,,,,,5,10,2,6,,,,,,,,,,,,,,,,,,,,,,,,,,,,,
66465c850d9a3e177f2649fa,TCR,2024-06-11_13h11.04.090,LearnStrategy,2023.2.3,Win32,60.0240096,,,,,,,,,,,6,07,2,7,,,,,,,,,,,,,,,,,,,,,,,,,,,,,
66465c850d9a3e177f2649fa,TCR,2024-06-11_13h11.04.090,LearnStrategy,2023.2.3,Win32,60.0240096,,,,,,,,,,,8,05,2,8,,,,,,,,,,,,,,,,,,,,,,,,,,,,,
66465c850d9a3e177f2649fa,TCR,2024-06-11_13h11.04.090,LearnStrategy,2023.2.3,Win32,60.0240096,,,,,,,,,,,2,06,3,1,,,,,,,,,,,,,,,,,,,,,,,,,,,,,
66465c850d9a3e177f2649fa,TCR,2024-06-11_13h11.04.090,LearnStrategy,2023.2.3,Win32,60.0240096,,,,,,,,,,,3,13,3,2,,,,,,,,,,,,,,,,,,,,,,,,,,,,,
66465c850d9a3e177f2649fa,TCR,2024-06-11_13h11.04.090,LearnStrategy,2023.2.3,Win32,60.0240096,,,,,,,,,,,6,11,3,3,,,,,,,,,,,,,,,,,,,,,,,,,,,,,
66465c850d9a3e177f2649fa,TCR,2024-06-11_13h11.04.090,LearnStrategy,2023.2.3,Win32,60.0240096,,,,,,,,,,,3,10,3,4,,,,,,,,,,,,,,,,,,,,,,,,,,,,,
66465c850d9a3e177f2649fa,TCR,2024-06-11_13h11.04.090,LearnStrategy,2023.2.3,Win32,60.0240096,,,,,,,,,,,6,13,3,5,,,,,,,,,,,,,,,,,,,,,,,,,,,,,
66465c850d9a3e177f2649fa,TCR,2024-06-11_13h11.04.090,LearnStrategy,2023.2.3,Win32,60.0240096,,,,,,,,,,,4,12,3,6,,,,,,,,,,,,,,,,,,,,,,,,,,,,,
66465c850d9a3e177f2649fa,TCR,2024-06-11_13h11.04.090,LearnStrategy,2023.2.3,Win32,60.0240096,,,,,,,,,,,2,10,3,7,,,,,,,,,,,,,,,,,,,,,,,,,,,,,
66465c850d9a3e177f2649fa,TCR,2024-06-11_13h11.04.090,LearnStrategy,2023.2.3,Win32,60.0240096,,,,,,,,,,,6,15,3,8,,,,,,,,,,,,,,,,,,,,,,,,,,,,,
66465c850d9a3e177f2649fa,TCR,2024-06-11_13h11.04.090,LearnStrategy,2023.2.3,Win32,60.0240096,,,,,,,,,,,5,06,4,1,,,,,,,,,,,,,,,,,,,,,,,,,,,,,
66465c850d9a3e177f2649fa,TCR,2024-06-11_13h11.04.090,LearnStrategy,2023.2.3,Win32,60.0240096,,,,,,,,,,,3,06,4,2,,,,,,,,,,,,,,,,,,,,,,,,,,,,,
66465c850d9a3e177f2649fa,TCR,2024-06-11_13h11.04.090,LearnStrategy,2023.2.3,Win32,60.0240096,,,,,,,,,,,3,08,4,3,,,,,,,,,,,,,,,,,,,,,,,,,,,,,
66465c850d9a3e177f2649fa,TCR,2024-06-11_13h11.04.090,LearnStrategy,2023.2.3,Win32,60.0240096,,,,,,,,,,,7,14,4,4,,,,,,,,,,,,,,,,,,,,,,,,,,,,,
66465c850d9a3e177f2649fa,TCR,2024-06-11_13h11.04.090,LearnStrategy,2023.2.3,Win32,60.0240096,,,,,,,,,,,7,10,4,5,,,,,,,,,,,,,,,,,,,,,,,,,,,,,
66465c850d9a3e177f2649fa,TCR,2024-06-11_13h11.04.090,LearnStrategy,2023.2.3,Win32,60.0240096,,,,,,,,,,,4,13,4,6,,,,,,,,,,,,,,,,,,,,,,,,,,,,,
66465c850d9a3e177f2649fa,TCR,2024-06-11_13h11.04.090,LearnStrategy,2023.2.3,Win32,60.0240096,,,,,,,,,,,4,16,4,7,,,,,,,,,,,,,,,,,,,,,,,,,,,,,
66465c850d9a3e177f2649fa,TCR,2024-06-11_13h11.04.090,LearnStrategy,2023.2.3,Win32,60.0240096,,,,,,,,,,,7,04,4,8,,,,,,,,,,,,,,,,,,,,,,,,,,,,,
66465c850d9a3e177f2649fa,TCR,2024-06-11_13h11.04.090,LearnStrategy,2023.2.3,Win32,60.0240096,,,,,,,,,,,2,01,5,1,,,,,,,,,,,,,,,,,,,,,,,,,,,,,
66465c850d9a3e177f2649fa,TCR,2024-06-11_13h11.04.090,LearnStrategy,2023.2.3,Win32,60.0240096,,,,,,,,,,,8,10,5,2,,,,,,,,,,,,,,,,,,,,,,,,,,,,,
66465c850d9a3e177f2649fa,TCR,2024-06-11_13h11.04.090,LearnStrategy,2023.2.3,Win32,60.0240096,,,,,,,,,,,1,11,5,3,,,,,,,,,,,,,,,,,,,,,,,,,,,,,
66465c850d9a3e177f2649fa,TCR,2024-06-11_13h11.04.090,LearnStrategy,2023.2.3,Win32,60.0240096,,,,,,,,,,,1,01,5,4,,,,,,,,,,,,,,,,,,,,,,,,,,,,,
66465c850d9a3e177f2649fa,TCR,2024-06-11_13h11.04.090,LearnStrategy,2023.2.3,Win32,60.0240096,,,,,,,,,,,4,15,5,5,,,,,,,,,,,,,,,,,,,,,,,,,,,,,
66465c850d9a3e177f2649fa,TCR,2024-06-11_13h11.04.090,LearnStrategy,2023.2.3,Win32,60.0240096,,,,,,,,,,,5,02,5,6,,,,,,,,,,,,,,,,,,,,,,,,,,,,,
66465c850d9a3e177f2649fa,TCR,2024-06-11_13h11.04.090,LearnStrategy,2023.2.3,Win32,60.0240096,,,,,,,,,,,4,05,5,7,,,,,,,,,,,,,,,,,,,,,,,,,,,,,
66465c850d9a3e177f2649fa,TCR,2024-06-11_13h11.04.090,LearnStrategy,2023.2.3,Win32,60.0240096,,,,,,,,,,,8,09,5,8,,,,,,,,,,,,,,,,,,,,,,,,,,,,,
66465c850d9a3e177f2649fa,TCR,2024-06-11_13h11.04.090,LearnStrategy,2023.2.3,Win32,60.0240096,,,,,,,,,,,5,14,6,1,,,,,,,,,,,,,,,,,,,,,,,,,,,,,
66465c850d9a3e177f2649fa,TCR,2024-06-11_13h11.04.090,LearnStrategy,2023.2.3,Win32,60.0240096,,,,,,,,,,,2,16,6,2,,,,,,,,,,,,,,,,,,,,,,,,,,,,,
66465c850d9a3e177f2649fa,TCR,2024-06-11_13h11.04.090,LearnStrategy,2023.2.3,Win32,60.0240096,,,,,,,,,,,3,14,6,3,,,,,,,,,,,,,,,,,,,,,,,,,,,,,
66465c850d9a3e177f2649fa,TCR,2024-06-11_13h11.04.090,LearnStrategy,2023.2.3,Win32,60.0240096,,,,,,,,,,,7,13,6,4,,,,,,,,,,,,,,,,,,,,,,,,,,,,,
66465c850d9a3e177f2649fa,TCR,2024-06-11_13h11.04.090,LearnStrategy,2023.2.3,Win32,60.0240096,,,,,,,,,,,3,07,6,5,,,,,,,,,,,,,,,,,,,,,,,,,,,,,
66465c850d9a3e177f2649fa,TCR,2024-06-11_13h11.04.090,LearnStrategy,2023.2.3,Win32,60.0240096,,,,,,,,,,,6,12,6,6,,,,,,,,,,,,,,,,,,,,,,,,,,,,,
66465c850d9a3e177f2649fa,TCR,2024-06-11_13h11.04.090,LearnStrategy,2023.2.3,Win32,60.0240096,,,,,,,,,,,5,08,6,7,,,,,,,,,,,,,,,,,,,,,,,,,,,,,
66465c850d9a3e177f2649fa,TCR,2024-06-11_13h11.04.090,LearnStrategy,2023.2.3,Win32,60.0240096,,,,,,,,,,,8,03,6,8,,,,,,,,,,,,,,,,,,,,,,,,,,,,,