participant,condition,date,expName,psychopyVersion,OS,frameRate,block,phase,trial,learn_mouse_2.x,learn_mouse_2.y,learn_mouse_2.leftButton,learn_mouse_2.midButton,learn_mouse_2.rightButton,learn_mouse_2.time,learn_mouse_2.clicked_name,cat,token,row,col,t_select,cat_mouse_l.x,cat_mouse_l.y,cat_mouse_l.leftButton,cat_mouse_l.midButton,cat_mouse_l.rightButton,cat_mouse_l.time,cat_mouse_l.clicked_name,resp,t_resp,corr,train_trials.thisRepN,train_trials.thisTrialN,train_trials.thisN,train_trials.thisIndex,train_trials.ran,cat_mouse_t.x,cat_mouse_t.y,cat_mouse_t.leftButton,cat_mouse_t.midButton,cat_mouse_t.rightButton,cat_mouse_t.time,cat_mouse_t.clicked_name,test_trials.thisRepN,test_trials.thisTrialN,test_trials.thisN,test_trials.thisIndex,test_trials.ran,Bonus
664614c87025e6f51aae8ea4,TCN,2024-06-11_12h09.45.517,LearnStrategy,2023.2.3,MacIntel,58.82352941,,,,,,,,,,,,,,,,,,,,,,,,,,,,,,,,,,,,,,,,,,,
664614c87025e6f51aae8ea4,TCN,2024-06-11_12h09.45.517,LearnStrategy,2023.2.3,MacIntel,58.82352941,1,1,1,0.198888889,-0.015555556,1,0,0,1.57,rock_grid_rect_2,3,16,-1,-1,1.57,0.118888889,-0.383333333,1,0,0,6.561,Peridotite_rect,7,6.561,0,0,0,0,0,1,,,,,,,,,,,,,
664614c87025e6f51aae8ea4,TCN,2024-06-11_12h09.45.517,LearnStrategy,2023.2.3,MacIntel,58.82352941,1,1,2,0.173333333,0.001111111,1,0,0,0.945,rock_grid_rect_2,4,01,-1,-1,0.945,0.094444444,-0.418888889,1,0,0,6.493,Peridotite_rect,7,6.493,0,1,0,1,0,1,,,,,,,,,,,,,
664614c87025e6f51aae8ea4,TCN,2024-06-11_12h09.45.517,LearnStrategy,2023.2.3,MacIntel,58.82352941,1,1,3,0.181111111,0.015555556,1,0,0,0.897,rock_grid_rect_2,2,04,-1,-1,0.897,-0.165555556,-0.401111111,1,0,0,6.207,Pegmatite_rect,6,6.207,0,2,0,2,0,1,,,,,,,,,,,,,
664614c87025e6f51aae8ea4,TCN,2024-06-11_12h09.45.517,LearnStrategy,2023.2.3,MacIntel,58.82352941,1,1,4,0.074444444,0.001111111,1,0,0,0.898,rock_grid_rect_2,5,07,-1,-1,0.898,-0.35,-0.253333333,1,0,0,4.107,Andesite_rect,1,4.107,0,3,0,3,0,1,,,,,,,,,,,,,
664614c87025e6f51aae8ea4,TCN,2024-06-11_12h09.45.517,LearnStrategy,2023.2.3,MacIntel,58.82352941,1,1,5,0.092222222,0.003333333,1,0,0,0.996,rock_grid_rect_2,2,08,-1,-1,0.996,-0.08,-0.257777778,1,0,0,3.089,Basalt_rect,2,3.089,1,4,0,4,0,1,,,,,,,,,,,,,
664614c87025e6f51aae8ea4,TCN,2024-06-11_12h09.45.517,LearnStrategy,2023.2.3,MacIntel,58.82352941,1,1,6,0.035555556,-0.021111111,1,0,0,0.88,rock_grid_rect_2,7,15,-1,-1,0.88,-0.334444444,-0.247777778,1,0,0,4.625,Andesite_rect,1,4.625,0,5,0,5,0,1,,,,,,,,,,,,,
664614c87025e6f51aae8ea4,TCN,2024-06-11_12h09.45.517,LearnStrategy,2023.2.3,MacIntel,58.82352941,1,1,7,0.09,-0.014444444,1,0,0,0.947,rock_grid_rect_2,1,14,-1,-1,0.947,-0.336666667,-0.251111111,1,0,0,1.706,Andesite_rect,1,1.706,1,6,0,6,0,1,,,,,,,,,,,,,
664614c87025e6f51aae8ea4,TCN,2024-06-11_12h09.45.517,LearnStrategy,2023.2.3,MacIntel,58.82352941,1,1,8,0.08,-0.005555556,1,0,0,1.061,rock_grid_rect_2,5,05,-1,-1,1.061,-0.366666667,-0.396666667,1,0,0,1.508,Obsidian_rect,5,1.508,1,7,0,7,0,1,,,,,,,,,,,,,
664614c87025e6f51aae8ea4,TCN,2024-06-11_12h09.45.517,LearnStrategy,2023.2.3,MacIntel,58.82352941,1,1,9,0.006666667,-0.008888889,1,0,0,0.864,rock_grid_rect_2,1,16,-1,-1,0.864,-0.338888889,-0.251111111,1,0,0,2.241,Andesite_rect,1,2.241,1,8,0,8,0,1,,,,,,,,,,,,,
664614c87025e6f51aae8ea4,TCN,2024-06-11_12h09.45.517,LearnStrategy,2023.2.3,MacIntel,58.82352941,1,1,10,0.046666667,0.018888889,1,0,0,0.814,rock_grid_rect_2,3,09,-1,-1,0.814,-0.092222222,-0.398888889,1,0,0,1.307,Pegmatite_rect,6,1.307,0,9,0,9,0,1,,,,,,,,,,,,,
664614c87025e6f51aae8ea4,TCN,2024-06-11_12h09.45.517,LearnStrategy,2023.2.3,MacIntel,58.82352941,1,1,11,0.108888889,-0.003333333,1,0,0,0.897,rock_grid_rect_2,4,10,-1,-1,0.897,-0.154444444,-0.404444444,1,0,0,6.29,Pegmatite_rect,6,6.29,0,10,0,10,0,1,,,,,,,,,,,,,
664614c87025e6f51aae8ea4,TCN,2024-06-11_12h09.45.517,LearnStrategy,2023.2.3,MacIntel,58.82352941,1,1,12,0.147777778,0.017777778,1,0,0,0.778,rock_grid_rect_2,6,08,-1,-1,0.778,-0.052222222,-0.411111111,1,0,0,13.075,Pegmatite_rect,6,13.075,1,11,0,11,0,1,,,,,,,,,,,,,
664614c87025e6f51aae8ea4,TCN,2024-06-11_12h09.45.517,LearnStrategy,2023.2.3,MacIntel,58.82352941,1,1,13,0.08,-0.004444444,1,0,0,0.812,rock_grid_rect_2,6,09,-1,-1,0.812,-0.141111111,-0.418888889,1,0,0,17.174,Pegmatite_rect,6,17.174,1,12,0,12,0,1,,,,,,,,,,,,,
664614c87025e6f51aae8ea4,TCN,2024-06-11_12h09.45.517,LearnStrategy,2023.2.3,MacIntel,58.82352941,1,1,14,0.101111111,-0.002222222,1,0,0,1.061,rock_grid_rect_2,8,02,-1,-1,1.061,0.116666667,-0.242222222,1,0,0,4.856,Diorite_rect,3,4.856,0,13,0,13,0,1,,,,,,,,,,,,,
664614c87025e6f51aae8ea4,TCN,2024-06-11_12h09.45.517,LearnStrategy,2023.2.3,MacIntel,58.82352941,1,1,15,0.126666667,0.013333333,1,0,0,0.895,rock_grid_rect_2,8,06,-1,-1,0.895,0.35,-0.393333333,1,0,0,2.158,Pumice_rect,8,2.158,1,14,0,14,0,1,,,,,,,,,,,,,
664614c87025e6f51aae8ea4,TCN,2024-06-11_12h09.45.517,LearnStrategy,2023.2.3,MacIntel,58.82352941,1,1,16,0.113333333,-0.006666667,1,0,0,4.562,rock_grid_rect_2,7,07,-1,-1,4.562,0.116666667,-0.417777778,1,0,0,10.226,Peridotite_rect,7,10.226,1,15,0,15,0,1,,,,,,,,,,,,,
664614c87025e6f51aae8ea4,TCN,2024-06-11_12h09.45.517,LearnStrategy,2023.2.3,MacIntel,58.82352941,1,2,1,,,,,,,,6,07,,,,,,,,,,,6,27.853,1,,,,,,-0.094444444,-0.406666667,1,0,0,27.853,Pegmatite_rect,0,0,0,0,1,
664614c87025e6f51aae8ea4,TCN,2024-06-11_12h09.45.517,LearnStrategy,2023.2.3,MacIntel,58.82352941,1,2,2,,,,,,,,3,14,,,,,,,,,,,3,1.269,1,,,,,,0.117777778,-0.246666667,1,0,0,1.269,Diorite_rect,1,0,1,0,1,
664614c87025e6f51aae8ea4,TCN,2024-06-11_12h09.45.517,LearnStrategy,2023.2.3,MacIntel,58.82352941,1,2,3,,,,,,,,7,12,,,,,,,,,,,7,2.006,1,,,,,,0.111111111,-0.392222222,1,0,0,2.006,Peridotite_rect,2,0,2,0,1,
664614c87025e6f51aae8ea4,TCN,2024-06-11_12h09.45.517,LearnStrategy,2023.2.3,MacIntel,58.82352941,1,2,4,,,,,,,,1,07,,,,,,,,,,,1,3.672,1,,,,,,-0.343333333,-0.252222222,1,0,0,3.672,Andesite_rect,3,0,3,0,1,
664614c87025e6f51aae8ea4,TCN,2024-06-11_12h09.45.517,LearnStrategy,2023.2.3,MacIntel,58.82352941,1,2,5,,,,,,,,7,04,,,,,,,,,,,3,15.839,0,,,,,,0.167777778,-0.251111111,1,0,0,15.839,Diorite_rect,4,0,4,0,1,
664614c87025e6f51aae8ea4,TCN,2024-06-11_12h09.45.517,LearnStrategy,2023.2.3,MacIntel,58.82352941,1,2,6,,,,,,,,8,15,,,,,,,,,,,8,1.366,1,,,,,,0.361111111,-0.416666667,1,0,0,1.366,Pumice_rect,5,0,5,0,1,
664614c87025e6f51aae8ea4,TCN,2024-06-11_12h09.45.517,LearnStrategy,2023.2.3,MacIntel,58.82352941,1,2,7,,,,,,,,1,11,,,,,,,,,,,1,6.809,1,,,,,,-0.332222222,-0.245555556,1,0,0,6.809,Andesite_rect,6,0,6,0,1,
664614c87025e6f51aae8ea4,TCN,2024-06-11_12h09.45.517,LearnStrategy,2023.2.3,MacIntel,58.82352941,1,2,8,,,,,,,,2,09,,,,,,,,,,,2,3.892,1,,,,,,-0.094444444,-0.254444444,1,0,0,3.892,Basalt_rect,7,0,7,0,1,
664614c87025e6f51aae8ea4,TCN,2024-06-11_12h09.45.517,LearnStrategy,2023.2.3,MacIntel,58.82352941,1,2,9,,,,,,,,5,06,,,,,,,,,,,5,1.357,1,,,,,,-0.364444444,-0.407777778,1,0,0,1.357,Obsidian_rect,8,0,8,0,1,
664614c87025e6f51aae8ea4,TCN,2024-06-11_12h09.45.517,LearnStrategy,2023.2.3,MacIntel,58.82352941,1,2,10,,,,,,,,4,09,,,,,,,,,,,4,17.522,1,,,,,,0.37,-0.246666667,1,0,0,17.522,Gabbro_rect,9,0,9,0,1,
664614c87025e6f51aae8ea4,TCN,2024-06-11_12h09.45.517,LearnStrategy,2023.2.3,MacIntel,58.82352941,1,2,11,,,,,,,,4,05,,,,,,,,,,,4,4.725,1,,,,,,0.38,-0.251111111,1,0,0,4.725,Gabbro_rect,10,0,10,0,1,
664614c87025e6f51aae8ea4,TCN,2024-06-11_12h09.45.517,LearnStrategy,2023.2.3,MacIntel,58.82352941,1,2,12,,,,,,,,3,13,,,,,,,,,,,3,6.722,1,,,,,,0.156666667,-0.254444444,1,0,0,6.722,Diorite_rect,11,0,11,0,1,
664614c87025e6f51aae8ea4,TCN,2024-06-11_12h09.45.517,LearnStrategy,2023.2.3,MacIntel,58.82352941,1,2,13,,,,,,,,5,10,,,,,,,,,,,5,1.291,1,,,,,,-0.352222222,-0.385555556,1,0,0,1.291,Obsidian_rect,12,0,12,0,1,
664614c87025e6f51aae8ea4,TCN,2024-06-11_12h09.45.517,LearnStrategy,2023.2.3,MacIntel,58.82352941,1,2,14,,,,,,,,8,03,,,,,,,,,,,8,1.242,1,,,,,,0.315555556,-0.4,1,0,0,1.242,Pumice_rect,13,0,13,0,1,
664614c87025e6f51aae8ea4,TCN,2024-06-11_12h09.45.517,LearnStrategy,2023.2.3,MacIntel,58.82352941,1,2,15,,,,,,,,6,05,,,,,,,,,,,3,6.021,0,,,,,,0.145555556,-0.244444444,1,0,0,6.021,Diorite_rect,14,0,14,0,1,
664614c87025e6f51aae8ea4,TCN,2024-06-11_12h09.45.517,LearnStrategy,2023.2.3,MacIntel,58.82352941,1,2,16,,,,,,,,2,14,,,,,,,,,,,8,1.741,0,,,,,,0.394444444,-0.406666667,1,0,0,1.741,Pumice_rect,15,0,15,0,1,
664614c87025e6f51aae8ea4,TCN,2024-06-11_12h09.45.517,LearnStrategy,2023.2.3,MacIntel,58.82352941,2,1,1,0.145555556,0.007777778,1,0,0,1.367,rock_grid_rect_2,3,15,-1,-1,1.367,0.138888889,-0.25,1,0,0,4.372,Diorite_rect,3,4.372,1,0,0,0,0,1,,,,,,,,,,,,,
664614c87025e6f51aae8ea4,TCN,2024-06-11_12h09.45.517,LearnStrategy,2023.2.3,MacIntel,58.82352941,2,1,2,0.152222222,0.005555556,1,0,0,1.779,rock_grid_rect_2,3,10,-1,-1,1.779,0.114444444,-0.261111111,1,0,0,1.244,Diorite_rect,3,1.244,1,1,0,1,0,1,,,,,,,,,,,,,
664614c87025e6f51aae8ea4,TCN,2024-06-11_12h09.45.517,LearnStrategy,2023.2.3,MacIntel,58.82352941,2,1,3,0.106666667,0.001111111,1,0,0,0.897,rock_grid_rect_2,5,16,-1,-1,0.897,-0.361111111,-0.387777778,1,0,0,1.039,Obsidian_rect,5,1.039,1,2,0,2,0,1,,,,,,,,,,,,,
664614c87025e6f51aae8ea4,TCN,2024-06-11_12h09.45.517,LearnStrategy,2023.2.3,MacIntel,58.82352941,2,1,4,0.132222222,-0.01,1,0,0,0.73,rock_grid_rect_2,1,03,-1,-1,0.73,-0.362222222,-0.232222222,1,0,0,1.157,Andesite_rect,1,1.157,1,3,0,3,0,1,,,,,,,,,,,,,
664614c87025e6f51aae8ea4,TCN,2024-06-11_12h09.45.517,LearnStrategy,2023.2.3,MacIntel,58.82352941,2,1,5,0.043333333,-0.012222222,1,0,0,0.712,rock_grid_rect_2,4,08,-1,-1,0.712,-0.078888889,-0.243333333,1,0,0,2.891,Basalt_rect,2,2.891,0,4,0,4,0,1,,,,,,,,,,,,,
664614c87025e6f51aae8ea4,TCN,2024-06-11_12h09.45.517,LearnStrategy,2023.2.3,MacIntel,58.82352941,2,1,6,0.043333333,0.007777778,1,0,0,0.964,rock_grid_rect_2,2,16,-1,-1,0.964,-0.082222222,-0.265555556,1,0,0,2.841,Basalt_rect,2,2.841,1,5,0,5,0,1,,,,,,,,,,,,,
664614c87025e6f51aae8ea4,TCN,2024-06-11_12h09.45.517,LearnStrategy,2023.2.3,MacIntel,58.82352941,2,1,7,0.037777778,0.008888889,1,0,0,1.112,rock_grid_rect_2,8,13,-1,-1,1.112,0.341111111,-0.401111111,1,0,0,1.409,Pumice_rect,8,1.409,1,6,0,6,0,1,,,,,,,,,,,,,
664614c87025e6f51aae8ea4,TCN,2024-06-11_12h09.45.517,LearnStrategy,2023.2.3,MacIntel,58.82352941,2,1,8,0.081111111,0.001111111,1,0,0,0.78,rock_grid_rect_2,6,15,-1,-1,0.78,-0.078888889,-0.393333333,1,0,0,2.54,Pegmatite_rect,6,2.54,1,7,0,7,0,1,,,,,,,,,,,,,
664614c87025e6f51aae8ea4,TCN,2024-06-11_12h09.45.517,LearnStrategy,2023.2.3,MacIntel,58.82352941,2,1,9,0.061111111,0.006666667,1,0,0,0.762,rock_grid_rect_2,4,03,-1,-1,0.762,-0.362222222,-0.246666667,1,0,0,9.391,Andesite_rect,1,9.391,0,8,0,8,0,1,,,,,,,,,,,,,
664614c87025e6f51aae8ea4,TCN,2024-06-11_12h09.45.517,LearnStrategy,2023.2.3,MacIntel,58.82352941,2,1,10,0.047777778,-0.005555556,1,0,0,0.863,rock_grid_rect_2,6,13,-1,-1,0.863,0.321111111,-0.234444444,1,0,0,11.243,Gabbro_rect,4,11.243,0,9,0,9,0,1,,,,,,,,,,,,,
664614c87025e6f51aae8ea4,TCN,2024-06-11_12h09.45.517,LearnStrategy,2023.2.3,MacIntel,58.82352941,2,1,11,0.163333333,0.024444444,1,0,0,0.945,rock_grid_rect_2,7,08,-1,-1,0.945,0.11,-0.39,1,0,0,1.309,Peridotite_rect,7,1.309,1,10,0,10,0,1,,,,,,,,,,,,,
664614c87025e6f51aae8ea4,TCN,2024-06-11_12h09.45.517,LearnStrategy,2023.2.3,MacIntel,58.82352941,2,1,12,0.131111111,0.004444444,1,0,0,0.73,rock_grid_rect_2,1,04,-1,-1,0.73,-0.313333333,-0.24,1,0,0,1.308,Andesite_rect,1,1.308,1,11,0,11,0,1,,,,,,,,,,,,,
664614c87025e6f51aae8ea4,TCN,2024-06-11_12h09.45.517,LearnStrategy,2023.2.3,MacIntel,58.82352941,2,1,13,0.083333333,-0.022222222,1,0,0,0.763,rock_grid_rect_2,2,05,-1,-1,0.763,-0.128888889,-0.254444444,1,0,0,1.873,Basalt_rect,2,1.873,1,12,0,12,0,1,,,,,,,,,,,,,
664614c87025e6f51aae8ea4,TCN,2024-06-11_12h09.45.517,LearnStrategy,2023.2.3,MacIntel,58.82352941,2,1,14,0.036666667,0.002222222,1,0,0,0.796,rock_grid_rect_2,8,08,-1,-1,0.796,0.338888889,-0.402222222,1,0,0,1.292,Pumice_rect,8,1.292,1,13,0,13,0,1,,,,,,,,,,,,,
664614c87025e6f51aae8ea4,TCN,2024-06-11_12h09.45.517,LearnStrategy,2023.2.3,MacIntel,58.82352941,2,1,15,0.078888889,-0.012222222,1,0,0,0.746,rock_grid_rect_2,7,10,-1,-1,0.746,0.125555556,-0.415555556,1,0,0,1.591,Peridotite_rect,7,1.591,1,14,0,14,0,1,,,,,,,,,,,,,
664614c87025e6f51aae8ea4,TCN,2024-06-11_12h09.45.517,LearnStrategy,2023.2.3,MacIntel,58.82352941,2,1,16,0.105555556,0.024444444,1,0,0,0.681,rock_grid_rect_2,5,09,-1,-1,0.681,-0.345555556,-0.398888889,1,0,0,1.109,Obsidian_rect,5,1.109,1,15,0,15,0,1,,,,,,,,,,,,,
664614c87025e6f51aae8ea4,TCN,2024-06-11_12h09.45.517,LearnStrategy,2023.2.3,MacIntel,58.82352941,2,2,1,,,,,,,,2,01,,,,,,,,,,,2,1.471,1,,,,,,-0.088888889,-0.254444444,1,0,0,1.471,Basalt_rect,0,0,0,0,1,
664614c87025e6f51aae8ea4,TCN,2024-06-11_12h09.45.517,LearnStrategy,2023.2.3,MacIntel,58.82352941,2,2,2,,,,,,,,7,13,,,,,,,,,,,7,1.394,1,,,,,,0.115555556,-0.415555556,1,0,0,1.394,Peridotite_rect,1,0,1,0,1,
664614c87025e6f51aae8ea4,TCN,2024-06-11_12h09.45.517,LearnStrategy,2023.2.3,MacIntel,58.82352941,2,2,3,,,,,,,,8,16,,,,,,,,,,,8,1.055,1,,,,,,0.343333333,-0.382222222,1,0,0,1.055,Pumice_rect,2,0,2,0,1,
664614c87025e6f51aae8ea4,TCN,2024-06-11_12h09.45.517,LearnStrategy,2023.2.3,MacIntel,58.82352941,2,2,4,,,,,,,,7,14,,,,,,,,,,,7,6.755,1,,,,,,0.107777778,-0.396666667,1,0,0,6.755,Peridotite_rect,3,0,3,0,1,
664614c87025e6f51aae8ea4,TCN,2024-06-11_12h09.45.517,LearnStrategy,2023.2.3,MacIntel,58.82352941,2,2,5,,,,,,,,3,08,,,,,,,,,,,3,3.27,1,,,,,,0.124444444,-0.244444444,1,0,0,3.27,Diorite_rect,4,0,4,0,1,
664614c87025e6f51aae8ea4,TCN,2024-06-11_12h09.45.517,LearnStrategy,2023.2.3,MacIntel,58.82352941,2,2,6,,,,,,,,2,10,,,,,,,,,,,2,0.924,1,,,,,,-0.083333333,-0.246666667,1,0,0,0.924,Basalt_rect,5,0,5,0,1,
664614c87025e6f51aae8ea4,TCN,2024-06-11_12h09.45.517,LearnStrategy,2023.2.3,MacIntel,58.82352941,2,2,7,,,,,,,,6,16,,,,,,,,,,,6,2.645,1,,,,,,-0.093333333,-0.397777778,1,0,0,2.645,Pegmatite_rect,6,0,6,0,1,
664614c87025e6f51aae8ea4,TCN,2024-06-11_12h09.45.517,LearnStrategy,2023.2.3,MacIntel,58.82352941,2,2,8,,,,,,,,6,10,,,,,,,,,,,6,4.087,1,,,,,,-0.072222222,-0.414444444,1,0,0,4.087,Pegmatite_rect,7,0,7,0,1,
664614c87025e6f51aae8ea4,TCN,2024-06-11_12h09.45.517,LearnStrategy,2023.2.3,MacIntel,58.82352941,2,2,9,,,,,,,,4,16,,,,,,,,,,,4,2.708,1,,,,,,0.36,-0.244444444,1,0,0,2.708,Gabbro_rect,8,0,8,0,1,
664614c87025e6f51aae8ea4,TCN,2024-06-11_12h09.45.517,LearnStrategy,2023.2.3,MacIntel,58.82352941,2,2,10,,,,,,,,5,08,,,,,,,,,,,5,1.039,1,,,,,,-0.365555556,-0.418888889,1,0,0,1.039,Obsidian_rect,9,0,9,0,1,
664614c87025e6f51aae8ea4,TCN,2024-06-11_12h09.45.517,LearnStrategy,2023.2.3,MacIntel,58.82352941,2,2,11,,,,,,,,1,09,,,,,,,,,,,1,0.975,1,,,,,,-0.336666667,-0.238888889,1,0,0,0.975,Andesite_rect,10,0,10,0,1,
664614c87025e6f51aae8ea4,TCN,2024-06-11_12h09.45.517,LearnStrategy,2023.2.3,MacIntel,58.82352941,2,2,12,,,,,,,,4,11,,,,,,,,,,,4,3.908,1,,,,,,0.362222222,-0.253333333,1,0,0,3.908,Gabbro_rect,11,0,11,0,1,
664614c87025e6f51aae8ea4,TCN,2024-06-11_12h09.45.517,LearnStrategy,2023.2.3,MacIntel,58.82352941,2,2,13,,,,,,,,8,10,,,,,,,,,,,8,1.304,1,,,,,,0.324444444,-0.405555556,1,0,0,1.304,Pumice_rect,12,0,12,0,1,
664614c87025e6f51aae8ea4,TCN,2024-06-11_12h09.45.517,LearnStrategy,2023.2.3,MacIntel,58.82352941,2,2,14,,,,,,,,1,06,,,,,,,,,,,1,1.64,1,,,,,,-0.377777778,-0.247777778,1,0,0,1.64,Andesite_rect,13,0,13,0,1,
664614c87025e6f51aae8ea4,TCN,2024-06-11_12h09.45.517,LearnStrategy,2023.2.3,MacIntel,58.82352941,2,2,15,,,,,,,,3,07,,,,,,,,,,,3,3.055,1,,,,,,0.123333333,-0.245555556,1,0,0,3.055,Diorite_rect,14,0,14,0,1,
664614c87025e6f51aae8ea4,TCN,2024-06-11_12h09.45.517,LearnStrategy,2023.2.3,MacIntel,58.82352941,2,2,16,,,,,,,,5,14,,,,,,,,,,,5,1.004,1,,,,,,-0.344444444,-0.411111111,1,0,0,1.004,Obsidian_rect,15,0,15,0,1,
664614c87025e6f51aae8ea4,TCN,2024-06-11_12h09.45.517,LearnStrategy,2023.2.3,MacIntel,58.82352941,3,1,1,0.034444444,-0.011111111,1,0,0,1.295,rock_grid_rect_2,7,02,-1,-1,1.295,0.133333333,-0.388888889,1,0,0,1.127,Peridotite_rect,7,1.127,1,0,0,0,0,1,,,,,,,,,,,,,
664614c87025e6f51aae8ea4,TCN,2024-06-11_12h09.45.517,LearnStrategy,2023.2.3,MacIntel,58.82352941,3,1,2,0.116666667,-0.018888889,1,0,0,1.479,rock_grid_rect_2,2,02,-1,-1,1.479,-0.101111111,-0.245555556,1,0,0,3.807,Basalt_rect,2,3.807,1,1,0,1,0,1,,,,,,,,,,,,,
664614c87025e6f51aae8ea4,TCN,2024-06-11_12h09.45.517,LearnStrategy,2023.2.3,MacIntel,58.82352941,3,1,3,0.056666667,-0.015555556,1,0,0,0.764,rock_grid_rect_2,2,12,-1,-1,0.764,0.343333333,-0.387777778,1,0,0,1.559,Pumice_rect,8,1.559,0,2,0,2,0,1,,,,,,,,,,,,,
664614c87025e6f51aae8ea4,TCN,2024-06-11_12h09.45.517,LearnStrategy,2023.2.3,MacIntel,58.82352941,3,1,4,0.098888889,-0.007777778,1,0,0,1.513,rock_grid_rect_2,5,02,-1,-1,1.513,-0.36,-0.401111111,1,0,0,1.491,Obsidian_rect,5,1.491,1,3,0,3,0,1,,,,,,,,,,,,,
664614c87025e6f51aae8ea4,TCN,2024-06-11_12h09.45.517,LearnStrategy,2023.2.3,MacIntel,58.82352941,3,1,5,0.098888889,-0.017777778,1,0,0,0.796,rock_grid_rect_2,1,01,-1,-1,0.796,0.115555556,-0.256666667,1,0,0,3.909,Diorite_rect,3,3.909,0,4,0,4,0,1,,,,,,,,,,,,,
664614c87025e6f51aae8ea4,TCN,2024-06-11_12h09.45.517,LearnStrategy,2023.2.3,MacIntel,58.82352941,3,1,6,0.121111111,-0.016666667,1,0,0,0.827,rock_grid_rect_2,4,15,-1,-1,0.827,0.362222222,-0.253333333,1,0,0,3.175,Gabbro_rect,4,3.175,1,5,0,5,0,1,,,,,,,,,,,,,
664614c87025e6f51aae8ea4,TCN,2024-06-11_12h09.45.517,LearnStrategy,2023.2.3,MacIntel,58.82352941,3,1,7,0.102222222,-0.007777778,1,0,0,0.799,rock_grid_rect_2,5,11,-1,-1,0.799,-0.371111111,-0.391111111,1,0,0,1.426,Obsidian_rect,5,1.426,1,6,0,6,0,1,,,,,,,,,,,,,
664614c87025e6f51aae8ea4,TCN,2024-06-11_12h09.45.517,LearnStrategy,2023.2.3,MacIntel,58.82352941,3,1,8,0.055555556,-0.007777778,1,0,0,1.264,rock_grid_rect_2,8,05,-1,-1,1.264,0.375555556,-0.395555556,1,0,0,1.424,Pumice_rect,8,1.424,1,7,0,7,0,1,,,,,,,,,,,,,
664614c87025e6f51aae8ea4,TCN,2024-06-11_12h09.45.517,LearnStrategy,2023.2.3,MacIntel,58.82352941,3,1,9,0.105555556,0.012222222,1,0,0,0.98,rock_grid_rect_2,4,13,-1,-1,0.98,0.192222222,-0.245555556,1,0,0,9.007,Diorite_rect,3,9.007,0,8,0,8,0,1,,,,,,,,,,,,,
664614c87025e6f51aae8ea4,TCN,2024-06-11_12h09.45.517,LearnStrategy,2023.2.3,MacIntel,58.82352941,3,1,10,0.072222222,0.012222222,1,0,0,1.013,rock_grid_rect_2,3,02,-1,-1,1.013,0.106666667,-0.258888889,1,0,0,1.041,Diorite_rect,3,1.041,1,9,0,9,0,1,,,,,,,,,,,,,
664614c87025e6f51aae8ea4,TCN,2024-06-11_12h09.45.517,LearnStrategy,2023.2.3,MacIntel,58.82352941,3,1,11,0.1,0.023333333,1,0,0,0.68,rock_grid_rect_2,6,12,-1,-1,0.68,0.114444444,-0.242222222,1,0,0,3.327,Diorite_rect,3,3.327,0,10,0,10,0,1,,,,,,,,,,,,,
664614c87025e6f51aae8ea4,TCN,2024-06-11_12h09.45.517,LearnStrategy,2023.2.3,MacIntel,58.82352941,3,1,12,0.082222222,0.02,1,0,0,0.798,rock_grid_rect_2,3,11,-1,-1,0.798,0.135555556,-0.258888889,1,0,0,1.543,Diorite_rect,3,1.543,1,11,0,11,0,1,,,,,,,,,,,,,
664614c87025e6f51aae8ea4,TCN,2024-06-11_12h09.45.517,LearnStrategy,2023.2.3,MacIntel,58.82352941,3,1,13,0.08,0.023333333,1,0,0,0.797,rock_grid_rect_2,6,03,-1,-1,0.797,0.078888889,-0.407777778,1,0,0,1.875,Peridotite_rect,7,1.875,0,12,0,12,0,1,,,,,,,,,,,,,
664614c87025e6f51aae8ea4,TCN,2024-06-11_12h09.45.517,LearnStrategy,2023.2.3,MacIntel,58.82352941,3,1,14,0.083333333,0.007777778,1,0,0,0.848,rock_grid_rect_2,8,14,-1,-1,0.848,0.353333333,-0.406666667,1,0,0,1.378,Pumice_rect,8,1.378,1,13,0,13,0,1,,,,,,,,,,,,,
664614c87025e6f51aae8ea4,TCN,2024-06-11_12h09.45.517,LearnStrategy,2023.2.3,MacIntel,58.82352941,3,1,15,0.071111111,0,1,0,0,0.899,rock_grid_rect_2,1,05,-1,-1,0.899,-0.353333333,-0.256666667,1,0,0,1.626,Andesite_rect,1,1.626,1,14,0,14,0,1,,,,,,,,,,,,,
664614c87025e6f51aae8ea4,TCN,2024-06-11_12h09.45.517,LearnStrategy,2023.2.3,MacIntel,58.82352941,3,1,16,0.064444444,0.008888889,1,0,0,0.88,rock_grid_rect_2,7,16,-1,-1,0.88,0.068888889,-0.41,1,0,0,1.14,Peridotite_rect,7,1.14,1,15,0,15,0,1,,,,,,,,,,,,,
664614c87025e6f51aae8ea4,TCN,2024-06-11_12h09.45.517,LearnStrategy,2023.2.3,MacIntel,58.82352941,3,2,1,,,,,,,,8,04,,,,,,,,,,,8,1.088,1,,,,,,0.354444444,-0.392222222,1,0,0,1.088,Pumice_rect,0,0,0,0,1,
664614c87025e6f51aae8ea4,TCN,2024-06-11_12h09.45.517,LearnStrategy,2023.2.3,MacIntel,58.82352941,3,2,2,,,,,,,,3,12,,,,,,,,,,,3,5.639,1,,,,,,0.137777778,-0.236666667,1,0,0,5.639,Diorite_rect,1,0,1,0,1,
664614c87025e6f51aae8ea4,TCN,2024-06-11_12h09.45.517,LearnStrategy,2023.2.3,MacIntel,58.82352941,3,2,3,,,,,,,,5,04,,,,,,,,,,,5,1.89,1,,,,,,-0.362222222,-0.407777778,1,0,0,1.89,Obsidian_rect,2,0,2,0,1,
664614c87025e6f51aae8ea4,TCN,2024-06-11_12h09.45.517,LearnStrategy,2023.2.3,MacIntel,58.82352941,3,2,4,,,,,,,,7,05,,,,,,,,,,,7,2.091,1,,,,,,0.108888889,-0.392222222,1,0,0,2.091,Peridotite_rect,3,0,3,0,1,
664614c87025e6f51aae8ea4,TCN,2024-06-11_12h09.45.517,LearnStrategy,2023.2.3,MacIntel,58.82352941,3,2,5,,,,,,,,4,12,,,,,,,,,,,4,8.421,1,,,,,,0.325555556,-0.257777778,1,0,0,8.421,Gabbro_rect,4,0,4,0,1,
664614c87025e6f51aae8ea4,TCN,2024-06-11_12h09.45.517,LearnStrategy,2023.2.3,MacIntel,58.82352941,3,2,6,,,,,,,,8,09,,,,,,,,,,,8,1.194,1,,,,,,0.38,-0.384444444,1,0,0,1.194,Pumice_rect,5,0,5,0,1,
664614c87025e6f51aae8ea4,TCN,2024-06-11_12h09.45.517,LearnStrategy,2023.2.3,MacIntel,58.82352941,3,2,7,,,,,,,,2,06,,,,,,,,,,,2,1.01,1,,,,,,-0.085555556,-0.243333333,1,0,0,1.01,Basalt_rect,6,0,6,0,1,
664614c87025e6f51aae8ea4,TCN,2024-06-11_12h09.45.517,LearnStrategy,2023.2.3,MacIntel,58.82352941,3,2,8,,,,,,,,7,06,,,,,,,,,,,7,2.608,1,,,,,,0.135555556,-0.402222222,1,0,0,2.608,Peridotite_rect,7,0,7,0,1,
664614c87025e6f51aae8ea4,TCN,2024-06-11_12h09.45.517,LearnStrategy,2023.2.3,MacIntel,58.82352941,3,2,9,,,,,,,,6,11,,,,,,,,,,,6,1.457,1,,,,,,-0.116666667,-0.414444444,1,0,0,1.457,Pegmatite_rect,8,0,8,0,1,
664614c87025e6f51aae8ea4,TCN,2024-06-11_12h09.45.517,LearnStrategy,2023.2.3,MacIntel,58.82352941,3,2,10,,,,,,,,5,12,,,,,,,,,,,5,1.155,1,,,,,,-0.361111111,-0.384444444,1,0,0,1.155,Obsidian_rect,9,0,9,0,1,
664614c87025e6f51aae8ea4,TCN,2024-06-11_12h09.45.517,LearnStrategy,2023.2.3,MacIntel,58.82352941,3,2,11,,,,,,,,1,10,,,,,,,,,,,1,2.54,1,,,,,,-0.336666667,-0.252222222,1,0,0,2.54,Andesite_rect,10,0,10,0,1,
664614c87025e6f51aae8ea4,TCN,2024-06-11_12h09.45.517,LearnStrategy,2023.2.3,MacIntel,58.82352941,3,2,12,,,,,,,,2,11,,,,,,,,,,,2,5.991,1,,,,,,-0.155555556,-0.24,1,0,0,5.991,Basalt_rect,11,0,11,0,1,
664614c87025e6f51aae8ea4,TCN,2024-06-11_12h09.45.517,LearnStrategy,2023.2.3,MacIntel,58.82352941,3,2,13,,,,,,,,4,14,,,,,,,,,,,4,2.239,1,,,,,,0.364444444,-0.242222222,1,0,0,2.239,Gabbro_rect,12,0,12,0,1,
664614c87025e6f51aae8ea4,TCN,2024-06-11_12h09.45.517,LearnStrategy,2023.2.3,MacIntel,58.82352941,3,2,14,,,,,,,,6,06,,,,,,,,,,,6,8.827,1,,,,,,-0.084444444,-0.401111111,1,0,0,8.827,Pegmatite_rect,13,0,13,0,1,
664614c87025e6f51aae8ea4,TCN,2024-06-11_12h09.45.517,LearnStrategy,2023.2.3,MacIntel,58.82352941,3,2,15,,,,,,,,3,06,,,,,,,,,,,3,2.489,1,,,,,,0.138888889,-0.231111111,1,0,0,2.489,Diorite_rect,14,0,14,0,1,
664614c87025e6f51aae8ea4,TCN,2024-06-11_12h09.45.517,LearnStrategy,2023.2.3,MacIntel,58.82352941,3,2,16,,,,,,,,1,02,,,,,,,,,,,1,1.29,1,,,,,,-0.367777778,-0.248888889,1,0,0,1.29,Andesite_rect,15,0,15,0,1,
664614c87025e6f51aae8ea4,TCN,2024-06-11_12h09.45.517,LearnStrategy,2023.2.3,MacIntel,58.82352941,4,1,1,0.121111111,0,1,0,0,0.912,rock_grid_rect_2,6,03,-1,-1,0.912,-0.09,-0.402222222,1,0,0,1.058,Pegmatite_rect,6,1.058,1,0,0,0,0,1,,,,,,,,,,,,,
664614c87025e6f51aae8ea4,TCN,2024-06-11_12h09.45.517,LearnStrategy,2023.2.3,MacIntel,58.82352941,4,1,2,0.042222222,0.011111111,1,0,0,1.297,rock_grid_rect_2,8,06,-1,-1,1.297,0.383333333,-0.401111111,1,0,0,1.624,Pumice_rect,8,1.624,1,1,0,1,0,1,,,,,,,,,,,,,
664614c87025e6f51aae8ea4,TCN,2024-06-11_12h09.45.517,LearnStrategy,2023.2.3,MacIntel,58.82352941,4,1,3,0.071111111,-0.012222222,1,0,0,0.763,rock_grid_rect_2,8,08,-1,-1,0.763,0.391111111,-0.392222222,0,0,1,1.225,Pumice_rect,8,1.225,1,2,0,2,0,1,,,,,,,,,,,,,
664614c87025e6f51aae8ea4,TCN,2024-06-11_12h09.45.517,LearnStrategy,2023.2.3,MacIntel,58.82352941,4,1,4,0.015555556,0.011111111,1,0,1,1.447,rock_grid_rect_2,5,05,-1,-1,1.447,-0.331111111,-0.406666667,1,0,1,1.941,Obsidian_rect,5,1.941,1,3,0,3,0,1,,,,,,,,,,,,,
664614c87025e6f51aae8ea4,TCN,2024-06-11_12h09.45.517,LearnStrategy,2023.2.3,MacIntel,58.82352941,4,1,5,0.055555556,-0.024444444,1,0,1,1.163,rock_grid_rect_2,2,12,-1,-1,1.163,0.35,-0.393333333,1,0,1,3.709,Pumice_rect,8,3.709,0,4,0,4,0,1,,,,,,,,,,,,,
664614c87025e6f51aae8ea4,TCN,2024-06-11_12h09.45.517,LearnStrategy,2023.2.3,MacIntel,58.82352941,4,1,6,0.11,-0.017777778,1,0,1,0.746,rock_grid_rect_2,1,05,-1,-1,0.746,-0.372222222,-0.246666667,1,0,1,1.411,Andesite_rect,1,1.411,1,5,0,5,0,1,,,,,,,,,,,,,
664614c87025e6f51aae8ea4,TCN,2024-06-11_12h09.45.517,LearnStrategy,2023.2.3,MacIntel,58.82352941,4,1,7,0.03,0.003333333,1,0,1,0.68,rock_grid_rect_2,5,09,-1,-1,0.68,-0.365555556,-0.403333333,1,0,1,1.028,Obsidian_rect,5,1.028,1,6,0,6,0,1,,,,,,,,,,,,,
664614c87025e6f51aae8ea4,TCN,2024-06-11_12h09.45.517,LearnStrategy,2023.2.3,MacIntel,58.82352941,4,1,8,0.01,-0.007777778,1,0,1,0.813,rock_grid_rect_2,1,04,-1,-1,0.813,-0.377777778,-0.257777778,1,0,1,1.291,Andesite_rect,1,1.291,1,7,0,7,0,1,,,,,,,,,,,,,
664614c87025e6f51aae8ea4,TCN,2024-06-11_12h09.45.517,LearnStrategy,2023.2.3,MacIntel,58.82352941,4,1,9,0.017777778,0.011111111,1,0,1,0.631,rock_grid_rect_2,3,10,-1,-1,0.631,0.137777778,-0.261111111,1,0,1,1.108,Diorite_rect,3,1.108,1,8,0,8,0,1,,,,,,,,,,,,,
664614c87025e6f51aae8ea4,TCN,2024-06-11_12h09.45.517,LearnStrategy,2023.2.3,MacIntel,58.82352941,4,1,10,0.04,0.002222222,1,0,1,0.647,rock_grid_rect_2,7,02,-1,-1,0.647,0.093333333,-0.413333333,1,0,1,1.458,Peridotite_rect,7,1.458,1,9,0,9,0,1,,,,,,,,,,,,,
664614c87025e6f51aae8ea4,TCN,2024-06-11_12h09.45.517,LearnStrategy,2023.2.3,MacIntel,58.82352941,4,1,11,0.071111111,-0.001111111,1,0,1,0.864,rock_grid_rect_2,4,15,-1,-1,0.864,0.358888889,-0.258888889,1,0,1,1.644,Gabbro_rect,4,1.644,1,10,0,10,0,1,,,,,,,,,,,,,
664614c87025e6f51aae8ea4,TCN,2024-06-11_12h09.45.517,LearnStrategy,2023.2.3,MacIntel,58.82352941,4,1,12,0.087777778,0.001111111,1,0,1,0.613,rock_grid_rect_2,2,02,-1,-1,0.613,-0.118888889,-0.243333333,1,0,1,0.893,Basalt_rect,2,0.893,1,11,0,11,0,1,,,,,,,,,,,,,
664614c87025e6f51aae8ea4,TCN,2024-06-11_12h09.45.517,LearnStrategy,2023.2.3,MacIntel,58.82352941,4,1,13,0.042222222,0,1,0,1,0.747,rock_grid_rect_2,3,15,-1,-1,0.747,0.121111111,-0.247777778,1,0,1,1.173,Diorite_rect,3,1.173,1,12,0,12,0,1,,,,,,,,,,,,,
664614c87025e6f51aae8ea4,TCN,2024-06-11_12h09.45.517,LearnStrategy,2023.2.3,MacIntel,58.82352941,4,1,14,0.028888889,0.004444444,1,0,1,0.764,rock_grid_rect_2,6,12,-1,-1,0.764,-0.123333333,-0.395555556,1,0,1,1.573,Pegmatite_rect,6,1.573,1,13,0,13,0,1,,,,,,,,,,,,,
664614c87025e6f51aae8ea4,TCN,2024-06-11_12h09.45.517,LearnStrategy,2023.2.3,MacIntel,58.82352941,4,1,15,0.025555556,0.004444444,1,0,1,0.63,rock_grid_rect_2,4,03,-1,-1,0.63,0.343333333,-0.235555556,1,0,1,1.479,Gabbro_rect,4,1.479,1,14,0,14,0,1,,,,,,,,,,,,,
664614c87025e6f51aae8ea4,TCN,2024-06-11_12h09.45.517,LearnStrategy,2023.2.3,MacIntel,58.82352941,4,1,16,0.058888889,-0.005555556,1,0,1,0.662,rock_grid_rect_2,7,15,-1,-1,0.662,0.085555556,-0.407777778,1,0,1,1.091,Peridotite_rect,7,1.091,1,15,0,15,0,1,,,,,,,,,,,,,
664614c87025e6f51aae8ea4,TCN,2024-06-11_12h09.45.517,LearnStrategy,2023.2.3,MacIntel,58.82352941,4,2,1,,,,,,,,3,08,,,,,,,,,,,3,1.938,1,,,,,,0.124444444,-0.248888889,1,0,1,1.938,Diorite_rect,0,0,0,0,1,
664614c87025e6f51aae8ea4,TCN,2024-06-11_12h09.45.517,LearnStrategy,2023.2.3,MacIntel,58.82352941,4,2,2,,,,,,,,6,07,,,,,,,,,,,6,1.245,1,,,,,,-0.102222222,-0.402222222,1,0,1,1.245,Pegmatite_rect,1,0,1,0,1,
664614c87025e6f51aae8ea4,TCN,2024-06-11_12h09.45.517,LearnStrategy,2023.2.3,MacIntel,58.82352941,4,2,3,,,,,,,,5,10,,,,,,,,,,,5,1.139,1,,,,,,-0.341111111,-0.394444444,1,0,1,1.139,Obsidian_rect,2,0,2,0,1,
664614c87025e6f51aae8ea4,TCN,2024-06-11_12h09.45.517,LearnStrategy,2023.2.3,MacIntel,58.82352941,4,2,4,,,,,,,,8,15,,,,,,,,,,,8,1.456,1,,,,,,0.356666667,-0.415555556,1,0,1,1.456,Pumice_rect,3,0,3,0,1,
664614c87025e6f51aae8ea4,TCN,2024-06-11_12h09.45.517,LearnStrategy,2023.2.3,MacIntel,58.82352941,4,2,5,,,,,,,,2,10,,,,,,,,,,,2,1.258,1,,,,,,-0.126666667,-0.248888889,1,0,1,1.258,Basalt_rect,4,0,4,0,1,
664614c87025e6f51aae8ea4,TCN,2024-06-11_12h09.45.517,LearnStrategy,2023.2.3,MacIntel,58.82352941,4,2,6,,,,,,,,3,12,,,,,,,,,,,3,0.955,1,,,,,,0.104444444,-0.237777778,1,0,1,0.955,Diorite_rect,5,0,5,0,1,
664614c87025e6f51aae8ea4,TCN,2024-06-11_12h09.45.517,LearnStrategy,2023.2.3,MacIntel,58.82352941,4,2,7,,,,,,,,8,04,,,,,,,,,,,8,1.59,1,,,,,,0.375555556,-0.403333333,1,0,1,1.59,Pumice_rect,6,0,6,0,1,
664614c87025e6f51aae8ea4,TCN,2024-06-11_12h09.45.517,LearnStrategy,2023.2.3,MacIntel,58.82352941,4,2,8,,,,,,,,6,10,,,,,,,,,,,6,12.227,1,,,,,,-0.085555556,-0.407777778,1,0,1,12.227,Pegmatite_rect,7,0,7,0,1,
664614c87025e6f51aae8ea4,TCN,2024-06-11_12h09.45.517,LearnStrategy,2023.2.3,MacIntel,58.82352941,4,2,9,,,,,,,,2,14,,,,,,,,,,,2,11.74,1,,,,,,-0.067777778,-0.257777778,1,0,1,11.74,Basalt_rect,8,0,8,0,1,
664614c87025e6f51aae8ea4,TCN,2024-06-11_12h09.45.517,LearnStrategy,2023.2.3,MacIntel,58.82352941,4,2,10,,,,,,,,4,14,,,,,,,,,,,4,1.758,1,,,,,,0.352222222,-0.248888889,1,0,1,1.758,Gabbro_rect,9,0,9,0,1,
664614c87025e6f51aae8ea4,TCN,2024-06-11_12h09.45.517,LearnStrategy,2023.2.3,MacIntel,58.82352941,4,2,11,,,,,,,,7,12,,,,,,,,,,,7,1.505,1,,,,,,0.124444444,-0.395555556,1,0,1,1.505,Peridotite_rect,10,0,10,0,1,
664614c87025e6f51aae8ea4,TCN,2024-06-11_12h09.45.517,LearnStrategy,2023.2.3,MacIntel,58.82352941,4,2,12,,,,,,,,4,12,,,,,,,,,,,4,3.421,1,,,,,,0.395555556,-0.242222222,1,0,1,3.421,Gabbro_rect,11,0,11,0,1,
664614c87025e6f51aae8ea4,TCN,2024-06-11_12h09.45.517,LearnStrategy,2023.2.3,MacIntel,58.82352941,4,2,13,,,,,,,,5,06,,,,,,,,,,,5,1.088,1,,,,,,-0.354444444,-0.391111111,1,0,1,1.088,Obsidian_rect,12,0,12,0,1,
664614c87025e6f51aae8ea4,TCN,2024-06-11_12h09.45.517,LearnStrategy,2023.2.3,MacIntel,58.82352941,4,2,14,,,,,,,,1,06,,,,,,,,,,,1,1.439,1,,,,,,-0.33,-0.244444444,1,0,1,1.439,Andesite_rect,13,0,13,0,1,
664614c87025e6f51aae8ea4,TCN,2024-06-11_12h09.45.517,LearnStrategy,2023.2.3,MacIntel,58.82352941,4,2,15,,,,,,,,1,02,,,,,,,,,,,1,1.404,1,,,,,,-0.367777778,-0.245555556,1,0,1,1.404,Andesite_rect,14,0,14,0,1,
664614c87025e6f51aae8ea4,TCN,2024-06-11_12h09.45.517,LearnStrategy,2023.2.3,MacIntel,58.82352941,4,2,16,,,,,,,,7,13,,,,,,,,,,,7,1.408,1,,,,,,0.103333333,-0.395555556,1,0,1,1.408,Peridotite_rect,15,0,15,0,1,
664614c87025e6f51aae8ea4,TCN,2024-06-11_12h09.45.517,LearnStrategy,2023.2.3,MacIntel,58.82352941,5,1,1,0.136666667,-0.011111111,1,0,1,1.047,rock_grid_rect_2,3,02,-1,-1,1.047,0.125555556,-0.253333333,1,0,1,2.34,Diorite_rect,3,2.34,1,0,0,0,0,1,,,,,,,,,,,,,
664614c87025e6f51aae8ea4,TCN,2024-06-11_12h09.45.517,LearnStrategy,2023.2.3,MacIntel,58.82352941,5,1,2,0.081111111,-0.002222222,1,0,1,0.847,rock_grid_rect_2,3,11,-1,-1,0.847,0.136666667,-0.235555556,1,0,1,2.195,Diorite_rect,3,2.195,1,1,0,1,0,1,,,,,,,,,,,,,
664614c87025e6f51aae8ea4,TCN,2024-06-11_12h09.45.517,LearnStrategy,2023.2.3,MacIntel,58.82352941,5,1,3,0.075555556,-0.008888889,1,0,1,0.629,rock_grid_rect_2,6,09,-1,-1,0.629,-0.094444444,-0.405555556,1,0,1,1.127,Pegmatite_rect,6,1.127,1,2,0,2,0,1,,,,,,,,,,,,,
664614c87025e6f51aae8ea4,TCN,2024-06-11_12h09.45.517,LearnStrategy,2023.2.3,MacIntel,58.82352941,5,1,4,0.035555556,-0.001111111,1,0,1,0.914,rock_grid_rect_2,7,08,-1,-1,0.914,0.091111111,-0.407777778,1,0,1,1.624,Peridotite_rect,7,1.624,1,3,0,3,0,1,,,,,,,,,,,,,
664614c87025e6f51aae8ea4,TCN,2024-06-11_12h09.45.517,LearnStrategy,2023.2.3,MacIntel,58.82352941,5,1,5,0.046666667,-0.01,1,0,1,1.059,rock_grid_rect_2,1,01,-1,-1,1.059,0.103333333,-0.244444444,1,0,1,6.294,Diorite_rect,3,6.294,0,4,0,4,0,1,,,,,,,,,,,,,
664614c87025e6f51aae8ea4,TCN,2024-06-11_12h09.45.517,LearnStrategy,2023.2.3,MacIntel,58.82352941,5,1,6,0.06,-0.012222222,1,0,1,0.746,rock_grid_rect_2,6,08,-1,-1,0.746,-0.101111111,-0.392222222,1,0,1,1.124,Pegmatite_rect,6,1.124,1,5,0,5,0,1,,,,,,,,,,,,,
664614c87025e6f51aae8ea4,TCN,2024-06-11_12h09.45.517,LearnStrategy,2023.2.3,MacIntel,58.82352941,5,1,7,0.05,-0.002222222,1,0,1,0.898,rock_grid_rect_2,7,16,-1,-1,0.898,0.112222222,-0.4,1,0,1,1.136,Peridotite_rect,7,1.136,1,6,0,6,0,1,,,,,,,,,,,,,
664614c87025e6f51aae8ea4,TCN,2024-06-11_12h09.45.517,LearnStrategy,2023.2.3,MacIntel,58.82352941,5,1,8,0.105555556,0.014444444,1,0,1,0.616,rock_grid_rect_2,1,03,-1,-1,0.616,-0.327777778,-0.23,1,0,1,1.093,Andesite_rect,1,1.093,1,7,0,7,0,1,,,,,,,,,,,,,
664614c87025e6f51aae8ea4,TCN,2024-06-11_12h09.45.517,LearnStrategy,2023.2.3,MacIntel,58.82352941,5,1,9,0.04,-0.005555556,1,0,1,0.813,rock_grid_rect_2,2,08,-1,-1,0.813,-0.121111111,-0.264444444,1,0,1,1.011,Basalt_rect,2,1.011,1,8,0,8,0,1,,,,,,,,,,,,,
664614c87025e6f51aae8ea4,TCN,2024-06-11_12h09.45.517,LearnStrategy,2023.2.3,MacIntel,58.82352941,5,1,10,0.001111111,-0.013333333,1,0,1,0.764,rock_grid_rect_2,5,11,-1,-1,0.764,-0.353333333,-0.39,1,0,1,1.059,Obsidian_rect,5,1.059,1,9,0,9,0,1,,,,,,,,,,,,,
664614c87025e6f51aae8ea4,TCN,2024-06-11_12h09.45.517,LearnStrategy,2023.2.3,MacIntel,58.82352941,5,1,11,0.043333333,0,1,0,1,0.813,rock_grid_rect_2,5,02,-1,-1,0.813,-0.338888889,-0.397777778,1,0,1,1.108,Obsidian_rect,5,1.108,1,10,0,10,0,1,,,,,,,,,,,,,
664614c87025e6f51aae8ea4,TCN,2024-06-11_12h09.45.517,LearnStrategy,2023.2.3,MacIntel,58.82352941,5,1,12,0.068888889,0.002222222,1,0,1,0.598,rock_grid_rect_2,2,16,-1,-1,0.598,-0.087777778,-0.248888889,1,0,1,2.859,Basalt_rect,2,2.859,1,11,0,11,0,1,,,,,,,,,,,,,
664614c87025e6f51aae8ea4,TCN,2024-06-11_12h09.45.517,LearnStrategy,2023.2.3,MacIntel,58.82352941,5,1,13,0.031111111,-0.007777778,1,0,1,0.831,rock_grid_rect_2,4,13,-1,-1,0.831,0.351111111,-0.233333333,1,0,1,2.659,Gabbro_rect,4,2.659,1,12,0,12,0,1,,,,,,,,,,,,,
664614c87025e6f51aae8ea4,TCN,2024-06-11_12h09.45.517,LearnStrategy,2023.2.3,MacIntel,58.82352941,5,1,14,0.061111111,0.018888889,1,0,1,0.863,rock_grid_rect_2,8,05,-1,-1,0.863,0.384444444,-0.398888889,1,0,1,1.391,Pumice_rect,8,1.391,1,13,0,13,0,1,,,,,,,,,,,,,
664614c87025e6f51aae8ea4,TCN,2024-06-11_12h09.45.517,LearnStrategy,2023.2.3,MacIntel,58.82352941,5,1,15,0.028888889,0.007777778,1,0,1,0.847,rock_grid_rect_2,4,10,-1,-1,0.847,0.334444444,-0.243333333,1,0,1,2.175,Gabbro_rect,4,2.175,1,14,0,14,0,1,,,,,,,,,,,,,
664614c87025e6f51aae8ea4,TCN,2024-06-11_12h09.45.517,LearnStrategy,2023.2.3,MacIntel,58.82352941,5,1,16,0.07,-0.02,1,0,1,0.664,rock_grid_rect_2,8,14,-1,-1,0.664,0.354444444,-0.384444444,1,0,1,1.092,Pumice_rect,8,1.092,1,15,0,15,0,1,,,,,,,,,,,,,
664614c87025e6f51aae8ea4,TCN,2024-06-11_12h09.45.517,LearnStrategy,2023.2.3,MacIntel,58.82352941,5,2,1,,,,,,,,4,16,,,,,,,,,,,4,2.342,1,,,,,,0.362222222,-0.25,1,0,1,2.342,Gabbro_rect,0,0,0,0,1,
664614c87025e6f51aae8ea4,TCN,2024-06-11_12h09.45.517,LearnStrategy,2023.2.3,MacIntel,58.82352941,5,2,2,,,,,,,,6,11,,,,,,,,,,,6,1.306,1,,,,,,-0.107777778,-0.406666667,1,0,1,1.306,Pegmatite_rect,1,0,1,0,1,
664614c87025e6f51aae8ea4,TCN,2024-06-11_12h09.45.517,LearnStrategy,2023.2.3,MacIntel,58.82352941,5,2,3,,,,,,,,2,06,,,,,,,,,,,2,1.038,1,,,,,,-0.127777778,-0.238888889,1,0,1,1.038,Basalt_rect,2,0,2,0,1,
664614c87025e6f51aae8ea4,TCN,2024-06-11_12h09.45.517,LearnStrategy,2023.2.3,MacIntel,58.82352941,5,2,4,,,,,,,,3,13,,,,,,,,,,,3,1.238,1,,,,,,0.108888889,-0.243333333,1,0,1,1.238,Diorite_rect,3,0,3,0,1,
664614c87025e6f51aae8ea4,TCN,2024-06-11_12h09.45.517,LearnStrategy,2023.2.3,MacIntel,58.82352941,5,2,5,,,,,,,,6,16,,,,,,,,,,,6,5.554,1,,,,,,-0.068888889,-0.393333333,1,0,1,5.554,Pegmatite_rect,4,0,4,0,1,
664614c87025e6f51aae8ea4,TCN,2024-06-11_12h09.45.517,LearnStrategy,2023.2.3,MacIntel,58.82352941,5,2,6,,,,,,,,7,06,,,,,,,,,,,7,1.14,1,,,,,,0.091111111,-0.394444444,1,0,1,1.14,Peridotite_rect,5,0,5,0,1,
664614c87025e6f51aae8ea4,TCN,2024-06-11_12h09.45.517,LearnStrategy,2023.2.3,MacIntel,58.82352941,5,2,7,,,,,,,,5,12,,,,,,,,,,,5,1.77,1,,,,,,-0.357777778,-0.393333333,1,0,1,1.77,Obsidian_rect,6,0,6,0,1,
664614c87025e6f51aae8ea4,TCN,2024-06-11_12h09.45.517,LearnStrategy,2023.2.3,MacIntel,58.82352941,5,2,8,,,,,,,,8,10,,,,,,,,,,,8,3.354,1,,,,,,0.354444444,-0.393333333,1,0,1,3.354,Pumice_rect,7,0,7,0,1,
664614c87025e6f51aae8ea4,TCN,2024-06-11_12h09.45.517,LearnStrategy,2023.2.3,MacIntel,58.82352941,5,2,9,,,,,,,,3,07,,,,,,,,,,,3,1.038,1,,,,,,0.12,-0.252222222,1,0,1,1.038,Diorite_rect,8,0,8,0,1,
664614c87025e6f51aae8ea4,TCN,2024-06-11_12h09.45.517,LearnStrategy,2023.2.3,MacIntel,58.82352941,5,2,10,,,,,,,,1,07,,,,,,,,,,,1,1.338,1,,,,,,-0.358888889,-0.252222222,1,0,1,1.338,Andesite_rect,9,0,9,0,1,
664614c87025e6f51aae8ea4,TCN,2024-06-11_12h09.45.517,LearnStrategy,2023.2.3,MacIntel,58.82352941,5,2,11,,,,,,,,4,05,,,,,,,,,,,4,3.838,1,,,,,,0.367777778,-0.246666667,1,0,1,3.838,Gabbro_rect,10,0,10,0,1,
664614c87025e6f51aae8ea4,TCN,2024-06-11_12h09.45.517,LearnStrategy,2023.2.3,MacIntel,58.82352941,5,2,12,,,,,,,,1,09,,,,,,,,,,,1,9.37,1,,,,,,-0.335555556,-0.252222222,1,0,1,9.37,Andesite_rect,11,0,11,0,1,
664614c87025e6f51aae8ea4,TCN,2024-06-11_12h09.45.517,LearnStrategy,2023.2.3,MacIntel,58.82352941,5,2,13,,,,,,,,5,08,,,,,,,,,,,5,1.04,1,,,,,,-0.398888889,-0.395555556,1,0,1,1.04,Obsidian_rect,12,0,12,0,1,
664614c87025e6f51aae8ea4,TCN,2024-06-11_12h09.45.517,LearnStrategy,2023.2.3,MacIntel,58.82352941,5,2,14,,,,,,,,2,09,,,,,,,,,,,2,1.487,1,,,,,,-0.148888889,-0.231111111,1,0,1,1.487,Basalt_rect,13,0,13,0,1,
664614c87025e6f51aae8ea4,TCN,2024-06-11_12h09.45.517,LearnStrategy,2023.2.3,MacIntel,58.82352941,5,2,15,,,,,,,,8,16,,,,,,,,,,,8,1.374,1,,,,,,0.347777778,-0.397777778,1,0,1,1.374,Pumice_rect,14,0,14,0,1,
664614c87025e6f51aae8ea4,TCN,2024-06-11_12h09.45.517,LearnStrategy,2023.2.3,MacIntel,58.82352941,5,2,16,,,,,,,,7,04,,,,,,,,,,,7,8.955,1,,,,,,0.127777778,-0.407777778,1,0,1,8.955,Peridotite_rect,15,0,15,0,1,
664614c87025e6f51aae8ea4,TCN,2024-06-11_12h09.45.517,LearnStrategy,2023.2.3,MacIntel,58.82352941,6,1,1,0.132222222,-0.002222222,1,0,1,2.797,rock_grid_rect_2,8,13,-1,-1,2.797,0.382222222,-0.398888889,1,0,1,1.575,Pumice_rect,8,1.575,1,0,0,0,0,1,,,,,,,,,,,,,
664614c87025e6f51aae8ea4,TCN,2024-06-11_12h09.45.517,LearnStrategy,2023.2.3,MacIntel,58.82352941,6,1,2,0.078888889,0.011111111,1,0,1,1.181,rock_grid_rect_2,3,09,-1,-1,1.181,0.107777778,-0.25,1,0,1,1.51,Diorite_rect,3,1.51,1,1,0,1,0,1,,,,,,,,,,,,,
664614c87025e6f51aae8ea4,TCN,2024-06-11_12h09.45.517,LearnStrategy,2023.2.3,MacIntel,58.82352941,6,1,3,0.041111111,-0.008888889,1,0,1,0.814,rock_grid_rect_2,1,14,-1,-1,0.814,-0.33,-0.251111111,1,0,1,1.342,Andesite_rect,1,1.342,1,2,0,2,0,1,,,,,,,,,,,,,
664614c87025e6f51aae8ea4,TCN,2024-06-11_12h09.45.517,LearnStrategy,2023.2.3,MacIntel,58.82352941,6,1,4,-0.004444444,0.005555556,1,0,1,0.614,rock_grid_rect_2,7,10,-1,-1,0.614,0.114444444,-0.407777778,1,0,1,1.025,Peridotite_rect,7,1.025,1,3,0,3,0,1,,,,,,,,,,,,,
664614c87025e6f51aae8ea4,TCN,2024-06-11_12h09.45.517,LearnStrategy,2023.2.3,MacIntel,58.82352941,6,1,5,0.072222222,-0.006666667,1,0,1,1.298,rock_grid_rect_2,4,01,-1,-1,1.298,0.333333333,-0.26,1,0,1,3.108,Gabbro_rect,4,3.108,1,4,0,4,0,1,,,,,,,,,,,,,
664614c87025e6f51aae8ea4,TCN,2024-06-11_12h09.45.517,LearnStrategy,2023.2.3,MacIntel,58.82352941,6,1,6,0.061111111,0.01,1,0,1,0.712,rock_grid_rect_2,1,16,-1,-1,0.712,-0.333333333,-0.25,1,0,1,1.408,Andesite_rect,1,1.408,1,5,0,5,0,1,,,,,,,,,,,,,
664614c87025e6f51aae8ea4,TCN,2024-06-11_12h09.45.517,LearnStrategy,2023.2.3,MacIntel,58.82352941,6,1,7,0.036666667,-0.018888889,1,0,1,0.614,rock_grid_rect_2,3,16,-1,-1,0.614,0.113333333,-0.251111111,1,0,1,1.008,Diorite_rect,3,1.008,1,6,0,6,0,1,,,,,,,,,,,,,
664614c87025e6f51aae8ea4,TCN,2024-06-11_12h09.45.517,LearnStrategy,2023.2.3,MacIntel,58.82352941,6,1,8,0.071111111,0.013333333,1,0,1,0.68,rock_grid_rect_2,4,08,-1,-1,0.68,0.357777778,-0.261111111,1,0,1,1.377,Gabbro_rect,4,1.377,1,7,0,7,0,1,,,,,,,,,,,,,
664614c87025e6f51aae8ea4,TCN,2024-06-11_12h09.45.517,LearnStrategy,2023.2.3,MacIntel,58.82352941,6,1,9,0.02,-0.018888889,1,0,1,0.98,rock_grid_rect_2,5,16,-1,-1,0.98,-0.35,-0.395555556,1,0,1,1.025,Obsidian_rect,5,1.025,1,8,0,8,0,1,,,,,,,,,,,,,
664614c87025e6f51aae8ea4,TCN,2024-06-11_12h09.45.517,LearnStrategy,2023.2.3,MacIntel,58.82352941,6,1,10,0.043333333,0.001111111,1,0,1,0.595,rock_grid_rect_2,2,05,-1,-1,0.595,-0.105555556,-0.235555556,1,0,1,0.926,Basalt_rect,2,0.926,1,9,0,9,0,1,,,,,,,,,,,,,
664614c87025e6f51aae8ea4,TCN,2024-06-11_12h09.45.517,LearnStrategy,2023.2.3,MacIntel,58.82352941,6,1,11,0.044444444,-0.016666667,1,0,1,0.629,rock_grid_rect_2,8,02,-1,-1,0.629,0.341111111,-0.383333333,1,0,1,1.358,Pumice_rect,8,1.358,1,10,0,10,0,1,,,,,,,,,,,,,
664614c87025e6f51aae8ea4,TCN,2024-06-11_12h09.45.517,LearnStrategy,2023.2.3,MacIntel,58.82352941,6,1,12,0.051111111,-0.013333333,1,0,1,0.682,rock_grid_rect_2,6,13,-1,-1,0.682,-0.121111111,-0.402222222,1,0,1,1.358,Pegmatite_rect,6,1.358,1,11,0,11,0,1,,,,,,,,,,,,,
664614c87025e6f51aae8ea4,TCN,2024-06-11_12h09.45.517,LearnStrategy,2023.2.3,MacIntel,58.82352941,6,1,13,0.028888889,0.001111111,1,0,1,1.246,rock_grid_rect_2,6,15,-1,-1,1.246,-0.072222222,-0.408888889,1,0,1,1.141,Pegmatite_rect,6,1.141,1,12,0,12,0,1,,,,,,,,,,,,,
664614c87025e6f51aae8ea4,TCN,2024-06-11_12h09.45.517,LearnStrategy,2023.2.3,MacIntel,58.82352941,6,1,14,0.05,-0.02,1,0,1,2.633,rock_grid_rect_2,5,07,-1,-1,2.633,-0.356666667,-0.416666667,1,0,1,1.04,Obsidian_rect,5,1.04,1,13,0,13,0,1,,,,,,,,,,,,,
664614c87025e6f51aae8ea4,TCN,2024-06-11_12h09.45.517,LearnStrategy,2023.2.3,MacIntel,58.82352941,6,1,15,0.013333333,0.005555556,1,0,1,0.663,rock_grid_rect_2,2,04,-1,-1,0.663,-0.133333333,-0.244444444,1,0,1,0.874,Basalt_rect,2,0.874,1,14,0,14,0,1,,,,,,,,,,,,,
664614c87025e6f51aae8ea4,TCN,2024-06-11_12h09.45.517,LearnStrategy,2023.2.3,MacIntel,58.82352941,6,1,16,0.011111111,-0.011111111,1,0,1,0.598,rock_grid_rect_2,7,07,-1,-1,0.598,0.108888889,-0.393333333,1,0,1,1.473,Peridotite_rect,7,1.473,1,15,0,15,0,1,,,,,,,,,,,,,
664614c87025e6f51aae8ea4,TCN,2024-06-11_12h09.45.517,LearnStrategy,2023.2.3,MacIntel,58.82352941,6,2,1,,,,,,,,5,14,,,,,,,,,,,5,1.022,1,,,,,,-0.355555556,-0.414444444,1,0,1,1.022,Obsidian_rect,0,0,0,0,1,
664614c87025e6f51aae8ea4,TCN,2024-06-11_12h09.45.517,LearnStrategy,2023.2.3,MacIntel,58.82352941,6,2,2,,,,,,,,5,04,,,,,,,,,,,5,1.124,1,,,,,,-0.378888889,-0.404444444,1,0,1,1.124,Obsidian_rect,1,0,1,0,1,
664614c87025e6f51aae8ea4,TCN,2024-06-11_12h09.45.517,LearnStrategy,2023.2.3,MacIntel,58.82352941,6,2,3,,,,,,,,4,09,,,,,,,,,,,4,5.371,1,,,,,,0.407777778,-0.244444444,1,0,1,5.371,Gabbro_rect,2,0,2,0,1,
664614c87025e6f51aae8ea4,TCN,2024-06-11_12h09.45.517,LearnStrategy,2023.2.3,MacIntel,58.82352941,6,2,4,,,,,,,,3,14,,,,,,,,,,,3,0.988,1,,,,,,0.143333333,-0.252222222,1,0,1,0.988,Diorite_rect,3,0,3,0,1,
664614c87025e6f51aae8ea4,TCN,2024-06-11_12h09.45.517,LearnStrategy,2023.2.3,MacIntel,58.82352941,6,2,5,,,,,,,,1,10,,,,,,,,,,,1,2.654,1,,,,,,-0.361111111,-0.254444444,1,0,1,2.654,Andesite_rect,4,0,4,0,1,
664614c87025e6f51aae8ea4,TCN,2024-06-11_12h09.45.517,LearnStrategy,2023.2.3,MacIntel,58.82352941,6,2,6,,,,,,,,7,14,,,,,,,,,,,7,1.272,1,,,,,,0.096666667,-0.394444444,1,0,1,1.272,Peridotite_rect,5,0,5,0,1,
664614c87025e6f51aae8ea4,TCN,2024-06-11_12h09.45.517,LearnStrategy,2023.2.3,MacIntel,58.82352941,6,2,7,,,,,,,,6,05,,,,,,,,,,,6,4.355,1,,,,,,-0.111111111,-0.412222222,1,0,1,4.355,Pegmatite_rect,6,0,6,0,1,
664614c87025e6f51aae8ea4,TCN,2024-06-11_12h09.45.517,LearnStrategy,2023.2.3,MacIntel,58.82352941,6,2,8,,,,,,,,4,11,,,,,,,,,,,4,1.871,1,,,,,,0.325555556,-0.262222222,1,0,1,1.871,Gabbro_rect,7,0,7,0,1,
664614c87025e6f51aae8ea4,TCN,2024-06-11_12h09.45.517,LearnStrategy,2023.2.3,MacIntel,58.82352941,6,2,9,,,,,,,,1,11,,,,,,,,,,,1,1.106,1,,,,,,-0.338888889,-0.245555556,1,0,1,1.106,Andesite_rect,8,0,8,0,1,
664614c87025e6f51aae8ea4,TCN,2024-06-11_12h09.45.517,LearnStrategy,2023.2.3,MacIntel,58.82352941,6,2,10,,,,,,,,2,11,,,,,,,,,,,2,2.922,1,,,,,,-0.113333333,-0.255555556,1,0,1,2.922,Basalt_rect,9,0,9,0,1,
664614c87025e6f51aae8ea4,TCN,2024-06-11_12h09.45.517,LearnStrategy,2023.2.3,MacIntel,58.82352941,6,2,11,,,,,,,,2,01,,,,,,,,,,,2,0.87,1,,,,,,-0.113333333,-0.255555556,1,0,1,0.87,Basalt_rect,10,0,10,0,1,
664614c87025e6f51aae8ea4,TCN,2024-06-11_12h09.45.517,LearnStrategy,2023.2.3,MacIntel,58.82352941,6,2,12,,,,,,,,3,06,,,,,,,,,,,3,2.871,1,,,,,,0.121111111,-0.246666667,1,0,1,2.871,Diorite_rect,11,0,11,0,1,
664614c87025e6f51aae8ea4,TCN,2024-06-11_12h09.45.517,LearnStrategy,2023.2.3,MacIntel,58.82352941,6,2,13,,,,,,,,6,06,,,,,,,,,,,6,1.308,1,,,,,,-0.15,-0.392222222,1,0,1,1.308,Pegmatite_rect,12,0,12,0,1,
664614c87025e6f51aae8ea4,TCN,2024-06-11_12h09.45.517,LearnStrategy,2023.2.3,MacIntel,58.82352941,6,2,14,,,,,,,,8,09,,,,,,,,,,,8,1.205,1,,,,,,0.366666667,-0.393333333,1,0,1,1.205,Pumice_rect,13,0,13,0,1,
664614c87025e6f51aae8ea4,TCN,2024-06-11_12h09.45.517,LearnStrategy,2023.2.3,MacIntel,58.82352941,6,2,15,,,,,,,,7,05,,,,,,,,,,,7,1.12,1,,,,,,0.21,-0.406666667,1,0,1,1.12,Peridotite_rect,14,0,14,0,1,
664614c87025e6f51aae8ea4,TCN,2024-06-11_12h09.45.517,LearnStrategy,2023.2.3,MacIntel,58.82352941,6,2,16,,,,,,,,8,03,,,,,,,,,,,8,1.754,1,,,,,,0.355555556,-0.402222222,1,0,1,1.754,Pumice_rect,15,0,15,0,1,
664614c87025e6f51aae8ea4,TCN,2024-06-11_12h09.45.517,LearnStrategy,2023.2.3,MacIntel,58.82352941,7,1,1,0.001111111,0.012222222,1,0,1,1.462,rock_grid_rect_2,1,03,-1,-1,1.462,-0.34,-0.242222222,1,0,1,1.976,Andesite_rect,1,1.976,1,0,0,0,0,1,,,,,,,,,,,,,
664614c87025e6f51aae8ea4,TCN,2024-06-11_12h09.45.517,LearnStrategy,2023.2.3,MacIntel,58.82352941,7,1,2,0.083333333,-0.01,1,0,1,0.762,rock_grid_rect_2,7,16,-1,-1,0.762,0.107777778,-0.413333333,1,0,1,1.858,Peridotite_rect,7,1.858,1,1,0,1,0,1,,,,,,,,,,,,,
664614c87025e6f51aae8ea4,TCN,2024-06-11_12h09.45.517,LearnStrategy,2023.2.3,MacIntel,58.82352941,7,1,3,0.093333333,-0.007777778,1,0,1,1.032,rock_grid_rect_2,3,16,-1,-1,1.032,0.095555556,-0.258888889,1,0,1,0.91,Diorite_rect,3,0.91,1,2,0,2,0,1,,,,,,,,,,,,,
664614c87025e6f51aae8ea4,TCN,2024-06-11_12h09.45.517,LearnStrategy,2023.2.3,MacIntel,58.82352941,7,1,4,0.053333333,-0.008888889,1,0,1,0.714,rock_grid_rect_2,2,04,-1,-1,0.714,-0.124444444,-0.247777778,1,0,1,0.944,Basalt_rect,2,0.944,1,3,0,3,0,1,,,,,,,,,,,,,
664614c87025e6f51aae8ea4,TCN,2024-06-11_12h09.45.517,LearnStrategy,2023.2.3,MacIntel,58.82352941,7,1,5,0.037777778,-0.002222222,1,0,1,0.629,rock_grid_rect_2,5,11,-1,-1,0.629,-0.374444444,-0.411111111,1,0,1,1.04,Obsidian_rect,5,1.04,1,4,0,4,0,1,,,,,,,,,,,,,
664614c87025e6f51aae8ea4,TCN,2024-06-11_12h09.45.517,LearnStrategy,2023.2.3,MacIntel,58.82352941,7,1,6,-0.008888889,0.008888889,1,0,1,0.714,rock_grid_rect_2,4,15,-1,-1,0.714,0.402222222,-0.24,1,0,1,3.942,Gabbro_rect,4,3.942,1,5,0,5,0,1,,,,,,,,,,,,,
664614c87025e6f51aae8ea4,TCN,2024-06-11_12h09.45.517,LearnStrategy,2023.2.3,MacIntel,58.82352941,7,1,7,0.075555556,-0.013333333,1,0,1,0.646,rock_grid_rect_2,8,14,-1,-1,0.646,0.384444444,-0.393333333,1,0,1,1.574,Pumice_rect,8,1.574,1,6,0,6,0,1,,,,,,,,,,,,,
664614c87025e6f51aae8ea4,TCN,2024-06-11_12h09.45.517,LearnStrategy,2023.2.3,MacIntel,58.82352941,7,1,8,0.047777778,-0.003333333,1,0,1,0.848,rock_grid_rect_2,1,01,-1,-1,0.848,-0.437777778,-0.246666667,1,0,1,4.278,Andesite_rect,1,4.278,1,7,0,7,0,1,,,,,,,,,,,,,
664614c87025e6f51aae8ea4,TCN,2024-06-11_12h09.45.517,LearnStrategy,2023.2.3,MacIntel,58.82352941,7,1,9,-0.047777778,-0.005555556,1,0,1,4.183,rock_grid_rect_2,6,09,-1,-1,4.183,-0.15,-0.405555556,1,0,1,1.074,Pegmatite_rect,6,1.074,1,8,0,8,0,1,,,,,,,,,,,,,
664614c87025e6f51aae8ea4,TCN,2024-06-11_12h09.45.517,LearnStrategy,2023.2.3,MacIntel,58.82352941,7,1,10,0.04,-0.002222222,1,0,1,0.764,rock_grid_rect_2,7,10,-1,-1,0.764,0.104444444,-0.404444444,1,0,1,1.572,Peridotite_rect,7,1.572,1,9,0,9,0,1,,,,,,,,,,,,,
664614c87025e6f51aae8ea4,TCN,2024-06-11_12h09.45.517,LearnStrategy,2023.2.3,MacIntel,58.82352941,7,1,11,0.05,0.005555556,1,0,1,1.082,rock_grid_rect_2,2,16,-1,-1,1.082,-0.106666667,-0.245555556,1,0,1,4.273,Basalt_rect,2,4.273,1,10,0,10,0,1,,,,,,,,,,,,,
664614c87025e6f51aae8ea4,TCN,2024-06-11_12h09.45.517,LearnStrategy,2023.2.3,MacIntel,58.82352941,7,1,12,0.03,-0.007777778,1,0,1,0.73,rock_grid_rect_2,3,15,-1,-1,0.73,0.133333333,-0.235555556,1,0,1,2.108,Diorite_rect,3,2.108,1,11,0,11,0,1,,,,,,,,,,,,,
664614c87025e6f51aae8ea4,TCN,2024-06-11_12h09.45.517,LearnStrategy,2023.2.3,MacIntel,58.82352941,7,1,13,0.05,0.011111111,1,0,1,0.764,rock_grid_rect_2,8,02,-1,-1,0.764,0.373333333,-0.403333333,1,0,1,1.559,Pumice_rect,8,1.559,1,12,0,12,0,1,,,,,,,,,,,,,
664614c87025e6f51aae8ea4,TCN,2024-06-11_12h09.45.517,LearnStrategy,2023.2.3,MacIntel,58.82352941,7,1,14,0.032222222,-0.018888889,1,0,1,0.763,rock_grid_rect_2,6,13,-1,-1,0.763,-0.162222222,-0.407777778,1,0,1,1.409,Pegmatite_rect,6,1.409,1,13,0,13,0,1,,,,,,,,,,,,,
664614c87025e6f51aae8ea4,TCN,2024-06-11_12h09.45.517,LearnStrategy,2023.2.3,MacIntel,58.82352941,7,1,15,-0.005555556,-0.008888889,1,0,1,0.746,rock_grid_rect_2,5,05,-1,-1,0.746,-0.405555556,-0.41,1,0,1,1.156,Obsidian_rect,5,1.156,1,14,0,14,0,1,,,,,,,,,,,,,
664614c87025e6f51aae8ea4,TCN,2024-06-11_12h09.45.517,LearnStrategy,2023.2.3,MacIntel,58.82352941,7,1,16,0.016666667,0.011111111,1,0,1,0.646,rock_grid_rect_2,4,13,-1,-1,0.646,0.35,-0.256666667,1,0,1,1.725,Gabbro_rect,4,1.725,1,15,0,15,0,1,,,,,,,,,,,,,
664614c87025e6f51aae8ea4,TCN,2024-06-11_12h09.45.517,LearnStrategy,2023.2.3,MacIntel,58.82352941,7,2,1,,,,,,,,4,16,,,,,,,,,,,4,2.888,1,,,,,,0.366666667,-0.242222222,1,0,1,2.888,Gabbro_rect,0,0,0,0,1,
664614c87025e6f51aae8ea4,TCN,2024-06-11_12h09.45.517,LearnStrategy,2023.2.3,MacIntel,58.82352941,7,2,2,,,,,,,,5,08,,,,,,,,,,,5,1.157,1,,,,,,-0.35,-0.408888889,1,0,1,1.157,Obsidian_rect,1,0,1,0,1,
664614c87025e6f51aae8ea4,TCN,2024-06-11_12h09.45.517,LearnStrategy,2023.2.3,MacIntel,58.82352941,7,2,3,,,,,,,,8,04,,,,,,,,,,,8,1.055,1,,,,,,0.351111111,-0.382222222,1,0,1,1.055,Pumice_rect,2,0,2,0,1,
664614c87025e6f51aae8ea4,TCN,2024-06-11_12h09.45.517,LearnStrategy,2023.2.3,MacIntel,58.82352941,7,2,4,,,,,,,,1,09,,,,,,,,,,,1,1.12,1,,,,,,-0.363333333,-0.238888889,1,0,1,1.12,Andesite_rect,3,0,3,0,1,
664614c87025e6f51aae8ea4,TCN,2024-06-11_12h09.45.517,LearnStrategy,2023.2.3,MacIntel,58.82352941,7,2,5,,,,,,,,4,12,,,,,,,,,,,4,3.954,1,,,,,,0.394444444,-0.24,1,0,1,3.954,Gabbro_rect,4,0,4,0,1,
664614c87025e6f51aae8ea4,TCN,2024-06-11_12h09.45.517,LearnStrategy,2023.2.3,MacIntel,58.82352941,7,2,6,,,,,,,,2,11,,,,,,,,,,,2,2.786,1,,,,,,-0.095555556,-0.256666667,1,0,1,2.786,Basalt_rect,5,0,5,0,1,
664614c87025e6f51aae8ea4,TCN,2024-06-11_12h09.45.517,LearnStrategy,2023.2.3,MacIntel,58.82352941,7,2,7,,,,,,,,6,10,,,,,,,,,,,6,2.255,1,,,,,,-0.102222222,-0.385555556,1,0,1,2.255,Pegmatite_rect,6,0,6,0,1,
664614c87025e6f51aae8ea4,TCN,2024-06-11_12h09.45.517,LearnStrategy,2023.2.3,MacIntel,58.82352941,7,2,8,,,,,,,,7,13,,,,,,,,,,,7,1.171,1,,,,,,0.073333333,-0.391111111,1,0,1,1.171,Peridotite_rect,7,0,7,0,1,
664614c87025e6f51aae8ea4,TCN,2024-06-11_12h09.45.517,LearnStrategy,2023.2.3,MacIntel,58.82352941,7,2,9,,,,,,,,3,13,,,,,,,,,,,3,2.241,1,,,,,,0.112222222,-0.254444444,1,0,1,2.241,Diorite_rect,8,0,8,0,1,
664614c87025e6f51aae8ea4,TCN,2024-06-11_12h09.45.517,LearnStrategy,2023.2.3,MacIntel,58.82352941,7,2,10,,,,,,,,8,09,,,,,,,,,,,8,1.29,1,,,,,,0.356666667,-0.386666667,1,0,1,1.29,Pumice_rect,9,0,9,0,1,
664614c87025e6f51aae8ea4,TCN,2024-06-11_12h09.45.517,LearnStrategy,2023.2.3,MacIntel,58.82352941,7,2,11,,,,,,,,7,12,,,,,,,,,,,7,1.471,1,,,,,,0.18,-0.4,1,0,1,1.471,Peridotite_rect,10,0,10,0,1,
664614c87025e6f51aae8ea4,TCN,2024-06-11_12h09.45.517,LearnStrategy,2023.2.3,MacIntel,58.82352941,7,2,12,,,,,,,,1,06,,,,,,,,,,,1,1.305,1,,,,,,-0.344444444,-0.266666667,1,0,1,1.305,Andesite_rect,11,0,11,0,1,
664614c87025e6f51aae8ea4,TCN,2024-06-11_12h09.45.517,LearnStrategy,2023.2.3,MacIntel,58.82352941,7,2,13,,,,,,,,3,12,,,,,,,,,,,3,1.27,1,,,,,,0.064444444,-0.244444444,1,0,1,1.27,Diorite_rect,12,0,12,0,1,
664614c87025e6f51aae8ea4,TCN,2024-06-11_12h09.45.517,LearnStrategy,2023.2.3,MacIntel,58.82352941,7,2,14,,,,,,,,5,12,,,,,,,,,,,5,1.139,1,,,,,,-0.363333333,-0.418888889,1,0,1,1.139,Obsidian_rect,13,0,13,0,1,
664614c87025e6f51aae8ea4,TCN,2024-06-11_12h09.45.517,LearnStrategy,2023.2.3,MacIntel,58.82352941,7,2,15,,,,,,,,2,09,,,,,,,,,,,2,1.17,1,,,,,,-0.153333333,-0.262222222,1,0,1,1.17,Basalt_rect,14,0,14,0,1,
664614c87025e6f51aae8ea4,TCN,2024-06-11_12h09.45.517,LearnStrategy,2023.2.3,MacIntel,58.82352941,7,2,16,,,,,,,,6,05,,,,,,,,,,,6,4.488,1,,,,,,-0.146666667,-0.415555556,1,0,1,4.488,Pegmatite_rect,15,0,15,0,1,
664614c87025e6f51aae8ea4,TCN,2024-06-11_12h09.45.517,LearnStrategy,2023.2.3,MacIntel,58.82352941,8,1,1,0.09,-0.002222222,1,0,1,1.332,rock_grid_rect_2,1,14,-1,-1,1.332,-0.358888889,-0.247777778,1,0,1,1.808,Andesite_rect,1,1.808,1,0,0,0,0,1,,,,,,,,,,,,,
664614c87025e6f51aae8ea4,TCN,2024-06-11_12h09.45.517,LearnStrategy,2023.2.3,MacIntel,58.82352941,8,1,2,0.048888889,-0.02,1,0,1,0.814,rock_grid_rect_2,2,05,-1,-1,0.814,-0.121111111,-0.24,1,0,1,0.892,Basalt_rect,2,0.892,1,1,0,1,0,1,,,,,,,,,,,,,
664614c87025e6f51aae8ea4,TCN,2024-06-11_12h09.45.517,LearnStrategy,2023.2.3,MacIntel,58.82352941,8,1,3,0.014444444,-0.004444444,1,0,1,0.747,rock_grid_rect_2,8,13,-1,-1,0.747,0.365555556,-0.403333333,1,0,1,1.61,Pumice_rect,8,1.61,1,2,0,2,0,1,,,,,,,,,,,,,
664614c87025e6f51aae8ea4,TCN,2024-06-11_12h09.45.517,LearnStrategy,2023.2.3,MacIntel,58.82352941,8,1,4,0.05,-0.006666667,1,0,1,0.697,rock_grid_rect_2,3,09,-1,-1,0.697,0.15,-0.244444444,1,0,1,1.046,Diorite_rect,3,1.046,1,3,0,3,0,1,,,,,,,,,,,,,
664614c87025e6f51aae8ea4,TCN,2024-06-11_12h09.45.517,LearnStrategy,2023.2.3,MacIntel,58.82352941,8,1,5,0.004444444,-0.008888889,1,0,1,0.614,rock_grid_rect_2,1,05,-1,-1,0.614,-0.343333333,-0.234444444,1,0,1,0.957,Andesite_rect,1,0.957,1,4,0,4,0,1,,,,,,,,,,,,,
664614c87025e6f51aae8ea4,TCN,2024-06-11_12h09.45.517,LearnStrategy,2023.2.3,MacIntel,58.82352941,8,1,6,-0.007777778,-0.017777778,1,0,1,0.714,rock_grid_rect_2,7,08,-1,-1,0.714,0.115555556,-0.4,1,0,1,1.088,Peridotite_rect,7,1.088,1,5,0,5,0,1,,,,,,,,,,,,,
664614c87025e6f51aae8ea4,TCN,2024-06-11_12h09.45.517,LearnStrategy,2023.2.3,MacIntel,58.82352941,8,1,7,0.032222222,0.002222222,1,0,1,1.048,rock_grid_rect_2,7,07,-1,-1,1.048,0.084444444,-0.388888889,1,0,1,0.993,Peridotite_rect,7,0.993,1,6,0,6,0,1,,,,,,,,,,,,,
664614c87025e6f51aae8ea4,TCN,2024-06-11_12h09.45.517,LearnStrategy,2023.2.3,MacIntel,58.82352941,8,1,8,0.037777778,0.017777778,1,0,1,0.613,rock_grid_rect_2,3,11,-1,-1,0.613,0.157777778,-0.245555556,1,0,1,1.76,Diorite_rect,3,1.76,1,7,0,7,0,1,,,,,,,,,,,,,
664614c87025e6f51aae8ea4,TCN,2024-06-11_12h09.45.517,LearnStrategy,2023.2.3,MacIntel,58.82352941,8,1,9,0.008888889,-0.007777778,1,0,1,0.665,rock_grid_rect_2,4,03,-1,-1,0.665,0.316666667,-0.248888889,1,0,1,4.31,Gabbro_rect,4,4.31,1,8,0,8,0,1,,,,,,,,,,,,,
664614c87025e6f51aae8ea4,TCN,2024-06-11_12h09.45.517,LearnStrategy,2023.2.3,MacIntel,58.82352941,8,1,10,0.013333333,0.002222222,1,0,1,0.813,rock_grid_rect_2,2,08,-1,-1,0.813,-0.113333333,-0.242222222,1,0,1,0.857,Basalt_rect,2,0.857,1,9,0,9,0,1,,,,,,,,,,,,,
664614c87025e6f51aae8ea4,TCN,2024-06-11_12h09.45.517,LearnStrategy,2023.2.3,MacIntel,58.82352941,8,1,11,0.032222222,-0.002222222,1,0,1,0.614,rock_grid_rect_2,5,07,-1,-1,0.614,-0.371111111,-0.393333333,1,0,1,1.375,Obsidian_rect,5,1.375,1,10,0,10,0,1,,,,,,,,,,,,,
664614c87025e6f51aae8ea4,TCN,2024-06-11_12h09.45.517,LearnStrategy,2023.2.3,MacIntel,58.82352941,8,1,12,0.025555556,-0.001111111,1,0,1,0.63,rock_grid_rect_2,8,06,-1,-1,0.63,0.318888889,-0.404444444,1,0,1,1.159,Pumice_rect,8,1.159,1,11,0,11,0,1,,,,,,,,,,,,,
664614c87025e6f51aae8ea4,TCN,2024-06-11_12h09.45.517,LearnStrategy,2023.2.3,MacIntel,58.82352941,8,1,13,0.042222222,0.01,1,0,1,0.613,rock_grid_rect_2,5,02,-1,-1,0.613,-0.43,-0.405555556,1,0,1,0.875,Obsidian_rect,5,0.875,1,12,0,12,0,1,,,,,,,,,,,,,
664614c87025e6f51aae8ea4,TCN,2024-06-11_12h09.45.517,LearnStrategy,2023.2.3,MacIntel,58.82352941,8,1,14,-0.002222222,-0.006666667,1,0,1,0.78,rock_grid_rect_2,4,10,-1,-1,0.78,0.356666667,-0.238888889,1,0,1,1.477,Gabbro_rect,4,1.477,1,13,0,13,0,1,,,,,,,,,,,,,
664614c87025e6f51aae8ea4,TCN,2024-06-11_12h09.45.517,LearnStrategy,2023.2.3,MacIntel,58.82352941,8,1,15,-0.003333333,0.004444444,1,0,1,1.196,rock_grid_rect_2,6,15,-1,-1,1.196,-0.102222222,-0.39,1,0,1,1.141,Pegmatite_rect,6,1.141,1,14,0,14,0,1,,,,,,,,,,,,,
664614c87025e6f51aae8ea4,TCN,2024-06-11_12h09.45.517,LearnStrategy,2023.2.3,MacIntel,58.82352941,8,1,16,0.008888889,0.006666667,1,0,1,0.78,rock_grid_rect_2,6,12,-1,-1,0.78,-0.113333333,-0.407777778,1,0,1,1.391,Pegmatite_rect,6,1.391,1,15,0,15,0,1,,,,,,,,,,,,,
664614c87025e6f51aae8ea4,TCN,2024-06-11_12h09.45.517,LearnStrategy,2023.2.3,MacIntel,58.82352941,8,2,1,,,,,,,,6,07,,,,,,,,,,,6,1.205,1,,,,,,-0.125555556,-0.421111111,1,0,1,1.205,Pegmatite_rect,0,0,0,0,1,
664614c87025e6f51aae8ea4,TCN,2024-06-11_12h09.45.517,LearnStrategy,2023.2.3,MacIntel,58.82352941,8,2,2,,,,,,,,1,11,,,,,,,,,,,1,2.722,1,,,,,,-0.348888889,-0.238888889,1,0,1,2.722,Andesite_rect,1,0,1,0,1,
664614c87025e6f51aae8ea4,TCN,2024-06-11_12h09.45.517,LearnStrategy,2023.2.3,MacIntel,58.82352941,8,2,3,,,,,,,,2,01,,,,,,,,,,,2,0.972,1,,,,,,-0.172222222,-0.247777778,1,0,1,0.972,Basalt_rect,2,0,2,0,1,
664614c87025e6f51aae8ea4,TCN,2024-06-11_12h09.45.517,LearnStrategy,2023.2.3,MacIntel,58.82352941,8,2,4,,,,,,,,4,11,,,,,,,,,,,4,1.203,1,,,,,,0.446666667,-0.255555556,1,0,1,1.203,Gabbro_rect,3,0,3,0,1,
664614c87025e6f51aae8ea4,TCN,2024-06-11_12h09.45.517,LearnStrategy,2023.2.3,MacIntel,58.82352941,8,2,5,,,,,,,,5,04,,,,,,,,,,,5,1.387,1,,,,,,-0.4,-0.411111111,1,0,1,1.387,Obsidian_rect,4,0,4,0,1,
664614c87025e6f51aae8ea4,TCN,2024-06-11_12h09.45.517,LearnStrategy,2023.2.3,MacIntel,58.82352941,8,2,6,,,,,,,,2,10,,,,,,,,,,,2,4.388,1,,,,,,-0.14,-0.26,1,0,1,4.388,Basalt_rect,5,0,5,0,1,
664614c87025e6f51aae8ea4,TCN,2024-06-11_12h09.45.517,LearnStrategy,2023.2.3,MacIntel,58.82352941,8,2,7,,,,,,,,7,14,,,,,,,,,,,7,1.487,1,,,,,,0.087777778,-0.383333333,1,0,1,1.487,Peridotite_rect,6,0,6,0,1,
664614c87025e6f51aae8ea4,TCN,2024-06-11_12h09.45.517,LearnStrategy,2023.2.3,MacIntel,58.82352941,8,2,8,,,,,,,,5,06,,,,,,,,,,,5,1.321,1,,,,,,-0.337777778,-0.411111111,1,0,1,1.321,Obsidian_rect,7,0,7,0,1,
664614c87025e6f51aae8ea4,TCN,2024-06-11_12h09.45.517,LearnStrategy,2023.2.3,MacIntel,58.82352941,8,2,9,,,,,,,,8,16,,,,,,,,,,,8,1.289,1,,,,,,0.447777778,-0.402222222,1,0,1,1.289,Pumice_rect,8,0,8,0,1,
664614c87025e6f51aae8ea4,TCN,2024-06-11_12h09.45.517,LearnStrategy,2023.2.3,MacIntel,58.82352941,8,2,10,,,,,,,,8,10,,,,,,,,,,,8,1.121,1,,,,,,0.416666667,-0.405555556,1,0,1,1.121,Pumice_rect,9,0,9,0,1,
664614c87025e6f51aae8ea4,TCN,2024-06-11_12h09.45.517,LearnStrategy,2023.2.3,MacIntel,58.82352941,8,2,11,,,,,,,,3,14,,,,,,,,,,,3,1.072,1,,,,,,0.188888889,-0.258888889,1,0,1,1.072,Diorite_rect,10,0,10,0,1,
664614c87025e6f51aae8ea4,TCN,2024-06-11_12h09.45.517,LearnStrategy,2023.2.3,MacIntel,58.82352941,8,2,12,,,,,,,,7,04,,,,,,,,,,,7,5.206,1,,,,,,0.133333333,-0.4,1,0,1,5.206,Peridotite_rect,11,0,11,0,1,
664614c87025e6f51aae8ea4,TCN,2024-06-11_12h09.45.517,LearnStrategy,2023.2.3,MacIntel,58.82352941,8,2,13,,,,,,,,4,05,,,,,,,,,,,4,2.637,1,,,,,,0.386666667,-0.243333333,1,0,1,2.637,Gabbro_rect,12,0,12,0,1,
664614c87025e6f51aae8ea4,TCN,2024-06-11_12h09.45.517,LearnStrategy,2023.2.3,MacIntel,58.82352941,8,2,14,,,,,,,,1,07,,,,,,,,,,,1,1.82,1,,,,,,-0.358888889,-0.258888889,1,0,1,1.82,Andesite_rect,13,0,13,0,1,
664614c87025e6f51aae8ea4,TCN,2024-06-11_12h09.45.517,LearnStrategy,2023.2.3,MacIntel,58.82352941,8,2,15,,,,,,,,6,16,,,,,,,,,,,6,2.804,1,,,,,,-0.115555556,-0.404444444,1,0,1,2.804,Pegmatite_rect,14,0,14,0,1,
664614c87025e6f51aae8ea4,TCN,2024-06-11_12h09.45.517,LearnStrategy,2023.2.3,MacIntel,58.82352941,8,2,16,,,,,,,,3,08,,,,,,,,,,,3,1.154,1,,,,,,0.13,-0.243333333,1,0,1,1.154,Diorite_rect,15,0,15,0,1,
664614c87025e6f51aae8ea4,TCN,2024-06-11_12h09.45.517,LearnStrategy,2023.2.3,MacIntel,58.82352941,9,1,1,0.093333333,-0.015555556,1,0,1,1.129,rock_grid_rect_2,6,08,-1,-1,1.129,-0.136666667,-0.401111111,1,0,1,2.158,Pegmatite_rect,6,2.158,1,0,0,0,0,1,,,,,,,,,,,,,
664614c87025e6f51aae8ea4,TCN,2024-06-11_12h09.45.517,LearnStrategy,2023.2.3,MacIntel,58.82352941,9,1,2,0.041111111,-0.013333333,1,0,1,1.296,rock_grid_rect_2,3,10,-1,-1,1.296,0.121111111,-0.243333333,1,0,1,1.009,Diorite_rect,3,1.009,1,1,0,1,0,1,,,,,,,,,,,,,
664614c87025e6f51aae8ea4,TCN,2024-06-11_12h09.45.517,LearnStrategy,2023.2.3,MacIntel,58.82352941,9,1,3,0.013333333,-0.016666667,1,0,1,0.982,rock_grid_rect_2,5,09,-1,-1,0.982,-0.377777778,-0.4,1,0,1,0.992,Obsidian_rect,5,0.992,1,2,0,2,0,1,,,,,,,,,,,,,
664614c87025e6f51aae8ea4,TCN,2024-06-11_12h09.45.517,LearnStrategy,2023.2.3,MacIntel,58.82352941,9,1,4,0.006666667,0,1,0,1,0.596,rock_grid_rect_2,2,02,-1,-1,0.596,-0.117777778,-0.245555556,1,0,1,1.024,Basalt_rect,2,1.024,1,3,0,3,0,1,,,,,,,,,,,,,
664614c87025e6f51aae8ea4,TCN,2024-06-11_12h09.45.517,LearnStrategy,2023.2.3,MacIntel,58.82352941,9,1,5,-0.008888889,0.022222222,1,0,1,0.597,rock_grid_rect_2,4,01,-1,-1,0.597,0.34,-0.253333333,1,0,1,3.794,Gabbro_rect,4,3.794,1,4,0,4,0,1,,,,,,,,,,,,,
664614c87025e6f51aae8ea4,TCN,2024-06-11_12h09.45.517,LearnStrategy,2023.2.3,MacIntel,58.82352941,9,1,6,0.03,-0.005555556,1,0,1,0.68,rock_grid_rect_2,4,08,-1,-1,0.68,0.336666667,-0.247777778,1,0,1,1.091,Gabbro_rect,4,1.091,1,5,0,5,0,1,,,,,,,,,,,,,
664614c87025e6f51aae8ea4,TCN,2024-06-11_12h09.45.517,LearnStrategy,2023.2.3,MacIntel,58.82352941,9,1,7,0.042222222,-0.012222222,1,0,1,0.896,rock_grid_rect_2,1,04,-1,-1,0.896,-0.391111111,-0.254444444,1,0,1,1.159,Andesite_rect,1,1.159,1,6,0,6,0,1,,,,,,,,,,,,,
664614c87025e6f51aae8ea4,TCN,2024-06-11_12h09.45.517,LearnStrategy,2023.2.3,MacIntel,58.82352941,9,1,8,0.015555556,-0.021111111,1,0,1,0.847,rock_grid_rect_2,7,15,-1,-1,0.847,0.137777778,-0.388888889,1,0,1,2.194,Peridotite_rect,7,2.194,1,7,0,7,0,1,,,,,,,,,,,,,
664614c87025e6f51aae8ea4,TCN,2024-06-11_12h09.45.517,LearnStrategy,2023.2.3,MacIntel,58.82352941,9,1,9,0.016666667,-0.023333333,1,0,1,0.614,rock_grid_rect_2,8,08,-1,-1,0.614,0.351111111,-0.394444444,1,0,1,1.642,Pumice_rect,8,1.642,1,8,0,8,0,1,,,,,,,,,,,,,
664614c87025e6f51aae8ea4,TCN,2024-06-11_12h09.45.517,LearnStrategy,2023.2.3,MacIntel,58.82352941,9,1,10,-0.01,-0.015555556,1,0,1,0.78,rock_grid_rect_2,6,03,-1,-1,0.78,-0.127777778,-0.384444444,1,0,1,1.177,Pegmatite_rect,6,1.177,1,9,0,9,0,1,,,,,,,,,,,,,
664614c87025e6f51aae8ea4,TCN,2024-06-11_12h09.45.517,LearnStrategy,2023.2.3,MacIntel,58.82352941,9,1,11,0.016666667,0.004444444,1,0,1,0.714,rock_grid_rect_2,3,02,-1,-1,0.714,0.104444444,-0.245555556,1,0,1,1.008,Diorite_rect,3,1.008,1,10,0,10,0,1,,,,,,,,,,,,,
664614c87025e6f51aae8ea4,TCN,2024-06-11_12h09.45.517,LearnStrategy,2023.2.3,MacIntel,58.82352941,9,1,12,0.028888889,-0.005555556,1,0,1,0.613,rock_grid_rect_2,5,16,-1,-1,0.613,-0.4,-0.408888889,1,0,1,0.994,Obsidian_rect,5,0.994,1,11,0,11,0,1,,,,,,,,,,,,,
664614c87025e6f51aae8ea4,TCN,2024-06-11_12h09.45.517,LearnStrategy,2023.2.3,MacIntel,58.82352941,9,1,13,0.035555556,0.011111111,1,0,1,0.698,rock_grid_rect_2,1,16,-1,-1,0.698,-0.413333333,-0.262222222,1,0,1,1.191,Andesite_rect,1,1.191,1,12,0,12,0,1,,,,,,,,,,,,,
664614c87025e6f51aae8ea4,TCN,2024-06-11_12h09.45.517,LearnStrategy,2023.2.3,MacIntel,58.82352941,9,1,14,0.03,0.006666667,1,0,1,0.646,rock_grid_rect_2,7,02,-1,-1,0.646,0.133333333,-0.378888889,1,0,1,1.208,Peridotite_rect,7,1.208,1,13,0,13,0,1,,,,,,,,,,,,,
664614c87025e6f51aae8ea4,TCN,2024-06-11_12h09.45.517,LearnStrategy,2023.2.3,MacIntel,58.82352941,9,1,15,0.045555556,-0.004444444,1,0,1,0.665,rock_grid_rect_2,2,12,-1,-1,0.665,-0.101111111,-0.232222222,1,0,1,5.211,Basalt_rect,2,5.211,1,14,0,14,0,1,,,,,,,,,,,,,
664614c87025e6f51aae8ea4,TCN,2024-06-11_12h09.45.517,LearnStrategy,2023.2.3,MacIntel,58.82352941,9,1,16,0.04,0.003333333,1,0,1,0.696,rock_grid_rect_2,8,05,-1,-1,0.696,0.37,-0.408888889,1,0,1,1.159,Pumice_rect,8,1.159,1,15,0,15,0,1,,,,,,,,,,,,,
664614c87025e6f51aae8ea4,TCN,2024-06-11_12h09.45.517,LearnStrategy,2023.2.3,MacIntel,58.82352941,9,2,1,,,,,,,,5,14,,,,,,,,,,,5,1.29,1,,,,,,-0.391111111,-0.412222222,1,0,1,1.29,Obsidian_rect,0,0,0,0,1,
664614c87025e6f51aae8ea4,TCN,2024-06-11_12h09.45.517,LearnStrategy,2023.2.3,MacIntel,58.82352941,9,2,2,,,,,,,,2,06,,,,,,,,,,,2,0.955,1,,,,,,-0.122222222,-0.267777778,1,0,1,0.955,Basalt_rect,1,0,1,0,1,
664614c87025e6f51aae8ea4,TCN,2024-06-11_12h09.45.517,LearnStrategy,2023.2.3,MacIntel,58.82352941,9,2,3,,,,,,,,3,07,,,,,,,,,,,3,1.092,1,,,,,,0.126666667,-0.254444444,1,0,1,1.092,Diorite_rect,2,0,2,0,1,
664614c87025e6f51aae8ea4,TCN,2024-06-11_12h09.45.517,LearnStrategy,2023.2.3,MacIntel,58.82352941,9,2,4,,,,,,,,7,05,,,,,,,,,,,7,1.421,1,,,,,,0.13,-0.405555556,1,0,1,1.421,Peridotite_rect,3,0,3,0,1,
664614c87025e6f51aae8ea4,TCN,2024-06-11_12h09.45.517,LearnStrategy,2023.2.3,MacIntel,58.82352941,9,2,5,,,,,,,,3,06,,,,,,,,,,,3,1.503,1,,,,,,0.143333333,-0.246666667,1,0,1,1.503,Diorite_rect,4,0,4,0,1,
664614c87025e6f51aae8ea4,TCN,2024-06-11_12h09.45.517,LearnStrategy,2023.2.3,MacIntel,58.82352941,9,2,6,,,,,,,,1,02,,,,,,,,,,,1,1.354,1,,,,,,-0.354444444,-0.266666667,1,0,1,1.354,Andesite_rect,5,0,5,0,1,
664614c87025e6f51aae8ea4,TCN,2024-06-11_12h09.45.517,LearnStrategy,2023.2.3,MacIntel,58.82352941,9,2,7,,,,,,,,6,06,,,,,,,,,,,6,1.137,1,,,,,,-0.165555556,-0.408888889,1,0,1,1.137,Pegmatite_rect,6,0,6,0,1,
664614c87025e6f51aae8ea4,TCN,2024-06-11_12h09.45.517,LearnStrategy,2023.2.3,MacIntel,58.82352941,9,2,8,,,,,,,,1,10,,,,,,,,,,,4,16.423,0,,,,,,0.4,-0.254444444,1,0,1,16.423,Gabbro_rect,7,0,7,0,1,
664614c87025e6f51aae8ea4,TCN,2024-06-11_12h09.45.517,LearnStrategy,2023.2.3,MacIntel,58.82352941,9,2,9,,,,,,,,8,03,,,,,,,,,,,8,1.453,1,,,,,,0.363333333,-0.406666667,1,0,1,1.453,Pumice_rect,8,0,8,0,1,
664614c87025e6f51aae8ea4,TCN,2024-06-11_12h09.45.517,LearnStrategy,2023.2.3,MacIntel,58.82352941,9,2,10,,,,,,,,6,11,,,,,,,,,,,6,0.955,1,,,,,,-0.094444444,-0.405555556,1,0,1,0.955,Pegmatite_rect,9,0,9,0,1,
664614c87025e6f51aae8ea4,TCN,2024-06-11_12h09.45.517,LearnStrategy,2023.2.3,MacIntel,58.82352941,9,2,11,,,,,,,,8,15,,,,,,,,,,,8,2.021,1,,,,,,0.386666667,-0.384444444,1,0,1,2.021,Pumice_rect,10,0,10,0,1,
664614c87025e6f51aae8ea4,TCN,2024-06-11_12h09.45.517,LearnStrategy,2023.2.3,MacIntel,58.82352941,9,2,12,,,,,,,,4,09,,,,,,,,,,,4,2.121,1,,,,,,0.376666667,-0.252222222,1,0,1,2.121,Gabbro_rect,11,0,11,0,1,
664614c87025e6f51aae8ea4,TCN,2024-06-11_12h09.45.517,LearnStrategy,2023.2.3,MacIntel,58.82352941,9,2,13,,,,,,,,2,14,,,,,,,,,,,8,3.785,0,,,,,,0.358888889,-0.41,1,0,1,3.785,Pumice_rect,12,0,12,0,1,
664614c87025e6f51aae8ea4,TCN,2024-06-11_12h09.45.517,LearnStrategy,2023.2.3,MacIntel,58.82352941,9,2,14,,,,,,,,4,14,,,,,,,,,,,4,2.804,1,,,,,,0.36,-0.251111111,1,0,1,2.804,Gabbro_rect,13,0,13,0,1,
664614c87025e6f51aae8ea4,TCN,2024-06-11_12h09.45.517,LearnStrategy,2023.2.3,MacIntel,58.82352941,9,2,15,,,,,,,,7,06,,,,,,,,,,,7,1.354,1,,,,,,0.171111111,-0.387777778,1,0,1,1.354,Peridotite_rect,14,0,14,0,1,
664614c87025e6f51aae8ea4,TCN,2024-06-11_12h09.45.517,LearnStrategy,2023.2.3,MacIntel,58.82352941,9,2,16,,,,,,,,5,10,,,,,,,,,,,5,1.036,1,,,,,,-0.36,-0.397777778,1,0,1,1.036,Obsidian_rect,15,0,15,0,1,
664614c87025e6f51aae8ea4,TCN,2024-06-11_12h09.45.517,LearnStrategy,2023.2.3,MacIntel,58.82352941,,,,,,,,,,,,,,,,,,,,,,,,,,,,,,,,,,,,,,,,,,,1
664614c87025e6f51aae8ea4,TCN,2024-06-11_12h09.45.517,LearnStrategy,2023.2.3,MacIntel,58.82352941,,,,,,,,,,,,,,,,,,,,,,,,,,,,,,,,,,,,,,,,,,,
664614c87025e6f51aae8ea4,TCN,2024-06-11_12h09.45.517,LearnStrategy,2023.2.3,MacIntel,58.82352941,,,,,,,,,,,4,15,1,1,,,,,,,,,,,,,,,,,,,,,,,,,,,,,
664614c87025e6f51aae8ea4,TCN,2024-06-11_12h09.45.517,LearnStrategy,2023.2.3,MacIntel,58.82352941,,,,,,,,,,,2,08,1,2,,,,,,,,,,,,,,,,,,,,,,,,,,,,,
664614c87025e6f51aae8ea4,TCN,2024-06-11_12h09.45.517,LearnStrategy,2023.2.3,MacIntel,58.82352941,,,,,,,,,,,3,09,1,3,,,,,,,,,,,,,,,,,,,,,,,,,,,,,
664614c87025e6f51aae8ea4,TCN,2024-06-11_12h09.45.517,LearnStrategy,2023.2.3,MacIntel,58.82352941,,,,,,,,,,,5,11,1,4,,,,,,,,,,,,,,,,,,,,,,,,,,,,,
664614c87025e6f51aae8ea4,TCN,2024-06-11_12h09.45.517,LearnStrategy,2023.2.3,MacIntel,58.82352941,,,,,,,,,,,5,05,1,5,,,,,,,,,,,,,,,,,,,,,,,,,,,,,
664614c87025e6f51aae8ea4,TCN,2024-06-11_12h09.45.517,LearnStrategy,2023.2.3,MacIntel,58.82352941,,,,,,,,,,,8,05,1,6,,,,,,,,,,,,,,,,,,,,,,,,,,,,,
664614c87025e6f51aae8ea4,TCN,2024-06-11_12h09.45.517,LearnStrategy,2023.2.3,MacIntel,58.82352941,,,,,,,,,,,2,16,1,7,,,,,,,,,,,,,,,,,,,,,,,,,,,,,
664614c87025e6f51aae8ea4,TCN,2024-06-11_12h09.45.517,LearnStrategy,2023.2.3,MacIntel,58.82352941,,,,,,,,,,,1,03,1,8,,,,,,,,,,,,,,,,,,,,,,,,,,,,,
664614c87025e6f51aae8ea4,TCN,2024-06-11_12h09.45.517,LearnStrategy,2023.2.3,MacIntel,58.82352941,,,,,,,,,,,6,15,2,1,,,,,,,,,,,,,,,,,,,,,,,,,,,,,
664614c87025e6f51aae8ea4,TCN,2024-06-11_12h09.45.517,LearnStrategy,2023.2.3,MacIntel,58.82352941,,,,,,,,,,,6,08,2,2,,,,,,,,,,,,,,,,,,,,,,,,,,,,,
664614c87025e6f51aae8ea4,TCN,2024-06-11_12h09.45.517,LearnStrategy,2023.2.3,MacIntel,58.82352941,,,,,,,,,,,3,10,2,3,,,,,,,,,,,,,,,,,,,,,,,,,,,,,
664614c87025e6f51aae8ea4,TCN,2024-06-11_12h09.45.517,LearnStrategy,2023.2.3,MacIntel,58.82352941,,,,,,,,,,,1,01,2,4,,,,,,,,,,,,,,,,,,,,,,,,,,,,,
664614c87025e6f51aae8ea4,TCN,2024-06-11_12h09.45.517,LearnStrategy,2023.2.3,MacIntel,58.82352941,,,,,,,,,,,5,07,2,5,,,,,,,,,,,,,,,,,,,,,,,,,,,,,
664614c87025e6f51aae8ea4,TCN,2024-06-11_12h09.45.517,LearnStrategy,2023.2.3,MacIntel,58.82352941,,,,,,,,,,,5,16,2,6,,,,,,,,,,,,,,,,,,,,,,,,,,,,,
664614c87025e6f51aae8ea4,TCN,2024-06-11_12h09.45.517,LearnStrategy,2023.2.3,MacIntel,58.82352941,,,,,,,,,,,6,13,2,7,,,,,,,,,,,,,,,,,,,,,,,,,,,,,
664614c87025e6f51aae8ea4,TCN,2024-06-11_12h09.45.517,LearnStrategy,2023.2.3,MacIntel,58.82352941,,,,,,,,,,,3,11,2,8,,,,,,,,,,,,,,,,,,,,,,,,,,,,,
664614c87025e6f51aae8ea4,TCN,2024-06-11_12h09.45.517,LearnStrategy,2023.2.3,MacIntel,58.82352941,,,,,,,,,,,1,14,3,1,,,,,,,,,,,,,,,,,,,,,,,,,,,,,
664614c87025e6f51aae8ea4,TCN,2024-06-11_12h09.45.517,LearnStrategy,2023.2.3,MacIntel,58.82352941,,,,,,,,,,,8,06,3,2,,,,,,,,,,,,,,,,,,,,,,,,,,,,,
664614c87025e6f51aae8ea4,TCN,2024-06-11_12h09.45.517,LearnStrategy,2023.2.3,MacIntel,58.82352941,,,,,,,,,,,7,16,3,3,,,,,,,,,,,,,,,,,,,,,,,,,,,,,
664614c87025e6f51aae8ea4,TCN,2024-06-11_12h09.45.517,LearnStrategy,2023.2.3,MacIntel,58.82352941,,,,,,,,,,,6,09,3,4,,,,,,,,,,,,,,,,,,,,,,,,,,,,,
664614c87025e6f51aae8ea4,TCN,2024-06-11_12h09.45.517,LearnStrategy,2023.2.3,MacIntel,58.82352941,,,,,,,,,,,1,04,3,5,,,,,,,,,,,,,,,,,,,,,,,,,,,,,
664614c87025e6f51aae8ea4,TCN,2024-06-11_12h09.45.517,LearnStrategy,2023.2.3,MacIntel,58.82352941,,,,,,,,,,,7,07,3,6,,,,,,,,,,,,,,,,,,,,,,,,,,,,,
664614c87025e6f51aae8ea4,TCN,2024-06-11_12h09.45.517,LearnStrategy,2023.2.3,MacIntel,58.82352941,,,,,,,,,,,1,05,3,7,,,,,,,,,,,,,,,,,,,,,,,,,,,,,
664614c87025e6f51aae8ea4,TCN,2024-06-11_12h09.45.517,LearnStrategy,2023.2.3,MacIntel,58.82352941,,,,,,,,,,,4,08,3,8,,,,,,,,,,,,,,,,,,,,,,,,,,,,,
664614c87025e6f51aae8ea4,TCN,2024-06-11_12h09.45.517,LearnStrategy,2023.2.3,MacIntel,58.82352941,,,,,,,,,,,3,02,4,1,,,,,,,,,,,,,,,,,,,,,,,,,,,,,
664614c87025e6f51aae8ea4,TCN,2024-06-11_12h09.45.517,LearnStrategy,2023.2.3,MacIntel,58.82352941,,,,,,,,,,,1,16,4,2,,,,,,,,,,,,,,,,,,,,,,,,,,,,,
664614c87025e6f51aae8ea4,TCN,2024-06-11_12h09.45.517,LearnStrategy,2023.2.3,MacIntel,58.82352941,,,,,,,,,,,7,02,4,3,,,,,,,,,,,,,,,,,,,,,,,,,,,,,
664614c87025e6f51aae8ea4,TCN,2024-06-11_12h09.45.517,LearnStrategy,2023.2.3,MacIntel,58.82352941,,,,,,,,,,,3,16,4,4,,,,,,,,,,,,,,,,,,,,,,,,,,,,,
664614c87025e6f51aae8ea4,TCN,2024-06-11_12h09.45.517,LearnStrategy,2023.2.3,MacIntel,58.82352941,,,,,,,,,,,4,03,4,5,,,,,,,,,,,,,,,,,,,,,,,,,,,,,
664614c87025e6f51aae8ea4,TCN,2024-06-11_12h09.45.517,LearnStrategy,2023.2.3,MacIntel,58.82352941,,,,,,,,,,,7,10,4,6,,,,,,,,,,,,,,,,,,,,,,,,,,,,,
664614c87025e6f51aae8ea4,TCN,2024-06-11_12h09.45.517,LearnStrategy,2023.2.3,MacIntel,58.82352941,,,,,,,,,,,8,02,4,7,,,,,,,,,,,,,,,,,,,,,,,,,,,,,
664614c87025e6f51aae8ea4,TCN,2024-06-11_12h09.45.517,LearnStrategy,2023.2.3,MacIntel,58.82352941,,,,,,,,,,,4,13,4,8,,,,,,,,,,,,,,,,,,,,,,,,,,,,,
664614c87025e6f51aae8ea4,TCN,2024-06-11_12h09.45.517,LearnStrategy,2023.2.3,MacIntel,58.82352941,,,,,,,,,,,7,15,5,1,,,,,,,,,,,,,,,,,,,,,,,,,,,,,
664614c87025e6f51aae8ea4,TCN,2024-06-11_12h09.45.517,LearnStrategy,2023.2.3,MacIntel,58.82352941,,,,,,,,,,,2,02,5,2,,,,,,,,,,,,,,,,,,,,,,,,,,,,,
664614c87025e6f51aae8ea4,TCN,2024-06-11_12h09.45.517,LearnStrategy,2023.2.3,MacIntel,58.82352941,,,,,,,,,,,8,08,5,3,,,,,,,,,,,,,,,,,,,,,,,,,,,,,
664614c87025e6f51aae8ea4,TCN,2024-06-11_12h09.45.517,LearnStrategy,2023.2.3,MacIntel,58.82352941,,,,,,,,,,,5,09,5,4,,,,,,,,,,,,,,,,,,,,,,,,,,,,,
664614c87025e6f51aae8ea4,TCN,2024-06-11_12h09.45.517,LearnStrategy,2023.2.3,MacIntel,58.82352941,,,,,,,,,,,4,01,5,5,,,,,,,,,,,,,,,,,,,,,,,,,,,,,
664614c87025e6f51aae8ea4,TCN,2024-06-11_12h09.45.517,LearnStrategy,2023.2.3,MacIntel,58.82352941,,,,,,,,,,,3,15,5,6,,,,,,,,,,,,,,,,,,,,,,,,,,,,,
664614c87025e6f51aae8ea4,TCN,2024-06-11_12h09.45.517,LearnStrategy,2023.2.3,MacIntel,58.82352941,,,,,,,,,,,2,04,5,7,,,,,,,,,,,,,,,,,,,,,,,,,,,,,
664614c87025e6f51aae8ea4,TCN,2024-06-11_12h09.45.517,LearnStrategy,2023.2.3,MacIntel,58.82352941,,,,,,,,,,,8,13,5,8,,,,,,,,,,,,,,,,,,,,,,,,,,,,,
664614c87025e6f51aae8ea4,TCN,2024-06-11_12h09.45.517,LearnStrategy,2023.2.3,MacIntel,58.82352941,,,,,,,,,,,6,03,6,1,,,,,,,,,,,,,,,,,,,,,,,,,,,,,
664614c87025e6f51aae8ea4,TCN,2024-06-11_12h09.45.517,LearnStrategy,2023.2.3,MacIntel,58.82352941,,,,,,,,,,,4,10,6,2,,,,,,,,,,,,,,,,,,,,,,,,,,,,,
664614c87025e6f51aae8ea4,TCN,2024-06-11_12h09.45.517,LearnStrategy,2023.2.3,MacIntel,58.82352941,,,,,,,,,,,6,12,6,3,,,,,,,,,,,,,,,,,,,,,,,,,,,,,
664614c87025e6f51aae8ea4,TCN,2024-06-11_12h09.45.517,LearnStrategy,2023.2.3,MacIntel,58.82352941,,,,,,,,,,,7,08,6,4,,,,,,,,,,,,,,,,,,,,,,,,,,,,,
664614c87025e6f51aae8ea4,TCN,2024-06-11_12h09.45.517,LearnStrategy,2023.2.3,MacIntel,58.82352941,,,,,,,,,,,8,14,6,5,,,,,,,,,,,,,,,,,,,,,,,,,,,,,
664614c87025e6f51aae8ea4,TCN,2024-06-11_12h09.45.517,LearnStrategy,2023.2.3,MacIntel,58.82352941,,,,,,,,,,,2,05,6,6,,,,,,,,,,,,,,,,,,,,,,,,,,,,,
664614c87025e6f51aae8ea4,TCN,2024-06-11_12h09.45.517,LearnStrategy,2023.2.3,MacIntel,58.82352941,,,,,,,,,,,5,02,6,7,,,,,,,,,,,,,,,,,,,,,,,,,,,,,
664614c87025e6f51aae8ea4,TCN,2024-06-11_12h09.45.517,LearnStrategy,2023.2.3,MacIntel,58.82352941,,,,,,,,,,,2,12,6,8,,,,,,,,,,,,,,,,,,,,,,,,,,,,,