participant,condition,date,expName,psychopyVersion,OS,frameRate,block,phase,trial,learn_mouse_2.x,learn_mouse_2.y,learn_mouse_2.leftButton,learn_mouse_2.midButton,learn_mouse_2.rightButton,learn_mouse_2.time,learn_mouse_2.clicked_name,cat,token,row,col,t_select,cat_mouse_l.x,cat_mouse_l.y,cat_mouse_l.leftButton,cat_mouse_l.midButton,cat_mouse_l.rightButton,cat_mouse_l.time,cat_mouse_l.clicked_name,resp,t_resp,corr,train_trials.thisRepN,train_trials.thisTrialN,train_trials.thisN,train_trials.thisIndex,train_trials.ran,cat_mouse_t.x,cat_mouse_t.y,cat_mouse_t.leftButton,cat_mouse_t.midButton,cat_mouse_t.rightButton,cat_mouse_t.time,cat_mouse_t.clicked_name,test_trials.thisRepN,test_trials.thisTrialN,test_trials.thisN,test_trials.thisIndex,test_trials.ran,Bonus
6647b11c05e40e04db826ccb,TCR,2024-06-20_15h27.47.911,LearnStrategy,2023.2.3,Win32,166.6666667,,,,,,,,,,,,,,,,,,,,,,,,,,,,,,,,,,,,,,,,,,,
6647b11c05e40e04db826ccb,TCR,2024-06-20_15h27.47.911,LearnStrategy,2023.2.3,Win32,166.6666667,1,1,1,-0.031944444,-0.015972222,1,0,0,6.873,rock_grid_rect_2,1,04,-1,-1,6.873,-0.093055556,-0.255555556,1,0,0,8.145,Basalt_rect,2,8.145,0,0,0,0,0,1,,,,,,,,,,,,,
6647b11c05e40e04db826ccb,TCR,2024-06-20_15h27.47.911,LearnStrategy,2023.2.3,Win32,166.6666667,1,1,2,-0.025694444,0.004861111,1,0,0,1.395,rock_grid_rect_2,5,07,-1,-1,1.395,0.452777778,-0.40625,1,0,0,3.631,Pumice_rect,8,3.631,0,1,0,1,0,1,,,,,,,,,,,,,
6647b11c05e40e04db826ccb,TCR,2024-06-20_15h27.47.911,LearnStrategy,2023.2.3,Win32,166.6666667,1,1,3,0.065972222,-0.004166667,1,0,0,2.423,rock_grid_rect_2,5,06,-1,-1,2.423,-0.416666667,-0.406944444,1,0,0,8.724,Obsidian_rect,5,8.724,1,2,0,2,0,1,,,,,,,,,,,,,
6647b11c05e40e04db826ccb,TCR,2024-06-20_15h27.47.911,LearnStrategy,2023.2.3,Win32,166.6666667,1,1,4,0.027083333,-0.015972222,1,0,0,1.102,rock_grid_rect_2,8,04,-1,-1,1.102,0.391666667,-0.38125,1,0,0,3.695,Pumice_rect,8,3.695,1,3,0,3,0,1,,,,,,,,,,,,,
6647b11c05e40e04db826ccb,TCR,2024-06-20_15h27.47.911,LearnStrategy,2023.2.3,Win32,166.6666667,1,1,5,-0.009027778,-0.001388889,1,0,0,1.165,rock_grid_rect_2,6,12,-1,-1,1.165,0.154166667,-0.254861111,1,0,0,1.996,Diorite_rect,3,1.996,0,4,0,4,0,1,,,,,,,,,,,,,
6647b11c05e40e04db826ccb,TCR,2024-06-20_15h27.47.911,LearnStrategy,2023.2.3,Win32,166.6666667,1,1,6,-0.067361111,-0.000694444,1,0,0,0.894,rock_grid_rect_2,7,07,-1,-1,0.894,-0.082638889,-0.39375,1,0,0,5.468,Pegmatite_rect,6,5.468,0,5,0,5,0,1,,,,,,,,,,,,,
6647b11c05e40e04db826ccb,TCR,2024-06-20_15h27.47.911,LearnStrategy,2023.2.3,Win32,166.6666667,1,1,7,0.026388889,0.006944444,1,0,0,1.048,rock_grid_rect_2,1,03,-1,-1,1.048,0.090277778,-0.234027778,1,0,0,2.61,Diorite_rect,3,2.61,0,6,0,6,0,1,,,,,,,,,,,,,
6647b11c05e40e04db826ccb,TCR,2024-06-20_15h27.47.911,LearnStrategy,2023.2.3,Win32,166.6666667,1,1,8,-0.109722222,0.009722222,1,0,0,0.976,rock_grid_rect_2,7,16,-1,-1,0.976,0.330555556,-0.250694444,1,0,0,3.085,Gabbro_rect,4,3.085,0,7,0,7,0,1,,,,,,,,,,,,,
6647b11c05e40e04db826ccb,TCR,2024-06-20_15h27.47.911,LearnStrategy,2023.2.3,Win32,166.6666667,1,1,9,0.00625,-0.002777778,1,0,0,0.981,rock_grid_rect_2,6,05,-1,-1,0.981,-0.100694444,-0.270138889,1,0,0,2.268,Basalt_rect,2,2.268,0,8,0,8,0,1,,,,,,,,,,,,,
6647b11c05e40e04db826ccb,TCR,2024-06-20_15h27.47.911,LearnStrategy,2023.2.3,Win32,166.6666667,1,1,10,0.111805556,0.002083333,1,0,0,0.829,rock_grid_rect_2,3,15,-1,-1,0.829,-0.039583333,-0.409722222,1,0,0,1.588,Pegmatite_rect,6,1.588,0,9,0,9,0,1,,,,,,,,,,,,,
6647b11c05e40e04db826ccb,TCR,2024-06-20_15h27.47.911,LearnStrategy,2023.2.3,Win32,166.6666667,1,1,11,0.086805556,-0.004861111,1,0,0,1.149,rock_grid_rect_2,2,12,-1,-1,1.149,0.352083333,-0.392361111,1,0,0,1.562,Pumice_rect,8,1.562,0,10,0,10,0,1,,,,,,,,,,,,,
6647b11c05e40e04db826ccb,TCR,2024-06-20_15h27.47.911,LearnStrategy,2023.2.3,Win32,166.6666667,1,1,12,0.011111111,-0.024305556,1,0,0,0.769,rock_grid_rect_2,3,11,-1,-1,0.769,-0.336805556,-0.257638889,1,0,0,4.972,Andesite_rect,1,4.972,0,11,0,11,0,1,,,,,,,,,,,,,
6647b11c05e40e04db826ccb,TCR,2024-06-20_15h27.47.911,LearnStrategy,2023.2.3,Win32,166.6666667,1,1,13,0.024305556,-0.002777778,1,0,0,0.977,rock_grid_rect_2,8,09,-1,-1,0.977,0.35,-0.391666667,1,0,0,2.521,Pumice_rect,8,2.521,1,12,0,12,0,1,,,,,,,,,,,,,
6647b11c05e40e04db826ccb,TCR,2024-06-20_15h27.47.911,LearnStrategy,2023.2.3,Win32,166.6666667,1,1,14,-0.044444444,-0.001388889,1,0,0,0.864,rock_grid_rect_2,4,03,-1,-1,0.864,0.109027778,-0.397222222,1,0,0,1.77,Peridotite_rect,7,1.77,0,13,0,13,0,1,,,,,,,,,,,,,
6647b11c05e40e04db826ccb,TCR,2024-06-20_15h27.47.911,LearnStrategy,2023.2.3,Win32,166.6666667,1,1,15,-0.066666667,-0.004166667,1,0,0,0.854,rock_grid_rect_2,2,09,-1,-1,0.854,-0.084722222,-0.404166667,1,0,0,2.185,Pegmatite_rect,6,2.185,0,14,0,14,0,1,,,,,,,,,,,,,
6647b11c05e40e04db826ccb,TCR,2024-06-20_15h27.47.911,LearnStrategy,2023.2.3,Win32,166.6666667,1,1,16,0.013194444,-0.000694444,1,0,0,0.787,rock_grid_rect_2,4,10,-1,-1,0.787,0.41875,-0.231944444,1,0,0,1.352,Gabbro_rect,4,1.352,1,15,0,15,0,1,,,,,,,,,,,,,
6647b11c05e40e04db826ccb,TCR,2024-06-20_15h27.47.911,LearnStrategy,2023.2.3,Win32,166.6666667,1,2,1,,,,,,,,2,02,,,,,,,,,,,2,12.069,1,,,,,,-0.080555556,-0.261111111,1,0,0,12.069,Basalt_rect,0,0,0,0,1,
6647b11c05e40e04db826ccb,TCR,2024-06-20_15h27.47.911,LearnStrategy,2023.2.3,Win32,166.6666667,1,2,2,,,,,,,,6,11,,,,,,,,,,,5,10.432,0,,,,,,-0.4,-0.411805556,1,0,0,10.432,Obsidian_rect,1,0,1,0,1,
6647b11c05e40e04db826ccb,TCR,2024-06-20_15h27.47.911,LearnStrategy,2023.2.3,Win32,166.6666667,1,2,3,,,,,,,,4,09,,,,,,,,,,,6,5.626,0,,,,,,-0.129166667,-0.386805556,1,0,0,5.626,Pegmatite_rect,2,0,2,0,1,
6647b11c05e40e04db826ccb,TCR,2024-06-20_15h27.47.911,LearnStrategy,2023.2.3,Win32,166.6666667,1,2,4,,,,,,,,5,09,,,,,,,,,,,5,3.325,1,,,,,,-0.353472222,-0.414583333,1,0,0,3.325,Obsidian_rect,3,0,3,0,1,
6647b11c05e40e04db826ccb,TCR,2024-06-20_15h27.47.911,LearnStrategy,2023.2.3,Win32,166.6666667,1,2,5,,,,,,,,8,10,,,,,,,,,,,8,1.538,1,,,,,,0.442361111,-0.389583333,1,0,0,1.538,Pumice_rect,4,0,4,0,1,
6647b11c05e40e04db826ccb,TCR,2024-06-20_15h27.47.911,LearnStrategy,2023.2.3,Win32,166.6666667,1,2,6,,,,,,,,4,13,,,,,,,,,,,1,3.458,0,,,,,,-0.391666667,-0.24375,1,0,0,3.458,Andesite_rect,5,0,5,0,1,
6647b11c05e40e04db826ccb,TCR,2024-06-20_15h27.47.911,LearnStrategy,2023.2.3,Win32,166.6666667,1,2,7,,,,,,,,1,01,,,,,,,,,,,7,8.925,0,,,,,,0.099305556,-0.402777778,1,0,0,8.925,Peridotite_rect,6,0,6,0,1,
6647b11c05e40e04db826ccb,TCR,2024-06-20_15h27.47.911,LearnStrategy,2023.2.3,Win32,166.6666667,1,2,8,,,,,,,,2,16,,,,,,,,,,,3,5.911,0,,,,,,0.1375,-0.242361111,1,0,0,5.911,Diorite_rect,7,0,7,0,1,
6647b11c05e40e04db826ccb,TCR,2024-06-20_15h27.47.911,LearnStrategy,2023.2.3,Win32,166.6666667,1,2,9,,,,,,,,8,06,,,,,,,,,,,2,16.433,0,,,,,,-0.151388889,-0.254166667,1,0,0,16.433,Basalt_rect,8,0,8,0,1,
6647b11c05e40e04db826ccb,TCR,2024-06-20_15h27.47.911,LearnStrategy,2023.2.3,Win32,166.6666667,1,2,10,,,,,,,,5,02,,,,,,,,,,,5,6.522,1,,,,,,-0.375,-0.415277778,1,0,0,6.522,Obsidian_rect,9,0,9,0,1,
6647b11c05e40e04db826ccb,TCR,2024-06-20_15h27.47.911,LearnStrategy,2023.2.3,Win32,166.6666667,1,2,11,,,,,,,,3,07,,,,,,,,,,,6,4.389,0,,,,,,-0.076388889,-0.399305556,1,0,0,4.389,Pegmatite_rect,10,0,10,0,1,
6647b11c05e40e04db826ccb,TCR,2024-06-20_15h27.47.911,LearnStrategy,2023.2.3,Win32,166.6666667,1,2,12,,,,,,,,7,13,,,,,,,,,,,7,5.048,1,,,,,,0.113888889,-0.394444444,1,0,0,5.048,Peridotite_rect,11,0,11,0,1,
6647b11c05e40e04db826ccb,TCR,2024-06-20_15h27.47.911,LearnStrategy,2023.2.3,Win32,166.6666667,1,2,13,,,,,,,,6,16,,,,,,,,,,,6,3.916,1,,,,,,-0.076388889,-0.401388889,1,0,0,3.916,Pegmatite_rect,12,0,12,0,1,
6647b11c05e40e04db826ccb,TCR,2024-06-20_15h27.47.911,LearnStrategy,2023.2.3,Win32,166.6666667,1,2,14,,,,,,,,1,06,,,,,,,,,,,3,4.77,0,,,,,,0.08125,-0.247222222,1,0,0,4.77,Diorite_rect,13,0,13,0,1,
6647b11c05e40e04db826ccb,TCR,2024-06-20_15h27.47.911,LearnStrategy,2023.2.3,Win32,166.6666667,1,2,15,,,,,,,,7,12,,,,,,,,,,,6,6.543,0,,,,,,-0.165972222,-0.384722222,1,0,0,6.543,Pegmatite_rect,14,0,14,0,1,
6647b11c05e40e04db826ccb,TCR,2024-06-20_15h27.47.911,LearnStrategy,2023.2.3,Win32,166.6666667,1,2,16,,,,,,,,3,09,,,,,,,,,,,3,2.708,1,,,,,,0.080555556,-0.239583333,1,0,0,2.708,Diorite_rect,15,0,15,0,1,
6647b11c05e40e04db826ccb,TCR,2024-06-20_15h27.47.911,LearnStrategy,2023.2.3,Win32,166.6666667,2,1,1,0.046527778,-0.011805556,1,0,0,1.225,rock_grid_rect_2,4,16,-1,-1,1.225,0.159027778,-0.4,1,0,0,6.209,Peridotite_rect,7,6.209,0,0,0,0,0,1,,,,,,,,,,,,,
6647b11c05e40e04db826ccb,TCR,2024-06-20_15h27.47.911,LearnStrategy,2023.2.3,Win32,166.6666667,2,1,2,0.022916667,-0.011805556,1,0,0,1.067,rock_grid_rect_2,3,08,-1,-1,1.067,0.207638889,-0.241666667,1,0,0,2.413,Diorite_rect,3,2.413,1,1,0,1,0,1,,,,,,,,,,,,,
6647b11c05e40e04db826ccb,TCR,2024-06-20_15h27.47.911,LearnStrategy,2023.2.3,Win32,166.6666667,2,1,3,0.034722222,-0.008333333,1,0,0,0.842,rock_grid_rect_2,7,07,-1,-1,0.842,0.323611111,-0.4,1,0,0,2.094,Pumice_rect,8,2.094,0,2,0,2,0,1,,,,,,,,,,,,,
6647b11c05e40e04db826ccb,TCR,2024-06-20_15h27.47.911,LearnStrategy,2023.2.3,Win32,166.6666667,2,1,4,0.006944444,-0.015972222,1,0,0,0.771,rock_grid_rect_2,3,08,-1,-1,0.771,0.038888889,-0.392361111,1,0,0,1.772,Peridotite_rect,7,1.772,0,3,0,3,0,1,,,,,,,,,,,,,
6647b11c05e40e04db826ccb,TCR,2024-06-20_15h27.47.911,LearnStrategy,2023.2.3,Win32,166.6666667,2,1,5,0.013888889,0.000694444,1,0,0,0.816,rock_grid_rect_2,6,12,-1,-1,0.816,-0.398611111,-0.390972222,1,0,0,1.696,Obsidian_rect,5,1.696,0,4,0,4,0,1,,,,,,,,,,,,,
6647b11c05e40e04db826ccb,TCR,2024-06-20_15h27.47.911,LearnStrategy,2023.2.3,Win32,166.6666667,2,1,6,0.051388889,-0.022916667,1,0,0,0.834,rock_grid_rect_2,4,10,-1,-1,0.834,0.356944444,-0.238194444,1,0,0,0.757,Gabbro_rect,4,0.757,1,5,0,5,0,1,,,,,,,,,,,,,
6647b11c05e40e04db826ccb,TCR,2024-06-20_15h27.47.911,LearnStrategy,2023.2.3,Win32,166.6666667,2,1,7,-0.056944444,-0.013888889,1,0,0,0.987,rock_grid_rect_2,1,10,-1,-1,0.987,0.436111111,-0.407638889,1,0,0,1.977,Pumice_rect,8,1.977,0,6,0,6,0,1,,,,,,,,,,,,,
6647b11c05e40e04db826ccb,TCR,2024-06-20_15h27.47.911,LearnStrategy,2023.2.3,Win32,166.6666667,2,1,8,-0.028472222,-0.0125,1,0,0,0.845,rock_grid_rect_2,1,04,-1,-1,0.845,-0.156944444,-0.255555556,1,0,0,0.894,Basalt_rect,2,0.894,0,7,0,7,0,1,,,,,,,,,,,,,
6647b11c05e40e04db826ccb,TCR,2024-06-20_15h27.47.911,LearnStrategy,2023.2.3,Win32,166.6666667,2,1,9,0.063888889,0.004861111,1,0,0,0.867,rock_grid_rect_2,1,07,-1,-1,0.867,0.131944444,-0.26875,1,0,0,0.714,Diorite_rect,3,0.714,0,8,0,8,0,1,,,,,,,,,,,,,
6647b11c05e40e04db826ccb,TCR,2024-06-20_15h27.47.911,LearnStrategy,2023.2.3,Win32,166.6666667,2,1,10,-0.059027778,-0.005555556,1,0,0,0.8,rock_grid_rect_2,8,09,-1,-1,0.8,0.427777778,-0.400694444,1,0,0,1.129,Pumice_rect,8,1.129,1,9,0,9,0,1,,,,,,,,,,,,,
6647b11c05e40e04db826ccb,TCR,2024-06-20_15h27.47.911,LearnStrategy,2023.2.3,Win32,166.6666667,2,1,11,-0.038888889,0.000694444,1,0,0,0.97,rock_grid_rect_2,8,03,-1,-1,0.97,0.076388889,-0.246527778,1,0,0,1.154,Diorite_rect,3,1.154,0,10,0,10,0,1,,,,,,,,,,,,,
6647b11c05e40e04db826ccb,TCR,2024-06-20_15h27.47.911,LearnStrategy,2023.2.3,Win32,166.6666667,2,1,12,-0.000694444,0,1,0,0,0.665,rock_grid_rect_2,2,09,-1,-1,0.665,-0.358333333,-0.258333333,1,0,0,0.933,Andesite_rect,1,0.933,0,11,0,11,0,1,,,,,,,,,,,,,
6647b11c05e40e04db826ccb,TCR,2024-06-20_15h27.47.911,LearnStrategy,2023.2.3,Win32,166.6666667,2,1,13,0.034027778,-0.013194444,1,0,0,0.778,rock_grid_rect_2,7,07,-1,-1,0.778,0.070833333,-0.403472222,1,0,0,0.76,Peridotite_rect,7,0.76,1,12,0,12,0,1,,,,,,,,,,,,,
6647b11c05e40e04db826ccb,TCR,2024-06-20_15h27.47.911,LearnStrategy,2023.2.3,Win32,166.6666667,2,1,14,-0.018055556,-0.011805556,1,0,0,0.738,rock_grid_rect_2,6,15,-1,-1,0.738,-0.082638889,-0.380555556,1,0,0,1.374,Pegmatite_rect,6,1.374,1,13,0,13,0,1,,,,,,,,,,,,,
6647b11c05e40e04db826ccb,TCR,2024-06-20_15h27.47.911,LearnStrategy,2023.2.3,Win32,166.6666667,2,1,15,-0.039583333,-0.013888889,1,0,0,0.606,rock_grid_rect_2,4,03,-1,-1,0.606,0.100694444,-0.265972222,1,0,0,1.218,Diorite_rect,3,1.218,0,14,0,14,0,1,,,,,,,,,,,,,
6647b11c05e40e04db826ccb,TCR,2024-06-20_15h27.47.911,LearnStrategy,2023.2.3,Win32,166.6666667,2,1,16,-0.025694444,-0.011111111,1,0,0,0.685,rock_grid_rect_2,2,05,-1,-1,0.685,-0.327777778,-0.260416667,1,0,0,2.706,Andesite_rect,1,2.706,0,15,0,15,0,1,,,,,,,,,,,,,
6647b11c05e40e04db826ccb,TCR,2024-06-20_15h27.47.911,LearnStrategy,2023.2.3,Win32,166.6666667,2,2,1,,,,,,,,8,15,,,,,,,,,,,3,2.219,0,,,,,,0.081944444,-0.251388889,1,0,0,2.219,Diorite_rect,0,0,0,0,1,
6647b11c05e40e04db826ccb,TCR,2024-06-20_15h27.47.911,LearnStrategy,2023.2.3,Win32,166.6666667,2,2,2,,,,,,,,5,04,,,,,,,,,,,6,1.311,0,,,,,,-0.114583333,-0.411805556,1,0,0,1.311,Pegmatite_rect,1,0,1,0,1,
6647b11c05e40e04db826ccb,TCR,2024-06-20_15h27.47.911,LearnStrategy,2023.2.3,Win32,166.6666667,2,2,3,,,,,,,,4,12,,,,,,,,,,,4,2.304,1,,,,,,0.334027778,-0.234027778,1,0,0,2.304,Gabbro_rect,2,0,2,0,1,
6647b11c05e40e04db826ccb,TCR,2024-06-20_15h27.47.911,LearnStrategy,2023.2.3,Win32,166.6666667,2,2,4,,,,,,,,3,16,,,,,,,,,,,7,1.96,0,,,,,,0.116666667,-0.38125,1,0,0,1.96,Peridotite_rect,3,0,3,0,1,
6647b11c05e40e04db826ccb,TCR,2024-06-20_15h27.47.911,LearnStrategy,2023.2.3,Win32,166.6666667,2,2,5,,,,,,,,2,06,,,,,,,,,,,1,2.436,0,,,,,,-0.384722222,-0.257638889,1,0,0,2.436,Andesite_rect,4,0,4,0,1,
6647b11c05e40e04db826ccb,TCR,2024-06-20_15h27.47.911,LearnStrategy,2023.2.3,Win32,166.6666667,2,2,6,,,,,,,,6,06,,,,,,,,,,,6,3.957,1,,,,,,-0.121527778,-0.397916667,1,0,0,3.957,Pegmatite_rect,5,0,5,0,1,
6647b11c05e40e04db826ccb,TCR,2024-06-20_15h27.47.911,LearnStrategy,2023.2.3,Win32,166.6666667,2,2,7,,,,,,,,5,08,,,,,,,,,,,5,3.797,1,,,,,,-0.424305556,-0.418055556,1,0,0,3.797,Obsidian_rect,6,0,6,0,1,
6647b11c05e40e04db826ccb,TCR,2024-06-20_15h27.47.911,LearnStrategy,2023.2.3,Win32,166.6666667,2,2,8,,,,,,,,1,05,,,,,,,,,,,1,1.785,1,,,,,,-0.354861111,-0.245138889,1,0,0,1.785,Andesite_rect,7,0,7,0,1,
6647b11c05e40e04db826ccb,TCR,2024-06-20_15h27.47.911,LearnStrategy,2023.2.3,Win32,166.6666667,2,2,9,,,,,,,,4,14,,,,,,,,,,,7,1.683,0,,,,,,0.113194444,-0.40625,1,0,0,1.683,Peridotite_rect,8,0,8,0,1,
6647b11c05e40e04db826ccb,TCR,2024-06-20_15h27.47.911,LearnStrategy,2023.2.3,Win32,166.6666667,2,2,10,,,,,,,,7,05,,,,,,,,,,,6,1.836,0,,,,,,-0.127777778,-0.419444444,1,0,0,1.836,Pegmatite_rect,9,0,9,0,1,
6647b11c05e40e04db826ccb,TCR,2024-06-20_15h27.47.911,LearnStrategy,2023.2.3,Win32,166.6666667,2,2,11,,,,,,,,2,11,,,,,,,,,,,2,2.743,1,,,,,,-0.094444444,-0.252083333,1,0,0,2.743,Basalt_rect,10,0,10,0,1,
6647b11c05e40e04db826ccb,TCR,2024-06-20_15h27.47.911,LearnStrategy,2023.2.3,Win32,166.6666667,2,2,12,,,,,,,,3,02,,,,,,,,,,,4,1.89,0,,,,,,0.3125,-0.254166667,1,0,0,1.89,Gabbro_rect,11,0,11,0,1,
6647b11c05e40e04db826ccb,TCR,2024-06-20_15h27.47.911,LearnStrategy,2023.2.3,Win32,166.6666667,2,2,13,,,,,,,,7,06,,,,,,,,,,,7,1.752,1,,,,,,0.097916667,-0.395833333,1,0,0,1.752,Peridotite_rect,12,0,12,0,1,
6647b11c05e40e04db826ccb,TCR,2024-06-20_15h27.47.911,LearnStrategy,2023.2.3,Win32,166.6666667,2,2,14,,,,,,,,6,10,,,,,,,,,,,3,0.801,0,,,,,,0.129861111,-0.251388889,1,0,0,0.801,Diorite_rect,13,0,13,0,1,
6647b11c05e40e04db826ccb,TCR,2024-06-20_15h27.47.911,LearnStrategy,2023.2.3,Win32,166.6666667,2,2,15,,,,,,,,8,02,,,,,,,,,,,8,2.141,1,,,,,,0.391666667,-0.379861111,1,0,0,2.141,Pumice_rect,14,0,14,0,1,
6647b11c05e40e04db826ccb,TCR,2024-06-20_15h27.47.911,LearnStrategy,2023.2.3,Win32,166.6666667,2,2,16,,,,,,,,1,16,,,,,,,,,,,6,1.433,0,,,,,,-0.134722222,-0.411805556,1,0,0,1.433,Pegmatite_rect,15,0,15,0,1,
6647b11c05e40e04db826ccb,TCR,2024-06-20_15h27.47.911,LearnStrategy,2023.2.3,Win32,166.6666667,3,1,1,0.002083333,-0.011805556,1,0,0,1.018,rock_grid_rect_2,7,15,-1,-1,1.018,0.096527778,-0.254166667,1,0,0,1.314,Diorite_rect,3,1.314,0,0,0,0,0,1,,,,,,,,,,,,,
6647b11c05e40e04db826ccb,TCR,2024-06-20_15h27.47.911,LearnStrategy,2023.2.3,Win32,166.6666667,3,1,2,-0.047222222,-0.025,1,0,0,1.04,rock_grid_rect_2,1,10,-1,-1,1.04,-0.145138889,-0.261805556,1,0,0,0.853,Basalt_rect,2,0.853,0,1,0,1,0,1,,,,,,,,,,,,,
6647b11c05e40e04db826ccb,TCR,2024-06-20_15h27.47.911,LearnStrategy,2023.2.3,Win32,166.6666667,3,1,3,-0.083333333,-0.0125,1,0,0,0.89,rock_grid_rect_2,1,04,-1,-1,0.89,-0.403472222,-0.256944444,1,0,0,1.07,Andesite_rect,1,1.07,1,2,0,2,0,1,,,,,,,,,,,,,
6647b11c05e40e04db826ccb,TCR,2024-06-20_15h27.47.911,LearnStrategy,2023.2.3,Win32,166.6666667,3,1,4,-0.04375,-0.019444444,1,0,0,0.866,rock_grid_rect_2,8,03,-1,-1,0.866,0.3125,-0.245833333,1,0,0,1.984,Gabbro_rect,4,1.984,0,3,0,3,0,1,,,,,,,,,,,,,
6647b11c05e40e04db826ccb,TCR,2024-06-20_15h27.47.911,LearnStrategy,2023.2.3,Win32,166.6666667,3,1,5,-0.108333333,0,1,0,0,0.877,rock_grid_rect_2,2,14,-1,-1,0.877,-0.095138889,-0.399305556,1,0,0,1.141,Pegmatite_rect,6,1.141,0,4,0,4,0,1,,,,,,,,,,,,,
6647b11c05e40e04db826ccb,TCR,2024-06-20_15h27.47.911,LearnStrategy,2023.2.3,Win32,166.6666667,3,1,6,-0.024305556,-0.009722222,1,0,0,1.145,rock_grid_rect_2,4,10,-1,-1,1.145,-0.09375,-0.257638889,1,0,0,0.842,Basalt_rect,2,0.842,0,5,0,5,0,1,,,,,,,,,,,,,
6647b11c05e40e04db826ccb,TCR,2024-06-20_15h27.47.911,LearnStrategy,2023.2.3,Win32,166.6666667,3,1,7,-0.002083333,-0.0125,1,0,0,0.78,rock_grid_rect_2,3,14,-1,-1,0.78,-0.377083333,-0.4125,1,0,0,1.488,Obsidian_rect,5,1.488,0,6,0,6,0,1,,,,,,,,,,,,,
6647b11c05e40e04db826ccb,TCR,2024-06-20_15h27.47.911,LearnStrategy,2023.2.3,Win32,166.6666667,3,1,8,0.109027778,0.006944444,1,0,0,0.846,rock_grid_rect_2,7,04,-1,-1,0.846,0.170833333,-0.259027778,1,0,0,0.988,Diorite_rect,3,0.988,0,7,0,7,0,1,,,,,,,,,,,,,
6647b11c05e40e04db826ccb,TCR,2024-06-20_15h27.47.911,LearnStrategy,2023.2.3,Win32,166.6666667,3,1,9,-0.036805556,-0.011111111,1,0,0,0.649,rock_grid_rect_2,6,15,-1,-1,0.649,0.092361111,-0.390972222,1,0,0,1.522,Peridotite_rect,7,1.522,0,8,0,8,0,1,,,,,,,,,,,,,
6647b11c05e40e04db826ccb,TCR,2024-06-20_15h27.47.911,LearnStrategy,2023.2.3,Win32,166.6666667,3,1,10,-0.136805556,-0.005555556,1,0,0,0.69,rock_grid_rect_2,5,14,-1,-1,0.69,-0.302083333,-0.247222222,1,0,0,0.777,Andesite_rect,1,0.777,0,9,0,9,0,1,,,,,,,,,,,,,
6647b11c05e40e04db826ccb,TCR,2024-06-20_15h27.47.911,LearnStrategy,2023.2.3,Win32,166.6666667,3,1,11,-0.015277778,-0.007638889,1,0,0,0.54,rock_grid_rect_2,4,10,-1,-1,0.54,-0.079861111,-0.263888889,1,0,0,1.088,Basalt_rect,2,1.088,0,10,0,10,0,1,,,,,,,,,,,,,
6647b11c05e40e04db826ccb,TCR,2024-06-20_15h27.47.911,LearnStrategy,2023.2.3,Win32,166.6666667,3,1,12,0.065972222,0.002083333,1,0,0,0.618,rock_grid_rect_2,3,08,-1,-1,0.618,-0.036805556,-0.400694444,1,0,0,1.579,Pegmatite_rect,6,1.579,0,11,0,11,0,1,,,,,,,,,,,,,
6647b11c05e40e04db826ccb,TCR,2024-06-20_15h27.47.911,LearnStrategy,2023.2.3,Win32,166.6666667,3,1,13,-0.016666667,0.009027778,1,0,0,0.623,rock_grid_rect_2,2,09,-1,-1,0.623,0.370138889,-0.241666667,1,0,0,1.515,Gabbro_rect,4,1.515,0,12,0,12,0,1,,,,,,,,,,,,,
6647b11c05e40e04db826ccb,TCR,2024-06-20_15h27.47.911,LearnStrategy,2023.2.3,Win32,166.6666667,3,1,14,0.013194444,-0.020833333,1,0,0,0.598,rock_grid_rect_2,8,04,-1,-1,0.598,0.305555556,-0.416666667,1,0,0,1.312,Pumice_rect,8,1.312,1,13,0,13,0,1,,,,,,,,,,,,,
6647b11c05e40e04db826ccb,TCR,2024-06-20_15h27.47.911,LearnStrategy,2023.2.3,Win32,166.6666667,3,1,15,-0.058333333,0.000694444,1,0,0,0.671,rock_grid_rect_2,3,11,-1,-1,0.671,0.047916667,-0.269444444,1,0,0,2.099,Diorite_rect,3,2.099,1,14,0,14,0,1,,,,,,,,,,,,,
6647b11c05e40e04db826ccb,TCR,2024-06-20_15h27.47.911,LearnStrategy,2023.2.3,Win32,166.6666667,3,1,16,-0.000694444,0.001388889,1,0,0,0.674,rock_grid_rect_2,6,03,-1,-1,0.674,0.122222222,-0.410416667,1,0,0,2.076,Peridotite_rect,7,2.076,0,15,0,15,0,1,,,,,,,,,,,,,
6647b11c05e40e04db826ccb,TCR,2024-06-20_15h27.47.911,LearnStrategy,2023.2.3,Win32,166.6666667,3,2,1,,,,,,,,2,01,,,,,,,,,,,2,0.814,1,,,,,,-0.134027778,-0.256944444,1,0,0,0.814,Basalt_rect,0,0,0,0,1,
6647b11c05e40e04db826ccb,TCR,2024-06-20_15h27.47.911,LearnStrategy,2023.2.3,Win32,166.6666667,3,2,2,,,,,,,,7,08,,,,,,,,,,,4,3.492,0,,,,,,0.313888889,-0.253472222,1,0,0,3.492,Gabbro_rect,1,0,1,0,1,
6647b11c05e40e04db826ccb,TCR,2024-06-20_15h27.47.911,LearnStrategy,2023.2.3,Win32,166.6666667,3,2,3,,,,,,,,6,07,,,,,,,,,,,6,1.016,1,,,,,,-0.124305556,-0.402777778,1,0,0,1.016,Pegmatite_rect,2,0,2,0,1,
6647b11c05e40e04db826ccb,TCR,2024-06-20_15h27.47.911,LearnStrategy,2023.2.3,Win32,166.6666667,3,2,4,,,,,,,,1,09,,,,,,,,,,,8,1.811,0,,,,,,0.344444444,-0.400694444,1,0,0,1.811,Pumice_rect,3,0,3,0,1,
6647b11c05e40e04db826ccb,TCR,2024-06-20_15h27.47.911,LearnStrategy,2023.2.3,Win32,166.6666667,3,2,5,,,,,,,,6,13,,,,,,,,,,,1,0.837,0,,,,,,-0.374305556,-0.257638889,1,0,0,0.837,Andesite_rect,4,0,4,0,1,
6647b11c05e40e04db826ccb,TCR,2024-06-20_15h27.47.911,LearnStrategy,2023.2.3,Win32,166.6666667,3,2,6,,,,,,,,8,14,,,,,,,,,,,8,1.775,1,,,,,,0.372222222,-0.41875,1,0,0,1.775,Pumice_rect,5,0,5,0,1,
6647b11c05e40e04db826ccb,TCR,2024-06-20_15h27.47.911,LearnStrategy,2023.2.3,Win32,166.6666667,3,2,7,,,,,,,,1,02,,,,,,,,,,,3,1.287,0,,,,,,0.14375,-0.248611111,1,0,0,1.287,Diorite_rect,6,0,6,0,1,
6647b11c05e40e04db826ccb,TCR,2024-06-20_15h27.47.911,LearnStrategy,2023.2.3,Win32,166.6666667,3,2,8,,,,,,,,7,02,,,,,,,,,,,6,1.53,0,,,,,,-0.070138889,-0.405555556,1,0,0,1.53,Pegmatite_rect,7,0,7,0,1,
6647b11c05e40e04db826ccb,TCR,2024-06-20_15h27.47.911,LearnStrategy,2023.2.3,Win32,166.6666667,3,2,9,,,,,,,,5,12,,,,,,,,,,,1,1.879,0,,,,,,-0.371527778,-0.265972222,1,0,0,1.879,Andesite_rect,8,0,8,0,1,
6647b11c05e40e04db826ccb,TCR,2024-06-20_15h27.47.911,LearnStrategy,2023.2.3,Win32,166.6666667,3,2,10,,,,,,,,4,01,,,,,,,,,,,3,1.462,0,,,,,,0.183333333,-0.266666667,1,0,0,1.462,Diorite_rect,9,0,9,0,1,
6647b11c05e40e04db826ccb,TCR,2024-06-20_15h27.47.911,LearnStrategy,2023.2.3,Win32,166.6666667,3,2,11,,,,,,,,5,11,,,,,,,,,,,7,2.706,0,,,,,,0.179861111,-0.405555556,1,0,0,2.706,Peridotite_rect,10,0,10,0,1,
6647b11c05e40e04db826ccb,TCR,2024-06-20_15h27.47.911,LearnStrategy,2023.2.3,Win32,166.6666667,3,2,12,,,,,,,,3,10,,,,,,,,,,,3,1.406,1,,,,,,0.145833333,-0.266666667,1,0,0,1.406,Diorite_rect,11,0,11,0,1,
6647b11c05e40e04db826ccb,TCR,2024-06-20_15h27.47.911,LearnStrategy,2023.2.3,Win32,166.6666667,3,2,13,,,,,,,,2,04,,,,,,,,,,,1,2.212,0,,,,,,-0.333333333,-0.254166667,1,0,0,2.212,Andesite_rect,12,0,12,0,1,
6647b11c05e40e04db826ccb,TCR,2024-06-20_15h27.47.911,LearnStrategy,2023.2.3,Win32,166.6666667,3,2,14,,,,,,,,4,05,,,,,,,,,,,2,1.059,0,,,,,,-0.190277778,-0.261805556,1,0,0,1.059,Basalt_rect,13,0,13,0,1,
6647b11c05e40e04db826ccb,TCR,2024-06-20_15h27.47.911,LearnStrategy,2023.2.3,Win32,166.6666667,3,2,15,,,,,,,,8,16,,,,,,,,,,,3,1.359,0,,,,,,0.150694444,-0.259722222,1,0,0,1.359,Diorite_rect,14,0,14,0,1,
6647b11c05e40e04db826ccb,TCR,2024-06-20_15h27.47.911,LearnStrategy,2023.2.3,Win32,166.6666667,3,2,16,,,,,,,,3,13,,,,,,,,,,,4,2.676,0,,,,,,0.438888889,-0.264583333,1,0,0,2.676,Gabbro_rect,15,0,15,0,1,
6647b11c05e40e04db826ccb,TCR,2024-06-20_15h27.47.911,LearnStrategy,2023.2.3,Win32,166.6666667,4,1,1,0.019444444,-0.006944444,1,0,0,1.151,rock_grid_rect_2,2,10,-1,-1,1.151,0.104861111,-0.234027778,1,0,0,1.999,Diorite_rect,3,1.999,0,0,0,0,0,1,,,,,,,,,,,,,
6647b11c05e40e04db826ccb,TCR,2024-06-20_15h27.47.911,LearnStrategy,2023.2.3,Win32,166.6666667,4,1,2,-0.015972222,0.000694444,1,0,0,0.805,rock_grid_rect_2,1,14,-1,-1,0.805,0.350694444,-0.402083333,1,0,0,2.453,Pumice_rect,8,2.453,0,1,0,1,0,1,,,,,,,,,,,,,
6647b11c05e40e04db826ccb,TCR,2024-06-20_15h27.47.911,LearnStrategy,2023.2.3,Win32,166.6666667,4,1,3,0.003472222,0.009722222,1,0,0,0.896,rock_grid_rect_2,6,12,-1,-1,0.896,0.164583333,-0.397222222,1,0,0,2.736,Peridotite_rect,7,2.736,0,2,0,2,0,1,,,,,,,,,,,,,
6647b11c05e40e04db826ccb,TCR,2024-06-20_15h27.47.911,LearnStrategy,2023.2.3,Win32,166.6666667,4,1,4,0.022916667,-0.014583333,1,0,0,0.836,rock_grid_rect_2,7,15,-1,-1,0.836,0.168055556,-0.231944444,1,0,0,1.235,Diorite_rect,3,1.235,0,3,0,3,0,1,,,,,,,,,,,,,
6647b11c05e40e04db826ccb,TCR,2024-06-20_15h27.47.911,LearnStrategy,2023.2.3,Win32,166.6666667,4,1,5,-0.086111111,-0.018055556,1,0,0,0.703,rock_grid_rect_2,3,12,-1,-1,0.703,-0.329861111,-0.260416667,1,0,0,1.778,Andesite_rect,1,1.778,0,4,0,4,0,1,,,,,,,,,,,,,
6647b11c05e40e04db826ccb,TCR,2024-06-20_15h27.47.911,LearnStrategy,2023.2.3,Win32,166.6666667,4,1,6,0.129166667,-0.00625,1,0,0,0.885,rock_grid_rect_2,4,11,-1,-1,0.885,0.415277778,-0.251388889,1,0,0,0.766,Gabbro_rect,4,0.766,1,5,0,5,0,1,,,,,,,,,,,,,
6647b11c05e40e04db826ccb,TCR,2024-06-20_15h27.47.911,LearnStrategy,2023.2.3,Win32,166.6666667,4,1,7,0.058333333,-0.0125,1,0,0,1.355,rock_grid_rect_2,6,09,-1,-1,1.355,-0.392361111,-0.257638889,1,0,0,1.571,Andesite_rect,1,1.571,0,6,0,6,0,1,,,,,,,,,,,,,
6647b11c05e40e04db826ccb,TCR,2024-06-20_15h27.47.911,LearnStrategy,2023.2.3,Win32,166.6666667,4,1,8,0.036805556,-0.013888889,1,0,0,0.839,rock_grid_rect_2,4,08,-1,-1,0.839,0.046527778,-0.395833333,1,0,0,1.043,Peridotite_rect,7,1.043,0,7,0,7,0,1,,,,,,,,,,,,,
6647b11c05e40e04db826ccb,TCR,2024-06-20_15h27.47.911,LearnStrategy,2023.2.3,Win32,166.6666667,4,1,9,-0.039583333,-0.007638889,1,0,0,0.806,rock_grid_rect_2,5,06,-1,-1,0.806,-0.314583333,-0.266666667,1,0,0,1.929,Andesite_rect,1,1.929,0,8,0,8,0,1,,,,,,,,,,,,,
6647b11c05e40e04db826ccb,TCR,2024-06-20_15h27.47.911,LearnStrategy,2023.2.3,Win32,166.6666667,4,1,10,0.046527778,-0.015972222,1,0,0,0.701,rock_grid_rect_2,2,12,-1,-1,0.701,0.336805556,-0.256944444,1,0,0,1.717,Gabbro_rect,4,1.717,0,9,0,9,0,1,,,,,,,,,,,,,
6647b11c05e40e04db826ccb,TCR,2024-06-20_15h27.47.911,LearnStrategy,2023.2.3,Win32,166.6666667,4,1,11,0.011111111,-0.009722222,1,0,0,0.897,rock_grid_rect_2,1,03,-1,-1,0.897,-0.311111111,-0.413194444,1,0,0,2.568,Obsidian_rect,5,2.568,0,10,0,10,0,1,,,,,,,,,,,,,
6647b11c05e40e04db826ccb,TCR,2024-06-20_15h27.47.911,LearnStrategy,2023.2.3,Win32,166.6666667,4,1,12,-0.114583333,0.004861111,1,0,0,1.017,rock_grid_rect_2,3,11,-1,-1,1.017,0.1,-0.238888889,1,0,0,1.364,Diorite_rect,3,1.364,1,11,0,11,0,1,,,,,,,,,,,,,
6647b11c05e40e04db826ccb,TCR,2024-06-20_15h27.47.911,LearnStrategy,2023.2.3,Win32,166.6666667,4,1,13,-0.027083333,0.006944444,1,0,0,0.587,rock_grid_rect_2,1,03,-1,-1,0.587,0.0875,-0.24375,1,0,0,1.612,Diorite_rect,3,1.612,0,12,0,12,0,1,,,,,,,,,,,,,
6647b11c05e40e04db826ccb,TCR,2024-06-20_15h27.47.911,LearnStrategy,2023.2.3,Win32,166.6666667,4,1,14,-0.024305556,0.011805556,1,0,0,0.739,rock_grid_rect_2,5,10,-1,-1,0.739,-0.431944444,-0.404166667,1,0,0,1.134,Obsidian_rect,5,1.134,1,13,0,13,0,1,,,,,,,,,,,,,
6647b11c05e40e04db826ccb,TCR,2024-06-20_15h27.47.911,LearnStrategy,2023.2.3,Win32,166.6666667,4,1,15,-0.020833333,-0.001388889,1,0,0,0.927,rock_grid_rect_2,8,04,-1,-1,0.927,0.392361111,-0.386805556,1,0,0,1.141,Pumice_rect,8,1.141,1,14,0,14,0,1,,,,,,,,,,,,,
6647b11c05e40e04db826ccb,TCR,2024-06-20_15h27.47.911,LearnStrategy,2023.2.3,Win32,166.6666667,4,1,16,0.011805556,-0.013194444,1,0,0,0.903,rock_grid_rect_2,7,04,-1,-1,0.903,0.086111111,-0.252777778,1,0,0,1.478,Diorite_rect,3,1.478,0,15,0,15,0,1,,,,,,,,,,,,,
6647b11c05e40e04db826ccb,TCR,2024-06-20_15h27.47.911,LearnStrategy,2023.2.3,Win32,166.6666667,4,2,1,,,,,,,,8,02,,,,,,,,,,,8,1.41,1,,,,,,0.35,-0.420833333,1,0,0,1.41,Pumice_rect,0,0,0,0,1,
6647b11c05e40e04db826ccb,TCR,2024-06-20_15h27.47.911,LearnStrategy,2023.2.3,Win32,166.6666667,4,2,2,,,,,,,,7,05,,,,,,,,,,,1,1.16,0,,,,,,-0.382638889,-0.25625,1,0,0,1.16,Andesite_rect,1,0,1,0,1,
6647b11c05e40e04db826ccb,TCR,2024-06-20_15h27.47.911,LearnStrategy,2023.2.3,Win32,166.6666667,4,2,3,,,,,,,,4,13,,,,,,,,,,,3,1.431,0,,,,,,0.098611111,-0.239583333,1,0,0,1.431,Diorite_rect,2,0,2,0,1,
6647b11c05e40e04db826ccb,TCR,2024-06-20_15h27.47.911,LearnStrategy,2023.2.3,Win32,166.6666667,4,2,4,,,,,,,,7,13,,,,,,,,,,,6,1.929,0,,,,,,-0.1875,-0.411805556,1,0,0,1.929,Pegmatite_rect,3,0,3,0,1,
6647b11c05e40e04db826ccb,TCR,2024-06-20_15h27.47.911,LearnStrategy,2023.2.3,Win32,166.6666667,4,2,5,,,,,,,,1,16,,,,,,,,,,,3,3.573,0,,,,,,0.0875,-0.254166667,1,0,0,3.573,Diorite_rect,4,0,4,0,1,
6647b11c05e40e04db826ccb,TCR,2024-06-20_15h27.47.911,LearnStrategy,2023.2.3,Win32,166.6666667,4,2,6,,,,,,,,8,16,,,,,,,,,,,8,1.594,1,,,,,,0.33125,-0.39375,1,0,0,1.594,Pumice_rect,5,0,5,0,1,
6647b11c05e40e04db826ccb,TCR,2024-06-20_15h27.47.911,LearnStrategy,2023.2.3,Win32,166.6666667,4,2,7,,,,,,,,3,16,,,,,,,,,,,2,1.181,0,,,,,,-0.145138889,-0.267361111,1,0,0,1.181,Basalt_rect,6,0,6,0,1,
6647b11c05e40e04db826ccb,TCR,2024-06-20_15h27.47.911,LearnStrategy,2023.2.3,Win32,166.6666667,4,2,8,,,,,,,,2,16,,,,,,,,,,,3,1.688,0,,,,,,0.1125,-0.25625,1,0,0,1.688,Diorite_rect,7,0,7,0,1,
6647b11c05e40e04db826ccb,TCR,2024-06-20_15h27.47.911,LearnStrategy,2023.2.3,Win32,166.6666667,4,2,9,,,,,,,,5,11,,,,,,,,,,,2,2.789,0,,,,,,-0.135416667,-0.255555556,1,0,0,2.789,Basalt_rect,8,0,8,0,1,
6647b11c05e40e04db826ccb,TCR,2024-06-20_15h27.47.911,LearnStrategy,2023.2.3,Win32,166.6666667,4,2,10,,,,,,,,3,09,,,,,,,,,,,3,1.116,1,,,,,,0.05625,-0.252083333,1,0,0,1.116,Diorite_rect,9,0,9,0,1,
6647b11c05e40e04db826ccb,TCR,2024-06-20_15h27.47.911,LearnStrategy,2023.2.3,Win32,166.6666667,4,2,11,,,,,,,,6,07,,,,,,,,,,,2,0.889,0,,,,,,-0.228472222,-0.24375,1,0,0,0.889,Basalt_rect,10,0,10,0,1,
6647b11c05e40e04db826ccb,TCR,2024-06-20_15h27.47.911,LearnStrategy,2023.2.3,Win32,166.6666667,4,2,12,,,,,,,,5,09,,,,,,,,,,,7,2.002,0,,,,,,0.093055556,-0.402777778,1,0,0,2.002,Peridotite_rect,11,0,11,0,1,
6647b11c05e40e04db826ccb,TCR,2024-06-20_15h27.47.911,LearnStrategy,2023.2.3,Win32,166.6666667,4,2,13,,,,,,,,4,14,,,,,,,,,,,4,2.473,1,,,,,,0.291666667,-0.261805556,1,0,0,2.473,Gabbro_rect,12,0,12,0,1,
6647b11c05e40e04db826ccb,TCR,2024-06-20_15h27.47.911,LearnStrategy,2023.2.3,Win32,166.6666667,4,2,14,,,,,,,,2,01,,,,,,,,,,,1,1.125,0,,,,,,-0.352083333,-0.255555556,1,0,0,1.125,Andesite_rect,13,0,13,0,1,
6647b11c05e40e04db826ccb,TCR,2024-06-20_15h27.47.911,LearnStrategy,2023.2.3,Win32,166.6666667,4,2,15,,,,,,,,6,16,,,,,,,,,,,2,3.423,0,,,,,,-0.140972222,-0.271527778,1,0,0,3.423,Basalt_rect,14,0,14,0,1,
6647b11c05e40e04db826ccb,TCR,2024-06-20_15h27.47.911,LearnStrategy,2023.2.3,Win32,166.6666667,4,2,16,,,,,,,,1,06,,,,,,,,,,,3,1.096,0,,,,,,0.06875,-0.265972222,1,0,0,1.096,Diorite_rect,15,0,15,0,1,
6647b11c05e40e04db826ccb,TCR,2024-06-20_15h27.47.911,LearnStrategy,2023.2.3,Win32,166.6666667,5,1,1,-0.038194444,-0.008333333,1,0,0,0.945,rock_grid_rect_2,7,04,-1,-1,0.945,0.11875,-0.25,1,0,0,1.881,Diorite_rect,3,1.881,0,0,0,0,0,1,,,,,,,,,,,,,
6647b11c05e40e04db826ccb,TCR,2024-06-20_15h27.47.911,LearnStrategy,2023.2.3,Win32,166.6666667,5,1,2,-0.013888889,-0.004861111,1,0,0,0.775,rock_grid_rect_2,8,03,-1,-1,0.775,-0.19375,-0.265277778,1,0,0,0.754,Basalt_rect,2,0.754,0,1,0,1,0,1,,,,,,,,,,,,,
6647b11c05e40e04db826ccb,TCR,2024-06-20_15h27.47.911,LearnStrategy,2023.2.3,Win32,166.6666667,5,1,3,-0.040277778,-0.013888889,1,0,0,0.964,rock_grid_rect_2,1,03,-1,-1,0.964,0.40625,-0.240277778,1,0,0,1.012,Gabbro_rect,4,1.012,0,2,0,2,0,1,,,,,,,,,,,,,
6647b11c05e40e04db826ccb,TCR,2024-06-20_15h27.47.911,LearnStrategy,2023.2.3,Win32,166.6666667,5,1,4,-0.068055556,-0.009722222,1,0,0,0.952,rock_grid_rect_2,1,11,-1,-1,0.952,-0.388888889,-0.413888889,1,0,0,0.839,Obsidian_rect,5,0.839,0,3,0,3,0,1,,,,,,,,,,,,,
6647b11c05e40e04db826ccb,TCR,2024-06-20_15h27.47.911,LearnStrategy,2023.2.3,Win32,166.6666667,5,1,5,-0.135416667,-0.021527778,1,0,0,0.616,rock_grid_rect_2,3,08,-1,-1,0.616,-0.388888889,-0.258333333,1,0,0,0.627,Andesite_rect,1,0.627,0,4,0,4,0,1,,,,,,,,,,,,,
6647b11c05e40e04db826ccb,TCR,2024-06-20_15h27.47.911,LearnStrategy,2023.2.3,Win32,166.6666667,5,1,6,-0.020138889,-0.015972222,1,0,0,0.842,rock_grid_rect_2,4,16,-1,-1,0.842,0.090972222,-0.240972222,1,0,0,0.779,Diorite_rect,3,0.779,0,5,0,5,0,1,,,,,,,,,,,,,
6647b11c05e40e04db826ccb,TCR,2024-06-20_15h27.47.911,LearnStrategy,2023.2.3,Win32,166.6666667,5,1,7,-0.045833333,-0.000694444,1,0,0,0.738,rock_grid_rect_2,5,14,-1,-1,0.738,0.124305556,-0.402083333,1,0,0,0.773,Peridotite_rect,7,0.773,0,6,0,6,0,1,,,,,,,,,,,,,
6647b11c05e40e04db826ccb,TCR,2024-06-20_15h27.47.911,LearnStrategy,2023.2.3,Win32,166.6666667,5,1,8,0.025694444,-0.013888889,1,0,0,0.6,rock_grid_rect_2,6,09,-1,-1,0.6,-0.125,-0.4125,1,0,0,0.707,Pegmatite_rect,6,0.707,1,7,0,7,0,1,,,,,,,,,,,,,
6647b11c05e40e04db826ccb,TCR,2024-06-20_15h27.47.911,LearnStrategy,2023.2.3,Win32,166.6666667,5,1,9,-0.065277778,0.011805556,1,0,0,0.679,rock_grid_rect_2,5,07,-1,-1,0.679,-0.140277778,-0.245833333,1,0,0,0.904,Basalt_rect,2,0.904,0,8,0,8,0,1,,,,,,,,,,,,,
6647b11c05e40e04db826ccb,TCR,2024-06-20_15h27.47.911,LearnStrategy,2023.2.3,Win32,166.6666667,5,1,10,-0.06875,-0.000694444,1,0,0,0.695,rock_grid_rect_2,2,08,-1,-1,0.695,0.091666667,-0.258333333,1,0,0,0.818,Diorite_rect,3,0.818,0,9,0,9,0,1,,,,,,,,,,,,,
6647b11c05e40e04db826ccb,TCR,2024-06-20_15h27.47.911,LearnStrategy,2023.2.3,Win32,166.6666667,5,1,11,-0.015972222,-0.013194444,1,0,0,0.591,rock_grid_rect_2,6,08,-1,-1,0.591,-0.091666667,-0.229166667,1,0,0,1.85,Basalt_rect,2,1.85,0,10,0,10,0,1,,,,,,,,,,,,,
6647b11c05e40e04db826ccb,TCR,2024-06-20_15h27.47.911,LearnStrategy,2023.2.3,Win32,166.6666667,5,1,12,0.051388889,-0.001388889,1,0,0,0.612,rock_grid_rect_2,3,12,-1,-1,0.612,0.372916667,-0.4125,1,0,0,2.08,Pumice_rect,8,2.08,0,11,0,11,0,1,,,,,,,,,,,,,
6647b11c05e40e04db826ccb,TCR,2024-06-20_15h27.47.911,LearnStrategy,2023.2.3,Win32,166.6666667,5,1,13,0.082638889,0.000694444,1,0,0,0.679,rock_grid_rect_2,7,16,-1,-1,0.679,0.157638889,-0.229861111,1,0,0,1.079,Diorite_rect,3,1.079,0,12,0,12,0,1,,,,,,,,,,,,,
6647b11c05e40e04db826ccb,TCR,2024-06-20_15h27.47.911,LearnStrategy,2023.2.3,Win32,166.6666667,5,1,14,-0.024305556,-0.005555556,1,0,0,0.599,rock_grid_rect_2,2,14,-1,-1,0.599,-0.144444444,-0.251388889,1,0,0,0.624,Basalt_rect,2,0.624,1,13,0,13,0,1,,,,,,,,,,,,,
6647b11c05e40e04db826ccb,TCR,2024-06-20_15h27.47.911,LearnStrategy,2023.2.3,Win32,166.6666667,5,1,15,0.000694444,-0.024305556,1,0,0,0.739,rock_grid_rect_2,1,10,-1,-1,0.739,0.328472222,-0.403472222,1,0,0,1.566,Pumice_rect,8,1.566,0,14,0,14,0,1,,,,,,,,,,,,,
6647b11c05e40e04db826ccb,TCR,2024-06-20_15h27.47.911,LearnStrategy,2023.2.3,Win32,166.6666667,5,1,16,0.024305556,-0.011805556,1,0,0,0.593,rock_grid_rect_2,4,16,-1,-1,0.593,-0.321527778,-0.246527778,1,0,0,1.075,Andesite_rect,1,1.075,0,15,0,15,0,1,,,,,,,,,,,,,
6647b11c05e40e04db826ccb,TCR,2024-06-20_15h27.47.911,LearnStrategy,2023.2.3,Win32,166.6666667,5,2,1,,,,,,,,4,05,,,,,,,,,,,3,0.798,0,,,,,,0.079861111,-0.247916667,1,0,0,0.798,Diorite_rect,0,0,0,0,1,
6647b11c05e40e04db826ccb,TCR,2024-06-20_15h27.47.911,LearnStrategy,2023.2.3,Win32,166.6666667,5,2,2,,,,,,,,2,04,,,,,,,,,,,1,1.304,0,,,,,,-0.294444444,-0.261111111,1,0,0,1.304,Andesite_rect,1,0,1,0,1,
6647b11c05e40e04db826ccb,TCR,2024-06-20_15h27.47.911,LearnStrategy,2023.2.3,Win32,166.6666667,5,2,3,,,,,,,,5,04,,,,,,,,,,,3,2.514,0,,,,,,0.195138889,-0.251388889,1,0,0,2.514,Diorite_rect,2,0,2,0,1,
6647b11c05e40e04db826ccb,TCR,2024-06-20_15h27.47.911,LearnStrategy,2023.2.3,Win32,166.6666667,5,2,4,,,,,,,,8,06,,,,,,,,,,,8,0.946,1,,,,,,0.360416667,-0.383333333,1,0,0,0.946,Pumice_rect,3,0,3,0,1,
6647b11c05e40e04db826ccb,TCR,2024-06-20_15h27.47.911,LearnStrategy,2023.2.3,Win32,166.6666667,5,2,5,,,,,,,,3,13,,,,,,,,,,,2,1.127,0,,,,,,-0.165972222,-0.240277778,1,0,0,1.127,Basalt_rect,4,0,4,0,1,
6647b11c05e40e04db826ccb,TCR,2024-06-20_15h27.47.911,LearnStrategy,2023.2.3,Win32,166.6666667,5,2,6,,,,,,,,1,05,,,,,,,,,,,7,2.046,0,,,,,,0.147222222,-0.384722222,1,0,0,2.046,Peridotite_rect,5,0,5,0,1,
6647b11c05e40e04db826ccb,TCR,2024-06-20_15h27.47.911,LearnStrategy,2023.2.3,Win32,166.6666667,5,2,7,,,,,,,,6,13,,,,,,,,,,,6,0.827,1,,,,,,-0.075694444,-0.415972222,1,0,0,0.827,Pegmatite_rect,6,0,6,0,1,
6647b11c05e40e04db826ccb,TCR,2024-06-20_15h27.47.911,LearnStrategy,2023.2.3,Win32,166.6666667,5,2,8,,,,,,,,8,15,,,,,,,,,,,4,1.481,0,,,,,,0.392361111,-0.235416667,1,0,0,1.481,Gabbro_rect,7,0,7,0,1,
6647b11c05e40e04db826ccb,TCR,2024-06-20_15h27.47.911,LearnStrategy,2023.2.3,Win32,166.6666667,5,2,9,,,,,,,,7,08,,,,,,,,,,,3,0.771,0,,,,,,0.152083333,-0.243055556,1,0,0,0.771,Diorite_rect,8,0,8,0,1,
6647b11c05e40e04db826ccb,TCR,2024-06-20_15h27.47.911,LearnStrategy,2023.2.3,Win32,166.6666667,5,2,10,,,,,,,,7,12,,,,,,,,,,,1,1.408,0,,,,,,-0.320833333,-0.241666667,1,0,0,1.408,Andesite_rect,9,0,9,0,1,
6647b11c05e40e04db826ccb,TCR,2024-06-20_15h27.47.911,LearnStrategy,2023.2.3,Win32,166.6666667,5,2,11,,,,,,,,1,01,,,,,,,,,,,5,1.131,0,,,,,,-0.350694444,-0.404861111,1,0,0,1.131,Obsidian_rect,10,0,10,0,1,
6647b11c05e40e04db826ccb,TCR,2024-06-20_15h27.47.911,LearnStrategy,2023.2.3,Win32,166.6666667,5,2,12,,,,,,,,3,02,,,,,,,,,,,3,1.762,1,,,,,,0.171527778,-0.245138889,1,0,0,1.762,Diorite_rect,11,0,11,0,1,
6647b11c05e40e04db826ccb,TCR,2024-06-20_15h27.47.911,LearnStrategy,2023.2.3,Win32,166.6666667,5,2,13,,,,,,,,6,10,,,,,,,,,,,6,0.947,1,,,,,,-0.049305556,-0.390972222,1,0,0,0.947,Pegmatite_rect,12,0,12,0,1,
6647b11c05e40e04db826ccb,TCR,2024-06-20_15h27.47.911,LearnStrategy,2023.2.3,Win32,166.6666667,5,2,14,,,,,,,,4,09,,,,,,,,,,,7,1.045,0,,,,,,0.083333333,-0.403472222,1,0,0,1.045,Peridotite_rect,13,0,13,0,1,
6647b11c05e40e04db826ccb,TCR,2024-06-20_15h27.47.911,LearnStrategy,2023.2.3,Win32,166.6666667,5,2,15,,,,,,,,5,08,,,,,,,,,,,2,0.912,0,,,,,,-0.125,-0.270138889,1,0,0,0.912,Basalt_rect,14,0,14,0,1,
6647b11c05e40e04db826ccb,TCR,2024-06-20_15h27.47.911,LearnStrategy,2023.2.3,Win32,166.6666667,5,2,16,,,,,,,,2,02,,,,,,,,,,,1,1.34,0,,,,,,-0.340972222,-0.265277778,1,0,0,1.34,Andesite_rect,15,0,15,0,1,
6647b11c05e40e04db826ccb,TCR,2024-06-20_15h27.47.911,LearnStrategy,2023.2.3,Win32,166.6666667,6,1,1,0.115277778,0.014583333,1,0,0,2.987,rock_grid_rect_2,2,12,-1,-1,2.987,0.422222222,-0.382638889,1,0,0,3.654,Pumice_rect,8,3.654,0,0,0,0,0,1,,,,,,,,,,,,,
6647b11c05e40e04db826ccb,TCR,2024-06-20_15h27.47.911,LearnStrategy,2023.2.3,Win32,166.6666667,6,1,2,0.054166667,0,1,0,0,0.799,rock_grid_rect_2,1,03,-1,-1,0.799,0.197222222,-0.256944444,1,0,0,0.864,Diorite_rect,3,0.864,0,1,0,1,0,1,,,,,,,,,,,,,
6647b11c05e40e04db826ccb,TCR,2024-06-20_15h27.47.911,LearnStrategy,2023.2.3,Win32,166.6666667,6,1,3,-0.052083333,-0.00625,1,0,0,0.709,rock_grid_rect_2,3,08,-1,-1,0.709,-0.398611111,-0.233333333,1,0,0,0.551,Andesite_rect,1,0.551,0,2,0,2,0,1,,,,,,,,,,,,,
6647b11c05e40e04db826ccb,TCR,2024-06-20_15h27.47.911,LearnStrategy,2023.2.3,Win32,166.6666667,6,1,4,0.009722222,-0.008333333,1,0,0,0.576,rock_grid_rect_2,5,16,-1,-1,0.576,-0.3125,-0.414583333,1,0,0,1.266,Obsidian_rect,5,1.266,1,3,0,3,0,1,,,,,,,,,,,,,
6647b11c05e40e04db826ccb,TCR,2024-06-20_15h27.47.911,LearnStrategy,2023.2.3,Win32,166.6666667,6,1,5,0.027083333,-0.014583333,1,0,0,0.781,rock_grid_rect_2,3,08,-1,-1,0.781,0.161111111,-0.261805556,1,0,0,1.27,Diorite_rect,3,1.27,1,4,0,4,0,1,,,,,,,,,,,,,
6647b11c05e40e04db826ccb,TCR,2024-06-20_15h27.47.911,LearnStrategy,2023.2.3,Win32,166.6666667,6,1,6,-0.024305556,-0.020138889,1,0,0,0.696,rock_grid_rect_2,4,10,-1,-1,0.696,0.106944444,-0.394444444,1,0,0,1.869,Peridotite_rect,7,1.869,0,5,0,5,0,1,,,,,,,,,,,,,
6647b11c05e40e04db826ccb,TCR,2024-06-20_15h27.47.911,LearnStrategy,2023.2.3,Win32,166.6666667,6,1,7,0.002777778,-0.011111111,1,0,0,0.726,rock_grid_rect_2,1,14,-1,-1,0.726,-0.138194444,-0.4125,1,0,0,0.728,Pegmatite_rect,6,0.728,0,6,0,6,0,1,,,,,,,,,,,,,
6647b11c05e40e04db826ccb,TCR,2024-06-20_15h27.47.911,LearnStrategy,2023.2.3,Win32,166.6666667,6,1,8,-0.164583333,0.011111111,1,0,0,0.77,rock_grid_rect_2,7,14,-1,-1,0.77,-0.193055556,-0.245833333,1,0,0,1.109,Basalt_rect,2,1.109,0,7,0,7,0,1,,,,,,,,,,,,,
6647b11c05e40e04db826ccb,TCR,2024-06-20_15h27.47.911,LearnStrategy,2023.2.3,Win32,166.6666667,6,1,9,-0.021527778,0.016666667,1,0,0,0.72,rock_grid_rect_2,2,08,-1,-1,0.72,-0.058333333,-0.393055556,1,0,0,1.065,Pegmatite_rect,6,1.065,0,8,0,8,0,1,,,,,,,,,,,,,
6647b11c05e40e04db826ccb,TCR,2024-06-20_15h27.47.911,LearnStrategy,2023.2.3,Win32,166.6666667,6,1,10,-0.002777778,0.004166667,1,0,0,0.799,rock_grid_rect_2,4,15,-1,-1,0.799,0.157638889,-0.25625,1,0,0,0.933,Diorite_rect,3,0.933,0,9,0,9,0,1,,,,,,,,,,,,,
6647b11c05e40e04db826ccb,TCR,2024-06-20_15h27.47.911,LearnStrategy,2023.2.3,Win32,166.6666667,6,1,11,0.072222222,-0.025,1,0,0,0.558,rock_grid_rect_2,5,14,-1,-1,0.558,0.409722222,-0.248611111,1,0,0,1.546,Gabbro_rect,4,1.546,0,10,0,10,0,1,,,,,,,,,,,,,
6647b11c05e40e04db826ccb,TCR,2024-06-20_15h27.47.911,LearnStrategy,2023.2.3,Win32,166.6666667,6,1,12,-0.029861111,-0.00625,1,0,0,0.574,rock_grid_rect_2,7,16,-1,-1,0.574,-0.372222222,-0.229166667,1,0,0,0.757,Andesite_rect,1,0.757,0,11,0,11,0,1,,,,,,,,,,,,,
6647b11c05e40e04db826ccb,TCR,2024-06-20_15h27.47.911,LearnStrategy,2023.2.3,Win32,166.6666667,6,1,13,0.027083333,-0.017361111,1,0,0,0.699,rock_grid_rect_2,6,08,-1,-1,0.699,0.077777778,-0.4,1,0,0,0.751,Peridotite_rect,7,0.751,0,12,0,12,0,1,,,,,,,,,,,,,
6647b11c05e40e04db826ccb,TCR,2024-06-20_15h27.47.911,LearnStrategy,2023.2.3,Win32,166.6666667,6,1,14,-0.034027778,-0.018055556,1,0,0,0.587,rock_grid_rect_2,7,10,-1,-1,0.587,-0.119444444,-0.265277778,1,0,0,1.022,Basalt_rect,2,1.022,0,13,0,13,0,1,,,,,,,,,,,,,
6647b11c05e40e04db826ccb,TCR,2024-06-20_15h27.47.911,LearnStrategy,2023.2.3,Win32,166.6666667,6,1,15,-0.078472222,-0.00625,1,0,0,0.726,rock_grid_rect_2,1,03,-1,-1,0.726,-0.327083333,-0.382638889,1,0,0,1.141,Obsidian_rect,5,1.141,0,14,0,14,0,1,,,,,,,,,,,,,
6647b11c05e40e04db826ccb,TCR,2024-06-20_15h27.47.911,LearnStrategy,2023.2.3,Win32,166.6666667,6,1,16,-0.052083333,0,1,0,0,0.581,rock_grid_rect_2,8,09,-1,-1,0.581,0.432638889,-0.390972222,1,0,0,1.069,Pumice_rect,8,1.069,1,15,0,15,0,1,,,,,,,,,,,,,
6647b11c05e40e04db826ccb,TCR,2024-06-20_15h27.47.911,LearnStrategy,2023.2.3,Win32,166.6666667,6,2,1,,,,,,,,1,09,,,,,,,,,,,3,1.869,0,,,,,,0.133333333,-0.248611111,1,0,0,1.869,Diorite_rect,0,0,0,0,1,
6647b11c05e40e04db826ccb,TCR,2024-06-20_15h27.47.911,LearnStrategy,2023.2.3,Win32,166.6666667,6,2,2,,,,,,,,3,07,,,,,,,,,,,1,0.863,0,,,,,,-0.322222222,-0.270138889,1,0,0,0.863,Andesite_rect,1,0,1,0,1,
6647b11c05e40e04db826ccb,TCR,2024-06-20_15h27.47.911,LearnStrategy,2023.2.3,Win32,166.6666667,6,2,3,,,,,,,,8,10,,,,,,,,,,,8,1.25,1,,,,,,0.484722222,-0.385416667,1,0,0,1.25,Pumice_rect,2,0,2,0,1,
6647b11c05e40e04db826ccb,TCR,2024-06-20_15h27.47.911,LearnStrategy,2023.2.3,Win32,166.6666667,6,2,4,,,,,,,,8,14,,,,,,,,,,,8,0.962,1,,,,,,0.408333333,-0.383333333,1,0,0,0.962,Pumice_rect,3,0,3,0,1,
6647b11c05e40e04db826ccb,TCR,2024-06-20_15h27.47.911,LearnStrategy,2023.2.3,Win32,166.6666667,6,2,5,,,,,,,,5,02,,,,,,,,,,,5,1.415,1,,,,,,-0.318055556,-0.418055556,1,0,0,1.415,Obsidian_rect,4,0,4,0,1,
6647b11c05e40e04db826ccb,TCR,2024-06-20_15h27.47.911,LearnStrategy,2023.2.3,Win32,166.6666667,6,2,6,,,,,,,,5,12,,,,,,,,,,,2,1.137,0,,,,,,-0.055555556,-0.26875,1,0,0,1.137,Basalt_rect,5,0,5,0,1,
6647b11c05e40e04db826ccb,TCR,2024-06-20_15h27.47.911,LearnStrategy,2023.2.3,Win32,166.6666667,6,2,7,,,,,,,,1,02,,,,,,,,,,,3,1.257,0,,,,,,0.114583333,-0.259722222,1,0,0,1.257,Diorite_rect,6,0,6,0,1,
6647b11c05e40e04db826ccb,TCR,2024-06-20_15h27.47.911,LearnStrategy,2023.2.3,Win32,166.6666667,6,2,8,,,,,,,,7,02,,,,,,,,,,,4,2.249,0,,,,,,0.365277778,-0.2625,1,0,0,2.249,Gabbro_rect,7,0,7,0,1,
6647b11c05e40e04db826ccb,TCR,2024-06-20_15h27.47.911,LearnStrategy,2023.2.3,Win32,166.6666667,6,2,9,,,,,,,,6,11,,,,,,,,,,,1,0.931,0,,,,,,-0.386111111,-0.270833333,1,0,0,0.931,Andesite_rect,8,0,8,0,1,
6647b11c05e40e04db826ccb,TCR,2024-06-20_15h27.47.911,LearnStrategy,2023.2.3,Win32,166.6666667,6,2,10,,,,,,,,4,12,,,,,,,,,,,1,0.849,0,,,,,,-0.375,-0.270138889,1,0,0,0.849,Andesite_rect,9,0,9,0,1,
6647b11c05e40e04db826ccb,TCR,2024-06-20_15h27.47.911,LearnStrategy,2023.2.3,Win32,166.6666667,6,2,11,,,,,,,,2,06,,,,,,,,,,,2,0.909,1,,,,,,-0.2,-0.252777778,1,0,0,0.909,Basalt_rect,10,0,10,0,1,
6647b11c05e40e04db826ccb,TCR,2024-06-20_15h27.47.911,LearnStrategy,2023.2.3,Win32,166.6666667,6,2,12,,,,,,,,7,06,,,,,,,,,,,3,1.167,0,,,,,,0.044444444,-0.25,1,0,0,1.167,Diorite_rect,11,0,11,0,1,
6647b11c05e40e04db826ccb,TCR,2024-06-20_15h27.47.911,LearnStrategy,2023.2.3,Win32,166.6666667,6,2,13,,,,,,,,4,01,,,,,,,,,,,7,1.081,0,,,,,,0.048611111,-0.390277778,1,0,0,1.081,Peridotite_rect,12,0,12,0,1,
6647b11c05e40e04db826ccb,TCR,2024-06-20_15h27.47.911,LearnStrategy,2023.2.3,Win32,166.6666667,6,2,14,,,,,,,,3,10,,,,,,,,,,,6,0.923,0,,,,,,-0.108333333,-0.41875,1,0,0,0.923,Pegmatite_rect,13,0,13,0,1,
6647b11c05e40e04db826ccb,TCR,2024-06-20_15h27.47.911,LearnStrategy,2023.2.3,Win32,166.6666667,6,2,15,,,,,,,,6,06,,,,,,,,,,,2,1.104,0,,,,,,-0.096527778,-0.268055556,1,0,0,1.104,Basalt_rect,14,0,14,0,1,
6647b11c05e40e04db826ccb,TCR,2024-06-20_15h27.47.911,LearnStrategy,2023.2.3,Win32,166.6666667,6,2,16,,,,,,,,2,11,,,,,,,,,,,8,1.033,0,,,,,,0.404166667,-0.382638889,1,0,0,1.033,Pumice_rect,15,0,15,0,1,
6647b11c05e40e04db826ccb,TCR,2024-06-20_15h27.47.911,LearnStrategy,2023.2.3,Win32,166.6666667,7,1,1,0.05,0.00625,1,0,0,445.777,rock_grid_rect_2,4,15,-1,-1,445.777,0.400694444,-0.256944444,1,0,0,3.09,Gabbro_rect,4,3.09,1,0,0,0,0,1,,,,,,,,,,,,,
6647b11c05e40e04db826ccb,TCR,2024-06-20_15h27.47.911,LearnStrategy,2023.2.3,Win32,166.6666667,7,1,2,-0.035416667,-0.008333333,1,0,0,0.812,rock_grid_rect_2,7,10,-1,-1,0.812,-0.154861111,-0.255555556,1,0,0,0.93,Basalt_rect,2,0.93,0,1,0,1,0,1,,,,,,,,,,,,,
6647b11c05e40e04db826ccb,TCR,2024-06-20_15h27.47.911,LearnStrategy,2023.2.3,Win32,166.6666667,7,1,3,0.008333333,0.006944444,1,0,0,0.726,rock_grid_rect_2,8,05,-1,-1,0.726,0.113194444,-0.400694444,1,0,0,0.899,Peridotite_rect,7,0.899,0,2,0,2,0,1,,,,,,,,,,,,,
6647b11c05e40e04db826ccb,TCR,2024-06-20_15h27.47.911,LearnStrategy,2023.2.3,Win32,166.6666667,7,1,4,-0.028472222,-0.020833333,1,0,0,0.812,rock_grid_rect_2,3,12,-1,-1,0.812,-0.355555556,-0.230555556,1,0,0,1.23,Andesite_rect,1,1.23,0,3,0,3,0,1,,,,,,,,,,,,,
6647b11c05e40e04db826ccb,TCR,2024-06-20_15h27.47.911,LearnStrategy,2023.2.3,Win32,166.6666667,7,1,5,0.014583333,-0.005555556,1,0,0,0.975,rock_grid_rect_2,7,04,-1,-1,0.975,-0.344444444,-0.414583333,1,0,0,1.568,Obsidian_rect,5,1.568,0,4,0,4,0,1,,,,,,,,,,,,,
6647b11c05e40e04db826ccb,TCR,2024-06-20_15h27.47.911,LearnStrategy,2023.2.3,Win32,166.6666667,7,1,6,0.002083333,0.020833333,1,0,0,0.774,rock_grid_rect_2,1,10,-1,-1,0.774,0.383333333,-0.398611111,1,0,0,1.404,Pumice_rect,8,1.404,0,5,0,5,0,1,,,,,,,,,,,,,
6647b11c05e40e04db826ccb,TCR,2024-06-20_15h27.47.911,LearnStrategy,2023.2.3,Win32,166.6666667,7,1,7,0.030555556,-0.015972222,1,0,0,0.836,rock_grid_rect_2,5,16,-1,-1,0.836,-0.102777778,-0.242361111,1,0,0,1.284,Basalt_rect,2,1.284,0,6,0,6,0,1,,,,,,,,,,,,,
6647b11c05e40e04db826ccb,TCR,2024-06-20_15h27.47.911,LearnStrategy,2023.2.3,Win32,166.6666667,7,1,8,0.029861111,-0.010416667,1,0,0,0.902,rock_grid_rect_2,4,15,-1,-1,0.902,0.129861111,-0.254861111,1,0,0,1.302,Diorite_rect,3,1.302,0,7,0,7,0,1,,,,,,,,,,,,,
6647b11c05e40e04db826ccb,TCR,2024-06-20_15h27.47.911,LearnStrategy,2023.2.3,Win32,166.6666667,7,1,9,0.003472222,0.011111111,1,0,0,0.595,rock_grid_rect_2,1,04,-1,-1,0.595,-0.329861111,-0.261805556,1,0,0,0.812,Andesite_rect,1,0.812,1,8,0,8,0,1,,,,,,,,,,,,,
6647b11c05e40e04db826ccb,TCR,2024-06-20_15h27.47.911,LearnStrategy,2023.2.3,Win32,166.6666667,7,1,10,-0.075,-0.003472222,1,0,0,0.768,rock_grid_rect_2,5,10,-1,-1,0.768,-0.402777778,-0.409027778,1,0,0,1.361,Obsidian_rect,5,1.361,1,9,0,9,0,1,,,,,,,,,,,,,
6647b11c05e40e04db826ccb,TCR,2024-06-20_15h27.47.911,LearnStrategy,2023.2.3,Win32,166.6666667,7,1,11,-0.040972222,-0.013194444,1,0,0,0.63,rock_grid_rect_2,2,14,-1,-1,0.63,0.382638889,-0.3875,1,0,0,1.334,Pumice_rect,8,1.334,0,10,0,10,0,1,,,,,,,,,,,,,
6647b11c05e40e04db826ccb,TCR,2024-06-20_15h27.47.911,LearnStrategy,2023.2.3,Win32,166.6666667,7,1,12,0.042361111,-0.018055556,1,0,0,0.571,rock_grid_rect_2,1,03,-1,-1,0.571,0.102777778,-0.248611111,1,0,0,0.873,Diorite_rect,3,0.873,0,11,0,11,0,1,,,,,,,,,,,,,
6647b11c05e40e04db826ccb,TCR,2024-06-20_15h27.47.911,LearnStrategy,2023.2.3,Win32,166.6666667,7,1,13,-0.081944444,-0.009722222,1,0,0,0.697,rock_grid_rect_2,2,10,-1,-1,0.697,0.160416667,-0.415972222,1,0,0,1.002,Peridotite_rect,7,1.002,0,12,0,12,0,1,,,,,,,,,,,,,
6647b11c05e40e04db826ccb,TCR,2024-06-20_15h27.47.911,LearnStrategy,2023.2.3,Win32,166.6666667,7,1,14,-0.006944444,0.002083333,1,0,0,0.503,rock_grid_rect_2,3,14,-1,-1,0.503,0.347916667,-0.229166667,1,0,0,1.039,Gabbro_rect,4,1.039,0,13,0,13,0,1,,,,,,,,,,,,,
6647b11c05e40e04db826ccb,TCR,2024-06-20_15h27.47.911,LearnStrategy,2023.2.3,Win32,166.6666667,7,1,15,-0.020138889,0.004861111,1,0,0,0.537,rock_grid_rect_2,6,12,-1,-1,0.537,-0.33125,-0.231944444,1,0,0,0.725,Andesite_rect,1,0.725,0,14,0,14,0,1,,,,,,,,,,,,,
6647b11c05e40e04db826ccb,TCR,2024-06-20_15h27.47.911,LearnStrategy,2023.2.3,Win32,166.6666667,7,1,16,-0.036805556,-0.021527778,1,0,0,1.12,rock_grid_rect_2,6,05,-1,-1,1.12,-0.096527778,-0.25,1,0,0,0.768,Basalt_rect,2,0.768,0,15,0,15,0,1,,,,,,,,,,,,,
6647b11c05e40e04db826ccb,TCR,2024-06-20_15h27.47.911,LearnStrategy,2023.2.3,Win32,166.6666667,7,2,1,,,,,,,,2,01,,,,,,,,,,,3,0.704,0,,,,,,0.083333333,-0.258333333,1,0,0,0.704,Diorite_rect,0,0,0,0,1,
6647b11c05e40e04db826ccb,TCR,2024-06-20_15h27.47.911,LearnStrategy,2023.2.3,Win32,166.6666667,7,2,2,,,,,,,,8,16,,,,,,,,,,,8,1.08,1,,,,,,0.379861111,-0.410416667,1,0,0,1.08,Pumice_rect,1,0,1,0,1,
6647b11c05e40e04db826ccb,TCR,2024-06-20_15h27.47.911,LearnStrategy,2023.2.3,Win32,166.6666667,7,2,3,,,,,,,,6,07,,,,,,,,,,,5,2.088,0,,,,,,-0.507638889,-0.406944444,1,0,0,2.088,Obsidian_rect,2,0,2,0,1,
6647b11c05e40e04db826ccb,TCR,2024-06-20_15h27.47.911,LearnStrategy,2023.2.3,Win32,166.6666667,7,2,4,,,,,,,,2,04,,,,,,,,,,,2,1.484,1,,,,,,-0.04375,-0.246527778,1,0,0,1.484,Basalt_rect,3,0,3,0,1,
6647b11c05e40e04db826ccb,TCR,2024-06-20_15h27.47.911,LearnStrategy,2023.2.3,Win32,166.6666667,7,2,5,,,,,,,,7,06,,,,,,,,,,,3,1.558,0,,,,,,0.119444444,-0.257638889,1,0,0,1.558,Diorite_rect,4,0,4,0,1,
6647b11c05e40e04db826ccb,TCR,2024-06-20_15h27.47.911,LearnStrategy,2023.2.3,Win32,166.6666667,7,2,6,,,,,,,,3,13,,,,,,,,,,,7,0.991,0,,,,,,0.100694444,-0.395833333,1,0,0,0.991,Peridotite_rect,5,0,5,0,1,
6647b11c05e40e04db826ccb,TCR,2024-06-20_15h27.47.911,LearnStrategy,2023.2.3,Win32,166.6666667,7,2,7,,,,,,,,6,11,,,,,,,,,,,6,1.205,1,,,,,,-0.15625,-0.395138889,1,0,0,1.205,Pegmatite_rect,6,0,6,0,1,
6647b11c05e40e04db826ccb,TCR,2024-06-20_15h27.47.911,LearnStrategy,2023.2.3,Win32,166.6666667,7,2,8,,,,,,,,4,14,,,,,,,,,,,4,1.39,1,,,,,,0.313888889,-0.241666667,1,0,0,1.39,Gabbro_rect,7,0,7,0,1,
6647b11c05e40e04db826ccb,TCR,2024-06-20_15h27.47.911,LearnStrategy,2023.2.3,Win32,166.6666667,7,2,9,,,,,,,,1,02,,,,,,,,,,,1,1.075,1,,,,,,-0.390972222,-0.2375,1,0,0,1.075,Andesite_rect,8,0,8,0,1,
6647b11c05e40e04db826ccb,TCR,2024-06-20_15h27.47.911,LearnStrategy,2023.2.3,Win32,166.6666667,7,2,10,,,,,,,,1,09,,,,,,,,,,,7,1.25,0,,,,,,0.063888889,-0.40625,1,0,0,1.25,Peridotite_rect,9,0,9,0,1,
6647b11c05e40e04db826ccb,TCR,2024-06-20_15h27.47.911,LearnStrategy,2023.2.3,Win32,166.6666667,7,2,11,,,,,,,,5,09,,,,,,,,,,,5,1.142,1,,,,,,-0.35,-0.38125,1,0,0,1.142,Obsidian_rect,10,0,10,0,1,
6647b11c05e40e04db826ccb,TCR,2024-06-20_15h27.47.911,LearnStrategy,2023.2.3,Win32,166.6666667,7,2,12,,,,,,,,8,14,,,,,,,,,,,8,1.082,1,,,,,,0.422916667,-0.414583333,1,0,0,1.082,Pumice_rect,11,0,11,0,1,
6647b11c05e40e04db826ccb,TCR,2024-06-20_15h27.47.911,LearnStrategy,2023.2.3,Win32,166.6666667,7,2,13,,,,,,,,5,11,,,,,,,,,,,5,1.047,1,,,,,,-0.304166667,-0.390277778,1,0,0,1.047,Obsidian_rect,12,0,12,0,1,
6647b11c05e40e04db826ccb,TCR,2024-06-20_15h27.47.911,LearnStrategy,2023.2.3,Win32,166.6666667,7,2,14,,,,,,,,3,07,,,,,,,,,,,6,1.347,0,,,,,,-0.084027778,-0.397222222,1,0,0,1.347,Pegmatite_rect,13,0,13,0,1,
6647b11c05e40e04db826ccb,TCR,2024-06-20_15h27.47.911,LearnStrategy,2023.2.3,Win32,166.6666667,7,2,15,,,,,,,,4,13,,,,,,,,,,,3,0.891,0,,,,,,0.113194444,-0.252083333,1,0,0,0.891,Diorite_rect,14,0,14,0,1,
6647b11c05e40e04db826ccb,TCR,2024-06-20_15h27.47.911,LearnStrategy,2023.2.3,Win32,166.6666667,7,2,16,,,,,,,,7,05,,,,,,,,,,,7,1.123,1,,,,,,0.141666667,-0.411805556,1,0,0,1.123,Peridotite_rect,15,0,15,0,1,
6647b11c05e40e04db826ccb,TCR,2024-06-20_15h27.47.911,LearnStrategy,2023.2.3,Win32,166.6666667,8,1,1,0.010416667,0.0125,1,0,0,0.933,rock_grid_rect_2,1,07,-1,-1,0.933,0.122222222,-0.248611111,1,0,0,1.016,Diorite_rect,3,1.016,0,0,0,0,0,1,,,,,,,,,,,,,
6647b11c05e40e04db826ccb,TCR,2024-06-20_15h27.47.911,LearnStrategy,2023.2.3,Win32,166.6666667,8,1,2,-0.079861111,-0.003472222,1,0,0,0.708,rock_grid_rect_2,3,06,-1,-1,0.708,-0.130555556,-0.2375,1,0,0,0.49,Basalt_rect,2,0.49,0,1,0,1,0,1,,,,,,,,,,,,,
6647b11c05e40e04db826ccb,TCR,2024-06-20_15h27.47.911,LearnStrategy,2023.2.3,Win32,166.6666667,8,1,3,0.009722222,-0.020833333,1,0,0,0.729,rock_grid_rect_2,3,08,-1,-1,0.729,-0.313888889,-0.267361111,1,0,0,1.998,Andesite_rect,1,1.998,0,2,0,2,0,1,,,,,,,,,,,,,
6647b11c05e40e04db826ccb,TCR,2024-06-20_15h27.47.911,LearnStrategy,2023.2.3,Win32,166.6666667,8,1,4,0.009027778,-0.004861111,1,0,0,0.703,rock_grid_rect_2,7,14,-1,-1,0.703,0.126388889,-0.403472222,1,0,0,0.957,Peridotite_rect,7,0.957,1,3,0,3,0,1,,,,,,,,,,,,,
6647b11c05e40e04db826ccb,TCR,2024-06-20_15h27.47.911,LearnStrategy,2023.2.3,Win32,166.6666667,8,1,5,-0.009027778,-0.009722222,1,0,0,0.563,rock_grid_rect_2,1,11,-1,-1,0.563,-0.1375,-0.413194444,1,0,0,1.31,Pegmatite_rect,6,1.31,0,4,0,4,0,1,,,,,,,,,,,,,
6647b11c05e40e04db826ccb,TCR,2024-06-20_15h27.47.911,LearnStrategy,2023.2.3,Win32,166.6666667,8,1,6,-0.053472222,-0.004166667,1,0,0,0.654,rock_grid_rect_2,5,14,-1,-1,0.654,-0.342361111,-0.400694444,1,0,0,1.001,Obsidian_rect,5,1.001,1,5,0,5,0,1,,,,,,,,,,,,,
6647b11c05e40e04db826ccb,TCR,2024-06-20_15h27.47.911,LearnStrategy,2023.2.3,Win32,166.6666667,8,1,7,-0.01875,-0.006944444,1,0,0,0.769,rock_grid_rect_2,2,10,-1,-1,0.769,0.368055556,-0.246527778,1,0,0,1.178,Gabbro_rect,4,1.178,0,6,0,6,0,1,,,,,,,,,,,,,
6647b11c05e40e04db826ccb,TCR,2024-06-20_15h27.47.911,LearnStrategy,2023.2.3,Win32,166.6666667,8,1,8,-0.004861111,-0.000694444,1,0,0,0.581,rock_grid_rect_2,7,14,-1,-1,0.581,-0.047916667,-0.271527778,1,0,0,1.206,Basalt_rect,2,1.206,0,7,0,7,0,1,,,,,,,,,,,,,
6647b11c05e40e04db826ccb,TCR,2024-06-20_15h27.47.911,LearnStrategy,2023.2.3,Win32,166.6666667,8,1,9,0.032638889,-0.008333333,1,0,0,0.551,rock_grid_rect_2,4,16,-1,-1,0.551,0.075694444,-0.415972222,1,0,0,0.855,Peridotite_rect,7,0.855,0,8,0,8,0,1,,,,,,,,,,,,,
6647b11c05e40e04db826ccb,TCR,2024-06-20_15h27.47.911,LearnStrategy,2023.2.3,Win32,166.6666667,8,1,10,0.125,0.007638889,1,0,0,0.617,rock_grid_rect_2,8,05,-1,-1,0.617,0.425,-0.420833333,1,0,0,1.098,Pumice_rect,8,1.098,1,9,0,9,0,1,,,,,,,,,,,,,
6647b11c05e40e04db826ccb,TCR,2024-06-20_15h27.47.911,LearnStrategy,2023.2.3,Win32,166.6666667,8,1,11,-0.065277778,0.0125,1,0,0,0.654,rock_grid_rect_2,1,11,-1,-1,0.654,-0.35625,-0.248611111,1,0,0,1.09,Andesite_rect,1,1.09,1,10,0,10,0,1,,,,,,,,,,,,,
6647b11c05e40e04db826ccb,TCR,2024-06-20_15h27.47.911,LearnStrategy,2023.2.3,Win32,166.6666667,8,1,12,-0.061805556,-0.017361111,1,0,0,0.62,rock_grid_rect_2,6,09,-1,-1,0.62,-0.409722222,-0.415972222,1,0,0,1.061,Obsidian_rect,5,1.061,0,11,0,11,0,1,,,,,,,,,,,,,
6647b11c05e40e04db826ccb,TCR,2024-06-20_15h27.47.911,LearnStrategy,2023.2.3,Win32,166.6666667,8,1,13,-0.040277778,0,1,0,0,0.711,rock_grid_rect_2,6,08,-1,-1,0.711,-0.422222222,-0.411111111,1,0,0,0.9,Obsidian_rect,5,0.9,0,12,0,12,0,1,,,,,,,,,,,,,
6647b11c05e40e04db826ccb,TCR,2024-06-20_15h27.47.911,LearnStrategy,2023.2.3,Win32,166.6666667,8,1,14,-0.102083333,0.007638889,1,0,0,0.907,rock_grid_rect_2,2,05,-1,-1,0.907,0.047916667,-0.402083333,1,0,0,1.604,Peridotite_rect,7,1.604,0,13,0,13,0,1,,,,,,,,,,,,,
6647b11c05e40e04db826ccb,TCR,2024-06-20_15h27.47.911,LearnStrategy,2023.2.3,Win32,166.6666667,8,1,15,0.074305556,-0.015972222,1,0,0,0.666,rock_grid_rect_2,4,10,-1,-1,0.666,0.127083333,-0.265277778,1,0,0,0.714,Diorite_rect,3,0.714,0,14,0,14,0,1,,,,,,,,,,,,,
6647b11c05e40e04db826ccb,TCR,2024-06-20_15h27.47.911,LearnStrategy,2023.2.3,Win32,166.6666667,8,1,16,0.025694444,0.005555556,1,0,0,0.714,rock_grid_rect_2,3,06,-1,-1,0.714,-0.088888889,-0.241666667,1,0,0,0.787,Basalt_rect,2,0.787,0,15,0,15,0,1,,,,,,,,,,,,,
6647b11c05e40e04db826ccb,TCR,2024-06-20_15h27.47.911,LearnStrategy,2023.2.3,Win32,166.6666667,8,2,1,,,,,,,,3,10,,,,,,,,,,,7,2.193,0,,,,,,0.114583333,-0.402777778,1,0,0,2.193,Peridotite_rect,0,0,0,0,1,
6647b11c05e40e04db826ccb,TCR,2024-06-20_15h27.47.911,LearnStrategy,2023.2.3,Win32,166.6666667,8,2,2,,,,,,,,2,02,,,,,,,,,,,2,1.283,1,,,,,,-0.090277778,-0.266666667,1,0,0,1.283,Basalt_rect,1,0,1,0,1,
6647b11c05e40e04db826ccb,TCR,2024-06-20_15h27.47.911,LearnStrategy,2023.2.3,Win32,166.6666667,8,2,3,,,,,,,,2,16,,,,,,,,,,,6,1.612,0,,,,,,-0.023611111,-0.405555556,1,0,0,1.612,Pegmatite_rect,2,0,2,0,1,
6647b11c05e40e04db826ccb,TCR,2024-06-20_15h27.47.911,LearnStrategy,2023.2.3,Win32,166.6666667,8,2,4,,,,,,,,6,16,,,,,,,,,,,5,1.143,0,,,,,,-0.376388889,-0.410416667,1,0,0,1.143,Obsidian_rect,3,0,3,0,1,
6647b11c05e40e04db826ccb,TCR,2024-06-20_15h27.47.911,LearnStrategy,2023.2.3,Win32,166.6666667,8,2,5,,,,,,,,4,12,,,,,,,,,,,1,1.008,0,,,,,,-0.358333333,-0.261805556,1,0,0,1.008,Andesite_rect,4,0,4,0,1,
6647b11c05e40e04db826ccb,TCR,2024-06-20_15h27.47.911,LearnStrategy,2023.2.3,Win32,166.6666667,8,2,6,,,,,,,,4,01,,,,,,,,,,,4,1.944,1,,,,,,0.385416667,-0.267361111,1,0,0,1.944,Gabbro_rect,5,0,5,0,1,
6647b11c05e40e04db826ccb,TCR,2024-06-20_15h27.47.911,LearnStrategy,2023.2.3,Win32,166.6666667,8,2,7,,,,,,,,1,05,,,,,,,,,,,3,0.839,0,,,,,,0.185416667,-0.269444444,1,0,0,0.839,Diorite_rect,6,0,6,0,1,
6647b11c05e40e04db826ccb,TCR,2024-06-20_15h27.47.911,LearnStrategy,2023.2.3,Win32,166.6666667,8,2,8,,,,,,,,5,12,,,,,,,,,,,5,1.21,1,,,,,,-0.440277778,-0.41875,1,0,0,1.21,Obsidian_rect,7,0,7,0,1,
6647b11c05e40e04db826ccb,TCR,2024-06-20_15h27.47.911,LearnStrategy,2023.2.3,Win32,166.6666667,8,2,9,,,,,,,,5,02,,,,,,,,,,,5,0.829,1,,,,,,-0.415972222,-0.402777778,1,0,0,0.829,Obsidian_rect,8,0,8,0,1,
6647b11c05e40e04db826ccb,TCR,2024-06-20_15h27.47.911,LearnStrategy,2023.2.3,Win32,166.6666667,8,2,10,,,,,,,,7,02,,,,,,,,,,,7,1.808,1,,,,,,0.105555556,-0.413888889,1,0,0,1.808,Peridotite_rect,9,0,9,0,1,
6647b11c05e40e04db826ccb,TCR,2024-06-20_15h27.47.911,LearnStrategy,2023.2.3,Win32,166.6666667,8,2,11,,,,,,,,3,09,,,,,,,,,,,1,1.003,0,,,,,,-0.325,-0.255555556,1,0,0,1.003,Andesite_rect,10,0,10,0,1,
6647b11c05e40e04db826ccb,TCR,2024-06-20_15h27.47.911,LearnStrategy,2023.2.3,Win32,166.6666667,8,2,12,,,,,,,,6,06,,,,,,,,,,,6,0.729,1,,,,,,-0.104166667,-0.410416667,1,0,0,0.729,Pegmatite_rect,11,0,11,0,1,
6647b11c05e40e04db826ccb,TCR,2024-06-20_15h27.47.911,LearnStrategy,2023.2.3,Win32,166.6666667,8,2,13,,,,,,,,8,02,,,,,,,,,,,8,1.692,1,,,,,,0.372222222,-0.40625,1,0,0,1.692,Pumice_rect,12,0,12,0,1,
6647b11c05e40e04db826ccb,TCR,2024-06-20_15h27.47.911,LearnStrategy,2023.2.3,Win32,166.6666667,8,2,14,,,,,,,,7,12,,,,,,,,,,,3,1.281,0,,,,,,0.18125,-0.252083333,1,0,0,1.281,Diorite_rect,13,0,13,0,1,
6647b11c05e40e04db826ccb,TCR,2024-06-20_15h27.47.911,LearnStrategy,2023.2.3,Win32,166.6666667,8,2,15,,,,,,,,1,06,,,,,,,,,,,2,1.365,0,,,,,,-0.154166667,-0.258333333,1,0,0,1.365,Basalt_rect,14,0,14,0,1,
6647b11c05e40e04db826ccb,TCR,2024-06-20_15h27.47.911,LearnStrategy,2023.2.3,Win32,166.6666667,8,2,16,,,,,,,,8,10,,,,,,,,,,,8,1.162,1,,,,,,0.422222222,-0.419444444,1,0,0,1.162,Pumice_rect,15,0,15,0,1,
6647b11c05e40e04db826ccb,TCR,2024-06-20_15h27.47.911,LearnStrategy,2023.2.3,Win32,166.6666667,9,1,1,-0.059722222,-0.018055556,1,0,0,0.969,rock_grid_rect_2,2,08,-1,-1,0.969,0.111805556,-0.266666667,1,0,0,1.078,Diorite_rect,3,1.078,0,0,0,0,0,1,,,,,,,,,,,,,
6647b11c05e40e04db826ccb,TCR,2024-06-20_15h27.47.911,LearnStrategy,2023.2.3,Win32,166.6666667,9,1,2,-0.029166667,-0.016666667,1,0,0,0.752,rock_grid_rect_2,6,09,-1,-1,0.752,-0.375694444,-0.4,1,0,0,1.046,Obsidian_rect,5,1.046,0,1,0,1,0,1,,,,,,,,,,,,,
6647b11c05e40e04db826ccb,TCR,2024-06-20_15h27.47.911,LearnStrategy,2023.2.3,Win32,166.6666667,9,1,3,-0.018055556,-0.002083333,1,0,0,0.647,rock_grid_rect_2,1,04,-1,-1,0.647,-0.179166667,-0.252777778,1,0,0,3.301,Basalt_rect,2,3.301,0,2,0,2,0,1,,,,,,,,,,,,,
6647b11c05e40e04db826ccb,TCR,2024-06-20_15h27.47.911,LearnStrategy,2023.2.3,Win32,166.6666667,9,1,4,-0.032638889,-0.005555556,1,0,0,0.856,rock_grid_rect_2,6,09,-1,-1,0.856,-0.411111111,-0.403472222,1,0,0,1.214,Obsidian_rect,5,1.214,0,3,0,3,0,1,,,,,,,,,,,,,
6647b11c05e40e04db826ccb,TCR,2024-06-20_15h27.47.911,LearnStrategy,2023.2.3,Win32,166.6666667,9,1,5,0.018055556,-0.014583333,1,0,0,0.739,rock_grid_rect_2,1,11,-1,-1,0.739,0.094444444,-0.267361111,1,0,0,0.919,Diorite_rect,3,0.919,0,4,0,4,0,1,,,,,,,,,,,,,
6647b11c05e40e04db826ccb,TCR,2024-06-20_15h27.47.911,LearnStrategy,2023.2.3,Win32,166.6666667,9,1,6,0.004166667,-0.010416667,1,0,0,0.647,rock_grid_rect_2,7,15,-1,-1,0.647,-0.197916667,-0.26875,1,0,0,1.12,Basalt_rect,2,1.12,0,5,0,5,0,1,,,,,,,,,,,,,
6647b11c05e40e04db826ccb,TCR,2024-06-20_15h27.47.911,LearnStrategy,2023.2.3,Win32,166.6666667,9,1,7,-0.011111111,-0.0125,1,0,0,0.674,rock_grid_rect_2,2,09,-1,-1,0.674,-0.15,-0.415277778,1,0,0,0.688,Pegmatite_rect,6,0.688,0,6,0,6,0,1,,,,,,,,,,,,,
6647b11c05e40e04db826ccb,TCR,2024-06-20_15h27.47.911,LearnStrategy,2023.2.3,Win32,166.6666667,9,1,8,0.042361111,0.008333333,1,0,0,0.518,rock_grid_rect_2,3,08,-1,-1,0.518,0.395138889,-0.261111111,1,0,0,0.724,Gabbro_rect,4,0.724,0,7,0,7,0,1,,,,,,,,,,,,,
6647b11c05e40e04db826ccb,TCR,2024-06-20_15h27.47.911,LearnStrategy,2023.2.3,Win32,166.6666667,9,1,9,0.065972222,0.004861111,1,0,0,0.667,rock_grid_rect_2,1,14,-1,-1,0.667,0.107638889,-0.378472222,1,0,0,1.062,Peridotite_rect,7,1.062,0,8,0,8,0,1,,,,,,,,,,,,,
6647b11c05e40e04db826ccb,TCR,2024-06-20_15h27.47.911,LearnStrategy,2023.2.3,Win32,166.6666667,9,1,10,-0.020138889,-0.01875,1,0,0,0.927,rock_grid_rect_2,8,05,-1,-1,0.927,-0.113194444,-0.252083333,1,0,0,0.514,Basalt_rect,2,0.514,0,9,0,9,0,1,,,,,,,,,,,,,
6647b11c05e40e04db826ccb,TCR,2024-06-20_15h27.47.911,LearnStrategy,2023.2.3,Win32,166.6666667,9,1,11,-0.019444444,-0.018055556,1,0,0,0.915,rock_grid_rect_2,3,15,-1,-1,0.915,-0.309027778,-0.242361111,1,0,0,1.509,Andesite_rect,1,1.509,0,10,0,10,0,1,,,,,,,,,,,,,
6647b11c05e40e04db826ccb,TCR,2024-06-20_15h27.47.911,LearnStrategy,2023.2.3,Win32,166.6666667,9,1,12,-0.005555556,-0.018055556,1,0,0,0.538,rock_grid_rect_2,4,10,-1,-1,0.538,-0.38125,-0.395138889,1,0,0,1.134,Obsidian_rect,5,1.134,0,11,0,11,0,1,,,,,,,,,,,,,
6647b11c05e40e04db826ccb,TCR,2024-06-20_15h27.47.911,LearnStrategy,2023.2.3,Win32,166.6666667,9,1,13,0.043055556,-0.016666667,1,0,0,0.625,rock_grid_rect_2,4,16,-1,-1,0.625,0.115277778,-0.397916667,1,0,0,1.098,Peridotite_rect,7,1.098,0,12,0,12,0,1,,,,,,,,,,,,,
6647b11c05e40e04db826ccb,TCR,2024-06-20_15h27.47.911,LearnStrategy,2023.2.3,Win32,166.6666667,9,1,14,0.027777778,0.003472222,1,0,0,0.503,rock_grid_rect_2,5,06,-1,-1,0.503,-0.382638889,-0.392361111,1,0,0,0.894,Obsidian_rect,5,0.894,1,13,0,13,0,1,,,,,,,,,,,,,
6647b11c05e40e04db826ccb,TCR,2024-06-20_15h27.47.911,LearnStrategy,2023.2.3,Win32,166.6666667,9,1,15,-0.033333333,-0.010416667,1,0,0,0.867,rock_grid_rect_2,7,10,-1,-1,0.867,-0.132638889,-0.251388889,1,0,0,1.094,Basalt_rect,2,1.094,0,14,0,14,0,1,,,,,,,,,,,,,
6647b11c05e40e04db826ccb,TCR,2024-06-20_15h27.47.911,LearnStrategy,2023.2.3,Win32,166.6666667,9,1,16,-0.002777778,-0.01875,1,0,0,0.684,rock_grid_rect_2,3,06,-1,-1,0.684,0.324305556,-0.238888889,1,0,0,2.674,Gabbro_rect,4,2.674,0,15,0,15,0,1,,,,,,,,,,,,,
6647b11c05e40e04db826ccb,TCR,2024-06-20_15h27.47.911,LearnStrategy,2023.2.3,Win32,166.6666667,9,2,1,,,,,,,,6,13,,,,,,,,,,,3,1.92,0,,,,,,0.095833333,-0.263194444,1,0,0,1.92,Diorite_rect,0,0,0,0,1,
6647b11c05e40e04db826ccb,TCR,2024-06-20_15h27.47.911,LearnStrategy,2023.2.3,Win32,166.6666667,9,2,2,,,,,,,,3,02,,,,,,,,,,,2,1.181,0,,,,,,-0.094444444,-0.252777778,1,0,0,1.181,Basalt_rect,1,0,1,0,1,
6647b11c05e40e04db826ccb,TCR,2024-06-20_15h27.47.911,LearnStrategy,2023.2.3,Win32,166.6666667,9,2,3,,,,,,,,1,01,,,,,,,,,,,6,1.163,0,,,,,,-0.101388889,-0.392361111,1,0,0,1.163,Pegmatite_rect,2,0,2,0,1,
6647b11c05e40e04db826ccb,TCR,2024-06-20_15h27.47.911,LearnStrategy,2023.2.3,Win32,166.6666667,9,2,4,,,,,,,,8,15,,,,,,,,,,,8,3.122,1,,,,,,0.393055556,-0.404166667,1,0,0,3.122,Pumice_rect,3,0,3,0,1,
6647b11c05e40e04db826ccb,TCR,2024-06-20_15h27.47.911,LearnStrategy,2023.2.3,Win32,166.6666667,9,2,5,,,,,,,,5,04,,,,,,,,,,,5,1.039,1,,,,,,-0.417361111,-0.399305556,1,0,0,1.039,Obsidian_rect,4,0,4,0,1,
6647b11c05e40e04db826ccb,TCR,2024-06-20_15h27.47.911,LearnStrategy,2023.2.3,Win32,166.6666667,9,2,6,,,,,,,,5,08,,,,,,,,,,,5,0.65,1,,,,,,-0.417361111,-0.399305556,1,0,0,0.65,Obsidian_rect,5,0,5,0,1,
6647b11c05e40e04db826ccb,TCR,2024-06-20_15h27.47.911,LearnStrategy,2023.2.3,Win32,166.6666667,9,2,7,,,,,,,,7,08,,,,,,,,,,,1,1.596,0,,,,,,-0.375694444,-0.251388889,1,0,0,1.596,Andesite_rect,6,0,6,0,1,
6647b11c05e40e04db826ccb,TCR,2024-06-20_15h27.47.911,LearnStrategy,2023.2.3,Win32,166.6666667,9,2,8,,,,,,,,2,11,,,,,,,,,,,8,1.577,0,,,,,,0.347222222,-0.39375,1,0,0,1.577,Pumice_rect,7,0,7,0,1,
6647b11c05e40e04db826ccb,TCR,2024-06-20_15h27.47.911,LearnStrategy,2023.2.3,Win32,166.6666667,9,2,9,,,,,,,,1,16,,,,,,,,,,,4,1.43,0,,,,,,0.3875,-0.261805556,1,0,0,1.43,Gabbro_rect,8,0,8,0,1,
6647b11c05e40e04db826ccb,TCR,2024-06-20_15h27.47.911,LearnStrategy,2023.2.3,Win32,166.6666667,9,2,10,,,,,,,,3,16,,,,,,,,,,,7,0.943,0,,,,,,0.15625,-0.403472222,1,0,0,0.943,Peridotite_rect,9,0,9,0,1,
6647b11c05e40e04db826ccb,TCR,2024-06-20_15h27.47.911,LearnStrategy,2023.2.3,Win32,166.6666667,9,2,11,,,,,,,,4,09,,,,,,,,,,,6,0.909,0,,,,,,-0.09375,-0.394444444,1,0,0,0.909,Pegmatite_rect,10,0,10,0,1,
6647b11c05e40e04db826ccb,TCR,2024-06-20_15h27.47.911,LearnStrategy,2023.2.3,Win32,166.6666667,9,2,12,,,,,,,,2,06,,,,,,,,,,,2,0.841,1,,,,,,-0.081944444,-0.244444444,1,0,0,0.841,Basalt_rect,11,0,11,0,1,
6647b11c05e40e04db826ccb,TCR,2024-06-20_15h27.47.911,LearnStrategy,2023.2.3,Win32,166.6666667,9,2,13,,,,,,,,7,13,,,,,,,,,,,6,2.698,0,,,,,,-0.09375,-0.397222222,1,0,0,2.698,Pegmatite_rect,12,0,12,0,1,
6647b11c05e40e04db826ccb,TCR,2024-06-20_15h27.47.911,LearnStrategy,2023.2.3,Win32,166.6666667,9,2,14,,,,,,,,4,05,,,,,,,,,,,7,0.923,0,,,,,,0.093055556,-0.404166667,1,0,0,0.923,Peridotite_rect,13,0,13,0,1,
6647b11c05e40e04db826ccb,TCR,2024-06-20_15h27.47.911,LearnStrategy,2023.2.3,Win32,166.6666667,9,2,15,,,,,,,,8,06,,,,,,,,,,,8,0.965,1,,,,,,0.367361111,-0.388194444,1,0,0,0.965,Pumice_rect,14,0,14,0,1,
6647b11c05e40e04db826ccb,TCR,2024-06-20_15h27.47.911,LearnStrategy,2023.2.3,Win32,166.6666667,9,2,16,,,,,,,,6,10,,,,,,,,,,,5,1.705,0,,,,,,-0.343055556,-0.408333333,1,0,0,1.705,Obsidian_rect,15,0,15,0,1,
6647b11c05e40e04db826ccb,TCR,2024-06-20_15h27.47.911,LearnStrategy,2023.2.3,Win32,166.6666667,,,,,,,,,,,,,,,,,,,,,,,,,,,,,,,,,,,,,,,,,,,0
6647b11c05e40e04db826ccb,TCR,2024-06-20_15h27.47.911,LearnStrategy,2023.2.3,Win32,166.6666667,,,,,,,,,,,,,,,,,,,,,,,,,,,,,,,,,,,,,,,,,,,
6647b11c05e40e04db826ccb,TCR,2024-06-20_15h27.47.911,LearnStrategy,2023.2.3,Win32,166.6666667,,,,,,,,,,,1,14,1,1,,,,,,,,,,,,,,,,,,,,,,,,,,,,,
6647b11c05e40e04db826ccb,TCR,2024-06-20_15h27.47.911,LearnStrategy,2023.2.3,Win32,166.6666667,,,,,,,,,,,8,03,1,2,,,,,,,,,,,,,,,,,,,,,,,,,,,,,
6647b11c05e40e04db826ccb,TCR,2024-06-20_15h27.47.911,LearnStrategy,2023.2.3,Win32,166.6666667,,,,,,,,,,,8,08,1,3,,,,,,,,,,,,,,,,,,,,,,,,,,,,,
6647b11c05e40e04db826ccb,TCR,2024-06-20_15h27.47.911,LearnStrategy,2023.2.3,Win32,166.6666667,,,,,,,,,,,6,08,1,4,,,,,,,,,,,,,,,,,,,,,,,,,,,,,
6647b11c05e40e04db826ccb,TCR,2024-06-20_15h27.47.911,LearnStrategy,2023.2.3,Win32,166.6666667,,,,,,,,,,,6,03,1,5,,,,,,,,,,,,,,,,,,,,,,,,,,,,,
6647b11c05e40e04db826ccb,TCR,2024-06-20_15h27.47.911,LearnStrategy,2023.2.3,Win32,166.6666667,,,,,,,,,,,8,13,1,6,,,,,,,,,,,,,,,,,,,,,,,,,,,,,
6647b11c05e40e04db826ccb,TCR,2024-06-20_15h27.47.911,LearnStrategy,2023.2.3,Win32,166.6666667,,,,,,,,,,,3,11,1,7,,,,,,,,,,,,,,,,,,,,,,,,,,,,,
6647b11c05e40e04db826ccb,TCR,2024-06-20_15h27.47.911,LearnStrategy,2023.2.3,Win32,166.6666667,,,,,,,,,,,8,09,1,8,,,,,,,,,,,,,,,,,,,,,,,,,,,,,
6647b11c05e40e04db826ccb,TCR,2024-06-20_15h27.47.911,LearnStrategy,2023.2.3,Win32,166.6666667,,,,,,,,,,,2,14,2,1,,,,,,,,,,,,,,,,,,,,,,,,,,,,,
6647b11c05e40e04db826ccb,TCR,2024-06-20_15h27.47.911,LearnStrategy,2023.2.3,Win32,166.6666667,,,,,,,,,,,2,10,2,2,,,,,,,,,,,,,,,,,,,,,,,,,,,,,
6647b11c05e40e04db826ccb,TCR,2024-06-20_15h27.47.911,LearnStrategy,2023.2.3,Win32,166.6666667,,,,,,,,,,,2,09,2,3,,,,,,,,,,,,,,,,,,,,,,,,,,,,,
6647b11c05e40e04db826ccb,TCR,2024-06-20_15h27.47.911,LearnStrategy,2023.2.3,Win32,166.6666667,,,,,,,,,,,5,05,2,4,,,,,,,,,,,,,,,,,,,,,,,,,,,,,
6647b11c05e40e04db826ccb,TCR,2024-06-20_15h27.47.911,LearnStrategy,2023.2.3,Win32,166.6666667,,,,,,,,,,,1,03,2,5,,,,,,,,,,,,,,,,,,,,,,,,,,,,,
6647b11c05e40e04db826ccb,TCR,2024-06-20_15h27.47.911,LearnStrategy,2023.2.3,Win32,166.6666667,,,,,,,,,,,5,16,2,6,,,,,,,,,,,,,,,,,,,,,,,,,,,,,
6647b11c05e40e04db826ccb,TCR,2024-06-20_15h27.47.911,LearnStrategy,2023.2.3,Win32,166.6666667,,,,,,,,,,,2,12,2,7,,,,,,,,,,,,,,,,,,,,,,,,,,,,,
6647b11c05e40e04db826ccb,TCR,2024-06-20_15h27.47.911,LearnStrategy,2023.2.3,Win32,166.6666667,,,,,,,,,,,3,12,2,8,,,,,,,,,,,,,,,,,,,,,,,,,,,,,
6647b11c05e40e04db826ccb,TCR,2024-06-20_15h27.47.911,LearnStrategy,2023.2.3,Win32,166.6666667,,,,,,,,,,,6,12,3,1,,,,,,,,,,,,,,,,,,,,,,,,,,,,,
6647b11c05e40e04db826ccb,TCR,2024-06-20_15h27.47.911,LearnStrategy,2023.2.3,Win32,166.6666667,,,,,,,,,,,6,05,3,2,,,,,,,,,,,,,,,,,,,,,,,,,,,,,
6647b11c05e40e04db826ccb,TCR,2024-06-20_15h27.47.911,LearnStrategy,2023.2.3,Win32,166.6666667,,,,,,,,,,,5,07,3,3,,,,,,,,,,,,,,,,,,,,,,,,,,,,,
6647b11c05e40e04db826ccb,TCR,2024-06-20_15h27.47.911,LearnStrategy,2023.2.3,Win32,166.6666667,,,,,,,,,,,4,03,3,4,,,,,,,,,,,,,,,,,,,,,,,,,,,,,
6647b11c05e40e04db826ccb,TCR,2024-06-20_15h27.47.911,LearnStrategy,2023.2.3,Win32,166.6666667,,,,,,,,,,,7,07,3,5,,,,,,,,,,,,,,,,,,,,,,,,,,,,,
6647b11c05e40e04db826ccb,TCR,2024-06-20_15h27.47.911,LearnStrategy,2023.2.3,Win32,166.6666667,,,,,,,,,,,5,14,3,6,,,,,,,,,,,,,,,,,,,,,,,,,,,,,
6647b11c05e40e04db826ccb,TCR,2024-06-20_15h27.47.911,LearnStrategy,2023.2.3,Win32,166.6666667,,,,,,,,,,,3,08,3,7,,,,,,,,,,,,,,,,,,,,,,,,,,,,,
6647b11c05e40e04db826ccb,TCR,2024-06-20_15h27.47.911,LearnStrategy,2023.2.3,Win32,166.6666667,,,,,,,,,,,6,09,3,8,,,,,,,,,,,,,,,,,,,,,,,,,,,,,
6647b11c05e40e04db826ccb,TCR,2024-06-20_15h27.47.911,LearnStrategy,2023.2.3,Win32,166.6666667,,,,,,,,,,,5,10,4,1,,,,,,,,,,,,,,,,,,,,,,,,,,,,,
6647b11c05e40e04db826ccb,TCR,2024-06-20_15h27.47.911,LearnStrategy,2023.2.3,Win32,166.6666667,,,,,,,,,,,7,15,4,2,,,,,,,,,,,,,,,,,,,,,,,,,,,,,
6647b11c05e40e04db826ccb,TCR,2024-06-20_15h27.47.911,LearnStrategy,2023.2.3,Win32,166.6666667,,,,,,,,,,,2,08,4,3,,,,,,,,,,,,,,,,,,,,,,,,,,,,,
6647b11c05e40e04db826ccb,TCR,2024-06-20_15h27.47.911,LearnStrategy,2023.2.3,Win32,166.6666667,,,,,,,,,,,8,04,4,4,,,,,,,,,,,,,,,,,,,,,,,,,,,,,
6647b11c05e40e04db826ccb,TCR,2024-06-20_15h27.47.911,LearnStrategy,2023.2.3,Win32,166.6666667,,,,,,,,,,,1,10,4,5,,,,,,,,,,,,,,,,,,,,,,,,,,,,,
6647b11c05e40e04db826ccb,TCR,2024-06-20_15h27.47.911,LearnStrategy,2023.2.3,Win32,166.6666667,,,,,,,,,,,1,11,4,6,,,,,,,,,,,,,,,,,,,,,,,,,,,,,
6647b11c05e40e04db826ccb,TCR,2024-06-20_15h27.47.911,LearnStrategy,2023.2.3,Win32,166.6666667,,,,,,,,,,,3,06,4,7,,,,,,,,,,,,,,,,,,,,,,,,,,,,,
6647b11c05e40e04db826ccb,TCR,2024-06-20_15h27.47.911,LearnStrategy,2023.2.3,Win32,166.6666667,,,,,,,,,,,5,06,4,8,,,,,,,,,,,,,,,,,,,,,,,,,,,,,
6647b11c05e40e04db826ccb,TCR,2024-06-20_15h27.47.911,LearnStrategy,2023.2.3,Win32,166.6666667,,,,,,,,,,,4,15,5,1,,,,,,,,,,,,,,,,,,,,,,,,,,,,,
6647b11c05e40e04db826ccb,TCR,2024-06-20_15h27.47.911,LearnStrategy,2023.2.3,Win32,166.6666667,,,,,,,,,,,4,16,5,2,,,,,,,,,,,,,,,,,,,,,,,,,,,,,
6647b11c05e40e04db826ccb,TCR,2024-06-20_15h27.47.911,LearnStrategy,2023.2.3,Win32,166.6666667,,,,,,,,,,,1,04,5,3,,,,,,,,,,,,,,,,,,,,,,,,,,,,,
6647b11c05e40e04db826ccb,TCR,2024-06-20_15h27.47.911,LearnStrategy,2023.2.3,Win32,166.6666667,,,,,,,,,,,7,14,5,4,,,,,,,,,,,,,,,,,,,,,,,,,,,,,
6647b11c05e40e04db826ccb,TCR,2024-06-20_15h27.47.911,LearnStrategy,2023.2.3,Win32,166.6666667,,,,,,,,,,,7,16,5,5,,,,,,,,,,,,,,,,,,,,,,,,,,,,,
6647b11c05e40e04db826ccb,TCR,2024-06-20_15h27.47.911,LearnStrategy,2023.2.3,Win32,166.6666667,,,,,,,,,,,3,15,5,6,,,,,,,,,,,,,,,,,,,,,,,,,,,,,
6647b11c05e40e04db826ccb,TCR,2024-06-20_15h27.47.911,LearnStrategy,2023.2.3,Win32,166.6666667,,,,,,,,,,,7,04,5,7,,,,,,,,,,,,,,,,,,,,,,,,,,,,,
6647b11c05e40e04db826ccb,TCR,2024-06-20_15h27.47.911,LearnStrategy,2023.2.3,Win32,166.6666667,,,,,,,,,,,8,05,5,8,,,,,,,,,,,,,,,,,,,,,,,,,,,,,
6647b11c05e40e04db826ccb,TCR,2024-06-20_15h27.47.911,LearnStrategy,2023.2.3,Win32,166.6666667,,,,,,,,,,,7,10,6,1,,,,,,,,,,,,,,,,,,,,,,,,,,,,,
6647b11c05e40e04db826ccb,TCR,2024-06-20_15h27.47.911,LearnStrategy,2023.2.3,Win32,166.6666667,,,,,,,,,,,3,14,6,2,,,,,,,,,,,,,,,,,,,,,,,,,,,,,
6647b11c05e40e04db826ccb,TCR,2024-06-20_15h27.47.911,LearnStrategy,2023.2.3,Win32,166.6666667,,,,,,,,,,,6,15,6,3,,,,,,,,,,,,,,,,,,,,,,,,,,,,,
6647b11c05e40e04db826ccb,TCR,2024-06-20_15h27.47.911,LearnStrategy,2023.2.3,Win32,166.6666667,,,,,,,,,,,2,05,6,4,,,,,,,,,,,,,,,,,,,,,,,,,,,,,
6647b11c05e40e04db826ccb,TCR,2024-06-20_15h27.47.911,LearnStrategy,2023.2.3,Win32,166.6666667,,,,,,,,,,,4,11,6,5,,,,,,,,,,,,,,,,,,,,,,,,,,,,,
6647b11c05e40e04db826ccb,TCR,2024-06-20_15h27.47.911,LearnStrategy,2023.2.3,Win32,166.6666667,,,,,,,,,,,4,10,6,6,,,,,,,,,,,,,,,,,,,,,,,,,,,,,
6647b11c05e40e04db826ccb,TCR,2024-06-20_15h27.47.911,LearnStrategy,2023.2.3,Win32,166.6666667,,,,,,,,,,,4,08,6,7,,,,,,,,,,,,,,,,,,,,,,,,,,,,,
6647b11c05e40e04db826ccb,TCR,2024-06-20_15h27.47.911,LearnStrategy,2023.2.3,Win32,166.6666667,,,,,,,,,,,1,07,6,8,,,,,,,,,,,,,,,,,,,,,,,,,,,,,