participant,condition,date,expName,psychopyVersion,OS,frameRate,block,phase,trial,learn_mouse_2.x,learn_mouse_2.y,learn_mouse_2.leftButton,learn_mouse_2.midButton,learn_mouse_2.rightButton,learn_mouse_2.time,learn_mouse_2.clicked_name,cat,token,row,col,t_select,cat_mouse_l.x,cat_mouse_l.y,cat_mouse_l.leftButton,cat_mouse_l.midButton,cat_mouse_l.rightButton,cat_mouse_l.time,cat_mouse_l.clicked_name,resp,t_resp,corr,train_trials.thisRepN,train_trials.thisTrialN,train_trials.thisN,train_trials.thisIndex,train_trials.ran,cat_mouse_t.x,cat_mouse_t.y,cat_mouse_t.leftButton,cat_mouse_t.midButton,cat_mouse_t.rightButton,cat_mouse_t.time,cat_mouse_t.clicked_name,test_trials.thisRepN,test_trials.thisTrialN,test_trials.thisN,test_trials.thisIndex,test_trials.ran,Bonus
6647687c4e426658c608e92e,TCN,2024-06-24_14h43.47.245,LearnStrategy,2023.2.3,Win32,75.18796992,,,,,,,,,,,,,,,,,,,,,,,,,,,,,,,,,,,,,,,,,,,
6647687c4e426658c608e92e,TCN,2024-06-24_14h43.47.245,LearnStrategy,2023.2.3,Win32,75.18796992,1,1,1,0.030555556,-0.002777778,1,0,0,2.2718,rock_grid_rect_2,8,15,-1,-1,2.272,0.185185185,-0.257407407,1,0,0,4.3642,Diorite_rect,3,4.364,0,0,0,0,0,1,,,,,,,,,,,,,
6647687c4e426658c608e92e,TCN,2024-06-24_14h43.47.245,LearnStrategy,2023.2.3,Win32,75.18796992,1,1,2,0.053703704,0.007407407,1,0,0,1.5018,rock_grid_rect_2,1,09,-1,-1,1.502,-0.107407407,-0.25,1,0,0,5.5219,Basalt_rect,2,5.522,0,1,0,1,0,1,,,,,,,,,,,,,
6647687c4e426658c608e92e,TCN,2024-06-24_14h43.47.245,LearnStrategy,2023.2.3,Win32,75.18796992,1,1,3,-0.094444444,0.001851852,1,0,0,1.1319,rock_grid_rect_2,6,13,-1,-1,1.132,-0.07962963,-0.257407407,1,0,0,7.9225,Basalt_rect,2,7.922,0,2,0,2,0,1,,,,,,,,,,,,,
6647687c4e426658c608e92e,TCN,2024-06-24_14h43.47.245,LearnStrategy,2023.2.3,Win32,75.18796992,1,1,4,-0.060185185,-0.012037037,1,0,0,1.3172,rock_grid_rect_2,1,16,-1,-1,1.317,0.330555556,-0.252777778,1,0,0,2.6324,Gabbro_rect,4,2.632,0,3,0,3,0,1,,,,,,,,,,,,,
6647687c4e426658c608e92e,TCN,2024-06-24_14h43.47.245,LearnStrategy,2023.2.3,Win32,75.18796992,1,1,5,-0.102777778,0.00462963,1,0,0,1.2703,rock_grid_rect_2,3,14,-1,-1,1.27,-0.158333333,-0.403703704,1,0,0,3.6652,Pegmatite_rect,6,3.665,0,4,0,4,0,1,,,,,,,,,,,,,
6647687c4e426658c608e92e,TCN,2024-06-24_14h43.47.245,LearnStrategy,2023.2.3,Win32,75.18796992,1,1,6,0.030555556,0.000925926,1,0,0,1.7193,rock_grid_rect_2,4,11,-1,-1,1.719,-0.312037037,-0.233333333,1,0,0,3.7721,Andesite_rect,1,3.772,0,5,0,5,0,1,,,,,,,,,,,,,
6647687c4e426658c608e92e,TCN,2024-06-24_14h43.47.245,LearnStrategy,2023.2.3,Win32,75.18796992,1,1,7,0.043518519,-0.001851852,1,0,0,1.4119,rock_grid_rect_2,6,05,-1,-1,1.412,0.084259259,-0.4,1,0,0,3.0362,Peridotite_rect,7,3.036,0,6,0,6,0,1,,,,,,,,,,,,,
6647687c4e426658c608e92e,TCN,2024-06-24_14h43.47.245,LearnStrategy,2023.2.3,Win32,75.18796992,1,1,8,0.033333333,-0.014814815,1,0,0,1.1716,rock_grid_rect_2,5,04,-1,-1,1.172,-0.357407407,-0.37962963,1,0,0,1.129,Obsidian_rect,5,1.129,1,7,0,7,0,1,,,,,,,,,,,,,
6647687c4e426658c608e92e,TCN,2024-06-24_14h43.47.245,LearnStrategy,2023.2.3,Win32,75.18796992,1,1,9,0.028703704,-0.02037037,1,0,0,0.9575,rock_grid_rect_2,2,05,-1,-1,0.957,-0.336111111,-0.265740741,1,0,0,4.2849,Andesite_rect,1,4.285,0,8,0,8,0,1,,,,,,,,,,,,,
6647687c4e426658c608e92e,TCN,2024-06-24_14h43.47.245,LearnStrategy,2023.2.3,Win32,75.18796992,1,1,10,0.038888889,0.011111111,1,0,0,1.3625,rock_grid_rect_2,2,14,-1,-1,1.363,0.190740741,-0.257407407,1,0,0,2.5475,Diorite_rect,3,2.547,0,9,0,9,0,1,,,,,,,,,,,,,
6647687c4e426658c608e92e,TCN,2024-06-24_14h43.47.245,LearnStrategy,2023.2.3,Win32,75.18796992,1,1,11,0.051851852,-0.00462963,1,0,0,1.027,rock_grid_rect_2,4,15,-1,-1,1.027,0.144444444,-0.264814815,1,0,0,6.2294,Diorite_rect,3,6.229,0,10,0,10,0,1,,,,,,,,,,,,,
6647687c4e426658c608e92e,TCN,2024-06-24_14h43.47.245,LearnStrategy,2023.2.3,Win32,75.18796992,1,1,12,0.018518519,-0.001851852,1,0,0,1.0241,rock_grid_rect_2,8,03,-1,-1,1.024,0.448148148,-0.378703704,1,0,0,9.2503,Pumice_rect,8,9.25,1,11,0,11,0,1,,,,,,,,,,,,,
6647687c4e426658c608e92e,TCN,2024-06-24_14h43.47.245,LearnStrategy,2023.2.3,Win32,75.18796992,1,1,13,0.017592593,-0.008333333,1,0,0,5.4589,rock_grid_rect_2,5,07,-1,-1,5.459,-0.465740741,-0.406481481,1,0,0,1.5057,Obsidian_rect,5,1.506,1,12,0,12,0,1,,,,,,,,,,,,,
6647687c4e426658c608e92e,TCN,2024-06-24_14h43.47.245,LearnStrategy,2023.2.3,Win32,75.18796992,1,1,14,-0.093518519,-0.018518519,1,0,0,1.3086,rock_grid_rect_2,3,08,-1,-1,1.309,-0.081481481,-0.390740741,1,0,0,4.6788,Pegmatite_rect,6,4.679,0,13,0,13,0,1,,,,,,,,,,,,,
6647687c4e426658c608e92e,TCN,2024-06-24_14h43.47.245,LearnStrategy,2023.2.3,Win32,75.18796992,1,1,15,0.134259259,0.000925926,1,0,0,7.2553,rock_grid_rect_2,7,05,-1,-1,7.255,0.083333333,-0.384259259,1,0,0,6.8746,Peridotite_rect,7,6.875,1,14,0,14,0,1,,,,,,,,,,,,,
6647687c4e426658c608e92e,TCN,2024-06-24_14h43.47.245,LearnStrategy,2023.2.3,Win32,75.18796992,1,1,16,0.088888889,-0.014814815,1,0,0,0.8443,rock_grid_rect_2,7,16,-1,-1,0.844,0.381481481,-0.239814815,1,0,0,9.9823,Gabbro_rect,4,9.982,0,15,0,15,0,1,,,,,,,,,,,,,
6647687c4e426658c608e92e,TCN,2024-06-24_14h43.47.245,LearnStrategy,2023.2.3,Win32,75.18796992,1,2,1,,,,,,,,7,08,,,,,,,,,,,7,15.44,1,,,,,,0.15,-0.396296296,1,0,0,15.4404,Peridotite_rect,0,0,0,0,1,
6647687c4e426658c608e92e,TCN,2024-06-24_14h43.47.245,LearnStrategy,2023.2.3,Win32,75.18796992,1,2,2,,,,,,,,2,06,,,,,,,,,,,2,5.54,1,,,,,,-0.142592593,-0.242592593,1,0,0,5.5402,Basalt_rect,1,0,1,0,1,
6647687c4e426658c608e92e,TCN,2024-06-24_14h43.47.245,LearnStrategy,2023.2.3,Win32,75.18796992,1,2,3,,,,,,,,8,02,,,,,,,,,,,8,1.987,1,,,,,,0.387962963,-0.381481481,1,0,0,1.9866,Pumice_rect,2,0,2,0,1,
6647687c4e426658c608e92e,TCN,2024-06-24_14h43.47.245,LearnStrategy,2023.2.3,Win32,75.18796992,1,2,4,,,,,,,,1,11,,,,,,,,,,,7,7.7,0,,,,,,0.175925926,-0.400925926,1,0,0,7.6999,Peridotite_rect,3,0,3,0,1,
6647687c4e426658c608e92e,TCN,2024-06-24_14h43.47.245,LearnStrategy,2023.2.3,Win32,75.18796992,1,2,5,,,,,,,,4,01,,,,,,,,,,,7,6.009,0,,,,,,0.187037037,-0.401851852,1,0,0,6.009,Peridotite_rect,4,0,4,0,1,
6647687c4e426658c608e92e,TCN,2024-06-24_14h43.47.245,LearnStrategy,2023.2.3,Win32,75.18796992,1,2,6,,,,,,,,5,12,,,,,,,,,,,5,1.168,1,,,,,,-0.316666667,-0.405555556,1,0,0,1.1685,Obsidian_rect,5,0,5,0,1,
6647687c4e426658c608e92e,TCN,2024-06-24_14h43.47.245,LearnStrategy,2023.2.3,Win32,75.18796992,1,2,7,,,,,,,,6,08,,,,,,,,,,,3,18.093,0,,,,,,0.156481481,-0.256481481,1,0,0,18.0934,Diorite_rect,6,0,6,0,1,
6647687c4e426658c608e92e,TCN,2024-06-24_14h43.47.245,LearnStrategy,2023.2.3,Win32,75.18796992,1,2,8,,,,,,,,5,05,,,,,,,,,,,5,1.368,1,,,,,,-0.443518519,-0.388888889,1,0,0,1.3676,Obsidian_rect,7,0,7,0,1,
6647687c4e426658c608e92e,TCN,2024-06-24_14h43.47.245,LearnStrategy,2023.2.3,Win32,75.18796992,1,2,9,,,,,,,,2,01,,,,,,,,,,,1,4.675,0,,,,,,-0.356481481,-0.256481481,1,0,0,4.6745,Andesite_rect,8,0,8,0,1,
6647687c4e426658c608e92e,TCN,2024-06-24_14h43.47.245,LearnStrategy,2023.2.3,Win32,75.18796992,1,2,10,,,,,,,,4,10,,,,,,,,,,,4,7.523,1,,,,,,0.365740741,-0.249074074,1,0,0,7.5228,Gabbro_rect,9,0,9,0,1,
6647687c4e426658c608e92e,TCN,2024-06-24_14h43.47.245,LearnStrategy,2023.2.3,Win32,75.18796992,1,2,11,,,,,,,,3,11,,,,,,,,,,,3,3.939,1,,,,,,0.210185185,-0.264814815,1,0,0,3.9388,Diorite_rect,10,0,10,0,1,
6647687c4e426658c608e92e,TCN,2024-06-24_14h43.47.245,LearnStrategy,2023.2.3,Win32,75.18796992,1,2,12,,,,,,,,1,14,,,,,,,,,,,6,9.157,0,,,,,,-0.125,-0.406481481,1,0,0,9.1569,Pegmatite_rect,11,0,11,0,1,
6647687c4e426658c608e92e,TCN,2024-06-24_14h43.47.245,LearnStrategy,2023.2.3,Win32,75.18796992,1,2,13,,,,,,,,3,13,,,,,,,,,,,3,6.097,1,,,,,,0.164814815,-0.260185185,1,0,0,6.0974,Diorite_rect,12,0,12,0,1,
6647687c4e426658c608e92e,TCN,2024-06-24_14h43.47.245,LearnStrategy,2023.2.3,Win32,75.18796992,1,2,14,,,,,,,,7,06,,,,,,,,,,,7,7.893,1,,,,,,0.069444444,-0.406481481,1,0,0,7.893,Peridotite_rect,13,0,13,0,1,
6647687c4e426658c608e92e,TCN,2024-06-24_14h43.47.245,LearnStrategy,2023.2.3,Win32,75.18796992,1,2,15,,,,,,,,8,16,,,,,,,,,,,8,2.107,1,,,,,,0.410185185,-0.4,1,0,0,2.1073,Pumice_rect,14,0,14,0,1,
6647687c4e426658c608e92e,TCN,2024-06-24_14h43.47.245,LearnStrategy,2023.2.3,Win32,75.18796992,1,2,16,,,,,,,,6,15,,,,,,,,,,,7,19.227,0,,,,,,0.139814815,-0.412037037,1,0,0,19.2272,Peridotite_rect,15,0,15,0,1,
6647687c4e426658c608e92e,TCN,2024-06-24_14h43.47.245,LearnStrategy,2023.2.3,Win32,75.18796992,2,1,1,-0.012037037,-0.002777778,1,0,0,1.5028,rock_grid_rect_2,5,11,-1,-1,1.503,-0.410185185,-0.387962963,1,0,0,4.4918,Obsidian_rect,5,4.492,1,0,0,0,0,1,,,,,,,,,,,,,
6647687c4e426658c608e92e,TCN,2024-06-24_14h43.47.245,LearnStrategy,2023.2.3,Win32,75.18796992,2,1,2,0.140740741,-0.009259259,1,0,0,1.2366,rock_grid_rect_2,4,05,-1,-1,1.237,0.4,-0.25,1,0,0,5.7606,Gabbro_rect,4,5.761,1,1,0,1,0,1,,,,,,,,,,,,,
6647687c4e426658c608e92e,TCN,2024-06-24_14h43.47.245,LearnStrategy,2023.2.3,Win32,75.18796992,2,1,3,0.043518519,-0.019444444,1,0,0,1.0097,rock_grid_rect_2,8,10,-1,-1,1.01,0.325,-0.398148148,1,0,0,1.5227,Pumice_rect,8,1.523,1,2,0,2,0,1,,,,,,,,,,,,,
6647687c4e426658c608e92e,TCN,2024-06-24_14h43.47.245,LearnStrategy,2023.2.3,Win32,75.18796992,2,1,4,0.074074074,-0.022222222,1,0,0,0.9486,rock_grid_rect_2,5,02,-1,-1,0.949,-0.417592593,-0.4,1,0,0,1.1075,Obsidian_rect,5,1.108,1,3,0,3,0,1,,,,,,,,,,,,,
6647687c4e426658c608e92e,TCN,2024-06-24_14h43.47.245,LearnStrategy,2023.2.3,Win32,75.18796992,2,1,5,0.075925926,0.003703704,1,0,0,0.8568,rock_grid_rect_2,4,16,-1,-1,0.857,-0.061111111,-0.255555556,1,0,0,10.3196,Basalt_rect,2,10.32,0,4,0,4,0,1,,,,,,,,,,,,,
6647687c4e426658c608e92e,TCN,2024-06-24_14h43.47.245,LearnStrategy,2023.2.3,Win32,75.18796992,2,1,6,0.093518519,-0.008333333,1,0,0,1.0039,rock_grid_rect_2,3,07,-1,-1,1.004,0.315740741,-0.256481481,1,0,0,5.5413,Gabbro_rect,4,5.541,0,5,0,5,0,1,,,,,,,,,,,,,
6647687c4e426658c608e92e,TCN,2024-06-24_14h43.47.245,LearnStrategy,2023.2.3,Win32,75.18796992,2,1,7,0.111111111,-0.002777778,1,0,0,0.9183,rock_grid_rect_2,3,02,-1,-1,0.918,0.148148148,-0.260185185,1,0,0,5.665,Diorite_rect,3,5.665,1,6,0,6,0,1,,,,,,,,,,,,,
6647687c4e426658c608e92e,TCN,2024-06-24_14h43.47.245,LearnStrategy,2023.2.3,Win32,75.18796992,2,1,8,0.057407407,0.014814815,1,0,0,0.9445,rock_grid_rect_2,2,04,-1,-1,0.945,-0.15,-0.269444444,1,0,0,7.1178,Basalt_rect,2,7.118,1,7,0,7,0,1,,,,,,,,,,,,,
6647687c4e426658c608e92e,TCN,2024-06-24_14h43.47.245,LearnStrategy,2023.2.3,Win32,75.18796992,2,1,9,0.02962963,0.014814815,1,0,0,0.8893,rock_grid_rect_2,1,06,-1,-1,0.889,-0.364814815,-0.234259259,1,0,0,8.6302,Andesite_rect,1,8.63,1,8,0,8,0,1,,,,,,,,,,,,,
6647687c4e426658c608e92e,TCN,2024-06-24_14h43.47.245,LearnStrategy,2023.2.3,Win32,75.18796992,2,1,10,0.090740741,-0.009259259,1,0,0,0.9662,rock_grid_rect_2,6,10,-1,-1,0.966,0.093518519,-0.389814815,1,0,0,7.5533,Peridotite_rect,7,7.553,0,9,0,9,0,1,,,,,,,,,,,,,
6647687c4e426658c608e92e,TCN,2024-06-24_14h43.47.245,LearnStrategy,2023.2.3,Win32,75.18796992,2,1,11,0.073148148,0.008333333,1,0,0,1.063,rock_grid_rect_2,6,12,-1,-1,1.063,-0.1,-0.4,1,0,0,2.0227,Pegmatite_rect,6,2.023,1,10,0,10,0,1,,,,,,,,,,,,,
6647687c4e426658c608e92e,TCN,2024-06-24_14h43.47.245,LearnStrategy,2023.2.3,Win32,75.18796992,2,1,12,0.05462963,-0.006481481,1,0,0,0.8625,rock_grid_rect_2,8,08,-1,-1,0.862,0.352777778,-0.39537037,1,0,0,1.8379,Pumice_rect,8,1.838,1,11,0,11,0,1,,,,,,,,,,,,,
6647687c4e426658c608e92e,TCN,2024-06-24_14h43.47.245,LearnStrategy,2023.2.3,Win32,75.18796992,2,1,13,0.068518519,0.009259259,1,0,0,0.9995,rock_grid_rect_2,2,12,-1,-1,1,0.366666667,-0.394444444,1,0,0,1.2099,Pumice_rect,8,1.21,0,12,0,12,0,1,,,,,,,,,,,,,
6647687c4e426658c608e92e,TCN,2024-06-24_14h43.47.245,LearnStrategy,2023.2.3,Win32,75.18796992,2,1,14,0.021296296,0.007407407,1,0,0,0.7589,rock_grid_rect_2,7,07,-1,-1,0.759,0.12037037,-0.408333333,1,0,0,4.7157,Peridotite_rect,7,4.716,1,13,0,13,0,1,,,,,,,,,,,,,
6647687c4e426658c608e92e,TCN,2024-06-24_14h43.47.245,LearnStrategy,2023.2.3,Win32,75.18796992,2,1,15,0.056481481,0,1,0,0,1.1575,rock_grid_rect_2,1,04,-1,-1,1.158,0.148148148,-0.250925926,1,0,0,9.312,Diorite_rect,3,9.312,0,14,0,14,0,1,,,,,,,,,,,,,
6647687c4e426658c608e92e,TCN,2024-06-24_14h43.47.245,LearnStrategy,2023.2.3,Win32,75.18796992,2,1,16,-0.025,-0.011111111,1,0,0,1.1113,rock_grid_rect_2,7,12,-1,-1,1.111,0.147222222,-0.251851852,1,0,0,6.7976,Diorite_rect,3,6.798,0,15,0,15,0,1,,,,,,,,,,,,,
6647687c4e426658c608e92e,TCN,2024-06-24_14h43.47.245,LearnStrategy,2023.2.3,Win32,75.18796992,2,2,1,,,,,,,,1,03,,,,,,,,,,,2,9.861,0,,,,,,-0.194444444,-0.264814815,1,0,0,9.861,Basalt_rect,0,0,0,0,1,
6647687c4e426658c608e92e,TCN,2024-06-24_14h43.47.245,LearnStrategy,2023.2.3,Win32,75.18796992,2,2,2,,,,,,,,1,01,,,,,,,,,,,4,11.819,0,,,,,,0.364814815,-0.253703704,1,0,0,11.8192,Gabbro_rect,1,0,1,0,1,
6647687c4e426658c608e92e,TCN,2024-06-24_14h43.47.245,LearnStrategy,2023.2.3,Win32,75.18796992,2,2,3,,,,,,,,8,04,,,,,,,,,,,8,1.399,1,,,,,,0.406481481,-0.398148148,1,0,0,1.3995,Pumice_rect,2,0,2,0,1,
6647687c4e426658c608e92e,TCN,2024-06-24_14h43.47.245,LearnStrategy,2023.2.3,Win32,75.18796992,2,2,4,,,,,,,,3,15,,,,,,,,,,,1,14.987,0,,,,,,-0.386111111,-0.266666667,1,0,0,14.9871,Andesite_rect,3,0,3,0,1,
6647687c4e426658c608e92e,TCN,2024-06-24_14h43.47.245,LearnStrategy,2023.2.3,Win32,75.18796992,2,2,5,,,,,,,,4,14,,,,,,,,,,,2,5.557,0,,,,,,-0.139814815,-0.263888889,1,0,0,5.5572,Basalt_rect,4,0,4,0,1,
6647687c4e426658c608e92e,TCN,2024-06-24_14h43.47.245,LearnStrategy,2023.2.3,Win32,75.18796992,2,2,6,,,,,,,,6,06,,,,,,,,,,,6,8.652,1,,,,,,-0.15,-0.401851852,1,0,0,8.6521,Pegmatite_rect,5,0,5,0,1,
6647687c4e426658c608e92e,TCN,2024-06-24_14h43.47.245,LearnStrategy,2023.2.3,Win32,75.18796992,2,2,7,,,,,,,,2,08,,,,,,,,,,,2,4.13,1,,,,,,-0.183333333,-0.253703704,1,0,0,4.1304,Basalt_rect,6,0,6,0,1,
6647687c4e426658c608e92e,TCN,2024-06-24_14h43.47.245,LearnStrategy,2023.2.3,Win32,75.18796992,2,2,8,,,,,,,,3,10,,,,,,,,,,,3,7.987,1,,,,,,0.166666667,-0.255555556,1,0,0,7.9875,Diorite_rect,7,0,7,0,1,
6647687c4e426658c608e92e,TCN,2024-06-24_14h43.47.245,LearnStrategy,2023.2.3,Win32,75.18796992,2,2,9,,,,,,,,6,03,,,,,,,,,,,6,1.535,1,,,,,,-0.105555556,-0.392592593,1,0,0,1.5352,Pegmatite_rect,8,0,8,0,1,
6647687c4e426658c608e92e,TCN,2024-06-24_14h43.47.245,LearnStrategy,2023.2.3,Win32,75.18796992,2,2,10,,,,,,,,5,06,,,,,,,,,,,5,1.157,1,,,,,,-0.365740741,-0.412962963,1,0,0,1.1565,Obsidian_rect,9,0,9,0,1,
6647687c4e426658c608e92e,TCN,2024-06-24_14h43.47.245,LearnStrategy,2023.2.3,Win32,75.18796992,2,2,11,,,,,,,,2,11,,,,,,,,,,,1,15.712,0,,,,,,-0.443518519,-0.246296296,1,0,0,15.7117,Andesite_rect,10,0,10,0,1,
6647687c4e426658c608e92e,TCN,2024-06-24_14h43.47.245,LearnStrategy,2023.2.3,Win32,75.18796992,2,2,12,,,,,,,,7,04,,,,,,,,,,,7,6.068,1,,,,,,0.061111111,-0.392592593,1,0,0,6.0685,Peridotite_rect,11,0,11,0,1,
6647687c4e426658c608e92e,TCN,2024-06-24_14h43.47.245,LearnStrategy,2023.2.3,Win32,75.18796992,2,2,13,,,,,,,,5,08,,,,,,,,,,,5,1.039,1,,,,,,-0.344444444,-0.418518519,1,0,0,1.039,Obsidian_rect,12,0,12,0,1,
6647687c4e426658c608e92e,TCN,2024-06-24_14h43.47.245,LearnStrategy,2023.2.3,Win32,75.18796992,2,2,14,,,,,,,,8,06,,,,,,,,,,,8,2.023,1,,,,,,0.355555556,-0.384259259,1,0,0,2.0232,Pumice_rect,13,0,13,0,1,
6647687c4e426658c608e92e,TCN,2024-06-24_14h43.47.245,LearnStrategy,2023.2.3,Win32,75.18796992,2,2,15,,,,,,,,7,10,,,,,,,,,,,3,15.661,0,,,,,,0.05462963,-0.243518519,1,0,0,15.6611,Diorite_rect,14,0,14,0,1,
6647687c4e426658c608e92e,TCN,2024-06-24_14h43.47.245,LearnStrategy,2023.2.3,Win32,75.18796992,2,2,16,,,,,,,,4,13,,,,,,,,,,,4,2.141,1,,,,,,0.446296296,-0.25462963,1,0,0,2.1415,Gabbro_rect,15,0,15,0,1,
6647687c4e426658c608e92e,TCN,2024-06-24_14h43.47.245,LearnStrategy,2023.2.3,Win32,75.18796992,3,1,1,0.038888889,-0.012037037,1,0,0,1.5188,rock_grid_rect_2,1,02,-1,-1,1.519,-0.386111111,-0.249074074,1,0,0,9.4978,Andesite_rect,1,9.498,1,0,0,0,0,1,,,,,,,,,,,,,
6647687c4e426658c608e92e,TCN,2024-06-24_14h43.47.245,LearnStrategy,2023.2.3,Win32,75.18796992,3,1,2,0.110185185,0.014814815,1,0,0,0.8637,rock_grid_rect_2,3,06,-1,-1,0.864,0.380555556,-0.248148148,1,0,0,19.4447,Gabbro_rect,4,19.445,0,1,0,1,0,1,,,,,,,,,,,,,
6647687c4e426658c608e92e,TCN,2024-06-24_14h43.47.245,LearnStrategy,2023.2.3,Win32,75.18796992,3,1,3,0.09537037,-0.000925926,1,0,0,4.9369,rock_grid_rect_2,2,10,-1,-1,4.937,-0.150925926,-0.25,1,0,0,2.2805,Basalt_rect,2,2.28,1,2,0,2,0,1,,,,,,,,,,,,,
6647687c4e426658c608e92e,TCN,2024-06-24_14h43.47.245,LearnStrategy,2023.2.3,Win32,75.18796992,3,1,4,-0.005555556,-0.008333333,1,0,0,0.8733,rock_grid_rect_2,2,09,-1,-1,0.873,-0.101851852,-0.250925926,1,0,0,3.1874,Basalt_rect,2,3.187,1,3,0,3,0,1,,,,,,,,,,,,,
6647687c4e426658c608e92e,TCN,2024-06-24_14h43.47.245,LearnStrategy,2023.2.3,Win32,75.18796992,3,1,5,-0.012037037,0.001851852,1,0,0,0.8084,rock_grid_rect_2,8,09,-1,-1,0.808,0.34537037,-0.402777778,1,0,0,1.2766,Pumice_rect,8,1.277,1,4,0,4,0,1,,,,,,,,,,,,,
6647687c4e426658c608e92e,TCN,2024-06-24_14h43.47.245,LearnStrategy,2023.2.3,Win32,75.18796992,3,1,6,0.127777778,-0.012037037,1,0,0,1.2379,rock_grid_rect_2,3,09,-1,-1,1.238,0.176851852,-0.263888889,1,0,0,13.1425,Diorite_rect,3,13.142,1,5,0,5,0,1,,,,,,,,,,,,,
6647687c4e426658c608e92e,TCN,2024-06-24_14h43.47.245,LearnStrategy,2023.2.3,Win32,75.18796992,3,1,7,0.151851852,0.007407407,1,0,0,1.0442,rock_grid_rect_2,7,15,-1,-1,1.044,0.128703704,-0.39537037,1,0,0,7.5246,Peridotite_rect,7,7.525,1,6,0,6,0,1,,,,,,,,,,,,,
6647687c4e426658c608e92e,TCN,2024-06-24_14h43.47.245,LearnStrategy,2023.2.3,Win32,75.18796992,3,1,8,0.161111111,-0.013888889,1,0,0,0.9999,rock_grid_rect_2,7,02,-1,-1,1,0.164814815,-0.384259259,1,0,0,1.3075,Peridotite_rect,7,1.308,1,7,0,7,0,1,,,,,,,,,,,,,
6647687c4e426658c608e92e,TCN,2024-06-24_14h43.47.245,LearnStrategy,2023.2.3,Win32,75.18796992,3,1,9,0.003703704,-0.009259259,1,0,0,1.3619,rock_grid_rect_2,6,16,-1,-1,1.362,-0.106481481,-0.4,1,0,0,1.9608,Pegmatite_rect,6,1.961,1,8,0,8,0,1,,,,,,,,,,,,,
6647687c4e426658c608e92e,TCN,2024-06-24_14h43.47.245,LearnStrategy,2023.2.3,Win32,75.18796992,3,1,10,0.026851852,0.005555556,1,0,0,0.9376,rock_grid_rect_2,6,07,-1,-1,0.938,-0.061111111,-0.4,1,0,0,1.1066,Pegmatite_rect,6,1.107,1,9,0,9,0,1,,,,,,,,,,,,,
6647687c4e426658c608e92e,TCN,2024-06-24_14h43.47.245,LearnStrategy,2023.2.3,Win32,75.18796992,3,1,11,-0.044444444,-0.010185185,1,0,0,0.7782,rock_grid_rect_2,4,08,-1,-1,0.778,0.399074074,-0.247222222,1,0,0,9.9888,Gabbro_rect,4,9.989,1,10,0,10,0,1,,,,,,,,,,,,,
6647687c4e426658c608e92e,TCN,2024-06-24_14h43.47.245,LearnStrategy,2023.2.3,Win32,75.18796992,3,1,12,0.038888889,0.009259259,1,0,0,0.7363,rock_grid_rect_2,1,05,-1,-1,0.736,0.462962963,-0.241666667,1,0,0,1.3175,Gabbro_rect,4,1.317,0,11,0,11,0,1,,,,,,,,,,,,,
6647687c4e426658c608e92e,TCN,2024-06-24_14h43.47.245,LearnStrategy,2023.2.3,Win32,75.18796992,3,1,13,0.037962963,-0.019444444,1,0,0,0.8052,rock_grid_rect_2,5,10,-1,-1,0.805,-0.34537037,-0.397222222,1,0,0,1.0638,Obsidian_rect,5,1.064,1,12,0,12,0,1,,,,,,,,,,,,,
6647687c4e426658c608e92e,TCN,2024-06-24_14h43.47.245,LearnStrategy,2023.2.3,Win32,75.18796992,3,1,14,0.026851852,-0.003703704,1,0,0,0.8186,rock_grid_rect_2,4,03,-1,-1,0.819,0.406481481,-0.237037037,1,0,0,4.7241,Gabbro_rect,4,4.724,1,13,0,13,0,1,,,,,,,,,,,,,
6647687c4e426658c608e92e,TCN,2024-06-24_14h43.47.245,LearnStrategy,2023.2.3,Win32,75.18796992,3,1,15,0.002777778,-0.023148148,1,0,0,0.7044,rock_grid_rect_2,8,13,-1,-1,0.704,0.37037037,-0.393518519,1,0,0,2.8222,Pumice_rect,8,2.822,1,14,0,14,0,1,,,,,,,,,,,,,
6647687c4e426658c608e92e,TCN,2024-06-24_14h43.47.245,LearnStrategy,2023.2.3,Win32,75.18796992,3,1,16,-0.04537037,0.003703704,1,0,0,0.7692,rock_grid_rect_2,5,14,-1,-1,0.769,-0.32962963,-0.394444444,1,0,0,1.1299,Obsidian_rect,5,1.13,1,15,0,15,0,1,,,,,,,,,,,,,
6647687c4e426658c608e92e,TCN,2024-06-24_14h43.47.245,LearnStrategy,2023.2.3,Win32,75.18796992,3,2,1,,,,,,,,8,14,,,,,,,,,,,8,1.33,1,,,,,,0.397222222,-0.380555556,1,0,0,1.33,Pumice_rect,0,0,0,0,1,
6647687c4e426658c608e92e,TCN,2024-06-24_14h43.47.245,LearnStrategy,2023.2.3,Win32,75.18796992,3,2,2,,,,,,,,2,16,,,,,,,,,,,4,4.782,0,,,,,,0.324074074,-0.237037037,1,0,0,4.7816,Gabbro_rect,1,0,1,0,1,
6647687c4e426658c608e92e,TCN,2024-06-24_14h43.47.245,LearnStrategy,2023.2.3,Win32,75.18796992,3,2,3,,,,,,,,3,16,,,,,,,,,,,3,9.632,1,,,,,,0.124074074,-0.252777778,1,0,0,9.6317,Diorite_rect,2,0,2,0,1,
6647687c4e426658c608e92e,TCN,2024-06-24_14h43.47.245,LearnStrategy,2023.2.3,Win32,75.18796992,3,2,4,,,,,,,,5,16,,,,,,,,,,,5,1.046,1,,,,,,-0.32037037,-0.40462963,1,0,0,1.0464,Obsidian_rect,3,0,3,0,1,
6647687c4e426658c608e92e,TCN,2024-06-24_14h43.47.245,LearnStrategy,2023.2.3,Win32,75.18796992,3,2,5,,,,,,,,1,10,,,,,,,,,,,1,7.002,1,,,,,,-0.380555556,-0.250925926,1,0,0,7.0021,Andesite_rect,4,0,4,0,1,
6647687c4e426658c608e92e,TCN,2024-06-24_14h43.47.245,LearnStrategy,2023.2.3,Win32,75.18796992,3,2,6,,,,,,,,1,07,,,,,,,,,,,1,1.934,1,,,,,,-0.417592593,-0.242592593,1,0,0,1.9337,Andesite_rect,5,0,5,0,1,
6647687c4e426658c608e92e,TCN,2024-06-24_14h43.47.245,LearnStrategy,2023.2.3,Win32,75.18796992,3,2,7,,,,,,,,8,05,,,,,,,,,,,8,1.053,1,,,,,,0.380555556,-0.416666667,1,0,0,1.0532,Pumice_rect,6,0,6,0,1,
6647687c4e426658c608e92e,TCN,2024-06-24_14h43.47.245,LearnStrategy,2023.2.3,Win32,75.18796992,3,2,8,,,,,,,,6,09,,,,,,,,,,,6,1.734,1,,,,,,-0.12037037,-0.393518519,1,0,0,1.7339,Pegmatite_rect,7,0,7,0,1,
6647687c4e426658c608e92e,TCN,2024-06-24_14h43.47.245,LearnStrategy,2023.2.3,Win32,75.18796992,3,2,9,,,,,,,,7,14,,,,,,,,,,,7,6.72,1,,,,,,0.097222222,-0.403703704,1,0,0,6.7197,Peridotite_rect,8,0,8,0,1,
6647687c4e426658c608e92e,TCN,2024-06-24_14h43.47.245,LearnStrategy,2023.2.3,Win32,75.18796992,3,2,10,,,,,,,,6,11,,,,,,,,,,,6,0.919,1,,,,,,-0.109259259,-0.4,1,0,0,0.9192,Pegmatite_rect,9,0,9,0,1,
6647687c4e426658c608e92e,TCN,2024-06-24_14h43.47.245,LearnStrategy,2023.2.3,Win32,75.18796992,3,2,11,,,,,,,,7,13,,,,,,,,,,,7,1.213,1,,,,,,0.191666667,-0.385185185,1,0,0,1.2129,Peridotite_rect,10,0,10,0,1,
6647687c4e426658c608e92e,TCN,2024-06-24_14h43.47.245,LearnStrategy,2023.2.3,Win32,75.18796992,3,2,12,,,,,,,,5,09,,,,,,,,,,,5,0.959,1,,,,,,-0.408333333,-0.406481481,1,0,0,0.9593,Obsidian_rect,11,0,11,0,1,
6647687c4e426658c608e92e,TCN,2024-06-24_14h43.47.245,LearnStrategy,2023.2.3,Win32,75.18796992,3,2,13,,,,,,,,2,02,,,,,,,,,,,4,14.469,0,,,,,,0.412962963,-0.264814815,1,0,0,14.4686,Gabbro_rect,12,0,12,0,1,
6647687c4e426658c608e92e,TCN,2024-06-24_14h43.47.245,LearnStrategy,2023.2.3,Win32,75.18796992,3,2,14,,,,,,,,3,12,,,,,,,,,,,3,4.999,1,,,,,,0.156481481,-0.260185185,1,0,0,4.9985,Diorite_rect,13,0,13,0,1,
6647687c4e426658c608e92e,TCN,2024-06-24_14h43.47.245,LearnStrategy,2023.2.3,Win32,75.18796992,3,2,15,,,,,,,,4,12,,,,,,,,,,,4,1.32,1,,,,,,0.391666667,-0.24537037,1,0,0,1.32,Gabbro_rect,14,0,14,0,1,
6647687c4e426658c608e92e,TCN,2024-06-24_14h43.47.245,LearnStrategy,2023.2.3,Win32,75.18796992,3,2,16,,,,,,,,4,09,,,,,,,,,,,2,2.868,0,,,,,,-0.126851852,-0.261111111,1,0,0,2.8681,Basalt_rect,15,0,15,0,1,
6647687c4e426658c608e92e,TCN,2024-06-24_14h43.47.245,LearnStrategy,2023.2.3,Win32,75.18796992,4,1,1,0.010185185,-0.011111111,1,0,0,1.7589,rock_grid_rect_2,1,04,-1,-1,1.759,-0.389814815,-0.25,1,0,0,2.3447,Andesite_rect,1,2.345,1,0,0,0,0,1,,,,,,,,,,,,,
6647687c4e426658c608e92e,TCN,2024-06-24_14h43.47.245,LearnStrategy,2023.2.3,Win32,75.18796992,4,1,2,0.008333333,0.008333333,1,0,0,0.9987,rock_grid_rect_2,3,14,-1,-1,0.999,0.12962963,-0.252777778,1,0,0,1.8455,Diorite_rect,3,1.845,1,1,0,1,0,1,,,,,,,,,,,,,
6647687c4e426658c608e92e,TCN,2024-06-24_14h43.47.245,LearnStrategy,2023.2.3,Win32,75.18796992,4,1,3,0.082407407,-0.010185185,1,0,0,0.9982,rock_grid_rect_2,2,09,-1,-1,0.998,-0.100925926,-0.258333333,1,0,0,2.4778,Basalt_rect,2,2.478,1,2,0,2,0,1,,,,,,,,,,,,,
6647687c4e426658c608e92e,TCN,2024-06-24_14h43.47.245,LearnStrategy,2023.2.3,Win32,75.18796992,4,1,4,0.084259259,-0.008333333,1,0,0,0.8903,rock_grid_rect_2,4,11,-1,-1,0.89,0.389814815,-0.256481481,1,0,0,1.6109,Gabbro_rect,4,1.611,1,3,0,3,0,1,,,,,,,,,,,,,
6647687c4e426658c608e92e,TCN,2024-06-24_14h43.47.245,LearnStrategy,2023.2.3,Win32,75.18796992,4,1,5,0.034259259,-0.007407407,1,0,0,0.797,rock_grid_rect_2,7,02,-1,-1,0.797,0.142592593,-0.393518519,1,0,0,7.2262,Peridotite_rect,7,7.226,1,4,0,4,0,1,,,,,,,,,,,,,
6647687c4e426658c608e92e,TCN,2024-06-24_14h43.47.245,LearnStrategy,2023.2.3,Win32,75.18796992,4,1,6,0.160185185,0.002777778,1,0,0,0.8442,rock_grid_rect_2,8,13,-1,-1,0.844,0.37962963,-0.411111111,1,0,0,1.1308,Pumice_rect,8,1.131,1,5,0,5,0,1,,,,,,,,,,,,,
6647687c4e426658c608e92e,TCN,2024-06-24_14h43.47.245,LearnStrategy,2023.2.3,Win32,75.18796992,4,1,7,0.016666667,-0.007407407,1,0,0,1.2182,rock_grid_rect_2,5,07,-1,-1,1.218,-0.359259259,-0.392592593,1,0,0,1.0779,Obsidian_rect,5,1.078,1,6,0,6,0,1,,,,,,,,,,,,,
6647687c4e426658c608e92e,TCN,2024-06-24_14h43.47.245,LearnStrategy,2023.2.3,Win32,75.18796992,4,1,8,-0.018518519,0.009259259,1,0,0,0.8271,rock_grid_rect_2,1,05,-1,-1,0.827,-0.432407407,-0.244444444,1,0,0,2.3402,Andesite_rect,1,2.34,1,7,0,7,0,1,,,,,,,,,,,,,
6647687c4e426658c608e92e,TCN,2024-06-24_14h43.47.245,LearnStrategy,2023.2.3,Win32,75.18796992,4,1,9,0.008333333,0.018518519,1,0,0,0.7186,rock_grid_rect_2,6,05,-1,-1,0.719,-0.105555556,-0.414814815,1,0,0,2.8473,Pegmatite_rect,6,2.847,1,8,0,8,0,1,,,,,,,,,,,,,
6647687c4e426658c608e92e,TCN,2024-06-24_14h43.47.245,LearnStrategy,2023.2.3,Win32,75.18796992,4,1,10,-0.035185185,0.000925926,1,0,0,0.797,rock_grid_rect_2,3,02,-1,-1,0.797,0.099074074,-0.257407407,1,0,0,6.2381,Diorite_rect,3,6.238,1,9,0,9,0,1,,,,,,,,,,,,,
6647687c4e426658c608e92e,TCN,2024-06-24_14h43.47.245,LearnStrategy,2023.2.3,Win32,75.18796992,4,1,11,-0.002777778,-0.017592593,1,0,0,0.7428,rock_grid_rect_2,7,05,-1,-1,0.743,0.392592593,-0.249074074,1,0,0,10.2194,Gabbro_rect,4,10.219,0,10,0,10,0,1,,,,,,,,,,,,,
6647687c4e426658c608e92e,TCN,2024-06-24_14h43.47.245,LearnStrategy,2023.2.3,Win32,75.18796992,4,1,12,-0.003703704,-0.002777778,1,0,0,1.1102,rock_grid_rect_2,4,08,-1,-1,1.11,0.385185185,-0.242592593,1,0,0,1.2358,Gabbro_rect,4,1.236,1,11,0,11,0,1,,,,,,,,,,,,,
6647687c4e426658c608e92e,TCN,2024-06-24_14h43.47.245,LearnStrategy,2023.2.3,Win32,75.18796992,4,1,13,0.043518519,-0.001851852,1,0,0,0.6564,rock_grid_rect_2,2,14,-1,-1,0.656,-0.412037037,-0.262037037,1,0,0,9.8077,Andesite_rect,1,9.808,0,12,0,12,0,1,,,,,,,,,,,,,
6647687c4e426658c608e92e,TCN,2024-06-24_14h43.47.245,LearnStrategy,2023.2.3,Win32,75.18796992,4,1,14,0.112037037,0,1,0,0,0.8627,rock_grid_rect_2,8,15,-1,-1,0.863,0.37037037,-0.410185185,1,0,0,1.0097,Pumice_rect,8,1.01,1,13,0,13,0,1,,,,,,,,,,,,,
6647687c4e426658c608e92e,TCN,2024-06-24_14h43.47.245,LearnStrategy,2023.2.3,Win32,75.18796992,4,1,15,0.017592593,-0.024074074,1,0,0,0.7304,rock_grid_rect_2,5,14,-1,-1,0.73,-0.400925926,-0.40462963,1,0,0,0.8363,Obsidian_rect,5,0.836,1,14,0,14,0,1,,,,,,,,,,,,,
6647687c4e426658c608e92e,TCN,2024-06-24_14h43.47.245,LearnStrategy,2023.2.3,Win32,75.18796992,4,1,16,0.062037037,-0.009259259,1,0,0,0.8386,rock_grid_rect_2,6,07,-1,-1,0.839,-0.112037037,-0.389814815,1,0,0,1.3172,Pegmatite_rect,6,1.317,1,15,0,15,0,1,,,,,,,,,,,,,
6647687c4e426658c608e92e,TCN,2024-06-24_14h43.47.245,LearnStrategy,2023.2.3,Win32,75.18796992,4,2,1,,,,,,,,8,14,,,,,,,,,,,8,1.393,1,,,,,,0.364814815,-0.408333333,1,0,0,1.3932,Pumice_rect,0,0,0,0,1,
6647687c4e426658c608e92e,TCN,2024-06-24_14h43.47.245,LearnStrategy,2023.2.3,Win32,75.18796992,4,2,2,,,,,,,,5,08,,,,,,,,,,,5,0.926,1,,,,,,-0.347222222,-0.418518519,1,0,0,0.9264,Obsidian_rect,1,0,1,0,1,
6647687c4e426658c608e92e,TCN,2024-06-24_14h43.47.245,LearnStrategy,2023.2.3,Win32,75.18796992,4,2,3,,,,,,,,3,11,,,,,,,,,,,3,2.33,1,,,,,,0.100925926,-0.262962963,1,0,0,2.3296,Diorite_rect,2,0,2,0,1,
6647687c4e426658c608e92e,TCN,2024-06-24_14h43.47.245,LearnStrategy,2023.2.3,Win32,75.18796992,4,2,4,,,,,,,,1,01,,,,,,,,,,,4,4.27,0,,,,,,0.476851852,-0.262962963,1,0,0,4.2705,Gabbro_rect,3,0,3,0,1,
6647687c4e426658c608e92e,TCN,2024-06-24_14h43.47.245,LearnStrategy,2023.2.3,Win32,75.18796992,4,2,5,,,,,,,,8,05,,,,,,,,,,,8,1.981,1,,,,,,0.412962963,-0.412037037,1,0,0,1.9809,Pumice_rect,4,0,4,0,1,
6647687c4e426658c608e92e,TCN,2024-06-24_14h43.47.245,LearnStrategy,2023.2.3,Win32,75.18796992,4,2,6,,,,,,,,3,13,,,,,,,,,,,3,11.135,1,,,,,,0.119444444,-0.252777778,1,0,0,11.1353,Diorite_rect,5,0,5,0,1,
6647687c4e426658c608e92e,TCN,2024-06-24_14h43.47.245,LearnStrategy,2023.2.3,Win32,75.18796992,4,2,7,,,,,,,,2,01,,,,,,,,,,,2,1.586,1,,,,,,-0.124074074,-0.256481481,1,0,0,1.586,Basalt_rect,6,0,6,0,1,
6647687c4e426658c608e92e,TCN,2024-06-24_14h43.47.245,LearnStrategy,2023.2.3,Win32,75.18796992,4,2,8,,,,,,,,1,11,,,,,,,,,,,4,3.567,0,,,,,,0.397222222,-0.243518519,1,0,0,3.5675,Gabbro_rect,7,0,7,0,1,
6647687c4e426658c608e92e,TCN,2024-06-24_14h43.47.245,LearnStrategy,2023.2.3,Win32,75.18796992,4,2,9,,,,,,,,5,16,,,,,,,,,,,5,1.024,1,,,,,,-0.360185185,-0.410185185,1,0,0,1.0244,Obsidian_rect,8,0,8,0,1,
6647687c4e426658c608e92e,TCN,2024-06-24_14h43.47.245,LearnStrategy,2023.2.3,Win32,75.18796992,4,2,10,,,,,,,,4,10,,,,,,,,,,,4,2.826,1,,,,,,0.463888889,-0.257407407,1,0,0,2.826,Gabbro_rect,9,0,9,0,1,
6647687c4e426658c608e92e,TCN,2024-06-24_14h43.47.245,LearnStrategy,2023.2.3,Win32,75.18796992,4,2,11,,,,,,,,6,08,,,,,,,,,,,6,1.173,1,,,,,,-0.072222222,-0.390740741,1,0,0,1.1726,Pegmatite_rect,10,0,10,0,1,
6647687c4e426658c608e92e,TCN,2024-06-24_14h43.47.245,LearnStrategy,2023.2.3,Win32,75.18796992,4,2,12,,,,,,,,7,06,,,,,,,,,,,7,2.881,1,,,,,,0.168518519,-0.407407407,1,0,0,2.881,Peridotite_rect,11,0,11,0,1,
6647687c4e426658c608e92e,TCN,2024-06-24_14h43.47.245,LearnStrategy,2023.2.3,Win32,75.18796992,4,2,13,,,,,,,,7,14,,,,,,,,,,,1,3.182,0,,,,,,-0.385185185,-0.255555556,1,0,0,3.1815,Andesite_rect,12,0,12,0,1,
6647687c4e426658c608e92e,TCN,2024-06-24_14h43.47.245,LearnStrategy,2023.2.3,Win32,75.18796992,4,2,14,,,,,,,,2,16,,,,,,,,,,,2,1.941,1,,,,,,-0.114814815,-0.271296296,1,0,0,1.9415,Basalt_rect,13,0,13,0,1,
6647687c4e426658c608e92e,TCN,2024-06-24_14h43.47.245,LearnStrategy,2023.2.3,Win32,75.18796992,4,2,15,,,,,,,,4,09,,,,,,,,,,,4,1.57,1,,,,,,0.346296296,-0.261111111,1,0,0,1.57,Gabbro_rect,14,0,14,0,1,
6647687c4e426658c608e92e,TCN,2024-06-24_14h43.47.245,LearnStrategy,2023.2.3,Win32,75.18796992,4,2,16,,,,,,,,6,09,,,,,,,,,,,6,1.237,1,,,,,,-0.05,-0.397222222,1,0,0,1.2369,Pegmatite_rect,15,0,15,0,1,
6647687c4e426658c608e92e,TCN,2024-06-24_14h43.47.245,LearnStrategy,2023.2.3,Win32,75.18796992,5,1,1,-0.055555556,-0.017592593,1,0,0,1.2776,rock_grid_rect_2,5,11,-1,-1,1.278,-0.374074074,-0.397222222,1,0,0,1.878,Obsidian_rect,5,1.878,1,0,0,0,0,1,,,,,,,,,,,,,
6647687c4e426658c608e92e,TCN,2024-06-24_14h43.47.245,LearnStrategy,2023.2.3,Win32,75.18796992,5,1,2,0.069444444,0.000925926,1,0,0,1.0788,rock_grid_rect_2,1,06,-1,-1,1.079,-0.392592593,-0.265740741,1,0,0,9.5457,Andesite_rect,1,9.546,1,1,0,1,0,1,,,,,,,,,,,,,
6647687c4e426658c608e92e,TCN,2024-06-24_14h43.47.245,LearnStrategy,2023.2.3,Win32,75.18796992,5,1,3,0.030555556,0.007407407,1,0,0,0.758,rock_grid_rect_2,7,16,-1,-1,0.758,0.180555556,-0.240740741,1,0,0,2.01,Diorite_rect,3,2.01,0,2,0,2,0,1,,,,,,,,,,,,,
6647687c4e426658c608e92e,TCN,2024-06-24_14h43.47.245,LearnStrategy,2023.2.3,Win32,75.18796992,5,1,4,0.038888889,-0.022222222,1,0,0,0.7456,rock_grid_rect_2,4,03,-1,-1,0.746,-0.412037037,-0.25462963,1,0,0,2.4765,Andesite_rect,1,2.476,0,3,0,3,0,1,,,,,,,,,,,,,
6647687c4e426658c608e92e,TCN,2024-06-24_14h43.47.245,LearnStrategy,2023.2.3,Win32,75.18796992,5,1,5,-0.025925926,-0.009259259,1,0,0,0.9293,rock_grid_rect_2,2,10,-1,-1,0.929,-0.12962963,-0.260185185,1,0,0,1.0504,Basalt_rect,2,1.05,1,4,0,4,0,1,,,,,,,,,,,,,
6647687c4e426658c608e92e,TCN,2024-06-24_14h43.47.245,LearnStrategy,2023.2.3,Win32,75.18796992,5,1,6,-0.005555556,-0.023148148,1,0,0,0.7581,rock_grid_rect_2,3,09,-1,-1,0.758,0.07962963,-0.256481481,1,0,0,3.6993,Diorite_rect,3,3.699,1,5,0,5,0,1,,,,,,,,,,,,,
6647687c4e426658c608e92e,TCN,2024-06-24_14h43.47.245,LearnStrategy,2023.2.3,Win32,75.18796992,5,1,7,0.075925926,-0.003703704,1,0,0,0.855,rock_grid_rect_2,4,16,-1,-1,0.855,-0.085185185,-0.257407407,1,0,0,1.7795,Basalt_rect,2,1.779,0,6,0,6,0,1,,,,,,,,,,,,,
6647687c4e426658c608e92e,TCN,2024-06-24_14h43.47.245,LearnStrategy,2023.2.3,Win32,75.18796992,5,1,8,0.096296296,-0.02037037,1,0,0,0.7451,rock_grid_rect_2,5,02,-1,-1,0.745,-0.423148148,-0.412962963,1,0,0,2.1829,Obsidian_rect,5,2.183,1,7,0,7,0,1,,,,,,,,,,,,,
6647687c4e426658c608e92e,TCN,2024-06-24_14h43.47.245,LearnStrategy,2023.2.3,Win32,75.18796992,5,1,9,0.075925926,-0.012962963,1,0,0,0.6519,rock_grid_rect_2,8,03,-1,-1,0.652,0.333333333,-0.382407407,1,0,0,1.3843,Pumice_rect,8,1.384,1,8,0,8,0,1,,,,,,,,,,,,,
6647687c4e426658c608e92e,TCN,2024-06-24_14h43.47.245,LearnStrategy,2023.2.3,Win32,75.18796992,5,1,10,-0.051851852,-0.021296296,1,0,0,0.8921,rock_grid_rect_2,2,05,-1,-1,0.892,-0.137962963,-0.251851852,1,0,0,1.6513,Basalt_rect,2,1.651,1,9,0,9,0,1,,,,,,,,,,,,,
6647687c4e426658c608e92e,TCN,2024-06-24_14h43.47.245,LearnStrategy,2023.2.3,Win32,75.18796992,5,1,11,0.002777778,-0.017592593,1,0,0,0.8657,rock_grid_rect_2,3,06,-1,-1,0.866,0.135185185,-0.261111111,1,0,0,4.4001,Diorite_rect,3,4.4,1,10,0,10,0,1,,,,,,,,,,,,,
6647687c4e426658c608e92e,TCN,2024-06-24_14h43.47.245,LearnStrategy,2023.2.3,Win32,75.18796992,5,1,12,0.134259259,0.000925926,1,0,0,1.089,rock_grid_rect_2,6,13,-1,-1,1.089,-0.081481481,-0.398148148,1,0,0,1.29,Pegmatite_rect,6,1.29,1,11,0,11,0,1,,,,,,,,,,,,,
6647687c4e426658c608e92e,TCN,2024-06-24_14h43.47.245,LearnStrategy,2023.2.3,Win32,75.18796992,5,1,13,0.102777778,-0.013888889,1,0,0,0.8095,rock_grid_rect_2,8,09,-1,-1,0.81,0.459259259,-0.397222222,1,0,0,0.9821,Pumice_rect,8,0.982,1,12,0,12,0,1,,,,,,,,,,,,,
6647687c4e426658c608e92e,TCN,2024-06-24_14h43.47.245,LearnStrategy,2023.2.3,Win32,75.18796992,5,1,14,-0.023148148,-0.011111111,1,0,0,0.6513,rock_grid_rect_2,6,12,-1,-1,0.651,-0.09537037,-0.399074074,1,0,0,1.2229,Pegmatite_rect,6,1.223,1,13,0,13,0,1,,,,,,,,,,,,,
6647687c4e426658c608e92e,TCN,2024-06-24_14h43.47.245,LearnStrategy,2023.2.3,Win32,75.18796992,5,1,15,0.052777778,0.017592593,1,0,0,0.7189,rock_grid_rect_2,7,15,-1,-1,0.719,0.146296296,-0.40462963,1,0,0,2.6492,Peridotite_rect,7,2.649,1,14,0,14,0,1,,,,,,,,,,,,,
6647687c4e426658c608e92e,TCN,2024-06-24_14h43.47.245,LearnStrategy,2023.2.3,Win32,75.18796992,5,1,16,0.080555556,-0.00462963,1,0,0,0.8636,rock_grid_rect_2,1,16,-1,-1,0.864,-0.364814815,-0.251851852,1,0,0,2.8429,Andesite_rect,1,2.843,1,15,0,15,0,1,,,,,,,,,,,,,
6647687c4e426658c608e92e,TCN,2024-06-24_14h43.47.245,LearnStrategy,2023.2.3,Win32,75.18796992,5,2,1,,,,,,,,5,12,,,,,,,,,,,5,0.92,1,,,,,,-0.338888889,-0.400925926,1,0,0,0.92,Obsidian_rect,0,0,0,0,1,
6647687c4e426658c608e92e,TCN,2024-06-24_14h43.47.245,LearnStrategy,2023.2.3,Win32,75.18796992,5,2,2,,,,,,,,3,16,,,,,,,,,,,3,3.014,1,,,,,,0.111111111,-0.239814815,1,0,0,3.0136,Diorite_rect,1,0,1,0,1,
6647687c4e426658c608e92e,TCN,2024-06-24_14h43.47.245,LearnStrategy,2023.2.3,Win32,75.18796992,5,2,3,,,,,,,,3,10,,,,,,,,,,,1,6.867,0,,,,,,-0.347222222,-0.237037037,1,0,0,6.8674,Andesite_rect,2,0,2,0,1,
6647687c4e426658c608e92e,TCN,2024-06-24_14h43.47.245,LearnStrategy,2023.2.3,Win32,75.18796992,5,2,4,,,,,,,,2,02,,,,,,,,,,,2,1.28,1,,,,,,-0.122222222,-0.256481481,1,0,0,1.2796,Basalt_rect,3,0,3,0,1,
6647687c4e426658c608e92e,TCN,2024-06-24_14h43.47.245,LearnStrategy,2023.2.3,Win32,75.18796992,5,2,5,,,,,,,,6,11,,,,,,,,,,,6,1.117,1,,,,,,-0.15,-0.413888889,1,0,0,1.117,Pegmatite_rect,4,0,4,0,1,
6647687c4e426658c608e92e,TCN,2024-06-24_14h43.47.245,LearnStrategy,2023.2.3,Win32,75.18796992,5,2,6,,,,,,,,1,03,,,,,,,,,,,1,11.413,1,,,,,,-0.319444444,-0.247222222,1,0,0,11.4132,Andesite_rect,5,0,5,0,1,
6647687c4e426658c608e92e,TCN,2024-06-24_14h43.47.245,LearnStrategy,2023.2.3,Win32,75.18796992,5,2,7,,,,,,,,5,09,,,,,,,,,,,5,2.489,1,,,,,,-0.378703704,-0.398148148,1,0,0,2.4886,Obsidian_rect,6,0,6,0,1,
6647687c4e426658c608e92e,TCN,2024-06-24_14h43.47.245,LearnStrategy,2023.2.3,Win32,75.18796992,5,2,8,,,,,,,,6,15,,,,,,,,,,,6,2.848,1,,,,,,-0.126851852,-0.394444444,1,0,0,2.8482,Pegmatite_rect,7,0,7,0,1,
6647687c4e426658c608e92e,TCN,2024-06-24_14h43.47.245,LearnStrategy,2023.2.3,Win32,75.18796992,5,2,9,,,,,,,,8,04,,,,,,,,,,,8,5.544,1,,,,,,0.342592593,-0.389814815,1,0,0,5.5436,Pumice_rect,8,0,8,0,1,
6647687c4e426658c608e92e,TCN,2024-06-24_14h43.47.245,LearnStrategy,2023.2.3,Win32,75.18796992,5,2,10,,,,,,,,7,13,,,,,,,,,,,7,4.624,1,,,,,,0.091666667,-0.403703704,1,0,0,4.6244,Peridotite_rect,9,0,9,0,1,
6647687c4e426658c608e92e,TCN,2024-06-24_14h43.47.245,LearnStrategy,2023.2.3,Win32,75.18796992,5,2,11,,,,,,,,4,13,,,,,,,,,,,4,3.477,1,,,,,,0.381481481,-0.252777778,1,0,0,3.4775,Gabbro_rect,10,0,10,0,1,
6647687c4e426658c608e92e,TCN,2024-06-24_14h43.47.245,LearnStrategy,2023.2.3,Win32,75.18796992,5,2,12,,,,,,,,1,14,,,,,,,,,,,4,17.024,0,,,,,,0.381481481,-0.261111111,1,0,0,17.0237,Gabbro_rect,11,0,11,0,1,
6647687c4e426658c608e92e,TCN,2024-06-24_14h43.47.245,LearnStrategy,2023.2.3,Win32,75.18796992,5,2,13,,,,,,,,7,10,,,,,,,,,,,7,1.548,1,,,,,,0.135185185,-0.401851852,1,0,0,1.5476,Peridotite_rect,12,0,12,0,1,
6647687c4e426658c608e92e,TCN,2024-06-24_14h43.47.245,LearnStrategy,2023.2.3,Win32,75.18796992,5,2,14,,,,,,,,4,14,,,,,,,,,,,2,1.647,0,,,,,,-0.197222222,-0.255555556,1,0,0,1.6466,Basalt_rect,13,0,13,0,1,
6647687c4e426658c608e92e,TCN,2024-06-24_14h43.47.245,LearnStrategy,2023.2.3,Win32,75.18796992,5,2,15,,,,,,,,2,06,,,,,,,,,,,2,1.851,1,,,,,,-0.135185185,-0.259259259,1,0,0,1.8507,Basalt_rect,14,0,14,0,1,
6647687c4e426658c608e92e,TCN,2024-06-24_14h43.47.245,LearnStrategy,2023.2.3,Win32,75.18796992,5,2,16,,,,,,,,8,16,,,,,,,,,,,8,1.02,1,,,,,,0.356481481,-0.387037037,1,0,0,1.0202,Pumice_rect,15,0,15,0,1,
6647687c4e426658c608e92e,TCN,2024-06-24_14h43.47.245,LearnStrategy,2023.2.3,Win32,75.18796992,6,1,1,0.014814815,-0.012037037,1,0,0,1.5913,rock_grid_rect_2,7,12,-1,-1,1.591,0.1,-0.412962963,1,0,0,1.7982,Peridotite_rect,7,1.798,1,0,0,0,0,1,,,,,,,,,,,,,
6647687c4e426658c608e92e,TCN,2024-06-24_14h43.47.245,LearnStrategy,2023.2.3,Win32,75.18796992,6,1,2,-0.088888889,-0.005555556,1,0,0,0.9375,rock_grid_rect_2,5,10,-1,-1,0.938,-0.342592593,-0.421296296,1,0,0,1.0378,Obsidian_rect,5,1.038,1,1,0,1,0,1,,,,,,,,,,,,,
6647687c4e426658c608e92e,TCN,2024-06-24_14h43.47.245,LearnStrategy,2023.2.3,Win32,75.18796992,6,1,3,0.05,0.013888889,1,0,0,0.8797,rock_grid_rect_2,6,10,-1,-1,0.88,0.142592593,-0.419444444,1,0,0,1.0423,Peridotite_rect,7,1.042,0,2,0,2,0,1,,,,,,,,,,,,,
6647687c4e426658c608e92e,TCN,2024-06-24_14h43.47.245,LearnStrategy,2023.2.3,Win32,75.18796992,6,1,4,0.037962963,-0.012037037,1,0,0,0.7493,rock_grid_rect_2,3,08,-1,-1,0.749,0.148148148,-0.269444444,1,0,0,8.0037,Diorite_rect,3,8.004,1,3,0,3,0,1,,,,,,,,,,,,,
6647687c4e426658c608e92e,TCN,2024-06-24_14h43.47.245,LearnStrategy,2023.2.3,Win32,75.18796992,6,1,5,0.027777778,-0.008333333,1,0,0,0.8312,rock_grid_rect_2,4,05,-1,-1,0.831,-0.137037037,-0.259259259,1,0,0,14.0383,Basalt_rect,2,14.038,0,4,0,4,0,1,,,,,,,,,,,,,
6647687c4e426658c608e92e,TCN,2024-06-24_14h43.47.245,LearnStrategy,2023.2.3,Win32,75.18796992,6,1,6,0.081481481,-0.013888889,1,0,0,0.7111,rock_grid_rect_2,1,02,-1,-1,0.711,-0.34537037,-0.253703704,1,0,0,1.2857,Andesite_rect,1,1.286,1,5,0,5,0,1,,,,,,,,,,,,,
6647687c4e426658c608e92e,TCN,2024-06-24_14h43.47.245,LearnStrategy,2023.2.3,Win32,75.18796992,6,1,7,-0.049074074,0.003703704,1,0,0,1.4124,rock_grid_rect_2,1,09,-1,-1,1.412,0.364814815,-0.250925926,1,0,0,3.7834,Gabbro_rect,4,3.783,0,6,0,6,0,1,,,,,,,,,,,,,
6647687c4e426658c608e92e,TCN,2024-06-24_14h43.47.245,LearnStrategy,2023.2.3,Win32,75.18796992,6,1,8,-0.109259259,0.012037037,1,0,0,0.623,rock_grid_rect_2,7,07,-1,-1,0.623,0.125925926,-0.42037037,1,0,0,1.4501,Peridotite_rect,7,1.45,1,7,0,7,0,1,,,,,,,,,,,,,
6647687c4e426658c608e92e,TCN,2024-06-24_14h43.47.245,LearnStrategy,2023.2.3,Win32,75.18796992,6,1,9,0.069444444,0.007407407,1,0,0,0.6766,rock_grid_rect_2,8,10,-1,-1,0.677,0.369444444,-0.385185185,1,0,0,1.0361,Pumice_rect,8,1.036,1,8,0,8,0,1,,,,,,,,,,,,,
6647687c4e426658c608e92e,TCN,2024-06-24_14h43.47.245,LearnStrategy,2023.2.3,Win32,75.18796992,6,1,10,0.102777778,-0.007407407,1,0,0,0.7031,rock_grid_rect_2,5,04,-1,-1,0.703,-0.343518519,-0.417592593,1,0,0,1.1135,Obsidian_rect,5,1.114,1,9,0,9,0,1,,,,,,,,,,,,,
6647687c4e426658c608e92e,TCN,2024-06-24_14h43.47.245,LearnStrategy,2023.2.3,Win32,75.18796992,6,1,11,0.059259259,-0.012962963,1,0,0,0.6771,rock_grid_rect_2,6,16,-1,-1,0.677,-0.111111111,-0.393518519,1,0,0,1.1023,Pegmatite_rect,6,1.102,1,10,0,10,0,1,,,,,,,,,,,,,
6647687c4e426658c608e92e,TCN,2024-06-24_14h43.47.245,LearnStrategy,2023.2.3,Win32,75.18796992,6,1,12,0.042592593,0,1,0,0,0.6525,rock_grid_rect_2,3,07,-1,-1,0.653,0.137037037,-0.266666667,1,0,0,2.8502,Diorite_rect,3,2.85,1,11,0,11,0,1,,,,,,,,,,,,,
6647687c4e426658c608e92e,TCN,2024-06-24_14h43.47.245,LearnStrategy,2023.2.3,Win32,75.18796992,6,1,13,0.042592593,-0.002777778,1,0,0,0.8908,rock_grid_rect_2,8,08,-1,-1,0.891,0.416666667,-0.405555556,1,0,0,1.2363,Pumice_rect,8,1.236,1,12,0,12,0,1,,,,,,,,,,,,,
6647687c4e426658c608e92e,TCN,2024-06-24_14h43.47.245,LearnStrategy,2023.2.3,Win32,75.18796992,6,1,14,0.018518519,-0.024074074,1,0,0,0.7841,rock_grid_rect_2,4,15,-1,-1,0.784,0.465740741,-0.250925926,1,0,0,12.6472,Gabbro_rect,4,12.647,1,13,0,13,0,1,,,,,,,,,,,,,
6647687c4e426658c608e92e,TCN,2024-06-24_14h43.47.245,LearnStrategy,2023.2.3,Win32,75.18796992,6,1,15,0.091666667,-0.005555556,1,0,0,1.0443,rock_grid_rect_2,2,12,-1,-1,1.044,-0.387962963,-0.243518519,1,0,0,2.1045,Andesite_rect,1,2.104,0,14,0,14,0,1,,,,,,,,,,,,,
6647687c4e426658c608e92e,TCN,2024-06-24_14h43.47.245,LearnStrategy,2023.2.3,Win32,75.18796992,6,1,16,0.021296296,-0.025,1,0,0,0.7644,rock_grid_rect_2,2,04,-1,-1,0.764,-0.146296296,-0.232407407,1,0,0,1.0894,Basalt_rect,2,1.089,1,15,0,15,0,1,,,,,,,,,,,,,
6647687c4e426658c608e92e,TCN,2024-06-24_14h43.47.245,LearnStrategy,2023.2.3,Win32,75.18796992,6,2,1,,,,,,,,2,11,,,,,,,,,,,2,10.671,1,,,,,,-0.19537037,-0.259259259,1,0,0,10.6706,Basalt_rect,0,0,0,0,1,
6647687c4e426658c608e92e,TCN,2024-06-24_14h43.47.245,LearnStrategy,2023.2.3,Win32,75.18796992,6,2,2,,,,,,,,7,04,,,,,,,,,,,4,6.439,0,,,,,,0.371296296,-0.268518519,1,0,0,6.439,Gabbro_rect,1,0,1,0,1,
6647687c4e426658c608e92e,TCN,2024-06-24_14h43.47.245,LearnStrategy,2023.2.3,Win32,75.18796992,6,2,3,,,,,,,,8,06,,,,,,,,,,,8,1.582,1,,,,,,0.386111111,-0.410185185,1,0,0,1.5822,Pumice_rect,2,0,2,0,1,
6647687c4e426658c608e92e,TCN,2024-06-24_14h43.47.245,LearnStrategy,2023.2.3,Win32,75.18796992,6,2,4,,,,,,,,5,05,,,,,,,,,,,5,11.891,1,,,,,,-0.387037037,-0.414814815,1,0,0,11.8911,Obsidian_rect,3,0,3,0,1,
6647687c4e426658c608e92e,TCN,2024-06-24_14h43.47.245,LearnStrategy,2023.2.3,Win32,75.18796992,6,2,5,,,,,,,,6,03,,,,,,,,,,,6,1.143,1,,,,,,-0.090740741,-0.411111111,1,0,0,1.1432,Pegmatite_rect,4,0,4,0,1,
6647687c4e426658c608e92e,TCN,2024-06-24_14h43.47.245,LearnStrategy,2023.2.3,Win32,75.18796992,6,2,6,,,,,,,,2,08,,,,,,,,,,,2,1.052,1,,,,,,-0.176851852,-0.256481481,1,0,0,1.0519,Basalt_rect,5,0,5,0,1,
6647687c4e426658c608e92e,TCN,2024-06-24_14h43.47.245,LearnStrategy,2023.2.3,Win32,75.18796992,6,2,7,,,,,,,,3,12,,,,,,,,,,,3,1.839,1,,,,,,0.058333333,-0.25,1,0,0,1.8393,Diorite_rect,6,0,6,0,1,
6647687c4e426658c608e92e,TCN,2024-06-24_14h43.47.245,LearnStrategy,2023.2.3,Win32,75.18796992,6,2,8,,,,,,,,5,06,,,,,,,,,,,5,1.078,1,,,,,,-0.337037037,-0.400925926,1,0,0,1.0776,Obsidian_rect,7,0,7,0,1,
6647687c4e426658c608e92e,TCN,2024-06-24_14h43.47.245,LearnStrategy,2023.2.3,Win32,75.18796992,6,2,9,,,,,,,,4,01,,,,,,,,,,,1,11.212,0,,,,,,-0.387037037,-0.247222222,1,0,0,11.2119,Andesite_rect,8,0,8,0,1,
6647687c4e426658c608e92e,TCN,2024-06-24_14h43.47.245,LearnStrategy,2023.2.3,Win32,75.18796992,6,2,10,,,,,,,,7,08,,,,,,,,,,,7,1.487,1,,,,,,0.137037037,-0.378703704,1,0,0,1.4869,Peridotite_rect,9,0,9,0,1,
6647687c4e426658c608e92e,TCN,2024-06-24_14h43.47.245,LearnStrategy,2023.2.3,Win32,75.18796992,6,2,11,,,,,,,,4,12,,,,,,,,,,,1,4.489,0,,,,,,-0.373148148,-0.255555556,1,0,0,4.4893,Andesite_rect,10,0,10,0,1,
6647687c4e426658c608e92e,TCN,2024-06-24_14h43.47.245,LearnStrategy,2023.2.3,Win32,75.18796992,6,2,12,,,,,,,,8,02,,,,,,,,,,,8,2.007,1,,,,,,0.4,-0.394444444,1,0,0,2.0071,Pumice_rect,11,0,11,0,1,
6647687c4e426658c608e92e,TCN,2024-06-24_14h43.47.245,LearnStrategy,2023.2.3,Win32,75.18796992,6,2,13,,,,,,,,3,15,,,,,,,,,,,4,4.243,0,,,,,,0.349074074,-0.25462963,1,0,0,4.2433,Gabbro_rect,12,0,12,0,1,
6647687c4e426658c608e92e,TCN,2024-06-24_14h43.47.245,LearnStrategy,2023.2.3,Win32,75.18796992,6,2,14,,,,,,,,1,10,,,,,,,,,,,1,2.52,1,,,,,,-0.328703704,-0.248148148,1,0,0,2.52,Andesite_rect,13,0,13,0,1,
6647687c4e426658c608e92e,TCN,2024-06-24_14h43.47.245,LearnStrategy,2023.2.3,Win32,75.18796992,6,2,15,,,,,,,,1,07,,,,,,,,,,,4,6.969,0,,,,,,0.397222222,-0.262037037,1,0,0,6.969,Gabbro_rect,14,0,14,0,1,
6647687c4e426658c608e92e,TCN,2024-06-24_14h43.47.245,LearnStrategy,2023.2.3,Win32,75.18796992,6,2,16,,,,,,,,6,06,,,,,,,,,,,6,1.264,1,,,,,,-0.115740741,-0.401851852,1,0,0,1.2636,Pegmatite_rect,15,0,15,0,1,
6647687c4e426658c608e92e,TCN,2024-06-24_14h43.47.245,LearnStrategy,2023.2.3,Win32,75.18796992,7,1,1,0.082407407,-0.006481481,1,0,0,1.2099,rock_grid_rect_2,2,05,-1,-1,1.21,-0.087037037,-0.232407407,1,0,0,1.5304,Basalt_rect,2,1.53,1,0,0,0,0,1,,,,,,,,,,,,,
6647687c4e426658c608e92e,TCN,2024-06-24_14h43.47.245,LearnStrategy,2023.2.3,Win32,75.18796992,7,1,2,0.05,-0.00462963,1,0,0,0.8238,rock_grid_rect_2,1,05,-1,-1,0.824,-0.475,-0.237962963,1,0,0,1.7306,Andesite_rect,1,1.731,1,1,0,1,0,1,,,,,,,,,,,,,
6647687c4e426658c608e92e,TCN,2024-06-24_14h43.47.245,LearnStrategy,2023.2.3,Win32,75.18796992,7,1,3,-0.039814815,-0.019444444,1,0,0,0.9586,rock_grid_rect_2,8,09,-1,-1,0.959,0.433333333,-0.4,1,0,0,1.6244,Pumice_rect,8,1.624,1,2,0,2,0,1,,,,,,,,,,,,,
6647687c4e426658c608e92e,TCN,2024-06-24_14h43.47.245,LearnStrategy,2023.2.3,Win32,75.18796992,7,1,4,0.128703704,-0.018518519,1,0,0,0.6658,rock_grid_rect_2,3,09,-1,-1,0.666,0.078703704,-0.249074074,1,0,0,1.5023,Diorite_rect,3,1.502,1,3,0,3,0,1,,,,,,,,,,,,,
6647687c4e426658c608e92e,TCN,2024-06-24_14h43.47.245,LearnStrategy,2023.2.3,Win32,75.18796992,7,1,5,0.02962963,-0.001851852,1,0,0,0.6375,rock_grid_rect_2,5,10,-1,-1,0.638,-0.372222222,-0.412037037,1,0,0,0.9706,Obsidian_rect,5,0.971,1,4,0,4,0,1,,,,,,,,,,,,,
6647687c4e426658c608e92e,TCN,2024-06-24_14h43.47.245,LearnStrategy,2023.2.3,Win32,75.18796992,7,1,6,0.047222222,0.014814815,1,0,0,0.7595,rock_grid_rect_2,8,15,-1,-1,0.759,0.364814815,-0.416666667,1,0,0,0.8374,Pumice_rect,8,0.837,1,5,0,5,0,1,,,,,,,,,,,,,
6647687c4e426658c608e92e,TCN,2024-06-24_14h43.47.245,LearnStrategy,2023.2.3,Win32,75.18796992,7,1,7,0.058333333,0.009259259,1,0,0,0.6763,rock_grid_rect_2,5,14,-1,-1,0.676,-0.397222222,-0.39537037,1,0,0,0.8765,Obsidian_rect,5,0.877,1,6,0,6,0,1,,,,,,,,,,,,,
6647687c4e426658c608e92e,TCN,2024-06-24_14h43.47.245,LearnStrategy,2023.2.3,Win32,75.18796992,7,1,8,0.056481481,0.001851852,1,0,0,0.7311,rock_grid_rect_2,6,05,-1,-1,0.731,-0.107407407,-0.398148148,1,0,0,1.5968,Pegmatite_rect,6,1.597,1,7,0,7,0,1,,,,,,,,,,,,,
6647687c4e426658c608e92e,TCN,2024-06-24_14h43.47.245,LearnStrategy,2023.2.3,Win32,75.18796992,7,1,9,0.069444444,-0.002777778,1,0,0,0.6758,rock_grid_rect_2,3,14,-1,-1,0.676,0.087037037,-0.248148148,1,0,0,1.1436,Diorite_rect,3,1.144,1,8,0,8,0,1,,,,,,,,,,,,,
6647687c4e426658c608e92e,TCN,2024-06-24_14h43.47.245,LearnStrategy,2023.2.3,Win32,75.18796992,7,1,10,0.122222222,0.006481481,1,0,0,0.7455,rock_grid_rect_2,1,09,-1,-1,0.745,-0.375,-0.25462963,1,0,0,11.6026,Andesite_rect,1,11.603,1,9,0,9,0,1,,,,,,,,,,,,,
6647687c4e426658c608e92e,TCN,2024-06-24_14h43.47.245,LearnStrategy,2023.2.3,Win32,75.18796992,7,1,11,0.086111111,0.000925926,1,0,0,0.7043,rock_grid_rect_2,6,07,-1,-1,0.704,-0.12037037,-0.393518519,1,0,0,1.0228,Pegmatite_rect,6,1.023,1,10,0,10,0,1,,,,,,,,,,,,,
6647687c4e426658c608e92e,TCN,2024-06-24_14h43.47.245,LearnStrategy,2023.2.3,Win32,75.18796992,7,1,12,0.073148148,-0.00462963,1,0,0,0.6127,rock_grid_rect_2,4,08,-1,-1,0.613,0.383333333,-0.260185185,1,0,0,8.522,Gabbro_rect,4,8.522,1,11,0,11,0,1,,,,,,,,,,,,,
6647687c4e426658c608e92e,TCN,2024-06-24_14h43.47.245,LearnStrategy,2023.2.3,Win32,75.18796992,7,1,13,0.143518519,0.006481481,1,0,0,0.7214,rock_grid_rect_2,4,11,-1,-1,0.721,0.367592593,-0.246296296,1,0,0,0.9308,Gabbro_rect,4,0.931,1,12,0,12,0,1,,,,,,,,,,,,,
6647687c4e426658c608e92e,TCN,2024-06-24_14h43.47.245,LearnStrategy,2023.2.3,Win32,75.18796992,7,1,14,0.118518519,-0.013888889,1,0,0,0.8025,rock_grid_rect_2,2,04,-1,-1,0.803,-0.075,-0.261111111,1,0,0,1.2319,Basalt_rect,2,1.232,1,13,0,13,0,1,,,,,,,,,,,,,
6647687c4e426658c608e92e,TCN,2024-06-24_14h43.47.245,LearnStrategy,2023.2.3,Win32,75.18796992,7,1,15,-0.026851852,0.003703704,1,0,0,1.0666,rock_grid_rect_2,7,07,-1,-1,1.067,0.112037037,-0.416666667,1,0,0,1.3666,Peridotite_rect,7,1.367,1,14,0,14,0,1,,,,,,,,,,,,,
6647687c4e426658c608e92e,TCN,2024-06-24_14h43.47.245,LearnStrategy,2023.2.3,Win32,75.18796992,7,1,16,0.008333333,-0.013888889,1,0,0,0.6511,rock_grid_rect_2,7,12,-1,-1,0.651,0.137037037,-0.381481481,1,0,0,1.0369,Peridotite_rect,7,1.037,1,15,0,15,0,1,,,,,,,,,,,,,
6647687c4e426658c608e92e,TCN,2024-06-24_14h43.47.245,LearnStrategy,2023.2.3,Win32,75.18796992,7,2,1,,,,,,,,6,06,,,,,,,,,,,6,1.22,1,,,,,,-0.112962963,-0.389814815,1,0,0,1.22,Pegmatite_rect,0,0,0,0,1,
6647687c4e426658c608e92e,TCN,2024-06-24_14h43.47.245,LearnStrategy,2023.2.3,Win32,75.18796992,7,2,2,,,,,,,,6,15,,,,,,,,,,,6,1.476,1,,,,,,-0.064814815,-0.4,1,0,0,1.4762,Pegmatite_rect,1,0,1,0,1,
6647687c4e426658c608e92e,TCN,2024-06-24_14h43.47.245,LearnStrategy,2023.2.3,Win32,75.18796992,7,2,3,,,,,,,,3,15,,,,,,,,,,,7,8.703,0,,,,,,0.108333333,-0.42037037,1,0,0,8.7029,Peridotite_rect,2,0,2,0,1,
6647687c4e426658c608e92e,TCN,2024-06-24_14h43.47.245,LearnStrategy,2023.2.3,Win32,75.18796992,7,2,4,,,,,,,,4,12,,,,,,,,,,,1,5.87,0,,,,,,-0.451851852,-0.253703704,1,0,0,5.8702,Andesite_rect,3,0,3,0,1,
6647687c4e426658c608e92e,TCN,2024-06-24_14h43.47.245,LearnStrategy,2023.2.3,Win32,75.18796992,7,2,5,,,,,,,,3,16,,,,,,,,,,,3,4.543,1,,,,,,0.114814815,-0.262962963,1,0,0,4.5431,Diorite_rect,4,0,4,0,1,
6647687c4e426658c608e92e,TCN,2024-06-24_14h43.47.245,LearnStrategy,2023.2.3,Win32,75.18796992,7,2,6,,,,,,,,2,11,,,,,,,,,,,1,1.499,0,,,,,,-0.358333333,-0.256481481,1,0,0,1.4988,Andesite_rect,5,0,5,0,1,
6647687c4e426658c608e92e,TCN,2024-06-24_14h43.47.245,LearnStrategy,2023.2.3,Win32,75.18796992,7,2,7,,,,,,,,8,05,,,,,,,,,,,8,1.848,1,,,,,,0.430555556,-0.399074074,1,0,0,1.8481,Pumice_rect,6,0,6,0,1,
6647687c4e426658c608e92e,TCN,2024-06-24_14h43.47.245,LearnStrategy,2023.2.3,Win32,75.18796992,7,2,8,,,,,,,,7,10,,,,,,,,,,,7,1.141,1,,,,,,0.19537037,-0.392592593,1,0,0,1.1409,Peridotite_rect,7,0,7,0,1,
6647687c4e426658c608e92e,TCN,2024-06-24_14h43.47.245,LearnStrategy,2023.2.3,Win32,75.18796992,7,2,9,,,,,,,,5,08,,,,,,,,,,,5,1.514,1,,,,,,-0.368518519,-0.407407407,1,0,0,1.5138,Obsidian_rect,8,0,8,0,1,
6647687c4e426658c608e92e,TCN,2024-06-24_14h43.47.245,LearnStrategy,2023.2.3,Win32,75.18796992,7,2,10,,,,,,,,7,04,,,,,,,,,,,4,9.306,0,,,,,,0.408333333,-0.257407407,1,0,0,9.3059,Gabbro_rect,9,0,9,0,1,
6647687c4e426658c608e92e,TCN,2024-06-24_14h43.47.245,LearnStrategy,2023.2.3,Win32,75.18796992,7,2,11,,,,,,,,2,06,,,,,,,,,,,2,1.713,1,,,,,,-0.174074074,-0.239814815,1,0,0,1.7128,Basalt_rect,10,0,10,0,1,
6647687c4e426658c608e92e,TCN,2024-06-24_14h43.47.245,LearnStrategy,2023.2.3,Win32,75.18796992,7,2,12,,,,,,,,1,03,,,,,,,,,,,2,11.302,0,,,,,,-0.187037037,-0.267592593,1,0,0,11.3022,Basalt_rect,11,0,11,0,1,
6647687c4e426658c608e92e,TCN,2024-06-24_14h43.47.245,LearnStrategy,2023.2.3,Win32,75.18796992,7,2,13,,,,,,,,1,01,,,,,,,,,,,4,1.575,0,,,,,,0.375925926,-0.238888889,1,0,0,1.5748,Gabbro_rect,12,0,12,0,1,
6647687c4e426658c608e92e,TCN,2024-06-24_14h43.47.245,LearnStrategy,2023.2.3,Win32,75.18796992,7,2,14,,,,,,,,5,05,,,,,,,,,,,5,0.911,1,,,,,,-0.361111111,-0.415740741,1,0,0,0.9106,Obsidian_rect,13,0,13,0,1,
6647687c4e426658c608e92e,TCN,2024-06-24_14h43.47.245,LearnStrategy,2023.2.3,Win32,75.18796992,7,2,15,,,,,,,,4,10,,,,,,,,,,,2,4.871,0,,,,,,-0.182407407,-0.240740741,1,0,0,4.8707,Basalt_rect,14,0,14,0,1,
6647687c4e426658c608e92e,TCN,2024-06-24_14h43.47.245,LearnStrategy,2023.2.3,Win32,75.18796992,7,2,16,,,,,,,,8,04,,,,,,,,,,,8,1.909,1,,,,,,0.393518519,-0.380555556,1,0,0,1.9086,Pumice_rect,15,0,15,0,1,
6647687c4e426658c608e92e,TCN,2024-06-24_14h43.47.245,LearnStrategy,2023.2.3,Win32,75.18796992,8,1,1,-0.000925926,0.016666667,1,0,0,1.0405,rock_grid_rect_2,1,16,-1,-1,1.041,0.353703704,-0.269444444,1,0,0,7.8661,Gabbro_rect,4,7.866,0,0,0,0,0,1,,,,,,,,,,,,,
6647687c4e426658c608e92e,TCN,2024-06-24_14h43.47.245,LearnStrategy,2023.2.3,Win32,75.18796992,8,1,2,0.062037037,0.019444444,1,0,0,0.756,rock_grid_rect_2,5,02,-1,-1,0.756,-0.382407407,-0.37962963,1,0,0,0.9839,Obsidian_rect,5,0.984,1,1,0,1,0,1,,,,,,,,,,,,,
6647687c4e426658c608e92e,TCN,2024-06-24_14h43.47.245,LearnStrategy,2023.2.3,Win32,75.18796992,8,1,3,0.084259259,-0.012962963,1,0,0,1.1728,rock_grid_rect_2,2,12,-1,-1,1.173,-0.349074074,-0.241666667,1,0,0,1.673,Andesite_rect,1,1.673,0,2,0,2,0,1,,,,,,,,,,,,,
6647687c4e426658c608e92e,TCN,2024-06-24_14h43.47.245,LearnStrategy,2023.2.3,Win32,75.18796992,8,1,4,-0.028703704,-0.012962963,1,0,0,0.8105,rock_grid_rect_2,8,10,-1,-1,0.81,0.32962963,-0.384259259,1,0,0,2.8512,Pumice_rect,8,2.851,1,3,0,3,0,1,,,,,,,,,,,,,
6647687c4e426658c608e92e,TCN,2024-06-24_14h43.47.245,LearnStrategy,2023.2.3,Win32,75.18796992,8,1,5,0.125925926,-0.016666667,1,0,0,0.9035,rock_grid_rect_2,1,06,-1,-1,0.903,-0.17037037,-0.25462963,1,0,0,1.6908,Basalt_rect,2,1.691,0,4,0,4,0,1,,,,,,,,,,,,,
6647687c4e426658c608e92e,TCN,2024-06-24_14h43.47.245,LearnStrategy,2023.2.3,Win32,75.18796992,8,1,6,0.039814815,-0.016666667,1,0,0,0.7579,rock_grid_rect_2,4,03,-1,-1,0.758,0.442592593,-0.248148148,1,0,0,4.5863,Gabbro_rect,4,4.586,1,5,0,5,0,1,,,,,,,,,,,,,
6647687c4e426658c608e92e,TCN,2024-06-24_14h43.47.245,LearnStrategy,2023.2.3,Win32,75.18796992,8,1,7,0.034259259,-0.008333333,1,0,0,0.7957,rock_grid_rect_2,6,16,-1,-1,0.796,-0.1,-0.40462963,1,0,0,0.9815,Pegmatite_rect,6,0.981,1,6,0,6,0,1,,,,,,,,,,,,,
6647687c4e426658c608e92e,TCN,2024-06-24_14h43.47.245,LearnStrategy,2023.2.3,Win32,75.18796992,8,1,8,0.003703704,-0.006481481,1,0,0,0.8246,rock_grid_rect_2,8,03,-1,-1,0.825,0.374074074,-0.40462963,1,0,0,1.0623,Pumice_rect,8,1.062,1,7,0,7,0,1,,,,,,,,,,,,,
6647687c4e426658c608e92e,TCN,2024-06-24_14h43.47.245,LearnStrategy,2023.2.3,Win32,75.18796992,8,1,9,-0.005555556,0.001851852,1,0,0,0.8509,rock_grid_rect_2,2,09,-1,-1,0.851,-0.107407407,-0.262962963,1,0,0,1.6104,Basalt_rect,2,1.61,1,8,0,8,0,1,,,,,,,,,,,,,
6647687c4e426658c608e92e,TCN,2024-06-24_14h43.47.245,LearnStrategy,2023.2.3,Win32,75.18796992,8,1,10,0.130555556,-0.012962963,1,0,0,0.784,rock_grid_rect_2,7,16,-1,-1,0.784,0.109259259,-0.389814815,1,0,0,1.0107,Peridotite_rect,7,1.011,1,9,0,9,0,1,,,,,,,,,,,,,
6647687c4e426658c608e92e,TCN,2024-06-24_14h43.47.245,LearnStrategy,2023.2.3,Win32,75.18796992,8,1,11,0.125,0.001851852,1,0,0,0.7327,rock_grid_rect_2,4,15,-1,-1,0.733,0.164814815,-0.25462963,1,0,0,1.6908,Diorite_rect,3,1.691,0,10,0,10,0,1,,,,,,,,,,,,,
6647687c4e426658c608e92e,TCN,2024-06-24_14h43.47.245,LearnStrategy,2023.2.3,Win32,75.18796992,8,1,12,0.035185185,-0.006481481,1,0,0,0.7314,rock_grid_rect_2,6,13,-1,-1,0.731,-0.081481481,-0.408333333,1,0,0,1.0635,Pegmatite_rect,6,1.063,1,11,0,11,0,1,,,,,,,,,,,,,
6647687c4e426658c608e92e,TCN,2024-06-24_14h43.47.245,LearnStrategy,2023.2.3,Win32,75.18796992,8,1,13,-0.051851852,-0.005555556,1,0,0,0.8527,rock_grid_rect_2,3,07,-1,-1,0.853,0.178703704,-0.253703704,1,0,0,1.5977,Diorite_rect,3,1.598,1,12,0,12,0,1,,,,,,,,,,,,,
6647687c4e426658c608e92e,TCN,2024-06-24_14h43.47.245,LearnStrategy,2023.2.3,Win32,75.18796992,8,1,14,0.016666667,-0.000925926,1,0,0,0.7707,rock_grid_rect_2,5,07,-1,-1,0.771,-0.34537037,-0.393518519,1,0,0,1.0499,Obsidian_rect,5,1.05,1,13,0,13,0,1,,,,,,,,,,,,,
6647687c4e426658c608e92e,TCN,2024-06-24_14h43.47.245,LearnStrategy,2023.2.3,Win32,75.18796992,8,1,15,-0.02037037,-0.000925926,1,0,0,0.8107,rock_grid_rect_2,7,15,-1,-1,0.811,0.171296296,-0.387037037,1,0,0,1.0907,Peridotite_rect,7,1.091,1,14,0,14,0,1,,,,,,,,,,,,,
6647687c4e426658c608e92e,TCN,2024-06-24_14h43.47.245,LearnStrategy,2023.2.3,Win32,75.18796992,8,1,16,0.098148148,-0.012037037,1,0,0,0.652,rock_grid_rect_2,3,08,-1,-1,0.652,0.083333333,-0.262037037,1,0,0,1.2034,Diorite_rect,3,1.203,1,15,0,15,0,1,,,,,,,,,,,,,
6647687c4e426658c608e92e,TCN,2024-06-24_14h43.47.245,LearnStrategy,2023.2.3,Win32,75.18796992,8,2,1,,,,,,,,2,02,,,,,,,,,,,1,15.195,0,,,,,,-0.402777778,-0.240740741,1,0,0,15.1951,Andesite_rect,0,0,0,0,1,
6647687c4e426658c608e92e,TCN,2024-06-24_14h43.47.245,LearnStrategy,2023.2.3,Win32,75.18796992,8,2,2,,,,,,,,2,08,,,,,,,,,,,2,0.93,1,,,,,,-0.101851852,-0.262037037,1,0,0,0.9305,Basalt_rect,1,0,1,0,1,
6647687c4e426658c608e92e,TCN,2024-06-24_14h43.47.245,LearnStrategy,2023.2.3,Win32,75.18796992,8,2,3,,,,,,,,1,07,,,,,,,,,,,4,8.556,0,,,,,,0.419444444,-0.243518519,1,0,0,8.5562,Gabbro_rect,2,0,2,0,1,
6647687c4e426658c608e92e,TCN,2024-06-24_14h43.47.245,LearnStrategy,2023.2.3,Win32,75.18796992,8,2,4,,,,,,,,3,10,,,,,,,,,,,4,3.46,0,,,,,,0.340740741,-0.25462963,1,0,0,3.46,Gabbro_rect,3,0,3,0,1,
6647687c4e426658c608e92e,TCN,2024-06-24_14h43.47.245,LearnStrategy,2023.2.3,Win32,75.18796992,8,2,5,,,,,,,,8,06,,,,,,,,,,,8,0.876,1,,,,,,0.341666667,-0.403703704,1,0,0,0.8762,Pumice_rect,4,0,4,0,1,
6647687c4e426658c608e92e,TCN,2024-06-24_14h43.47.245,LearnStrategy,2023.2.3,Win32,75.18796992,8,2,6,,,,,,,,4,09,,,,,,,,,,,2,4.857,0,,,,,,-0.113888889,-0.246296296,1,0,0,4.8566,Basalt_rect,5,0,5,0,1,
6647687c4e426658c608e92e,TCN,2024-06-24_14h43.47.245,LearnStrategy,2023.2.3,Win32,75.18796992,8,2,7,,,,,,,,5,06,,,,,,,,,,,5,0.88,1,,,,,,-0.391666667,-0.400925926,1,0,0,0.8796,Obsidian_rect,6,0,6,0,1,
6647687c4e426658c608e92e,TCN,2024-06-24_14h43.47.245,LearnStrategy,2023.2.3,Win32,75.18796992,8,2,8,,,,,,,,8,14,,,,,,,,,,,8,0.866,1,,,,,,0.383333333,-0.398148148,1,0,0,0.866,Pumice_rect,7,0,7,0,1,
6647687c4e426658c608e92e,TCN,2024-06-24_14h43.47.245,LearnStrategy,2023.2.3,Win32,75.18796992,8,2,9,,,,,,,,3,11,,,,,,,,,,,3,1.134,1,,,,,,0.177777778,-0.257407407,1,0,0,1.1337,Diorite_rect,8,0,8,0,1,
6647687c4e426658c608e92e,TCN,2024-06-24_14h43.47.245,LearnStrategy,2023.2.3,Win32,75.18796992,8,2,10,,,,,,,,6,08,,,,,,,,,,,6,0.959,1,,,,,,-0.116666667,-0.412962963,1,0,0,0.9594,Pegmatite_rect,9,0,9,0,1,
6647687c4e426658c608e92e,TCN,2024-06-24_14h43.47.245,LearnStrategy,2023.2.3,Win32,75.18796992,8,2,11,,,,,,,,6,11,,,,,,,,,,,6,0.997,1,,,,,,-0.102777778,-0.396296296,1,0,0,0.9973,Pegmatite_rect,10,0,10,0,1,
6647687c4e426658c608e92e,TCN,2024-06-24_14h43.47.245,LearnStrategy,2023.2.3,Win32,75.18796992,8,2,12,,,,,,,,1,14,,,,,,,,,,,1,11.021,1,,,,,,-0.360185185,-0.258333333,1,0,0,11.0213,Andesite_rect,11,0,11,0,1,
6647687c4e426658c608e92e,TCN,2024-06-24_14h43.47.245,LearnStrategy,2023.2.3,Win32,75.18796992,8,2,13,,,,,,,,7,13,,,,,,,,,,,7,1.026,1,,,,,,0.140740741,-0.403703704,1,0,0,1.026,Peridotite_rect,12,0,12,0,1,
6647687c4e426658c608e92e,TCN,2024-06-24_14h43.47.245,LearnStrategy,2023.2.3,Win32,75.18796992,8,2,14,,,,,,,,4,14,,,,,,,,,,,2,3.887,0,,,,,,-0.140740741,-0.249074074,1,0,0,3.8865,Basalt_rect,13,0,13,0,1,
6647687c4e426658c608e92e,TCN,2024-06-24_14h43.47.245,LearnStrategy,2023.2.3,Win32,75.18796992,8,2,15,,,,,,,,7,14,,,,,,,,,,,7,1.276,1,,,,,,0.157407407,-0.396296296,1,0,0,1.2762,Peridotite_rect,14,0,14,0,1,
6647687c4e426658c608e92e,TCN,2024-06-24_14h43.47.245,LearnStrategy,2023.2.3,Win32,75.18796992,8,2,16,,,,,,,,5,16,,,,,,,,,,,5,0.96,1,,,,,,-0.361111111,-0.4,1,0,0,0.96,Obsidian_rect,15,0,15,0,1,
6647687c4e426658c608e92e,TCN,2024-06-24_14h43.47.245,LearnStrategy,2023.2.3,Win32,75.18796992,9,1,1,-0.000925926,0.000925926,1,0,0,1.0102,rock_grid_rect_2,8,13,-1,-1,1.01,0.355555556,-0.390740741,1,0,0,2.3572,Pumice_rect,8,2.357,1,0,0,0,0,1,,,,,,,,,,,,,
6647687c4e426658c608e92e,TCN,2024-06-24_14h43.47.245,LearnStrategy,2023.2.3,Win32,75.18796992,9,1,2,0.009259259,-0.003703704,1,0,0,0.9558,rock_grid_rect_2,3,06,-1,-1,0.956,0.178703704,-0.253703704,1,0,0,1.6109,Diorite_rect,3,1.611,1,1,0,1,0,1,,,,,,,,,,,,,
6647687c4e426658c608e92e,TCN,2024-06-24_14h43.47.245,LearnStrategy,2023.2.3,Win32,75.18796992,9,1,3,-0.066666667,-0.012037037,1,0,0,0.6364,rock_grid_rect_2,1,02,-1,-1,0.636,-0.371296296,-0.253703704,1,0,0,1.4095,Andesite_rect,1,1.409,1,2,0,2,0,1,,,,,,,,,,,,,
6647687c4e426658c608e92e,TCN,2024-06-24_14h43.47.245,LearnStrategy,2023.2.3,Win32,75.18796992,9,1,4,-0.035185185,-0.011111111,1,0,0,0.5839,rock_grid_rect_2,2,10,-1,-1,0.584,-0.085185185,-0.252777778,1,0,0,2.0633,Basalt_rect,2,2.063,1,3,0,3,0,1,,,,,,,,,,,,,
6647687c4e426658c608e92e,TCN,2024-06-24_14h43.47.245,LearnStrategy,2023.2.3,Win32,75.18796992,9,1,5,-0.030555556,-0.011111111,1,0,0,0.5158,rock_grid_rect_2,4,16,-1,-1,0.516,-0.097222222,-0.25,1,0,0,1.7838,Basalt_rect,2,1.784,0,4,0,4,0,1,,,,,,,,,,,,,
6647687c4e426658c608e92e,TCN,2024-06-24_14h43.47.245,LearnStrategy,2023.2.3,Win32,75.18796992,9,1,6,0.036111111,0.009259259,1,0,0,0.5163,rock_grid_rect_2,1,04,-1,-1,0.516,-0.29537037,-0.248148148,1,0,0,1.103,Andesite_rect,1,1.103,1,5,0,5,0,1,,,,,,,,,,,,,
6647687c4e426658c608e92e,TCN,2024-06-24_14h43.47.245,LearnStrategy,2023.2.3,Win32,75.18796992,9,1,7,0.008333333,0.008333333,1,0,0,0.7451,rock_grid_rect_2,6,10,-1,-1,0.745,0.136111111,-0.387037037,1,0,0,0.8614,Peridotite_rect,7,0.861,0,6,0,6,0,1,,,,,,,,,,,,,
6647687c4e426658c608e92e,TCN,2024-06-24_14h43.47.245,LearnStrategy,2023.2.3,Win32,75.18796992,9,1,8,0.043518519,0.000925926,1,0,0,0.7061,rock_grid_rect_2,7,02,-1,-1,0.706,0.177777778,-0.418518519,1,0,0,0.7668,Peridotite_rect,7,0.767,1,7,0,7,0,1,,,,,,,,,,,,,
6647687c4e426658c608e92e,TCN,2024-06-24_14h43.47.245,LearnStrategy,2023.2.3,Win32,75.18796992,9,1,9,0.02037037,0.02037037,1,0,0,0.5841,rock_grid_rect_2,4,05,-1,-1,0.584,0.39537037,-0.234259259,1,0,0,5.0822,Gabbro_rect,4,5.082,1,8,0,8,0,1,,,,,,,,,,,,,
6647687c4e426658c608e92e,TCN,2024-06-24_14h43.47.245,LearnStrategy,2023.2.3,Win32,75.18796992,9,1,10,-0.000925926,-0.009259259,1,0,0,0.8015,rock_grid_rect_2,7,05,-1,-1,0.802,0.181481481,-0.409259259,1,0,0,1.3714,Peridotite_rect,7,1.371,1,9,0,9,0,1,,,,,,,,,,,,,
6647687c4e426658c608e92e,TCN,2024-06-24_14h43.47.245,LearnStrategy,2023.2.3,Win32,75.18796992,9,1,11,0.00462963,-0.013888889,1,0,0,0.6416,rock_grid_rect_2,6,12,-1,-1,0.642,-0.090740741,-0.391666667,1,0,0,1.3991,Pegmatite_rect,6,1.399,1,10,0,10,0,1,,,,,,,,,,,,,
6647687c4e426658c608e92e,TCN,2024-06-24_14h43.47.245,LearnStrategy,2023.2.3,Win32,75.18796992,9,1,12,0.010185185,0.001851852,1,0,0,0.5624,rock_grid_rect_2,5,04,-1,-1,0.562,-0.414814815,-0.39537037,1,0,0,0.8117,Obsidian_rect,5,0.812,1,11,0,11,0,1,,,,,,,,,,,,,
6647687c4e426658c608e92e,TCN,2024-06-24_14h43.47.245,LearnStrategy,2023.2.3,Win32,75.18796992,9,1,13,-0.010185185,-0.007407407,1,0,0,0.9079,rock_grid_rect_2,5,11,-1,-1,0.908,-0.35,-0.387962963,1,0,0,2.533,Obsidian_rect,5,2.533,1,12,0,12,0,1,,,,,,,,,,,,,
6647687c4e426658c608e92e,TCN,2024-06-24_14h43.47.245,LearnStrategy,2023.2.3,Win32,75.18796992,9,1,14,0.050925926,0.003703704,1,0,0,0.6978,rock_grid_rect_2,3,02,-1,-1,0.698,0.05,-0.250925926,1,0,0,1.4376,Diorite_rect,3,1.438,1,13,0,13,0,1,,,,,,,,,,,,,
6647687c4e426658c608e92e,TCN,2024-06-24_14h43.47.245,LearnStrategy,2023.2.3,Win32,75.18796992,9,1,15,0.078703704,0,1,0,0,0.6952,rock_grid_rect_2,2,14,-1,-1,0.695,-0.075,-0.260185185,1,0,0,3.4117,Basalt_rect,2,3.412,1,14,0,14,0,1,,,,,,,,,,,,,
6647687c4e426658c608e92e,TCN,2024-06-24_14h43.47.245,LearnStrategy,2023.2.3,Win32,75.18796992,9,1,16,0.097222222,-0.014814815,1,0,0,0.6303,rock_grid_rect_2,8,08,-1,-1,0.63,0.37037037,-0.393518519,1,0,0,1.0144,Pumice_rect,8,1.014,1,15,0,15,0,1,,,,,,,,,,,,,
6647687c4e426658c608e92e,TCN,2024-06-24_14h43.47.245,LearnStrategy,2023.2.3,Win32,75.18796992,9,2,1,,,,,,,,5,12,,,,,,,,,,,5,0.982,1,,,,,,-0.336111111,-0.421296296,1,0,0,0.9824,Obsidian_rect,0,0,0,0,1,
6647687c4e426658c608e92e,TCN,2024-06-24_14h43.47.245,LearnStrategy,2023.2.3,Win32,75.18796992,9,2,2,,,,,,,,8,16,,,,,,,,,,,8,1.355,1,,,,,,0.422222222,-0.412037037,1,0,0,1.3546,Pumice_rect,1,0,1,0,1,
6647687c4e426658c608e92e,TCN,2024-06-24_14h43.47.245,LearnStrategy,2023.2.3,Win32,75.18796992,9,2,3,,,,,,,,8,02,,,,,,,,,,,1,0.94,0,,,,,,-0.367592593,-0.228703704,1,0,0,0.9399,Andesite_rect,2,0,2,0,1,
6647687c4e426658c608e92e,TCN,2024-06-24_14h43.47.245,LearnStrategy,2023.2.3,Win32,75.18796992,9,2,4,,,,,,,,6,03,,,,,,,,,,,6,1.788,1,,,,,,-0.037037037,-0.410185185,1,0,0,1.7879,Pegmatite_rect,3,0,3,0,1,
6647687c4e426658c608e92e,TCN,2024-06-24_14h43.47.245,LearnStrategy,2023.2.3,Win32,75.18796992,9,2,5,,,,,,,,1,11,,,,,,,,,,,1,1.419,1,,,,,,-0.358333333,-0.264814815,1,0,0,1.419,Andesite_rect,4,0,4,0,1,
6647687c4e426658c608e92e,TCN,2024-06-24_14h43.47.245,LearnStrategy,2023.2.3,Win32,75.18796992,9,2,6,,,,,,,,4,01,,,,,,,,,,,4,12.89,1,,,,,,0.364814815,-0.243518519,1,0,0,12.8901,Gabbro_rect,5,0,5,0,1,
6647687c4e426658c608e92e,TCN,2024-06-24_14h43.47.245,LearnStrategy,2023.2.3,Win32,75.18796992,9,2,7,,,,,,,,6,09,,,,,,,,,,,6,1.499,1,,,,,,-0.113888889,-0.416666667,1,0,0,1.4986,Pegmatite_rect,6,0,6,0,1,
6647687c4e426658c608e92e,TCN,2024-06-24_14h43.47.245,LearnStrategy,2023.2.3,Win32,75.18796992,9,2,8,,,,,,,,3,13,,,,,,,,,,,3,1.18,1,,,,,,0.119444444,-0.248148148,1,0,0,1.1797,Diorite_rect,7,0,7,0,1,
6647687c4e426658c608e92e,TCN,2024-06-24_14h43.47.245,LearnStrategy,2023.2.3,Win32,75.18796992,9,2,9,,,,,,,,7,06,,,,,,,,,,,7,0.875,1,,,,,,0.142592593,-0.391666667,1,0,0,0.8753,Peridotite_rect,8,0,8,0,1,
6647687c4e426658c608e92e,TCN,2024-06-24_14h43.47.245,LearnStrategy,2023.2.3,Win32,75.18796992,9,2,10,,,,,,,,2,16,,,,,,,,,,,2,2.957,1,,,,,,-0.160185185,-0.244444444,1,0,0,2.9566,Basalt_rect,9,0,9,0,1,
6647687c4e426658c608e92e,TCN,2024-06-24_14h43.47.245,LearnStrategy,2023.2.3,Win32,75.18796992,9,2,11,,,,,,,,7,08,,,,,,,,,,,7,1.419,1,,,,,,0.185185185,-0.4,1,0,0,1.419,Peridotite_rect,10,0,10,0,1,
6647687c4e426658c608e92e,TCN,2024-06-24_14h43.47.245,LearnStrategy,2023.2.3,Win32,75.18796992,9,2,12,,,,,,,,3,12,,,,,,,,,,,3,1.597,1,,,,,,0.131481481,-0.260185185,1,0,0,1.5974,Diorite_rect,11,0,11,0,1,
6647687c4e426658c608e92e,TCN,2024-06-24_14h43.47.245,LearnStrategy,2023.2.3,Win32,75.18796992,9,2,13,,,,,,,,5,09,,,,,,,,,,,5,0.953,1,,,,,,-0.325,-0.413888889,1,0,0,0.9526,Obsidian_rect,12,0,12,0,1,
6647687c4e426658c608e92e,TCN,2024-06-24_14h43.47.245,LearnStrategy,2023.2.3,Win32,75.18796992,9,2,14,,,,,,,,1,10,,,,,,,,,,,1,2.567,1,,,,,,-0.305555556,-0.253703704,1,0,0,2.567,Andesite_rect,13,0,13,0,1,
6647687c4e426658c608e92e,TCN,2024-06-24_14h43.47.245,LearnStrategy,2023.2.3,Win32,75.18796992,9,2,15,,,,,,,,4,13,,,,,,,,,,,4,9.212,1,,,,,,0.364814815,-0.242592593,1,0,0,9.2115,Gabbro_rect,14,0,14,0,1,
6647687c4e426658c608e92e,TCN,2024-06-24_14h43.47.245,LearnStrategy,2023.2.3,Win32,75.18796992,9,2,16,,,,,,,,2,01,,,,,,,,,,,2,1.778,1,,,,,,-0.134259259,-0.261111111,1,0,0,1.7777,Basalt_rect,15,0,15,0,1,
6647687c4e426658c608e92e,TCN,2024-06-24_14h43.47.245,LearnStrategy,2023.2.3,Win32,75.18796992,,,,,,,,,,,,,,,,,,,,,,,,,,,,,,,,,,,,,,,,,,,1
6647687c4e426658c608e92e,TCN,2024-06-24_14h43.47.245,LearnStrategy,2023.2.3,Win32,75.18796992,,,,,,,,,,,,,,,,,,,,,,,,,,,,,,,,,,,,,,,,,,,
6647687c4e426658c608e92e,TCN,2024-06-24_14h43.47.245,LearnStrategy,2023.2.3,Win32,75.18796992,,,,,,,,,,,5,10,1,1,,,,,,,,,,,,,,,,,,,,,,,,,,,,,
6647687c4e426658c608e92e,TCN,2024-06-24_14h43.47.245,LearnStrategy,2023.2.3,Win32,75.18796992,,,,,,,,,,,5,02,1,2,,,,,,,,,,,,,,,,,,,,,,,,,,,,,
6647687c4e426658c608e92e,TCN,2024-06-24_14h43.47.245,LearnStrategy,2023.2.3,Win32,75.18796992,,,,,,,,,,,6,05,1,3,,,,,,,,,,,,,,,,,,,,,,,,,,,,,
6647687c4e426658c608e92e,TCN,2024-06-24_14h43.47.245,LearnStrategy,2023.2.3,Win32,75.18796992,,,,,,,,,,,5,14,1,4,,,,,,,,,,,,,,,,,,,,,,,,,,,,,
6647687c4e426658c608e92e,TCN,2024-06-24_14h43.47.245,LearnStrategy,2023.2.3,Win32,75.18796992,,,,,,,,,,,7,05,1,5,,,,,,,,,,,,,,,,,,,,,,,,,,,,,
6647687c4e426658c608e92e,TCN,2024-06-24_14h43.47.245,LearnStrategy,2023.2.3,Win32,75.18796992,,,,,,,,,,,6,16,1,6,,,,,,,,,,,,,,,,,,,,,,,,,,,,,
6647687c4e426658c608e92e,TCN,2024-06-24_14h43.47.245,LearnStrategy,2023.2.3,Win32,75.18796992,,,,,,,,,,,6,12,1,7,,,,,,,,,,,,,,,,,,,,,,,,,,,,,
6647687c4e426658c608e92e,TCN,2024-06-24_14h43.47.245,LearnStrategy,2023.2.3,Win32,75.18796992,,,,,,,,,,,4,11,1,8,,,,,,,,,,,,,,,,,,,,,,,,,,,,,
6647687c4e426658c608e92e,TCN,2024-06-24_14h43.47.245,LearnStrategy,2023.2.3,Win32,75.18796992,,,,,,,,,,,3,06,2,1,,,,,,,,,,,,,,,,,,,,,,,,,,,,,
6647687c4e426658c608e92e,TCN,2024-06-24_14h43.47.245,LearnStrategy,2023.2.3,Win32,75.18796992,,,,,,,,,,,7,02,2,2,,,,,,,,,,,,,,,,,,,,,,,,,,,,,
6647687c4e426658c608e92e,TCN,2024-06-24_14h43.47.245,LearnStrategy,2023.2.3,Win32,75.18796992,,,,,,,,,,,2,05,2,3,,,,,,,,,,,,,,,,,,,,,,,,,,,,,
6647687c4e426658c608e92e,TCN,2024-06-24_14h43.47.245,LearnStrategy,2023.2.3,Win32,75.18796992,,,,,,,,,,,8,09,2,4,,,,,,,,,,,,,,,,,,,,,,,,,,,,,
6647687c4e426658c608e92e,TCN,2024-06-24_14h43.47.245,LearnStrategy,2023.2.3,Win32,75.18796992,,,,,,,,,,,2,10,2,5,,,,,,,,,,,,,,,,,,,,,,,,,,,,,
6647687c4e426658c608e92e,TCN,2024-06-24_14h43.47.245,LearnStrategy,2023.2.3,Win32,75.18796992,,,,,,,,,,,8,15,2,6,,,,,,,,,,,,,,,,,,,,,,,,,,,,,
6647687c4e426658c608e92e,TCN,2024-06-24_14h43.47.245,LearnStrategy,2023.2.3,Win32,75.18796992,,,,,,,,,,,7,12,2,7,,,,,,,,,,,,,,,,,,,,,,,,,,,,,
6647687c4e426658c608e92e,TCN,2024-06-24_14h43.47.245,LearnStrategy,2023.2.3,Win32,75.18796992,,,,,,,,,,,1,05,2,8,,,,,,,,,,,,,,,,,,,,,,,,,,,,,
6647687c4e426658c608e92e,TCN,2024-06-24_14h43.47.245,LearnStrategy,2023.2.3,Win32,75.18796992,,,,,,,,,,,8,08,3,1,,,,,,,,,,,,,,,,,,,,,,,,,,,,,
6647687c4e426658c608e92e,TCN,2024-06-24_14h43.47.245,LearnStrategy,2023.2.3,Win32,75.18796992,,,,,,,,,,,4,03,3,2,,,,,,,,,,,,,,,,,,,,,,,,,,,,,
6647687c4e426658c608e92e,TCN,2024-06-24_14h43.47.245,LearnStrategy,2023.2.3,Win32,75.18796992,,,,,,,,,,,1,04,3,3,,,,,,,,,,,,,,,,,,,,,,,,,,,,,
6647687c4e426658c608e92e,TCN,2024-06-24_14h43.47.245,LearnStrategy,2023.2.3,Win32,75.18796992,,,,,,,,,,,5,07,3,4,,,,,,,,,,,,,,,,,,,,,,,,,,,,,
6647687c4e426658c608e92e,TCN,2024-06-24_14h43.47.245,LearnStrategy,2023.2.3,Win32,75.18796992,,,,,,,,,,,6,10,3,5,,,,,,,,,,,,,,,,,,,,,,,,,,,,,
6647687c4e426658c608e92e,TCN,2024-06-24_14h43.47.245,LearnStrategy,2023.2.3,Win32,75.18796992,,,,,,,,,,,7,16,3,6,,,,,,,,,,,,,,,,,,,,,,,,,,,,,
6647687c4e426658c608e92e,TCN,2024-06-24_14h43.47.245,LearnStrategy,2023.2.3,Win32,75.18796992,,,,,,,,,,,2,04,3,7,,,,,,,,,,,,,,,,,,,,,,,,,,,,,
6647687c4e426658c608e92e,TCN,2024-06-24_14h43.47.245,LearnStrategy,2023.2.3,Win32,75.18796992,,,,,,,,,,,1,02,3,8,,,,,,,,,,,,,,,,,,,,,,,,,,,,,
6647687c4e426658c608e92e,TCN,2024-06-24_14h43.47.245,LearnStrategy,2023.2.3,Win32,75.18796992,,,,,,,,,,,3,09,4,1,,,,,,,,,,,,,,,,,,,,,,,,,,,,,
6647687c4e426658c608e92e,TCN,2024-06-24_14h43.47.245,LearnStrategy,2023.2.3,Win32,75.18796992,,,,,,,,,,,2,14,4,2,,,,,,,,,,,,,,,,,,,,,,,,,,,,,
6647687c4e426658c608e92e,TCN,2024-06-24_14h43.47.245,LearnStrategy,2023.2.3,Win32,75.18796992,,,,,,,,,,,1,09,4,3,,,,,,,,,,,,,,,,,,,,,,,,,,,,,
6647687c4e426658c608e92e,TCN,2024-06-24_14h43.47.245,LearnStrategy,2023.2.3,Win32,75.18796992,,,,,,,,,,,4,05,4,4,,,,,,,,,,,,,,,,,,,,,,,,,,,,,
6647687c4e426658c608e92e,TCN,2024-06-24_14h43.47.245,LearnStrategy,2023.2.3,Win32,75.18796992,,,,,,,,,,,4,15,4,5,,,,,,,,,,,,,,,,,,,,,,,,,,,,,
6647687c4e426658c608e92e,TCN,2024-06-24_14h43.47.245,LearnStrategy,2023.2.3,Win32,75.18796992,,,,,,,,,,,8,13,4,6,,,,,,,,,,,,,,,,,,,,,,,,,,,,,
6647687c4e426658c608e92e,TCN,2024-06-24_14h43.47.245,LearnStrategy,2023.2.3,Win32,75.18796992,,,,,,,,,,,2,09,4,7,,,,,,,,,,,,,,,,,,,,,,,,,,,,,
6647687c4e426658c608e92e,TCN,2024-06-24_14h43.47.245,LearnStrategy,2023.2.3,Win32,75.18796992,,,,,,,,,,,5,04,4,8,,,,,,,,,,,,,,,,,,,,,,,,,,,,,
6647687c4e426658c608e92e,TCN,2024-06-24_14h43.47.245,LearnStrategy,2023.2.3,Win32,75.18796992,,,,,,,,,,,8,03,5,1,,,,,,,,,,,,,,,,,,,,,,,,,,,,,
6647687c4e426658c608e92e,TCN,2024-06-24_14h43.47.245,LearnStrategy,2023.2.3,Win32,75.18796992,,,,,,,,,,,1,16,5,2,,,,,,,,,,,,,,,,,,,,,,,,,,,,,
6647687c4e426658c608e92e,TCN,2024-06-24_14h43.47.245,LearnStrategy,2023.2.3,Win32,75.18796992,,,,,,,,,,,3,07,5,3,,,,,,,,,,,,,,,,,,,,,,,,,,,,,
6647687c4e426658c608e92e,TCN,2024-06-24_14h43.47.245,LearnStrategy,2023.2.3,Win32,75.18796992,,,,,,,,,,,3,02,5,4,,,,,,,,,,,,,,,,,,,,,,,,,,,,,
6647687c4e426658c608e92e,TCN,2024-06-24_14h43.47.245,LearnStrategy,2023.2.3,Win32,75.18796992,,,,,,,,,,,4,16,5,5,,,,,,,,,,,,,,,,,,,,,,,,,,,,,
6647687c4e426658c608e92e,TCN,2024-06-24_14h43.47.245,LearnStrategy,2023.2.3,Win32,75.18796992,,,,,,,,,,,4,08,5,6,,,,,,,,,,,,,,,,,,,,,,,,,,,,,
6647687c4e426658c608e92e,TCN,2024-06-24_14h43.47.245,LearnStrategy,2023.2.3,Win32,75.18796992,,,,,,,,,,,5,11,5,7,,,,,,,,,,,,,,,,,,,,,,,,,,,,,
6647687c4e426658c608e92e,TCN,2024-06-24_14h43.47.245,LearnStrategy,2023.2.3,Win32,75.18796992,,,,,,,,,,,6,07,5,8,,,,,,,,,,,,,,,,,,,,,,,,,,,,,
6647687c4e426658c608e92e,TCN,2024-06-24_14h43.47.245,LearnStrategy,2023.2.3,Win32,75.18796992,,,,,,,,,,,3,08,6,1,,,,,,,,,,,,,,,,,,,,,,,,,,,,,
6647687c4e426658c608e92e,TCN,2024-06-24_14h43.47.245,LearnStrategy,2023.2.3,Win32,75.18796992,,,,,,,,,,,2,12,6,2,,,,,,,,,,,,,,,,,,,,,,,,,,,,,
6647687c4e426658c608e92e,TCN,2024-06-24_14h43.47.245,LearnStrategy,2023.2.3,Win32,75.18796992,,,,,,,,,,,7,15,6,3,,,,,,,,,,,,,,,,,,,,,,,,,,,,,
6647687c4e426658c608e92e,TCN,2024-06-24_14h43.47.245,LearnStrategy,2023.2.3,Win32,75.18796992,,,,,,,,,,,6,13,6,4,,,,,,,,,,,,,,,,,,,,,,,,,,,,,
6647687c4e426658c608e92e,TCN,2024-06-24_14h43.47.245,LearnStrategy,2023.2.3,Win32,75.18796992,,,,,,,,,,,8,10,6,5,,,,,,,,,,,,,,,,,,,,,,,,,,,,,
6647687c4e426658c608e92e,TCN,2024-06-24_14h43.47.245,LearnStrategy,2023.2.3,Win32,75.18796992,,,,,,,,,,,1,06,6,6,,,,,,,,,,,,,,,,,,,,,,,,,,,,,
6647687c4e426658c608e92e,TCN,2024-06-24_14h43.47.245,LearnStrategy,2023.2.3,Win32,75.18796992,,,,,,,,,,,3,14,6,7,,,,,,,,,,,,,,,,,,,,,,,,,,,,,
6647687c4e426658c608e92e,TCN,2024-06-24_14h43.47.245,LearnStrategy,2023.2.3,Win32,75.18796992,,,,,,,,,,,7,07,6,8,,,,,,,,,,,,,,,,,,,,,,,,,,,,,