participant,condition,date,expName,psychopyVersion,OS,frameRate,block,phase,trial,learn_mouse_2.x,learn_mouse_2.y,learn_mouse_2.leftButton,learn_mouse_2.midButton,learn_mouse_2.rightButton,learn_mouse_2.time,learn_mouse_2.clicked_name,cat,token,row,col,t_select,cat_mouse_l.x,cat_mouse_l.y,cat_mouse_l.leftButton,cat_mouse_l.midButton,cat_mouse_l.rightButton,cat_mouse_l.time,cat_mouse_l.clicked_name,resp,t_resp,corr,train_trials.thisRepN,train_trials.thisTrialN,train_trials.thisN,train_trials.thisIndex,train_trials.ran,cat_mouse_t.x,cat_mouse_t.y,cat_mouse_t.leftButton,cat_mouse_t.midButton,cat_mouse_t.rightButton,cat_mouse_t.time,cat_mouse_t.clicked_name,test_trials.thisRepN,test_trials.thisTrialN,test_trials.thisN,test_trials.thisIndex,test_trials.ran,Bonus
66491e9882aaa64c5d0911d5,TCN,2024-06-24_17h33.04.185,LearnStrategy,2023.2.3,Win32,59.88023952,,,,,,,,,,,,,,,,,,,,,,,,,,,,,,,,,,,,,,,,,,,
66491e9882aaa64c5d0911d5,TCN,2024-06-24_17h33.04.185,LearnStrategy,2023.2.3,Win32,59.88023952,1,1,1,-0.009259259,0.002777778,1,0,0,6.294,rock_grid_rect_2,7,10,-1,-1,6.294,-0.165740741,-0.261111111,1,0,0,15.3347,Basalt_rect,2,15.335,0,0,0,0,0,1,,,,,,,,,,,,,
66491e9882aaa64c5d0911d5,TCN,2024-06-24_17h33.04.185,LearnStrategy,2023.2.3,Win32,59.88023952,1,1,2,0.025,0.002777778,1,0,0,2.4327,rock_grid_rect_2,1,10,-1,-1,2.433,-0.131481481,-0.416666667,1,0,0,7.7337,Pegmatite_rect,6,7.734,0,1,0,1,0,1,,,,,,,,,,,,,
66491e9882aaa64c5d0911d5,TCN,2024-06-24_17h33.04.185,LearnStrategy,2023.2.3,Win32,59.88023952,1,1,3,-0.02962963,-0.00462963,1,0,0,1.2464,rock_grid_rect_2,3,11,-1,-1,1.246,-0.099074074,-0.255555556,1,0,0,6.3847,Basalt_rect,2,6.385,0,2,0,2,0,1,,,,,,,,,,,,,
66491e9882aaa64c5d0911d5,TCN,2024-06-24_17h33.04.185,LearnStrategy,2023.2.3,Win32,59.88023952,1,1,4,0.013888889,-0.007407407,1,0,0,2.4603,rock_grid_rect_2,3,07,-1,-1,2.46,-0.15,-0.25462963,1,0,0,10.9979,Basalt_rect,2,10.998,0,3,0,3,0,1,,,,,,,,,,,,,
66491e9882aaa64c5d0911d5,TCN,2024-06-24_17h33.04.185,LearnStrategy,2023.2.3,Win32,59.88023952,1,1,5,-0.061111111,0.002777778,1,0,0,1.3012,rock_grid_rect_2,5,06,-1,-1,1.301,-0.418518519,-0.414814815,1,0,0,4.5494,Obsidian_rect,5,4.549,1,4,0,4,0,1,,,,,,,,,,,,,
66491e9882aaa64c5d0911d5,TCN,2024-06-24_17h33.04.185,LearnStrategy,2023.2.3,Win32,59.88023952,1,1,6,-0.036111111,-0.017592593,1,0,0,1.5452,rock_grid_rect_2,7,14,-1,-1,1.545,0.403703704,-0.252777778,1,0,0,8.3861,Gabbro_rect,4,8.386,0,5,0,5,0,1,,,,,,,,,,,,,
66491e9882aaa64c5d0911d5,TCN,2024-06-24_17h33.04.185,LearnStrategy,2023.2.3,Win32,59.88023952,1,1,7,-0.062037037,0.013888889,1,0,0,1.4444,rock_grid_rect_2,8,03,-1,-1,1.444,0.340740741,-0.401851852,1,0,0,2.0518,Pumice_rect,8,2.052,1,6,0,6,0,1,,,,,,,,,,,,,
66491e9882aaa64c5d0911d5,TCN,2024-06-24_17h33.04.185,LearnStrategy,2023.2.3,Win32,59.88023952,1,1,8,-0.058333333,-0.014814815,1,0,0,1.1855,rock_grid_rect_2,2,08,-1,-1,1.185,-0.391666667,-0.401851852,1,0,0,4.4725,Obsidian_rect,5,4.472,0,7,0,7,0,1,,,,,,,,,,,,,
66491e9882aaa64c5d0911d5,TCN,2024-06-24_17h33.04.185,LearnStrategy,2023.2.3,Win32,59.88023952,1,1,9,-0.049074074,-0.006481481,1,0,0,1.1182,rock_grid_rect_2,5,09,-1,-1,1.118,-0.416666667,-0.391666667,1,0,0,7.2807,Obsidian_rect,5,7.281,1,8,0,8,0,1,,,,,,,,,,,,,
66491e9882aaa64c5d0911d5,TCN,2024-06-24_17h33.04.185,LearnStrategy,2023.2.3,Win32,59.88023952,1,1,10,0.000925926,-0.002777778,1,0,0,1.0678,rock_grid_rect_2,6,09,-1,-1,1.068,0.09537037,-0.414814815,1,0,0,10.6026,Peridotite_rect,7,10.603,0,9,0,9,0,1,,,,,,,,,,,,,
66491e9882aaa64c5d0911d5,TCN,2024-06-24_17h33.04.185,LearnStrategy,2023.2.3,Win32,59.88023952,1,1,11,-0.037962963,0.002777778,1,0,0,1.0498,rock_grid_rect_2,8,09,-1,-1,1.05,0.472222222,-0.42037037,1,0,0,7.2635,Pumice_rect,8,7.264,1,10,0,10,0,1,,,,,,,,,,,,,
66491e9882aaa64c5d0911d5,TCN,2024-06-24_17h33.04.185,LearnStrategy,2023.2.3,Win32,59.88023952,1,1,12,-0.088888889,-0.003703704,1,0,0,1.8687,rock_grid_rect_2,2,10,-1,-1,1.869,-0.423148148,-0.386111111,1,0,0,4.6161,Obsidian_rect,5,4.616,0,11,0,11,0,1,,,,,,,,,,,,,
66491e9882aaa64c5d0911d5,TCN,2024-06-24_17h33.04.185,LearnStrategy,2023.2.3,Win32,59.88023952,1,1,13,-0.047222222,-0.013888889,1,0,0,1.2327,rock_grid_rect_2,4,16,-1,-1,1.233,-0.15,-0.266666667,1,0,0,4.688,Basalt_rect,2,4.688,0,12,0,12,0,1,,,,,,,,,,,,,
66491e9882aaa64c5d0911d5,TCN,2024-06-24_17h33.04.185,LearnStrategy,2023.2.3,Win32,59.88023952,1,1,14,-0.039814815,0.002777778,1,0,0,1.1435,rock_grid_rect_2,6,13,-1,-1,1.144,0.058333333,-0.397222222,1,0,0,16.325,Peridotite_rect,7,16.325,0,13,0,13,0,1,,,,,,,,,,,,,
66491e9882aaa64c5d0911d5,TCN,2024-06-24_17h33.04.185,LearnStrategy,2023.2.3,Win32,59.88023952,1,1,15,-0.082407407,0.013888889,1,0,0,1.5342,rock_grid_rect_2,1,03,-1,-1,1.534,0.091666667,-0.243518519,1,0,0,10.0161,Diorite_rect,3,10.016,0,14,0,14,0,1,,,,,,,,,,,,,
66491e9882aaa64c5d0911d5,TCN,2024-06-24_17h33.04.185,LearnStrategy,2023.2.3,Win32,59.88023952,1,1,16,-0.047222222,-0.011111111,1,0,0,1.3268,rock_grid_rect_2,4,03,-1,-1,1.327,-0.405555556,-0.263888889,1,0,0,11.6627,Andesite_rect,1,11.663,0,15,0,15,0,1,,,,,,,,,,,,,
66491e9882aaa64c5d0911d5,TCN,2024-06-24_17h33.04.185,LearnStrategy,2023.2.3,Win32,59.88023952,1,2,1,,,,,,,,1,11,,,,,,,,,,,1,30.225,1,,,,,,-0.424074074,-0.248148148,1,0,0,30.2253,Andesite_rect,0,0,0,0,1,
66491e9882aaa64c5d0911d5,TCN,2024-06-24_17h33.04.185,LearnStrategy,2023.2.3,Win32,59.88023952,1,2,2,,,,,,,,4,14,,,,,,,,,,,4,19.63,1,,,,,,0.387962963,-0.244444444,1,0,0,19.6298,Gabbro_rect,1,0,1,0,1,
66491e9882aaa64c5d0911d5,TCN,2024-06-24_17h33.04.185,LearnStrategy,2023.2.3,Win32,59.88023952,1,2,3,,,,,,,,2,14,,,,,,,,,,,4,19.038,0,,,,,,0.392592593,-0.255555556,1,0,0,19.0377,Gabbro_rect,2,0,2,0,1,
66491e9882aaa64c5d0911d5,TCN,2024-06-24_17h33.04.185,LearnStrategy,2023.2.3,Win32,59.88023952,1,2,4,,,,,,,,7,02,,,,,,,,,,,7,16.808,1,,,,,,0.1,-0.4,1,0,0,16.8077,Peridotite_rect,3,0,3,0,1,
66491e9882aaa64c5d0911d5,TCN,2024-06-24_17h33.04.185,LearnStrategy,2023.2.3,Win32,59.88023952,1,2,5,,,,,,,,5,11,,,,,,,,,,,5,4.754,1,,,,,,-0.392592593,-0.394444444,1,0,0,4.7535,Obsidian_rect,4,0,4,0,1,
66491e9882aaa64c5d0911d5,TCN,2024-06-24_17h33.04.185,LearnStrategy,2023.2.3,Win32,59.88023952,1,2,6,,,,,,,,6,06,,,,,,,,,,,6,7.328,1,,,,,,-0.15,-0.417592593,1,0,0,7.328,Pegmatite_rect,5,0,5,0,1,
66491e9882aaa64c5d0911d5,TCN,2024-06-24_17h33.04.185,LearnStrategy,2023.2.3,Win32,59.88023952,1,2,7,,,,,,,,1,01,,,,,,,,,,,2,24.145,0,,,,,,-0.066666667,-0.271296296,1,0,0,24.1451,Basalt_rect,6,0,6,0,1,
66491e9882aaa64c5d0911d5,TCN,2024-06-24_17h33.04.185,LearnStrategy,2023.2.3,Win32,59.88023952,1,2,8,,,,,,,,3,16,,,,,,,,,,,3,12.096,1,,,,,,0.12037037,-0.261111111,1,0,0,12.0955,Diorite_rect,7,0,7,0,1,
66491e9882aaa64c5d0911d5,TCN,2024-06-24_17h33.04.185,LearnStrategy,2023.2.3,Win32,59.88023952,1,2,9,,,,,,,,2,04,,,,,,,,,,,2,18.189,1,,,,,,-0.116666667,-0.260185185,1,0,0,18.1885,Basalt_rect,8,0,8,0,1,
66491e9882aaa64c5d0911d5,TCN,2024-06-24_17h33.04.185,LearnStrategy,2023.2.3,Win32,59.88023952,1,2,10,,,,,,,,6,08,,,,,,,,,,,6,19.319,1,,,,,,-0.172222222,-0.385185185,1,0,0,19.3189,Pegmatite_rect,9,0,9,0,1,
66491e9882aaa64c5d0911d5,TCN,2024-06-24_17h33.04.185,LearnStrategy,2023.2.3,Win32,59.88023952,1,2,11,,,,,,,,8,10,,,,,,,,,,,8,2.367,1,,,,,,0.376851852,-0.414814815,1,0,0,2.3671,Pumice_rect,10,0,10,0,1,
66491e9882aaa64c5d0911d5,TCN,2024-06-24_17h33.04.185,LearnStrategy,2023.2.3,Win32,59.88023952,1,2,12,,,,,,,,5,14,,,,,,,,,,,5,3.344,1,,,,,,-0.409259259,-0.413888889,1,0,0,3.344,Obsidian_rect,11,0,11,0,1,
66491e9882aaa64c5d0911d5,TCN,2024-06-24_17h33.04.185,LearnStrategy,2023.2.3,Win32,59.88023952,1,2,13,,,,,,,,4,13,,,,,,,,,,,6,30.06,0,,,,,,-0.180555556,-0.396296296,1,0,0,30.0604,Pegmatite_rect,12,0,12,0,1,
66491e9882aaa64c5d0911d5,TCN,2024-06-24_17h33.04.185,LearnStrategy,2023.2.3,Win32,59.88023952,1,2,14,,,,,,,,8,02,,,,,,,,,,,8,2.704,1,,,,,,0.368518519,-0.406481481,1,0,0,2.7036,Pumice_rect,13,0,13,0,1,
66491e9882aaa64c5d0911d5,TCN,2024-06-24_17h33.04.185,LearnStrategy,2023.2.3,Win32,59.88023952,1,2,15,,,,,,,,3,12,,,,,,,,,,,7,33.25,0,,,,,,0.094444444,-0.416666667,1,0,0,33.2505,Peridotite_rect,14,0,14,0,1,
66491e9882aaa64c5d0911d5,TCN,2024-06-24_17h33.04.185,LearnStrategy,2023.2.3,Win32,59.88023952,1,2,16,,,,,,,,7,13,,,,,,,,,,,7,17.037,1,,,,,,0.102777778,-0.412962963,1,0,0,17.0371,Peridotite_rect,15,0,15,0,1,
66491e9882aaa64c5d0911d5,TCN,2024-06-24_17h33.04.185,LearnStrategy,2023.2.3,Win32,59.88023952,2,1,1,-0.048148148,-0.005555556,1,0,0,1.9312,rock_grid_rect_2,2,02,-1,-1,1.931,-0.45,-0.242592593,1,0,0,19.4634,Andesite_rect,1,19.463,0,0,0,0,0,1,,,,,,,,,,,,,
66491e9882aaa64c5d0911d5,TCN,2024-06-24_17h33.04.185,LearnStrategy,2023.2.3,Win32,59.88023952,2,1,2,-0.042592593,0.012037037,1,0,0,1.0785,rock_grid_rect_2,4,10,-1,-1,1.079,0.356481481,-0.261111111,1,0,0,18.4902,Gabbro_rect,4,18.49,1,1,0,1,0,1,,,,,,,,,,,,,
66491e9882aaa64c5d0911d5,TCN,2024-06-24_17h33.04.185,LearnStrategy,2023.2.3,Win32,59.88023952,2,1,3,-0.021296296,0.012962963,1,0,0,1.1127,rock_grid_rect_2,1,06,-1,-1,1.113,-0.419444444,-0.264814815,1,0,0,6.6522,Andesite_rect,1,6.652,1,2,0,2,0,1,,,,,,,,,,,,,
66491e9882aaa64c5d0911d5,TCN,2024-06-24_17h33.04.185,LearnStrategy,2023.2.3,Win32,59.88023952,2,1,4,-0.02962963,-0.015740741,1,0,0,2.0918,rock_grid_rect_2,7,05,-1,-1,2.092,0.059259259,-0.414814815,1,0,0,11.3146,Peridotite_rect,7,11.315,1,3,0,3,0,1,,,,,,,,,,,,,
66491e9882aaa64c5d0911d5,TCN,2024-06-24_17h33.04.185,LearnStrategy,2023.2.3,Win32,59.88023952,2,1,5,-0.027777778,0.012037037,1,0,0,0.9468,rock_grid_rect_2,4,01,-1,-1,0.947,-0.143518519,-0.399074074,1,0,0,12.1232,Pegmatite_rect,6,12.123,0,4,0,4,0,1,,,,,,,,,,,,,
66491e9882aaa64c5d0911d5,TCN,2024-06-24_17h33.04.185,LearnStrategy,2023.2.3,Win32,59.88023952,2,1,6,-0.056481481,0.001851852,1,0,0,1.3367,rock_grid_rect_2,5,10,-1,-1,1.337,-0.406481481,-0.400925926,1,0,0,5.0217,Obsidian_rect,5,5.022,1,5,0,5,0,1,,,,,,,,,,,,,
66491e9882aaa64c5d0911d5,TCN,2024-06-24_17h33.04.185,LearnStrategy,2023.2.3,Win32,59.88023952,2,1,7,-0.050925926,-0.005555556,1,0,0,0.9799,rock_grid_rect_2,6,03,-1,-1,0.98,-0.190740741,-0.418518519,1,0,0,23.2871,Pegmatite_rect,6,23.287,1,6,0,6,0,1,,,,,,,,,,,,,
66491e9882aaa64c5d0911d5,TCN,2024-06-24_17h33.04.185,LearnStrategy,2023.2.3,Win32,59.88023952,2,1,8,-0.032407407,0.014814815,1,0,0,1.0629,rock_grid_rect_2,8,06,-1,-1,1.063,0.367592593,-0.412037037,1,0,0,3.8519,Pumice_rect,8,3.852,1,7,0,7,0,1,,,,,,,,,,,,,
66491e9882aaa64c5d0911d5,TCN,2024-06-24_17h33.04.185,LearnStrategy,2023.2.3,Win32,59.88023952,2,1,9,-0.074074074,0.000925926,1,0,0,1.1083,rock_grid_rect_2,6,12,-1,-1,1.108,-0.413888889,-0.244444444,1,0,0,13.2683,Andesite_rect,1,13.268,0,8,0,8,0,1,,,,,,,,,,,,,
66491e9882aaa64c5d0911d5,TCN,2024-06-24_17h33.04.185,LearnStrategy,2023.2.3,Win32,59.88023952,2,1,10,-0.044444444,-0.001851852,1,0,0,0.9947,rock_grid_rect_2,7,12,-1,-1,0.995,0.066666667,-0.402777778,1,0,0,2.9049,Peridotite_rect,7,2.905,1,9,0,9,0,1,,,,,,,,,,,,,
66491e9882aaa64c5d0911d5,TCN,2024-06-24_17h33.04.185,LearnStrategy,2023.2.3,Win32,59.88023952,2,1,11,-0.061111111,-0.010185185,1,0,0,1.0791,rock_grid_rect_2,2,01,-1,-1,1.079,-0.098148148,-0.244444444,1,0,0,7.1706,Basalt_rect,2,7.171,1,10,0,10,0,1,,,,,,,,,,,,,
66491e9882aaa64c5d0911d5,TCN,2024-06-24_17h33.04.185,LearnStrategy,2023.2.3,Win32,59.88023952,2,1,12,-0.027777778,-0.001851852,1,0,0,1.13,rock_grid_rect_2,3,14,-1,-1,1.13,0.340740741,-0.253703704,1,0,0,6.5336,Gabbro_rect,4,6.534,0,11,0,11,0,1,,,,,,,,,,,,,
66491e9882aaa64c5d0911d5,TCN,2024-06-24_17h33.04.185,LearnStrategy,2023.2.3,Win32,59.88023952,2,1,13,-0.098148148,-0.016666667,1,0,0,1.0855,rock_grid_rect_2,3,13,-1,-1,1.085,-0.163888889,-0.405555556,1,0,0,7.8601,Pegmatite_rect,6,7.86,0,12,0,12,0,1,,,,,,,,,,,,,
66491e9882aaa64c5d0911d5,TCN,2024-06-24_17h33.04.185,LearnStrategy,2023.2.3,Win32,59.88023952,2,1,14,-0.015740741,-0.001851852,1,0,0,1.0868,rock_grid_rect_2,1,09,-1,-1,1.087,0.351851852,-0.25,1,0,0,8.7163,Gabbro_rect,4,8.716,0,13,0,13,0,1,,,,,,,,,,,,,
66491e9882aaa64c5d0911d5,TCN,2024-06-24_17h33.04.185,LearnStrategy,2023.2.3,Win32,59.88023952,2,1,15,-0.076851852,0.002777778,1,0,0,1.0972,rock_grid_rect_2,5,12,-1,-1,1.097,-0.433333333,-0.407407407,1,0,0,1.8016,Obsidian_rect,5,1.802,1,14,0,14,0,1,,,,,,,,,,,,,
66491e9882aaa64c5d0911d5,TCN,2024-06-24_17h33.04.185,LearnStrategy,2023.2.3,Win32,59.88023952,2,1,16,-0.000925926,0.018518519,1,0,0,0.9472,rock_grid_rect_2,8,16,-1,-1,0.947,0.374074074,-0.402777778,1,0,0,13.9316,Pumice_rect,8,13.932,1,15,0,15,0,1,,,,,,,,,,,,,
66491e9882aaa64c5d0911d5,TCN,2024-06-24_17h33.04.185,LearnStrategy,2023.2.3,Win32,59.88023952,2,2,1,,,,,,,,6,07,,,,,,,,,,,6,11.421,1,,,,,,-0.113888889,-0.408333333,1,0,0,11.4214,Pegmatite_rect,0,0,0,0,1,
66491e9882aaa64c5d0911d5,TCN,2024-06-24_17h33.04.185,LearnStrategy,2023.2.3,Win32,59.88023952,2,2,2,,,,,,,,7,16,,,,,,,,,,,6,11.133,0,,,,,,-0.196296296,-0.39537037,1,0,0,11.1333,Pegmatite_rect,1,0,1,0,1,
66491e9882aaa64c5d0911d5,TCN,2024-06-24_17h33.04.185,LearnStrategy,2023.2.3,Win32,59.88023952,2,2,3,,,,,,,,8,08,,,,,,,,,,,8,2.185,1,,,,,,0.389814815,-0.397222222,1,0,0,2.1848,Pumice_rect,2,0,2,0,1,
66491e9882aaa64c5d0911d5,TCN,2024-06-24_17h33.04.185,LearnStrategy,2023.2.3,Win32,59.88023952,2,2,4,,,,,,,,8,04,,,,,,,,,,,8,1.316,1,,,,,,0.383333333,-0.408333333,1,0,0,1.316,Pumice_rect,3,0,3,0,1,
66491e9882aaa64c5d0911d5,TCN,2024-06-24_17h33.04.185,LearnStrategy,2023.2.3,Win32,59.88023952,2,2,5,,,,,,,,5,04,,,,,,,,,,,5,1.517,1,,,,,,-0.398148148,-0.39537037,1,0,0,1.5173,Obsidian_rect,4,0,4,0,1,
66491e9882aaa64c5d0911d5,TCN,2024-06-24_17h33.04.185,LearnStrategy,2023.2.3,Win32,59.88023952,2,2,6,,,,,,,,5,08,,,,,,,,,,,5,1.366,1,,,,,,-0.405555556,-0.406481481,1,0,0,1.3661,Obsidian_rect,5,0,5,0,1,
66491e9882aaa64c5d0911d5,TCN,2024-06-24_17h33.04.185,LearnStrategy,2023.2.3,Win32,59.88023952,2,2,7,,,,,,,,4,09,,,,,,,,,,,2,2.464,0,,,,,,-0.196296296,-0.25462963,1,0,0,2.4638,Basalt_rect,6,0,6,0,1,
66491e9882aaa64c5d0911d5,TCN,2024-06-24_17h33.04.185,LearnStrategy,2023.2.3,Win32,59.88023952,2,2,8,,,,,,,,4,08,,,,,,,,,,,2,1.571,0,,,,,,-0.14537037,-0.257407407,1,0,0,1.5705,Basalt_rect,7,0,7,0,1,
66491e9882aaa64c5d0911d5,TCN,2024-06-24_17h33.04.185,LearnStrategy,2023.2.3,Win32,59.88023952,2,2,9,,,,,,,,2,09,,,,,,,,,,,1,12.804,0,,,,,,-0.387037037,-0.262037037,1,0,0,12.8042,Andesite_rect,8,0,8,0,1,
66491e9882aaa64c5d0911d5,TCN,2024-06-24_17h33.04.185,LearnStrategy,2023.2.3,Win32,59.88023952,2,2,10,,,,,,,,1,16,,,,,,,,,,,6,5.888,0,,,,,,-0.143518519,-0.409259259,1,0,0,5.8878,Pegmatite_rect,9,0,9,0,1,
66491e9882aaa64c5d0911d5,TCN,2024-06-24_17h33.04.185,LearnStrategy,2023.2.3,Win32,59.88023952,2,2,11,,,,,,,,3,02,,,,,,,,,,,3,11.086,1,,,,,,0.12037037,-0.257407407,1,0,0,11.0855,Diorite_rect,10,0,10,0,1,
66491e9882aaa64c5d0911d5,TCN,2024-06-24_17h33.04.185,LearnStrategy,2023.2.3,Win32,59.88023952,2,2,12,,,,,,,,1,04,,,,,,,,,,,6,13.917,0,,,,,,-0.128703704,-0.408333333,1,0,0,13.9165,Pegmatite_rect,11,0,11,0,1,
66491e9882aaa64c5d0911d5,TCN,2024-06-24_17h33.04.185,LearnStrategy,2023.2.3,Win32,59.88023952,2,2,13,,,,,,,,7,06,,,,,,,,,,,7,2.132,1,,,,,,0.125,-0.409259259,1,0,0,2.1325,Peridotite_rect,12,0,12,0,1,
66491e9882aaa64c5d0911d5,TCN,2024-06-24_17h33.04.185,LearnStrategy,2023.2.3,Win32,59.88023952,2,2,14,,,,,,,,6,10,,,,,,,,,,,7,5.007,0,,,,,,0.124074074,-0.410185185,1,0,0,5.0066,Peridotite_rect,13,0,13,0,1,
66491e9882aaa64c5d0911d5,TCN,2024-06-24_17h33.04.185,LearnStrategy,2023.2.3,Win32,59.88023952,2,2,15,,,,,,,,3,15,,,,,,,,,,,6,13.23,0,,,,,,-0.160185185,-0.412037037,1,0,0,13.2304,Pegmatite_rect,14,0,14,0,1,
66491e9882aaa64c5d0911d5,TCN,2024-06-24_17h33.04.185,LearnStrategy,2023.2.3,Win32,59.88023952,2,2,16,,,,,,,,2,11,,,,,,,,,,,3,8.848,0,,,,,,0.148148148,-0.253703704,1,0,0,8.8484,Diorite_rect,15,0,15,0,1,
66491e9882aaa64c5d0911d5,TCN,2024-06-24_17h33.04.185,LearnStrategy,2023.2.3,Win32,59.88023952,3,1,1,0.00462963,0.00462963,1,0,0,1.548,rock_grid_rect_2,5,05,-1,-1,1.548,-0.430555556,-0.417592593,1,0,0,1.3886,Obsidian_rect,5,1.389,1,0,0,0,0,1,,,,,,,,,,,,,
66491e9882aaa64c5d0911d5,TCN,2024-06-24_17h33.04.185,LearnStrategy,2023.2.3,Win32,59.88023952,3,1,2,-0.047222222,0.000925926,1,0,0,1.1978,rock_grid_rect_2,1,14,-1,-1,1.198,0.146296296,-0.244444444,1,0,0,18.3321,Diorite_rect,3,18.332,0,1,0,1,0,1,,,,,,,,,,,,,
66491e9882aaa64c5d0911d5,TCN,2024-06-24_17h33.04.185,LearnStrategy,2023.2.3,Win32,59.88023952,3,1,3,-0.013888889,0.000925926,1,0,0,1.464,rock_grid_rect_2,7,08,-1,-1,1.464,0.09537037,-0.397222222,1,0,0,2.7643,Peridotite_rect,7,2.764,1,2,0,2,0,1,,,,,,,,,,,,,
66491e9882aaa64c5d0911d5,TCN,2024-06-24_17h33.04.185,LearnStrategy,2023.2.3,Win32,59.88023952,3,1,4,-0.024074074,-0.009259259,1,0,0,1.5301,rock_grid_rect_2,7,04,-1,-1,1.53,-0.106481481,-0.393518519,1,0,0,19.3324,Pegmatite_rect,6,19.332,0,3,0,3,0,1,,,,,,,,,,,,,
66491e9882aaa64c5d0911d5,TCN,2024-06-24_17h33.04.185,LearnStrategy,2023.2.3,Win32,59.88023952,3,1,5,-0.04537037,0,1,0,0,1.3085,rock_grid_rect_2,8,14,-1,-1,1.308,0.408333333,-0.403703704,1,0,0,1.3982,Pumice_rect,8,1.398,1,4,0,4,0,1,,,,,,,,,,,,,
66491e9882aaa64c5d0911d5,TCN,2024-06-24_17h33.04.185,LearnStrategy,2023.2.3,Win32,59.88023952,3,1,6,-0.039814815,-0.008333333,1,0,0,1.1809,rock_grid_rect_2,4,15,-1,-1,1.181,-0.148148148,-0.397222222,1,0,0,10.0669,Pegmatite_rect,6,10.067,0,5,0,5,0,1,,,,,,,,,,,,,
66491e9882aaa64c5d0911d5,TCN,2024-06-24_17h33.04.185,LearnStrategy,2023.2.3,Win32,59.88023952,3,1,7,-0.044444444,0.00462963,1,0,0,1.4654,rock_grid_rect_2,1,02,-1,-1,1.465,0.119444444,-0.24537037,1,0,0,11.103,Diorite_rect,3,11.103,0,6,0,6,0,1,,,,,,,,,,,,,
66491e9882aaa64c5d0911d5,TCN,2024-06-24_17h33.04.185,LearnStrategy,2023.2.3,Win32,59.88023952,3,1,8,-0.023148148,0.000925926,1,0,0,1.2352,rock_grid_rect_2,6,11,-1,-1,1.235,-0.14537037,-0.400925926,1,0,0,6.5829,Pegmatite_rect,6,6.583,1,7,0,7,0,1,,,,,,,,,,,,,
66491e9882aaa64c5d0911d5,TCN,2024-06-24_17h33.04.185,LearnStrategy,2023.2.3,Win32,59.88023952,3,1,9,-0.04537037,-0.02037037,1,0,0,1.1372,rock_grid_rect_2,5,02,-1,-1,1.137,-0.425925926,-0.414814815,1,0,0,1.4466,Obsidian_rect,5,1.447,1,8,0,8,0,1,,,,,,,,,,,,,
66491e9882aaa64c5d0911d5,TCN,2024-06-24_17h33.04.185,LearnStrategy,2023.2.3,Win32,59.88023952,3,1,10,-0.02962963,-0.000925926,1,0,0,1.1314,rock_grid_rect_2,6,16,-1,-1,1.131,-0.146296296,-0.42037037,1,0,0,9.6338,Pegmatite_rect,6,9.634,1,9,0,9,0,1,,,,,,,,,,,,,
66491e9882aaa64c5d0911d5,TCN,2024-06-24_17h33.04.185,LearnStrategy,2023.2.3,Win32,59.88023952,3,1,11,-0.036111111,0.001851852,1,0,0,1.1744,rock_grid_rect_2,3,06,-1,-1,1.174,0.127777778,-0.25462963,1,0,0,5.7253,Diorite_rect,3,5.725,1,10,0,10,0,1,,,,,,,,,,,,,
66491e9882aaa64c5d0911d5,TCN,2024-06-24_17h33.04.185,LearnStrategy,2023.2.3,Win32,59.88023952,3,1,12,-0.068518519,-0.008333333,1,0,0,1.2254,rock_grid_rect_2,2,06,-1,-1,1.225,-0.169444444,-0.235185185,1,0,0,7.0084,Basalt_rect,2,7.008,1,11,0,11,0,1,,,,,,,,,,,,,
66491e9882aaa64c5d0911d5,TCN,2024-06-24_17h33.04.185,LearnStrategy,2023.2.3,Win32,59.88023952,3,1,13,-0.037037037,0.002777778,1,0,0,1.1133,rock_grid_rect_2,4,05,-1,-1,1.113,0.418518519,-0.25,1,0,0,17.0031,Gabbro_rect,4,17.003,1,12,0,12,0,1,,,,,,,,,,,,,
66491e9882aaa64c5d0911d5,TCN,2024-06-24_17h33.04.185,LearnStrategy,2023.2.3,Win32,59.88023952,3,1,14,-0.107407407,-0.008333333,1,0,0,1.1924,rock_grid_rect_2,8,13,-1,-1,1.192,0.353703704,-0.411111111,1,0,0,2.5637,Pumice_rect,8,2.564,1,13,0,13,0,1,,,,,,,,,,,,,
66491e9882aaa64c5d0911d5,TCN,2024-06-24_17h33.04.185,LearnStrategy,2023.2.3,Win32,59.88023952,3,1,15,-0.064814815,0.003703704,1,0,0,0.9965,rock_grid_rect_2,3,09,-1,-1,0.996,-0.399074074,-0.269444444,1,0,0,9.1802,Andesite_rect,1,9.18,0,14,0,14,0,1,,,,,,,,,,,,,
66491e9882aaa64c5d0911d5,TCN,2024-06-24_17h33.04.185,LearnStrategy,2023.2.3,Win32,59.88023952,3,1,16,-0.001851852,-0.012962963,1,0,0,2.3851,rock_grid_rect_2,2,16,-1,-1,2.385,-0.117592593,-0.262962963,1,0,0,3.9408,Basalt_rect,2,3.941,1,15,0,15,0,1,,,,,,,,,,,,,
66491e9882aaa64c5d0911d5,TCN,2024-06-24_17h33.04.185,LearnStrategy,2023.2.3,Win32,59.88023952,3,2,1,,,,,,,,4,12,,,,,,,,,,,1,9.248,0,,,,,,-0.440740741,-0.265740741,1,0,0,9.2479,Andesite_rect,0,0,0,0,1,
66491e9882aaa64c5d0911d5,TCN,2024-06-24_17h33.04.185,LearnStrategy,2023.2.3,Win32,59.88023952,3,2,2,,,,,,,,5,16,,,,,,,,,,,5,2.02,1,,,,,,-0.414814815,-0.385185185,1,0,0,2.0195,Obsidian_rect,1,0,1,0,1,
66491e9882aaa64c5d0911d5,TCN,2024-06-24_17h33.04.185,LearnStrategy,2023.2.3,Win32,59.88023952,3,2,3,,,,,,,,5,07,,,,,,,,,,,5,1.315,1,,,,,,-0.413888889,-0.400925926,1,0,0,1.315,Obsidian_rect,2,0,2,0,1,
66491e9882aaa64c5d0911d5,TCN,2024-06-24_17h33.04.185,LearnStrategy,2023.2.3,Win32,59.88023952,3,2,4,,,,,,,,3,10,,,,,,,,,,,3,6.638,1,,,,,,0.117592593,-0.267592593,1,0,0,6.6381,Diorite_rect,3,0,3,0,1,
66491e9882aaa64c5d0911d5,TCN,2024-06-24_17h33.04.185,LearnStrategy,2023.2.3,Win32,59.88023952,3,2,5,,,,,,,,2,05,,,,,,,,,,,2,2.688,1,,,,,,-0.137037037,-0.249074074,1,0,0,2.6878,Basalt_rect,4,0,4,0,1,
66491e9882aaa64c5d0911d5,TCN,2024-06-24_17h33.04.185,LearnStrategy,2023.2.3,Win32,59.88023952,3,2,6,,,,,,,,8,05,,,,,,,,,,,8,1.638,1,,,,,,0.398148148,-0.407407407,1,0,0,1.6382,Pumice_rect,5,0,5,0,1,
66491e9882aaa64c5d0911d5,TCN,2024-06-24_17h33.04.185,LearnStrategy,2023.2.3,Win32,59.88023952,3,2,7,,,,,,,,6,15,,,,,,,,,,,6,4.314,1,,,,,,-0.138888889,-0.4,1,0,0,4.3143,Pegmatite_rect,6,0,6,0,1,
66491e9882aaa64c5d0911d5,TCN,2024-06-24_17h33.04.185,LearnStrategy,2023.2.3,Win32,59.88023952,3,2,8,,,,,,,,8,15,,,,,,,,,,,8,1.416,1,,,,,,0.419444444,-0.408333333,1,0,0,1.4158,Pumice_rect,7,0,7,0,1,
66491e9882aaa64c5d0911d5,TCN,2024-06-24_17h33.04.185,LearnStrategy,2023.2.3,Win32,59.88023952,3,2,9,,,,,,,,6,05,,,,,,,,,,,3,13.299,0,,,,,,0.15462963,-0.246296296,1,0,0,13.2993,Diorite_rect,8,0,8,0,1,
66491e9882aaa64c5d0911d5,TCN,2024-06-24_17h33.04.185,LearnStrategy,2023.2.3,Win32,59.88023952,3,2,10,,,,,,,,2,12,,,,,,,,,,,1,13.915,0,,,,,,-0.421296296,-0.25,1,0,0,13.9146,Andesite_rect,9,0,9,0,1,
66491e9882aaa64c5d0911d5,TCN,2024-06-24_17h33.04.185,LearnStrategy,2023.2.3,Win32,59.88023952,3,2,11,,,,,,,,1,07,,,,,,,,,,,3,3.157,0,,,,,,0.121296296,-0.255555556,1,0,0,3.1568,Diorite_rect,10,0,10,0,1,
66491e9882aaa64c5d0911d5,TCN,2024-06-24_17h33.04.185,LearnStrategy,2023.2.3,Win32,59.88023952,3,2,12,,,,,,,,7,07,,,,,,,,,,,7,2.719,1,,,,,,0.083333333,-0.410185185,1,0,0,2.7194,Peridotite_rect,11,0,11,0,1,
66491e9882aaa64c5d0911d5,TCN,2024-06-24_17h33.04.185,LearnStrategy,2023.2.3,Win32,59.88023952,3,2,13,,,,,,,,7,15,,,,,,,,,,,7,0.896,1,,,,,,0.083333333,-0.407407407,1,0,0,0.8964,Peridotite_rect,12,0,12,0,1,
66491e9882aaa64c5d0911d5,TCN,2024-06-24_17h33.04.185,LearnStrategy,2023.2.3,Win32,59.88023952,3,2,14,,,,,,,,1,05,,,,,,,,,,,6,12.336,0,,,,,,-0.14537037,-0.396296296,1,0,0,12.3365,Pegmatite_rect,13,0,13,0,1,
66491e9882aaa64c5d0911d5,TCN,2024-06-24_17h33.04.185,LearnStrategy,2023.2.3,Win32,59.88023952,3,2,15,,,,,,,,4,11,,,,,,,,,,,3,9.835,0,,,,,,0.096296296,-0.248148148,1,0,0,9.8355,Diorite_rect,14,0,14,0,1,
66491e9882aaa64c5d0911d5,TCN,2024-06-24_17h33.04.185,LearnStrategy,2023.2.3,Win32,59.88023952,3,2,16,,,,,,,,3,08,,,,,,,,,,,3,9.187,1,,,,,,0.068518519,-0.261111111,1,0,0,9.1872,Diorite_rect,15,0,15,0,1,
66491e9882aaa64c5d0911d5,TCN,2024-06-24_17h33.04.185,LearnStrategy,2023.2.3,Win32,59.88023952,4,1,1,-0.097222222,-0.012037037,1,0,0,1.764,rock_grid_rect_2,4,10,-1,-1,1.764,-0.136111111,-0.241666667,1,0,0,3.5181,Basalt_rect,2,3.518,0,0,0,0,0,1,,,,,,,,,,,,,
66491e9882aaa64c5d0911d5,TCN,2024-06-24_17h33.04.185,LearnStrategy,2023.2.3,Win32,59.88023952,4,1,2,-0.05,-0.012037037,1,0,0,0.9922,rock_grid_rect_2,4,01,-1,-1,0.992,-0.136111111,-0.387962963,1,0,0,5.6552,Pegmatite_rect,6,5.655,0,1,0,1,0,1,,,,,,,,,,,,,
66491e9882aaa64c5d0911d5,TCN,2024-06-24_17h33.04.185,LearnStrategy,2023.2.3,Win32,59.88023952,4,1,3,-0.02037037,0.002777778,1,0,0,1.0469,rock_grid_rect_2,7,12,-1,-1,1.047,0.114814815,-0.403703704,1,0,0,2.4538,Peridotite_rect,7,2.454,1,2,0,2,0,1,,,,,,,,,,,,,
66491e9882aaa64c5d0911d5,TCN,2024-06-24_17h33.04.185,LearnStrategy,2023.2.3,Win32,59.88023952,4,1,4,-0.035185185,-0.001851852,1,0,0,1.2134,rock_grid_rect_2,2,16,-1,-1,1.213,-0.167592593,-0.259259259,1,0,0,1.6991,Basalt_rect,2,1.699,1,3,0,3,0,1,,,,,,,,,,,,,
66491e9882aaa64c5d0911d5,TCN,2024-06-24_17h33.04.185,LearnStrategy,2023.2.3,Win32,59.88023952,4,1,5,-0.087037037,0.016666667,1,0,0,1.347,rock_grid_rect_2,6,12,-1,-1,1.347,0.349074074,-0.268518519,1,0,0,15.2732,Gabbro_rect,4,15.273,0,4,0,4,0,1,,,,,,,,,,,,,
66491e9882aaa64c5d0911d5,TCN,2024-06-24_17h33.04.185,LearnStrategy,2023.2.3,Win32,59.88023952,4,1,6,-0.016666667,-0.012962963,1,0,0,1.0352,rock_grid_rect_2,6,13,-1,-1,1.035,0.118518519,-0.4,1,0,0,4.1122,Peridotite_rect,7,4.112,0,5,0,5,0,1,,,,,,,,,,,,,
66491e9882aaa64c5d0911d5,TCN,2024-06-24_17h33.04.185,LearnStrategy,2023.2.3,Win32,59.88023952,4,1,7,-0.063888889,-0.011111111,1,0,0,1.0185,rock_grid_rect_2,1,03,-1,-1,1.018,-0.450925926,-0.261111111,1,0,0,3.0997,Andesite_rect,1,3.1,1,6,0,6,0,1,,,,,,,,,,,,,
66491e9882aaa64c5d0911d5,TCN,2024-06-24_17h33.04.185,LearnStrategy,2023.2.3,Win32,59.88023952,4,1,8,-0.062962963,0.023148148,1,0,0,1.1086,rock_grid_rect_2,8,14,-1,-1,1.109,0.376851852,-0.421296296,1,0,0,1.2044,Pumice_rect,8,1.204,1,7,0,7,0,1,,,,,,,,,,,,,
66491e9882aaa64c5d0911d5,TCN,2024-06-24_17h33.04.185,LearnStrategy,2023.2.3,Win32,59.88023952,4,1,9,-0.040740741,-0.003703704,1,0,0,1.0917,rock_grid_rect_2,3,06,-1,-1,1.092,0.123148148,-0.257407407,1,0,0,8.3922,Diorite_rect,3,8.392,1,8,0,8,0,1,,,,,,,,,,,,,
66491e9882aaa64c5d0911d5,TCN,2024-06-24_17h33.04.185,LearnStrategy,2023.2.3,Win32,59.88023952,4,1,10,-0.056481481,0.013888889,1,0,0,1.1968,rock_grid_rect_2,3,11,-1,-1,1.197,-0.130555556,-0.397222222,1,0,0,6.5187,Pegmatite_rect,6,6.519,0,9,0,9,0,1,,,,,,,,,,,,,
66491e9882aaa64c5d0911d5,TCN,2024-06-24_17h33.04.185,LearnStrategy,2023.2.3,Win32,59.88023952,4,1,11,-0.035185185,0.005555556,1,0,0,1.9487,rock_grid_rect_2,5,09,-1,-1,1.949,-0.398148148,-0.4,1,0,0,1.414,Obsidian_rect,5,1.414,1,10,0,10,0,1,,,,,,,,,,,,,
66491e9882aaa64c5d0911d5,TCN,2024-06-24_17h33.04.185,LearnStrategy,2023.2.3,Win32,59.88023952,4,1,12,-0.005555556,-0.012962963,1,0,0,0.8813,rock_grid_rect_2,2,08,-1,-1,0.881,-0.162962963,-0.265740741,1,0,0,1.231,Basalt_rect,2,1.231,1,11,0,11,0,1,,,,,,,,,,,,,
66491e9882aaa64c5d0911d5,TCN,2024-06-24_17h33.04.185,LearnStrategy,2023.2.3,Win32,59.88023952,4,1,13,-0.033333333,0.008333333,1,0,0,1.209,rock_grid_rect_2,1,10,-1,-1,1.209,-0.40462963,-0.244444444,1,0,0,6.7919,Andesite_rect,1,6.792,1,12,0,12,0,1,,,,,,,,,,,,,
66491e9882aaa64c5d0911d5,TCN,2024-06-24_17h33.04.185,LearnStrategy,2023.2.3,Win32,59.88023952,4,1,14,-0.061111111,0.005555556,1,0,0,0.8871,rock_grid_rect_2,7,05,-1,-1,0.887,0.128703704,-0.409259259,1,0,0,2.4354,Peridotite_rect,7,2.435,1,13,0,13,0,1,,,,,,,,,,,,,
66491e9882aaa64c5d0911d5,TCN,2024-06-24_17h33.04.185,LearnStrategy,2023.2.3,Win32,59.88023952,4,1,15,-0.084259259,0,1,0,0,1.0473,rock_grid_rect_2,8,03,-1,-1,1.047,0.386111111,-0.414814815,1,0,0,1.3036,Pumice_rect,8,1.304,1,14,0,14,0,1,,,,,,,,,,,,,
66491e9882aaa64c5d0911d5,TCN,2024-06-24_17h33.04.185,LearnStrategy,2023.2.3,Win32,59.88023952,4,1,16,-0.053703704,0.010185185,1,0,0,1.1309,rock_grid_rect_2,5,02,-1,-1,1.131,-0.364814815,-0.397222222,1,0,0,1.0173,Obsidian_rect,5,1.017,1,15,0,15,0,1,,,,,,,,,,,,,
66491e9882aaa64c5d0911d5,TCN,2024-06-24_17h33.04.185,LearnStrategy,2023.2.3,Win32,59.88023952,4,2,1,,,,,,,,7,13,,,,,,,,,,,7,2.044,1,,,,,,0.147222222,-0.402777778,1,0,0,2.0444,Peridotite_rect,0,0,0,0,1,
66491e9882aaa64c5d0911d5,TCN,2024-06-24_17h33.04.185,LearnStrategy,2023.2.3,Win32,59.88023952,4,2,2,,,,,,,,4,13,,,,,,,,,,,4,8.415,1,,,,,,0.343518519,-0.244444444,1,0,0,8.4153,Gabbro_rect,1,0,1,0,1,
66491e9882aaa64c5d0911d5,TCN,2024-06-24_17h33.04.185,LearnStrategy,2023.2.3,Win32,59.88023952,4,2,3,,,,,,,,4,11,,,,,,,,,,,1,3.001,0,,,,,,-0.401851852,-0.256481481,1,0,0,3.0009,Andesite_rect,2,0,2,0,1,
66491e9882aaa64c5d0911d5,TCN,2024-06-24_17h33.04.185,LearnStrategy,2023.2.3,Win32,59.88023952,4,2,4,,,,,,,,7,16,,,,,,,,,,,7,4.064,1,,,,,,0.131481481,-0.399074074,1,0,0,4.064,Peridotite_rect,3,0,3,0,1,
66491e9882aaa64c5d0911d5,TCN,2024-06-24_17h33.04.185,LearnStrategy,2023.2.3,Win32,59.88023952,4,2,5,,,,,,,,3,12,,,,,,,,,,,6,5.449,0,,,,,,-0.143518519,-0.405555556,1,0,0,5.4489,Pegmatite_rect,4,0,4,0,1,
66491e9882aaa64c5d0911d5,TCN,2024-06-24_17h33.04.185,LearnStrategy,2023.2.3,Win32,59.88023952,4,2,6,,,,,,,,1,11,,,,,,,,,,,1,14.835,1,,,,,,-0.430555556,-0.256481481,1,0,0,14.8348,Andesite_rect,5,0,5,0,1,
66491e9882aaa64c5d0911d5,TCN,2024-06-24_17h33.04.185,LearnStrategy,2023.2.3,Win32,59.88023952,4,2,7,,,,,,,,6,07,,,,,,,,,,,6,6.896,1,,,,,,-0.144444444,-0.405555556,1,0,0,6.8959,Pegmatite_rect,6,0,6,0,1,
66491e9882aaa64c5d0911d5,TCN,2024-06-24_17h33.04.185,LearnStrategy,2023.2.3,Win32,59.88023952,4,2,8,,,,,,,,5,08,,,,,,,,,,,5,3.937,1,,,,,,-0.388888889,-0.393518519,1,0,0,3.9365,Obsidian_rect,7,0,7,0,1,
66491e9882aaa64c5d0911d5,TCN,2024-06-24_17h33.04.185,LearnStrategy,2023.2.3,Win32,59.88023952,4,2,9,,,,,,,,1,16,,,,,,,,,,,6,6.933,0,,,,,,-0.175,-0.391666667,1,0,0,6.933,Pegmatite_rect,8,0,8,0,1,
66491e9882aaa64c5d0911d5,TCN,2024-06-24_17h33.04.185,LearnStrategy,2023.2.3,Win32,59.88023952,4,2,10,,,,,,,,2,11,,,,,,,,,,,1,2.632,0,,,,,,-0.406481481,-0.269444444,1,0,0,2.6322,Andesite_rect,9,0,9,0,1,
66491e9882aaa64c5d0911d5,TCN,2024-06-24_17h33.04.185,LearnStrategy,2023.2.3,Win32,59.88023952,4,2,11,,,,,,,,5,11,,,,,,,,,,,5,1.191,1,,,,,,-0.425925926,-0.413888889,1,0,0,1.1907,Obsidian_rect,10,0,10,0,1,
66491e9882aaa64c5d0911d5,TCN,2024-06-24_17h33.04.185,LearnStrategy,2023.2.3,Win32,59.88023952,4,2,12,,,,,,,,8,15,,,,,,,,,,,8,1.136,1,,,,,,0.357407407,-0.392592593,1,0,0,1.1361,Pumice_rect,11,0,11,0,1,
66491e9882aaa64c5d0911d5,TCN,2024-06-24_17h33.04.185,LearnStrategy,2023.2.3,Win32,59.88023952,4,2,13,,,,,,,,6,10,,,,,,,,,,,7,1.851,0,,,,,,0.115740741,-0.419444444,1,0,0,1.8505,Peridotite_rect,12,0,12,0,1,
66491e9882aaa64c5d0911d5,TCN,2024-06-24_17h33.04.185,LearnStrategy,2023.2.3,Win32,59.88023952,4,2,14,,,,,,,,2,12,,,,,,,,,,,3,5.483,0,,,,,,0.109259259,-0.238888889,1,0,0,5.4834,Diorite_rect,13,0,13,0,1,
66491e9882aaa64c5d0911d5,TCN,2024-06-24_17h33.04.185,LearnStrategy,2023.2.3,Win32,59.88023952,4,2,15,,,,,,,,8,04,,,,,,,,,,,8,1.231,1,,,,,,0.365740741,-0.399074074,1,0,0,1.2309,Pumice_rect,14,0,14,0,1,
66491e9882aaa64c5d0911d5,TCN,2024-06-24_17h33.04.185,LearnStrategy,2023.2.3,Win32,59.88023952,4,2,16,,,,,,,,3,02,,,,,,,,,,,4,11.447,0,,,,,,0.39537037,-0.236111111,1,0,0,11.4465,Gabbro_rect,15,0,15,0,1,
66491e9882aaa64c5d0911d5,TCN,2024-06-24_17h33.04.185,LearnStrategy,2023.2.3,Win32,59.88023952,5,1,1,-0.060185185,0.006481481,1,0,0,1.9482,rock_grid_rect_2,1,02,-1,-1,1.948,0.093518519,-0.259259259,1,0,0,4.4084,Diorite_rect,3,4.408,0,0,0,0,0,1,,,,,,,,,,,,,
66491e9882aaa64c5d0911d5,TCN,2024-06-24_17h33.04.185,LearnStrategy,2023.2.3,Win32,59.88023952,5,1,2,0.003703704,-0.002777778,1,0,0,0.996,rock_grid_rect_2,3,09,-1,-1,0.996,0.126851852,-0.262037037,1,0,0,1.29,Diorite_rect,3,1.29,1,1,0,1,0,1,,,,,,,,,,,,,
66491e9882aaa64c5d0911d5,TCN,2024-06-24_17h33.04.185,LearnStrategy,2023.2.3,Win32,59.88023952,5,1,3,0.012962963,-0.003703704,1,0,0,1.5648,rock_grid_rect_2,6,16,-1,-1,1.565,-0.122222222,-0.392592593,1,0,0,7.5544,Pegmatite_rect,6,7.554,1,2,0,2,0,1,,,,,,,,,,,,,
66491e9882aaa64c5d0911d5,TCN,2024-06-24_17h33.04.185,LearnStrategy,2023.2.3,Win32,59.88023952,5,1,4,-0.003703704,-0.007407407,1,0,0,1.0292,rock_grid_rect_2,4,03,-1,-1,1.029,-0.423148148,-0.234259259,1,0,0,2.9136,Andesite_rect,1,2.914,0,3,0,3,0,1,,,,,,,,,,,,,
66491e9882aaa64c5d0911d5,TCN,2024-06-24_17h33.04.185,LearnStrategy,2023.2.3,Win32,59.88023952,5,1,5,-0.021296296,-0.00462963,1,0,0,1.5368,rock_grid_rect_2,5,10,-1,-1,1.537,-0.444444444,-0.405555556,1,0,0,1.1836,Obsidian_rect,5,1.184,1,4,0,4,0,1,,,,,,,,,,,,,
66491e9882aaa64c5d0911d5,TCN,2024-06-24_17h33.04.185,LearnStrategy,2023.2.3,Win32,59.88023952,5,1,6,-0.024074074,-0.006481481,1,0,0,0.8643,rock_grid_rect_2,5,06,-1,-1,0.864,-0.401851852,-0.399074074,1,0,0,1.0436,Obsidian_rect,5,1.044,1,5,0,5,0,1,,,,,,,,,,,,,
66491e9882aaa64c5d0911d5,TCN,2024-06-24_17h33.04.185,LearnStrategy,2023.2.3,Win32,59.88023952,5,1,7,-0.056481481,0.008333333,1,0,0,1.4642,rock_grid_rect_2,8,16,-1,-1,1.464,0.386111111,-0.399074074,1,0,0,1.1968,Pumice_rect,8,1.197,1,6,0,6,0,1,,,,,,,,,,,,,
66491e9882aaa64c5d0911d5,TCN,2024-06-24_17h33.04.185,LearnStrategy,2023.2.3,Win32,59.88023952,5,1,8,-0.011111111,0.010185185,1,0,0,1.1648,rock_grid_rect_2,4,15,-1,-1,1.165,0.373148148,-0.249074074,1,0,0,4.8698,Gabbro_rect,4,4.87,1,7,0,7,0,1,,,,,,,,,,,,,
66491e9882aaa64c5d0911d5,TCN,2024-06-24_17h33.04.185,LearnStrategy,2023.2.3,Win32,59.88023952,5,1,9,0.017592593,-0.017592593,1,0,0,1.542,rock_grid_rect_2,2,01,-1,-1,1.542,-0.184259259,-0.242592593,1,0,0,1.7141,Basalt_rect,2,1.714,1,8,0,8,0,1,,,,,,,,,,,,,
66491e9882aaa64c5d0911d5,TCN,2024-06-24_17h33.04.185,LearnStrategy,2023.2.3,Win32,59.88023952,5,1,10,-0.017592593,-0.008333333,1,0,0,0.9644,rock_grid_rect_2,1,06,-1,-1,0.964,0.336111111,-0.244444444,1,0,0,1.8659,Gabbro_rect,4,1.866,0,9,0,9,0,1,,,,,,,,,,,,,
66491e9882aaa64c5d0911d5,TCN,2024-06-24_17h33.04.185,LearnStrategy,2023.2.3,Win32,59.88023952,5,1,11,0.039814815,0.015740741,1,0,0,1.1092,rock_grid_rect_2,7,08,-1,-1,1.109,0.112962963,-0.389814815,1,0,0,1.6047,Peridotite_rect,7,1.605,1,10,0,10,0,1,,,,,,,,,,,,,
66491e9882aaa64c5d0911d5,TCN,2024-06-24_17h33.04.185,LearnStrategy,2023.2.3,Win32,59.88023952,5,1,12,-0.005555556,-0.016666667,1,0,0,1.1928,rock_grid_rect_2,3,13,-1,-1,1.193,-0.122222222,-0.397222222,1,0,0,4.6258,Pegmatite_rect,6,4.626,0,11,0,11,0,1,,,,,,,,,,,,,
66491e9882aaa64c5d0911d5,TCN,2024-06-24_17h33.04.185,LearnStrategy,2023.2.3,Win32,59.88023952,5,1,13,-0.053703704,-0.012037037,1,0,0,1.396,rock_grid_rect_2,7,14,-1,-1,1.396,0.073148148,-0.411111111,1,0,0,2.7451,Peridotite_rect,7,2.745,1,12,0,12,0,1,,,,,,,,,,,,,
66491e9882aaa64c5d0911d5,TCN,2024-06-24_17h33.04.185,LearnStrategy,2023.2.3,Win32,59.88023952,5,1,14,-0.017592593,-0.013888889,1,0,0,1.2299,rock_grid_rect_2,8,09,-1,-1,1.23,0.35,-0.400925926,1,0,0,1.2056,Pumice_rect,8,1.206,1,13,0,13,0,1,,,,,,,,,,,,,
66491e9882aaa64c5d0911d5,TCN,2024-06-24_17h33.04.185,LearnStrategy,2023.2.3,Win32,59.88023952,5,1,15,-0.063888889,-0.002777778,1,0,0,0.9093,rock_grid_rect_2,2,02,-1,-1,0.909,-0.175,-0.252777778,1,0,0,2.5226,Basalt_rect,2,2.523,1,14,0,14,0,1,,,,,,,,,,,,,
66491e9882aaa64c5d0911d5,TCN,2024-06-24_17h33.04.185,LearnStrategy,2023.2.3,Win32,59.88023952,5,1,16,-0.040740741,-0.002777778,1,0,0,0.9038,rock_grid_rect_2,6,11,-1,-1,0.904,-0.137037037,-0.415740741,1,0,0,2.8497,Pegmatite_rect,6,2.85,1,15,0,15,0,1,,,,,,,,,,,,,
66491e9882aaa64c5d0911d5,TCN,2024-06-24_17h33.04.185,LearnStrategy,2023.2.3,Win32,59.88023952,5,2,1,,,,,,,,1,05,,,,,,,,,,,4,5.836,0,,,,,,0.40462963,-0.262962963,1,0,0,5.8359,Gabbro_rect,0,0,0,0,1,
66491e9882aaa64c5d0911d5,TCN,2024-06-24_17h33.04.185,LearnStrategy,2023.2.3,Win32,59.88023952,5,2,2,,,,,,,,2,05,,,,,,,,,,,2,1.502,1,,,,,,-0.106481481,-0.228703704,1,0,0,1.5017,Basalt_rect,1,0,1,0,1,
66491e9882aaa64c5d0911d5,TCN,2024-06-24_17h33.04.185,LearnStrategy,2023.2.3,Win32,59.88023952,5,2,3,,,,,,,,6,15,,,,,,,,,,,6,5.753,1,,,,,,-0.140740741,-0.402777778,1,0,0,5.7525,Pegmatite_rect,2,0,2,0,1,
66491e9882aaa64c5d0911d5,TCN,2024-06-24_17h33.04.185,LearnStrategy,2023.2.3,Win32,59.88023952,5,2,4,,,,,,,,4,12,,,,,,,,,,,1,2.599,0,,,,,,-0.412962963,-0.247222222,1,0,0,2.5991,Andesite_rect,3,0,3,0,1,
66491e9882aaa64c5d0911d5,TCN,2024-06-24_17h33.04.185,LearnStrategy,2023.2.3,Win32,59.88023952,5,2,5,,,,,,,,1,04,,,,,,,,,,,4,4.774,0,,,,,,0.389814815,-0.25462963,1,0,0,4.774,Gabbro_rect,4,0,4,0,1,
66491e9882aaa64c5d0911d5,TCN,2024-06-24_17h33.04.185,LearnStrategy,2023.2.3,Win32,59.88023952,5,2,6,,,,,,,,7,06,,,,,,,,,,,7,1.576,1,,,,,,0.148148148,-0.411111111,1,0,0,1.5762,Peridotite_rect,5,0,5,0,1,
66491e9882aaa64c5d0911d5,TCN,2024-06-24_17h33.04.185,LearnStrategy,2023.2.3,Win32,59.88023952,5,2,7,,,,,,,,3,10,,,,,,,,,,,3,3.251,1,,,,,,0.14537037,-0.257407407,1,0,0,3.2507,Diorite_rect,6,0,6,0,1,
66491e9882aaa64c5d0911d5,TCN,2024-06-24_17h33.04.185,LearnStrategy,2023.2.3,Win32,59.88023952,5,2,8,,,,,,,,7,07,,,,,,,,,,,7,2.002,1,,,,,,0.118518519,-0.390740741,1,0,0,2.0018,Peridotite_rect,7,0,7,0,1,
66491e9882aaa64c5d0911d5,TCN,2024-06-24_17h33.04.185,LearnStrategy,2023.2.3,Win32,59.88023952,5,2,9,,,,,,,,3,15,,,,,,,,,,,4,4.463,0,,,,,,0.389814815,-0.247222222,1,0,0,4.4627,Gabbro_rect,8,0,8,0,1,
66491e9882aaa64c5d0911d5,TCN,2024-06-24_17h33.04.185,LearnStrategy,2023.2.3,Win32,59.88023952,5,2,10,,,,,,,,2,09,,,,,,,,,,,2,2.016,1,,,,,,-0.173148148,-0.25462963,1,0,0,2.0159,Basalt_rect,9,0,9,0,1,
66491e9882aaa64c5d0911d5,TCN,2024-06-24_17h33.04.185,LearnStrategy,2023.2.3,Win32,59.88023952,5,2,11,,,,,,,,4,08,,,,,,,,,,,3,9,0,,,,,,0.076851852,-0.265740741,1,0,0,8.9998,Diorite_rect,10,0,10,0,1,
66491e9882aaa64c5d0911d5,TCN,2024-06-24_17h33.04.185,LearnStrategy,2023.2.3,Win32,59.88023952,5,2,12,,,,,,,,6,06,,,,,,,,,,,6,2.716,1,,,,,,-0.109259259,-0.407407407,1,0,0,2.7155,Pegmatite_rect,11,0,11,0,1,
66491e9882aaa64c5d0911d5,TCN,2024-06-24_17h33.04.185,LearnStrategy,2023.2.3,Win32,59.88023952,5,2,13,,,,,,,,5,04,,,,,,,,,,,5,1.251,1,,,,,,-0.468518519,-0.405555556,1,0,0,1.2506,Obsidian_rect,12,0,12,0,1,
66491e9882aaa64c5d0911d5,TCN,2024-06-24_17h33.04.185,LearnStrategy,2023.2.3,Win32,59.88023952,5,2,14,,,,,,,,8,10,,,,,,,,,,,8,1.23,1,,,,,,0.412962963,-0.397222222,1,0,0,1.2302,Pumice_rect,13,0,13,0,1,
66491e9882aaa64c5d0911d5,TCN,2024-06-24_17h33.04.185,LearnStrategy,2023.2.3,Win32,59.88023952,5,2,15,,,,,,,,5,16,,,,,,,,,,,5,1.044,1,,,,,,-0.443518519,-0.42037037,1,0,0,1.0444,Obsidian_rect,14,0,14,0,1,
66491e9882aaa64c5d0911d5,TCN,2024-06-24_17h33.04.185,LearnStrategy,2023.2.3,Win32,59.88023952,5,2,16,,,,,,,,8,02,,,,,,,,,,,8,1.133,1,,,,,,0.365740741,-0.39537037,1,0,0,1.1325,Pumice_rect,15,0,15,0,1,
66491e9882aaa64c5d0911d5,TCN,2024-06-24_17h33.04.185,LearnStrategy,2023.2.3,Win32,59.88023952,6,1,1,-0.044444444,0.014814815,1,0,0,1.0141,rock_grid_rect_2,1,14,-1,-1,1.014,-0.144444444,-0.419444444,1,0,0,6.6776,Pegmatite_rect,6,6.678,0,0,0,0,0,1,,,,,,,,,,,,,
66491e9882aaa64c5d0911d5,TCN,2024-06-24_17h33.04.185,LearnStrategy,2023.2.3,Win32,59.88023952,6,1,2,-0.008333333,-0.006481481,1,0,0,1.1794,rock_grid_rect_2,8,13,-1,-1,1.179,0.381481481,-0.400925926,1,0,0,1.1279,Pumice_rect,8,1.128,1,1,0,1,0,1,,,,,,,,,,,,,
66491e9882aaa64c5d0911d5,TCN,2024-06-24_17h33.04.185,LearnStrategy,2023.2.3,Win32,59.88023952,6,1,3,-0.031481481,-0.011111111,1,0,0,0.798,rock_grid_rect_2,5,12,-1,-1,0.798,-0.408333333,-0.402777778,1,0,0,0.9342,Obsidian_rect,5,0.934,1,2,0,2,0,1,,,,,,,,,,,,,
66491e9882aaa64c5d0911d5,TCN,2024-06-24_17h33.04.185,LearnStrategy,2023.2.3,Win32,59.88023952,6,1,4,0.005555556,-0.012037037,1,0,0,1.0147,rock_grid_rect_2,7,10,-1,-1,1.015,0.074074074,-0.416666667,1,0,0,1.6051,Peridotite_rect,7,1.605,1,3,0,3,0,1,,,,,,,,,,,,,
66491e9882aaa64c5d0911d5,TCN,2024-06-24_17h33.04.185,LearnStrategy,2023.2.3,Win32,59.88023952,6,1,5,-0.010185185,-0.011111111,1,0,0,1.359,rock_grid_rect_2,4,16,-1,-1,1.359,-0.149074074,-0.236111111,1,0,0,1.8113,Basalt_rect,2,1.811,0,4,0,4,0,1,,,,,,,,,,,,,
66491e9882aaa64c5d0911d5,TCN,2024-06-24_17h33.04.185,LearnStrategy,2023.2.3,Win32,59.88023952,6,1,6,-0.139814815,-0.009259259,1,0,0,1.1978,rock_grid_rect_2,2,06,-1,-1,1.198,-0.167592593,-0.256481481,1,0,0,1.4444,Basalt_rect,2,1.444,1,5,0,5,0,1,,,,,,,,,,,,,
66491e9882aaa64c5d0911d5,TCN,2024-06-24_17h33.04.185,LearnStrategy,2023.2.3,Win32,59.88023952,6,1,7,-0.053703704,0,1,0,0,1.0645,rock_grid_rect_2,6,09,-1,-1,1.064,0.077777778,-0.394444444,1,0,0,1.4283,Peridotite_rect,7,1.428,0,6,0,6,0,1,,,,,,,,,,,,,
66491e9882aaa64c5d0911d5,TCN,2024-06-24_17h33.04.185,LearnStrategy,2023.2.3,Win32,59.88023952,6,1,8,-0.038888889,0.000925926,1,0,0,2.1478,rock_grid_rect_2,7,04,-1,-1,2.148,0.1,-0.412037037,1,0,0,3.7661,Peridotite_rect,7,3.766,1,7,0,7,0,1,,,,,,,,,,,,,
66491e9882aaa64c5d0911d5,TCN,2024-06-24_17h33.04.185,LearnStrategy,2023.2.3,Win32,59.88023952,6,1,9,-0.008333333,-0.006481481,1,0,0,1.2131,rock_grid_rect_2,8,06,-1,-1,1.213,0.384259259,-0.409259259,1,0,0,1.1213,Pumice_rect,8,1.121,1,8,0,8,0,1,,,,,,,,,,,,,
66491e9882aaa64c5d0911d5,TCN,2024-06-24_17h33.04.185,LearnStrategy,2023.2.3,Win32,59.88023952,6,1,10,-0.068518519,-0.009259259,1,0,0,2.6312,rock_grid_rect_2,2,10,-1,-1,2.631,-0.125925926,-0.255555556,1,0,0,3.9183,Basalt_rect,2,3.918,1,9,0,9,0,1,,,,,,,,,,,,,
66491e9882aaa64c5d0911d5,TCN,2024-06-24_17h33.04.185,LearnStrategy,2023.2.3,Win32,59.88023952,6,1,11,-0.052777778,-0.007407407,1,0,0,0.9914,rock_grid_rect_2,3,14,-1,-1,0.991,0.134259259,-0.253703704,1,0,0,5.3263,Diorite_rect,3,5.326,1,10,0,10,0,1,,,,,,,,,,,,,
66491e9882aaa64c5d0911d5,TCN,2024-06-24_17h33.04.185,LearnStrategy,2023.2.3,Win32,59.88023952,6,1,12,-0.02037037,-0.007407407,1,0,0,1.4469,rock_grid_rect_2,6,03,-1,-1,1.447,-0.146296296,-0.408333333,1,0,0,5.7861,Pegmatite_rect,6,5.786,1,11,0,11,0,1,,,,,,,,,,,,,
66491e9882aaa64c5d0911d5,TCN,2024-06-24_17h33.04.185,LearnStrategy,2023.2.3,Win32,59.88023952,6,1,13,0.019444444,0.011111111,1,0,0,2.1415,rock_grid_rect_2,3,07,-1,-1,2.142,0.087037037,-0.267592593,1,0,0,2.305,Diorite_rect,3,2.305,1,12,0,12,0,1,,,,,,,,,,,,,
66491e9882aaa64c5d0911d5,TCN,2024-06-24_17h33.04.185,LearnStrategy,2023.2.3,Win32,59.88023952,6,1,14,-0.062962963,0.006481481,1,0,0,1.1047,rock_grid_rect_2,1,09,-1,-1,1.105,-0.439814815,-0.249074074,1,0,0,1.1018,Andesite_rect,1,1.102,1,13,0,13,0,1,,,,,,,,,,,,,
66491e9882aaa64c5d0911d5,TCN,2024-06-24_17h33.04.185,LearnStrategy,2023.2.3,Win32,59.88023952,6,1,15,-0.019444444,0.000925926,1,0,0,1.4477,rock_grid_rect_2,5,05,-1,-1,1.448,-0.398148148,-0.408333333,1,0,0,1.1163,Obsidian_rect,5,1.116,1,14,0,14,0,1,,,,,,,,,,,,,
66491e9882aaa64c5d0911d5,TCN,2024-06-24_17h33.04.185,LearnStrategy,2023.2.3,Win32,59.88023952,6,1,16,-0.024074074,0.002777778,1,0,0,1.0313,rock_grid_rect_2,4,05,-1,-1,1.031,0.375925926,-0.25,1,0,0,9.8521,Gabbro_rect,4,9.852,1,15,0,15,0,1,,,,,,,,,,,,,
66491e9882aaa64c5d0911d5,TCN,2024-06-24_17h33.04.185,LearnStrategy,2023.2.3,Win32,59.88023952,6,2,1,,,,,,,,6,08,,,,,,,,,,,6,1.434,1,,,,,,-0.15,-0.40462963,1,0,0,1.4341,Pegmatite_rect,0,0,0,0,1,
66491e9882aaa64c5d0911d5,TCN,2024-06-24_17h33.04.185,LearnStrategy,2023.2.3,Win32,59.88023952,6,2,2,,,,,,,,1,07,,,,,,,,,,,3,3.936,0,,,,,,0.133333333,-0.264814815,1,0,0,3.9358,Diorite_rect,1,0,1,0,1,
66491e9882aaa64c5d0911d5,TCN,2024-06-24_17h33.04.185,LearnStrategy,2023.2.3,Win32,59.88023952,6,2,3,,,,,,,,6,05,,,,,,,,,,,6,15.499,1,,,,,,-0.125925926,-0.387962963,1,0,0,15.4986,Pegmatite_rect,2,0,2,0,1,
66491e9882aaa64c5d0911d5,TCN,2024-06-24_17h33.04.185,LearnStrategy,2023.2.3,Win32,59.88023952,6,2,4,,,,,,,,7,15,,,,,,,,,,,7,1.367,1,,,,,,0.139814815,-0.390740741,1,0,0,1.3667,Peridotite_rect,3,0,3,0,1,
66491e9882aaa64c5d0911d5,TCN,2024-06-24_17h33.04.185,LearnStrategy,2023.2.3,Win32,59.88023952,6,2,5,,,,,,,,3,08,,,,,,,,,,,3,3.435,1,,,,,,0.10462963,-0.25,1,0,0,3.435,Diorite_rect,4,0,4,0,1,
66491e9882aaa64c5d0911d5,TCN,2024-06-24_17h33.04.185,LearnStrategy,2023.2.3,Win32,59.88023952,6,2,6,,,,,,,,5,07,,,,,,,,,,,5,1.365,1,,,,,,-0.425,-0.415740741,1,0,0,1.3648,Obsidian_rect,5,0,5,0,1,
66491e9882aaa64c5d0911d5,TCN,2024-06-24_17h33.04.185,LearnStrategy,2023.2.3,Win32,59.88023952,6,2,7,,,,,,,,8,05,,,,,,,,,,,8,1.14,1,,,,,,0.392592593,-0.40462963,1,0,0,1.1402,Pumice_rect,6,0,6,0,1,
66491e9882aaa64c5d0911d5,TCN,2024-06-24_17h33.04.185,LearnStrategy,2023.2.3,Win32,59.88023952,6,2,8,,,,,,,,7,02,,,,,,,,,,,7,1.229,1,,,,,,0.102777778,-0.4,1,0,0,1.2291,Peridotite_rect,7,0,7,0,1,
66491e9882aaa64c5d0911d5,TCN,2024-06-24_17h33.04.185,LearnStrategy,2023.2.3,Win32,59.88023952,6,2,9,,,,,,,,5,14,,,,,,,,,,,5,2.202,1,,,,,,-0.406481481,-0.388888889,1,0,0,2.2018,Obsidian_rect,8,0,8,0,1,
66491e9882aaa64c5d0911d5,TCN,2024-06-24_17h33.04.185,LearnStrategy,2023.2.3,Win32,59.88023952,6,2,10,,,,,,,,1,01,,,,,,,,,,,4,4.56,0,,,,,,0.400925926,-0.248148148,1,0,0,4.5596,Gabbro_rect,9,0,9,0,1,
66491e9882aaa64c5d0911d5,TCN,2024-06-24_17h33.04.185,LearnStrategy,2023.2.3,Win32,59.88023952,6,2,11,,,,,,,,8,08,,,,,,,,,,,8,1.363,1,,,,,,0.406481481,-0.40462963,1,0,0,1.3634,Pumice_rect,10,0,10,0,1,
66491e9882aaa64c5d0911d5,TCN,2024-06-24_17h33.04.185,LearnStrategy,2023.2.3,Win32,59.88023952,6,2,12,,,,,,,,3,16,,,,,,,,,,,3,5.054,1,,,,,,0.097222222,-0.240740741,1,0,0,5.0538,Diorite_rect,11,0,11,0,1,
66491e9882aaa64c5d0911d5,TCN,2024-06-24_17h33.04.185,LearnStrategy,2023.2.3,Win32,59.88023952,6,2,13,,,,,,,,2,14,,,,,,,,,,,8,3.688,0,,,,,,0.343518519,-0.411111111,1,0,0,3.6882,Pumice_rect,12,0,12,0,1,
66491e9882aaa64c5d0911d5,TCN,2024-06-24_17h33.04.185,LearnStrategy,2023.2.3,Win32,59.88023952,6,2,14,,,,,,,,4,14,,,,,,,,,,,4,3.317,1,,,,,,0.393518519,-0.243518519,1,0,0,3.3167,Gabbro_rect,13,0,13,0,1,
66491e9882aaa64c5d0911d5,TCN,2024-06-24_17h33.04.185,LearnStrategy,2023.2.3,Win32,59.88023952,6,2,15,,,,,,,,4,09,,,,,,,,,,,4,6.202,1,,,,,,0.393518519,-0.243518519,1,0,0,6.2022,Gabbro_rect,14,0,14,0,1,
66491e9882aaa64c5d0911d5,TCN,2024-06-24_17h33.04.185,LearnStrategy,2023.2.3,Win32,59.88023952,6,2,16,,,,,,,,2,04,,,,,,,,,,,2,1.678,1,,,,,,-0.17037037,-0.234259259,1,0,0,1.6778,Basalt_rect,15,0,15,0,1,
66491e9882aaa64c5d0911d5,TCN,2024-06-24_17h33.04.185,LearnStrategy,2023.2.3,Win32,59.88023952,7,1,1,-0.063888889,0.006481481,1,0,0,1.4979,rock_grid_rect_2,1,03,-1,-1,1.498,-0.398148148,-0.258333333,1,0,0,4.2311,Andesite_rect,1,4.231,1,0,0,0,0,1,,,,,,,,,,,,,
66491e9882aaa64c5d0911d5,TCN,2024-06-24_17h33.04.185,LearnStrategy,2023.2.3,Win32,59.88023952,7,1,2,-0.024074074,0.001851852,1,0,0,1.0961,rock_grid_rect_2,5,06,-1,-1,1.096,-0.415740741,-0.4,1,0,0,1.2034,Obsidian_rect,5,1.203,1,1,0,1,0,1,,,,,,,,,,,,,
66491e9882aaa64c5d0911d5,TCN,2024-06-24_17h33.04.185,LearnStrategy,2023.2.3,Win32,59.88023952,7,1,3,-0.112037037,0.003703704,1,0,0,1.0484,rock_grid_rect_2,2,16,-1,-1,1.048,0.342592593,-0.392592593,1,0,0,2.4938,Pumice_rect,8,2.494,0,2,0,2,0,1,,,,,,,,,,,,,
66491e9882aaa64c5d0911d5,TCN,2024-06-24_17h33.04.185,LearnStrategy,2023.2.3,Win32,59.88023952,7,1,4,-0.062962963,0.009259259,1,0,0,1.2459,rock_grid_rect_2,6,09,-1,-1,1.246,-0.138888889,-0.405555556,1,0,0,3.5397,Pegmatite_rect,6,3.54,1,3,0,3,0,1,,,,,,,,,,,,,
66491e9882aaa64c5d0911d5,TCN,2024-06-24_17h33.04.185,LearnStrategy,2023.2.3,Win32,59.88023952,7,1,5,-0.033333333,-0.005555556,1,0,0,0.9082,rock_grid_rect_2,8,06,-1,-1,0.908,0.364814815,-0.39537037,1,0,0,1.1491,Pumice_rect,8,1.149,1,4,0,4,0,1,,,,,,,,,,,,,
66491e9882aaa64c5d0911d5,TCN,2024-06-24_17h33.04.185,LearnStrategy,2023.2.3,Win32,59.88023952,7,1,6,-0.05,-0.005555556,1,0,0,1.0479,rock_grid_rect_2,8,16,-1,-1,1.048,0.380555556,-0.389814815,1,0,0,1.5607,Pumice_rect,8,1.561,1,5,0,5,0,1,,,,,,,,,,,,,
66491e9882aaa64c5d0911d5,TCN,2024-06-24_17h33.04.185,LearnStrategy,2023.2.3,Win32,59.88023952,7,1,7,-0.04537037,-0.007407407,1,0,0,1.1975,rock_grid_rect_2,3,07,-1,-1,1.198,0.102777778,-0.251851852,1,0,0,5.7321,Diorite_rect,3,5.732,1,6,0,6,0,1,,,,,,,,,,,,,
66491e9882aaa64c5d0911d5,TCN,2024-06-24_17h33.04.185,LearnStrategy,2023.2.3,Win32,59.88023952,7,1,8,-0.037962963,0.02037037,1,0,0,0.8964,rock_grid_rect_2,7,14,-1,-1,0.896,0.094444444,-0.394444444,1,0,0,1.5922,Peridotite_rect,7,1.592,1,7,0,7,0,1,,,,,,,,,,,,,
66491e9882aaa64c5d0911d5,TCN,2024-06-24_17h33.04.185,LearnStrategy,2023.2.3,Win32,59.88023952,7,1,9,-0.060185185,-0.001851852,1,0,0,0.8978,rock_grid_rect_2,5,12,-1,-1,0.898,-0.389814815,-0.403703704,1,0,0,1.0825,Obsidian_rect,5,1.082,1,8,0,8,0,1,,,,,,,,,,,,,
66491e9882aaa64c5d0911d5,TCN,2024-06-24_17h33.04.185,LearnStrategy,2023.2.3,Win32,59.88023952,7,1,10,-0.057407407,-0.012037037,1,0,0,0.9812,rock_grid_rect_2,3,11,-1,-1,0.981,0.408333333,-0.266666667,1,0,0,5.0701,Gabbro_rect,4,5.07,0,9,0,9,0,1,,,,,,,,,,,,,
66491e9882aaa64c5d0911d5,TCN,2024-06-24_17h33.04.185,LearnStrategy,2023.2.3,Win32,59.88023952,7,1,11,-0.067592593,-0.018518519,1,0,0,1.2127,rock_grid_rect_2,4,05,-1,-1,1.213,0.369444444,-0.239814815,1,0,0,9.8388,Gabbro_rect,4,9.839,1,10,0,10,0,1,,,,,,,,,,,,,
66491e9882aaa64c5d0911d5,TCN,2024-06-24_17h33.04.185,LearnStrategy,2023.2.3,Win32,59.88023952,7,1,12,-0.10462963,0.008333333,1,0,0,0.8956,rock_grid_rect_2,7,12,-1,-1,0.896,0.113888889,-0.413888889,1,0,0,2.1276,Peridotite_rect,7,2.128,1,11,0,11,0,1,,,,,,,,,,,,,
66491e9882aaa64c5d0911d5,TCN,2024-06-24_17h33.04.185,LearnStrategy,2023.2.3,Win32,59.88023952,7,1,13,-0.048148148,-0.000925926,1,0,0,1.5649,rock_grid_rect_2,2,01,-1,-1,1.565,-0.140740741,-0.266666667,1,0,0,1.7721,Basalt_rect,2,1.772,1,12,0,12,0,1,,,,,,,,,,,,,
66491e9882aaa64c5d0911d5,TCN,2024-06-24_17h33.04.185,LearnStrategy,2023.2.3,Win32,59.88023952,7,1,14,-0.062962963,0.008333333,1,0,0,0.8474,rock_grid_rect_2,4,16,-1,-1,0.847,-0.183333333,-0.248148148,1,0,0,8.6831,Basalt_rect,2,8.683,0,13,0,13,0,1,,,,,,,,,,,,,
66491e9882aaa64c5d0911d5,TCN,2024-06-24_17h33.04.185,LearnStrategy,2023.2.3,Win32,59.88023952,7,1,15,-0.053703704,0.007407407,1,0,0,1.2414,rock_grid_rect_2,6,12,-1,-1,1.241,0.100925926,-0.264814815,1,0,0,4.2743,Diorite_rect,3,4.274,0,14,0,14,0,1,,,,,,,,,,,,,
66491e9882aaa64c5d0911d5,TCN,2024-06-24_17h33.04.185,LearnStrategy,2023.2.3,Win32,59.88023952,7,1,16,0.014814815,0,1,0,0,0.9704,rock_grid_rect_2,1,10,-1,-1,0.97,-0.427777778,-0.246296296,1,0,0,2.538,Andesite_rect,1,2.538,1,15,0,15,0,1,,,,,,,,,,,,,
66491e9882aaa64c5d0911d5,TCN,2024-06-24_17h33.04.185,LearnStrategy,2023.2.3,Win32,59.88023952,7,2,1,,,,,,,,5,04,,,,,,,,,,,5,1.037,1,,,,,,-0.422222222,-0.386111111,1,0,0,1.0372,Obsidian_rect,0,0,0,0,1,
66491e9882aaa64c5d0911d5,TCN,2024-06-24_17h33.04.185,LearnStrategy,2023.2.3,Win32,59.88023952,7,2,2,,,,,,,,6,06,,,,,,,,,,,6,2.274,1,,,,,,-0.133333333,-0.413888889,1,0,0,2.274,Pegmatite_rect,1,0,1,0,1,
66491e9882aaa64c5d0911d5,TCN,2024-06-24_17h33.04.185,LearnStrategy,2023.2.3,Win32,59.88023952,7,2,3,,,,,,,,4,12,,,,,,,,,,,1,2.201,0,,,,,,-0.425,-0.243518519,1,0,0,2.2013,Andesite_rect,2,0,2,0,1,
66491e9882aaa64c5d0911d5,TCN,2024-06-24_17h33.04.185,LearnStrategy,2023.2.3,Win32,59.88023952,7,2,4,,,,,,,,1,05,,,,,,,,,,,4,4.504,0,,,,,,0.377777778,-0.246296296,1,0,0,4.5043,Gabbro_rect,3,0,3,0,1,
66491e9882aaa64c5d0911d5,TCN,2024-06-24_17h33.04.185,LearnStrategy,2023.2.3,Win32,59.88023952,7,2,5,,,,,,,,4,14,,,,,,,,,,,4,4.053,1,,,,,,0.377777778,-0.246296296,1,0,0,4.0529,Gabbro_rect,4,0,4,0,1,
66491e9882aaa64c5d0911d5,TCN,2024-06-24_17h33.04.185,LearnStrategy,2023.2.3,Win32,59.88023952,7,2,6,,,,,,,,7,16,,,,,,,,,,,7,1.624,1,,,,,,0.122222222,-0.407407407,1,0,0,1.6237,Peridotite_rect,5,0,5,0,1,
66491e9882aaa64c5d0911d5,TCN,2024-06-24_17h33.04.185,LearnStrategy,2023.2.3,Win32,59.88023952,7,2,7,,,,,,,,3,02,,,,,,,,,,,3,2.493,1,,,,,,0.136111111,-0.248148148,1,0,0,2.4933,Diorite_rect,6,0,6,0,1,
66491e9882aaa64c5d0911d5,TCN,2024-06-24_17h33.04.185,LearnStrategy,2023.2.3,Win32,59.88023952,7,2,8,,,,,,,,8,02,,,,,,,,,,,8,1.171,1,,,,,,0.424074074,-0.380555556,1,0,0,1.1712,Pumice_rect,7,0,7,0,1,
66491e9882aaa64c5d0911d5,TCN,2024-06-24_17h33.04.185,LearnStrategy,2023.2.3,Win32,59.88023952,7,2,9,,,,,,,,7,07,,,,,,,,,,,7,1.868,1,,,,,,0.158333333,-0.397222222,1,0,0,1.8677,Peridotite_rect,8,0,8,0,1,
66491e9882aaa64c5d0911d5,TCN,2024-06-24_17h33.04.185,LearnStrategy,2023.2.3,Win32,59.88023952,7,2,10,,,,,,,,1,07,,,,,,,,,,,3,2.155,0,,,,,,0.144444444,-0.248148148,1,0,0,2.1554,Diorite_rect,9,0,9,0,1,
66491e9882aaa64c5d0911d5,TCN,2024-06-24_17h33.04.185,LearnStrategy,2023.2.3,Win32,59.88023952,7,2,11,,,,,,,,8,15,,,,,,,,,,,8,1.271,1,,,,,,0.362962963,-0.409259259,1,0,0,1.2706,Pumice_rect,10,0,10,0,1,
66491e9882aaa64c5d0911d5,TCN,2024-06-24_17h33.04.185,LearnStrategy,2023.2.3,Win32,59.88023952,7,2,12,,,,,,,,3,08,,,,,,,,,,,3,3.925,1,,,,,,0.175,-0.25462963,1,0,0,3.9251,Diorite_rect,11,0,11,0,1,
66491e9882aaa64c5d0911d5,TCN,2024-06-24_17h33.04.185,LearnStrategy,2023.2.3,Win32,59.88023952,7,2,13,,,,,,,,2,14,,,,,,,,,,,4,3.186,0,,,,,,0.355555556,-0.262037037,1,0,0,3.1863,Gabbro_rect,12,0,12,0,1,
66491e9882aaa64c5d0911d5,TCN,2024-06-24_17h33.04.185,LearnStrategy,2023.2.3,Win32,59.88023952,7,2,14,,,,,,,,5,11,,,,,,,,,,,5,1.372,1,,,,,,-0.443518519,-0.409259259,1,0,0,1.3719,Obsidian_rect,13,0,13,0,1,
66491e9882aaa64c5d0911d5,TCN,2024-06-24_17h33.04.185,LearnStrategy,2023.2.3,Win32,59.88023952,7,2,15,,,,,,,,2,11,,,,,,,,,,,1,3.65,0,,,,,,-0.4,-0.242592593,1,0,0,3.6498,Andesite_rect,14,0,14,0,1,
66491e9882aaa64c5d0911d5,TCN,2024-06-24_17h33.04.185,LearnStrategy,2023.2.3,Win32,59.88023952,7,2,16,,,,,,,,6,10,,,,,,,,,,,7,1.368,0,,,,,,0.127777778,-0.40462963,1,0,0,1.3679,Peridotite_rect,15,0,15,0,1,
66491e9882aaa64c5d0911d5,TCN,2024-06-24_17h33.04.185,LearnStrategy,2023.2.3,Win32,59.88023952,8,1,1,-0.044444444,-0.009259259,1,0,0,2.0315,rock_grid_rect_2,5,05,-1,-1,2.032,-0.392592593,-0.396296296,1,0,0,2.072,Obsidian_rect,5,2.072,1,0,0,0,0,1,,,,,,,,,,,,,
66491e9882aaa64c5d0911d5,TCN,2024-06-24_17h33.04.185,LearnStrategy,2023.2.3,Win32,59.88023952,8,1,2,-0.019444444,0.008333333,1,0,0,1.2263,rock_grid_rect_2,8,03,-1,-1,1.226,0.359259259,-0.394444444,1,0,0,1.1518,Pumice_rect,8,1.152,1,1,0,1,0,1,,,,,,,,,,,,,
66491e9882aaa64c5d0911d5,TCN,2024-06-24_17h33.04.185,LearnStrategy,2023.2.3,Win32,59.88023952,8,1,3,-0.042592593,-0.001851852,1,0,0,1.2979,rock_grid_rect_2,6,13,-1,-1,1.298,0.115740741,-0.416666667,1,0,0,3.3572,Peridotite_rect,7,3.357,0,2,0,2,0,1,,,,,,,,,,,,,
66491e9882aaa64c5d0911d5,TCN,2024-06-24_17h33.04.185,LearnStrategy,2023.2.3,Win32,59.88023952,8,1,4,-0.013888889,-0.006481481,1,0,0,1.3462,rock_grid_rect_2,1,14,-1,-1,1.346,0.386111111,-0.256481481,1,0,0,3.9999,Gabbro_rect,4,4,0,3,0,3,0,1,,,,,,,,,,,,,
66491e9882aaa64c5d0911d5,TCN,2024-06-24_17h33.04.185,LearnStrategy,2023.2.3,Win32,59.88023952,8,1,5,-0.051851852,-0.000925926,1,0,0,0.8962,rock_grid_rect_2,2,08,-1,-1,0.896,-0.160185185,-0.258333333,1,0,0,2.2607,Basalt_rect,2,2.261,1,4,0,4,0,1,,,,,,,,,,,,,
66491e9882aaa64c5d0911d5,TCN,2024-06-24_17h33.04.185,LearnStrategy,2023.2.3,Win32,59.88023952,8,1,6,-0.008333333,0.001851852,1,0,0,0.9596,rock_grid_rect_2,4,03,-1,-1,0.96,-0.416666667,-0.249074074,1,0,0,2.2017,Andesite_rect,1,2.202,0,5,0,5,0,1,,,,,,,,,,,,,
66491e9882aaa64c5d0911d5,TCN,2024-06-24_17h33.04.185,LearnStrategy,2023.2.3,Win32,59.88023952,8,1,7,0.012962963,-0.010185185,1,0,0,0.8877,rock_grid_rect_2,1,09,-1,-1,0.888,-0.407407407,-0.250925926,1,0,0,1.1263,Andesite_rect,1,1.126,1,6,0,6,0,1,,,,,,,,,,,,,
66491e9882aaa64c5d0911d5,TCN,2024-06-24_17h33.04.185,LearnStrategy,2023.2.3,Win32,59.88023952,8,1,8,-0.030555556,0.000925926,1,0,0,0.8555,rock_grid_rect_2,3,14,-1,-1,0.855,0.12037037,-0.261111111,1,0,0,3.6329,Diorite_rect,3,3.633,1,7,0,7,0,1,,,,,,,,,,,,,
66491e9882aaa64c5d0911d5,TCN,2024-06-24_17h33.04.185,LearnStrategy,2023.2.3,Win32,59.88023952,8,1,9,-0.066666667,0.000925926,1,0,0,0.9629,rock_grid_rect_2,6,16,-1,-1,0.963,-0.169444444,-0.402777778,1,0,0,7.2997,Pegmatite_rect,6,7.3,1,8,0,8,0,1,,,,,,,,,,,,,
66491e9882aaa64c5d0911d5,TCN,2024-06-24_17h33.04.185,LearnStrategy,2023.2.3,Win32,59.88023952,8,1,10,-0.001851852,-0.00462963,1,0,0,0.8624,rock_grid_rect_2,8,13,-1,-1,0.862,0.390740741,-0.413888889,1,0,0,1.2327,Pumice_rect,8,1.233,1,9,0,9,0,1,,,,,,,,,,,,,
66491e9882aaa64c5d0911d5,TCN,2024-06-24_17h33.04.185,LearnStrategy,2023.2.3,Win32,59.88023952,8,1,11,-0.046296296,-0.007407407,1,0,0,0.9881,rock_grid_rect_2,7,08,-1,-1,0.988,0.100925926,-0.408333333,1,0,0,1.28,Peridotite_rect,7,1.28,1,10,0,10,0,1,,,,,,,,,,,,,
66491e9882aaa64c5d0911d5,TCN,2024-06-24_17h33.04.185,LearnStrategy,2023.2.3,Win32,59.88023952,8,1,12,-0.007407407,-0.014814815,1,0,0,0.9811,rock_grid_rect_2,2,10,-1,-1,0.981,-0.160185185,-0.25462963,1,0,0,3.4943,Basalt_rect,2,3.494,1,11,0,11,0,1,,,,,,,,,,,,,
66491e9882aaa64c5d0911d5,TCN,2024-06-24_17h33.04.185,LearnStrategy,2023.2.3,Win32,59.88023952,8,1,13,-0.071296296,0.007407407,1,0,0,1.079,rock_grid_rect_2,5,09,-1,-1,1.079,-0.392592593,-0.399074074,1,0,0,1.2344,Obsidian_rect,5,1.234,1,12,0,12,0,1,,,,,,,,,,,,,
66491e9882aaa64c5d0911d5,TCN,2024-06-24_17h33.04.185,LearnStrategy,2023.2.3,Win32,59.88023952,8,1,14,-0.07962963,-0.008333333,1,0,0,0.8548,rock_grid_rect_2,4,10,-1,-1,0.855,-0.439814815,-0.252777778,1,0,0,8.3148,Andesite_rect,1,8.315,0,13,0,13,0,1,,,,,,,,,,,,,
66491e9882aaa64c5d0911d5,TCN,2024-06-24_17h33.04.185,LearnStrategy,2023.2.3,Win32,59.88023952,8,1,15,-0.036111111,-0.010185185,1,0,0,0.896,rock_grid_rect_2,3,06,-1,-1,0.896,0.105555556,-0.233333333,1,0,0,2.6554,Diorite_rect,3,2.655,1,14,0,14,0,1,,,,,,,,,,,,,
66491e9882aaa64c5d0911d5,TCN,2024-06-24_17h33.04.185,LearnStrategy,2023.2.3,Win32,59.88023952,8,1,16,-0.037962963,-0.011111111,1,0,0,0.9414,rock_grid_rect_2,7,04,-1,-1,0.941,0.072222222,-0.394444444,1,0,0,1.2764,Peridotite_rect,7,1.276,1,15,0,15,0,1,,,,,,,,,,,,,
66491e9882aaa64c5d0911d5,TCN,2024-06-24_17h33.04.185,LearnStrategy,2023.2.3,Win32,59.88023952,8,2,1,,,,,,,,8,04,,,,,,,,,,,8,1.509,1,,,,,,0.392592593,-0.392592593,1,0,0,1.5088,Pumice_rect,0,0,0,0,1,
66491e9882aaa64c5d0911d5,TCN,2024-06-24_17h33.04.185,LearnStrategy,2023.2.3,Win32,59.88023952,8,2,2,,,,,,,,5,16,,,,,,,,,,,5,2.396,1,,,,,,-0.415740741,-0.387037037,1,0,0,2.3957,Obsidian_rect,1,0,1,0,1,
66491e9882aaa64c5d0911d5,TCN,2024-06-24_17h33.04.185,LearnStrategy,2023.2.3,Win32,59.88023952,8,2,3,,,,,,,,1,04,,,,,,,,,,,4,4.363,0,,,,,,0.375925926,-0.262962963,1,0,0,4.3629,Gabbro_rect,2,0,2,0,1,
66491e9882aaa64c5d0911d5,TCN,2024-06-24_17h33.04.185,LearnStrategy,2023.2.3,Win32,59.88023952,8,2,4,,,,,,,,1,01,,,,,,,,,,,3,9.221,0,,,,,,0.119444444,-0.249074074,1,0,0,9.2208,Diorite_rect,3,0,3,0,1,
66491e9882aaa64c5d0911d5,TCN,2024-06-24_17h33.04.185,LearnStrategy,2023.2.3,Win32,59.88023952,8,2,5,,,,,,,,8,08,,,,,,,,,,,8,1.238,1,,,,,,0.381481481,-0.407407407,1,0,0,1.2384,Pumice_rect,4,0,4,0,1,
66491e9882aaa64c5d0911d5,TCN,2024-06-24_17h33.04.185,LearnStrategy,2023.2.3,Win32,59.88023952,8,2,6,,,,,,,,2,09,,,,,,,,,,,1,1.828,0,,,,,,-0.425925926,-0.264814815,1,0,0,1.8282,Andesite_rect,5,0,5,0,1,
66491e9882aaa64c5d0911d5,TCN,2024-06-24_17h33.04.185,LearnStrategy,2023.2.3,Win32,59.88023952,8,2,7,,,,,,,,7,13,,,,,,,,,,,7,1.288,1,,,,,,0.124074074,-0.414814815,1,0,0,1.2883,Peridotite_rect,6,0,6,0,1,
66491e9882aaa64c5d0911d5,TCN,2024-06-24_17h33.04.185,LearnStrategy,2023.2.3,Win32,59.88023952,8,2,8,,,,,,,,2,12,,,,,,,,,,,1,5.233,0,,,,,,-0.398148148,-0.252777778,1,0,0,5.2335,Andesite_rect,7,0,7,0,1,
66491e9882aaa64c5d0911d5,TCN,2024-06-24_17h33.04.185,LearnStrategy,2023.2.3,Win32,59.88023952,8,2,9,,,,,,,,6,08,,,,,,,,,,,6,1.48,1,,,,,,-0.166666667,-0.406481481,1,0,0,1.4802,Pegmatite_rect,8,0,8,0,1,
66491e9882aaa64c5d0911d5,TCN,2024-06-24_17h33.04.185,LearnStrategy,2023.2.3,Win32,59.88023952,8,2,10,,,,,,,,3,16,,,,,,,,,,,3,1.543,1,,,,,,0.091666667,-0.248148148,1,0,0,1.5434,Diorite_rect,9,0,9,0,1,
66491e9882aaa64c5d0911d5,TCN,2024-06-24_17h33.04.185,LearnStrategy,2023.2.3,Win32,59.88023952,8,2,11,,,,,,,,7,06,,,,,,,,,,,7,1.421,1,,,,,,0.113888889,-0.405555556,1,0,0,1.4211,Peridotite_rect,10,0,10,0,1,
66491e9882aaa64c5d0911d5,TCN,2024-06-24_17h33.04.185,LearnStrategy,2023.2.3,Win32,59.88023952,8,2,12,,,,,,,,4,09,,,,,,,,,,,4,4.387,1,,,,,,0.408333333,-0.240740741,1,0,0,4.3868,Gabbro_rect,11,0,11,0,1,
66491e9882aaa64c5d0911d5,TCN,2024-06-24_17h33.04.185,LearnStrategy,2023.2.3,Win32,59.88023952,8,2,13,,,,,,,,4,08,,,,,,,,,,,4,6.154,1,,,,,,0.408333333,-0.240740741,1,0,0,6.154,Gabbro_rect,12,0,12,0,1,
66491e9882aaa64c5d0911d5,TCN,2024-06-24_17h33.04.185,LearnStrategy,2023.2.3,Win32,59.88023952,8,2,14,,,,,,,,3,12,,,,,,,,,,,3,3.824,1,,,,,,0.134259259,-0.242592593,1,0,0,3.8244,Diorite_rect,13,0,13,0,1,
66491e9882aaa64c5d0911d5,TCN,2024-06-24_17h33.04.185,LearnStrategy,2023.2.3,Win32,59.88023952,8,2,15,,,,,,,,5,07,,,,,,,,,,,5,1.287,1,,,,,,-0.427777778,-0.405555556,1,0,0,1.2866,Obsidian_rect,14,0,14,0,1,
66491e9882aaa64c5d0911d5,TCN,2024-06-24_17h33.04.185,LearnStrategy,2023.2.3,Win32,59.88023952,8,2,16,,,,,,,,6,07,,,,,,,,,,,6,1.361,1,,,,,,-0.160185185,-0.403703704,1,0,0,1.3609,Pegmatite_rect,15,0,15,0,1,
66491e9882aaa64c5d0911d5,TCN,2024-06-24_17h33.04.185,LearnStrategy,2023.2.3,Win32,59.88023952,9,1,1,-0.037962963,-0.005555556,1,0,0,1.3483,rock_grid_rect_2,4,15,-1,-1,1.348,0.150925926,-0.258333333,1,0,0,4.2699,Diorite_rect,3,4.27,0,0,0,0,0,1,,,,,,,,,,,,,
66491e9882aaa64c5d0911d5,TCN,2024-06-24_17h33.04.185,LearnStrategy,2023.2.3,Win32,59.88023952,9,1,2,0.001851852,-0.011111111,1,0,0,0.8794,rock_grid_rect_2,3,13,-1,-1,0.879,0.146296296,-0.248148148,1,0,0,3.2274,Diorite_rect,3,3.227,1,1,0,1,0,1,,,,,,,,,,,,,
66491e9882aaa64c5d0911d5,TCN,2024-06-24_17h33.04.185,LearnStrategy,2023.2.3,Win32,59.88023952,9,1,3,0.001851852,-0.012962963,1,0,0,1.0798,rock_grid_rect_2,7,10,-1,-1,1.08,0.087962963,-0.400925926,1,0,0,1.2531,Peridotite_rect,7,1.253,1,2,0,2,0,1,,,,,,,,,,,,,
66491e9882aaa64c5d0911d5,TCN,2024-06-24_17h33.04.185,LearnStrategy,2023.2.3,Win32,59.88023952,9,1,4,-0.059259259,0.006481481,1,0,0,0.7646,rock_grid_rect_2,7,05,-1,-1,0.765,0.126851852,-0.405555556,1,0,0,2.5412,Peridotite_rect,7,2.541,1,3,0,3,0,1,,,,,,,,,,,,,
66491e9882aaa64c5d0911d5,TCN,2024-06-24_17h33.04.185,LearnStrategy,2023.2.3,Win32,59.88023952,9,1,5,0.015740741,0.007407407,1,0,0,1.4625,rock_grid_rect_2,2,06,-1,-1,1.463,-0.147222222,-0.255555556,1,0,0,2.5188,Basalt_rect,2,2.519,1,4,0,4,0,1,,,,,,,,,,,,,
66491e9882aaa64c5d0911d5,TCN,2024-06-24_17h33.04.185,LearnStrategy,2023.2.3,Win32,59.88023952,9,1,6,-0.021296296,0.001851852,1,0,0,0.9799,rock_grid_rect_2,6,03,-1,-1,0.98,-0.168518519,-0.419444444,1,0,0,1.4843,Pegmatite_rect,6,1.484,1,5,0,5,0,1,,,,,,,,,,,,,
66491e9882aaa64c5d0911d5,TCN,2024-06-24_17h33.04.185,LearnStrategy,2023.2.3,Win32,59.88023952,9,1,7,-0.005555556,0,1,0,0,1.5642,rock_grid_rect_2,8,14,-1,-1,1.564,0.355555556,-0.393518519,1,0,0,1.2087,Pumice_rect,8,1.209,1,6,0,6,0,1,,,,,,,,,,,,,
66491e9882aaa64c5d0911d5,TCN,2024-06-24_17h33.04.185,LearnStrategy,2023.2.3,Win32,59.88023952,9,1,8,-0.055555556,-0.000925926,1,0,0,0.9141,rock_grid_rect_2,8,09,-1,-1,0.914,0.340740741,-0.410185185,1,0,0,1.6272,Pumice_rect,8,1.627,1,7,0,7,0,1,,,,,,,,,,,,,
66491e9882aaa64c5d0911d5,TCN,2024-06-24_17h33.04.185,LearnStrategy,2023.2.3,Win32,59.88023952,9,1,9,-0.025,-0.007407407,1,0,0,1.5308,rock_grid_rect_2,3,09,-1,-1,1.531,0.141666667,-0.25,1,0,0,2.1445,Diorite_rect,3,2.144,1,8,0,8,0,1,,,,,,,,,,,,,
66491e9882aaa64c5d0911d5,TCN,2024-06-24_17h33.04.185,LearnStrategy,2023.2.3,Win32,59.88023952,9,1,10,0.011111111,-0.000925926,1,0,0,0.8759,rock_grid_rect_2,6,11,-1,-1,0.876,-0.153703704,-0.410185185,1,0,0,1.2649,Pegmatite_rect,6,1.265,1,9,0,9,0,1,,,,,,,,,,,,,
66491e9882aaa64c5d0911d5,TCN,2024-06-24_17h33.04.185,LearnStrategy,2023.2.3,Win32,59.88023952,9,1,11,-0.077777778,-0.002777778,1,0,0,0.9312,rock_grid_rect_2,2,02,-1,-1,0.931,-0.446296296,-0.249074074,1,0,0,1.6976,Andesite_rect,1,1.698,0,10,0,10,0,1,,,,,,,,,,,,,
66491e9882aaa64c5d0911d5,TCN,2024-06-24_17h33.04.185,LearnStrategy,2023.2.3,Win32,59.88023952,9,1,12,-0.094444444,0.000925926,1,0,0,1.4982,rock_grid_rect_2,5,02,-1,-1,1.498,-0.384259259,-0.397222222,1,0,0,1.5469,Obsidian_rect,5,1.547,1,11,0,11,0,1,,,,,,,,,,,,,
66491e9882aaa64c5d0911d5,TCN,2024-06-24_17h33.04.185,LearnStrategy,2023.2.3,Win32,59.88023952,9,1,13,0.033333333,0.014814815,1,0,0,0.9148,rock_grid_rect_2,1,06,-1,-1,0.915,0.146296296,-0.232407407,1,0,0,2.1045,Diorite_rect,3,2.104,0,12,0,12,0,1,,,,,,,,,,,,,
66491e9882aaa64c5d0911d5,TCN,2024-06-24_17h33.04.185,LearnStrategy,2023.2.3,Win32,59.88023952,9,1,14,0.002777778,-0.007407407,1,0,0,1.1644,rock_grid_rect_2,4,01,-1,-1,1.164,0.383333333,-0.243518519,1,0,0,5.0749,Gabbro_rect,4,5.075,1,13,0,13,0,1,,,,,,,,,,,,,
66491e9882aaa64c5d0911d5,TCN,2024-06-24_17h33.04.185,LearnStrategy,2023.2.3,Win32,59.88023952,9,1,15,-0.049074074,-0.006481481,1,0,0,1.6626,rock_grid_rect_2,1,02,-1,-1,1.663,0.090740741,-0.259259259,1,0,0,4.2151,Diorite_rect,3,4.215,0,14,0,14,0,1,,,,,,,,,,,,,
66491e9882aaa64c5d0911d5,TCN,2024-06-24_17h33.04.185,LearnStrategy,2023.2.3,Win32,59.88023952,9,1,16,-0.072222222,-0.005555556,1,0,0,1.3583,rock_grid_rect_2,5,10,-1,-1,1.358,-0.405555556,-0.398148148,1,0,0,1.2049,Obsidian_rect,5,1.205,1,15,0,15,0,1,,,,,,,,,,,,,
66491e9882aaa64c5d0911d5,TCN,2024-06-24_17h33.04.185,LearnStrategy,2023.2.3,Win32,59.88023952,9,2,1,,,,,,,,3,10,,,,,,,,,,,4,2.254,0,,,,,,0.396296296,-0.228703704,1,0,0,2.2539,Gabbro_rect,0,0,0,0,1,
66491e9882aaa64c5d0911d5,TCN,2024-06-24_17h33.04.185,LearnStrategy,2023.2.3,Win32,59.88023952,9,2,2,,,,,,,,2,05,,,,,,,,,,,2,3.713,1,,,,,,-0.125,-0.237037037,1,0,0,3.7127,Basalt_rect,1,0,1,0,1,
66491e9882aaa64c5d0911d5,TCN,2024-06-24_17h33.04.185,LearnStrategy,2023.2.3,Win32,59.88023952,9,2,3,,,,,,,,4,11,,,,,,,,,,,1,3.813,0,,,,,,-0.386111111,-0.230555556,1,0,0,3.8127,Andesite_rect,2,0,2,0,1,
66491e9882aaa64c5d0911d5,TCN,2024-06-24_17h33.04.185,LearnStrategy,2023.2.3,Win32,59.88023952,9,2,4,,,,,,,,8,10,,,,,,,,,,,8,2.876,1,,,,,,0.386111111,-0.396296296,1,0,0,2.8758,Pumice_rect,3,0,3,0,1,
66491e9882aaa64c5d0911d5,TCN,2024-06-24_17h33.04.185,LearnStrategy,2023.2.3,Win32,59.88023952,9,2,5,,,,,,,,1,16,,,,,,,,,,,3,3.622,0,,,,,,0.126851852,-0.246296296,1,0,0,3.6219,Diorite_rect,4,0,4,0,1,
66491e9882aaa64c5d0911d5,TCN,2024-06-24_17h33.04.185,LearnStrategy,2023.2.3,Win32,59.88023952,9,2,6,,,,,,,,3,15,,,,,,,,,,,4,2.901,0,,,,,,0.361111111,-0.250925926,1,0,0,2.9009,Gabbro_rect,5,0,5,0,1,
66491e9882aaa64c5d0911d5,TCN,2024-06-24_17h33.04.185,LearnStrategy,2023.2.3,Win32,59.88023952,9,2,7,,,,,,,,6,05,,,,,,,,,,,6,6.025,1,,,,,,-0.089814815,-0.405555556,1,0,0,6.0246,Pegmatite_rect,6,0,6,0,1,
66491e9882aaa64c5d0911d5,TCN,2024-06-24_17h33.04.185,LearnStrategy,2023.2.3,Win32,59.88023952,9,2,8,,,,,,,,7,15,,,,,,,,,,,7,1.161,1,,,,,,0.122222222,-0.403703704,1,0,0,1.1612,Peridotite_rect,7,0,7,0,1,
66491e9882aaa64c5d0911d5,TCN,2024-06-24_17h33.04.185,LearnStrategy,2023.2.3,Win32,59.88023952,9,2,9,,,,,,,,1,11,,,,,,,,,,,1,3.302,1,,,,,,-0.414814815,-0.257407407,1,0,0,3.3018,Andesite_rect,8,0,8,0,1,
66491e9882aaa64c5d0911d5,TCN,2024-06-24_17h33.04.185,LearnStrategy,2023.2.3,Win32,59.88023952,9,2,10,,,,,,,,2,04,,,,,,,,,,,2,1.958,1,,,,,,-0.150925926,-0.266666667,1,0,0,1.9576,Basalt_rect,9,0,9,0,1,
66491e9882aaa64c5d0911d5,TCN,2024-06-24_17h33.04.185,LearnStrategy,2023.2.3,Win32,59.88023952,9,2,11,,,,,,,,8,05,,,,,,,,,,,8,1.261,1,,,,,,0.378703704,-0.42037037,1,0,0,1.2607,Pumice_rect,10,0,10,0,1,
66491e9882aaa64c5d0911d5,TCN,2024-06-24_17h33.04.185,LearnStrategy,2023.2.3,Win32,59.88023952,9,2,12,,,,,,,,4,13,,,,,,,,,,,4,2.3,1,,,,,,0.413888889,-0.25,1,0,0,2.2996,Gabbro_rect,11,0,11,0,1,
66491e9882aaa64c5d0911d5,TCN,2024-06-24_17h33.04.185,LearnStrategy,2023.2.3,Win32,59.88023952,9,2,13,,,,,,,,7,02,,,,,,,,,,,7,1.181,1,,,,,,0.121296296,-0.411111111,1,0,0,1.181,Peridotite_rect,12,0,12,0,1,
66491e9882aaa64c5d0911d5,TCN,2024-06-24_17h33.04.185,LearnStrategy,2023.2.3,Win32,59.88023952,9,2,14,,,,,,,,5,08,,,,,,,,,,,5,1.296,1,,,,,,-0.434259259,-0.397222222,1,0,0,1.2965,Obsidian_rect,13,0,13,0,1,
66491e9882aaa64c5d0911d5,TCN,2024-06-24_17h33.04.185,LearnStrategy,2023.2.3,Win32,59.88023952,9,2,15,,,,,,,,5,14,,,,,,,,,,,5,2.021,1,,,,,,-0.434259259,-0.403703704,1,0,0,2.0211,Obsidian_rect,14,0,14,0,1,
66491e9882aaa64c5d0911d5,TCN,2024-06-24_17h33.04.185,LearnStrategy,2023.2.3,Win32,59.88023952,9,2,16,,,,,,,,6,15,,,,,,,,,,,6,1.92,1,,,,,,-0.106481481,-0.411111111,1,0,0,1.9204,Pegmatite_rect,15,0,15,0,1,
66491e9882aaa64c5d0911d5,TCN,2024-06-24_17h33.04.185,LearnStrategy,2023.2.3,Win32,59.88023952,,,,,,,,,,,,,,,,,,,,,,,,,,,,,,,,,,,,,,,,,,,1
66491e9882aaa64c5d0911d5,TCN,2024-06-24_17h33.04.185,LearnStrategy,2023.2.3,Win32,59.88023952,,,,,,,,,,,,,,,,,,,,,,,,,,,,,,,,,,,,,,,,,,,
66491e9882aaa64c5d0911d5,TCN,2024-06-24_17h33.04.185,LearnStrategy,2023.2.3,Win32,59.88023952,,,,,,,,,,,8,03,1,1,,,,,,,,,,,,,,,,,,,,,,,,,,,,,
66491e9882aaa64c5d0911d5,TCN,2024-06-24_17h33.04.185,LearnStrategy,2023.2.3,Win32,59.88023952,,,,,,,,,,,5,06,1,2,,,,,,,,,,,,,,,,,,,,,,,,,,,,,
66491e9882aaa64c5d0911d5,TCN,2024-06-24_17h33.04.185,LearnStrategy,2023.2.3,Win32,59.88023952,,,,,,,,,,,1,03,1,3,,,,,,,,,,,,,,,,,,,,,,,,,,,,,
66491e9882aaa64c5d0911d5,TCN,2024-06-24_17h33.04.185,LearnStrategy,2023.2.3,Win32,59.88023952,,,,,,,,,,,8,16,1,4,,,,,,,,,,,,,,,,,,,,,,,,,,,,,
66491e9882aaa64c5d0911d5,TCN,2024-06-24_17h33.04.185,LearnStrategy,2023.2.3,Win32,59.88023952,,,,,,,,,,,1,09,1,5,,,,,,,,,,,,,,,,,,,,,,,,,,,,,
66491e9882aaa64c5d0911d5,TCN,2024-06-24_17h33.04.185,LearnStrategy,2023.2.3,Win32,59.88023952,,,,,,,,,,,4,05,1,6,,,,,,,,,,,,,,,,,,,,,,,,,,,,,
66491e9882aaa64c5d0911d5,TCN,2024-06-24_17h33.04.185,LearnStrategy,2023.2.3,Win32,59.88023952,,,,,,,,,,,2,16,1,7,,,,,,,,,,,,,,,,,,,,,,,,,,,,,
66491e9882aaa64c5d0911d5,TCN,2024-06-24_17h33.04.185,LearnStrategy,2023.2.3,Win32,59.88023952,,,,,,,,,,,7,12,1,8,,,,,,,,,,,,,,,,,,,,,,,,,,,,,
66491e9882aaa64c5d0911d5,TCN,2024-06-24_17h33.04.185,LearnStrategy,2023.2.3,Win32,59.88023952,,,,,,,,,,,3,13,2,1,,,,,,,,,,,,,,,,,,,,,,,,,,,,,
66491e9882aaa64c5d0911d5,TCN,2024-06-24_17h33.04.185,LearnStrategy,2023.2.3,Win32,59.88023952,,,,,,,,,,,5,02,2,2,,,,,,,,,,,,,,,,,,,,,,,,,,,,,
66491e9882aaa64c5d0911d5,TCN,2024-06-24_17h33.04.185,LearnStrategy,2023.2.3,Win32,59.88023952,,,,,,,,,,,4,15,2,3,,,,,,,,,,,,,,,,,,,,,,,,,,,,,
66491e9882aaa64c5d0911d5,TCN,2024-06-24_17h33.04.185,LearnStrategy,2023.2.3,Win32,59.88023952,,,,,,,,,,,4,01,2,4,,,,,,,,,,,,,,,,,,,,,,,,,,,,,
66491e9882aaa64c5d0911d5,TCN,2024-06-24_17h33.04.185,LearnStrategy,2023.2.3,Win32,59.88023952,,,,,,,,,,,6,03,2,5,,,,,,,,,,,,,,,,,,,,,,,,,,,,,
66491e9882aaa64c5d0911d5,TCN,2024-06-24_17h33.04.185,LearnStrategy,2023.2.3,Win32,59.88023952,,,,,,,,,,,3,14,2,6,,,,,,,,,,,,,,,,,,,,,,,,,,,,,
66491e9882aaa64c5d0911d5,TCN,2024-06-24_17h33.04.185,LearnStrategy,2023.2.3,Win32,59.88023952,,,,,,,,,,,8,13,2,7,,,,,,,,,,,,,,,,,,,,,,,,,,,,,
66491e9882aaa64c5d0911d5,TCN,2024-06-24_17h33.04.185,LearnStrategy,2023.2.3,Win32,59.88023952,,,,,,,,,,,8,06,2,8,,,,,,,,,,,,,,,,,,,,,,,,,,,,,
66491e9882aaa64c5d0911d5,TCN,2024-06-24_17h33.04.185,LearnStrategy,2023.2.3,Win32,59.88023952,,,,,,,,,,,6,16,3,1,,,,,,,,,,,,,,,,,,,,,,,,,,,,,
66491e9882aaa64c5d0911d5,TCN,2024-06-24_17h33.04.185,LearnStrategy,2023.2.3,Win32,59.88023952,,,,,,,,,,,4,03,3,2,,,,,,,,,,,,,,,,,,,,,,,,,,,,,
66491e9882aaa64c5d0911d5,TCN,2024-06-24_17h33.04.185,LearnStrategy,2023.2.3,Win32,59.88023952,,,,,,,,,,,4,10,3,3,,,,,,,,,,,,,,,,,,,,,,,,,,,,,
66491e9882aaa64c5d0911d5,TCN,2024-06-24_17h33.04.185,LearnStrategy,2023.2.3,Win32,59.88023952,,,,,,,,,,,8,09,3,4,,,,,,,,,,,,,,,,,,,,,,,,,,,,,
66491e9882aaa64c5d0911d5,TCN,2024-06-24_17h33.04.185,LearnStrategy,2023.2.3,Win32,59.88023952,,,,,,,,,,,6,11,3,5,,,,,,,,,,,,,,,,,,,,,,,,,,,,,
66491e9882aaa64c5d0911d5,TCN,2024-06-24_17h33.04.185,LearnStrategy,2023.2.3,Win32,59.88023952,,,,,,,,,,,2,06,3,6,,,,,,,,,,,,,,,,,,,,,,,,,,,,,
66491e9882aaa64c5d0911d5,TCN,2024-06-24_17h33.04.185,LearnStrategy,2023.2.3,Win32,59.88023952,,,,,,,,,,,3,06,3,7,,,,,,,,,,,,,,,,,,,,,,,,,,,,,
66491e9882aaa64c5d0911d5,TCN,2024-06-24_17h33.04.185,LearnStrategy,2023.2.3,Win32,59.88023952,,,,,,,,,,,3,11,3,8,,,,,,,,,,,,,,,,,,,,,,,,,,,,,
66491e9882aaa64c5d0911d5,TCN,2024-06-24_17h33.04.185,LearnStrategy,2023.2.3,Win32,59.88023952,,,,,,,,,,,5,12,4,1,,,,,,,,,,,,,,,,,,,,,,,,,,,,,
66491e9882aaa64c5d0911d5,TCN,2024-06-24_17h33.04.185,LearnStrategy,2023.2.3,Win32,59.88023952,,,,,,,,,,,6,13,4,2,,,,,,,,,,,,,,,,,,,,,,,,,,,,,
66491e9882aaa64c5d0911d5,TCN,2024-06-24_17h33.04.185,LearnStrategy,2023.2.3,Win32,59.88023952,,,,,,,,,,,1,06,4,3,,,,,,,,,,,,,,,,,,,,,,,,,,,,,
66491e9882aaa64c5d0911d5,TCN,2024-06-24_17h33.04.185,LearnStrategy,2023.2.3,Win32,59.88023952,,,,,,,,,,,8,14,4,4,,,,,,,,,,,,,,,,,,,,,,,,,,,,,
66491e9882aaa64c5d0911d5,TCN,2024-06-24_17h33.04.185,LearnStrategy,2023.2.3,Win32,59.88023952,,,,,,,,,,,3,09,4,5,,,,,,,,,,,,,,,,,,,,,,,,,,,,,
66491e9882aaa64c5d0911d5,TCN,2024-06-24_17h33.04.185,LearnStrategy,2023.2.3,Win32,59.88023952,,,,,,,,,,,1,02,4,6,,,,,,,,,,,,,,,,,,,,,,,,,,,,,
66491e9882aaa64c5d0911d5,TCN,2024-06-24_17h33.04.185,LearnStrategy,2023.2.3,Win32,59.88023952,,,,,,,,,,,4,16,4,7,,,,,,,,,,,,,,,,,,,,,,,,,,,,,
66491e9882aaa64c5d0911d5,TCN,2024-06-24_17h33.04.185,LearnStrategy,2023.2.3,Win32,59.88023952,,,,,,,,,,,5,10,4,8,,,,,,,,,,,,,,,,,,,,,,,,,,,,,
66491e9882aaa64c5d0911d5,TCN,2024-06-24_17h33.04.185,LearnStrategy,2023.2.3,Win32,59.88023952,,,,,,,,,,,7,05,5,1,,,,,,,,,,,,,,,,,,,,,,,,,,,,,
66491e9882aaa64c5d0911d5,TCN,2024-06-24_17h33.04.185,LearnStrategy,2023.2.3,Win32,59.88023952,,,,,,,,,,,6,12,5,2,,,,,,,,,,,,,,,,,,,,,,,,,,,,,
66491e9882aaa64c5d0911d5,TCN,2024-06-24_17h33.04.185,LearnStrategy,2023.2.3,Win32,59.88023952,,,,,,,,,,,3,07,5,3,,,,,,,,,,,,,,,,,,,,,,,,,,,,,
66491e9882aaa64c5d0911d5,TCN,2024-06-24_17h33.04.185,LearnStrategy,2023.2.3,Win32,59.88023952,,,,,,,,,,,2,02,5,4,,,,,,,,,,,,,,,,,,,,,,,,,,,,,
66491e9882aaa64c5d0911d5,TCN,2024-06-24_17h33.04.185,LearnStrategy,2023.2.3,Win32,59.88023952,,,,,,,,,,,2,08,5,5,,,,,,,,,,,,,,,,,,,,,,,,,,,,,
66491e9882aaa64c5d0911d5,TCN,2024-06-24_17h33.04.185,LearnStrategy,2023.2.3,Win32,59.88023952,,,,,,,,,,,7,04,5,6,,,,,,,,,,,,,,,,,,,,,,,,,,,,,
66491e9882aaa64c5d0911d5,TCN,2024-06-24_17h33.04.185,LearnStrategy,2023.2.3,Win32,59.88023952,,,,,,,,,,,1,14,5,7,,,,,,,,,,,,,,,,,,,,,,,,,,,,,
66491e9882aaa64c5d0911d5,TCN,2024-06-24_17h33.04.185,LearnStrategy,2023.2.3,Win32,59.88023952,,,,,,,,,,,2,01,5,8,,,,,,,,,,,,,,,,,,,,,,,,,,,,,
66491e9882aaa64c5d0911d5,TCN,2024-06-24_17h33.04.185,LearnStrategy,2023.2.3,Win32,59.88023952,,,,,,,,,,,2,10,6,1,,,,,,,,,,,,,,,,,,,,,,,,,,,,,
66491e9882aaa64c5d0911d5,TCN,2024-06-24_17h33.04.185,LearnStrategy,2023.2.3,Win32,59.88023952,,,,,,,,,,,7,10,6,2,,,,,,,,,,,,,,,,,,,,,,,,,,,,,
66491e9882aaa64c5d0911d5,TCN,2024-06-24_17h33.04.185,LearnStrategy,2023.2.3,Win32,59.88023952,,,,,,,,,,,1,10,6,3,,,,,,,,,,,,,,,,,,,,,,,,,,,,,
66491e9882aaa64c5d0911d5,TCN,2024-06-24_17h33.04.185,LearnStrategy,2023.2.3,Win32,59.88023952,,,,,,,,,,,5,05,6,4,,,,,,,,,,,,,,,,,,,,,,,,,,,,,
66491e9882aaa64c5d0911d5,TCN,2024-06-24_17h33.04.185,LearnStrategy,2023.2.3,Win32,59.88023952,,,,,,,,,,,7,14,6,5,,,,,,,,,,,,,,,,,,,,,,,,,,,,,
66491e9882aaa64c5d0911d5,TCN,2024-06-24_17h33.04.185,LearnStrategy,2023.2.3,Win32,59.88023952,,,,,,,,,,,6,09,6,6,,,,,,,,,,,,,,,,,,,,,,,,,,,,,
66491e9882aaa64c5d0911d5,TCN,2024-06-24_17h33.04.185,LearnStrategy,2023.2.3,Win32,59.88023952,,,,,,,,,,,5,09,6,7,,,,,,,,,,,,,,,,,,,,,,,,,,,,,
66491e9882aaa64c5d0911d5,TCN,2024-06-24_17h33.04.185,LearnStrategy,2023.2.3,Win32,59.88023952,,,,,,,,,,,7,08,6,8,,,,,,,,,,,,,,,,,,,,,,,,,,,,,