participant,condition,date,expName,psychopyVersion,OS,frameRate,block,phase,trial,learn_mouse_2.x,learn_mouse_2.y,learn_mouse_2.leftButton,learn_mouse_2.midButton,learn_mouse_2.rightButton,learn_mouse_2.time,learn_mouse_2.clicked_name,cat,token,row,col,t_select,cat_mouse_l.x,cat_mouse_l.y,cat_mouse_l.leftButton,cat_mouse_l.midButton,cat_mouse_l.rightButton,cat_mouse_l.time,cat_mouse_l.clicked_name,resp,t_resp,corr,train_trials.thisRepN,train_trials.thisTrialN,train_trials.thisN,train_trials.thisIndex,train_trials.ran,cat_mouse_t.x,cat_mouse_t.y,cat_mouse_t.leftButton,cat_mouse_t.midButton,cat_mouse_t.rightButton,cat_mouse_t.time,cat_mouse_t.clicked_name,test_trials.thisRepN,test_trials.thisTrialN,test_trials.thisN,test_trials.thisIndex,test_trials.ran,Bonus
664a04cfda51f0fe3594455a,TCN,2024-06-25_11h40.21.918,LearnStrategy,2023.2.3,Linux x86_64,60.24096386,,,,,,,,,,,,,,,,,,,,,,,,,,,,,,,,,,,,,,,,,,,
664a04cfda51f0fe3594455a,TCN,2024-06-25_11h40.21.918,LearnStrategy,2023.2.3,Linux x86_64,60.24096386,1,1,1,-0.016882946,-0.000541172,1,0,0,3.0455,rock_grid_rect_2,5,09,-1,-1,3.045,-0.3409853,-0.244223759,1,0,0,13.2911,Andesite_rect,1,13.291,0,0,0,0,0,1,,,,,,,,,,,,,
664a04cfda51f0fe3594455a,TCN,2024-06-25_11h40.21.918,LearnStrategy,2023.2.3,Linux x86_64,60.24096386,1,1,2,0.009902611,-0.012892007,1,0,0,1.5592,rock_grid_rect_2,3,08,-1,-1,1.559,0.355947423,-0.254851471,1,0,0,7.2154,Gabbro_rect,4,7.215,0,1,0,1,0,1,,,,,,,,,,,,,
664a04cfda51f0fe3594455a,TCN,2024-06-25_11h40.21.918,LearnStrategy,2023.2.3,Linux x86_64,60.24096386,1,1,3,0.006830813,-0.004466044,1,0,0,1.2769,rock_grid_rect_2,4,03,-1,-1,1.277,-0.069323676,-0.236885631,1,0,0,1.9373,Basalt_rect,2,1.937,0,2,0,2,0,1,,,,,,,,,,,,,
664a04cfda51f0fe3594455a,TCN,2024-06-25_11h40.21.918,LearnStrategy,2023.2.3,Linux x86_64,60.24096386,1,1,4,0.01381124,-0.000749625,1,0,0,1.6321,rock_grid_rect_2,1,14,-1,-1,1.632,-0.128066033,-0.257954656,1,0,0,2.9083,Basalt_rect,2,2.908,0,3,0,3,0,1,,,,,,,,,,,,,
664a04cfda51f0fe3594455a,TCN,2024-06-25_11h40.21.918,LearnStrategy,2023.2.3,Linux x86_64,60.24096386,1,1,5,-0.012278681,-0.015729135,1,0,0,1.4335,rock_grid_rect_2,8,16,-1,-1,1.434,-0.138057863,-0.262623205,1,0,0,2.526,Basalt_rect,2,2.526,0,4,0,4,0,1,,,,,,,,,,,,,
664a04cfda51f0fe3594455a,TCN,2024-06-25_11h40.21.918,LearnStrategy,2023.2.3,Linux x86_64,60.24096386,1,1,6,0.00460756,0.004637986,1,0,0,1.907,rock_grid_rect_2,7,15,-1,-1,1.907,-0.089847319,-0.254826353,1,0,0,2.1216,Basalt_rect,2,2.122,0,5,0,5,0,1,,,,,,,,,,,,,
664a04cfda51f0fe3594455a,TCN,2024-06-25_11h40.21.918,LearnStrategy,2023.2.3,Linux x86_64,60.24096386,1,1,7,-0.005047068,-0.007467015,1,0,0,1.4205,rock_grid_rect_2,8,10,-1,-1,1.421,0.379091643,-0.381010545,1,0,0,3.3502,Pumice_rect,8,3.35,1,6,0,6,0,1,,,,,,,,,,,,,
664a04cfda51f0fe3594455a,TCN,2024-06-25_11h40.21.918,LearnStrategy,2023.2.3,Linux x86_64,60.24096386,1,1,8,-0.00794729,-0.006286438,1,0,0,1.5071,rock_grid_rect_2,7,02,-1,-1,1.507,0.12353598,-0.402323069,1,0,0,2.1734,Peridotite_rect,7,2.173,1,7,0,7,0,1,,,,,,,,,,,,,
664a04cfda51f0fe3594455a,TCN,2024-06-25_11h40.21.918,LearnStrategy,2023.2.3,Linux x86_64,60.24096386,1,1,9,0.002825278,0.000213715,1,0,0,1.4051,rock_grid_rect_2,2,14,-1,-1,1.405,-0.122798159,-0.264537623,1,0,0,3.4803,Basalt_rect,2,3.48,1,8,0,8,0,1,,,,,,,,,,,,,
664a04cfda51f0fe3594455a,TCN,2024-06-25_11h40.21.918,LearnStrategy,2023.2.3,Linux x86_64,60.24096386,1,1,10,0.012356279,0.008539248,1,0,0,1.785,rock_grid_rect_2,6,05,-1,-1,1.785,-0.139897428,-0.405674696,1,0,0,3.2288,Pegmatite_rect,6,3.229,1,9,0,9,0,1,,,,,,,,,,,,,
664a04cfda51f0fe3594455a,TCN,2024-06-25_11h40.21.918,LearnStrategy,2023.2.3,Linux x86_64,60.24096386,1,1,11,0.016812578,-0.008342325,1,0,0,1.0503,rock_grid_rect_2,6,08,-1,-1,1.05,0.090002332,-0.228166343,1,0,0,6.1209,Diorite_rect,3,6.121,0,10,0,10,0,1,,,,,,,,,,,,,
664a04cfda51f0fe3594455a,TCN,2024-06-25_11h40.21.918,LearnStrategy,2023.2.3,Linux x86_64,60.24096386,1,1,12,0.008305997,-0.022671358,1,0,0,1.5847,rock_grid_rect_2,1,02,-1,-1,1.585,-0.034418704,-0.248438113,1,0,0,4.8568,Basalt_rect,2,4.857,0,11,0,11,0,1,,,,,,,,,,,,,
664a04cfda51f0fe3594455a,TCN,2024-06-25_11h40.21.918,LearnStrategy,2023.2.3,Linux x86_64,60.24096386,1,1,13,-0.023728126,-0.006648714,1,0,0,1.2459,rock_grid_rect_2,2,06,-1,-1,1.246,-0.070167644,-0.236614908,1,0,0,1.7411,Basalt_rect,2,1.741,1,12,0,12,0,1,,,,,,,,,,,,,
664a04cfda51f0fe3594455a,TCN,2024-06-25_11h40.21.918,LearnStrategy,2023.2.3,Linux x86_64,60.24096386,1,1,14,-0.019716643,0.003549327,1,0,0,1.2358,rock_grid_rect_2,5,11,-1,-1,1.236,-0.420254869,-0.389129776,1,0,0,2.4492,Obsidian_rect,5,2.449,1,13,0,13,0,1,,,,,,,,,,,,,
664a04cfda51f0fe3594455a,TCN,2024-06-25_11h40.21.918,LearnStrategy,2023.2.3,Linux x86_64,60.24096386,1,1,15,-0.035291955,-0.011337669,1,0,0,1.3808,rock_grid_rect_2,4,09,-1,-1,1.381,0.10926812,-0.244195804,1,0,0,2.1456,Diorite_rect,3,2.146,0,14,0,14,0,1,,,,,,,,,,,,,
664a04cfda51f0fe3594455a,TCN,2024-06-25_11h40.21.918,LearnStrategy,2023.2.3,Linux x86_64,60.24096386,1,1,16,-0.043819124,-0.000199165,1,0,0,1.0294,rock_grid_rect_2,3,09,-1,-1,1.029,0.05820393,-0.403104356,1,0,0,4.3772,Peridotite_rect,7,4.377,0,15,0,15,0,1,,,,,,,,,,,,,
664a04cfda51f0fe3594455a,TCN,2024-06-25_11h40.21.918,LearnStrategy,2023.2.3,Linux x86_64,60.24096386,1,2,1,,,,,,,,4,15,,,,,,,,,,,1,7.054,0,,,,,,-0.43875575,-0.254426376,1,0,0,7.0542,Andesite_rect,0,0,0,0,1,
664a04cfda51f0fe3594455a,TCN,2024-06-25_11h40.21.918,LearnStrategy,2023.2.3,Linux x86_64,60.24096386,1,2,2,,,,,,,,3,06,,,,,,,,,,,7,5.12,0,,,,,,0.180463754,-0.398767017,1,0,0,5.1198,Peridotite_rect,1,0,1,0,1,
664a04cfda51f0fe3594455a,TCN,2024-06-25_11h40.21.918,LearnStrategy,2023.2.3,Linux x86_64,60.24096386,1,2,3,,,,,,,,6,06,,,,,,,,,,,6,2.219,1,,,,,,-0.150199284,-0.390695369,1,0,0,2.219,Pegmatite_rect,2,0,2,0,1,
664a04cfda51f0fe3594455a,TCN,2024-06-25_11h40.21.918,LearnStrategy,2023.2.3,Linux x86_64,60.24096386,1,2,4,,,,,,,,8,06,,,,,,,,,,,8,2.695,1,,,,,,0.372611485,-0.393418159,1,0,0,2.6951,Pumice_rect,3,0,3,0,1,
664a04cfda51f0fe3594455a,TCN,2024-06-25_11h40.21.918,LearnStrategy,2023.2.3,Linux x86_64,60.24096386,1,2,5,,,,,,,,4,11,,,,,,,,,,,2,1.203,0,,,,,,-0.157958207,-0.247516912,1,0,0,1.2033,Basalt_rect,4,0,4,0,1,
664a04cfda51f0fe3594455a,TCN,2024-06-25_11h40.21.918,LearnStrategy,2023.2.3,Linux x86_64,60.24096386,1,2,6,,,,,,,,2,08,,,,,,,,,,,2,2.686,1,,,,,,-0.120703839,-0.25871906,1,0,0,2.6857,Basalt_rect,5,0,5,0,1,
664a04cfda51f0fe3594455a,TCN,2024-06-25_11h40.21.918,LearnStrategy,2023.2.3,Linux x86_64,60.24096386,1,2,7,,,,,,,,1,03,,,,,,,,,,,3,3.255,0,,,,,,0.186810952,-0.264959287,1,0,0,3.2547,Diorite_rect,6,0,6,0,1,
664a04cfda51f0fe3594455a,TCN,2024-06-25_11h40.21.918,LearnStrategy,2023.2.3,Linux x86_64,60.24096386,1,2,8,,,,,,,,8,04,,,,,,,,,,,8,1.544,1,,,,,,0.432485783,-0.396686971,1,0,0,1.5441,Pumice_rect,7,0,7,0,1,
664a04cfda51f0fe3594455a,TCN,2024-06-25_11h40.21.918,LearnStrategy,2023.2.3,Linux x86_64,60.24096386,1,2,9,,,,,,,,7,12,,,,,,,,,,,4,3.65,0,,,,,,0.397196757,-0.233967336,1,0,0,3.65,Gabbro_rect,8,0,8,0,1,
664a04cfda51f0fe3594455a,TCN,2024-06-25_11h40.21.918,LearnStrategy,2023.2.3,Linux x86_64,60.24096386,1,2,10,,,,,,,,6,16,,,,,,,,,,,6,3.066,1,,,,,,-0.165177879,-0.39145387,1,0,0,3.0661,Pegmatite_rect,9,0,9,0,1,
664a04cfda51f0fe3594455a,TCN,2024-06-25_11h40.21.918,LearnStrategy,2023.2.3,Linux x86_64,60.24096386,1,2,11,,,,,,,,5,08,,,,,,,,,,,5,1.395,1,,,,,,-0.362405665,-0.397048607,1,0,0,1.3953,Obsidian_rect,10,0,10,0,1,
664a04cfda51f0fe3594455a,TCN,2024-06-25_11h40.21.918,LearnStrategy,2023.2.3,Linux x86_64,60.24096386,1,2,12,,,,,,,,7,07,,,,,,,,,,,3,3.57,0,,,,,,0.120800287,-0.259957378,1,0,0,3.5702,Diorite_rect,11,0,11,0,1,
664a04cfda51f0fe3594455a,TCN,2024-06-25_11h40.21.918,LearnStrategy,2023.2.3,Linux x86_64,60.24096386,1,2,13,,,,,,,,1,06,,,,,,,,,,,4,2.051,0,,,,,,0.353824553,-0.24791817,1,0,0,2.0513,Gabbro_rect,12,0,12,0,1,
664a04cfda51f0fe3594455a,TCN,2024-06-25_11h40.21.918,LearnStrategy,2023.2.3,Linux x86_64,60.24096386,1,2,14,,,,,,,,2,02,,,,,,,,,,,2,4.562,1,,,,,,-0.122025749,-0.237131602,1,0,0,4.5624,Basalt_rect,13,0,13,0,1,
664a04cfda51f0fe3594455a,TCN,2024-06-25_11h40.21.918,LearnStrategy,2023.2.3,Linux x86_64,60.24096386,1,2,15,,,,,,,,3,02,,,,,,,,,,,1,2.232,0,,,,,,-0.335674189,-0.258128245,1,0,0,2.2325,Andesite_rect,14,0,14,0,1,
664a04cfda51f0fe3594455a,TCN,2024-06-25_11h40.21.918,LearnStrategy,2023.2.3,Linux x86_64,60.24096386,1,2,16,,,,,,,,5,16,,,,,,,,,,,5,1.812,1,,,,,,-0.348362043,-0.380105357,1,0,0,1.8121,Obsidian_rect,15,0,15,0,1,
664a04cfda51f0fe3594455a,TCN,2024-06-25_11h40.21.918,LearnStrategy,2023.2.3,Linux x86_64,60.24096386,2,1,1,0.046202881,0.008695359,1,0,0,1.2998,rock_grid_rect_2,6,13,-1,-1,1.3,0.199812173,-0.406772139,1,0,0,3.0951,Peridotite_rect,7,3.095,0,0,0,0,0,1,,,,,,,,,,,,,
664a04cfda51f0fe3594455a,TCN,2024-06-25_11h40.21.918,LearnStrategy,2023.2.3,Linux x86_64,60.24096386,2,1,2,0.032164429,-0.01334213,1,0,0,1.0917,rock_grid_rect_2,2,11,-1,-1,1.092,-0.07990417,-0.251328773,1,0,0,2.8673,Basalt_rect,2,2.867,1,1,0,1,0,1,,,,,,,,,,,,,
664a04cfda51f0fe3594455a,TCN,2024-06-25_11h40.21.918,LearnStrategy,2023.2.3,Linux x86_64,60.24096386,2,1,3,0.098030422,-0.004740885,1,0,0,1.1368,rock_grid_rect_2,6,11,-1,-1,1.137,-0.370012595,-0.400634857,1,0,0,1.4568,Obsidian_rect,5,1.457,0,2,0,2,0,1,,,,,,,,,,,,,
664a04cfda51f0fe3594455a,TCN,2024-06-25_11h40.21.918,LearnStrategy,2023.2.3,Linux x86_64,60.24096386,2,1,4,0.020065193,-0.018696889,1,0,0,1.0475,rock_grid_rect_2,3,16,-1,-1,1.048,0.407881752,-0.259777338,1,0,0,1.7042,Gabbro_rect,4,1.704,0,3,0,3,0,1,,,,,,,,,,,,,
664a04cfda51f0fe3594455a,TCN,2024-06-25_11h40.21.918,LearnStrategy,2023.2.3,Linux x86_64,60.24096386,2,1,5,0.006762091,0.00290466,1,0,0,1.0013,rock_grid_rect_2,5,04,-1,-1,1.001,-0.358274812,-0.398717969,1,0,0,1.2081,Obsidian_rect,5,1.208,1,4,0,4,0,1,,,,,,,,,,,,,
664a04cfda51f0fe3594455a,TCN,2024-06-25_11h40.21.918,LearnStrategy,2023.2.3,Linux x86_64,60.24096386,2,1,6,0.008797024,0.008311396,1,0,0,1.1102,rock_grid_rect_2,1,10,-1,-1,1.11,0.446276526,-0.40662225,1,0,0,2.0688,Pumice_rect,8,2.069,0,5,0,5,0,1,,,,,,,,,,,,,
664a04cfda51f0fe3594455a,TCN,2024-06-25_11h40.21.918,LearnStrategy,2023.2.3,Linux x86_64,60.24096386,2,1,7,0.062431827,0.012112916,1,0,0,1.0345,rock_grid_rect_2,4,05,-1,-1,1.035,0.06212354,-0.260329079,1,0,0,1.957,Diorite_rect,3,1.957,0,6,0,6,0,1,,,,,,,,,,,,,
664a04cfda51f0fe3594455a,TCN,2024-06-25_11h40.21.918,LearnStrategy,2023.2.3,Linux x86_64,60.24096386,2,1,8,0.016358428,-0.01131342,1,0,0,0.8226,rock_grid_rect_2,2,09,-1,-1,0.823,-0.089503619,-0.258080066,1,0,0,1.1653,Basalt_rect,2,1.165,1,7,0,7,0,1,,,,,,,,,,,,,
664a04cfda51f0fe3594455a,TCN,2024-06-25_11h40.21.918,LearnStrategy,2023.2.3,Linux x86_64,60.24096386,2,1,9,-0.040465943,-0.015314654,1,0,0,1.1939,rock_grid_rect_2,7,04,-1,-1,1.194,-0.348558966,-0.228961905,1,0,0,2.9251,Andesite_rect,1,2.925,0,8,0,8,0,1,,,,,,,,,,,,,
664a04cfda51f0fe3594455a,TCN,2024-06-25_11h40.21.918,LearnStrategy,2023.2.3,Linux x86_64,60.24096386,2,1,10,-0.021122922,0.011286242,1,0,0,1.1924,rock_grid_rect_2,3,14,-1,-1,1.192,0.212274325,-0.253312781,1,0,0,2.985,Diorite_rect,3,2.985,1,9,0,9,0,1,,,,,,,,,,,,,
664a04cfda51f0fe3594455a,TCN,2024-06-25_11h40.21.918,LearnStrategy,2023.2.3,Linux x86_64,60.24096386,2,1,11,0.000242493,-0.00425114,1,0,0,0.9744,rock_grid_rect_2,8,14,-1,-1,0.974,0.330961716,-0.386791773,1,0,0,1.3601,Pumice_rect,8,1.36,1,10,0,10,0,1,,,,,,,,,,,,,
664a04cfda51f0fe3594455a,TCN,2024-06-25_11h40.21.918,LearnStrategy,2023.2.3,Linux x86_64,60.24096386,2,1,12,0.004221217,-0.002812101,1,0,0,0.9367,rock_grid_rect_2,8,03,-1,-1,0.937,0.319538534,-0.400470145,1,0,0,1.9968,Pumice_rect,8,1.997,1,11,0,11,0,1,,,,,,,,,,,,,
664a04cfda51f0fe3594455a,TCN,2024-06-25_11h40.21.918,LearnStrategy,2023.2.3,Linux x86_64,60.24096386,2,1,13,0.014790456,0.007651997,1,0,0,0.9334,rock_grid_rect_2,4,14,-1,-1,0.933,0.364678196,-0.247769151,1,0,0,2.4354,Gabbro_rect,4,2.435,1,12,0,12,0,1,,,,,,,,,,,,,
664a04cfda51f0fe3594455a,TCN,2024-06-25_11h40.21.918,LearnStrategy,2023.2.3,Linux x86_64,60.24096386,2,1,14,-0.007635434,0.005398043,1,0,0,1.1362,rock_grid_rect_2,7,06,-1,-1,1.136,0.033032281,-0.388759081,1,0,0,2.2021,Peridotite_rect,7,2.202,1,13,0,13,0,1,,,,,,,,,,,,,
664a04cfda51f0fe3594455a,TCN,2024-06-25_11h40.21.918,LearnStrategy,2023.2.3,Linux x86_64,60.24096386,2,1,15,0.004137946,0.007709646,1,0,0,0.9096,rock_grid_rect_2,5,02,-1,-1,0.91,-0.402312821,-0.386680683,1,0,0,1.1375,Obsidian_rect,5,1.137,1,14,0,14,0,1,,,,,,,,,,,,,
664a04cfda51f0fe3594455a,TCN,2024-06-25_11h40.21.918,LearnStrategy,2023.2.3,Linux x86_64,60.24096386,2,1,16,-0.006064076,-0.004504431,1,0,0,0.9316,rock_grid_rect_2,1,05,-1,-1,0.932,0.156833815,-0.237631367,1,0,0,1.4145,Diorite_rect,3,1.414,0,15,0,15,0,1,,,,,,,,,,,,,
664a04cfda51f0fe3594455a,TCN,2024-06-25_11h40.21.918,LearnStrategy,2023.2.3,Linux x86_64,60.24096386,2,2,1,,,,,,,,1,04,,,,,,,,,,,3,3.14,0,,,,,,0.165956145,-0.258771356,1,0,0,3.1401,Diorite_rect,0,0,0,0,1,
664a04cfda51f0fe3594455a,TCN,2024-06-25_11h40.21.918,LearnStrategy,2023.2.3,Linux x86_64,60.24096386,2,2,2,,,,,,,,7,10,,,,,,,,,,,1,1.264,0,,,,,,-0.448221736,-0.248723844,1,0,0,1.2644,Andesite_rect,1,0,1,0,1,
664a04cfda51f0fe3594455a,TCN,2024-06-25_11h40.21.918,LearnStrategy,2023.2.3,Linux x86_64,60.24096386,2,2,3,,,,,,,,2,12,,,,,,,,,,,8,2.03,0,,,,,,0.372696312,-0.380706009,1,0,0,2.0299,Pumice_rect,2,0,2,0,1,
664a04cfda51f0fe3594455a,TCN,2024-06-25_11h40.21.918,LearnStrategy,2023.2.3,Linux x86_64,60.24096386,2,2,4,,,,,,,,3,15,,,,,,,,,,,4,1.559,0,,,,,,0.356197054,-0.238494873,1,0,0,1.5588,Gabbro_rect,3,0,3,0,1,
664a04cfda51f0fe3594455a,TCN,2024-06-25_11h40.21.918,LearnStrategy,2023.2.3,Linux x86_64,60.24096386,2,2,5,,,,,,,,8,05,,,,,,,,,,,8,1.398,1,,,,,,0.384670366,-0.380487033,1,0,0,1.3982,Pumice_rect,4,0,4,0,1,
664a04cfda51f0fe3594455a,TCN,2024-06-25_11h40.21.918,LearnStrategy,2023.2.3,Linux x86_64,60.24096386,2,2,6,,,,,,,,6,12,,,,,,,,,,,7,1.424,0,,,,,,0.141924125,-0.392458708,1,0,0,1.4235,Peridotite_rect,5,0,5,0,1,
664a04cfda51f0fe3594455a,TCN,2024-06-25_11h40.21.918,LearnStrategy,2023.2.3,Linux x86_64,60.24096386,2,2,7,,,,,,,,5,10,,,,,,,,,,,5,1.375,1,,,,,,-0.409864663,-0.387684423,1,0,0,1.3755,Obsidian_rect,6,0,6,0,1,
664a04cfda51f0fe3594455a,TCN,2024-06-25_11h40.21.918,LearnStrategy,2023.2.3,Linux x86_64,60.24096386,2,2,8,,,,,,,,4,16,,,,,,,,,,,3,1.829,0,,,,,,0.104221693,-0.247138211,1,0,0,1.8293,Diorite_rect,7,0,7,0,1,
664a04cfda51f0fe3594455a,TCN,2024-06-25_11h40.21.918,LearnStrategy,2023.2.3,Linux x86_64,60.24096386,2,2,9,,,,,,,,6,10,,,,,,,,,,,7,2.106,0,,,,,,0.090136664,-0.386319963,1,0,0,2.1058,Peridotite_rect,8,0,8,0,1,
664a04cfda51f0fe3594455a,TCN,2024-06-25_11h40.21.918,LearnStrategy,2023.2.3,Linux x86_64,60.24096386,2,2,10,,,,,,,,1,01,,,,,,,,,,,4,2.098,0,,,,,,0.396375939,-0.251638066,1,0,0,2.098,Gabbro_rect,9,0,9,0,1,
664a04cfda51f0fe3594455a,TCN,2024-06-25_11h40.21.918,LearnStrategy,2023.2.3,Linux x86_64,60.24096386,2,2,11,,,,,,,,5,14,,,,,,,,,,,5,1.281,1,,,,,,-0.330018737,-0.414828688,1,0,0,1.2813,Obsidian_rect,10,0,10,0,1,
664a04cfda51f0fe3594455a,TCN,2024-06-25_11h40.21.918,LearnStrategy,2023.2.3,Linux x86_64,60.24096386,2,2,12,,,,,,,,3,10,,,,,,,,,,,6,1.892,0,,,,,,-0.075932767,-0.379514131,1,0,0,1.8915,Pegmatite_rect,11,0,11,0,1,
664a04cfda51f0fe3594455a,TCN,2024-06-25_11h40.21.918,LearnStrategy,2023.2.3,Linux x86_64,60.24096386,2,2,13,,,,,,,,2,01,,,,,,,,,,,2,1.147,1,,,,,,-0.138792481,-0.257683201,1,0,0,1.1469,Basalt_rect,12,0,12,0,1,
664a04cfda51f0fe3594455a,TCN,2024-06-25_11h40.21.918,LearnStrategy,2023.2.3,Linux x86_64,60.24096386,2,2,14,,,,,,,,4,12,,,,,,,,,,,2,1.339,0,,,,,,-0.136651538,-0.258758911,1,0,0,1.3392,Basalt_rect,13,0,13,0,1,
664a04cfda51f0fe3594455a,TCN,2024-06-25_11h40.21.918,LearnStrategy,2023.2.3,Linux x86_64,60.24096386,2,2,15,,,,,,,,7,16,,,,,,,,,,,3,1.406,0,,,,,,0.089983024,-0.261262771,1,0,0,1.4059,Diorite_rect,14,0,14,0,1,
664a04cfda51f0fe3594455a,TCN,2024-06-25_11h40.21.918,LearnStrategy,2023.2.3,Linux x86_64,60.24096386,2,2,16,,,,,,,,8,02,,,,,,,,,,,8,1.24,1,,,,,,0.383122343,-0.38349258,1,0,0,1.2403,Pumice_rect,15,0,15,0,1,
664a04cfda51f0fe3594455a,TCN,2024-06-25_11h40.21.918,LearnStrategy,2023.2.3,Linux x86_64,60.24096386,3,1,1,-0.0220002,0.006869749,1,0,0,1.0733,rock_grid_rect_2,7,08,-1,-1,1.073,0.130453633,-0.244285389,1,0,0,1.408,Diorite_rect,3,1.408,0,0,0,0,0,1,,,,,,,,,,,,,
664a04cfda51f0fe3594455a,TCN,2024-06-25_11h40.21.918,LearnStrategy,2023.2.3,Linux x86_64,60.24096386,3,1,2,-0.006803544,-0.017185926,1,0,0,1.1342,rock_grid_rect_2,4,10,-1,-1,1.134,0.412088054,-0.244369118,1,0,0,1.4065,Gabbro_rect,4,1.406,1,1,0,1,0,1,,,,,,,,,,,,,
664a04cfda51f0fe3594455a,TCN,2024-06-25_11h40.21.918,LearnStrategy,2023.2.3,Linux x86_64,60.24096386,3,1,3,-0.001010695,-0.012850737,1,0,0,1.4005,rock_grid_rect_2,6,03,-1,-1,1.4,-0.084212044,-0.40399051,1,0,0,1.646,Pegmatite_rect,6,1.646,1,2,0,2,0,1,,,,,,,,,,,,,
664a04cfda51f0fe3594455a,TCN,2024-06-25_11h40.21.918,LearnStrategy,2023.2.3,Linux x86_64,60.24096386,3,1,4,-0.089788205,-0.022330174,1,0,0,1.229,rock_grid_rect_2,5,05,-1,-1,1.229,-0.343416777,-0.404329726,1,0,0,1.3413,Obsidian_rect,5,1.341,1,3,0,3,0,1,,,,,,,,,,,,,
664a04cfda51f0fe3594455a,TCN,2024-06-25_11h40.21.918,LearnStrategy,2023.2.3,Linux x86_64,60.24096386,3,1,5,-0.023624998,-0.012309336,1,0,0,1.0272,rock_grid_rect_2,2,05,-1,-1,1.027,-0.153096944,-0.238395268,1,0,0,1.0134,Basalt_rect,2,1.013,1,4,0,4,0,1,,,,,,,,,,,,,
664a04cfda51f0fe3594455a,TCN,2024-06-25_11h40.21.918,LearnStrategy,2023.2.3,Linux x86_64,60.24096386,3,1,6,-0.027222229,-0.005531597,1,0,0,1.5461,rock_grid_rect_2,6,09,-1,-1,1.546,-0.074589628,-0.413406303,1,0,0,1.5975,Pegmatite_rect,6,1.598,1,5,0,5,0,1,,,,,,,,,,,,,
664a04cfda51f0fe3594455a,TCN,2024-06-25_11h40.21.918,LearnStrategy,2023.2.3,Linux x86_64,60.24096386,3,1,7,-0.067067845,-0.010047604,1,0,0,1.0555,rock_grid_rect_2,5,07,-1,-1,1.055,0.145411273,-0.400602738,1,0,0,1.9476,Peridotite_rect,7,1.948,0,6,0,6,0,1,,,,,,,,,,,,,
664a04cfda51f0fe3594455a,TCN,2024-06-25_11h40.21.918,LearnStrategy,2023.2.3,Linux x86_64,60.24096386,3,1,8,-0.102683644,-0.022953062,1,0,0,1.1809,rock_grid_rect_2,2,04,-1,-1,1.181,-0.117487368,-0.260038773,1,0,0,1.052,Basalt_rect,2,1.052,1,7,0,7,0,1,,,,,,,,,,,,,
664a04cfda51f0fe3594455a,TCN,2024-06-25_11h40.21.918,LearnStrategy,2023.2.3,Linux x86_64,60.24096386,3,1,9,-0.087909292,0.01986461,1,0,0,1.0158,rock_grid_rect_2,3,13,-1,-1,1.016,0.10924808,-0.410238515,1,0,0,1.6146,Peridotite_rect,7,1.615,0,8,0,8,0,1,,,,,,,,,,,,,
664a04cfda51f0fe3594455a,TCN,2024-06-25_11h40.21.918,LearnStrategy,2023.2.3,Linux x86_64,60.24096386,3,1,10,-0.03607196,-0.014756782,1,0,0,1.2223,rock_grid_rect_2,8,13,-1,-1,1.222,0.369152795,-0.395233109,1,0,0,4.4088,Pumice_rect,8,4.409,1,9,0,9,0,1,,,,,,,,,,,,,
664a04cfda51f0fe3594455a,TCN,2024-06-25_11h40.21.918,LearnStrategy,2023.2.3,Linux x86_64,60.24096386,3,1,11,0.08235125,0.005915423,1,0,0,1.3509,rock_grid_rect_2,1,07,-1,-1,1.351,0.152224974,-0.230038072,1,0,0,1.6065,Diorite_rect,3,1.607,0,10,0,10,0,1,,,,,,,,,,,,,
664a04cfda51f0fe3594455a,TCN,2024-06-25_11h40.21.918,LearnStrategy,2023.2.3,Linux x86_64,60.24096386,3,1,12,0.004654869,-0.003341011,1,0,0,1.2084,rock_grid_rect_2,7,14,-1,-1,1.208,0.152918871,-0.22816282,1,0,0,1.6367,Diorite_rect,3,1.637,0,11,0,11,0,1,,,,,,,,,,,,,
664a04cfda51f0fe3594455a,TCN,2024-06-25_11h40.21.918,LearnStrategy,2023.2.3,Linux x86_64,60.24096386,3,1,13,-0.002379822,-0.007290727,1,0,0,1.4521,rock_grid_rect_2,1,11,-1,-1,1.452,-0.096920259,-0.255849813,1,0,0,2.3736,Basalt_rect,2,2.374,0,12,0,12,0,1,,,,,,,,,,,,,
664a04cfda51f0fe3594455a,TCN,2024-06-25_11h40.21.918,LearnStrategy,2023.2.3,Linux x86_64,60.24096386,3,1,14,0.0216371,-0.001078959,1,0,0,1.2849,rock_grid_rect_2,4,01,-1,-1,1.285,-0.348174317,-0.238219529,1,0,0,1.723,Andesite_rect,1,1.723,0,13,0,13,0,1,,,,,,,,,,,,,
664a04cfda51f0fe3594455a,TCN,2024-06-25_11h40.21.918,LearnStrategy,2023.2.3,Linux x86_64,60.24096386,3,1,15,0.010908639,0.00015451,1,0,0,0.9494,rock_grid_rect_2,3,12,-1,-1,0.949,0.345914964,-0.250409173,1,0,0,1.4631,Gabbro_rect,4,1.463,0,14,0,14,0,1,,,,,,,,,,,,,
664a04cfda51f0fe3594455a,TCN,2024-06-25_11h40.21.918,LearnStrategy,2023.2.3,Linux x86_64,60.24096386,3,1,16,-0.004296527,0.020196826,1,0,0,1.4168,rock_grid_rect_2,8,09,-1,-1,1.417,0.446786677,-0.40945549,1,0,0,1.481,Pumice_rect,8,1.481,1,15,0,15,0,1,,,,,,,,,,,,,
664a04cfda51f0fe3594455a,TCN,2024-06-25_11h40.21.918,LearnStrategy,2023.2.3,Linux x86_64,60.24096386,3,2,1,,,,,,,,6,07,,,,,,,,,,,6,1.518,1,,,,,,-0.1530985,-0.389880408,1,0,0,1.5177,Pegmatite_rect,0,0,0,0,1,
664a04cfda51f0fe3594455a,TCN,2024-06-25_11h40.21.918,LearnStrategy,2023.2.3,Linux x86_64,60.24096386,3,2,2,,,,,,,,6,15,,,,,,,,,,,6,1.384,1,,,,,,-0.150979747,-0.389880408,1,0,0,1.3836,Pegmatite_rect,1,0,1,0,1,
664a04cfda51f0fe3594455a,TCN,2024-06-25_11h40.21.918,LearnStrategy,2023.2.3,Linux x86_64,60.24096386,3,2,3,,,,,,,,7,05,,,,,,,,,,,4,5.186,0,,,,,,0.410634008,-0.250098324,1,0,0,5.1862,Gabbro_rect,2,0,2,0,1,
664a04cfda51f0fe3594455a,TCN,2024-06-25_11h40.21.918,LearnStrategy,2023.2.3,Linux x86_64,60.24096386,3,2,4,,,,,,,,5,06,,,,,,,,,,,5,1.212,1,,,,,,-0.455053327,-0.417948801,1,0,0,1.2121,Obsidian_rect,3,0,3,0,1,
664a04cfda51f0fe3594455a,TCN,2024-06-25_11h40.21.918,LearnStrategy,2023.2.3,Linux x86_64,60.24096386,3,2,5,,,,,,,,3,11,,,,,,,,,,,3,2.342,1,,,,,,0.090923898,-0.241578109,1,0,0,2.3421,Diorite_rect,4,0,4,0,1,
664a04cfda51f0fe3594455a,TCN,2024-06-25_11h40.21.918,LearnStrategy,2023.2.3,Linux x86_64,60.24096386,3,2,6,,,,,,,,2,10,,,,,,,,,,,2,1.605,1,,,,,,-0.128523797,-0.267275374,1,0,0,1.6054,Basalt_rect,5,0,5,0,1,
664a04cfda51f0fe3594455a,TCN,2024-06-25_11h40.21.918,LearnStrategy,2023.2.3,Linux x86_64,60.24096386,3,2,7,,,,,,,,8,08,,,,,,,,,,,8,1.346,1,,,,,,0.396803826,-0.391734705,1,0,0,1.3459,Pumice_rect,6,0,6,0,1,
664a04cfda51f0fe3594455a,TCN,2024-06-25_11h40.21.918,LearnStrategy,2023.2.3,Linux x86_64,60.24096386,3,2,8,,,,,,,,4,08,,,,,,,,,,,3,3.631,0,,,,,,0.154108279,-0.251853977,1,0,0,3.6315,Diorite_rect,7,0,7,0,1,
664a04cfda51f0fe3594455a,TCN,2024-06-25_11h40.21.918,LearnStrategy,2023.2.3,Linux x86_64,60.24096386,3,2,9,,,,,,,,1,09,,,,,,,,,,,1,1.338,1,,,,,,-0.353563254,-0.250455842,1,0,0,1.3384,Andesite_rect,8,0,8,0,1,
664a04cfda51f0fe3594455a,TCN,2024-06-25_11h40.21.918,LearnStrategy,2023.2.3,Linux x86_64,60.24096386,3,2,10,,,,,,,,4,13,,,,,,,,,,,4,2.313,1,,,,,,0.361743658,-0.245312738,1,0,0,2.3134,Gabbro_rect,9,0,9,0,1,
664a04cfda51f0fe3594455a,TCN,2024-06-25_11h40.21.918,LearnStrategy,2023.2.3,Linux x86_64,60.24096386,3,2,11,,,,,,,,7,13,,,,,,,,,,,6,2.065,0,,,,,,-0.060033612,-0.394938822,1,0,0,2.065,Pegmatite_rect,10,0,10,0,1,
664a04cfda51f0fe3594455a,TCN,2024-06-25_11h40.21.918,LearnStrategy,2023.2.3,Linux x86_64,60.24096386,3,2,12,,,,,,,,5,12,,,,,,,,,,,5,1.094,1,,,,,,-0.331712074,-0.393001436,1,0,0,1.094,Obsidian_rect,11,0,11,0,1,
664a04cfda51f0fe3594455a,TCN,2024-06-25_11h40.21.918,LearnStrategy,2023.2.3,Linux x86_64,60.24096386,3,2,13,,,,,,,,2,16,,,,,,,,,,,2,3.551,1,,,,,,-0.190479696,-0.248889792,1,0,0,3.5508,Basalt_rect,12,0,12,0,1,
664a04cfda51f0fe3594455a,TCN,2024-06-25_11h40.21.918,LearnStrategy,2023.2.3,Linux x86_64,60.24096386,3,2,14,,,,,,,,3,07,,,,,,,,,,,1,2.806,0,,,,,,-0.387147872,-0.255540107,1,0,0,2.8059,Andesite_rect,13,0,13,0,1,
664a04cfda51f0fe3594455a,TCN,2024-06-25_11h40.21.918,LearnStrategy,2023.2.3,Linux x86_64,60.24096386,3,2,15,,,,,,,,8,15,,,,,,,,,,,4,3,0,,,,,,0.388921964,-0.234869046,1,0,0,2.9995,Gabbro_rect,14,0,14,0,1,
664a04cfda51f0fe3594455a,TCN,2024-06-25_11h40.21.918,LearnStrategy,2023.2.3,Linux x86_64,60.24096386,3,2,16,,,,,,,,1,16,,,,,,,,,,,3,3.826,0,,,,,,0.061464324,-0.26332575,1,0,0,3.8258,Diorite_rect,15,0,15,0,1,
664a04cfda51f0fe3594455a,TCN,2024-06-25_11h40.21.918,LearnStrategy,2023.2.3,Linux x86_64,60.24096386,4,1,1,-0.158334804,-0.019962385,1,0,0,1.0648,rock_grid_rect_2,1,10,-1,-1,1.065,0.41036937,-0.390513544,1,0,0,2.1072,Pumice_rect,8,2.107,0,0,0,0,0,1,,,,,,,,,,,,,
664a04cfda51f0fe3594455a,TCN,2024-06-25_11h40.21.918,LearnStrategy,2023.2.3,Linux x86_64,60.24096386,4,1,2,-0.080797736,-0.012572968,1,0,0,0.9464,rock_grid_rect_2,2,06,-1,-1,0.946,-0.191955429,-0.245618188,1,0,0,1.3673,Basalt_rect,2,1.367,1,1,0,1,0,1,,,,,,,,,,,,,
664a04cfda51f0fe3594455a,TCN,2024-06-25_11h40.21.918,LearnStrategy,2023.2.3,Linux x86_64,60.24096386,4,1,3,-0.047157482,0.010523669,1,0,0,4.3632,rock_grid_rect_2,3,14,-1,-1,4.363,0.175544979,-0.230054498,1,0,0,2.1161,Diorite_rect,3,2.116,1,2,0,2,0,1,,,,,,,,,,,,,
664a04cfda51f0fe3594455a,TCN,2024-06-25_11h40.21.918,LearnStrategy,2023.2.3,Linux x86_64,60.24096386,4,1,4,-0.034852355,0.004068949,1,0,0,1.0228,rock_grid_rect_2,4,01,-1,-1,1.023,0.402874857,-0.25798737,1,0,0,3.085,Gabbro_rect,4,3.085,1,3,0,3,0,1,,,,,,,,,,,,,
664a04cfda51f0fe3594455a,TCN,2024-06-25_11h40.21.918,LearnStrategy,2023.2.3,Linux x86_64,60.24096386,4,1,5,-0.010111613,-0.003282676,1,0,0,0.974,rock_grid_rect_2,2,04,-1,-1,0.974,-0.124849196,-0.258951259,1,0,0,1.0461,Basalt_rect,2,1.046,1,4,0,4,0,1,,,,,,,,,,,,,
664a04cfda51f0fe3594455a,TCN,2024-06-25_11h40.21.918,LearnStrategy,2023.2.3,Linux x86_64,60.24096386,4,1,6,-0.075169965,-0.005358054,1,0,0,1.0732,rock_grid_rect_2,6,09,-1,-1,1.073,-0.145179211,-0.398376373,1,0,0,1.1262,Pegmatite_rect,6,1.126,1,5,0,5,0,1,,,,,,,,,,,,,
664a04cfda51f0fe3594455a,TCN,2024-06-25_11h40.21.918,LearnStrategy,2023.2.3,Linux x86_64,60.24096386,4,1,7,-0.062002568,0.008003612,1,0,0,0.8798,rock_grid_rect_2,7,08,-1,-1,0.88,0.08874466,-0.383728576,1,0,0,2.0474,Peridotite_rect,7,2.047,1,6,0,6,0,1,,,,,,,,,,,,,
664a04cfda51f0fe3594455a,TCN,2024-06-25_11h40.21.918,LearnStrategy,2023.2.3,Linux x86_64,60.24096386,4,1,8,-0.005709029,-0.003505129,1,0,0,0.9979,rock_grid_rect_2,5,05,-1,-1,0.998,-0.339281394,-0.407962919,1,0,0,1.3407,Obsidian_rect,5,1.341,1,7,0,7,0,1,,,,,,,,,,,,,
664a04cfda51f0fe3594455a,TCN,2024-06-25_11h40.21.918,LearnStrategy,2023.2.3,Linux x86_64,60.24096386,4,1,9,-0.119713642,0.007664076,1,0,0,1.132,rock_grid_rect_2,3,09,-1,-1,1.132,-0.341319666,-0.232190957,1,0,0,1.4137,Andesite_rect,1,1.414,0,8,0,8,0,1,,,,,,,,,,,,,
664a04cfda51f0fe3594455a,TCN,2024-06-25_11h40.21.918,LearnStrategy,2023.2.3,Linux x86_64,60.24096386,4,1,10,-0.026944048,0.009072871,1,0,0,1.1078,rock_grid_rect_2,4,09,-1,-1,1.108,-0.362126249,-0.261973231,1,0,0,1.4919,Andesite_rect,1,1.492,0,9,0,9,0,1,,,,,,,,,,,,,
664a04cfda51f0fe3594455a,TCN,2024-06-25_11h40.21.918,LearnStrategy,2023.2.3,Linux x86_64,60.24096386,4,1,11,-0.012485762,0.007109177,1,0,0,1.1643,rock_grid_rect_2,8,14,-1,-1,1.164,0.33378553,-0.406481147,1,0,0,1.2447,Pumice_rect,8,1.245,1,10,0,10,0,1,,,,,,,,,,,,,
664a04cfda51f0fe3594455a,TCN,2024-06-25_11h40.21.918,LearnStrategy,2023.2.3,Linux x86_64,60.24096386,4,1,12,0.02073658,-0.0021468,1,0,0,1.1488,rock_grid_rect_2,7,06,-1,-1,1.149,-0.155051533,-0.414286509,1,0,0,1.5184,Pegmatite_rect,6,1.518,0,11,0,11,0,1,,,,,,,,,,,,,
664a04cfda51f0fe3594455a,TCN,2024-06-25_11h40.21.918,LearnStrategy,2023.2.3,Linux x86_64,60.24096386,4,1,13,-0.030528467,0.021034069,1,0,0,0.8356,rock_grid_rect_2,1,14,-1,-1,0.836,0.14488346,-0.249137775,1,0,0,2.8678,Diorite_rect,3,2.868,0,12,0,12,0,1,,,,,,,,,,,,,
664a04cfda51f0fe3594455a,TCN,2024-06-25_11h40.21.918,LearnStrategy,2023.2.3,Linux x86_64,60.24096386,4,1,14,-0.002208063,-0.011629531,1,0,0,1.1158,rock_grid_rect_2,5,09,-1,-1,1.116,-0.347193728,-0.393580309,1,0,0,1.2582,Obsidian_rect,5,1.258,1,13,0,13,0,1,,,,,,,,,,,,,
664a04cfda51f0fe3594455a,TCN,2024-06-25_11h40.21.918,LearnStrategy,2023.2.3,Linux x86_64,60.24096386,4,1,15,0.002643911,0.009132259,1,0,0,0.9198,rock_grid_rect_2,8,10,-1,-1,0.92,0.378491906,-0.395945033,1,0,0,2.7172,Pumice_rect,8,2.717,1,14,0,14,0,1,,,,,,,,,,,,,
664a04cfda51f0fe3594455a,TCN,2024-06-25_11h40.21.918,LearnStrategy,2023.2.3,Linux x86_64,60.24096386,4,1,16,-0.016506395,-0.002306525,1,0,0,1.3788,rock_grid_rect_2,6,13,-1,-1,1.379,0.162412355,-0.40310518,1,0,0,2.8261,Peridotite_rect,7,2.826,0,15,0,15,0,1,,,,,,,,,,,,,
664a04cfda51f0fe3594455a,TCN,2024-06-25_11h40.21.918,LearnStrategy,2023.2.3,Linux x86_64,60.24096386,4,2,1,,,,,,,,5,10,,,,,,,,,,,5,2.18,1,,,,,,-0.386593523,-0.388878223,1,0,0,2.1804,Obsidian_rect,0,0,0,0,1,
664a04cfda51f0fe3594455a,TCN,2024-06-25_11h40.21.918,LearnStrategy,2023.2.3,Linux x86_64,60.24096386,4,2,2,,,,,,,,7,05,,,,,,,,,,,3,4.616,0,,,,,,0.114011567,-0.268532451,1,0,0,4.6165,Diorite_rect,1,0,1,0,1,
664a04cfda51f0fe3594455a,TCN,2024-06-25_11h40.21.918,LearnStrategy,2023.2.3,Linux x86_64,60.24096386,4,2,3,,,,,,,,6,16,,,,,,,,,,,6,1.429,1,,,,,,-0.116274169,-0.398137723,1,0,0,1.4287,Pegmatite_rect,2,0,2,0,1,
664a04cfda51f0fe3594455a,TCN,2024-06-25_11h40.21.918,LearnStrategy,2023.2.3,Linux x86_64,60.24096386,4,2,4,,,,,,,,1,06,,,,,,,,,,,1,3.19,1,,,,,,-0.369656907,-0.267376535,1,0,0,3.1899,Andesite_rect,3,0,3,0,1,
664a04cfda51f0fe3594455a,TCN,2024-06-25_11h40.21.918,LearnStrategy,2023.2.3,Linux x86_64,60.24096386,4,2,5,,,,,,,,6,15,,,,,,,,,,,6,1.063,1,,,,,,-0.174389063,-0.396350866,1,0,0,1.063,Pegmatite_rect,4,0,4,0,1,
664a04cfda51f0fe3594455a,TCN,2024-06-25_11h40.21.918,LearnStrategy,2023.2.3,Linux x86_64,60.24096386,4,2,6,,,,,,,,4,12,,,,,,,,,,,4,2.11,1,,,,,,0.338204219,-0.249329437,1,0,0,2.1104,Gabbro_rect,5,0,5,0,1,
664a04cfda51f0fe3594455a,TCN,2024-06-25_11h40.21.918,LearnStrategy,2023.2.3,Linux x86_64,60.24096386,4,2,7,,,,,,,,3,11,,,,,,,,,,,1,4.741,0,,,,,,-0.371654642,-0.271449511,1,0,0,4.7409,Andesite_rect,6,0,6,0,1,
664a04cfda51f0fe3594455a,TCN,2024-06-25_11h40.21.918,LearnStrategy,2023.2.3,Linux x86_64,60.24096386,4,2,8,,,,,,,,2,12,,,,,,,,,,,8,1.457,0,,,,,,0.411454368,-0.38161266,1,0,0,1.4572,Pumice_rect,7,0,7,0,1,
664a04cfda51f0fe3594455a,TCN,2024-06-25_11h40.21.918,LearnStrategy,2023.2.3,Linux x86_64,60.24096386,4,2,9,,,,,,,,8,15,,,,,,,,,,,8,1.393,1,,,,,,0.38791804,-0.378157997,1,0,0,1.3934,Pumice_rect,8,0,8,0,1,
664a04cfda51f0fe3594455a,TCN,2024-06-25_11h40.21.918,LearnStrategy,2023.2.3,Linux x86_64,60.24096386,4,2,10,,,,,,,,5,14,,,,,,,,,,,5,1.73,1,,,,,,-0.373147258,-0.41295371,1,0,0,1.7302,Obsidian_rect,9,0,9,0,1,
664a04cfda51f0fe3594455a,TCN,2024-06-25_11h40.21.918,LearnStrategy,2023.2.3,Linux x86_64,60.24096386,4,2,11,,,,,,,,2,10,,,,,,,,,,,2,1.188,1,,,,,,-0.184009649,-0.255345289,1,0,0,1.1879,Basalt_rect,10,0,10,0,1,
664a04cfda51f0fe3594455a,TCN,2024-06-25_11h40.21.918,LearnStrategy,2023.2.3,Linux x86_64,60.24096386,4,2,12,,,,,,,,7,12,,,,,,,,,,,1,2.221,0,,,,,,-0.378919702,-0.260127535,1,0,0,2.2215,Andesite_rect,11,0,11,0,1,
664a04cfda51f0fe3594455a,TCN,2024-06-25_11h40.21.918,LearnStrategy,2023.2.3,Linux x86_64,60.24096386,4,2,13,,,,,,,,4,16,,,,,,,,,,,4,2.13,1,,,,,,0.401412941,-0.24071561,1,0,0,2.1295,Gabbro_rect,12,0,12,0,1,
664a04cfda51f0fe3594455a,TCN,2024-06-25_11h40.21.918,LearnStrategy,2023.2.3,Linux x86_64,60.24096386,4,2,14,,,,,,,,8,08,,,,,,,,,,,8,2.583,1,,,,,,0.408325927,-0.390632778,1,0,0,2.583,Pumice_rect,13,0,13,0,1,
664a04cfda51f0fe3594455a,TCN,2024-06-25_11h40.21.918,LearnStrategy,2023.2.3,Linux x86_64,60.24096386,4,2,15,,,,,,,,3,10,,,,,,,,,,,7,2.41,0,,,,,,0.159712533,-0.4031319,1,0,0,2.4099,Peridotite_rect,14,0,14,0,1,
664a04cfda51f0fe3594455a,TCN,2024-06-25_11h40.21.918,LearnStrategy,2023.2.3,Linux x86_64,60.24096386,4,2,16,,,,,,,,1,04,,,,,,,,,,,3,1.593,0,,,,,,0.097590365,-0.256005512,1,0,0,1.5925,Diorite_rect,15,0,15,0,1,
664a04cfda51f0fe3594455a,TCN,2024-06-25_11h40.21.918,LearnStrategy,2023.2.3,Linux x86_64,60.24096386,5,1,1,-0.040230221,-0.002216299,1,0,0,1.1183,rock_grid_rect_2,1,02,-1,-1,1.118,0.120352086,-0.246687036,1,0,0,1.4387,Diorite_rect,3,1.439,0,0,0,0,0,1,,,,,,,,,,,,,
664a04cfda51f0fe3594455a,TCN,2024-06-25_11h40.21.918,LearnStrategy,2023.2.3,Linux x86_64,60.24096386,5,1,2,-0.114583577,-0.003304912,1,0,0,1.2428,rock_grid_rect_2,4,05,-1,-1,1.243,0.16743746,-0.396744529,1,0,0,1.3924,Peridotite_rect,7,1.392,0,1,0,1,0,1,,,,,,,,,,,,,
664a04cfda51f0fe3594455a,TCN,2024-06-25_11h40.21.918,LearnStrategy,2023.2.3,Linux x86_64,60.24096386,5,1,3,-0.039803707,0.000833217,1,0,0,0.9417,rock_grid_rect_2,5,02,-1,-1,0.942,-0.312623077,-0.40306089,1,0,0,1.3751,Obsidian_rect,5,1.375,1,2,0,2,0,1,,,,,,,,,,,,,
664a04cfda51f0fe3594455a,TCN,2024-06-25_11h40.21.918,LearnStrategy,2023.2.3,Linux x86_64,60.24096386,5,1,4,0.004592095,0.002163683,1,0,0,1.0974,rock_grid_rect_2,5,07,-1,-1,1.097,-0.354611879,-0.410555586,1,0,0,1.2354,Obsidian_rect,5,1.235,1,3,0,3,0,1,,,,,,,,,,,,,
664a04cfda51f0fe3594455a,TCN,2024-06-25_11h40.21.918,LearnStrategy,2023.2.3,Linux x86_64,60.24096386,5,1,5,-0.005948503,0.013308181,1,0,0,0.922,rock_grid_rect_2,8,13,-1,-1,0.922,0.428196485,-0.39688545,1,0,0,1.6166,Pumice_rect,8,1.617,1,4,0,4,0,1,,,,,,,,,,,,,
664a04cfda51f0fe3594455a,TCN,2024-06-25_11h40.21.918,LearnStrategy,2023.2.3,Linux x86_64,60.24096386,5,1,6,-0.001538232,-0.00017455,1,0,0,0.9485,rock_grid_rect_2,8,03,-1,-1,0.949,0.365686602,-0.402126421,1,0,0,2.2921,Pumice_rect,8,2.292,1,5,0,5,0,1,,,,,,,,,,,,,
664a04cfda51f0fe3594455a,TCN,2024-06-25_11h40.21.918,LearnStrategy,2023.2.3,Linux x86_64,60.24096386,5,1,7,0.021390306,-0.012018939,1,0,0,1.0197,rock_grid_rect_2,7,14,-1,-1,1.02,-0.446706838,-0.253509888,1,0,0,2.3238,Andesite_rect,1,2.324,0,6,0,6,0,1,,,,,,,,,,,,,
664a04cfda51f0fe3594455a,TCN,2024-06-25_11h40.21.918,LearnStrategy,2023.2.3,Linux x86_64,60.24096386,5,1,8,0.022362842,-0.01364607,1,0,0,1.5294,rock_grid_rect_2,1,05,-1,-1,1.529,0.069650813,-0.262347128,1,0,0,2.481,Diorite_rect,3,2.481,0,7,0,7,0,1,,,,,,,,,,,,,
664a04cfda51f0fe3594455a,TCN,2024-06-25_11h40.21.918,LearnStrategy,2023.2.3,Linux x86_64,60.24096386,5,1,9,0.004360582,-0.022434538,1,0,0,1.1501,rock_grid_rect_2,2,05,-1,-1,1.15,-0.09122944,-0.260769914,1,0,0,1.2658,Basalt_rect,2,1.266,1,8,0,8,0,1,,,,,,,,,,,,,
664a04cfda51f0fe3594455a,TCN,2024-06-25_11h40.21.918,LearnStrategy,2023.2.3,Linux x86_64,60.24096386,5,1,10,0.000720984,-0.005805843,1,0,0,1.0809,rock_grid_rect_2,3,13,-1,-1,1.081,-0.338762275,-0.238951218,1,0,0,1.1612,Andesite_rect,1,1.161,0,9,0,9,0,1,,,,,,,,,,,,,
664a04cfda51f0fe3594455a,TCN,2024-06-25_11h40.21.918,LearnStrategy,2023.2.3,Linux x86_64,60.24096386,5,1,11,0.050880261,-0.005563762,1,0,0,0.7939,rock_grid_rect_2,7,15,-1,-1,0.794,0.110135148,-0.251951066,1,0,0,0.8961,Diorite_rect,3,0.896,0,10,0,10,0,1,,,,,,,,,,,,,
664a04cfda51f0fe3594455a,TCN,2024-06-25_11h40.21.918,LearnStrategy,2023.2.3,Linux x86_64,60.24096386,5,1,12,-0.006490956,0.001747783,1,0,0,0.9497,rock_grid_rect_2,6,08,-1,-1,0.95,-0.139793659,-0.404773901,1,0,0,1.4515,Pegmatite_rect,6,1.452,1,11,0,11,0,1,,,,,,,,,,,,,
664a04cfda51f0fe3594455a,TCN,2024-06-25_11h40.21.918,LearnStrategy,2023.2.3,Linux x86_64,60.24096386,5,1,13,0.016916713,0.007883647,1,0,0,0.9648,rock_grid_rect_2,6,11,-1,-1,0.965,-0.101397055,-0.391878646,1,0,0,1.7924,Pegmatite_rect,6,1.792,1,12,0,12,0,1,,,,,,,,,,,,,
664a04cfda51f0fe3594455a,TCN,2024-06-25_11h40.21.918,LearnStrategy,2023.2.3,Linux x86_64,60.24096386,5,1,14,-0.098740425,-0.007984396,1,0,0,1.0239,rock_grid_rect_2,4,14,-1,-1,1.024,0.387675913,-0.241759751,1,0,0,1.1704,Gabbro_rect,4,1.17,1,13,0,13,0,1,,,,,,,,,,,,,
664a04cfda51f0fe3594455a,TCN,2024-06-25_11h40.21.918,LearnStrategy,2023.2.3,Linux x86_64,60.24096386,5,1,15,0.020796243,-0.008022829,1,0,0,1.123,rock_grid_rect_2,3,08,-1,-1,1.123,-0.382579432,-0.254277036,1,0,0,2.0894,Andesite_rect,1,2.089,0,14,0,14,0,1,,,,,,,,,,,,,
664a04cfda51f0fe3594455a,TCN,2024-06-25_11h40.21.918,LearnStrategy,2023.2.3,Linux x86_64,60.24096386,5,1,16,0.016589301,-0.00789298,1,0,0,0.9977,rock_grid_rect_2,2,14,-1,-1,0.998,0.416256105,-0.234368183,1,0,0,2.931,Gabbro_rect,4,2.931,0,15,0,15,0,1,,,,,,,,,,,,,
664a04cfda51f0fe3594455a,TCN,2024-06-25_11h40.21.918,LearnStrategy,2023.2.3,Linux x86_64,60.24096386,5,2,1,,,,,,,,6,07,,,,,,,,,,,6,1.202,1,,,,,,-0.128507508,-0.396924707,1,0,0,1.2023,Pegmatite_rect,0,0,0,0,1,
664a04cfda51f0fe3594455a,TCN,2024-06-25_11h40.21.918,LearnStrategy,2023.2.3,Linux x86_64,60.24096386,5,2,2,,,,,,,,2,02,,,,,,,,,,,2,0.977,1,,,,,,-0.176432002,-0.236902331,1,0,0,0.9771,Basalt_rect,1,0,1,0,1,
664a04cfda51f0fe3594455a,TCN,2024-06-25_11h40.21.918,LearnStrategy,2023.2.3,Linux x86_64,60.24096386,5,2,3,,,,,,,,5,12,,,,,,,,,,,5,1.035,1,,,,,,-0.360583167,-0.394472777,1,0,0,1.0349,Obsidian_rect,2,0,2,0,1,
664a04cfda51f0fe3594455a,TCN,2024-06-25_11h40.21.918,LearnStrategy,2023.2.3,Linux x86_64,60.24096386,5,2,4,,,,,,,,2,01,,,,,,,,,,,2,1.076,1,,,,,,-0.135570749,-0.243204234,1,0,0,1.076,Basalt_rect,3,0,3,0,1,
664a04cfda51f0fe3594455a,TCN,2024-06-25_11h40.21.918,LearnStrategy,2023.2.3,Linux x86_64,60.24096386,5,2,5,,,,,,,,4,15,,,,,,,,,,,3,2.323,0,,,,,,0.085824946,-0.246557096,1,0,0,2.3234,Diorite_rect,4,0,4,0,1,
664a04cfda51f0fe3594455a,TCN,2024-06-25_11h40.21.918,LearnStrategy,2023.2.3,Linux x86_64,60.24096386,5,2,6,,,,,,,,4,11,,,,,,,,,,,4,5.222,1,,,,,,0.432762409,-0.233537848,1,0,0,5.222,Gabbro_rect,5,0,5,0,1,
664a04cfda51f0fe3594455a,TCN,2024-06-25_11h40.21.918,LearnStrategy,2023.2.3,Linux x86_64,60.24096386,5,2,7,,,,,,,,8,02,,,,,,,,,,,8,1.437,1,,,,,,0.4179208,-0.384042354,1,0,0,1.4367,Pumice_rect,6,0,6,0,1,
664a04cfda51f0fe3594455a,TCN,2024-06-25_11h40.21.918,LearnStrategy,2023.2.3,Linux x86_64,60.24096386,5,2,8,,,,,,,,3,06,,,,,,,,,,,1,1.584,0,,,,,,-0.377762642,-0.266966218,1,0,0,1.5835,Andesite_rect,7,0,7,0,1,
664a04cfda51f0fe3594455a,TCN,2024-06-25_11h40.21.918,LearnStrategy,2023.2.3,Linux x86_64,60.24096386,5,2,9,,,,,,,,1,03,,,,,,,,,,,3,3.651,0,,,,,,0.110319627,-0.265851937,1,0,0,3.6505,Diorite_rect,8,0,8,0,1,
664a04cfda51f0fe3594455a,TCN,2024-06-25_11h40.21.918,LearnStrategy,2023.2.3,Linux x86_64,60.24096386,5,2,10,,,,,,,,7,10,,,,,,,,,,,7,1.888,1,,,,,,0.148296854,-0.386723417,1,0,0,1.8881,Peridotite_rect,9,0,9,0,1,
664a04cfda51f0fe3594455a,TCN,2024-06-25_11h40.21.918,LearnStrategy,2023.2.3,Linux x86_64,60.24096386,5,2,11,,,,,,,,1,09,,,,,,,,,,,4,1.124,0,,,,,,0.316019267,-0.240636868,1,0,0,1.1237,Gabbro_rect,10,0,10,0,1,
664a04cfda51f0fe3594455a,TCN,2024-06-25_11h40.21.918,LearnStrategy,2023.2.3,Linux x86_64,60.24096386,5,2,12,,,,,,,,3,07,,,,,,,,,,,7,1.658,0,,,,,,0.110416807,-0.401654336,1,0,0,1.6581,Peridotite_rect,11,0,11,0,1,
664a04cfda51f0fe3594455a,TCN,2024-06-25_11h40.21.918,LearnStrategy,2023.2.3,Linux x86_64,60.24096386,5,2,13,,,,,,,,8,05,,,,,,,,,,,8,1.211,1,,,,,,0.371093933,-0.405697481,1,0,0,1.2113,Pumice_rect,12,0,12,0,1,
664a04cfda51f0fe3594455a,TCN,2024-06-25_11h40.21.918,LearnStrategy,2023.2.3,Linux x86_64,60.24096386,5,2,14,,,,,,,,6,12,,,,,,,,,,,6,2.338,1,,,,,,-0.12062194,-0.406892928,1,0,0,2.3381,Pegmatite_rect,13,0,13,0,1,
664a04cfda51f0fe3594455a,TCN,2024-06-25_11h40.21.918,LearnStrategy,2023.2.3,Linux x86_64,60.24096386,5,2,15,,,,,,,,5,16,,,,,,,,,,,5,1.112,1,,,,,,-0.323067775,-0.378703654,1,0,0,1.1125,Obsidian_rect,14,0,14,0,1,
664a04cfda51f0fe3594455a,TCN,2024-06-25_11h40.21.918,LearnStrategy,2023.2.3,Linux x86_64,60.24096386,5,2,16,,,,,,,,7,07,,,,,,,,,,,3,1.504,0,,,,,,0.094231327,-0.235124625,1,0,0,1.5044,Diorite_rect,15,0,15,0,1,
664a04cfda51f0fe3594455a,TCN,2024-06-25_11h40.21.918,LearnStrategy,2023.2.3,Linux x86_64,60.24096386,6,1,1,-0.071478299,0.024665158,1,0,0,0.9806,rock_grid_rect_2,4,03,-1,-1,0.981,0.413278651,-0.236214748,1,0,0,3.1782,Gabbro_rect,4,3.178,1,0,0,0,0,1,,,,,,,,,,,,,
664a04cfda51f0fe3594455a,TCN,2024-06-25_11h40.21.918,LearnStrategy,2023.2.3,Linux x86_64,60.24096386,6,1,2,-0.043084964,0.001825747,1,0,0,1.106,rock_grid_rect_2,1,07,-1,-1,1.106,0.147394961,-0.246283169,1,0,0,1.4933,Diorite_rect,3,1.493,0,1,0,1,0,1,,,,,,,,,,,,,
664a04cfda51f0fe3594455a,TCN,2024-06-25_11h40.21.918,LearnStrategy,2023.2.3,Linux x86_64,60.24096386,6,1,3,-0.021255791,-0.007035468,1,0,0,0.6923,rock_grid_rect_2,5,04,-1,-1,0.692,-0.424368428,-0.394742814,1,0,0,1.1909,Obsidian_rect,5,1.191,1,2,0,2,0,1,,,,,,,,,,,,,
664a04cfda51f0fe3594455a,TCN,2024-06-25_11h40.21.918,LearnStrategy,2023.2.3,Linux x86_64,60.24096386,6,1,4,0.002190677,-0.020874023,1,0,0,1.1535,rock_grid_rect_2,8,16,-1,-1,1.154,0.371522277,-0.398108166,1,0,0,1.3537,Pumice_rect,8,1.354,1,3,0,3,0,1,,,,,,,,,,,,,
664a04cfda51f0fe3594455a,TCN,2024-06-25_11h40.21.918,LearnStrategy,2023.2.3,Linux x86_64,60.24096386,6,1,5,-0.001797472,-0.022866588,1,0,0,0.8144,rock_grid_rect_2,4,10,-1,-1,0.814,0.470485521,-0.262454146,1,0,0,2.1738,Gabbro_rect,4,2.174,1,4,0,4,0,1,,,,,,,,,,,,,
664a04cfda51f0fe3594455a,TCN,2024-06-25_11h40.21.918,LearnStrategy,2023.2.3,Linux x86_64,60.24096386,6,1,6,-0.040390358,-0.007767341,1,0,0,0.9327,rock_grid_rect_2,7,04,-1,-1,0.933,-0.108654657,-0.392734876,1,0,0,1.2117,Pegmatite_rect,6,1.212,0,5,0,5,0,1,,,,,,,,,,,,,
664a04cfda51f0fe3594455a,TCN,2024-06-25_11h40.21.918,LearnStrategy,2023.2.3,Linux x86_64,60.24096386,6,1,7,-0.072122783,-0.016437079,1,0,0,0.831,rock_grid_rect_2,3,12,-1,-1,0.831,-0.09342515,-0.390456902,1,0,0,2.0526,Pegmatite_rect,6,2.053,0,6,0,6,0,1,,,,,,,,,,,,,
664a04cfda51f0fe3594455a,TCN,2024-06-25_11h40.21.918,LearnStrategy,2023.2.3,Linux x86_64,60.24096386,6,1,8,-0.020700892,0.009785985,1,0,0,0.772,rock_grid_rect_2,7,02,-1,-1,0.772,0.093611824,-0.38661489,1,0,0,1.7663,Peridotite_rect,7,1.766,1,7,0,7,0,1,,,,,,,,,,,,,
664a04cfda51f0fe3594455a,TCN,2024-06-25_11h40.21.918,LearnStrategy,2023.2.3,Linux x86_64,60.24096386,6,1,9,-0.034514054,0.002119073,1,0,0,0.7958,rock_grid_rect_2,6,03,-1,-1,0.796,0.125469339,-0.402000507,1,0,0,2.2609,Peridotite_rect,7,2.261,0,8,0,8,0,1,,,,,,,,,,,,,
664a04cfda51f0fe3594455a,TCN,2024-06-25_11h40.21.918,LearnStrategy,2023.2.3,Linux x86_64,60.24096386,6,1,10,-0.046373176,-0.01865077,1,0,0,0.9116,rock_grid_rect_2,6,05,-1,-1,0.912,-0.1418716,-0.396637466,1,0,0,1.1498,Pegmatite_rect,6,1.15,1,9,0,9,0,1,,,,,,,,,,,,,
664a04cfda51f0fe3594455a,TCN,2024-06-25_11h40.21.918,LearnStrategy,2023.2.3,Linux x86_64,60.24096386,6,1,11,0.019883735,-0.003266342,1,0,0,0.8131,rock_grid_rect_2,8,09,-1,-1,0.813,0.38292789,-0.408899036,1,0,0,1.7211,Pumice_rect,8,1.721,1,10,0,10,0,1,,,,,,,,,,,,,
664a04cfda51f0fe3594455a,TCN,2024-06-25_11h40.21.918,LearnStrategy,2023.2.3,Linux x86_64,60.24096386,6,1,12,-0.061763918,-0.003075687,1,0,0,0.8175,rock_grid_rect_2,3,16,-1,-1,0.817,-0.325558458,-0.232807028,1,0,0,3.0788,Andesite_rect,1,3.079,0,11,0,11,0,1,,,,,,,,,,,,,
664a04cfda51f0fe3594455a,TCN,2024-06-25_11h40.21.918,LearnStrategy,2023.2.3,Linux x86_64,60.24096386,6,1,13,-0.093836474,-0.011217658,1,0,0,0.8542,rock_grid_rect_2,5,11,-1,-1,0.854,-0.438367806,-0.409232029,1,0,0,1.099,Obsidian_rect,5,1.099,1,12,0,12,0,1,,,,,,,,,,,,,
664a04cfda51f0fe3594455a,TCN,2024-06-25_11h40.21.918,LearnStrategy,2023.2.3,Linux x86_64,60.24096386,6,1,14,0.012834312,-0.001073194,1,0,0,1.0553,rock_grid_rect_2,2,11,-1,-1,1.055,0.317172163,-0.235572049,1,0,0,1.4613,Gabbro_rect,4,1.461,0,13,0,13,0,1,,,,,,,,,,,,,
664a04cfda51f0fe3594455a,TCN,2024-06-25_11h40.21.918,LearnStrategy,2023.2.3,Linux x86_64,60.24096386,6,1,15,-0.075840711,0.000700943,1,0,0,0.9832,rock_grid_rect_2,2,09,-1,-1,0.983,-0.173650144,-0.261458138,1,0,0,1.1092,Basalt_rect,2,1.109,1,14,0,14,0,1,,,,,,,,,,,,,
664a04cfda51f0fe3594455a,TCN,2024-06-25_11h40.21.918,LearnStrategy,2023.2.3,Linux x86_64,60.24096386,6,1,16,0.000866571,-0.007277916,1,0,0,0.7715,rock_grid_rect_2,1,11,-1,-1,0.771,0.067750305,-0.258158213,1,0,0,1.5592,Diorite_rect,3,1.559,0,15,0,15,0,1,,,,,,,,,,,,,
664a04cfda51f0fe3594455a,TCN,2024-06-25_11h40.21.918,LearnStrategy,2023.2.3,Linux x86_64,60.24096386,6,2,1,,,,,,,,3,15,,,,,,,,,,,3,3.371,1,,,,,,0.099715706,-0.242591961,1,0,0,3.371,Diorite_rect,0,0,0,0,1,
664a04cfda51f0fe3594455a,TCN,2024-06-25_11h40.21.918,LearnStrategy,2023.2.3,Linux x86_64,60.24096386,6,2,2,,,,,,,,2,08,,,,,,,,,,,2,1.248,1,,,,,,-0.190612244,-0.233770551,1,0,0,1.2479,Basalt_rect,1,0,1,0,1,
664a04cfda51f0fe3594455a,TCN,2024-06-25_11h40.21.918,LearnStrategy,2023.2.3,Linux x86_64,60.24096386,6,2,3,,,,,,,,2,16,,,,,,,,,,,4,2.187,0,,,,,,0.330825554,-0.233001206,1,0,0,2.187,Gabbro_rect,2,0,2,0,1,
664a04cfda51f0fe3594455a,TCN,2024-06-25_11h40.21.918,LearnStrategy,2023.2.3,Linux x86_64,60.24096386,6,2,4,,,,,,,,7,13,,,,,,,,,,,6,1.385,0,,,,,,-0.132627153,-0.389543662,1,0,0,1.3846,Pegmatite_rect,3,0,3,0,1,
664a04cfda51f0fe3594455a,TCN,2024-06-25_11h40.21.918,LearnStrategy,2023.2.3,Linux x86_64,60.24096386,6,2,5,,,,,,,,7,16,,,,,,,,,,,4,3.123,0,,,,,,0.411850502,-0.235081663,1,0,0,3.1231,Gabbro_rect,4,0,4,0,1,
664a04cfda51f0fe3594455a,TCN,2024-06-25_11h40.21.918,LearnStrategy,2023.2.3,Linux x86_64,60.24096386,6,2,6,,,,,,,,8,04,,,,,,,,,,,8,1.166,1,,,,,,0.416394647,-0.400746313,1,0,0,1.1661,Pumice_rect,5,0,5,0,1,
664a04cfda51f0fe3594455a,TCN,2024-06-25_11h40.21.918,LearnStrategy,2023.2.3,Linux x86_64,60.24096386,6,2,7,,,,,,,,5,06,,,,,,,,,,,5,1.23,1,,,,,,-0.410564737,-0.379360216,1,0,0,1.2304,Obsidian_rect,6,0,6,0,1,
664a04cfda51f0fe3594455a,TCN,2024-06-25_11h40.21.918,LearnStrategy,2023.2.3,Linux x86_64,60.24096386,6,2,8,,,,,,,,5,08,,,,,,,,,,,5,1.033,1,,,,,,-0.420480571,-0.392263249,1,0,0,1.0334,Obsidian_rect,7,0,7,0,1,
664a04cfda51f0fe3594455a,TCN,2024-06-25_11h40.21.918,LearnStrategy,2023.2.3,Linux x86_64,60.24096386,6,2,9,,,,,,,,1,01,,,,,,,,,,,3,3.733,0,,,,,,0.088688657,-0.261159734,1,0,0,3.7325,Diorite_rect,8,0,8,0,1,
664a04cfda51f0fe3594455a,TCN,2024-06-25_11h40.21.918,LearnStrategy,2023.2.3,Linux x86_64,60.24096386,6,2,10,,,,,,,,4,13,,,,,,,,,,,7,2.597,0,,,,,,0.099256982,-0.390185675,1,0,0,2.5975,Peridotite_rect,9,0,9,0,1,
664a04cfda51f0fe3594455a,TCN,2024-06-25_11h40.21.918,LearnStrategy,2023.2.3,Linux x86_64,60.24096386,6,2,11,,,,,,,,6,06,,,,,,,,,,,6,1.147,1,,,,,,-0.099537817,-0.39216003,1,0,0,1.1471,Pegmatite_rect,10,0,10,0,1,
664a04cfda51f0fe3594455a,TCN,2024-06-25_11h40.21.918,LearnStrategy,2023.2.3,Linux x86_64,60.24096386,6,2,12,,,,,,,,3,02,,,,,,,,,,,1,1.087,0,,,,,,-0.416056712,-0.230793463,1,0,0,1.0871,Andesite_rect,11,0,11,0,1,
664a04cfda51f0fe3594455a,TCN,2024-06-25_11h40.21.918,LearnStrategy,2023.2.3,Linux x86_64,60.24096386,6,2,13,,,,,,,,1,16,,,,,,,,,,,1,2.239,1,,,,,,-0.323090332,-0.260127672,1,0,0,2.2391,Andesite_rect,12,0,12,0,1,
664a04cfda51f0fe3594455a,TCN,2024-06-25_11h40.21.918,LearnStrategy,2023.2.3,Linux x86_64,60.24096386,6,2,14,,,,,,,,8,06,,,,,,,,,,,8,1.185,1,,,,,,0.423074382,-0.39439646,1,0,0,1.1847,Pumice_rect,13,0,13,0,1,
664a04cfda51f0fe3594455a,TCN,2024-06-25_11h40.21.918,LearnStrategy,2023.2.3,Linux x86_64,60.24096386,6,2,15,,,,,,,,4,08,,,,,,,,,,,2,3.197,0,,,,,,-0.100033784,-0.26600846,1,0,0,3.1965,Basalt_rect,14,0,14,0,1,
664a04cfda51f0fe3594455a,TCN,2024-06-25_11h40.21.918,LearnStrategy,2023.2.3,Linux x86_64,60.24096386,6,2,16,,,,,,,,6,10,,,,,,,,,,,6,1.438,1,,,,,,-0.094706065,-0.383165259,1,0,0,1.4377,Pegmatite_rect,15,0,15,0,1,
664a04cfda51f0fe3594455a,TCN,2024-06-25_11h40.21.918,LearnStrategy,2023.2.3,Linux x86_64,60.24096386,7,1,1,0.024702676,0.003375647,1,0,0,1.0036,rock_grid_rect_2,6,11,-1,-1,1.004,-0.098542587,-0.405097561,1,0,0,1.6569,Pegmatite_rect,6,1.657,1,0,0,0,0,1,,,,,,,,,,,,,
664a04cfda51f0fe3594455a,TCN,2024-06-25_11h40.21.918,LearnStrategy,2023.2.3,Linux x86_64,60.24096386,7,1,2,-0.087672472,0.007104373,1,0,0,0.9386,rock_grid_rect_2,3,08,-1,-1,0.939,-0.315112799,-0.25792057,1,0,0,3.1425,Andesite_rect,1,3.143,0,1,0,1,0,1,,,,,,,,,,,,,
664a04cfda51f0fe3594455a,TCN,2024-06-25_11h40.21.918,LearnStrategy,2023.2.3,Linux x86_64,60.24096386,7,1,3,0.039244141,-0.0013441,1,0,0,0.8263,rock_grid_rect_2,1,11,-1,-1,0.826,-0.36209564,-0.249138645,1,0,0,2.0632,Andesite_rect,1,2.063,1,2,0,2,0,1,,,,,,,,,,,,,
664a04cfda51f0fe3594455a,TCN,2024-06-25_11h40.21.918,LearnStrategy,2023.2.3,Linux x86_64,60.24096386,7,1,4,0.013507345,-0.006327067,1,0,0,0.9354,rock_grid_rect_2,8,03,-1,-1,0.935,-0.143455448,-0.256114359,1,0,0,2.2612,Basalt_rect,2,2.261,0,3,0,3,0,1,,,,,,,,,,,,,
664a04cfda51f0fe3594455a,TCN,2024-06-25_11h40.21.918,LearnStrategy,2023.2.3,Linux x86_64,60.24096386,7,1,5,-0.029103704,-0.015821099,1,0,0,0.9384,rock_grid_rect_2,7,15,-1,-1,0.938,0.09676607,-0.412247368,1,0,0,2.7971,Peridotite_rect,7,2.797,1,4,0,4,0,1,,,,,,,,,,,,,
664a04cfda51f0fe3594455a,TCN,2024-06-25_11h40.21.918,LearnStrategy,2023.2.3,Linux x86_64,60.24096386,7,1,6,0.064087555,0.00790904,1,0,0,1.0197,rock_grid_rect_2,2,04,-1,-1,1.02,-0.141009787,-0.259095702,1,0,0,1.8432,Basalt_rect,2,1.843,1,5,0,5,0,1,,,,,,,,,,,,,
664a04cfda51f0fe3594455a,TCN,2024-06-25_11h40.21.918,LearnStrategy,2023.2.3,Linux x86_64,60.24096386,7,1,7,-0.032228759,0.015126928,1,0,0,1.0178,rock_grid_rect_2,7,04,-1,-1,1.018,-0.076315266,-0.399869676,1,0,0,2.5483,Pegmatite_rect,6,2.548,0,6,0,6,0,1,,,,,,,,,,,,,
664a04cfda51f0fe3594455a,TCN,2024-06-25_11h40.21.918,LearnStrategy,2023.2.3,Linux x86_64,60.24096386,7,1,8,-0.163491268,0.003134251,1,0,0,1.034,rock_grid_rect_2,4,03,-1,-1,1.034,0.178664269,-0.237309858,1,0,0,3.1274,Diorite_rect,3,3.127,0,7,0,7,0,1,,,,,,,,,,,,,
664a04cfda51f0fe3594455a,TCN,2024-06-25_11h40.21.918,LearnStrategy,2023.2.3,Linux x86_64,60.24096386,7,1,9,-0.006545403,-0.021258948,1,0,0,0.8794,rock_grid_rect_2,1,10,-1,-1,0.879,-0.08256867,-0.237683023,1,0,0,3.8037,Basalt_rect,2,3.804,0,8,0,8,0,1,,,,,,,,,,,,,
664a04cfda51f0fe3594455a,TCN,2024-06-25_11h40.21.918,LearnStrategy,2023.2.3,Linux x86_64,60.24096386,7,1,10,-0.044032153,-0.009515582,1,0,0,0.8897,rock_grid_rect_2,4,10,-1,-1,0.89,0.393193052,-0.239125631,1,0,0,2.535,Gabbro_rect,4,2.535,1,9,0,9,0,1,,,,,,,,,,,,,
664a04cfda51f0fe3594455a,TCN,2024-06-25_11h40.21.918,LearnStrategy,2023.2.3,Linux x86_64,60.24096386,7,1,11,-0.005098037,-0.008104865,1,0,0,1.0339,rock_grid_rect_2,6,09,-1,-1,1.034,-0.091482182,-0.409235598,1,0,0,1.5174,Pegmatite_rect,6,1.517,1,10,0,10,0,1,,,,,,,,,,,,,
664a04cfda51f0fe3594455a,TCN,2024-06-25_11h40.21.918,LearnStrategy,2023.2.3,Linux x86_64,60.24096386,7,1,12,-0.015755306,-0.004216779,1,0,0,0.7799,rock_grid_rect_2,5,05,-1,-1,0.78,-0.353820206,-0.394986955,1,0,0,1.2436,Obsidian_rect,5,1.244,1,11,0,11,0,1,,,,,,,,,,,,,
664a04cfda51f0fe3594455a,TCN,2024-06-25_11h40.21.918,LearnStrategy,2023.2.3,Linux x86_64,60.24096386,7,1,13,-0.035172355,0.002874372,1,0,0,1.0579,rock_grid_rect_2,5,07,-1,-1,1.058,-0.384263526,-0.388141043,1,0,0,1.4057,Obsidian_rect,5,1.406,1,12,0,12,0,1,,,,,,,,,,,,,
664a04cfda51f0fe3594455a,TCN,2024-06-25_11h40.21.918,LearnStrategy,2023.2.3,Linux x86_64,60.24096386,7,1,14,-0.023013731,0.012041312,1,0,0,1.0857,rock_grid_rect_2,3,09,-1,-1,1.086,0.100559217,-0.236256612,1,0,0,2.4365,Diorite_rect,3,2.437,1,13,0,13,0,1,,,,,,,,,,,,,
664a04cfda51f0fe3594455a,TCN,2024-06-25_11h40.21.918,LearnStrategy,2023.2.3,Linux x86_64,60.24096386,7,1,15,-0.011892796,-0.001342179,1,0,0,0.9,rock_grid_rect_2,8,13,-1,-1,0.9,0.355420068,-0.246148517,1,0,0,2.3358,Gabbro_rect,4,2.336,0,14,0,14,0,1,,,,,,,,,,,,,
664a04cfda51f0fe3594455a,TCN,2024-06-25_11h40.21.918,LearnStrategy,2023.2.3,Linux x86_64,60.24096386,7,1,16,-0.00452502,0.005600044,1,0,0,0.7154,rock_grid_rect_2,2,05,-1,-1,0.715,-0.124454115,-0.25928654,1,0,0,0.9912,Basalt_rect,2,0.991,1,15,0,15,0,1,,,,,,,,,,,,,
664a04cfda51f0fe3594455a,TCN,2024-06-25_11h40.21.918,LearnStrategy,2023.2.3,Linux x86_64,60.24096386,7,2,1,,,,,,,,5,14,,,,,,,,,,,5,1.469,1,,,,,,-0.321029549,-0.416048476,1,0,0,1.4694,Obsidian_rect,0,0,0,0,1,
664a04cfda51f0fe3594455a,TCN,2024-06-25_11h40.21.918,LearnStrategy,2023.2.3,Linux x86_64,60.24096386,7,2,2,,,,,,,,7,16,,,,,,,,,,,4,4.404,0,,,,,,0.358701966,-0.265558063,1,0,0,4.4044,Gabbro_rect,1,0,1,0,1,
664a04cfda51f0fe3594455a,TCN,2024-06-25_11h40.21.918,LearnStrategy,2023.2.3,Linux x86_64,60.24096386,7,2,3,,,,,,,,2,16,,,,,,,,,,,4,2.806,0,,,,,,0.367437131,-0.234959913,1,0,0,2.806,Gabbro_rect,2,0,2,0,1,
664a04cfda51f0fe3594455a,TCN,2024-06-25_11h40.21.918,LearnStrategy,2023.2.3,Linux x86_64,60.24096386,7,2,4,,,,,,,,1,06,,,,,,,,,,,3,2.966,0,,,,,,0.091189452,-0.238318356,1,0,0,2.9655,Diorite_rect,3,0,3,0,1,
664a04cfda51f0fe3594455a,TCN,2024-06-25_11h40.21.918,LearnStrategy,2023.2.3,Linux x86_64,60.24096386,7,2,5,,,,,,,,7,07,,,,,,,,,,,1,5.142,0,,,,,,-0.346971778,-0.259825745,1,0,0,5.1416,Andesite_rect,4,0,4,0,1,
664a04cfda51f0fe3594455a,TCN,2024-06-25_11h40.21.918,LearnStrategy,2023.2.3,Linux x86_64,60.24096386,7,2,6,,,,,,,,1,01,,,,,,,,,,,1,0.94,1,,,,,,-0.327252298,-0.265504806,1,0,0,0.9404,Andesite_rect,5,0,5,0,1,
664a04cfda51f0fe3594455a,TCN,2024-06-25_11h40.21.918,LearnStrategy,2023.2.3,Linux x86_64,60.24096386,7,2,7,,,,,,,,3,11,,,,,,,,,,,1,1.279,0,,,,,,-0.380187027,-0.247185337,1,0,0,1.2789,Andesite_rect,6,0,6,0,1,
664a04cfda51f0fe3594455a,TCN,2024-06-25_11h40.21.918,LearnStrategy,2023.2.3,Linux x86_64,60.24096386,7,2,8,,,,,,,,6,12,,,,,,,,,,,6,1.446,1,,,,,,-0.061922042,-0.398825673,1,0,0,1.4456,Pegmatite_rect,7,0,7,0,1,
664a04cfda51f0fe3594455a,TCN,2024-06-25_11h40.21.918,LearnStrategy,2023.2.3,Linux x86_64,60.24096386,7,2,9,,,,,,,,2,02,,,,,,,,,,,2,1.109,1,,,,,,-0.131540233,-0.24726536,1,0,0,1.1087,Basalt_rect,8,0,8,0,1,
664a04cfda51f0fe3594455a,TCN,2024-06-25_11h40.21.918,LearnStrategy,2023.2.3,Linux x86_64,60.24096386,7,2,10,,,,,,,,4,11,,,,,,,,,,,4,2.173,1,,,,,,0.385556062,-0.241082965,1,0,0,2.1725,Gabbro_rect,9,0,9,0,1,
664a04cfda51f0fe3594455a,TCN,2024-06-25_11h40.21.918,LearnStrategy,2023.2.3,Linux x86_64,60.24096386,7,2,11,,,,,,,,8,15,,,,,,,,,,,8,1.397,1,,,,,,0.393281265,-0.386344303,1,0,0,1.3973,Pumice_rect,10,0,10,0,1,
664a04cfda51f0fe3594455a,TCN,2024-06-25_11h40.21.918,LearnStrategy,2023.2.3,Linux x86_64,60.24096386,7,2,12,,,,,,,,6,15,,,,,,,,,,,6,1.186,1,,,,,,-0.158472293,-0.408911481,1,0,0,1.1864,Pegmatite_rect,11,0,11,0,1,
664a04cfda51f0fe3594455a,TCN,2024-06-25_11h40.21.918,LearnStrategy,2023.2.3,Linux x86_64,60.24096386,7,2,13,,,,,,,,8,08,,,,,,,,,,,8,3.278,1,,,,,,0.388196862,-0.38844384,1,0,0,3.2776,Pumice_rect,12,0,12,0,1,
664a04cfda51f0fe3594455a,TCN,2024-06-25_11h40.21.918,LearnStrategy,2023.2.3,Linux x86_64,60.24096386,7,2,14,,,,,,,,5,12,,,,,,,,,,,5,1.253,1,,,,,,-0.407434649,-0.406888261,1,0,0,1.2534,Obsidian_rect,13,0,13,0,1,
664a04cfda51f0fe3594455a,TCN,2024-06-25_11h40.21.918,LearnStrategy,2023.2.3,Linux x86_64,60.24096386,7,2,15,,,,,,,,3,06,,,,,,,,,,,1,1.256,0,,,,,,-0.444630636,-0.259870675,1,0,0,1.2561,Andesite_rect,14,0,14,0,1,
664a04cfda51f0fe3594455a,TCN,2024-06-25_11h40.21.918,LearnStrategy,2023.2.3,Linux x86_64,60.24096386,7,2,16,,,,,,,,4,08,,,,,,,,,,,4,1.207,1,,,,,,0.314547286,-0.2595935,1,0,0,1.2075,Gabbro_rect,15,0,15,0,1,
664a04cfda51f0fe3594455a,TCN,2024-06-25_11h40.21.918,LearnStrategy,2023.2.3,Linux x86_64,60.24096386,8,1,1,0.074997291,0.014605063,1,0,0,1.1061,rock_grid_rect_2,5,04,-1,-1,1.106,-0.422825025,-0.396233737,1,0,0,1.4587,Obsidian_rect,5,1.459,1,0,0,0,0,1,,,,,,,,,,,,,
664a04cfda51f0fe3594455a,TCN,2024-06-25_11h40.21.918,LearnStrategy,2023.2.3,Linux x86_64,60.24096386,8,1,2,-0.075172344,0.022522705,1,0,0,0.9062,rock_grid_rect_2,3,13,-1,-1,0.906,0.101610816,-0.232128504,1,0,0,1.5547,Diorite_rect,3,1.555,1,1,0,1,0,1,,,,,,,,,,,,,
664a04cfda51f0fe3594455a,TCN,2024-06-25_11h40.21.918,LearnStrategy,2023.2.3,Linux x86_64,60.24096386,8,1,3,-0.066962521,-0.010060415,1,0,0,0.8743,rock_grid_rect_2,5,02,-1,-1,0.874,-0.393123827,-0.391320362,1,0,0,1.2757,Obsidian_rect,5,1.276,1,2,0,2,0,1,,,,,,,,,,,,,
664a04cfda51f0fe3594455a,TCN,2024-06-25_11h40.21.918,LearnStrategy,2023.2.3,Linux x86_64,60.24096386,8,1,4,-0.063401344,-0.005740507,1,0,0,1.1496,rock_grid_rect_2,8,10,-1,-1,1.15,0.387937714,-0.393941213,1,0,0,2.2216,Pumice_rect,8,2.222,1,3,0,3,0,1,,,,,,,,,,,,,
664a04cfda51f0fe3594455a,TCN,2024-06-25_11h40.21.918,LearnStrategy,2023.2.3,Linux x86_64,60.24096386,8,1,5,-0.007442995,-0.006920719,1,0,0,0.9654,rock_grid_rect_2,2,11,-1,-1,0.965,0.332761201,-0.402954468,1,0,0,1.3673,Pumice_rect,8,1.367,0,4,0,4,0,1,,,,,,,,,,,,,
664a04cfda51f0fe3594455a,TCN,2024-06-25_11h40.21.918,LearnStrategy,2023.2.3,Linux x86_64,60.24096386,8,1,6,-0.070849097,-0.004819169,1,0,0,1.0535,rock_grid_rect_2,6,13,-1,-1,1.053,-0.136906111,-0.387311807,1,0,0,2.0212,Pegmatite_rect,6,2.021,1,5,0,5,0,1,,,,,,,,,,,,,
664a04cfda51f0fe3594455a,TCN,2024-06-25_11h40.21.918,LearnStrategy,2023.2.3,Linux x86_64,60.24096386,8,1,7,-0.017888608,-0.005446496,1,0,0,1.0249,rock_grid_rect_2,6,08,-1,-1,1.025,-0.100328437,-0.382081085,1,0,0,1.192,Pegmatite_rect,6,1.192,1,6,0,6,0,1,,,,,,,,,,,,,
664a04cfda51f0fe3594455a,TCN,2024-06-25_11h40.21.918,LearnStrategy,2023.2.3,Linux x86_64,60.24096386,8,1,8,-0.13522833,-0.012716725,1,0,0,0.81,rock_grid_rect_2,7,14,-1,-1,0.81,0.127712358,-0.380934868,1,0,0,2.2988,Peridotite_rect,7,2.299,1,7,0,7,0,1,,,,,,,,,,,,,
664a04cfda51f0fe3594455a,TCN,2024-06-25_11h40.21.918,LearnStrategy,2023.2.3,Linux x86_64,60.24096386,8,1,9,-0.104049751,0.007889229,1,0,0,1.0218,rock_grid_rect_2,1,05,-1,-1,1.022,-0.383733197,-0.247137387,1,0,0,3.6506,Andesite_rect,1,3.651,1,8,0,8,0,1,,,,,,,,,,,,,
664a04cfda51f0fe3594455a,TCN,2024-06-25_11h40.21.918,LearnStrategy,2023.2.3,Linux x86_64,60.24096386,8,1,10,-0.123619434,0.001351467,1,0,0,1.191,rock_grid_rect_2,4,01,-1,-1,1.191,-0.383631213,-0.250846165,1,0,0,1.4711,Andesite_rect,1,1.471,0,9,0,9,0,1,,,,,,,,,,,,,
664a04cfda51f0fe3594455a,TCN,2024-06-25_11h40.21.918,LearnStrategy,2023.2.3,Linux x86_64,60.24096386,8,1,11,-0.014713407,-0.019460881,1,0,0,0.9403,rock_grid_rect_2,1,02,-1,-1,0.94,0.320364476,-0.23429333,1,0,0,2.1578,Gabbro_rect,4,2.158,0,10,0,10,0,1,,,,,,,,,,,,,
664a04cfda51f0fe3594455a,TCN,2024-06-25_11h40.21.918,LearnStrategy,2023.2.3,Linux x86_64,60.24096386,8,1,12,-0.049063481,-0.002441086,1,0,0,0.7784,rock_grid_rect_2,2,09,-1,-1,0.778,-0.164209186,-0.243377548,1,0,0,1.223,Basalt_rect,2,1.223,1,11,0,11,0,1,,,,,,,,,,,,,
664a04cfda51f0fe3594455a,TCN,2024-06-25_11h40.21.918,LearnStrategy,2023.2.3,Linux x86_64,60.24096386,8,1,13,-0.106391964,0.006311694,1,0,0,1.1536,rock_grid_rect_2,4,09,-1,-1,1.154,0.381068102,-0.235813444,1,0,0,2.5322,Gabbro_rect,4,2.532,1,12,0,12,0,1,,,,,,,,,,,,,
664a04cfda51f0fe3594455a,TCN,2024-06-25_11h40.21.918,LearnStrategy,2023.2.3,Linux x86_64,60.24096386,8,1,14,-0.027631173,0.0006233,1,0,0,0.8185,rock_grid_rect_2,8,09,-1,-1,0.819,0.411510279,-0.393942128,1,0,0,1.2188,Pumice_rect,8,1.219,1,13,0,13,0,1,,,,,,,,,,,,,
664a04cfda51f0fe3594455a,TCN,2024-06-25_11h40.21.918,LearnStrategy,2023.2.3,Linux x86_64,60.24096386,8,1,15,-0.084471375,-0.00469106,1,0,0,0.8812,rock_grid_rect_2,3,14,-1,-1,0.881,-0.402621657,-0.232441412,1,0,0,1.3936,Andesite_rect,1,1.394,0,14,0,14,0,1,,,,,,,,,,,,,
664a04cfda51f0fe3594455a,TCN,2024-06-25_11h40.21.918,LearnStrategy,2023.2.3,Linux x86_64,60.24096386,8,1,16,-0.019990066,-0.001156602,1,0,0,0.7222,rock_grid_rect_2,7,08,-1,-1,0.722,0.1394409,-0.412406315,1,0,0,2.3593,Peridotite_rect,7,2.359,1,15,0,15,0,1,,,,,,,,,,,,,
664a04cfda51f0fe3594455a,TCN,2024-06-25_11h40.21.918,LearnStrategy,2023.2.3,Linux x86_64,60.24096386,8,2,1,,,,,,,,6,06,,,,,,,,,,,6,3.073,1,,,,,,-0.126326714,-0.405023074,1,0,0,3.073,Pegmatite_rect,0,0,0,0,1,
664a04cfda51f0fe3594455a,TCN,2024-06-25_11h40.21.918,LearnStrategy,2023.2.3,Linux x86_64,60.24096386,8,2,2,,,,,,,,8,06,,,,,,,,,,,8,1.759,1,,,,,,0.420295681,-0.405341702,1,0,0,1.7594,Pumice_rect,1,0,1,0,1,
664a04cfda51f0fe3594455a,TCN,2024-06-25_11h40.21.918,LearnStrategy,2023.2.3,Linux x86_64,60.24096386,8,2,3,,,,,,,,2,08,,,,,,,,,,,2,1.41,1,,,,,,-0.160896084,-0.245861643,1,0,0,1.4101,Basalt_rect,2,0,2,0,1,
664a04cfda51f0fe3594455a,TCN,2024-06-25_11h40.21.918,LearnStrategy,2023.2.3,Linux x86_64,60.24096386,8,2,4,,,,,,,,8,02,,,,,,,,,,,8,3.774,1,,,,,,0.353148041,-0.401068783,1,0,0,3.7741,Pumice_rect,3,0,3,0,1,
664a04cfda51f0fe3594455a,TCN,2024-06-25_11h40.21.918,LearnStrategy,2023.2.3,Linux x86_64,60.24096386,8,2,5,,,,,,,,1,03,,,,,,,,,,,2,1.238,0,,,,,,-0.152698248,-0.255640582,1,0,0,1.2384,Basalt_rect,4,0,4,0,1,
664a04cfda51f0fe3594455a,TCN,2024-06-25_11h40.21.918,LearnStrategy,2023.2.3,Linux x86_64,60.24096386,8,2,6,,,,,,,,3,15,,,,,,,,,,,3,2.099,1,,,,,,0.154076435,-0.247215946,1,0,0,2.0987,Diorite_rect,5,0,5,0,1,
664a04cfda51f0fe3594455a,TCN,2024-06-25_11h40.21.918,LearnStrategy,2023.2.3,Linux x86_64,60.24096386,8,2,7,,,,,,,,7,05,,,,,,,,,,,4,3.931,0,,,,,,0.346851904,-0.244805057,1,0,0,3.9311,Gabbro_rect,6,0,6,0,1,
664a04cfda51f0fe3594455a,TCN,2024-06-25_11h40.21.918,LearnStrategy,2023.2.3,Linux x86_64,60.24096386,8,2,8,,,,,,,,2,12,,,,,,,,,,,2,2.135,1,,,,,,-0.120937182,-0.247466675,1,0,0,2.1348,Basalt_rect,7,0,7,0,1,
664a04cfda51f0fe3594455a,TCN,2024-06-25_11h40.21.918,LearnStrategy,2023.2.3,Linux x86_64,60.24096386,8,2,9,,,,,,,,4,15,,,,,,,,,,,1,1.272,0,,,,,,-0.349360064,-0.25929322,1,0,0,1.2725,Andesite_rect,8,0,8,0,1,
664a04cfda51f0fe3594455a,TCN,2024-06-25_11h40.21.918,LearnStrategy,2023.2.3,Linux x86_64,60.24096386,8,2,10,,,,,,,,5,06,,,,,,,,,,,5,1.02,1,,,,,,-0.36891689,-0.411828449,1,0,0,1.0205,Obsidian_rect,9,0,9,0,1,
664a04cfda51f0fe3594455a,TCN,2024-06-25_11h40.21.918,LearnStrategy,2023.2.3,Linux x86_64,60.24096386,8,2,11,,,,,,,,3,07,,,,,,,,,,,1,1.058,0,,,,,,-0.372178931,-0.253194783,1,0,0,1.0584,Andesite_rect,10,0,10,0,1,
664a04cfda51f0fe3594455a,TCN,2024-06-25_11h40.21.918,LearnStrategy,2023.2.3,Linux x86_64,60.24096386,8,2,12,,,,,,,,4,13,,,,,,,,,,,3,1.233,0,,,,,,0.145908156,-0.257772328,1,0,0,1.2328,Diorite_rect,11,0,11,0,1,
664a04cfda51f0fe3594455a,TCN,2024-06-25_11h40.21.918,LearnStrategy,2023.2.3,Linux x86_64,60.24096386,8,2,13,,,,,,,,1,16,,,,,,,,,,,3,0.74,0,,,,,,0.094542359,-0.254041589,1,0,0,0.7403,Diorite_rect,12,0,12,0,1,
664a04cfda51f0fe3594455a,TCN,2024-06-25_11h40.21.918,LearnStrategy,2023.2.3,Linux x86_64,60.24096386,8,2,14,,,,,,,,6,16,,,,,,,,,,,6,1.11,1,,,,,,-0.148198255,-0.392529718,1,0,0,1.1096,Pegmatite_rect,13,0,13,0,1,
664a04cfda51f0fe3594455a,TCN,2024-06-25_11h40.21.918,LearnStrategy,2023.2.3,Linux x86_64,60.24096386,8,2,15,,,,,,,,5,16,,,,,,,,,,,5,1.152,1,,,,,,-0.32190582,-0.409822616,1,0,0,1.152,Obsidian_rect,14,0,14,0,1,
664a04cfda51f0fe3594455a,TCN,2024-06-25_11h40.21.918,LearnStrategy,2023.2.3,Linux x86_64,60.24096386,8,2,16,,,,,,,,7,12,,,,,,,,,,,7,4.08,1,,,,,,0.152699438,-0.389783959,1,0,0,4.0804,Peridotite_rect,15,0,15,0,1,
664a04cfda51f0fe3594455a,TCN,2024-06-25_11h40.21.918,LearnStrategy,2023.2.3,Linux x86_64,60.24096386,9,1,1,-0.019088631,-0.010255233,1,0,0,1.0905,rock_grid_rect_2,2,14,-1,-1,1.091,0.405834833,-0.234905557,1,0,0,2.5449,Gabbro_rect,4,2.545,0,0,0,0,0,1,,,,,,,,,,,,,
664a04cfda51f0fe3594455a,TCN,2024-06-25_11h40.21.918,LearnStrategy,2023.2.3,Linux x86_64,60.24096386,9,1,2,-0.034779516,-0.020626543,1,0,0,1.396,rock_grid_rect_2,3,16,-1,-1,1.396,-0.386956348,-0.254383139,1,0,0,1.2644,Andesite_rect,1,1.264,0,1,0,1,0,1,,,,,,,,,,,,,
664a04cfda51f0fe3594455a,TCN,2024-06-25_11h40.21.918,LearnStrategy,2023.2.3,Linux x86_64,60.24096386,9,1,3,0.093849102,0.019827275,1,0,0,1.3829,rock_grid_rect_2,4,05,-1,-1,1.383,0.388843725,-0.240372962,1,0,0,1.1401,Gabbro_rect,4,1.14,1,2,0,2,0,1,,,,,,,,,,,,,
664a04cfda51f0fe3594455a,TCN,2024-06-25_11h40.21.918,LearnStrategy,2023.2.3,Linux x86_64,60.24096386,9,1,4,0.031994501,0.009535805,1,0,0,0.7765,rock_grid_rect_2,7,06,-1,-1,0.776,0.117185578,-0.39770883,1,0,0,1.4987,Peridotite_rect,7,1.499,1,3,0,3,0,1,,,,,,,,,,,,,
664a04cfda51f0fe3594455a,TCN,2024-06-25_11h40.21.918,LearnStrategy,2023.2.3,Linux x86_64,60.24096386,9,1,5,0.074330846,0.01262261,1,0,0,0.9584,rock_grid_rect_2,5,11,-1,-1,0.958,-0.401271425,-0.410077646,1,0,0,1.2048,Obsidian_rect,5,1.205,1,4,0,4,0,1,,,,,,,,,,,,,
664a04cfda51f0fe3594455a,TCN,2024-06-25_11h40.21.918,LearnStrategy,2023.2.3,Linux x86_64,60.24096386,9,1,6,-0.050443498,-0.013972521,1,0,0,0.873,rock_grid_rect_2,1,14,-1,-1,0.873,0.10358636,-0.245875735,1,0,0,1.3716,Diorite_rect,3,1.372,0,5,0,5,0,1,,,,,,,,,,,,,
664a04cfda51f0fe3594455a,TCN,2024-06-25_11h40.21.918,LearnStrategy,2023.2.3,Linux x86_64,60.24096386,9,1,7,0.018269003,-0.013063399,1,0,0,0.7819,rock_grid_rect_2,3,12,-1,-1,0.782,0.138461683,-0.247394705,1,0,0,1.0078,Diorite_rect,3,1.008,1,6,0,6,0,1,,,,,,,,,,,,,
664a04cfda51f0fe3594455a,TCN,2024-06-25_11h40.21.918,LearnStrategy,2023.2.3,Linux x86_64,60.24096386,9,1,8,0.005148823,0.001558089,1,0,0,0.7559,rock_grid_rect_2,8,16,-1,-1,0.756,0.374620429,-0.411828266,1,0,0,1.4185,Pumice_rect,8,1.418,1,7,0,7,0,1,,,,,,,,,,,,,
664a04cfda51f0fe3594455a,TCN,2024-06-25_11h40.21.918,LearnStrategy,2023.2.3,Linux x86_64,60.24096386,9,1,9,0.023203242,-0.017887098,1,0,0,0.7039,rock_grid_rect_2,2,06,-1,-1,0.704,-0.1275309,-0.240473483,1,0,0,1.0234,Basalt_rect,2,1.023,1,8,0,8,0,1,,,,,,,,,,,,,
664a04cfda51f0fe3594455a,TCN,2024-06-25_11h40.21.918,LearnStrategy,2023.2.3,Linux x86_64,60.24096386,9,1,10,0.033570526,-0.0112339,1,0,0,1.277,rock_grid_rect_2,5,09,-1,-1,1.277,-0.414662603,-0.387849959,1,0,0,1.5023,Obsidian_rect,5,1.502,1,9,0,9,0,1,,,,,,,,,,,,,
664a04cfda51f0fe3594455a,TCN,2024-06-25_11h40.21.918,LearnStrategy,2023.2.3,Linux x86_64,60.24096386,9,1,11,-0.03897447,-0.00601997,1,0,0,1.7778,rock_grid_rect_2,8,14,-1,-1,1.778,0.407954226,-0.399826393,1,0,0,1.5349,Pumice_rect,8,1.535,1,10,0,10,0,1,,,,,,,,,,,,,
664a04cfda51f0fe3594455a,TCN,2024-06-25_11h40.21.918,LearnStrategy,2023.2.3,Linux x86_64,60.24096386,9,1,12,-0.046531849,0.010190858,1,0,0,1.3233,rock_grid_rect_2,6,03,-1,-1,1.323,-0.10591082,-0.403315188,1,0,0,1.567,Pegmatite_rect,6,1.567,1,11,0,11,0,1,,,,,,,,,,,,,
664a04cfda51f0fe3594455a,TCN,2024-06-25_11h40.21.918,LearnStrategy,2023.2.3,Linux x86_64,60.24096386,9,1,13,-0.126281143,0.020588201,1,0,0,0.6908,rock_grid_rect_2,4,14,-1,-1,0.691,0.444104516,-0.229245988,1,0,0,2.7235,Gabbro_rect,4,2.724,1,12,0,12,0,1,,,,,,,,,,,,,
664a04cfda51f0fe3594455a,TCN,2024-06-25_11h40.21.918,LearnStrategy,2023.2.3,Linux x86_64,60.24096386,9,1,14,-0.025789321,-0.010250429,1,0,0,0.8467,rock_grid_rect_2,6,05,-1,-1,0.847,-0.0822365,-0.393577747,1,0,0,1.6231,Pegmatite_rect,6,1.623,1,13,0,13,0,1,,,,,,,,,,,,,
664a04cfda51f0fe3594455a,TCN,2024-06-25_11h40.21.918,LearnStrategy,2023.2.3,Linux x86_64,60.24096386,9,1,15,-0.131217945,0.007788479,1,0,0,0.8904,rock_grid_rect_2,1,07,-1,-1,0.89,0.106611947,-0.235459129,1,0,0,1.4829,Diorite_rect,3,1.483,0,14,0,14,0,1,,,,,,,,,,,,,
664a04cfda51f0fe3594455a,TCN,2024-06-25_11h40.21.918,LearnStrategy,2023.2.3,Linux x86_64,60.24096386,9,1,16,0.007952872,0.01269696,1,0,0,0.9839,rock_grid_rect_2,7,02,-1,-1,0.984,-0.057544988,-0.406265099,1,0,0,1.2856,Pegmatite_rect,6,1.286,0,15,0,15,0,1,,,,,,,,,,,,,
664a04cfda51f0fe3594455a,TCN,2024-06-25_11h40.21.918,LearnStrategy,2023.2.3,Linux x86_64,60.24096386,9,2,1,,,,,,,,1,09,,,,,,,,,,,4,4.525,0,,,,,,0.408134769,-0.236498557,1,0,0,4.5247,Gabbro_rect,0,0,0,0,1,
664a04cfda51f0fe3594455a,TCN,2024-06-25_11h40.21.918,LearnStrategy,2023.2.3,Linux x86_64,60.24096386,9,2,2,,,,,,,,3,02,,,,,,,,,,,1,3.689,0,,,,,,-0.441102767,-0.247487356,1,0,0,3.6889,Andesite_rect,1,0,1,0,1,
664a04cfda51f0fe3594455a,TCN,2024-06-25_11h40.21.918,LearnStrategy,2023.2.3,Linux x86_64,60.24096386,9,2,3,,,,,,,,6,07,,,,,,,,,,,6,3.461,1,,,,,,-0.120924188,-0.388549073,1,0,0,3.4609,Pegmatite_rect,2,0,2,0,1,
664a04cfda51f0fe3594455a,TCN,2024-06-25_11h40.21.918,LearnStrategy,2023.2.3,Linux x86_64,60.24096386,9,2,4,,,,,,,,2,01,,,,,,,,,,,2,1.243,1,,,,,,-0.110132678,-0.23819592,1,0,0,1.2425,Basalt_rect,3,0,3,0,1,
664a04cfda51f0fe3594455a,TCN,2024-06-25_11h40.21.918,LearnStrategy,2023.2.3,Linux x86_64,60.24096386,9,2,5,,,,,,,,2,10,,,,,,,,,,,2,0.933,1,,,,,,-0.116761443,-0.248083707,1,0,0,0.9327,Basalt_rect,4,0,4,0,1,
664a04cfda51f0fe3594455a,TCN,2024-06-25_11h40.21.918,LearnStrategy,2023.2.3,Linux x86_64,60.24096386,9,2,6,,,,,,,,7,10,,,,,,,,,,,3,2.808,0,,,,,,0.138237583,-0.242486911,1,0,0,2.808,Diorite_rect,5,0,5,0,1,
664a04cfda51f0fe3594455a,TCN,2024-06-25_11h40.21.918,LearnStrategy,2023.2.3,Linux x86_64,60.24096386,9,2,7,,,,,,,,4,12,,,,,,,,,,,2,2.327,0,,,,,,-0.05978636,-0.250238376,1,0,0,2.3268,Basalt_rect,6,0,6,0,1,
664a04cfda51f0fe3594455a,TCN,2024-06-25_11h40.21.918,LearnStrategy,2023.2.3,Linux x86_64,60.24096386,9,2,8,,,,,,,,4,16,,,,,,,,,,,4,1.278,1,,,,,,0.361556618,-0.239432362,1,0,0,1.2784,Gabbro_rect,7,0,7,0,1,
664a04cfda51f0fe3594455a,TCN,2024-06-25_11h40.21.918,LearnStrategy,2023.2.3,Linux x86_64,60.24096386,9,2,9,,,,,,,,3,10,,,,,,,,,,,3,3.028,1,,,,,,0.101843243,-0.239215719,1,0,0,3.0276,Diorite_rect,8,0,8,0,1,
664a04cfda51f0fe3594455a,TCN,2024-06-25_11h40.21.918,LearnStrategy,2023.2.3,Linux x86_64,60.24096386,9,2,10,,,,,,,,5,10,,,,,,,,,,,5,1.228,1,,,,,,-0.347221317,-0.387188638,1,0,0,1.228,Obsidian_rect,9,0,9,0,1,
664a04cfda51f0fe3594455a,TCN,2024-06-25_11h40.21.918,LearnStrategy,2023.2.3,Linux x86_64,60.24096386,9,2,11,,,,,,,,1,04,,,,,,,,,,,1,1.832,1,,,,,,-0.338751202,-0.256960067,1,0,0,1.8318,Andesite_rect,10,0,10,0,1,
664a04cfda51f0fe3594455a,TCN,2024-06-25_11h40.21.918,LearnStrategy,2023.2.3,Linux x86_64,60.24096386,9,2,12,,,,,,,,8,04,,,,,,,,,,,8,1.307,1,,,,,,0.336405101,-0.402262034,1,0,0,1.307,Pumice_rect,11,0,11,0,1,
664a04cfda51f0fe3594455a,TCN,2024-06-25_11h40.21.918,LearnStrategy,2023.2.3,Linux x86_64,60.24096386,9,2,13,,,,,,,,7,13,,,,,,,,,,,6,1.165,0,,,,,,-0.080783186,-0.415119314,1,0,0,1.1646,Pegmatite_rect,12,0,12,0,1,
664a04cfda51f0fe3594455a,TCN,2024-06-25_11h40.21.918,LearnStrategy,2023.2.3,Linux x86_64,60.24096386,9,2,14,,,,,,,,5,08,,,,,,,,,,,5,0.992,1,,,,,,-0.319079215,-0.399390728,1,0,0,0.9918,Obsidian_rect,13,0,13,0,1,
664a04cfda51f0fe3594455a,TCN,2024-06-25_11h40.21.918,LearnStrategy,2023.2.3,Linux x86_64,60.24096386,9,2,15,,,,,,,,6,10,,,,,,,,,,,6,1.577,1,,,,,,-0.116770503,-0.389585481,1,0,0,1.5767,Pegmatite_rect,14,0,14,0,1,
664a04cfda51f0fe3594455a,TCN,2024-06-25_11h40.21.918,LearnStrategy,2023.2.3,Linux x86_64,60.24096386,9,2,16,,,,,,,,8,05,,,,,,,,,,,8,1.269,1,,,,,,0.421599839,-0.416990174,1,0,0,1.2686,Pumice_rect,15,0,15,0,1,
664a04cfda51f0fe3594455a,TCN,2024-06-25_11h40.21.918,LearnStrategy,2023.2.3,Linux x86_64,60.24096386,,,,,,,,,,,,,,,,,,,,,,,,,,,,,,,,,,,,,,,,,,,1
664a04cfda51f0fe3594455a,TCN,2024-06-25_11h40.21.918,LearnStrategy,2023.2.3,Linux x86_64,60.24096386,,,,,,,,,,,,,,,,,,,,,,,,,,,,,,,,,,,,,,,,,,,
664a04cfda51f0fe3594455a,TCN,2024-06-25_11h40.21.918,LearnStrategy,2023.2.3,Linux x86_64,60.24096386,,,,,,,,,,,3,09,1,1,,,,,,,,,,,,,,,,,,,,,,,,,,,,,
664a04cfda51f0fe3594455a,TCN,2024-06-25_11h40.21.918,LearnStrategy,2023.2.3,Linux x86_64,60.24096386,,,,,,,,,,,4,09,1,2,,,,,,,,,,,,,,,,,,,,,,,,,,,,,
664a04cfda51f0fe3594455a,TCN,2024-06-25_11h40.21.918,LearnStrategy,2023.2.3,Linux x86_64,60.24096386,,,,,,,,,,,2,05,1,3,,,,,,,,,,,,,,,,,,,,,,,,,,,,,
664a04cfda51f0fe3594455a,TCN,2024-06-25_11h40.21.918,LearnStrategy,2023.2.3,Linux x86_64,60.24096386,,,,,,,,,,,5,04,1,4,,,,,,,,,,,,,,,,,,,,,,,,,,,,,
664a04cfda51f0fe3594455a,TCN,2024-06-25_11h40.21.918,LearnStrategy,2023.2.3,Linux x86_64,60.24096386,,,,,,,,,,,6,08,1,5,,,,,,,,,,,,,,,,,,,,,,,,,,,,,
664a04cfda51f0fe3594455a,TCN,2024-06-25_11h40.21.918,LearnStrategy,2023.2.3,Linux x86_64,60.24096386,,,,,,,,,,,3,08,1,6,,,,,,,,,,,,,,,,,,,,,,,,,,,,,
664a04cfda51f0fe3594455a,TCN,2024-06-25_11h40.21.918,LearnStrategy,2023.2.3,Linux x86_64,60.24096386,,,,,,,,,,,1,02,1,7,,,,,,,,,,,,,,,,,,,,,,,,,,,,,
664a04cfda51f0fe3594455a,TCN,2024-06-25_11h40.21.918,LearnStrategy,2023.2.3,Linux x86_64,60.24096386,,,,,,,,,,,2,04,1,8,,,,,,,,,,,,,,,,,,,,,,,,,,,,,
664a04cfda51f0fe3594455a,TCN,2024-06-25_11h40.21.918,LearnStrategy,2023.2.3,Linux x86_64,60.24096386,,,,,,,,,,,4,14,2,1,,,,,,,,,,,,,,,,,,,,,,,,,,,,,
664a04cfda51f0fe3594455a,TCN,2024-06-25_11h40.21.918,LearnStrategy,2023.2.3,Linux x86_64,60.24096386,,,,,,,,,,,5,02,2,2,,,,,,,,,,,,,,,,,,,,,,,,,,,,,
664a04cfda51f0fe3594455a,TCN,2024-06-25_11h40.21.918,LearnStrategy,2023.2.3,Linux x86_64,60.24096386,,,,,,,,,,,3,13,2,3,,,,,,,,,,,,,,,,,,,,,,,,,,,,,
664a04cfda51f0fe3594455a,TCN,2024-06-25_11h40.21.918,LearnStrategy,2023.2.3,Linux x86_64,60.24096386,,,,,,,,,,,8,09,2,4,,,,,,,,,,,,,,,,,,,,,,,,,,,,,
664a04cfda51f0fe3594455a,TCN,2024-06-25_11h40.21.918,LearnStrategy,2023.2.3,Linux x86_64,60.24096386,,,,,,,,,,,7,04,2,5,,,,,,,,,,,,,,,,,,,,,,,,,,,,,
664a04cfda51f0fe3594455a,TCN,2024-06-25_11h40.21.918,LearnStrategy,2023.2.3,Linux x86_64,60.24096386,,,,,,,,,,,6,09,2,6,,,,,,,,,,,,,,,,,,,,,,,,,,,,,
664a04cfda51f0fe3594455a,TCN,2024-06-25_11h40.21.918,LearnStrategy,2023.2.3,Linux x86_64,60.24096386,,,,,,,,,,,7,02,2,7,,,,,,,,,,,,,,,,,,,,,,,,,,,,,
664a04cfda51f0fe3594455a,TCN,2024-06-25_11h40.21.918,LearnStrategy,2023.2.3,Linux x86_64,60.24096386,,,,,,,,,,,8,13,2,8,,,,,,,,,,,,,,,,,,,,,,,,,,,,,
664a04cfda51f0fe3594455a,TCN,2024-06-25_11h40.21.918,LearnStrategy,2023.2.3,Linux x86_64,60.24096386,,,,,,,,,,,8,10,3,1,,,,,,,,,,,,,,,,,,,,,,,,,,,,,
664a04cfda51f0fe3594455a,TCN,2024-06-25_11h40.21.918,LearnStrategy,2023.2.3,Linux x86_64,60.24096386,,,,,,,,,,,6,11,3,2,,,,,,,,,,,,,,,,,,,,,,,,,,,,,
664a04cfda51f0fe3594455a,TCN,2024-06-25_11h40.21.918,LearnStrategy,2023.2.3,Linux x86_64,60.24096386,,,,,,,,,,,4,03,3,3,,,,,,,,,,,,,,,,,,,,,,,,,,,,,
664a04cfda51f0fe3594455a,TCN,2024-06-25_11h40.21.918,LearnStrategy,2023.2.3,Linux x86_64,60.24096386,,,,,,,,,,,5,05,3,4,,,,,,,,,,,,,,,,,,,,,,,,,,,,,
664a04cfda51f0fe3594455a,TCN,2024-06-25_11h40.21.918,LearnStrategy,2023.2.3,Linux x86_64,60.24096386,,,,,,,,,,,2,06,3,5,,,,,,,,,,,,,,,,,,,,,,,,,,,,,
664a04cfda51f0fe3594455a,TCN,2024-06-25_11h40.21.918,LearnStrategy,2023.2.3,Linux x86_64,60.24096386,,,,,,,,,,,4,01,3,6,,,,,,,,,,,,,,,,,,,,,,,,,,,,,
664a04cfda51f0fe3594455a,TCN,2024-06-25_11h40.21.918,LearnStrategy,2023.2.3,Linux x86_64,60.24096386,,,,,,,,,,,8,14,3,7,,,,,,,,,,,,,,,,,,,,,,,,,,,,,
664a04cfda51f0fe3594455a,TCN,2024-06-25_11h40.21.918,LearnStrategy,2023.2.3,Linux x86_64,60.24096386,,,,,,,,,,,8,16,3,8,,,,,,,,,,,,,,,,,,,,,,,,,,,,,
664a04cfda51f0fe3594455a,TCN,2024-06-25_11h40.21.918,LearnStrategy,2023.2.3,Linux x86_64,60.24096386,,,,,,,,,,,3,14,4,1,,,,,,,,,,,,,,,,,,,,,,,,,,,,,
664a04cfda51f0fe3594455a,TCN,2024-06-25_11h40.21.918,LearnStrategy,2023.2.3,Linux x86_64,60.24096386,,,,,,,,,,,6,05,4,2,,,,,,,,,,,,,,,,,,,,,,,,,,,,,
664a04cfda51f0fe3594455a,TCN,2024-06-25_11h40.21.918,LearnStrategy,2023.2.3,Linux x86_64,60.24096386,,,,,,,,,,,6,03,4,3,,,,,,,,,,,,,,,,,,,,,,,,,,,,,
664a04cfda51f0fe3594455a,TCN,2024-06-25_11h40.21.918,LearnStrategy,2023.2.3,Linux x86_64,60.24096386,,,,,,,,,,,2,11,4,4,,,,,,,,,,,,,,,,,,,,,,,,,,,,,
664a04cfda51f0fe3594455a,TCN,2024-06-25_11h40.21.918,LearnStrategy,2023.2.3,Linux x86_64,60.24096386,,,,,,,,,,,7,06,4,5,,,,,,,,,,,,,,,,,,,,,,,,,,,,,
664a04cfda51f0fe3594455a,TCN,2024-06-25_11h40.21.918,LearnStrategy,2023.2.3,Linux x86_64,60.24096386,,,,,,,,,,,1,05,4,6,,,,,,,,,,,,,,,,,,,,,,,,,,,,,
664a04cfda51f0fe3594455a,TCN,2024-06-25_11h40.21.918,LearnStrategy,2023.2.3,Linux x86_64,60.24096386,,,,,,,,,,,1,11,4,7,,,,,,,,,,,,,,,,,,,,,,,,,,,,,
664a04cfda51f0fe3594455a,TCN,2024-06-25_11h40.21.918,LearnStrategy,2023.2.3,Linux x86_64,60.24096386,,,,,,,,,,,7,15,4,8,,,,,,,,,,,,,,,,,,,,,,,,,,,,,
664a04cfda51f0fe3594455a,TCN,2024-06-25_11h40.21.918,LearnStrategy,2023.2.3,Linux x86_64,60.24096386,,,,,,,,,,,7,14,5,1,,,,,,,,,,,,,,,,,,,,,,,,,,,,,
664a04cfda51f0fe3594455a,TCN,2024-06-25_11h40.21.918,LearnStrategy,2023.2.3,Linux x86_64,60.24096386,,,,,,,,,,,3,16,5,2,,,,,,,,,,,,,,,,,,,,,,,,,,,,,
664a04cfda51f0fe3594455a,TCN,2024-06-25_11h40.21.918,LearnStrategy,2023.2.3,Linux x86_64,60.24096386,,,,,,,,,,,2,14,5,3,,,,,,,,,,,,,,,,,,,,,,,,,,,,,
664a04cfda51f0fe3594455a,TCN,2024-06-25_11h40.21.918,LearnStrategy,2023.2.3,Linux x86_64,60.24096386,,,,,,,,,,,3,12,5,4,,,,,,,,,,,,,,,,,,,,,,,,,,,,,
664a04cfda51f0fe3594455a,TCN,2024-06-25_11h40.21.918,LearnStrategy,2023.2.3,Linux x86_64,60.24096386,,,,,,,,,,,5,11,5,5,,,,,,,,,,,,,,,,,,,,,,,,,,,,,
664a04cfda51f0fe3594455a,TCN,2024-06-25_11h40.21.918,LearnStrategy,2023.2.3,Linux x86_64,60.24096386,,,,,,,,,,,1,07,5,6,,,,,,,,,,,,,,,,,,,,,,,,,,,,,
664a04cfda51f0fe3594455a,TCN,2024-06-25_11h40.21.918,LearnStrategy,2023.2.3,Linux x86_64,60.24096386,,,,,,,,,,,7,08,5,7,,,,,,,,,,,,,,,,,,,,,,,,,,,,,
664a04cfda51f0fe3594455a,TCN,2024-06-25_11h40.21.918,LearnStrategy,2023.2.3,Linux x86_64,60.24096386,,,,,,,,,,,2,09,5,8,,,,,,,,,,,,,,,,,,,,,,,,,,,,,
664a04cfda51f0fe3594455a,TCN,2024-06-25_11h40.21.918,LearnStrategy,2023.2.3,Linux x86_64,60.24096386,,,,,,,,,,,8,03,6,1,,,,,,,,,,,,,,,,,,,,,,,,,,,,,
664a04cfda51f0fe3594455a,TCN,2024-06-25_11h40.21.918,LearnStrategy,2023.2.3,Linux x86_64,60.24096386,,,,,,,,,,,4,10,6,2,,,,,,,,,,,,,,,,,,,,,,,,,,,,,
664a04cfda51f0fe3594455a,TCN,2024-06-25_11h40.21.918,LearnStrategy,2023.2.3,Linux x86_64,60.24096386,,,,,,,,,,,1,14,6,3,,,,,,,,,,,,,,,,,,,,,,,,,,,,,
664a04cfda51f0fe3594455a,TCN,2024-06-25_11h40.21.918,LearnStrategy,2023.2.3,Linux x86_64,60.24096386,,,,,,,,,,,5,09,6,4,,,,,,,,,,,,,,,,,,,,,,,,,,,,,
664a04cfda51f0fe3594455a,TCN,2024-06-25_11h40.21.918,LearnStrategy,2023.2.3,Linux x86_64,60.24096386,,,,,,,,,,,6,13,6,5,,,,,,,,,,,,,,,,,,,,,,,,,,,,,
664a04cfda51f0fe3594455a,TCN,2024-06-25_11h40.21.918,LearnStrategy,2023.2.3,Linux x86_64,60.24096386,,,,,,,,,,,4,05,6,6,,,,,,,,,,,,,,,,,,,,,,,,,,,,,
664a04cfda51f0fe3594455a,TCN,2024-06-25_11h40.21.918,LearnStrategy,2023.2.3,Linux x86_64,60.24096386,,,,,,,,,,,1,10,6,7,,,,,,,,,,,,,,,,,,,,,,,,,,,,,
664a04cfda51f0fe3594455a,TCN,2024-06-25_11h40.21.918,LearnStrategy,2023.2.3,Linux x86_64,60.24096386,,,,,,,,,,,5,07,6,8,,,,,,,,,,,,,,,,,,,,,,,,,,,,,