participant,condition,date,expName,psychopyVersion,OS,frameRate,block,phase,trial,learn_mouse_2.x,learn_mouse_2.y,learn_mouse_2.leftButton,learn_mouse_2.midButton,learn_mouse_2.rightButton,learn_mouse_2.time,learn_mouse_2.clicked_name,cat,token,row,col,t_select,cat_mouse_l.x,cat_mouse_l.y,cat_mouse_l.leftButton,cat_mouse_l.midButton,cat_mouse_l.rightButton,cat_mouse_l.time,cat_mouse_l.clicked_name,resp,t_resp,corr,train_trials.thisRepN,train_trials.thisTrialN,train_trials.thisN,train_trials.thisIndex,train_trials.ran,cat_mouse_t.x,cat_mouse_t.y,cat_mouse_t.leftButton,cat_mouse_t.midButton,cat_mouse_t.rightButton,cat_mouse_t.time,cat_mouse_t.clicked_name,test_trials.thisRepN,test_trials.thisTrialN,test_trials.thisN,test_trials.thisIndex,test_trials.ran
664a0c46ebbf1d6142d8695e,TCN,2024-06-10_15h14.12.867,LearnStrategy,2023.2.3,MacIntel,59.52380952,,,,,,,,,,,,,,,,,,,,,,,,,,,,,,,,,,,,,,,,,,
664a0c46ebbf1d6142d8695e,TCN,2024-06-10_15h14.12.867,LearnStrategy,2023.2.3,MacIntel,59.52380952,1,1,1,0.089679173,0.004646247,1,0,0,7.4743,rock_grid_rect_2,2,01,-1,-1,7.474,-0.071439198,-0.249819619,1,0,0,5.1219,Basalt_rect,2,5.122,1,0,0,0,0,1,,,,,,,,,,,,
664a0c46ebbf1d6142d8695e,TCN,2024-06-10_15h14.12.867,LearnStrategy,2023.2.3,MacIntel,59.52380952,1,1,2,-0.053104564,-0.004602759,1,0,0,1.3646,rock_grid_rect_2,5,14,-1,-1,1.365,-0.060678973,-0.416573552,1,0,0,3.1224,Pegmatite_rect,6,3.122,0,1,0,1,0,1,,,,,,,,,,,,
664a0c46ebbf1d6142d8695e,TCN,2024-06-10_15h14.12.867,LearnStrategy,2023.2.3,MacIntel,59.52380952,1,1,3,-0.064046424,-0.002747345,1,0,0,1.5321,rock_grid_rect_2,3,09,-1,-1,1.532,-0.33563652,-0.239328984,1,0,0,3.014,Andesite_rect,1,3.014,0,2,0,2,0,1,,,,,,,,,,,,
664a0c46ebbf1d6142d8695e,TCN,2024-06-10_15h14.12.867,LearnStrategy,2023.2.3,MacIntel,59.52380952,1,1,4,-0.02953137,-0.010143171,1,0,0,1.364,rock_grid_rect_2,8,08,-1,-1,1.364,0.142533221,-0.253786795,1,0,0,1.7735,Diorite_rect,3,1.774,0,3,0,3,0,1,,,,,,,,,,,,
664a0c46ebbf1d6142d8695e,TCN,2024-06-10_15h14.12.867,LearnStrategy,2023.2.3,MacIntel,59.52380952,1,1,5,-0.004115731,-0.019540896,1,0,0,1.3481,rock_grid_rect_2,3,06,-1,-1,1.348,-0.360472352,-0.262560054,1,0,0,5.0522,Andesite_rect,1,5.052,0,4,0,4,0,1,,,,,,,,,,,,
664a0c46ebbf1d6142d8695e,TCN,2024-06-10_15h14.12.867,LearnStrategy,2023.2.3,MacIntel,59.52380952,1,1,6,0.072342518,0.00596744,1,0,0,1.1129,rock_grid_rect_2,7,14,-1,-1,1.113,0.0904862,-0.238610131,1,0,0,3.0312,Diorite_rect,3,3.031,0,5,0,5,0,1,,,,,,,,,,,,
664a0c46ebbf1d6142d8695e,TCN,2024-06-10_15h14.12.867,LearnStrategy,2023.2.3,MacIntel,59.52380952,1,1,7,-0.083631352,-0.015513938,1,0,0,1.0829,rock_grid_rect_2,1,14,-1,-1,1.083,0.109984643,-0.394968796,1,0,0,7.4313,Peridotite_rect,7,7.431,0,6,0,6,0,1,,,,,,,,,,,,
664a0c46ebbf1d6142d8695e,TCN,2024-06-10_15h14.12.867,LearnStrategy,2023.2.3,MacIntel,59.52380952,1,1,8,-0.072562463,-0.021593693,1,0,0,1.3805,rock_grid_rect_2,6,10,-1,-1,1.381,-0.184491675,-0.401686532,1,0,0,2.2417,Pegmatite_rect,6,2.242,1,7,0,7,0,1,,,,,,,,,,,,
664a0c46ebbf1d6142d8695e,TCN,2024-06-10_15h14.12.867,LearnStrategy,2023.2.3,MacIntel,59.52380952,1,1,9,-0.067695836,3.52587E-05,1,0,0,1.1498,rock_grid_rect_2,7,16,-1,-1,1.15,-0.105378669,-0.244391033,1,0,0,2.2904,Basalt_rect,2,2.29,0,8,0,8,0,1,,,,,,,,,,,,
664a0c46ebbf1d6142d8695e,TCN,2024-06-10_15h14.12.867,LearnStrategy,2023.2.3,MacIntel,59.52380952,1,1,10,0.033074461,-0.003970173,1,0,0,0.9821,rock_grid_rect_2,5,09,-1,-1,0.982,0.332819584,-0.266209957,1,0,0,3.2047,Gabbro_rect,4,3.205,0,9,0,9,0,1,,,,,,,,,,,,
664a0c46ebbf1d6142d8695e,TCN,2024-06-10_15h14.12.867,LearnStrategy,2023.2.3,MacIntel,59.52380952,1,1,11,-0.020581763,-0.008951787,1,0,0,0.9484,rock_grid_rect_2,4,12,-1,-1,0.948,-0.344889368,-0.263626153,1,0,0,1.7059,Andesite_rect,1,1.706,0,10,0,10,0,1,,,,,,,,,,,,
664a0c46ebbf1d6142d8695e,TCN,2024-06-10_15h14.12.867,LearnStrategy,2023.2.3,MacIntel,59.52380952,1,1,12,-0.029605539,-0.022084481,1,0,0,1.0824,rock_grid_rect_2,6,13,-1,-1,1.082,0.088659232,-0.391580963,1,0,0,1.7405,Peridotite_rect,7,1.74,0,11,0,11,0,1,,,,,,,,,,,,
664a0c46ebbf1d6142d8695e,TCN,2024-06-10_15h14.12.867,LearnStrategy,2023.2.3,MacIntel,59.52380952,1,1,13,-0.093863406,-0.006271526,1,0,0,1.0824,rock_grid_rect_2,8,15,-1,-1,1.082,0.18374067,-0.405674308,1,0,0,3.2808,Peridotite_rect,7,3.281,0,12,0,12,0,1,,,,,,,,,,,,
664a0c46ebbf1d6142d8695e,TCN,2024-06-10_15h14.12.867,LearnStrategy,2023.2.3,MacIntel,59.52380952,1,1,14,0.011712211,-0.008535821,1,0,0,1.0491,rock_grid_rect_2,2,08,-1,-1,1.049,-0.088591875,-0.266247613,1,0,0,1.8387,Basalt_rect,2,1.839,1,13,0,13,0,1,,,,,,,,,,,,
664a0c46ebbf1d6142d8695e,TCN,2024-06-10_15h14.12.867,LearnStrategy,2023.2.3,MacIntel,59.52380952,1,1,15,-0.090692084,-0.016391264,1,0,0,1.1324,rock_grid_rect_2,4,11,-1,-1,1.132,-0.368674115,-0.417364938,1,0,0,2.6284,Obsidian_rect,5,2.628,0,14,0,14,0,1,,,,,,,,,,,,
664a0c46ebbf1d6142d8695e,TCN,2024-06-10_15h14.12.867,LearnStrategy,2023.2.3,MacIntel,59.52380952,1,1,16,0.067885154,-0.021850804,1,0,0,0.8975,rock_grid_rect_2,1,09,-1,-1,0.898,-0.295963287,-0.259267208,1,0,0,1.6543,Andesite_rect,1,1.654,1,15,0,15,0,1,,,,,,,,,,,,
664a0c46ebbf1d6142d8695e,TCN,2024-06-10_15h14.12.867,LearnStrategy,2023.2.3,MacIntel,59.52380952,1,2,1,,,,,,,,8,05,,,,,,,,,,,8,4.606,1,,,,,,0.371357836,-0.413597543,1,0,0,4.6062,Pumice_rect,0,0,0,0,1
664a0c46ebbf1d6142d8695e,TCN,2024-06-10_15h14.12.867,LearnStrategy,2023.2.3,MacIntel,59.52380952,1,2,2,,,,,,,,5,10,,,,,,,,,,,2,4.374,0,,,,,,-0.06666941,-0.256980406,1,0,0,4.374,Basalt_rect,1,0,1,0,1
664a0c46ebbf1d6142d8695e,TCN,2024-06-10_15h14.12.867,LearnStrategy,2023.2.3,MacIntel,59.52380952,1,2,3,,,,,,,,7,15,,,,,,,,,,,4,1.53,0,,,,,,0.320108686,-0.24686797,1,0,0,1.5304,Gabbro_rect,2,0,2,0,1
664a0c46ebbf1d6142d8695e,TCN,2024-06-10_15h14.12.867,LearnStrategy,2023.2.3,MacIntel,59.52380952,1,2,4,,,,,,,,5,07,,,,,,,,,,,1,2.658,0,,,,,,-0.363226591,-0.264481408,1,0,0,2.6581,Andesite_rect,3,0,3,0,1
664a0c46ebbf1d6142d8695e,TCN,2024-06-10_15h14.12.867,LearnStrategy,2023.2.3,MacIntel,59.52380952,1,2,5,,,,,,,,2,05,,,,,,,,,,,2,0.621,1,,,,,,-0.161359787,-0.26323591,1,0,0,0.6211,Basalt_rect,4,0,4,0,1
664a0c46ebbf1d6142d8695e,TCN,2024-06-10_15h14.12.867,LearnStrategy,2023.2.3,MacIntel,59.52380952,1,2,6,,,,,,,,1,01,,,,,,,,,,,3,0.578,0,,,,,,0.069573702,-0.271710205,1,0,0,0.5782,Diorite_rect,5,0,5,0,1
664a0c46ebbf1d6142d8695e,TCN,2024-06-10_15h14.12.867,LearnStrategy,2023.2.3,MacIntel,59.52380952,1,2,7,,,,,,,,8,03,,,,,,,,,,,7,0.277,0,,,,,,0.099990954,-0.391027233,1,0,0,0.2772,Peridotite_rect,6,0,6,0,1
664a0c46ebbf1d6142d8695e,TCN,2024-06-10_15h14.12.867,LearnStrategy,2023.2.3,MacIntel,59.52380952,1,2,8,,,,,,,,4,03,,,,,,,,,,,6,0.231,0,,,,,,-0.061859294,-0.411289379,1,0,0,0.2314,Pegmatite_rect,7,0,7,0,1
664a0c46ebbf1d6142d8695e,TCN,2024-06-10_15h14.12.867,LearnStrategy,2023.2.3,MacIntel,59.52380952,1,2,9,,,,,,,,3,16,,,,,,,,,,,1,0.692,0,,,,,,-0.350808144,-0.263935743,1,0,0,0.6924,Andesite_rect,8,0,8,0,1
664a0c46ebbf1d6142d8695e,TCN,2024-06-10_15h14.12.867,LearnStrategy,2023.2.3,MacIntel,59.52380952,1,2,10,,,,,,,,2,16,,,,,,,,,,,2,0.819,1,,,,,,-0.104878562,-0.237879889,1,0,0,0.8185,Basalt_rect,9,0,9,0,1
664a0c46ebbf1d6142d8695e,TCN,2024-06-10_15h14.12.867,LearnStrategy,2023.2.3,MacIntel,59.52380952,1,2,11,,,,,,,,3,08,,,,,,,,,,,3,0.084,1,,,,,,0.121660614,-0.243078014,1,0,0,0.0839,Diorite_rect,10,0,10,0,1
664a0c46ebbf1d6142d8695e,TCN,2024-06-10_15h14.12.867,LearnStrategy,2023.2.3,MacIntel,59.52380952,1,2,12,,,,,,,,1,10,,,,,,,,,,,4,0.828,0,,,,,,0.334492929,-0.263332203,1,0,0,0.8281,Gabbro_rect,11,0,11,0,1
664a0c46ebbf1d6142d8695e,TCN,2024-06-10_15h14.12.867,LearnStrategy,2023.2.3,MacIntel,59.52380952,1,2,13,,,,,,,,6,09,,,,,,,,,,,1,2.413,0,,,,,,-0.344364738,-0.262420218,1,0,0,2.4126,Andesite_rect,12,0,12,0,1
664a0c46ebbf1d6142d8695e,TCN,2024-06-10_15h14.12.867,LearnStrategy,2023.2.3,MacIntel,59.52380952,1,2,14,,,,,,,,4,10,,,,,,,,,,,5,0.479,0,,,,,,-0.367634828,-0.394719642,1,0,0,0.4787,Obsidian_rect,13,0,13,0,1
664a0c46ebbf1d6142d8695e,TCN,2024-06-10_15h14.12.867,LearnStrategy,2023.2.3,MacIntel,59.52380952,1,2,15,,,,,,,,7,08,,,,,,,,,,,2,1.53,0,,,,,,-0.151012802,-0.255880083,1,0,0,1.5299,Basalt_rect,14,0,14,0,1
664a0c46ebbf1d6142d8695e,TCN,2024-06-10_15h14.12.867,LearnStrategy,2023.2.3,MacIntel,59.52380952,1,2,16,,,,,,,,6,07,,,,,,,,,,,8,1.361,0,,,,,,0.382939802,-0.386331885,1,0,0,1.3607,Pumice_rect,15,0,15,0,1
664a0c46ebbf1d6142d8695e,TCN,2024-06-10_15h14.12.867,LearnStrategy,2023.2.3,MacIntel,59.52380952,2,1,1,-0.050926699,-0.00835435,1,0,0,1.4818,rock_grid_rect_2,8,13,-1,-1,1.482,0.399891009,-0.38893934,1,0,0,7.0365,Pumice_rect,8,7.036,1,0,0,0,0,1,,,,,,,,,,,,
664a0c46ebbf1d6142d8695e,TCN,2024-06-10_15h14.12.867,LearnStrategy,2023.2.3,MacIntel,59.52380952,2,1,2,0.004921068,-0.008232825,1,0,0,1.1155,rock_grid_rect_2,6,03,-1,-1,1.115,-0.359772982,-0.249367414,1,0,0,1.6783,Andesite_rect,1,1.678,0,1,0,1,0,1,,,,,,,,,,,,
664a0c46ebbf1d6142d8695e,TCN,2024-06-10_15h14.12.867,LearnStrategy,2023.2.3,MacIntel,59.52380952,2,1,3,-0.040852901,-0.014218085,1,0,0,1.2315,rock_grid_rect_2,4,14,-1,-1,1.232,0.119353267,-0.392287445,1,0,0,3.1936,Peridotite_rect,7,3.194,0,2,0,2,0,1,,,,,,,,,,,,
664a0c46ebbf1d6142d8695e,TCN,2024-06-10_15h14.12.867,LearnStrategy,2023.2.3,MacIntel,59.52380952,2,1,4,-0.137522834,-0.013372367,1,0,0,0.9808,rock_grid_rect_2,3,11,-1,-1,0.981,-0.37259091,-0.255800029,1,0,0,1.1262,Andesite_rect,1,1.126,0,3,0,3,0,1,,,,,,,,,,,,
664a0c46ebbf1d6142d8695e,TCN,2024-06-10_15h14.12.867,LearnStrategy,2023.2.3,MacIntel,59.52380952,2,1,5,-0.000648989,-0.015298789,1,0,0,1.165,rock_grid_rect_2,2,14,-1,-1,1.165,0.113173185,-0.234891837,1,0,0,0.8621,Diorite_rect,3,0.862,0,4,0,4,0,1,,,,,,,,,,,,
664a0c46ebbf1d6142d8695e,TCN,2024-06-10_15h14.12.867,LearnStrategy,2023.2.3,MacIntel,59.52380952,2,1,6,0.052060481,-0.007438333,1,0,0,1.0996,rock_grid_rect_2,5,05,-1,-1,1.1,-0.149871445,-0.396074786,1,0,0,0.8956,Pegmatite_rect,6,0.896,0,5,0,5,0,1,,,,,,,,,,,,
664a0c46ebbf1d6142d8695e,TCN,2024-06-10_15h14.12.867,LearnStrategy,2023.2.3,MacIntel,59.52380952,2,1,7,-0.118787493,-0.00327143,1,0,0,1.3314,rock_grid_rect_2,7,04,-1,-1,1.331,0.328241185,-0.390940748,1,0,0,2.1716,Pumice_rect,8,2.172,0,6,0,6,0,1,,,,,,,,,,,,
664a0c46ebbf1d6142d8695e,TCN,2024-06-10_15h14.12.867,LearnStrategy,2023.2.3,MacIntel,59.52380952,2,1,8,-0.031991196,-0.011553083,1,0,0,1.0827,rock_grid_rect_2,7,05,-1,-1,1.083,0.090731321,-0.244728688,1,0,0,0.8135,Diorite_rect,3,0.813,0,7,0,7,0,1,,,,,,,,,,,,
664a0c46ebbf1d6142d8695e,TCN,2024-06-10_15h14.12.867,LearnStrategy,2023.2.3,MacIntel,59.52380952,2,1,9,-0.128499113,-0.003988211,1,0,0,1.0162,rock_grid_rect_2,2,06,-1,-1,1.016,-0.203633881,-0.260644586,1,0,0,1.8863,Basalt_rect,2,1.886,1,8,0,8,0,1,,,,,,,,,,,,
664a0c46ebbf1d6142d8695e,TCN,2024-06-10_15h14.12.867,LearnStrategy,2023.2.3,MacIntel,59.52380952,2,1,10,0.003005436,0.005996922,1,0,0,1.0496,rock_grid_rect_2,3,15,-1,-1,1.05,0.352893284,-0.402015523,1,0,0,1.7033,Pumice_rect,8,1.703,0,9,0,9,0,1,,,,,,,,,,,,
664a0c46ebbf1d6142d8695e,TCN,2024-06-10_15h14.12.867,LearnStrategy,2023.2.3,MacIntel,59.52380952,2,1,11,-0.061086655,-0.002598899,1,0,0,0.8817,rock_grid_rect_2,1,04,-1,-1,0.882,-0.323635265,-0.384402084,1,0,0,1.3636,Obsidian_rect,5,1.364,0,10,0,10,0,1,,,,,,,,,,,,
664a0c46ebbf1d6142d8695e,TCN,2024-06-10_15h14.12.867,LearnStrategy,2023.2.3,MacIntel,59.52380952,2,1,12,-0.05208604,-0.01943234,1,0,0,2.3489,rock_grid_rect_2,8,09,-1,-1,2.349,0.167499978,-0.414115197,1,0,0,10.0655,Peridotite_rect,7,10.065,0,11,0,11,0,1,,,,,,,,,,,,
664a0c46ebbf1d6142d8695e,TCN,2024-06-10_15h14.12.867,LearnStrategy,2023.2.3,MacIntel,59.52380952,2,1,13,-0.067360197,0.003387669,1,0,0,0.8988,rock_grid_rect_2,1,03,-1,-1,0.899,-0.317764391,-0.26153559,1,0,0,1.6021,Andesite_rect,1,1.602,1,12,0,12,0,1,,,,,,,,,,,,
664a0c46ebbf1d6142d8695e,TCN,2024-06-10_15h14.12.867,LearnStrategy,2023.2.3,MacIntel,59.52380952,2,1,14,-0.144716917,-0.007526834,1,0,0,1.431,rock_grid_rect_2,6,15,-1,-1,1.431,-0.391883005,-0.235053526,1,0,0,1.2646,Andesite_rect,1,1.265,0,13,0,13,0,1,,,,,,,,,,,,
664a0c46ebbf1d6142d8695e,TCN,2024-06-10_15h14.12.867,LearnStrategy,2023.2.3,MacIntel,59.52380952,2,1,15,0.006007549,0.009808077,1,0,0,0.898,rock_grid_rect_2,5,16,-1,-1,0.898,0.138530404,-0.267840249,1,0,0,0.7487,Diorite_rect,3,0.749,0,14,0,14,0,1,,,,,,,,,,,,
664a0c46ebbf1d6142d8695e,TCN,2024-06-10_15h14.12.867,LearnStrategy,2023.2.3,MacIntel,59.52380952,2,1,16,-0.002578735,-0.010160664,1,0,0,0.9812,rock_grid_rect_2,4,05,-1,-1,0.981,0.166202981,-0.400552041,1,0,0,1.0889,Peridotite_rect,7,1.089,0,15,0,15,0,1,,,,,,,,,,,,
664a0c46ebbf1d6142d8695e,TCN,2024-06-10_15h14.12.867,LearnStrategy,2023.2.3,MacIntel,59.52380952,2,2,1,,,,,,,,6,12,,,,,,,,,,,6,4.151,1,,,,,,-0.09397207,-0.421751731,1,0,0,4.1509,Pegmatite_rect,0,0,0,0,1
664a0c46ebbf1d6142d8695e,TCN,2024-06-10_15h14.12.867,LearnStrategy,2023.2.3,MacIntel,59.52380952,2,2,2,,,,,,,,3,07,,,,,,,,,,,2,1.295,0,,,,,,-0.076683262,-0.239209638,1,0,0,1.2954,Basalt_rect,1,0,1,0,1
664a0c46ebbf1d6142d8695e,TCN,2024-06-10_15h14.12.867,LearnStrategy,2023.2.3,MacIntel,59.52380952,2,2,3,,,,,,,,1,07,,,,,,,,,,,3,0.319,0,,,,,,0.07929039,-0.261925016,1,0,0,0.3191,Diorite_rect,2,0,2,0,1
664a0c46ebbf1d6142d8695e,TCN,2024-06-10_15h14.12.867,LearnStrategy,2023.2.3,MacIntel,59.52380952,2,2,4,,,,,,,,2,09,,,,,,,,,,,8,0.745,0,,,,,,0.306263515,-0.387241473,1,0,0,0.7445,Pumice_rect,3,0,3,0,1
664a0c46ebbf1d6142d8695e,TCN,2024-06-10_15h14.12.867,LearnStrategy,2023.2.3,MacIntel,59.52380952,2,2,5,,,,,,,,7,12,,,,,,,,,,,7,0.174,1,,,,,,0.127505384,-0.393111311,1,0,0,0.174,Peridotite_rect,4,0,4,0,1
664a0c46ebbf1d6142d8695e,TCN,2024-06-10_15h14.12.867,LearnStrategy,2023.2.3,MacIntel,59.52380952,2,2,6,,,,,,,,3,12,,,,,,,,,,,1,0.734,0,,,,,,-0.359423528,-0.260317285,1,0,0,0.7338,Andesite_rect,5,0,5,0,1
664a0c46ebbf1d6142d8695e,TCN,2024-06-10_15h14.12.867,LearnStrategy,2023.2.3,MacIntel,59.52380952,2,2,7,,,,,,,,7,06,,,,,,,,,,,5,0.239,0,,,,,,-0.341755458,-0.390134266,1,0,0,0.2391,Obsidian_rect,6,0,6,0,1
664a0c46ebbf1d6142d8695e,TCN,2024-06-10_15h14.12.867,LearnStrategy,2023.2.3,MacIntel,59.52380952,2,2,8,,,,,,,,8,04,,,,,,,,,,,2,0.447,0,,,,,,-0.174096189,-0.254873657,1,0,0,0.4467,Basalt_rect,7,0,7,0,1
664a0c46ebbf1d6142d8695e,TCN,2024-06-10_15h14.12.867,LearnStrategy,2023.2.3,MacIntel,59.52380952,2,2,9,,,,,,,,6,06,,,,,,,,,,,3,0.065,0,,,,,,0.079759216,-0.259444373,1,0,0,0.0654,Diorite_rect,8,0,8,0,1
664a0c46ebbf1d6142d8695e,TCN,2024-06-10_15h14.12.867,LearnStrategy,2023.2.3,MacIntel,59.52380952,2,2,10,,,,,,,,4,16,,,,,,,,,,,7,0.184,0,,,,,,0.09137704,-0.380190931,1,0,0,0.1838,Peridotite_rect,9,0,9,0,1
664a0c46ebbf1d6142d8695e,TCN,2024-06-10_15h14.12.867,LearnStrategy,2023.2.3,MacIntel,59.52380952,2,2,11,,,,,,,,2,10,,,,,,,,,,,6,0.631,0,,,,,,-0.091700309,-0.401599666,1,0,0,0.6309,Pegmatite_rect,10,0,10,0,1
664a0c46ebbf1d6142d8695e,TCN,2024-06-10_15h14.12.867,LearnStrategy,2023.2.3,MacIntel,59.52380952,2,2,12,,,,,,,,1,16,,,,,,,,,,,1,23.885,1,,,,,,-0.360910743,-0.267702048,1,0,0,23.8847,Andesite_rect,11,0,11,0,1
664a0c46ebbf1d6142d8695e,TCN,2024-06-10_15h14.12.867,LearnStrategy,2023.2.3,MacIntel,59.52380952,2,2,13,,,,,,,,5,04,,,,,,,,,,,3,0.418,0,,,,,,0.108381544,-0.246350806,1,0,0,0.4176,Diorite_rect,12,0,12,0,1
664a0c46ebbf1d6142d8695e,TCN,2024-06-10_15h14.12.867,LearnStrategy,2023.2.3,MacIntel,59.52380952,2,2,14,,,,,,,,5,12,,,,,,,,,,,8,0.331,0,,,,,,0.349864088,-0.400268228,1,0,0,0.3311,Pumice_rect,13,0,13,0,1
664a0c46ebbf1d6142d8695e,TCN,2024-06-10_15h14.12.867,LearnStrategy,2023.2.3,MacIntel,59.52380952,2,2,15,,,,,,,,4,13,,,,,,,,,,,3,1.158,0,,,,,,0.121858869,-0.265182168,1,0,0,1.1581,Diorite_rect,14,0,14,0,1
664a0c46ebbf1d6142d8695e,TCN,2024-06-10_15h14.12.867,LearnStrategy,2023.2.3,MacIntel,59.52380952,2,2,16,,,,,,,,8,06,,,,,,,,,,,6,0.853,0,,,,,,-0.161527906,-0.412928608,1,0,0,0.8531,Pegmatite_rect,15,0,15,0,1
664a0c46ebbf1d6142d8695e,TCN,2024-06-10_15h14.12.867,LearnStrategy,2023.2.3,MacIntel,59.52380952,3,1,1,0.0240345,-0.019456373,1,0,0,2.9146,rock_grid_rect_2,2,04,-1,-1,2.915,0.188419887,-0.259156908,1,0,0,1.0359,Diorite_rect,3,1.036,0,0,0,0,0,1,,,,,,,,,,,,
664a0c46ebbf1d6142d8695e,TCN,2024-06-10_15h14.12.867,LearnStrategy,2023.2.3,MacIntel,59.52380952,3,1,2,0.069316374,-0.014220864,1,0,0,1.2162,rock_grid_rect_2,7,07,-1,-1,1.216,-0.157433101,-0.395351955,1,0,0,1.8593,Pegmatite_rect,6,1.859,0,1,0,1,0,1,,,,,,,,,,,,
664a0c46ebbf1d6142d8695e,TCN,2024-06-10_15h14.12.867,LearnStrategy,2023.2.3,MacIntel,59.52380952,3,1,3,0.058689226,-0.007226018,1,0,0,1.2316,rock_grid_rect_2,1,05,-1,-1,1.232,0.170731572,-0.404525103,1,0,0,1.1462,Peridotite_rect,7,1.146,0,2,0,2,0,1,,,,,,,,,,,,
664a0c46ebbf1d6142d8695e,TCN,2024-06-10_15h14.12.867,LearnStrategy,2023.2.3,MacIntel,59.52380952,3,1,4,-0.112981197,-0.024435261,1,0,0,1.3156,rock_grid_rect_2,6,05,-1,-1,1.316,-0.190093558,-0.270513971,1,0,0,1.6398,Basalt_rect,2,1.64,0,3,0,3,0,1,,,,,,,,,,,,
664a0c46ebbf1d6142d8695e,TCN,2024-06-10_15h14.12.867,LearnStrategy,2023.2.3,MacIntel,59.52380952,3,1,5,0.061192649,-0.017252895,1,0,0,1.7812,rock_grid_rect_2,6,08,-1,-1,1.781,0.376308768,-0.270403399,1,0,0,1.3626,Gabbro_rect,4,1.363,0,4,0,4,0,1,,,,,,,,,,,,
664a0c46ebbf1d6142d8695e,TCN,2024-06-10_15h14.12.867,LearnStrategy,2023.2.3,MacIntel,59.52380952,3,1,6,0.042444992,-0.014733069,1,0,0,1.0156,rock_grid_rect_2,8,02,-1,-1,1.016,0.455456979,-0.407441003,1,0,0,1.6554,Pumice_rect,8,1.655,1,5,0,5,0,1,,,,,,,,,,,,
664a0c46ebbf1d6142d8695e,TCN,2024-06-10_15h14.12.867,LearnStrategy,2023.2.3,MacIntel,59.52380952,3,1,7,0.070852661,0.005017744,1,0,0,1.364,rock_grid_rect_2,3,14,-1,-1,1.364,-0.370431791,-0.390425328,1,0,0,2.3972,Obsidian_rect,5,2.397,0,6,0,6,0,1,,,,,,,,,,,,
664a0c46ebbf1d6142d8695e,TCN,2024-06-10_15h14.12.867,LearnStrategy,2023.2.3,MacIntel,59.52380952,3,1,8,0.049726922,-0.00335786,1,0,0,1.1317,rock_grid_rect_2,1,06,-1,-1,1.132,-0.368206951,-0.250867299,1,0,0,2.3217,Andesite_rect,1,2.322,1,7,0,7,0,1,,,,,,,,,,,,
664a0c46ebbf1d6142d8695e,TCN,2024-06-10_15h14.12.867,LearnStrategy,2023.2.3,MacIntel,59.52380952,3,1,9,0.077863366,0.012131609,1,0,0,1.3658,rock_grid_rect_2,4,09,-1,-1,1.366,-0.085009221,-0.237727901,1,0,0,2.2208,Basalt_rect,2,2.221,0,8,0,8,0,1,,,,,,,,,,,,
664a0c46ebbf1d6142d8695e,TCN,2024-06-10_15h14.12.867,LearnStrategy,2023.2.3,MacIntel,59.52380952,3,1,10,0.109053911,0.003028979,1,0,0,0.9813,rock_grid_rect_2,7,13,-1,-1,0.981,0.081215886,-0.238755253,1,0,0,1.0365,Diorite_rect,3,1.036,0,9,0,9,0,1,,,,,,,,,,,,
664a0c46ebbf1d6142d8695e,TCN,2024-06-10_15h14.12.867,LearnStrategy,2023.2.3,MacIntel,59.52380952,3,1,11,0.039422171,-0.013469969,1,0,0,4.9328,rock_grid_rect_2,4,01,-1,-1,4.933,0.306838444,-0.255820956,1,0,0,1.3394,Gabbro_rect,4,1.339,1,10,0,10,0,1,,,,,,,,,,,,
664a0c46ebbf1d6142d8695e,TCN,2024-06-10_15h14.12.867,LearnStrategy,2023.2.3,MacIntel,59.52380952,3,1,12,0.098874392,-0.009981809,1,0,0,0.9655,rock_grid_rect_2,3,10,-1,-1,0.966,0.16118382,-0.264098195,1,0,0,0.6728,Diorite_rect,3,0.673,1,11,0,11,0,1,,,,,,,,,,,,
664a0c46ebbf1d6142d8695e,TCN,2024-06-10_15h14.12.867,LearnStrategy,2023.2.3,MacIntel,59.52380952,3,1,13,0.056674685,-0.024776132,1,0,0,0.8989,rock_grid_rect_2,2,11,-1,-1,0.899,0.111904362,-0.39757418,1,0,0,1.9219,Peridotite_rect,7,1.922,0,12,0,12,0,1,,,,,,,,,,,,
664a0c46ebbf1d6142d8695e,TCN,2024-06-10_15h14.12.867,LearnStrategy,2023.2.3,MacIntel,59.52380952,3,1,14,0.040593992,-0.008120837,1,0,0,0.9648,rock_grid_rect_2,5,11,-1,-1,0.965,-0.150801468,-0.260625512,1,0,0,4.0172,Basalt_rect,2,4.017,0,13,0,13,0,1,,,,,,,,,,,,
664a0c46ebbf1d6142d8695e,TCN,2024-06-10_15h14.12.867,LearnStrategy,2023.2.3,MacIntel,59.52380952,3,1,15,-0.005848203,0.001791436,1,0,0,0.8315,rock_grid_rect_2,8,16,-1,-1,0.832,0.386410631,-0.394256319,1,0,0,1.4763,Pumice_rect,8,1.476,1,14,0,14,0,1,,,,,,,,,,,,
664a0c46ebbf1d6142d8695e,TCN,2024-06-10_15h14.12.867,LearnStrategy,2023.2.3,MacIntel,59.52380952,3,1,16,-0.040073504,-0.01088453,1,0,0,0.7653,rock_grid_rect_2,5,08,-1,-1,0.765,0.185257285,-0.228290285,1,0,0,1.3516,Diorite_rect,3,1.352,0,15,0,15,0,1,,,,,,,,,,,,
664a0c46ebbf1d6142d8695e,TCN,2024-06-10_15h14.12.867,LearnStrategy,2023.2.3,MacIntel,59.52380952,3,2,1,,,,,,,,6,11,,,,,,,,,,,2,1.17,0,,,,,,-0.038712856,-0.25603496,1,0,0,1.1695,Basalt_rect,0,0,0,0,1
664a0c46ebbf1d6142d8695e,TCN,2024-06-10_15h14.12.867,LearnStrategy,2023.2.3,MacIntel,59.52380952,3,2,2,,,,,,,,4,15,,,,,,,,,,,1,0.545,0,,,,,,-0.325570079,-0.235577774,1,0,0,0.5454,Andesite_rect,1,0,1,0,1
664a0c46ebbf1d6142d8695e,TCN,2024-06-10_15h14.12.867,LearnStrategy,2023.2.3,MacIntel,59.52380952,3,2,3,,,,,,,,4,08,,,,,,,,,,,3,0.416,0,,,,,,0.140810503,-0.264281573,1,0,0,0.4156,Diorite_rect,2,0,2,0,1
664a0c46ebbf1d6142d8695e,TCN,2024-06-10_15h14.12.867,LearnStrategy,2023.2.3,MacIntel,59.52380952,3,2,4,,,,,,,,7,02,,,,,,,,,,,7,0.025,1,,,,,,0.132356044,-0.420145852,1,0,0,0.0248,Peridotite_rect,3,0,3,0,1
664a0c46ebbf1d6142d8695e,TCN,2024-06-10_15h14.12.867,LearnStrategy,2023.2.3,MacIntel,59.52380952,3,2,5,,,,,,,,2,12,,,,,,,,,,,5,2.078,0,,,,,,-0.344082887,-0.399125344,1,0,0,2.0785,Obsidian_rect,4,0,4,0,1
664a0c46ebbf1d6142d8695e,TCN,2024-06-10_15h14.12.867,LearnStrategy,2023.2.3,MacIntel,59.52380952,3,2,6,,,,,,,,1,02,,,,,,,,,,,8,0.861,0,,,,,,0.32109702,-0.382923399,1,0,0,0.8607,Pumice_rect,5,0,5,0,1
664a0c46ebbf1d6142d8695e,TCN,2024-06-10_15h14.12.867,LearnStrategy,2023.2.3,MacIntel,59.52380952,3,2,7,,,,,,,,3,02,,,,,,,,,,,2,1.064,0,,,,,,-0.11899583,-0.261940438,1,0,0,1.0637,Basalt_rect,6,0,6,0,1
664a0c46ebbf1d6142d8695e,TCN,2024-06-10_15h14.12.867,LearnStrategy,2023.2.3,MacIntel,59.52380952,3,2,8,,,,,,,,2,02,,,,,,,,,,,7,0.276,0,,,,,,0.136877768,-0.382023839,1,0,0,0.276,Peridotite_rect,7,0,7,0,1
664a0c46ebbf1d6142d8695e,TCN,2024-06-10_15h14.12.867,LearnStrategy,2023.2.3,MacIntel,59.52380952,3,2,9,,,,,,,,3,13,,,,,,,,,,,1,0.672,0,,,,,,-0.31355144,-0.252812467,1,0,0,0.6721,Andesite_rect,8,0,8,0,1
664a0c46ebbf1d6142d8695e,TCN,2024-06-10_15h14.12.867,LearnStrategy,2023.2.3,MacIntel,59.52380952,3,2,10,,,,,,,,8,14,,,,,,,,,,,8,1.748,1,,,,,,0.355419268,-0.383635276,1,0,0,1.7482,Pumice_rect,9,0,9,0,1
664a0c46ebbf1d6142d8695e,TCN,2024-06-10_15h14.12.867,LearnStrategy,2023.2.3,MacIntel,59.52380952,3,2,11,,,,,,,,5,06,,,,,,,,,,,5,2.24,1,,,,,,-0.343343435,-0.397414834,1,0,0,2.2402,Obsidian_rect,10,0,10,0,1
664a0c46ebbf1d6142d8695e,TCN,2024-06-10_15h14.12.867,LearnStrategy,2023.2.3,MacIntel,59.52380952,3,2,12,,,,,,,,6,16,,,,,,,,,,,4,2.011,0,,,,,,0.338643319,-0.256726456,1,0,0,2.0109,Gabbro_rect,11,0,11,0,1
664a0c46ebbf1d6142d8695e,TCN,2024-06-10_15h14.12.867,LearnStrategy,2023.2.3,MacIntel,59.52380952,3,2,13,,,,,,,,1,11,,,,,,,,,,,1,1.632,1,,,,,,-0.35579695,-0.270561818,1,0,0,1.6319,Andesite_rect,12,0,12,0,1
664a0c46ebbf1d6142d8695e,TCN,2024-06-10_15h14.12.867,LearnStrategy,2023.2.3,MacIntel,59.52380952,3,2,14,,,,,,,,8,10,,,,,,,,,,,8,1.743,1,,,,,,0.344957515,-0.384052113,1,0,0,1.7433,Pumice_rect,13,0,13,0,1
664a0c46ebbf1d6142d8695e,TCN,2024-06-10_15h14.12.867,LearnStrategy,2023.2.3,MacIntel,59.52380952,3,2,15,,,,,,,,7,10,,,,,,,,,,,3,1.341,0,,,,,,0.085998263,-0.247192274,1,0,0,1.3407,Diorite_rect,14,0,14,0,1
664a0c46ebbf1d6142d8695e,TCN,2024-06-10_15h14.12.867,LearnStrategy,2023.2.3,MacIntel,59.52380952,3,2,16,,,,,,,,5,02,,,,,,,,,,,2,1.651,0,,,,,,-0.071495383,-0.26466762,1,0,0,1.6511,Basalt_rect,15,0,15,0,1
664a0c46ebbf1d6142d8695e,TCN,2024-06-10_15h14.12.867,LearnStrategy,2023.2.3,MacIntel,59.52380952,4,1,1,0.056311417,-0.00816318,1,0,0,0.9486,rock_grid_rect_2,2,08,-1,-1,0.949,-0.195093809,-0.26202131,1,0,0,1.5937,Basalt_rect,2,1.594,1,0,0,0,0,1,,,,,,,,,,,,
664a0c46ebbf1d6142d8695e,TCN,2024-06-10_15h14.12.867,LearnStrategy,2023.2.3,MacIntel,59.52380952,4,1,2,0.023909651,0.000159618,1,0,0,0.9828,rock_grid_rect_2,1,03,-1,-1,0.983,0.113887078,-0.421340288,1,0,0,1.7723,Peridotite_rect,7,1.772,0,1,0,1,0,1,,,,,,,,,,,,
664a0c46ebbf1d6142d8695e,TCN,2024-06-10_15h14.12.867,LearnStrategy,2023.2.3,MacIntel,59.52380952,4,1,3,-0.001331329,-0.017090934,1,0,0,1.182,rock_grid_rect_2,5,11,-1,-1,1.182,0.414282227,-0.229143306,1,0,0,1.4215,Gabbro_rect,4,1.421,0,2,0,2,0,1,,,,,,,,,,,,
664a0c46ebbf1d6142d8695e,TCN,2024-06-10_15h14.12.867,LearnStrategy,2023.2.3,MacIntel,59.52380952,4,1,4,0.030583463,-0.001648767,1,0,0,1.3984,rock_grid_rect_2,6,08,-1,-1,1.398,-0.070006125,-0.248272705,1,0,0,0.9191,Basalt_rect,2,0.919,0,3,0,3,0,1,,,,,,,,,,,,
664a0c46ebbf1d6142d8695e,TCN,2024-06-10_15h14.12.867,LearnStrategy,2023.2.3,MacIntel,59.52380952,4,1,5,0.013253348,0.007244328,1,0,0,0.9484,rock_grid_rect_2,1,14,-1,-1,0.948,-0.363104902,-0.260556684,1,0,0,4.744,Andesite_rect,1,4.744,1,4,0,4,0,1,,,,,,,,,,,,
664a0c46ebbf1d6142d8695e,TCN,2024-06-10_15h14.12.867,LearnStrategy,2023.2.3,MacIntel,59.52380952,4,1,6,0.060115923,0.010425786,1,0,0,0.882,rock_grid_rect_2,5,14,-1,-1,0.882,-0.318109567,-0.394749669,1,0,0,1.564,Obsidian_rect,5,1.564,1,5,0,5,0,1,,,,,,,,,,,,
664a0c46ebbf1d6142d8695e,TCN,2024-06-10_15h14.12.867,LearnStrategy,2023.2.3,MacIntel,59.52380952,4,1,7,0.051866913,0.014400918,1,0,0,0.9982,rock_grid_rect_2,6,03,-1,-1,0.998,0.177473341,-0.25386467,1,0,0,1.4096,Diorite_rect,3,1.41,0,6,0,6,0,1,,,,,,,,,,,,
664a0c46ebbf1d6142d8695e,TCN,2024-06-10_15h14.12.867,LearnStrategy,2023.2.3,MacIntel,59.52380952,4,1,8,0.082851028,0.024073029,1,0,0,0.7655,rock_grid_rect_2,4,12,-1,-1,0.766,-0.332774135,-0.255878721,1,0,0,2.0468,Andesite_rect,1,2.047,0,7,0,7,0,1,,,,,,,,,,,,
664a0c46ebbf1d6142d8695e,TCN,2024-06-10_15h14.12.867,LearnStrategy,2023.2.3,MacIntel,59.52380952,4,1,9,0.051450511,-0.014029912,1,0,0,0.8659,rock_grid_rect_2,2,11,-1,-1,0.866,0.309738268,-0.397940227,1,0,0,1.1169,Pumice_rect,8,1.117,0,8,0,8,0,1,,,,,,,,,,,,
664a0c46ebbf1d6142d8695e,TCN,2024-06-10_15h14.12.867,LearnStrategy,2023.2.3,MacIntel,59.52380952,4,1,10,0.005100414,0.006620244,1,0,0,0.7819,rock_grid_rect_2,3,11,-1,-1,0.782,-0.076272746,-0.251125608,1,0,0,0.8411,Basalt_rect,2,0.841,0,9,0,9,0,1,,,,,,,,,,,,
664a0c46ebbf1d6142d8695e,TCN,2024-06-10_15h14.12.867,LearnStrategy,2023.2.3,MacIntel,59.52380952,4,1,11,-0.006434032,-0.009179905,1,0,0,1.1155,rock_grid_rect_2,3,14,-1,-1,1.115,-0.116174643,-0.407693154,1,0,0,1.0436,Pegmatite_rect,6,1.044,0,10,0,10,0,1,,,,,,,,,,,,
664a0c46ebbf1d6142d8695e,TCN,2024-06-10_15h14.12.867,LearnStrategy,2023.2.3,MacIntel,59.52380952,4,1,12,0.073628071,-0.020783561,1,0,0,1.3489,rock_grid_rect_2,7,13,-1,-1,1.349,0.127364131,-0.396705954,1,0,0,1.03,Peridotite_rect,7,1.03,1,11,0,11,0,1,,,,,,,,,,,,
664a0c46ebbf1d6142d8695e,TCN,2024-06-10_15h14.12.867,LearnStrategy,2023.2.3,MacIntel,59.52380952,4,1,13,0.104038783,-0.011164965,1,0,0,1.4822,rock_grid_rect_2,8,09,-1,-1,1.482,0.372801535,-0.408877781,1,0,0,1.4275,Pumice_rect,8,1.428,1,12,0,12,0,1,,,,,,,,,,,,
664a0c46ebbf1d6142d8695e,TCN,2024-06-10_15h14.12.867,LearnStrategy,2023.2.3,MacIntel,59.52380952,4,1,14,0.041121074,-0.012444196,1,0,0,1.1987,rock_grid_rect_2,4,05,-1,-1,1.199,-0.36364569,-0.268781553,1,0,0,1.3827,Andesite_rect,1,1.383,0,13,0,13,0,1,,,,,,,,,,,,
664a0c46ebbf1d6142d8695e,TCN,2024-06-10_15h14.12.867,LearnStrategy,2023.2.3,MacIntel,59.52380952,4,1,15,0.041457694,-0.006035396,1,0,0,1.0321,rock_grid_rect_2,7,07,-1,-1,1.032,-0.151178796,-0.392541831,1,0,0,1.4486,Pegmatite_rect,6,1.449,0,14,0,14,0,1,,,,,,,,,,,,
664a0c46ebbf1d6142d8695e,TCN,2024-06-10_15h14.12.867,LearnStrategy,2023.2.3,MacIntel,59.52380952,4,1,16,0.028470557,0.009575653,1,0,0,1.0479,rock_grid_rect_2,8,16,-1,-1,1.048,0.357729885,-0.4110969,1,0,0,1.248,Pumice_rect,8,1.248,1,15,0,15,0,1,,,,,,,,,,,,
664a0c46ebbf1d6142d8695e,TCN,2024-06-10_15h14.12.867,LearnStrategy,2023.2.3,MacIntel,59.52380952,4,2,1,,,,,,,,2,16,,,,,,,,,,,8,1.299,0,,,,,,0.39051263,-0.402743966,1,0,0,1.299,Pumice_rect,0,0,0,0,1
664a0c46ebbf1d6142d8695e,TCN,2024-06-10_15h14.12.867,LearnStrategy,2023.2.3,MacIntel,59.52380952,4,2,2,,,,,,,,7,12,,,,,,,,,,,7,1.919,1,,,,,,0.11721453,-0.408728082,1,0,0,1.9193,Peridotite_rect,1,0,1,0,1
664a0c46ebbf1d6142d8695e,TCN,2024-06-10_15h14.12.867,LearnStrategy,2023.2.3,MacIntel,59.52380952,4,2,3,,,,,,,,1,16,,,,,,,,,,,3,4.081,0,,,,,,0.059029988,-0.251024246,1,0,0,4.0805,Diorite_rect,2,0,2,0,1
664a0c46ebbf1d6142d8695e,TCN,2024-06-10_15h14.12.867,LearnStrategy,2023.2.3,MacIntel,59.52380952,4,2,4,,,,,,,,2,12,,,,,,,,,,,2,2.317,1,,,,,,-0.1585883,-0.252502605,1,0,0,2.3168,Basalt_rect,3,0,3,0,1
664a0c46ebbf1d6142d8695e,TCN,2024-06-10_15h14.12.867,LearnStrategy,2023.2.3,MacIntel,59.52380952,4,2,5,,,,,,,,5,02,,,,,,,,,,,5,1.299,1,,,,,,-0.384451539,-0.378806523,1,0,0,1.2992,Obsidian_rect,4,0,4,0,1
664a0c46ebbf1d6142d8695e,TCN,2024-06-10_15h14.12.867,LearnStrategy,2023.2.3,MacIntel,59.52380952,4,2,6,,,,,,,,4,16,,,,,,,,,,,1,1.788,0,,,,,,-0.358879634,-0.265856171,1,0,0,1.7881,Andesite_rect,5,0,5,0,1
664a0c46ebbf1d6142d8695e,TCN,2024-06-10_15h14.12.867,LearnStrategy,2023.2.3,MacIntel,59.52380952,4,2,7,,,,,,,,6,11,,,,,,,,,,,6,3.118,1,,,,,,-0.049073574,-0.406618772,1,0,0,3.1179,Pegmatite_rect,6,0,6,0,1
664a0c46ebbf1d6142d8695e,TCN,2024-06-10_15h14.12.867,LearnStrategy,2023.2.3,MacIntel,59.52380952,4,2,8,,,,,,,,6,09,,,,,,,,,,,4,0.97,0,,,,,,0.377887617,-0.269857625,1,0,0,0.9704,Gabbro_rect,7,0,7,0,1
664a0c46ebbf1d6142d8695e,TCN,2024-06-10_15h14.12.867,LearnStrategy,2023.2.3,MacIntel,59.52380952,4,2,9,,,,,,,,1,10,,,,,,,,,,,8,1.213,0,,,,,,0.36832428,-0.38901607,1,0,0,1.2126,Pumice_rect,8,0,8,0,1
664a0c46ebbf1d6142d8695e,TCN,2024-06-10_15h14.12.867,LearnStrategy,2023.2.3,MacIntel,59.52380952,4,2,10,,,,,,,,5,07,,,,,,,,,,,5,1.23,1,,,,,,-0.352037948,-0.41235515,1,0,0,1.23,Obsidian_rect,9,0,9,0,1
664a0c46ebbf1d6142d8695e,TCN,2024-06-10_15h14.12.867,LearnStrategy,2023.2.3,MacIntel,59.52380952,4,2,11,,,,,,,,4,10,,,,,,,,,,,2,1.423,0,,,,,,-0.137492371,-0.256674303,1,0,0,1.4233,Basalt_rect,10,0,10,0,1
664a0c46ebbf1d6142d8695e,TCN,2024-06-10_15h14.12.867,LearnStrategy,2023.2.3,MacIntel,59.52380952,4,2,12,,,,,,,,3,08,,,,,,,,,,,7,2.099,0,,,,,,0.043940026,-0.389221464,1,0,0,2.0992,Peridotite_rect,11,0,11,0,1
664a0c46ebbf1d6142d8695e,TCN,2024-06-10_15h14.12.867,LearnStrategy,2023.2.3,MacIntel,59.52380952,4,2,13,,,,,,,,8,06,,,,,,,,,,,8,1.121,1,,,,,,0.315367671,-0.379016658,1,0,0,1.1208,Pumice_rect,12,0,12,0,1
664a0c46ebbf1d6142d8695e,TCN,2024-06-10_15h14.12.867,LearnStrategy,2023.2.3,MacIntel,59.52380952,4,2,14,,,,,,,,7,08,,,,,,,,,,,1,1.662,0,,,,,,-0.358460781,-0.251895142,1,0,0,1.6623,Andesite_rect,13,0,13,0,1
664a0c46ebbf1d6142d8695e,TCN,2024-06-10_15h14.12.867,LearnStrategy,2023.2.3,MacIntel,59.52380952,4,2,15,,,,,,,,8,04,,,,,,,,,,,8,2.171,1,,,,,,0.351967185,-0.414903913,1,0,0,2.1714,Pumice_rect,14,0,14,0,1
664a0c46ebbf1d6142d8695e,TCN,2024-06-10_15h14.12.867,LearnStrategy,2023.2.3,MacIntel,59.52380952,4,2,16,,,,,,,,3,02,,,,,,,,,,,6,0.845,0,,,,,,-0.132343347,-0.412663106,1,0,0,0.8448,Pegmatite_rect,15,0,15,0,1
664a0c46ebbf1d6142d8695e,TCN,2024-06-10_15h14.12.867,LearnStrategy,2023.2.3,MacIntel,59.52380952,5,1,1,-0.003005491,0.007502311,1,0,0,0.9168,rock_grid_rect_2,1,04,-1,-1,0.917,0.316132028,-0.399430902,1,0,0,1.4829,Pumice_rect,8,1.483,0,0,0,0,0,1,,,,,,,,,,,,
664a0c46ebbf1d6142d8695e,TCN,2024-06-10_15h14.12.867,LearnStrategy,2023.2.3,MacIntel,59.52380952,5,1,2,0.07059288,-0.009410368,1,0,0,1.4326,rock_grid_rect_2,4,11,-1,-1,1.433,0.099285943,-0.239950235,1,0,0,3.1898,Diorite_rect,3,3.19,0,1,0,1,0,1,,,,,,,,,,,,
664a0c46ebbf1d6142d8695e,TCN,2024-06-10_15h14.12.867,LearnStrategy,2023.2.3,MacIntel,59.52380952,5,1,3,-0.038153839,-0.020383562,1,0,0,0.8483,rock_grid_rect_2,2,06,-1,-1,0.848,-0.182787323,-0.250799234,1,0,0,1.087,Basalt_rect,2,1.087,1,2,0,2,0,1,,,,,,,,,,,,
664a0c46ebbf1d6142d8695e,TCN,2024-06-10_15h14.12.867,LearnStrategy,2023.2.3,MacIntel,59.52380952,5,1,4,-0.060994611,-0.009149115,1,0,0,0.7813,rock_grid_rect_2,8,02,-1,-1,0.781,0.337343488,-0.411169761,1,0,0,2.0064,Pumice_rect,8,2.006,1,3,0,3,0,1,,,,,,,,,,,,
664a0c46ebbf1d6142d8695e,TCN,2024-06-10_15h14.12.867,LearnStrategy,2023.2.3,MacIntel,59.52380952,5,1,5,0.02888952,0.014768655,1,0,0,0.8979,rock_grid_rect_2,8,15,-1,-1,0.898,0.343955449,-0.405518777,1,0,0,2.1801,Pumice_rect,8,2.18,1,4,0,4,0,1,,,,,,,,,,,,
664a0c46ebbf1d6142d8695e,TCN,2024-06-10_15h14.12.867,LearnStrategy,2023.2.3,MacIntel,59.52380952,5,1,6,0.071604265,-0.004581015,1,0,0,0.9652,rock_grid_rect_2,4,09,-1,-1,0.965,-0.106287602,-0.261419242,1,0,0,1.7479,Basalt_rect,2,1.748,0,5,0,5,0,1,,,,,,,,,,,,
664a0c46ebbf1d6142d8695e,TCN,2024-06-10_15h14.12.867,LearnStrategy,2023.2.3,MacIntel,59.52380952,5,1,7,-0.002600316,-0.005490657,1,0,0,0.8825,rock_grid_rect_2,3,10,-1,-1,0.882,-0.360269737,-0.244918278,1,0,0,1.4918,Andesite_rect,1,1.492,0,6,0,6,0,1,,,,,,,,,,,,
664a0c46ebbf1d6142d8695e,TCN,2024-06-10_15h14.12.867,LearnStrategy,2023.2.3,MacIntel,59.52380952,5,1,8,0.05120648,0.002143969,1,0,0,0.8987,rock_grid_rect_2,2,14,-1,-1,0.899,0.341206905,-0.390785653,1,0,0,1.3477,Pumice_rect,8,1.348,0,7,0,7,0,1,,,,,,,,,,,,
664a0c46ebbf1d6142d8695e,TCN,2024-06-10_15h14.12.867,LearnStrategy,2023.2.3,MacIntel,59.52380952,5,1,9,0.01511988,-0.001554544,1,0,0,0.7495,rock_grid_rect_2,6,13,-1,-1,0.75,0.317339434,-0.249359785,1,0,0,1.5035,Gabbro_rect,4,1.504,0,8,0,8,0,1,,,,,,,,,,,,
664a0c46ebbf1d6142d8695e,TCN,2024-06-10_15h14.12.867,LearnStrategy,2023.2.3,MacIntel,59.52380952,5,1,10,0.047810091,0.016795676,1,0,0,0.8327,rock_grid_rect_2,3,15,-1,-1,0.833,-0.15541202,-0.247431455,1,0,0,0.8373,Basalt_rect,2,0.837,0,9,0,9,0,1,,,,,,,,,,,,
664a0c46ebbf1d6142d8695e,TCN,2024-06-10_15h14.12.867,LearnStrategy,2023.2.3,MacIntel,59.52380952,5,1,11,0.003809956,0.015334429,1,0,0,0.8834,rock_grid_rect_2,7,05,-1,-1,0.883,-0.106167439,-0.403863362,1,0,0,1.2631,Pegmatite_rect,6,1.263,0,10,0,10,0,1,,,,,,,,,,,,
664a0c46ebbf1d6142d8695e,TCN,2024-06-10_15h14.12.867,LearnStrategy,2023.2.3,MacIntel,59.52380952,5,1,12,-0.012078367,-0.016521617,1,0,0,0.8814,rock_grid_rect_2,7,04,-1,-1,0.881,-0.365860885,-0.401845605,1,0,0,1.2814,Obsidian_rect,5,1.281,0,11,0,11,0,1,,,,,,,,,,,,
664a0c46ebbf1d6142d8695e,TCN,2024-06-10_15h14.12.867,LearnStrategy,2023.2.3,MacIntel,59.52380952,5,1,13,0.049049432,-0.00099569,1,0,0,0.8154,rock_grid_rect_2,5,09,-1,-1,0.815,-0.370050131,-0.394402204,1,0,0,1.6834,Obsidian_rect,5,1.683,1,12,0,12,0,1,,,,,,,,,,,,
664a0c46ebbf1d6142d8695e,TCN,2024-06-10_15h14.12.867,LearnStrategy,2023.2.3,MacIntel,59.52380952,5,1,14,-0.049774224,0.015541513,1,0,0,0.8147,rock_grid_rect_2,5,08,-1,-1,0.815,-0.335726547,-0.382950647,1,0,0,1.2962,Obsidian_rect,5,1.296,1,13,0,13,0,1,,,,,,,,,,,,
664a0c46ebbf1d6142d8695e,TCN,2024-06-10_15h14.12.867,LearnStrategy,2023.2.3,MacIntel,59.52380952,5,1,15,-0.029633822,-0.004604503,1,0,0,0.8322,rock_grid_rect_2,1,05,-1,-1,0.832,0.133524214,-0.236149052,1,0,0,0.9687,Diorite_rect,3,0.969,0,14,0,14,0,1,,,,,,,,,,,,
664a0c46ebbf1d6142d8695e,TCN,2024-06-10_15h14.12.867,LearnStrategy,2023.2.3,MacIntel,59.52380952,5,1,16,-0.007812718,-0.00552597,1,0,0,0.8819,rock_grid_rect_2,6,10,-1,-1,0.882,0.027630615,-0.415407126,1,0,0,1.9377,Peridotite_rect,7,1.938,0,15,0,15,0,1,,,,,,,,,,,,
664a0c46ebbf1d6142d8695e,TCN,2024-06-10_15h14.12.867,LearnStrategy,2023.2.3,MacIntel,59.52380952,5,2,1,,,,,,,,6,16,,,,,,,,,,,6,4.384,1,,,,,,-0.133012445,-0.401240158,1,0,0,4.3836,Pegmatite_rect,0,0,0,0,1
664a0c46ebbf1d6142d8695e,TCN,2024-06-10_15h14.12.867,LearnStrategy,2023.2.3,MacIntel,59.52380952,5,2,2,,,,,,,,3,13,,,,,,,,,,,7,1.24,0,,,,,,0.064512961,-0.403216117,1,0,0,1.2398,Peridotite_rect,1,0,1,0,1
664a0c46ebbf1d6142d8695e,TCN,2024-06-10_15h14.12.867,LearnStrategy,2023.2.3,MacIntel,59.52380952,5,2,3,,,,,,,,5,12,,,,,,,,,,,5,1.394,1,,,,,,-0.349313082,-0.405079051,1,0,0,1.3944,Obsidian_rect,2,0,2,0,1
664a0c46ebbf1d6142d8695e,TCN,2024-06-10_15h14.12.867,LearnStrategy,2023.2.3,MacIntel,59.52380952,5,2,4,,,,,,,,2,10,,,,,,,,,,,2,1.178,1,,,,,,-0.168487712,-0.246626118,1,0,0,1.1777,Basalt_rect,3,0,3,0,1
664a0c46ebbf1d6142d8695e,TCN,2024-06-10_15h14.12.867,LearnStrategy,2023.2.3,MacIntel,59.52380952,5,2,5,,,,,,,,2,09,,,,,,,,,,,2,0.871,1,,,,,,-0.108672224,-0.261028181,1,0,0,0.8709,Basalt_rect,4,0,4,0,1
664a0c46ebbf1d6142d8695e,TCN,2024-06-10_15h14.12.867,LearnStrategy,2023.2.3,MacIntel,59.52380952,5,2,6,,,,,,,,4,15,,,,,,,,,,,4,1.372,1,,,,,,0.355598014,-0.257059043,1,0,0,1.3724,Gabbro_rect,5,0,5,0,1
664a0c46ebbf1d6142d8695e,TCN,2024-06-10_15h14.12.867,LearnStrategy,2023.2.3,MacIntel,59.52380952,5,2,7,,,,,,,,1,07,,,,,,,,,,,7,1.456,0,,,,,,0.077368927,-0.395293263,1,0,0,1.4564,Peridotite_rect,6,0,6,0,1
664a0c46ebbf1d6142d8695e,TCN,2024-06-10_15h14.12.867,LearnStrategy,2023.2.3,MacIntel,59.52380952,5,2,8,,,,,,,,5,04,,,,,,,,,,,5,2.432,1,,,,,,-0.309045519,-0.386235373,1,0,0,2.4316,Obsidian_rect,7,0,7,0,1
664a0c46ebbf1d6142d8695e,TCN,2024-06-10_15h14.12.867,LearnStrategy,2023.2.3,MacIntel,59.52380952,5,2,9,,,,,,,,6,07,,,,,,,,,,,1,0.801,0,,,,,,-0.342578506,-0.251510021,1,0,0,0.8014,Andesite_rect,8,0,8,0,1
664a0c46ebbf1d6142d8695e,TCN,2024-06-10_15h14.12.867,LearnStrategy,2023.2.3,MacIntel,59.52380952,5,2,10,,,,,,,,7,10,,,,,,,,,,,7,0.825,1,,,,,,0.151324899,-0.389545713,1,0,0,0.8246,Peridotite_rect,9,0,9,0,1
664a0c46ebbf1d6142d8695e,TCN,2024-06-10_15h14.12.867,LearnStrategy,2023.2.3,MacIntel,59.52380952,5,2,11,,,,,,,,8,05,,,,,,,,,,,8,1.291,1,,,,,,0.360272544,-0.399187905,1,0,0,1.2906,Pumice_rect,10,0,10,0,1
664a0c46ebbf1d6142d8695e,TCN,2024-06-10_15h14.12.867,LearnStrategy,2023.2.3,MacIntel,59.52380952,5,2,12,,,,,,,,1,01,,,,,,,,,,,2,1.159,0,,,,,,-0.123539952,-0.245160239,1,0,0,1.1588,Basalt_rect,11,0,11,0,1
664a0c46ebbf1d6142d8695e,TCN,2024-06-10_15h14.12.867,LearnStrategy,2023.2.3,MacIntel,59.52380952,5,2,13,,,,,,,,3,07,,,,,,,,,,,3,0.795,1,,,,,,0.070194299,-0.236582075,1,0,0,0.7954,Diorite_rect,12,0,12,0,1
664a0c46ebbf1d6142d8695e,TCN,2024-06-10_15h14.12.867,LearnStrategy,2023.2.3,MacIntel,59.52380952,5,2,14,,,,,,,,7,02,,,,,,,,,,,7,1.635,1,,,,,,0.152213614,-0.416909681,1,0,0,1.6354,Peridotite_rect,13,0,13,0,1
664a0c46ebbf1d6142d8695e,TCN,2024-06-10_15h14.12.867,LearnStrategy,2023.2.3,MacIntel,59.52380952,5,2,15,,,,,,,,4,03,,,,,,,,,,,6,0.82,0,,,,,,-0.025122288,-0.415452249,1,0,0,0.8203,Pegmatite_rect,14,0,14,0,1
664a0c46ebbf1d6142d8695e,TCN,2024-06-10_15h14.12.867,LearnStrategy,2023.2.3,MacIntel,59.52380952,5,2,16,,,,,,,,8,03,,,,,,,,,,,8,2.273,1,,,,,,0.376651219,-0.397570092,1,0,0,2.2735,Pumice_rect,15,0,15,0,1
664a0c46ebbf1d6142d8695e,TCN,2024-06-10_15h14.12.867,LearnStrategy,2023.2.3,MacIntel,59.52380952,6,1,1,-0.049514226,0.005627768,1,0,0,2.0157,rock_grid_rect_2,8,08,-1,-1,2.016,0.321016693,-0.396658325,1,0,0,1.4255,Pumice_rect,8,1.425,1,0,0,0,0,1,,,,,,,,,,,,
664a0c46ebbf1d6142d8695e,TCN,2024-06-10_15h14.12.867,LearnStrategy,2023.2.3,MacIntel,59.52380952,6,1,2,0.082080569,-0.016248213,1,0,0,4.6156,rock_grid_rect_2,6,05,-1,-1,4.616,-0.35976399,-0.402139064,1,0,0,1.8794,Obsidian_rect,5,1.879,0,1,0,1,0,1,,,,,,,,,,,,
664a0c46ebbf1d6142d8695e,TCN,2024-06-10_15h14.12.867,LearnStrategy,2023.2.3,MacIntel,59.52380952,6,1,3,-0.101433509,0.006718881,1,0,0,1.0154,rock_grid_rect_2,8,13,-1,-1,1.015,0.31824755,-0.266586958,1,0,0,19.4303,Gabbro_rect,4,19.43,0,2,0,2,0,1,,,,,,,,,,,,
664a0c46ebbf1d6142d8695e,TCN,2024-06-10_15h14.12.867,LearnStrategy,2023.2.3,MacIntel,59.52380952,6,1,4,0.049597059,0.016044072,1,0,0,1.1316,rock_grid_rect_2,2,04,-1,-1,1.132,-0.113100324,-0.267659051,1,0,0,1.0471,Basalt_rect,2,1.047,1,3,0,3,0,1,,,,,,,,,,,,
664a0c46ebbf1d6142d8695e,TCN,2024-06-10_15h14.12.867,LearnStrategy,2023.2.3,MacIntel,59.52380952,6,1,5,-0.075807353,0.007004983,1,0,0,1.3153,rock_grid_rect_2,3,06,-1,-1,1.315,-0.401673835,-0.261129761,1,0,0,1.5935,Andesite_rect,1,1.593,0,4,0,4,0,1,,,,,,,,,,,,
664a0c46ebbf1d6142d8695e,TCN,2024-06-10_15h14.12.867,LearnStrategy,2023.2.3,MacIntel,59.52380952,6,1,6,-0.007688468,0.022502245,1,0,0,1.3653,rock_grid_rect_2,7,14,-1,-1,1.365,0.130242702,-0.388451603,1,0,0,1.079,Peridotite_rect,7,1.079,1,5,0,5,0,1,,,,,,,,,,,,
664a0c46ebbf1d6142d8695e,TCN,2024-06-10_15h14.12.867,LearnStrategy,2023.2.3,MacIntel,59.52380952,6,1,7,0.013836179,-0.021940068,1,0,0,1.0496,rock_grid_rect_2,5,05,-1,-1,1.05,-0.356929043,-0.4092053,1,0,0,1.3982,Obsidian_rect,5,1.398,1,6,0,6,0,1,,,,,,,,,,,,
664a0c46ebbf1d6142d8695e,TCN,2024-06-10_15h14.12.867,LearnStrategy,2023.2.3,MacIntel,59.52380952,6,1,8,-0.014283371,-0.001684298,1,0,0,0.9659,rock_grid_rect_2,7,16,-1,-1,0.966,0.102832086,-0.404553332,1,0,0,1.0818,Peridotite_rect,7,1.082,1,7,0,7,0,1,,,,,,,,,,,,
664a0c46ebbf1d6142d8695e,TCN,2024-06-10_15h14.12.867,LearnStrategy,2023.2.3,MacIntel,59.52380952,6,1,9,-0.038537053,-0.022911126,1,0,0,1.0325,rock_grid_rect_2,1,06,-1,-1,1.033,-0.061654663,-0.394759696,1,0,0,1.213,Pegmatite_rect,6,1.213,0,8,0,8,0,1,,,,,,,,,,,,
664a0c46ebbf1d6142d8695e,TCN,2024-06-10_15h14.12.867,LearnStrategy,2023.2.3,MacIntel,59.52380952,6,1,10,0.010986928,0.00387655,1,0,0,0.9323,rock_grid_rect_2,4,14,-1,-1,0.932,0.33038766,-0.257121222,1,0,0,2.029,Gabbro_rect,4,2.029,1,9,0,9,0,1,,,,,,,,,,,,
664a0c46ebbf1d6142d8695e,TCN,2024-06-10_15h14.12.867,LearnStrategy,2023.2.3,MacIntel,59.52380952,6,1,11,-0.011221586,-0.015591267,1,0,0,0.9814,rock_grid_rect_2,1,09,-1,-1,0.981,-0.11925512,-0.40346914,1,0,0,1.4182,Pegmatite_rect,6,1.418,0,10,0,10,0,1,,,,,,,,,,,,
664a0c46ebbf1d6142d8695e,TCN,2024-06-10_15h14.12.867,LearnStrategy,2023.2.3,MacIntel,59.52380952,6,1,12,-0.083603941,-0.001462773,1,0,0,0.8483,rock_grid_rect_2,3,09,-1,-1,0.848,-0.091911261,-0.412562289,1,0,0,1.395,Pegmatite_rect,6,1.395,0,11,0,11,0,1,,,,,,,,,,,,
664a0c46ebbf1d6142d8695e,TCN,2024-06-10_15h14.12.867,LearnStrategy,2023.2.3,MacIntel,59.52380952,6,1,13,0.026509912,-0.004003416,1,0,0,1.3825,rock_grid_rect_2,4,01,-1,-1,1.383,0.047402191,-0.267832947,1,0,0,1.1809,Diorite_rect,3,1.181,0,12,0,12,0,1,,,,,,,,,,,,
664a0c46ebbf1d6142d8695e,TCN,2024-06-10_15h14.12.867,LearnStrategy,2023.2.3,MacIntel,59.52380952,6,1,14,0.002325657,-0.01993806,1,0,0,1.0324,rock_grid_rect_2,2,01,-1,-1,1.032,-0.094361823,-0.253871318,1,0,0,1.0533,Basalt_rect,2,1.053,1,13,0,13,0,1,,,,,,,,,,,,
664a0c46ebbf1d6142d8695e,TCN,2024-06-10_15h14.12.867,LearnStrategy,2023.2.3,MacIntel,59.52380952,6,1,15,-0.008802632,-0.012693187,1,0,0,0.8824,rock_grid_rect_2,5,16,-1,-1,0.882,-0.372123092,-0.3793687,1,0,0,1.1769,Obsidian_rect,5,1.177,1,14,0,14,0,1,,,,,,,,,,,,
664a0c46ebbf1d6142d8695e,TCN,2024-06-10_15h14.12.867,LearnStrategy,2023.2.3,MacIntel,59.52380952,6,1,16,-0.064664895,0.006353269,1,0,0,0.9485,rock_grid_rect_2,6,15,-1,-1,0.948,-0.092235347,-0.385002572,1,0,0,1.9154,Pegmatite_rect,6,1.915,1,15,0,15,0,1,,,,,,,,,,,,
664a0c46ebbf1d6142d8695e,TCN,2024-06-10_15h14.12.867,LearnStrategy,2023.2.3,MacIntel,59.52380952,6,2,1,,,,,,,,5,10,,,,,,,,,,,5,1.377,1,,,,,,-0.314805058,-0.403207125,1,0,0,1.3771,Obsidian_rect,0,0,0,0,1
664a0c46ebbf1d6142d8695e,TCN,2024-06-10_15h14.12.867,LearnStrategy,2023.2.3,MacIntel,59.52380952,6,2,2,,,,,,,,4,13,,,,,,,,,,,4,4.353,1,,,,,,0.373328945,-0.250892258,1,0,0,4.353,Gabbro_rect,1,0,1,0,1
664a0c46ebbf1d6142d8695e,TCN,2024-06-10_15h14.12.867,LearnStrategy,2023.2.3,MacIntel,59.52380952,6,2,3,,,,,,,,2,05,,,,,,,,,,,2,1.701,1,,,,,,-0.149086053,-0.264661189,1,0,0,1.7013,Basalt_rect,2,0,2,0,1
664a0c46ebbf1d6142d8695e,TCN,2024-06-10_15h14.12.867,LearnStrategy,2023.2.3,MacIntel,59.52380952,6,2,4,,,,,,,,7,06,,,,,,,,,,,7,1.88,1,,,,,,0.096288845,-0.405209732,1,0,0,1.8801,Peridotite_rect,3,0,3,0,1
664a0c46ebbf1d6142d8695e,TCN,2024-06-10_15h14.12.867,LearnStrategy,2023.2.3,MacIntel,59.52380952,6,2,5,,,,,,,,6,12,,,,,,,,,,,6,2.845,1,,,,,,-0.20119945,-0.379883357,1,0,0,2.8446,Pegmatite_rect,4,0,4,0,1
664a0c46ebbf1d6142d8695e,TCN,2024-06-10_15h14.12.867,LearnStrategy,2023.2.3,MacIntel,59.52380952,6,2,6,,,,,,,,2,02,,,,,,,,,,,2,1.207,1,,,,,,-0.129752513,-0.267793219,1,0,0,1.2067,Basalt_rect,5,0,5,0,1
664a0c46ebbf1d6142d8695e,TCN,2024-06-10_15h14.12.867,LearnStrategy,2023.2.3,MacIntel,59.52380952,6,2,7,,,,,,,,8,10,,,,,,,,,,,8,1.276,1,,,,,,0.341246142,-0.394369398,1,0,0,1.2762,Pumice_rect,6,0,6,0,1
664a0c46ebbf1d6142d8695e,TCN,2024-06-10_15h14.12.867,LearnStrategy,2023.2.3,MacIntel,59.52380952,6,2,8,,,,,,,,5,06,,,,,,,,,,,5,1.846,1,,,,,,-0.375336375,-0.401830891,1,0,0,1.8457,Obsidian_rect,7,0,7,0,1
664a0c46ebbf1d6142d8695e,TCN,2024-06-10_15h14.12.867,LearnStrategy,2023.2.3,MacIntel,59.52380952,6,2,9,,,,,,,,3,16,,,,,,,,,,,1,1.657,0,,,,,,-0.379999025,-0.248503494,1,0,0,1.6572,Andesite_rect,8,0,8,0,1
664a0c46ebbf1d6142d8695e,TCN,2024-06-10_15h14.12.867,LearnStrategy,2023.2.3,MacIntel,59.52380952,6,2,10,,,,,,,,6,06,,,,,,,,,,,7,1.72,0,,,,,,0.060019302,-0.390990012,1,0,0,1.7202,Peridotite_rect,9,0,9,0,1
664a0c46ebbf1d6142d8695e,TCN,2024-06-10_15h14.12.867,LearnStrategy,2023.2.3,MacIntel,59.52380952,6,2,11,,,,,,,,8,14,,,,,,,,,,,8,1.128,1,,,,,,0.353313446,-0.390411213,1,0,0,1.1284,Pumice_rect,10,0,10,0,1
664a0c46ebbf1d6142d8695e,TCN,2024-06-10_15h14.12.867,LearnStrategy,2023.2.3,MacIntel,59.52380952,6,2,12,,,,,,,,3,12,,,,,,,,,,,7,1.898,0,,,,,,0.05796596,-0.405775561,1,0,0,1.8975,Peridotite_rect,11,0,11,0,1
664a0c46ebbf1d6142d8695e,TCN,2024-06-10_15h14.12.867,LearnStrategy,2023.2.3,MacIntel,59.52380952,6,2,13,,,,,,,,1,11,,,,,,,,,,,4,1.914,0,,,,,,0.344309562,-0.239875412,1,0,0,1.9145,Gabbro_rect,12,0,12,0,1
664a0c46ebbf1d6142d8695e,TCN,2024-06-10_15h14.12.867,LearnStrategy,2023.2.3,MacIntel,59.52380952,6,2,14,,,,,,,,1,02,,,,,,,,,,,4,1.363,0,,,,,,0.317398398,-0.240464183,1,0,0,1.363,Gabbro_rect,13,0,13,0,1
664a0c46ebbf1d6142d8695e,TCN,2024-06-10_15h14.12.867,LearnStrategy,2023.2.3,MacIntel,59.52380952,6,2,15,,,,,,,,7,15,,,,,,,,,,,7,1.703,1,,,,,,0.075967789,-0.412934494,1,0,0,1.7032,Peridotite_rect,14,0,14,0,1
664a0c46ebbf1d6142d8695e,TCN,2024-06-10_15h14.12.867,LearnStrategy,2023.2.3,MacIntel,59.52380952,6,2,16,,,,,,,,4,08,,,,,,,,,,,6,2.543,0,,,,,,-0.092332241,-0.409595054,1,0,0,2.5428,Pegmatite_rect,15,0,15,0,1
664a0c46ebbf1d6142d8695e,TCN,2024-06-10_15h14.12.867,LearnStrategy,2023.2.3,MacIntel,59.52380952,7,1,1,-0.007133375,-0.000268718,1,0,0,2.6153,rock_grid_rect_2,2,08,-1,-1,2.615,-0.126201194,-0.241125924,1,0,0,2.9185,Basalt_rect,2,2.918,1,0,0,0,0,1,,,,,,,,,,,,
664a0c46ebbf1d6142d8695e,TCN,2024-06-10_15h14.12.867,LearnStrategy,2023.2.3,MacIntel,59.52380952,7,1,2,-0.10103351,-0.002674103,1,0,0,3.1665,rock_grid_rect_2,8,08,-1,-1,3.166,0.390464129,-0.413292095,1,0,0,1.3508,Pumice_rect,8,1.351,1,1,0,1,0,1,,,,,,,,,,,,
664a0c46ebbf1d6142d8695e,TCN,2024-06-10_15h14.12.867,LearnStrategy,2023.2.3,MacIntel,59.52380952,7,1,3,0.015644182,-0.010428292,1,0,0,1.032,rock_grid_rect_2,6,15,-1,-1,1.032,-0.196620233,-0.247640501,1,0,0,1.1033,Basalt_rect,2,1.103,0,2,0,2,0,1,,,,,,,,,,,,
664a0c46ebbf1d6142d8695e,TCN,2024-06-10_15h14.12.867,LearnStrategy,2023.2.3,MacIntel,59.52380952,7,1,4,-0.121260997,0.018571799,1,0,0,0.9997,rock_grid_rect_2,6,08,-1,-1,1,-0.221908515,-0.384330859,1,0,0,1.8135,Pegmatite_rect,6,1.813,1,3,0,3,0,1,,,,,,,,,,,,
664a0c46ebbf1d6142d8695e,TCN,2024-06-10_15h14.12.867,LearnStrategy,2023.2.3,MacIntel,59.52380952,7,1,5,-0.041723742,-0.006684766,1,0,0,1.1153,rock_grid_rect_2,4,11,-1,-1,1.115,-0.308014679,-0.258447266,1,0,0,1.2315,Andesite_rect,1,1.231,0,4,0,4,0,1,,,,,,,,,,,,
664a0c46ebbf1d6142d8695e,TCN,2024-06-10_15h14.12.867,LearnStrategy,2023.2.3,MacIntel,59.52380952,7,1,6,-0.031417356,-0.009012113,1,0,0,0.899,rock_grid_rect_2,7,04,-1,-1,0.899,0.138163103,-0.405090931,1,0,0,1.3414,Peridotite_rect,7,1.341,1,5,0,5,0,1,,,,,,,,,,,,
664a0c46ebbf1d6142d8695e,TCN,2024-06-10_15h14.12.867,LearnStrategy,2023.2.3,MacIntel,59.52380952,7,1,7,-0.071278981,-0.001200485,1,0,0,0.7324,rock_grid_rect_2,7,14,-1,-1,0.732,0.157939911,-0.38228144,1,0,0,1.147,Peridotite_rect,7,1.147,1,6,0,6,0,1,,,,,,,,,,,,
664a0c46ebbf1d6142d8695e,TCN,2024-06-10_15h14.12.867,LearnStrategy,2023.2.3,MacIntel,59.52380952,7,1,8,-0.15342271,-0.00463404,1,0,0,0.9644,rock_grid_rect_2,5,08,-1,-1,0.964,-0.362699781,-0.408325468,1,0,0,1.1288,Obsidian_rect,5,1.129,1,7,0,7,0,1,,,,,,,,,,,,
664a0c46ebbf1d6142d8695e,TCN,2024-06-10_15h14.12.867,LearnStrategy,2023.2.3,MacIntel,59.52380952,7,1,9,-0.07741394,-0.02147631,1,0,0,0.9151,rock_grid_rect_2,5,14,-1,-1,0.915,-0.295157078,-0.387536131,1,0,0,1.1577,Obsidian_rect,5,1.158,1,8,0,8,0,1,,,,,,,,,,,,
664a0c46ebbf1d6142d8695e,TCN,2024-06-10_15h14.12.867,LearnStrategy,2023.2.3,MacIntel,59.52380952,7,1,10,-0.047200339,0.012456785,1,0,0,0.8489,rock_grid_rect_2,3,15,-1,-1,0.849,0.386428724,-0.385984257,1,0,0,1.208,Pumice_rect,8,1.208,0,9,0,9,0,1,,,,,,,,,,,,
664a0c46ebbf1d6142d8695e,TCN,2024-06-10_15h14.12.867,LearnStrategy,2023.2.3,MacIntel,59.52380952,7,1,11,-0.095144163,-0.013713346,1,0,0,0.8153,rock_grid_rect_2,1,03,-1,-1,0.815,-0.32966641,-0.248278863,1,0,0,1.2295,Andesite_rect,1,1.23,1,10,0,10,0,1,,,,,,,,,,,,
664a0c46ebbf1d6142d8695e,TCN,2024-06-10_15h14.12.867,LearnStrategy,2023.2.3,MacIntel,59.52380952,7,1,12,-0.137519727,0.014925929,1,0,0,1.1156,rock_grid_rect_2,3,09,-1,-1,1.116,-0.155100414,-0.420409284,1,0,0,1.1248,Pegmatite_rect,6,1.125,0,11,0,11,0,1,,,,,,,,,,,,
664a0c46ebbf1d6142d8695e,TCN,2024-06-10_15h14.12.867,LearnStrategy,2023.2.3,MacIntel,59.52380952,7,1,13,0.050270081,-0.003857749,1,0,0,1.2997,rock_grid_rect_2,2,11,-1,-1,1.3,0.094813156,-0.247713525,1,0,0,0.896,Diorite_rect,3,0.896,0,12,0,12,0,1,,,,,,,,,,,,
664a0c46ebbf1d6142d8695e,TCN,2024-06-10_15h14.12.867,LearnStrategy,2023.2.3,MacIntel,59.52380952,7,1,14,-0.124888011,-0.020732989,1,0,0,0.9155,rock_grid_rect_2,1,04,-1,-1,0.915,0.342390333,-0.39405474,1,0,0,1.2446,Pumice_rect,8,1.245,0,13,0,13,0,1,,,,,,,,,,,,
664a0c46ebbf1d6142d8695e,TCN,2024-06-10_15h14.12.867,LearnStrategy,2023.2.3,MacIntel,59.52380952,7,1,15,-0.123707908,-0.012303053,1,0,0,0.8656,rock_grid_rect_2,8,16,-1,-1,0.866,0.365650831,-0.40267977,1,0,0,2.0343,Pumice_rect,8,2.034,1,14,0,14,0,1,,,,,,,,,,,,
664a0c46ebbf1d6142d8695e,TCN,2024-06-10_15h14.12.867,LearnStrategy,2023.2.3,MacIntel,59.52380952,7,1,16,0.058895002,-0.02413172,1,0,0,1.2497,rock_grid_rect_2,4,09,-1,-1,1.25,-0.17633073,-0.261316844,1,0,0,3.2932,Basalt_rect,2,3.293,0,15,0,15,0,1,,,,,,,,,,,,
664a0c46ebbf1d6142d8695e,TCN,2024-06-10_15h14.12.867,LearnStrategy,2023.2.3,MacIntel,59.52380952,7,2,1,,,,,,,,6,06,,,,,,,,,,,7,1.474,0,,,,,,0.092702811,-0.381709072,1,0,0,1.4736,Peridotite_rect,0,0,0,0,1
664a0c46ebbf1d6142d8695e,TCN,2024-06-10_15h14.12.867,LearnStrategy,2023.2.3,MacIntel,59.52380952,7,2,2,,,,,,,,3,07,,,,,,,,,,,6,0.959,0,,,,,,-0.101376615,-0.405969838,1,0,0,0.959,Pegmatite_rect,1,0,1,0,1
664a0c46ebbf1d6142d8695e,TCN,2024-06-10_15h14.12.867,LearnStrategy,2023.2.3,MacIntel,59.52380952,7,2,3,,,,,,,,3,02,,,,,,,,,,,1,0.922,0,,,,,,-0.337787955,-0.245428957,1,0,0,0.9224,Andesite_rect,2,0,2,0,1
664a0c46ebbf1d6142d8695e,TCN,2024-06-10_15h14.12.867,LearnStrategy,2023.2.3,MacIntel,59.52380952,7,2,4,,,,,,,,2,16,,,,,,,,,,,2,1.398,1,,,,,,-0.119423512,-0.248624856,1,0,0,1.3981,Basalt_rect,3,0,3,0,1
664a0c46ebbf1d6142d8695e,TCN,2024-06-10_15h14.12.867,LearnStrategy,2023.2.3,MacIntel,59.52380952,7,2,5,,,,,,,,5,02,,,,,,,,,,,5,1.185,1,,,,,,-0.335981859,-0.385595322,1,0,0,1.1851,Obsidian_rect,4,0,4,0,1
664a0c46ebbf1d6142d8695e,TCN,2024-06-10_15h14.12.867,LearnStrategy,2023.2.3,MacIntel,59.52380952,7,2,6,,,,,,,,1,16,,,,,,,,,,,4,1.39,0,,,,,,0.333604213,-0.260142463,1,0,0,1.3902,Gabbro_rect,5,0,5,0,1
664a0c46ebbf1d6142d8695e,TCN,2024-06-10_15h14.12.867,LearnStrategy,2023.2.3,MacIntel,59.52380952,7,2,7,,,,,,,,1,02,,,,,,,,,,,3,2.903,0,,,,,,0.100235203,-0.261970357,1,0,0,2.9032,Diorite_rect,6,0,6,0,1
664a0c46ebbf1d6142d8695e,TCN,2024-06-10_15h14.12.867,LearnStrategy,2023.2.3,MacIntel,59.52380952,7,2,8,,,,,,,,4,16,,,,,,,,,,,2,1.078,0,,,,,,-0.171290915,-0.249801636,1,0,0,1.078,Basalt_rect,7,0,7,0,1
664a0c46ebbf1d6142d8695e,TCN,2024-06-10_15h14.12.867,LearnStrategy,2023.2.3,MacIntel,59.52380952,7,2,9,,,,,,,,7,06,,,,,,,,,,,7,1.638,1,,,,,,0.121228245,-0.399095644,1,0,0,1.6384,Peridotite_rect,8,0,8,0,1
664a0c46ebbf1d6142d8695e,TCN,2024-06-10_15h14.12.867,LearnStrategy,2023.2.3,MacIntel,59.52380952,7,2,10,,,,,,,,4,03,,,,,,,,,,,1,1.471,0,,,,,,-0.345857784,-0.267726462,1,0,0,1.4708,Andesite_rect,9,0,9,0,1
664a0c46ebbf1d6142d8695e,TCN,2024-06-10_15h14.12.867,LearnStrategy,2023.2.3,MacIntel,59.52380952,7,2,11,,,,,,,,2,09,,,,,,,,,,,2,1.002,1,,,,,,-0.163652366,-0.248999732,1,0,0,1.0016,Basalt_rect,10,0,10,0,1
664a0c46ebbf1d6142d8695e,TCN,2024-06-10_15h14.12.867,LearnStrategy,2023.2.3,MacIntel,59.52380952,7,2,12,,,,,,,,8,04,,,,,,,,,,,8,1.19,1,,,,,,0.366852679,-0.388965661,1,0,0,1.1905,Pumice_rect,11,0,11,0,1
664a0c46ebbf1d6142d8695e,TCN,2024-06-10_15h14.12.867,LearnStrategy,2023.2.3,MacIntel,59.52380952,7,2,13,,,,,,,,6,09,,,,,,,,,,,7,1.207,0,,,,,,0.129263633,-0.412137495,1,0,0,1.207,Peridotite_rect,12,0,12,0,1
664a0c46ebbf1d6142d8695e,TCN,2024-06-10_15h14.12.867,LearnStrategy,2023.2.3,MacIntel,59.52380952,7,2,14,,,,,,,,8,03,,,,,,,,,,,8,1.367,1,,,,,,0.348383113,-0.398793193,1,0,0,1.3668,Pumice_rect,13,0,13,0,1
664a0c46ebbf1d6142d8695e,TCN,2024-06-10_15h14.12.867,LearnStrategy,2023.2.3,MacIntel,59.52380952,7,2,15,,,,,,,,5,04,,,,,,,,,,,5,1.113,1,,,,,,-0.31023347,-0.413526263,1,0,0,1.1126,Obsidian_rect,14,0,14,0,1
664a0c46ebbf1d6142d8695e,TCN,2024-06-10_15h14.12.867,LearnStrategy,2023.2.3,MacIntel,59.52380952,7,2,16,,,,,,,,7,10,,,,,,,,,,,7,2.21,1,,,,,,0.108700943,-0.39563021,1,0,0,2.2098,Peridotite_rect,15,0,15,0,1
664a0c46ebbf1d6142d8695e,TCN,2024-06-10_15h14.12.867,LearnStrategy,2023.2.3,MacIntel,59.52380952,8,1,1,-0.01855981,-0.004197584,1,0,0,1.6654,rock_grid_rect_2,5,05,-1,-1,1.665,-0.372031457,-0.392999159,1,0,0,1.4009,Obsidian_rect,5,1.401,1,0,0,0,0,1,,,,,,,,,,,,
664a0c46ebbf1d6142d8695e,TCN,2024-06-10_15h14.12.867,LearnStrategy,2023.2.3,MacIntel,59.52380952,8,1,2,-0.079376112,0.016421454,1,0,0,1.0971,rock_grid_rect_2,1,05,-1,-1,1.097,-0.193532017,-0.265986088,1,0,0,0.999,Basalt_rect,2,0.999,0,1,0,1,0,1,,,,,,,,,,,,
664a0c46ebbf1d6142d8695e,TCN,2024-06-10_15h14.12.867,LearnStrategy,2023.2.3,MacIntel,59.52380952,8,1,3,-0.047168459,-0.005379704,1,0,0,9.5651,rock_grid_rect_2,8,15,-1,-1,9.565,0.33769662,-0.399137987,1,0,0,1.1486,Pumice_rect,8,1.149,1,2,0,2,0,1,,,,,,,,,,,,
664a0c46ebbf1d6142d8695e,TCN,2024-06-10_15h14.12.867,LearnStrategy,2023.2.3,MacIntel,59.52380952,8,1,4,-0.052765656,0.021323613,1,0,0,0.7835,rock_grid_rect_2,2,04,-1,-1,0.784,-0.139284352,-0.254012735,1,0,0,0.9088,Basalt_rect,2,0.909,1,3,0,3,0,1,,,,,,,,,,,,
664a0c46ebbf1d6142d8695e,TCN,2024-06-10_15h14.12.867,LearnStrategy,2023.2.3,MacIntel,59.52380952,8,1,5,-0.117150715,0.016363798,1,0,0,0.9161,rock_grid_rect_2,7,05,-1,-1,0.916,0.102375957,-0.380441666,1,0,0,2.0529,Peridotite_rect,7,2.053,1,4,0,4,0,1,,,,,,,,,,,,
664a0c46ebbf1d6142d8695e,TCN,2024-06-10_15h14.12.867,LearnStrategy,2023.2.3,MacIntel,59.52380952,8,1,6,-0.040867124,-0.018040412,1,0,0,1.0162,rock_grid_rect_2,5,16,-1,-1,1.016,-0.3482987,-0.380719485,1,0,0,1.3544,Obsidian_rect,5,1.354,1,5,0,5,0,1,,,,,,,,,,,,
664a0c46ebbf1d6142d8695e,TCN,2024-06-10_15h14.12.867,LearnStrategy,2023.2.3,MacIntel,59.52380952,8,1,7,-0.053783417,-0.006470653,1,0,0,1.399,rock_grid_rect_2,3,11,-1,-1,1.399,-0.053062875,-0.405526406,1,0,0,2.1695,Pegmatite_rect,6,2.169,0,6,0,6,0,1,,,,,,,,,,,,
664a0c46ebbf1d6142d8695e,TCN,2024-06-10_15h14.12.867,LearnStrategy,2023.2.3,MacIntel,59.52380952,8,1,8,0.069467163,0.015135302,1,0,0,1.0165,rock_grid_rect_2,1,06,-1,-1,1.016,0.073785836,-0.260661098,1,0,0,1.2449,Diorite_rect,3,1.245,0,7,0,7,0,1,,,,,,,,,,,,
664a0c46ebbf1d6142d8695e,TCN,2024-06-10_15h14.12.867,LearnStrategy,2023.2.3,MacIntel,59.52380952,8,1,9,-0.186256736,-0.000682286,1,0,0,0.8975,rock_grid_rect_2,2,14,-1,-1,0.898,-0.087206432,-0.254609408,1,0,0,1.7651,Basalt_rect,2,1.765,1,8,0,8,0,1,,,,,,,,,,,,
664a0c46ebbf1d6142d8695e,TCN,2024-06-10_15h14.12.867,LearnStrategy,2023.2.3,MacIntel,59.52380952,8,1,10,-0.023302896,-0.010334451,1,0,0,0.9655,rock_grid_rect_2,4,05,-1,-1,0.966,0.106604494,-0.399851881,1,0,0,1.325,Peridotite_rect,7,1.325,0,9,0,9,0,1,,,,,,,,,,,,
664a0c46ebbf1d6142d8695e,TCN,2024-06-10_15h14.12.867,LearnStrategy,2023.2.3,MacIntel,59.52380952,8,1,11,-0.00319846,-0.016017859,1,0,0,0.8818,rock_grid_rect_2,7,13,-1,-1,0.882,0.113305719,-0.389606803,1,0,0,0.9679,Peridotite_rect,7,0.968,1,10,0,10,0,1,,,,,,,,,,,,
664a0c46ebbf1d6142d8695e,TCN,2024-06-10_15h14.12.867,LearnStrategy,2023.2.3,MacIntel,59.52380952,8,1,12,-0.052733776,-0.009937286,1,0,0,1.0818,rock_grid_rect_2,4,14,-1,-1,1.082,-0.09307251,-0.381477301,1,0,0,1.4844,Pegmatite_rect,6,1.484,0,11,0,11,0,1,,,,,,,,,,,,
664a0c46ebbf1d6142d8695e,TCN,2024-06-10_15h14.12.867,LearnStrategy,2023.2.3,MacIntel,59.52380952,8,1,13,-0.046132333,-0.00365884,1,0,0,0.9317,rock_grid_rect_2,3,06,-1,-1,0.932,-0.080525698,-0.410771997,1,0,0,2.26,Pegmatite_rect,6,2.26,0,12,0,12,0,1,,,,,,,,,,,,
664a0c46ebbf1d6142d8695e,TCN,2024-06-10_15h14.12.867,LearnStrategy,2023.2.3,MacIntel,59.52380952,8,1,14,-0.097520665,-0.004758399,1,0,0,0.7819,rock_grid_rect_2,8,02,-1,-1,0.782,0.327949197,-0.388130025,1,0,0,1.6161,Pumice_rect,8,1.616,1,13,0,13,0,1,,,,,,,,,,,,
664a0c46ebbf1d6142d8695e,TCN,2024-06-10_15h14.12.867,LearnStrategy,2023.2.3,MacIntel,59.52380952,8,1,15,-0.030993434,-0.015651866,1,0,0,1.0822,rock_grid_rect_2,6,05,-1,-1,1.082,-0.311509541,-0.396851839,1,0,0,1.2408,Obsidian_rect,5,1.241,0,14,0,14,0,1,,,,,,,,,,,,
664a0c46ebbf1d6142d8695e,TCN,2024-06-10_15h14.12.867,LearnStrategy,2023.2.3,MacIntel,59.52380952,8,1,16,-0.088509205,0.000445339,1,0,0,0.9154,rock_grid_rect_2,6,10,-1,-1,0.915,0.100268991,-0.411186164,1,0,0,1.4338,Peridotite_rect,7,1.434,0,15,0,15,0,1,,,,,,,,,,,,
664a0c46ebbf1d6142d8695e,TCN,2024-06-10_15h14.12.867,LearnStrategy,2023.2.3,MacIntel,59.52380952,8,2,1,,,,,,,,5,12,,,,,,,,,,,5,1.138,1,,,,,,-0.336167308,-0.385149384,1,0,0,1.1376,Obsidian_rect,0,0,0,0,1
664a0c46ebbf1d6142d8695e,TCN,2024-06-10_15h14.12.867,LearnStrategy,2023.2.3,MacIntel,59.52380952,8,2,2,,,,,,,,4,13,,,,,,,,,,,4,2.407,1,,,,,,0.369831957,-0.243438121,1,0,0,2.407,Gabbro_rect,1,0,1,0,1
664a0c46ebbf1d6142d8695e,TCN,2024-06-10_15h14.12.867,LearnStrategy,2023.2.3,MacIntel,59.52380952,8,2,3,,,,,,,,1,11,,,,,,,,,,,1,1.671,1,,,,,,-0.341203908,-0.248255321,1,0,0,1.6712,Andesite_rect,2,0,2,0,1
664a0c46ebbf1d6142d8695e,TCN,2024-06-10_15h14.12.867,LearnStrategy,2023.2.3,MacIntel,59.52380952,8,2,4,,,,,,,,7,12,,,,,,,,,,,7,1.09,1,,,,,,0.098676845,-0.387350028,1,0,0,1.0904,Peridotite_rect,3,0,3,0,1
664a0c46ebbf1d6142d8695e,TCN,2024-06-10_15h14.12.867,LearnStrategy,2023.2.3,MacIntel,59.52380952,8,2,5,,,,,,,,5,06,,,,,,,,,,,5,1.442,1,,,,,,-0.416677148,-0.415709795,1,0,0,1.4417,Obsidian_rect,4,0,4,0,1
664a0c46ebbf1d6142d8695e,TCN,2024-06-10_15h14.12.867,LearnStrategy,2023.2.3,MacIntel,59.52380952,8,2,6,,,,,,,,3,12,,,,,,,,,,,6,2.729,0,,,,,,-0.155477687,-0.414364624,1,0,0,2.7286,Pegmatite_rect,5,0,5,0,1
664a0c46ebbf1d6142d8695e,TCN,2024-06-10_15h14.12.867,LearnStrategy,2023.2.3,MacIntel,59.52380952,8,2,7,,,,,,,,8,05,,,,,,,,,,,8,1.078,1,,,,,,0.409314946,-0.39802306,1,0,0,1.078,Pumice_rect,6,0,6,0,1
664a0c46ebbf1d6142d8695e,TCN,2024-06-10_15h14.12.867,LearnStrategy,2023.2.3,MacIntel,59.52380952,8,2,8,,,,,,,,4,15,,,,,,,,,,,4,2.968,1,,,,,,0.370649283,-0.263235583,1,0,0,2.9676,Gabbro_rect,7,0,7,0,1
664a0c46ebbf1d6142d8695e,TCN,2024-06-10_15h14.12.867,LearnStrategy,2023.2.3,MacIntel,59.52380952,8,2,9,,,,,,,,6,07,,,,,,,,,,,7,3.676,0,,,,,,0.075123269,-0.393920626,1,0,0,3.6761,Peridotite_rect,8,0,8,0,1
664a0c46ebbf1d6142d8695e,TCN,2024-06-10_15h14.12.867,LearnStrategy,2023.2.3,MacIntel,59.52380952,8,2,10,,,,,,,,2,05,,,,,,,,,,,2,0.962,1,,,,,,-0.206158393,-0.252593395,1,0,0,0.9622,Basalt_rect,9,0,9,0,1
664a0c46ebbf1d6142d8695e,TCN,2024-06-10_15h14.12.867,LearnStrategy,2023.2.3,MacIntel,59.52380952,8,2,11,,,,,,,,7,15,,,,,,,,,,,1,2.312,0,,,,,,-0.36255673,-0.269407708,1,0,0,2.3118,Andesite_rect,10,0,10,0,1
664a0c46ebbf1d6142d8695e,TCN,2024-06-10_15h14.12.867,LearnStrategy,2023.2.3,MacIntel,59.52380952,8,2,12,,,,,,,,3,16,,,,,,,,,,,6,1.689,0,,,,,,-0.118641445,-0.408709281,1,0,0,1.6888,Pegmatite_rect,11,0,11,0,1
664a0c46ebbf1d6142d8695e,TCN,2024-06-10_15h14.12.867,LearnStrategy,2023.2.3,MacIntel,59.52380952,8,2,13,,,,,,,,2,10,,,,,,,,,,,2,0.926,1,,,,,,-0.152103751,-0.245744814,1,0,0,0.9259,Basalt_rect,12,0,12,0,1
664a0c46ebbf1d6142d8695e,TCN,2024-06-10_15h14.12.867,LearnStrategy,2023.2.3,MacIntel,59.52380952,8,2,14,,,,,,,,1,10,,,,,,,,,,,1,1.382,1,,,,,,-0.321856526,-0.238079616,1,0,0,1.3822,Andesite_rect,13,0,13,0,1
664a0c46ebbf1d6142d8695e,TCN,2024-06-10_15h14.12.867,LearnStrategy,2023.2.3,MacIntel,59.52380952,8,2,15,,,,,,,,6,11,,,,,,,,,,,7,1.24,0,,,,,,0.134689985,-0.4051154,1,0,0,1.2401,Peridotite_rect,14,0,14,0,1
664a0c46ebbf1d6142d8695e,TCN,2024-06-10_15h14.12.867,LearnStrategy,2023.2.3,MacIntel,59.52380952,8,2,16,,,,,,,,8,10,,,,,,,,,,,8,0.891,1,,,,,,0.370646558,-0.419380188,1,0,0,0.891,Pumice_rect,15,0,15,0,1
664a0c46ebbf1d6142d8695e,TCN,2024-06-10_15h14.12.867,LearnStrategy,2023.2.3,MacIntel,59.52380952,9,1,1,-0.063391658,-0.012638474,1,0,0,6.2318,rock_grid_rect_2,5,11,-1,-1,6.232,-0.373407418,-0.39409523,1,0,0,1.3113,Obsidian_rect,5,1.311,1,0,0,0,0,1,,,,,,,,,,,,
664a0c46ebbf1d6142d8695e,TCN,2024-06-10_15h14.12.867,LearnStrategy,2023.2.3,MacIntel,59.52380952,9,1,2,-0.122360556,-0.021434239,1,0,0,1.3657,rock_grid_rect_2,8,13,-1,-1,1.366,0.363375528,-0.412934494,1,0,0,1.6171,Pumice_rect,8,1.617,1,1,0,1,0,1,,,,,,,,,,,,
664a0c46ebbf1d6142d8695e,TCN,2024-06-10_15h14.12.867,LearnStrategy,2023.2.3,MacIntel,59.52380952,9,1,3,-0.029638072,-0.019350215,1,0,0,1.1154,rock_grid_rect_2,8,09,-1,-1,1.115,0.396946825,-0.396235493,1,0,0,3.1734,Pumice_rect,8,3.173,1,2,0,2,0,1,,,,,,,,,,,,
664a0c46ebbf1d6142d8695e,TCN,2024-06-10_15h14.12.867,LearnStrategy,2023.2.3,MacIntel,59.52380952,9,1,4,-0.072883878,-0.015191759,1,0,0,1.0323,rock_grid_rect_2,7,16,-1,-1,1.032,0.080664934,-0.392121342,1,0,0,1.2104,Peridotite_rect,7,1.21,1,3,0,3,0,1,,,,,,,,,,,,
664a0c46ebbf1d6142d8695e,TCN,2024-06-10_15h14.12.867,LearnStrategy,2023.2.3,MacIntel,59.52380952,9,1,5,-0.063558361,-0.016173826,1,0,0,1.3157,rock_grid_rect_2,3,14,-1,-1,1.316,-0.181251417,-0.394399752,1,0,0,1.2405,Pegmatite_rect,6,1.24,0,4,0,4,0,1,,,,,,,,,,,,
664a0c46ebbf1d6142d8695e,TCN,2024-06-10_15h14.12.867,LearnStrategy,2023.2.3,MacIntel,59.52380952,9,1,6,-0.080982917,-0.001003919,1,0,0,0.9814,rock_grid_rect_2,1,14,-1,-1,0.981,-0.359798895,-0.245581,1,0,0,1.611,Andesite_rect,1,1.611,1,5,0,5,0,1,,,,,,,,,,,,
664a0c46ebbf1d6142d8695e,TCN,2024-06-10_15h14.12.867,LearnStrategy,2023.2.3,MacIntel,59.52380952,9,1,7,0.043114417,-0.010824312,1,0,0,1.0162,rock_grid_rect_2,3,10,-1,-1,1.016,0.120575714,-0.384399905,1,0,0,1.2967,Peridotite_rect,7,1.297,0,6,0,6,0,1,,,,,,,,,,,,
664a0c46ebbf1d6142d8695e,TCN,2024-06-10_15h14.12.867,LearnStrategy,2023.2.3,MacIntel,59.52380952,9,1,8,-0.014401736,-0.00590259,1,0,0,1.0156,rock_grid_rect_2,2,06,-1,-1,1.016,-0.14178009,-0.255177362,1,0,0,1.2396,Basalt_rect,2,1.24,1,7,0,7,0,1,,,,,,,,,,,,
664a0c46ebbf1d6142d8695e,TCN,2024-06-10_15h14.12.867,LearnStrategy,2023.2.3,MacIntel,59.52380952,9,1,9,-0.064736775,-0.015260424,1,0,0,0.8819,rock_grid_rect_2,5,09,-1,-1,0.882,-0.396993664,-0.39160238,1,0,0,1.3304,Obsidian_rect,5,1.33,1,8,0,8,0,1,,,,,,,,,,,,
664a0c46ebbf1d6142d8695e,TCN,2024-06-10_15h14.12.867,LearnStrategy,2023.2.3,MacIntel,59.52380952,9,1,10,-0.023618371,0.001610838,1,0,0,1.0818,rock_grid_rect_2,1,09,-1,-1,1.082,-0.36160123,-0.2289408,1,0,0,1.2405,Andesite_rect,1,1.24,1,9,0,9,0,1,,,,,,,,,,,,
664a0c46ebbf1d6142d8695e,TCN,2024-06-10_15h14.12.867,LearnStrategy,2023.2.3,MacIntel,59.52380952,9,1,11,0.020772335,-0.002423641,1,0,0,0.8982,rock_grid_rect_2,6,13,-1,-1,0.898,0.12134988,-0.260558755,1,0,0,1.4187,Diorite_rect,3,1.419,0,10,0,10,0,1,,,,,,,,,,,,
664a0c46ebbf1d6142d8695e,TCN,2024-06-10_15h14.12.867,LearnStrategy,2023.2.3,MacIntel,59.52380952,9,1,12,-0.020585087,-0.021429171,1,0,0,0.9152,rock_grid_rect_2,6,03,-1,-1,0.915,0.080451693,-0.381671143,1,0,0,1.6439,Peridotite_rect,7,1.644,0,11,0,11,0,1,,,,,,,,,,,,
664a0c46ebbf1d6142d8695e,TCN,2024-06-10_15h14.12.867,LearnStrategy,2023.2.3,MacIntel,59.52380952,9,1,13,-0.121540397,-0.005990546,1,0,0,0.8641,rock_grid_rect_2,7,07,-1,-1,0.864,-0.346914073,-0.261079407,1,0,0,1.1933,Andesite_rect,1,1.193,0,12,0,12,0,1,,,,,,,,,,,,
664a0c46ebbf1d6142d8695e,TCN,2024-06-10_15h14.12.867,LearnStrategy,2023.2.3,MacIntel,59.52380952,9,1,14,-0.0131673,-0.011430849,1,0,0,0.882,rock_grid_rect_2,4,01,-1,-1,0.882,-0.062591662,-0.390933718,1,0,0,1.3328,Pegmatite_rect,6,1.333,0,13,0,13,0,1,,,,,,,,,,,,
664a0c46ebbf1d6142d8695e,TCN,2024-06-10_15h14.12.867,LearnStrategy,2023.2.3,MacIntel,59.52380952,9,1,15,-0.044608198,-0.003929247,1,0,0,0.9325,rock_grid_rect_2,4,12,-1,-1,0.932,0.056256049,-0.383306122,1,0,0,2.4296,Peridotite_rect,7,2.43,0,14,0,14,0,1,,,,,,,,,,,,
664a0c46ebbf1d6142d8695e,TCN,2024-06-10_15h14.12.867,LearnStrategy,2023.2.3,MacIntel,59.52380952,9,1,16,-0.119687653,-0.009037345,1,0,0,0.9491,rock_grid_rect_2,2,01,-1,-1,0.949,-0.191564832,-0.243580137,1,0,0,1.3798,Basalt_rect,2,1.38,1,15,0,15,0,1,,,,,,,,,,,,
664a0c46ebbf1d6142d8695e,TCN,2024-06-10_15h14.12.867,LearnStrategy,2023.2.3,MacIntel,59.52380952,9,2,1,,,,,,,,1,07,,,,,,,,,,,6,1.431,0,,,,,,-0.081242698,-0.407183402,1,0,0,1.4314,Pegmatite_rect,0,0,0,0,1
664a0c46ebbf1d6142d8695e,TCN,2024-06-10_15h14.12.867,LearnStrategy,2023.2.3,MacIntel,59.52380952,9,2,2,,,,,,,,5,07,,,,,,,,,,,5,1.722,1,,,,,,-0.362848636,-0.40457671,1,0,0,1.7218,Obsidian_rect,1,0,1,0,1
664a0c46ebbf1d6142d8695e,TCN,2024-06-10_15h14.12.867,LearnStrategy,2023.2.3,MacIntel,59.52380952,9,2,3,,,,,,,,7,02,,,,,,,,,,,7,1.24,1,,,,,,0.174429648,-0.407304273,1,0,0,1.2402,Peridotite_rect,2,0,2,0,1
664a0c46ebbf1d6142d8695e,TCN,2024-06-10_15h14.12.867,LearnStrategy,2023.2.3,MacIntel,59.52380952,9,2,4,,,,,,,,3,08,,,,,,,,,,,1,1.36,0,,,,,,-0.350140326,-0.2456307,1,0,0,1.3596,Andesite_rect,3,0,3,0,1
664a0c46ebbf1d6142d8695e,TCN,2024-06-10_15h14.12.867,LearnStrategy,2023.2.3,MacIntel,59.52380952,9,2,5,,,,,,,,2,02,,,,,,,,,,,2,0.76,1,,,,,,-0.095315279,-0.241453716,1,0,0,0.7599,Basalt_rect,4,0,4,0,1
664a0c46ebbf1d6142d8695e,TCN,2024-06-10_15h14.12.867,LearnStrategy,2023.2.3,MacIntel,59.52380952,9,2,6,,,,,,,,8,06,,,,,,,,,,,8,1.243,1,,,,,,0.379458618,-0.402322279,1,0,0,1.2429,Pumice_rect,5,0,5,0,1
664a0c46ebbf1d6142d8695e,TCN,2024-06-10_15h14.12.867,LearnStrategy,2023.2.3,MacIntel,59.52380952,9,2,7,,,,,,,,1,01,,,,,,,,,,,2,1.17,0,,,,,,-0.135664967,-0.252617046,1,0,0,1.1697,Basalt_rect,6,0,6,0,1
664a0c46ebbf1d6142d8695e,TCN,2024-06-10_15h14.12.867,LearnStrategy,2023.2.3,MacIntel,59.52380952,9,2,8,,,,,,,,6,16,,,,,,,,,,,3,2.199,0,,,,,,0.108811351,-0.250138528,1,0,0,2.1995,Diorite_rect,7,0,7,0,1
664a0c46ebbf1d6142d8695e,TCN,2024-06-10_15h14.12.867,LearnStrategy,2023.2.3,MacIntel,59.52380952,9,2,9,,,,,,,,7,08,,,,,,,,,,,7,1.255,1,,,,,,0.104226848,-0.413668278,1,0,0,1.2555,Peridotite_rect,8,0,8,0,1
664a0c46ebbf1d6142d8695e,TCN,2024-06-10_15h14.12.867,LearnStrategy,2023.2.3,MacIntel,59.52380952,9,2,10,,,,,,,,2,12,,,,,,,,,,,8,1.39,0,,,,,,0.343232618,-0.392474638,1,0,0,1.3903,Pumice_rect,9,0,9,0,1
664a0c46ebbf1d6142d8695e,TCN,2024-06-10_15h14.12.867,LearnStrategy,2023.2.3,MacIntel,59.52380952,9,2,11,,,,,,,,8,14,,,,,,,,,,,8,0.967,1,,,,,,0.323128074,-0.380718776,1,0,0,0.9673,Pumice_rect,10,0,10,0,1
664a0c46ebbf1d6142d8695e,TCN,2024-06-10_15h14.12.867,LearnStrategy,2023.2.3,MacIntel,59.52380952,9,2,12,,,,,,,,6,12,,,,,,,,,,,1,1.534,0,,,,,,-0.365471922,-0.248483113,1,0,0,1.5335,Andesite_rect,11,0,11,0,1
664a0c46ebbf1d6142d8695e,TCN,2024-06-10_15h14.12.867,LearnStrategy,2023.2.3,MacIntel,59.52380952,9,2,13,,,,,,,,3,13,,,,,,,,,,,3,1.892,1,,,,,,0.059778867,-0.25828792,1,0,0,1.8916,Diorite_rect,12,0,12,0,1
664a0c46ebbf1d6142d8695e,TCN,2024-06-10_15h14.12.867,LearnStrategy,2023.2.3,MacIntel,59.52380952,9,2,14,,,,,,,,4,08,,,,,,,,,,,6,1.017,0,,,,,,-0.169968142,-0.399692808,1,0,0,1.0175,Pegmatite_rect,13,0,13,0,1
664a0c46ebbf1d6142d8695e,TCN,2024-06-10_15h14.12.867,LearnStrategy,2023.2.3,MacIntel,59.52380952,9,2,15,,,,,,,,4,10,,,,,,,,,,,3,1.571,0,,,,,,0.133320727,-0.266726249,1,0,0,1.5705,Diorite_rect,14,0,14,0,1
664a0c46ebbf1d6142d8695e,TCN,2024-06-10_15h14.12.867,LearnStrategy,2023.2.3,MacIntel,59.52380952,9,2,16,,,,,,,,5,10,,,,,,,,,,,5,1.337,1,,,,,,-0.344900567,-0.386409215,1,0,0,1.3367,Obsidian_rect,15,0,15,0,1
664a0c46ebbf1d6142d8695e,TCN,2024-06-10_15h14.12.867,LearnStrategy,2023.2.3,MacIntel,59.52380952,,,,,,,,,,,,,,,,,,,,,,,,,,,,,,,,,,,,,,,,,,
664a0c46ebbf1d6142d8695e,TCN,2024-06-10_15h14.12.867,LearnStrategy,2023.2.3,MacIntel,59.52380952,,,,,,,,,,,,,,,,,,,,,,,,,,,,,,,,,,,,,,,,,,
664a0c46ebbf1d6142d8695e,TCN,2024-06-10_15h14.12.867,LearnStrategy,2023.2.3,MacIntel,59.52380952,,,,,,,,,,,2,08,1,1,,,,,,,,,,,,,,,,,,,,,,,,,,,,
664a0c46ebbf1d6142d8695e,TCN,2024-06-10_15h14.12.867,LearnStrategy,2023.2.3,MacIntel,59.52380952,,,,,,,,,,,4,11,1,2,,,,,,,,,,,,,,,,,,,,,,,,,,,,
664a0c46ebbf1d6142d8695e,TCN,2024-06-10_15h14.12.867,LearnStrategy,2023.2.3,MacIntel,59.52380952,,,,,,,,,,,2,11,1,3,,,,,,,,,,,,,,,,,,,,,,,,,,,,
664a0c46ebbf1d6142d8695e,TCN,2024-06-10_15h14.12.867,LearnStrategy,2023.2.3,MacIntel,59.52380952,,,,,,,,,,,7,16,1,4,,,,,,,,,,,,,,,,,,,,,,,,,,,,
664a0c46ebbf1d6142d8695e,TCN,2024-06-10_15h14.12.867,LearnStrategy,2023.2.3,MacIntel,59.52380952,,,,,,,,,,,3,09,1,5,,,,,,,,,,,,,,,,,,,,,,,,,,,,
664a0c46ebbf1d6142d8695e,TCN,2024-06-10_15h14.12.867,LearnStrategy,2023.2.3,MacIntel,59.52380952,,,,,,,,,,,4,05,1,6,,,,,,,,,,,,,,,,,,,,,,,,,,,,
664a0c46ebbf1d6142d8695e,TCN,2024-06-10_15h14.12.867,LearnStrategy,2023.2.3,MacIntel,59.52380952,,,,,,,,,,,8,08,1,7,,,,,,,,,,,,,,,,,,,,,,,,,,,,
664a0c46ebbf1d6142d8695e,TCN,2024-06-10_15h14.12.867,LearnStrategy,2023.2.3,MacIntel,59.52380952,,,,,,,,,,,4,12,1,8,,,,,,,,,,,,,,,,,,,,,,,,,,,,
664a0c46ebbf1d6142d8695e,TCN,2024-06-10_15h14.12.867,LearnStrategy,2023.2.3,MacIntel,59.52380952,,,,,,,,,,,8,02,2,1,,,,,,,,,,,,,,,,,,,,,,,,,,,,
664a0c46ebbf1d6142d8695e,TCN,2024-06-10_15h14.12.867,LearnStrategy,2023.2.3,MacIntel,59.52380952,,,,,,,,,,,2,01,2,2,,,,,,,,,,,,,,,,,,,,,,,,,,,,
664a0c46ebbf1d6142d8695e,TCN,2024-06-10_15h14.12.867,LearnStrategy,2023.2.3,MacIntel,59.52380952,,,,,,,,,,,6,10,2,3,,,,,,,,,,,,,,,,,,,,,,,,,,,,
664a0c46ebbf1d6142d8695e,TCN,2024-06-10_15h14.12.867,LearnStrategy,2023.2.3,MacIntel,59.52380952,,,,,,,,,,,1,06,2,4,,,,,,,,,,,,,,,,,,,,,,,,,,,,
664a0c46ebbf1d6142d8695e,TCN,2024-06-10_15h14.12.867,LearnStrategy,2023.2.3,MacIntel,59.52380952,,,,,,,,,,,5,11,2,5,,,,,,,,,,,,,,,,,,,,,,,,,,,,
664a0c46ebbf1d6142d8695e,TCN,2024-06-10_15h14.12.867,LearnStrategy,2023.2.3,MacIntel,59.52380952,,,,,,,,,,,3,06,2,6,,,,,,,,,,,,,,,,,,,,,,,,,,,,
664a0c46ebbf1d6142d8695e,TCN,2024-06-10_15h14.12.867,LearnStrategy,2023.2.3,MacIntel,59.52380952,,,,,,,,,,,4,14,2,7,,,,,,,,,,,,,,,,,,,,,,,,,,,,
664a0c46ebbf1d6142d8695e,TCN,2024-06-10_15h14.12.867,LearnStrategy,2023.2.3,MacIntel,59.52380952,,,,,,,,,,,3,15,2,8,,,,,,,,,,,,,,,,,,,,,,,,,,,,
664a0c46ebbf1d6142d8695e,TCN,2024-06-10_15h14.12.867,LearnStrategy,2023.2.3,MacIntel,59.52380952,,,,,,,,,,,1,04,3,1,,,,,,,,,,,,,,,,,,,,,,,,,,,,
664a0c46ebbf1d6142d8695e,TCN,2024-06-10_15h14.12.867,LearnStrategy,2023.2.3,MacIntel,59.52380952,,,,,,,,,,,5,16,3,2,,,,,,,,,,,,,,,,,,,,,,,,,,,,
664a0c46ebbf1d6142d8695e,TCN,2024-06-10_15h14.12.867,LearnStrategy,2023.2.3,MacIntel,59.52380952,,,,,,,,,,,8,16,3,3,,,,,,,,,,,,,,,,,,,,,,,,,,,,
664a0c46ebbf1d6142d8695e,TCN,2024-06-10_15h14.12.867,LearnStrategy,2023.2.3,MacIntel,59.52380952,,,,,,,,,,,5,08,3,4,,,,,,,,,,,,,,,,,,,,,,,,,,,,
664a0c46ebbf1d6142d8695e,TCN,2024-06-10_15h14.12.867,LearnStrategy,2023.2.3,MacIntel,59.52380952,,,,,,,,,,,2,04,3,5,,,,,,,,,,,,,,,,,,,,,,,,,,,,
664a0c46ebbf1d6142d8695e,TCN,2024-06-10_15h14.12.867,LearnStrategy,2023.2.3,MacIntel,59.52380952,,,,,,,,,,,6,08,3,6,,,,,,,,,,,,,,,,,,,,,,,,,,,,
664a0c46ebbf1d6142d8695e,TCN,2024-06-10_15h14.12.867,LearnStrategy,2023.2.3,MacIntel,59.52380952,,,,,,,,,,,7,14,3,7,,,,,,,,,,,,,,,,,,,,,,,,,,,,
664a0c46ebbf1d6142d8695e,TCN,2024-06-10_15h14.12.867,LearnStrategy,2023.2.3,MacIntel,59.52380952,,,,,,,,,,,1,14,3,8,,,,,,,,,,,,,,,,,,,,,,,,,,,,
664a0c46ebbf1d6142d8695e,TCN,2024-06-10_15h14.12.867,LearnStrategy,2023.2.3,MacIntel,59.52380952,,,,,,,,,,,7,13,4,1,,,,,,,,,,,,,,,,,,,,,,,,,,,,
664a0c46ebbf1d6142d8695e,TCN,2024-06-10_15h14.12.867,LearnStrategy,2023.2.3,MacIntel,59.52380952,,,,,,,,,,,4,01,4,2,,,,,,,,,,,,,,,,,,,,,,,,,,,,
664a0c46ebbf1d6142d8695e,TCN,2024-06-10_15h14.12.867,LearnStrategy,2023.2.3,MacIntel,59.52380952,,,,,,,,,,,5,09,4,3,,,,,,,,,,,,,,,,,,,,,,,,,,,,
664a0c46ebbf1d6142d8695e,TCN,2024-06-10_15h14.12.867,LearnStrategy,2023.2.3,MacIntel,59.52380952,,,,,,,,,,,5,05,4,4,,,,,,,,,,,,,,,,,,,,,,,,,,,,
664a0c46ebbf1d6142d8695e,TCN,2024-06-10_15h14.12.867,LearnStrategy,2023.2.3,MacIntel,59.52380952,,,,,,,,,,,7,04,4,5,,,,,,,,,,,,,,,,,,,,,,,,,,,,
664a0c46ebbf1d6142d8695e,TCN,2024-06-10_15h14.12.867,LearnStrategy,2023.2.3,MacIntel,59.52380952,,,,,,,,,,,1,03,4,6,,,,,,,,,,,,,,,,,,,,,,,,,,,,
664a0c46ebbf1d6142d8695e,TCN,2024-06-10_15h14.12.867,LearnStrategy,2023.2.3,MacIntel,59.52380952,,,,,,,,,,,6,03,4,7,,,,,,,,,,,,,,,,,,,,,,,,,,,,
664a0c46ebbf1d6142d8695e,TCN,2024-06-10_15h14.12.867,LearnStrategy,2023.2.3,MacIntel,59.52380952,,,,,,,,,,,1,09,4,8,,,,,,,,,,,,,,,,,,,,,,,,,,,,
664a0c46ebbf1d6142d8695e,TCN,2024-06-10_15h14.12.867,LearnStrategy,2023.2.3,MacIntel,59.52380952,,,,,,,,,,,2,06,5,1,,,,,,,,,,,,,,,,,,,,,,,,,,,,
664a0c46ebbf1d6142d8695e,TCN,2024-06-10_15h14.12.867,LearnStrategy,2023.2.3,MacIntel,59.52380952,,,,,,,,,,,5,14,5,2,,,,,,,,,,,,,,,,,,,,,,,,,,,,
664a0c46ebbf1d6142d8695e,TCN,2024-06-10_15h14.12.867,LearnStrategy,2023.2.3,MacIntel,59.52380952,,,,,,,,,,,6,05,5,3,,,,,,,,,,,,,,,,,,,,,,,,,,,,
664a0c46ebbf1d6142d8695e,TCN,2024-06-10_15h14.12.867,LearnStrategy,2023.2.3,MacIntel,59.52380952,,,,,,,,,,,6,15,5,4,,,,,,,,,,,,,,,,,,,,,,,,,,,,
664a0c46ebbf1d6142d8695e,TCN,2024-06-10_15h14.12.867,LearnStrategy,2023.2.3,MacIntel,59.52380952,,,,,,,,,,,7,07,5,5,,,,,,,,,,,,,,,,,,,,,,,,,,,,
664a0c46ebbf1d6142d8695e,TCN,2024-06-10_15h14.12.867,LearnStrategy,2023.2.3,MacIntel,59.52380952,,,,,,,,,,,3,11,5,6,,,,,,,,,,,,,,,,,,,,,,,,,,,,
664a0c46ebbf1d6142d8695e,TCN,2024-06-10_15h14.12.867,LearnStrategy,2023.2.3,MacIntel,59.52380952,,,,,,,,,,,8,09,5,7,,,,,,,,,,,,,,,,,,,,,,,,,,,,
664a0c46ebbf1d6142d8695e,TCN,2024-06-10_15h14.12.867,LearnStrategy,2023.2.3,MacIntel,59.52380952,,,,,,,,,,,6,13,5,8,,,,,,,,,,,,,,,,,,,,,,,,,,,,
664a0c46ebbf1d6142d8695e,TCN,2024-06-10_15h14.12.867,LearnStrategy,2023.2.3,MacIntel,59.52380952,,,,,,,,,,,8,13,6,1,,,,,,,,,,,,,,,,,,,,,,,,,,,,
664a0c46ebbf1d6142d8695e,TCN,2024-06-10_15h14.12.867,LearnStrategy,2023.2.3,MacIntel,59.52380952,,,,,,,,,,,8,15,6,2,,,,,,,,,,,,,,,,,,,,,,,,,,,,
664a0c46ebbf1d6142d8695e,TCN,2024-06-10_15h14.12.867,LearnStrategy,2023.2.3,MacIntel,59.52380952,,,,,,,,,,,3,14,6,3,,,,,,,,,,,,,,,,,,,,,,,,,,,,
664a0c46ebbf1d6142d8695e,TCN,2024-06-10_15h14.12.867,LearnStrategy,2023.2.3,MacIntel,59.52380952,,,,,,,,,,,7,05,6,4,,,,,,,,,,,,,,,,,,,,,,,,,,,,
664a0c46ebbf1d6142d8695e,TCN,2024-06-10_15h14.12.867,LearnStrategy,2023.2.3,MacIntel,59.52380952,,,,,,,,,,,2,14,6,5,,,,,,,,,,,,,,,,,,,,,,,,,,,,
664a0c46ebbf1d6142d8695e,TCN,2024-06-10_15h14.12.867,LearnStrategy,2023.2.3,MacIntel,59.52380952,,,,,,,,,,,3,10,6,6,,,,,,,,,,,,,,,,,,,,,,,,,,,,
664a0c46ebbf1d6142d8695e,TCN,2024-06-10_15h14.12.867,LearnStrategy,2023.2.3,MacIntel,59.52380952,,,,,,,,,,,4,09,6,7,,,,,,,,,,,,,,,,,,,,,,,,,,,,
664a0c46ebbf1d6142d8695e,TCN,2024-06-10_15h14.12.867,LearnStrategy,2023.2.3,MacIntel,59.52380952,,,,,,,,,,,1,05,6,8,,,,,,,,,,,,,,,,,,,,,,,,,,,,