participant,condition,date,expName,psychopyVersion,OS,frameRate,block,phase,trial,learn_mouse_2.x,learn_mouse_2.y,learn_mouse_2.leftButton,learn_mouse_2.midButton,learn_mouse_2.rightButton,learn_mouse_2.time,learn_mouse_2.clicked_name,cat,token,row,col,t_select,cat_mouse_l.x,cat_mouse_l.y,cat_mouse_l.leftButton,cat_mouse_l.midButton,cat_mouse_l.rightButton,cat_mouse_l.time,cat_mouse_l.clicked_name,resp,t_resp,corr,train_trials.thisRepN,train_trials.thisTrialN,train_trials.thisN,train_trials.thisIndex,train_trials.ran,cat_mouse_t.x,cat_mouse_t.y,cat_mouse_t.leftButton,cat_mouse_t.midButton,cat_mouse_t.rightButton,cat_mouse_t.time,cat_mouse_t.clicked_name,test_trials.thisRepN,test_trials.thisTrialN,test_trials.thisN,test_trials.thisIndex,test_trials.ran
664c9c1485557ed7abb000b2,TCN,2024-06-10_15h12.11.302,LearnStrategy,2023.2.3,MacIntel,123.4567901,,,,,,,,,,,,,,,,,,,,,,,,,,,,,,,,,,,,,,,,,,
664c9c1485557ed7abb000b2,TCN,2024-06-10_15h12.11.302,LearnStrategy,2023.2.3,MacIntel,123.4567901,1,1,1,0.081762566,-0.009829696,1,0,0,1.632,rock_grid_rect_2,1,05,-1,-1,1.632,-0.096428571,-0.25249256,1,0,0,5.3852,Basalt_rect,2,5.385,0,0,0,0,0,1,,,,,,,,,,,,
664c9c1485557ed7abb000b2,TCN,2024-06-10_15h12.11.302,LearnStrategy,2023.2.3,MacIntel,123.4567901,1,1,2,-0.022408234,-0.019122024,1,0,0,1.2062,rock_grid_rect_2,2,12,-1,-1,1.206,0.374185681,-0.402872851,1,0,0,5.5522,Pumice_rect,8,5.552,0,1,0,1,0,1,,,,,,,,,,,,
664c9c1485557ed7abb000b2,TCN,2024-06-10_15h12.11.302,LearnStrategy,2023.2.3,MacIntel,123.4567901,1,1,3,0.009408069,0.000400959,1,0,0,0.8798,rock_grid_rect_2,3,12,-1,-1,0.88,0.230580357,-0.261532738,1,0,0,3.6084,Diorite_rect,3,3.608,1,2,0,2,0,1,,,,,,,,,,,,
664c9c1485557ed7abb000b2,TCN,2024-06-10_15h12.11.302,LearnStrategy,2023.2.3,MacIntel,123.4567901,1,1,4,0.056779101,0.018258102,1,0,0,0.788,rock_grid_rect_2,1,03,-1,-1,0.788,-0.08943039,-0.402612434,1,0,0,5.3025,Pegmatite_rect,6,5.303,0,3,0,3,0,1,,,,,,,,,,,,
664c9c1485557ed7abb000b2,TCN,2024-06-10_15h12.11.302,LearnStrategy,2023.2.3,MacIntel,123.4567901,1,1,5,-0.024041005,-0.005886243,1,0,0,0.9462,rock_grid_rect_2,7,06,-1,-1,0.946,0.394444444,-0.240848214,1,0,0,5.1105,Gabbro_rect,4,5.111,0,4,0,4,0,1,,,,,,,,,,,,
664c9c1485557ed7abb000b2,TCN,2024-06-10_15h12.11.302,LearnStrategy,2023.2.3,MacIntel,123.4567901,1,1,6,0.072416501,-0.018022487,1,0,0,0.9138,rock_grid_rect_2,3,06,-1,-1,0.914,-0.138835152,-0.39812748,1,0,0,4.2331,Pegmatite_rect,6,4.233,0,5,0,5,0,1,,,,,,,,,,,,
664c9c1485557ed7abb000b2,TCN,2024-06-10_15h12.11.302,LearnStrategy,2023.2.3,MacIntel,123.4567901,1,1,7,0.021391369,0.001628638,1,0,0,0.9058,rock_grid_rect_2,8,02,-1,-1,0.906,0.350925926,-0.38363922,1,0,0,3.0418,Pumice_rect,8,3.042,1,6,0,6,0,1,,,,,,,,,,,,
664c9c1485557ed7abb000b2,TCN,2024-06-10_15h12.11.302,LearnStrategy,2023.2.3,MacIntel,123.4567901,1,1,8,0.049396495,0.011991567,1,0,0,0.7635,rock_grid_rect_2,2,10,-1,-1,0.763,-0.34806961,-0.378608631,1,0,0,1.5695,Obsidian_rect,5,1.569,0,7,0,7,0,1,,,,,,,,,,,,
664c9c1485557ed7abb000b2,TCN,2024-06-10_15h12.11.302,LearnStrategy,2023.2.3,MacIntel,123.4567901,1,1,9,-0.009180721,-0.003112599,1,0,0,0.8059,rock_grid_rect_2,5,09,-1,-1,0.806,-0.35151703,-0.414471726,1,0,0,1.217,Obsidian_rect,5,1.217,1,8,0,8,0,1,,,,,,,,,,,,
664c9c1485557ed7abb000b2,TCN,2024-06-10_15h12.11.302,LearnStrategy,2023.2.3,MacIntel,123.4567901,1,1,10,0.01969246,0.007084987,1,0,0,0.8047,rock_grid_rect_2,8,08,-1,-1,0.805,0.352690972,-0.397317295,1,0,0,2.7366,Pumice_rect,8,2.737,1,9,0,9,0,1,,,,,,,,,,,,
664c9c1485557ed7abb000b2,TCN,2024-06-10_15h12.11.302,LearnStrategy,2023.2.3,MacIntel,123.4567901,1,1,11,-0.002600033,-0.005332341,1,0,0,0.7566,rock_grid_rect_2,7,08,-1,-1,0.757,0.097573578,-0.384532077,1,0,0,2.0769,Peridotite_rect,7,2.077,1,10,0,10,0,1,,,,,,,,,,,,
664c9c1485557ed7abb000b2,TCN,2024-06-10_15h12.11.302,LearnStrategy,2023.2.3,MacIntel,123.4567901,1,1,12,0.022114749,-0.016166501,1,0,0,0.6884,rock_grid_rect_2,4,03,-1,-1,0.688,-0.311966766,-0.24156746,1,0,0,2.7917,Andesite_rect,1,2.792,0,11,0,11,0,1,,,,,,,,,,,,
664c9c1485557ed7abb000b2,TCN,2024-06-10_15h12.11.302,LearnStrategy,2023.2.3,MacIntel,123.4567901,1,1,13,-0.002538029,-0.01379795,1,0,0,1.0805,rock_grid_rect_2,5,06,-1,-1,1.081,-0.352161872,-0.416583995,1,0,0,1.6346,Obsidian_rect,5,1.635,1,12,0,12,0,1,,,,,,,,,,,,
664c9c1485557ed7abb000b2,TCN,2024-06-10_15h12.11.302,LearnStrategy,2023.2.3,MacIntel,123.4567901,1,1,14,-0.025314153,-0.023780589,1,0,0,0.7147,rock_grid_rect_2,6,10,-1,-1,0.715,0.122205688,-0.408895503,1,0,0,1.7005,Peridotite_rect,7,1.701,0,13,0,13,0,1,,,,,,,,,,,,
664c9c1485557ed7abb000b2,TCN,2024-06-10_15h12.11.302,LearnStrategy,2023.2.3,MacIntel,123.4567901,1,1,15,-0.026674107,0.007440476,1,0,0,0.6642,rock_grid_rect_2,4,08,-1,-1,0.664,-0.338062169,-0.233854167,1,0,0,3.4849,Andesite_rect,1,3.485,0,14,0,14,0,1,,,,,,,,,,,,
664c9c1485557ed7abb000b2,TCN,2024-06-10_15h12.11.302,LearnStrategy,2023.2.3,MacIntel,123.4567901,1,1,16,-0.006634425,0.004013724,1,0,0,0.663,rock_grid_rect_2,6,05,-1,-1,0.663,-0.345672123,-0.413760747,1,0,0,2.0024,Obsidian_rect,5,2.002,0,15,0,15,0,1,,,,,,,,,,,,
664c9c1485557ed7abb000b2,TCN,2024-06-10_15h12.11.302,LearnStrategy,2023.2.3,MacIntel,123.4567901,1,2,1,,,,,,,,2,09,,,,,,,,,,,2,6.462,1,,,,,,-0.103141534,-0.240711806,1,0,0,6.4623,Basalt_rect,0,0,0,0,1
664c9c1485557ed7abb000b2,TCN,2024-06-10_15h12.11.302,LearnStrategy,2023.2.3,MacIntel,123.4567901,1,2,2,,,,,,,,3,08,,,,,,,,,,,6,2.466,0,,,,,,-0.158577216,-0.392617394,1,0,0,2.4656,Pegmatite_rect,1,0,1,0,1
664c9c1485557ed7abb000b2,TCN,2024-06-10_15h12.11.302,LearnStrategy,2023.2.3,MacIntel,123.4567901,1,2,3,,,,,,,,6,03,,,,,,,,,,,6,5.533,1,,,,,,-0.068431713,-0.39609375,1,0,0,5.5332,Pegmatite_rect,2,0,2,0,1
664c9c1485557ed7abb000b2,TCN,2024-06-10_15h12.11.302,LearnStrategy,2023.2.3,MacIntel,123.4567901,1,2,4,,,,,,,,5,04,,,,,,,,,,,5,1.018,1,,,,,,-0.316054894,-0.413322586,1,0,0,1.0181,Obsidian_rect,3,0,3,0,1
664c9c1485557ed7abb000b2,TCN,2024-06-10_15h12.11.302,LearnStrategy,2023.2.3,MacIntel,123.4567901,1,2,5,,,,,,,,4,15,,,,,,,,,,,3,3.703,0,,,,,,0.165963955,-0.25968502,1,0,0,3.7025,Diorite_rect,4,0,4,0,1
664c9c1485557ed7abb000b2,TCN,2024-06-10_15h12.11.302,LearnStrategy,2023.2.3,MacIntel,123.4567901,1,2,6,,,,,,,,4,12,,,,,,,,,,,1,1.742,0,,,,,,-0.351492229,-0.261813823,1,0,0,1.7417,Andesite_rect,5,0,5,0,1
664c9c1485557ed7abb000b2,TCN,2024-06-10_15h12.11.302,LearnStrategy,2023.2.3,MacIntel,123.4567901,1,2,7,,,,,,,,2,01,,,,,,,,,,,2,1.274,1,,,,,,-0.106072255,-0.250872189,1,0,0,1.2742,Basalt_rect,6,0,6,0,1
664c9c1485557ed7abb000b2,TCN,2024-06-10_15h12.11.302,LearnStrategy,2023.2.3,MacIntel,123.4567901,1,2,8,,,,,,,,1,07,,,,,,,,,,,6,2.661,0,,,,,,-0.071536045,-0.382626488,1,0,0,2.6609,Pegmatite_rect,7,0,7,0,1
664c9c1485557ed7abb000b2,TCN,2024-06-10_15h12.11.302,LearnStrategy,2023.2.3,MacIntel,123.4567901,1,2,9,,,,,,,,7,05,,,,,,,,,,,7,1.534,1,,,,,,0.069518849,-0.402587632,1,0,0,1.5336,Peridotite_rect,8,0,8,0,1
664c9c1485557ed7abb000b2,TCN,2024-06-10_15h12.11.302,LearnStrategy,2023.2.3,MacIntel,123.4567901,1,2,10,,,,,,,,7,12,,,,,,,,,,,7,0.775,1,,,,,,0.10874256,-0.387776951,1,0,0,0.7749,Peridotite_rect,9,0,9,0,1
664c9c1485557ed7abb000b2,TCN,2024-06-10_15h12.11.302,LearnStrategy,2023.2.3,MacIntel,123.4567901,1,2,11,,,,,,,,6,16,,,,,,,,,,,5,1.076,0,,,,,,-0.360854828,-0.421308697,1,0,0,1.0759,Obsidian_rect,10,0,10,0,1
664c9c1485557ed7abb000b2,TCN,2024-06-10_15h12.11.302,LearnStrategy,2023.2.3,MacIntel,123.4567901,1,2,12,,,,,,,,1,14,,,,,,,,,,,4,1.602,0,,,,,,0.338434193,-0.239736276,1,0,0,1.6025,Gabbro_rect,11,0,11,0,1
664c9c1485557ed7abb000b2,TCN,2024-06-10_15h12.11.302,LearnStrategy,2023.2.3,MacIntel,123.4567901,1,2,13,,,,,,,,3,15,,,,,,,,,,,4,1.609,0,,,,,,0.350553902,-0.26379795,1,0,0,1.6091,Gabbro_rect,12,0,12,0,1
664c9c1485557ed7abb000b2,TCN,2024-06-10_15h12.11.302,LearnStrategy,2023.2.3,MacIntel,123.4567901,1,2,14,,,,,,,,8,06,,,,,,,,,,,8,1.066,1,,,,,,0.359222057,-0.388955026,1,0,0,1.0661,Pumice_rect,13,0,13,0,1
664c9c1485557ed7abb000b2,TCN,2024-06-10_15h12.11.302,LearnStrategy,2023.2.3,MacIntel,123.4567901,1,2,15,,,,,,,,8,14,,,,,,,,,,,8,0.668,1,,,,,,0.361669147,-0.387020503,1,0,0,0.6683,Pumice_rect,14,0,14,0,1
664c9c1485557ed7abb000b2,TCN,2024-06-10_15h12.11.302,LearnStrategy,2023.2.3,MacIntel,123.4567901,1,2,16,,,,,,,,5,02,,,,,,,,,,,5,1.143,1,,,,,,-0.352041997,-0.403211806,1,0,0,1.1432,Obsidian_rect,15,0,15,0,1
664c9c1485557ed7abb000b2,TCN,2024-06-10_15h12.11.302,LearnStrategy,2023.2.3,MacIntel,123.4567901,2,1,1,0.056849372,-0.01099537,1,0,0,1.3407,rock_grid_rect_2,5,11,-1,-1,1.341,-0.347867063,-0.399698247,1,0,0,1.0774,Obsidian_rect,5,1.077,1,0,0,0,0,1,,,,,,,,,,,,
664c9c1485557ed7abb000b2,TCN,2024-06-10_15h12.11.302,LearnStrategy,2023.2.3,MacIntel,123.4567901,2,1,2,-0.000806052,-0.010813492,1,0,0,0.9578,rock_grid_rect_2,2,14,-1,-1,0.958,-0.131258267,-0.233692956,1,0,0,2.3664,Basalt_rect,2,2.366,1,1,0,1,0,1,,,,,,,,,,,,
664c9c1485557ed7abb000b2,TCN,2024-06-10_15h12.11.302,LearnStrategy,2023.2.3,MacIntel,123.4567901,2,1,3,-0.007440476,-0.024541171,1,0,0,0.7482,rock_grid_rect_2,8,05,-1,-1,0.748,0.342824074,-0.414715608,1,0,0,1.0882,Pumice_rect,8,1.088,1,2,0,2,0,1,,,,,,,,,,,,
664c9c1485557ed7abb000b2,TCN,2024-06-10_15h12.11.302,LearnStrategy,2023.2.3,MacIntel,123.4567901,2,1,4,0.072412368,-0.007655423,1,0,0,1.1638,rock_grid_rect_2,7,16,-1,-1,1.164,0.058953373,-0.388566468,1,0,0,2.1683,Peridotite_rect,7,2.168,1,3,0,3,0,1,,,,,,,,,,,,
664c9c1485557ed7abb000b2,TCN,2024-06-10_15h12.11.302,LearnStrategy,2023.2.3,MacIntel,123.4567901,2,1,5,0.015914352,-0.024776786,1,0,0,0.8058,rock_grid_rect_2,3,14,-1,-1,0.806,0.156010251,-0.259060847,1,0,0,2.0344,Diorite_rect,3,2.034,1,4,0,4,0,1,,,,,,,,,,,,
664c9c1485557ed7abb000b2,TCN,2024-06-10_15h12.11.302,LearnStrategy,2023.2.3,MacIntel,123.4567901,2,1,6,0.075384425,-0.017766204,1,0,0,0.7225,rock_grid_rect_2,2,04,-1,-1,0.722,-0.109908234,-0.259069114,1,0,0,1.3334,Basalt_rect,2,1.333,1,5,0,5,0,1,,,,,,,,,,,,
664c9c1485557ed7abb000b2,TCN,2024-06-10_15h12.11.302,LearnStrategy,2023.2.3,MacIntel,123.4567901,2,1,7,0.045221561,-0.005076058,1,0,0,0.6471,rock_grid_rect_2,4,11,-1,-1,0.647,-0.075760582,-0.270630787,1,0,0,3.4853,Basalt_rect,2,3.485,0,6,0,6,0,1,,,,,,,,,,,,
664c9c1485557ed7abb000b2,TCN,2024-06-10_15h12.11.302,LearnStrategy,2023.2.3,MacIntel,123.4567901,2,1,8,0.008411872,-0.023710317,1,0,0,0.6237,rock_grid_rect_2,5,05,-1,-1,0.624,-0.371916336,-0.407969577,1,0,0,1.103,Obsidian_rect,5,1.103,1,7,0,7,0,1,,,,,,,,,,,,
664c9c1485557ed7abb000b2,TCN,2024-06-10_15h12.11.302,LearnStrategy,2023.2.3,MacIntel,123.4567901,2,1,9,0.009077381,-0.003678902,1,0,0,0.7319,rock_grid_rect_2,4,14,-1,-1,0.732,0.321143353,-0.234924769,1,0,0,1.4549,Gabbro_rect,4,1.455,1,8,0,8,0,1,,,,,,,,,,,,
664c9c1485557ed7abb000b2,TCN,2024-06-10_15h12.11.302,LearnStrategy,2023.2.3,MacIntel,123.4567901,2,1,10,0.049202216,-0.023640046,1,0,0,0.6058,rock_grid_rect_2,1,06,-1,-1,0.606,-0.379571759,-0.246560847,1,0,0,2.3509,Andesite_rect,1,2.351,1,9,0,9,0,1,,,,,,,,,,,,
664c9c1485557ed7abb000b2,TCN,2024-06-10_15h12.11.302,LearnStrategy,2023.2.3,MacIntel,123.4567901,2,1,11,-0.020833333,-0.019432044,1,0,0,0.5975,rock_grid_rect_2,6,08,-1,-1,0.597,-0.374078208,-0.387061839,1,0,0,1.1243,Obsidian_rect,5,1.124,0,10,0,10,0,1,,,,,,,,,,,,
664c9c1485557ed7abb000b2,TCN,2024-06-10_15h12.11.302,LearnStrategy,2023.2.3,MacIntel,123.4567901,2,1,12,-0.050326554,0.007432209,1,0,0,0.6221,rock_grid_rect_2,6,13,-1,-1,0.622,-0.317547123,-0.392456184,1,0,0,2.951,Obsidian_rect,5,2.951,0,11,0,11,0,1,,,,,,,,,,,,
664c9c1485557ed7abb000b2,TCN,2024-06-10_15h12.11.302,LearnStrategy,2023.2.3,MacIntel,123.4567901,2,1,13,0.008969907,0.00047123,1,0,0,0.5634,rock_grid_rect_2,1,04,-1,-1,0.563,0.359771825,-0.253703704,1,0,0,1.8753,Gabbro_rect,4,1.875,0,12,0,12,0,1,,,,,,,,,,,,
664c9c1485557ed7abb000b2,TCN,2024-06-10_15h12.11.302,LearnStrategy,2023.2.3,MacIntel,123.4567901,2,1,14,0.018803737,-0.022118882,1,0,0,0.9905,rock_grid_rect_2,8,16,-1,-1,0.99,0.314661872,-0.38129547,1,0,0,0.968,Pumice_rect,8,0.968,1,13,0,13,0,1,,,,,,,,,,,,
664c9c1485557ed7abb000b2,TCN,2024-06-10_15h12.11.302,LearnStrategy,2023.2.3,MacIntel,123.4567901,2,1,15,0.012607474,0.008304398,1,0,0,0.7061,rock_grid_rect_2,3,10,-1,-1,0.706,0.429861111,-0.260234788,1,0,0,2.87,Gabbro_rect,4,2.87,0,14,0,14,0,1,,,,,,,,,,,,
664c9c1485557ed7abb000b2,TCN,2024-06-10_15h12.11.302,LearnStrategy,2023.2.3,MacIntel,123.4567901,2,1,16,0.023148148,-0.022937335,1,0,0,0.5979,rock_grid_rect_2,7,04,-1,-1,0.598,0.097466104,-0.233457341,1,0,0,1.0276,Diorite_rect,3,1.028,0,15,0,15,0,1,,,,,,,,,,,,
664c9c1485557ed7abb000b2,TCN,2024-06-10_15h12.11.302,LearnStrategy,2023.2.3,MacIntel,123.4567901,2,2,1,,,,,,,,7,15,,,,,,,,,,,7,1.45,1,,,,,,0.096354167,-0.389934689,1,0,0,1.4502,Peridotite_rect,0,0,0,0,1
664c9c1485557ed7abb000b2,TCN,2024-06-10_15h12.11.302,LearnStrategy,2023.2.3,MacIntel,123.4567901,2,2,2,,,,,,,,3,13,,,,,,,,,,,4,2.567,0,,,,,,0.377083333,-0.236731151,1,0,0,2.5673,Gabbro_rect,1,0,1,0,1
664c9c1485557ed7abb000b2,TCN,2024-06-10_15h12.11.302,LearnStrategy,2023.2.3,MacIntel,123.4567901,2,2,3,,,,,,,,5,08,,,,,,,,,,,5,0.976,1,,,,,,-0.325710979,-0.410912698,1,0,0,0.9761,Obsidian_rect,2,0,2,0,1
664c9c1485557ed7abb000b2,TCN,2024-06-10_15h12.11.302,LearnStrategy,2023.2.3,MacIntel,123.4567901,2,2,4,,,,,,,,8,04,,,,,,,,,,,8,0.768,1,,,,,,0.354563492,-0.394502315,1,0,0,0.7682,Pumice_rect,3,0,3,0,1
664c9c1485557ed7abb000b2,TCN,2024-06-10_15h12.11.302,LearnStrategy,2023.2.3,MacIntel,123.4567901,2,2,5,,,,,,,,6,07,,,,,,,,,,,1,4.367,0,,,,,,-0.300066138,-0.268696263,1,0,0,4.3672,Andesite_rect,4,0,4,0,1
664c9c1485557ed7abb000b2,TCN,2024-06-10_15h12.11.302,LearnStrategy,2023.2.3,MacIntel,123.4567901,2,2,6,,,,,,,,8,09,,,,,,,,,,,8,0.918,1,,,,,,0.399557705,-0.397974537,1,0,0,0.9184,Pumice_rect,5,0,5,0,1
664c9c1485557ed7abb000b2,TCN,2024-06-10_15h12.11.302,LearnStrategy,2023.2.3,MacIntel,123.4567901,2,2,7,,,,,,,,2,06,,,,,,,,,,,2,1.71,1,,,,,,-0.121643519,-0.245333168,1,0,0,1.7099,Basalt_rect,6,0,6,0,1
664c9c1485557ed7abb000b2,TCN,2024-06-10_15h12.11.302,LearnStrategy,2023.2.3,MacIntel,123.4567901,2,2,8,,,,,,,,2,16,,,,,,,,,,,2,1.509,1,,,,,,-0.077277612,-0.268088624,1,0,0,1.5094,Basalt_rect,7,0,7,0,1
664c9c1485557ed7abb000b2,TCN,2024-06-10_15h12.11.302,LearnStrategy,2023.2.3,MacIntel,123.4567901,2,2,9,,,,,,,,7,07,,,,,,,,,,,6,2.335,0,,,,,,-0.128616898,-0.399421296,1,0,0,2.3349,Pegmatite_rect,8,0,8,0,1
664c9c1485557ed7abb000b2,TCN,2024-06-10_15h12.11.302,LearnStrategy,2023.2.3,MacIntel,123.4567901,2,2,10,,,,,,,,3,09,,,,,,,,,,,3,2.829,1,,,,,,0.084651951,-0.239657738,1,0,0,2.8288,Diorite_rect,9,0,9,0,1
664c9c1485557ed7abb000b2,TCN,2024-06-10_15h12.11.302,LearnStrategy,2023.2.3,MacIntel,123.4567901,2,2,11,,,,,,,,5,14,,,,,,,,,,,5,0.941,1,,,,,,-0.314541997,-0.396006944,1,0,0,0.9414,Obsidian_rect,10,0,10,0,1
664c9c1485557ed7abb000b2,TCN,2024-06-10_15h12.11.302,LearnStrategy,2023.2.3,MacIntel,123.4567901,2,2,12,,,,,,,,4,10,,,,,,,,,,,2,3.202,0,,,,,,-0.188099372,-0.262446263,1,0,0,3.2017,Basalt_rect,11,0,11,0,1
664c9c1485557ed7abb000b2,TCN,2024-06-10_15h12.11.302,LearnStrategy,2023.2.3,MacIntel,123.4567901,2,2,13,,,,,,,,1,16,,,,,,,,,,,3,2.608,0,,,,,,0.129534557,-0.236416997,1,0,0,2.6082,Diorite_rect,12,0,12,0,1
664c9c1485557ed7abb000b2,TCN,2024-06-10_15h12.11.302,LearnStrategy,2023.2.3,MacIntel,123.4567901,2,2,14,,,,,,,,1,10,,,,,,,,,,,1,1.539,1,,,,,,-0.345419974,-0.261958499,1,0,0,1.5394,Andesite_rect,13,0,13,0,1
664c9c1485557ed7abb000b2,TCN,2024-06-10_15h12.11.302,LearnStrategy,2023.2.3,MacIntel,123.4567901,2,2,15,,,,,,,,4,05,,,,,,,,,,,4,2.159,1,,,,,,0.351364087,-0.237504134,1,0,0,2.1593,Gabbro_rect,14,0,14,0,1
664c9c1485557ed7abb000b2,TCN,2024-06-10_15h12.11.302,LearnStrategy,2023.2.3,MacIntel,123.4567901,2,2,16,,,,,,,,6,15,,,,,,,,,,,5,1.226,0,,,,,,-0.308043981,-0.417902612,1,0,0,1.2264,Obsidian_rect,15,0,15,0,1
664c9c1485557ed7abb000b2,TCN,2024-06-10_15h12.11.302,LearnStrategy,2023.2.3,MacIntel,123.4567901,3,1,1,-0.034899967,-0.003062996,1,0,0,1.1438,rock_grid_rect_2,2,08,-1,-1,1.144,-0.087520668,-0.230067791,1,0,0,1.769,Basalt_rect,2,1.769,1,0,0,0,0,1,,,,,,,,,,,,
664c9c1485557ed7abb000b2,TCN,2024-06-10_15h12.11.302,LearnStrategy,2023.2.3,MacIntel,123.4567901,3,1,2,0.007634755,-0.021474041,1,0,0,0.8725,rock_grid_rect_2,2,05,-1,-1,0.872,-0.093419312,-0.25896164,1,0,0,1.0506,Basalt_rect,2,1.051,1,1,0,1,0,1,,,,,,,,,,,,
664c9c1485557ed7abb000b2,TCN,2024-06-10_15h12.11.302,LearnStrategy,2023.2.3,MacIntel,123.4567901,3,1,3,0.016079696,0.016286376,1,0,0,0.7058,rock_grid_rect_2,5,12,-1,-1,0.706,-0.368894676,-0.3953125,1,0,0,0.9614,Obsidian_rect,5,0.961,1,2,0,2,0,1,,,,,,,,,,,,
664c9c1485557ed7abb000b2,TCN,2024-06-10_15h12.11.302,LearnStrategy,2023.2.3,MacIntel,123.4567901,3,1,4,0.02286293,0.007283399,1,0,0,0.731,rock_grid_rect_2,3,02,-1,-1,0.731,0.12563244,-0.245701058,1,0,0,2.0009,Diorite_rect,3,2.001,1,3,0,3,0,1,,,,,,,,,,,,
664c9c1485557ed7abb000b2,TCN,2024-06-10_15h12.11.302,LearnStrategy,2023.2.3,MacIntel,123.4567901,3,1,5,0.009945437,-0.010577877,1,0,0,0.7215,rock_grid_rect_2,6,12,-1,-1,0.721,-0.316621197,-0.26390129,1,0,0,1.375,Andesite_rect,1,1.375,0,4,0,4,0,1,,,,,,,,,,,,
664c9c1485557ed7abb000b2,TCN,2024-06-10_15h12.11.302,LearnStrategy,2023.2.3,MacIntel,123.4567901,3,1,6,0.017737269,-0.010499339,1,0,0,0.8364,rock_grid_rect_2,6,06,-1,-1,0.836,0.382787698,-0.246040013,1,0,0,3.8868,Gabbro_rect,4,3.887,0,5,0,5,0,1,,,,,,,,,,,,
664c9c1485557ed7abb000b2,TCN,2024-06-10_15h12.11.302,LearnStrategy,2023.2.3,MacIntel,123.4567901,3,1,7,0.075595238,-0.0067667,1,0,0,0.6726,rock_grid_rect_2,7,02,-1,-1,0.673,0.143249835,-0.419783399,1,0,0,1.2418,Peridotite_rect,7,1.242,1,6,0,6,0,1,,,,,,,,,,,,
664c9c1485557ed7abb000b2,TCN,2024-06-10_15h12.11.302,LearnStrategy,2023.2.3,MacIntel,123.4567901,3,1,8,0.108630952,-0.014715608,1,0,0,0.9631,rock_grid_rect_2,8,03,-1,-1,0.963,0.364178241,-0.38667328,1,0,0,0.9481,Pumice_rect,8,0.948,1,7,0,7,0,1,,,,,,,,,,,,
664c9c1485557ed7abb000b2,TCN,2024-06-10_15h12.11.302,LearnStrategy,2023.2.3,MacIntel,123.4567901,3,1,9,0.094580853,0.008354001,1,0,0,0.6046,rock_grid_rect_2,4,01,-1,-1,0.605,0.068894676,-0.255295139,1,0,0,2.0789,Diorite_rect,3,2.079,0,8,0,8,0,1,,,,,,,,,,,,
664c9c1485557ed7abb000b2,TCN,2024-06-10_15h12.11.302,LearnStrategy,2023.2.3,MacIntel,123.4567901,3,1,10,0.034850364,0.005609292,1,0,0,0.9804,rock_grid_rect_2,1,11,-1,-1,0.98,-0.130601025,-0.249805721,1,0,0,2.9758,Basalt_rect,2,2.976,0,9,0,9,0,1,,,,,,,,,,,,
664c9c1485557ed7abb000b2,TCN,2024-06-10_15h12.11.302,LearnStrategy,2023.2.3,MacIntel,123.4567901,3,1,11,0.109883433,0.012375992,1,0,0,0.6803,rock_grid_rect_2,4,16,-1,-1,0.68,-0.044708995,-0.24588707,1,0,0,1.3678,Basalt_rect,2,1.368,0,10,0,10,0,1,,,,,,,,,,,,
664c9c1485557ed7abb000b2,TCN,2024-06-10_15h12.11.302,LearnStrategy,2023.2.3,MacIntel,123.4567901,3,1,12,0.027848049,0.017439649,1,0,0,0.5391,rock_grid_rect_2,3,16,-1,-1,0.539,0.136784888,-0.249214616,1,0,0,2.5363,Diorite_rect,3,2.536,1,11,0,11,0,1,,,,,,,,,,,,
664c9c1485557ed7abb000b2,TCN,2024-06-10_15h12.11.302,LearnStrategy,2023.2.3,MacIntel,123.4567901,3,1,13,0.087760417,-0.011536872,1,0,0,0.7141,rock_grid_rect_2,8,15,-1,-1,0.714,0.380138062,-0.391005291,1,0,0,0.9859,Pumice_rect,8,0.986,1,12,0,12,0,1,,,,,,,,,,,,
664c9c1485557ed7abb000b2,TCN,2024-06-10_15h12.11.302,LearnStrategy,2023.2.3,MacIntel,123.4567901,3,1,14,0.085796958,-0.020019015,1,0,0,0.6562,rock_grid_rect_2,7,14,-1,-1,0.656,0.094043485,-0.399656911,1,0,0,1.2529,Peridotite_rect,7,1.253,1,13,0,13,0,1,,,,,,,,,,,,
664c9c1485557ed7abb000b2,TCN,2024-06-10_15h12.11.302,LearnStrategy,2023.2.3,MacIntel,123.4567901,3,1,15,0.074454365,-0.014595734,1,0,0,0.5804,rock_grid_rect_2,1,09,-1,-1,0.58,0.095329034,-0.243547454,1,0,0,2.4442,Diorite_rect,3,2.444,0,14,0,14,0,1,,,,,,,,,,,,
664c9c1485557ed7abb000b2,TCN,2024-06-10_15h12.11.302,LearnStrategy,2023.2.3,MacIntel,123.4567901,3,1,16,0.04926422,-0.018667328,1,0,0,0.848,rock_grid_rect_2,5,10,-1,-1,0.848,-0.3255167,-0.399698247,1,0,0,0.9866,Obsidian_rect,5,0.987,1,15,0,15,0,1,,,,,,,,,,,,
664c9c1485557ed7abb000b2,TCN,2024-06-10_15h12.11.302,LearnStrategy,2023.2.3,MacIntel,123.4567901,3,2,1,,,,,,,,2,02,,,,,,,,,,,1,2.185,0,,,,,,-0.342088294,-0.236772487,1,0,0,2.1846,Andesite_rect,0,0,0,0,1
664c9c1485557ed7abb000b2,TCN,2024-06-10_15h12.11.302,LearnStrategy,2023.2.3,MacIntel,123.4567901,3,2,2,,,,,,,,4,09,,,,,,,,,,,2,3.134,0,,,,,,-0.083147321,-0.239773479,1,0,0,3.1338,Basalt_rect,1,0,1,0,1
664c9c1485557ed7abb000b2,TCN,2024-06-10_15h12.11.302,LearnStrategy,2023.2.3,MacIntel,123.4567901,3,2,3,,,,,,,,4,13,,,,,,,,,,,6,1.994,0,,,,,,-0.099243552,-0.408172123,1,0,0,1.994,Pegmatite_rect,2,0,2,0,1
664c9c1485557ed7abb000b2,TCN,2024-06-10_15h12.11.302,LearnStrategy,2023.2.3,MacIntel,123.4567901,3,2,4,,,,,,,,3,11,,,,,,,,,,,3,2.283,1,,,,,,0.126041667,-0.256035053,1,0,0,2.2829,Diorite_rect,3,0,3,0,1
664c9c1485557ed7abb000b2,TCN,2024-06-10_15h12.11.302,LearnStrategy,2023.2.3,MacIntel,123.4567901,3,2,5,,,,,,,,1,02,,,,,,,,,,,4,1.128,0,,,,,,0.33766121,-0.232043651,1,0,0,1.1281,Gabbro_rect,4,0,4,0,1
664c9c1485557ed7abb000b2,TCN,2024-06-10_15h12.11.302,LearnStrategy,2023.2.3,MacIntel,123.4567901,3,2,6,,,,,,,,2,11,,,,,,,,,,,2,2.251,1,,,,,,-0.139405589,-0.236532738,1,0,0,2.2514,Basalt_rect,5,0,5,0,1
664c9c1485557ed7abb000b2,TCN,2024-06-10_15h12.11.302,LearnStrategy,2023.2.3,MacIntel,123.4567901,3,2,7,,,,,,,,3,07,,,,,,,,,,,6,1.359,0,,,,,,-0.144510582,-0.398606978,1,0,0,1.3588,Pegmatite_rect,6,0,6,0,1
664c9c1485557ed7abb000b2,TCN,2024-06-10_15h12.11.302,LearnStrategy,2023.2.3,MacIntel,123.4567901,3,2,8,,,,,,,,8,10,,,,,,,,,,,8,1.21,1,,,,,,0.354501488,-0.418179563,1,0,0,1.2099,Pumice_rect,7,0,7,0,1
664c9c1485557ed7abb000b2,TCN,2024-06-10_15h12.11.302,LearnStrategy,2023.2.3,MacIntel,123.4567901,3,2,9,,,,,,,,6,09,,,,,,,,,,,7,1.125,0,,,,,,0.167361111,-0.389008763,1,0,0,1.1245,Peridotite_rect,8,0,8,0,1
664c9c1485557ed7abb000b2,TCN,2024-06-10_15h12.11.302,LearnStrategy,2023.2.3,MacIntel,123.4567901,3,2,10,,,,,,,,1,01,,,,,,,,,,,1,3.909,1,,,,,,-0.320329034,-0.259457672,1,0,0,3.9093,Andesite_rect,9,0,9,0,1
664c9c1485557ed7abb000b2,TCN,2024-06-10_15h12.11.302,LearnStrategy,2023.2.3,MacIntel,123.4567901,3,2,11,,,,,,,,7,13,,,,,,,,,,,7,1.001,1,,,,,,0.078902116,-0.408411872,1,0,0,1.0012,Peridotite_rect,10,0,10,0,1
664c9c1485557ed7abb000b2,TCN,2024-06-10_15h12.11.302,LearnStrategy,2023.2.3,MacIntel,123.4567901,3,2,12,,,,,,,,6,11,,,,,,,,,,,5,1.045,0,,,,,,-0.321230159,-0.416497189,1,0,0,1.0452,Obsidian_rect,11,0,11,0,1
664c9c1485557ed7abb000b2,TCN,2024-06-10_15h12.11.302,LearnStrategy,2023.2.3,MacIntel,123.4567901,3,2,13,,,,,,,,5,16,,,,,,,,,,,5,0.76,1,,,,,,-0.344704861,-0.400553902,1,0,0,0.7602,Obsidian_rect,12,0,12,0,1
664c9c1485557ed7abb000b2,TCN,2024-06-10_15h12.11.302,LearnStrategy,2023.2.3,MacIntel,123.4567901,3,2,14,,,,,,,,5,07,,,,,,,,,,,5,0.835,1,,,,,,-0.373950066,-0.397110615,1,0,0,0.8353,Obsidian_rect,13,0,13,0,1
664c9c1485557ed7abb000b2,TCN,2024-06-10_15h12.11.302,LearnStrategy,2023.2.3,MacIntel,123.4567901,3,2,15,,,,,,,,7,10,,,,,,,,,,,7,1.032,1,,,,,,0.069522983,-0.396019345,1,0,0,1.0321,Peridotite_rect,14,0,14,0,1
664c9c1485557ed7abb000b2,TCN,2024-06-10_15h12.11.302,LearnStrategy,2023.2.3,MacIntel,123.4567901,3,2,16,,,,,,,,8,13,,,,,,,,,,,8,2.468,1,,,,,,0.374433697,-0.38781002,1,0,0,2.4675,Pumice_rect,15,0,15,0,1
664c9c1485557ed7abb000b2,TCN,2024-06-10_15h12.11.302,LearnStrategy,2023.2.3,MacIntel,123.4567901,4,1,1,0.131245866,-0.012673611,1,0,0,1.2281,rock_grid_rect_2,6,12,-1,-1,1.228,0.10552662,-0.239446925,1,0,0,2.4695,Diorite_rect,3,2.469,0,0,0,0,0,1,,,,,,,,,,,,
664c9c1485557ed7abb000b2,TCN,2024-06-10_15h12.11.302,LearnStrategy,2023.2.3,MacIntel,123.4567901,4,1,2,0.031994048,0.007407407,1,0,0,0.6885,rock_grid_rect_2,8,15,-1,-1,0.688,0.38223793,-0.406163194,1,0,0,1.16,Pumice_rect,8,1.16,1,1,0,1,0,1,,,,,,,,,,,,
664c9c1485557ed7abb000b2,TCN,2024-06-10_15h12.11.302,LearnStrategy,2023.2.3,MacIntel,123.4567901,4,1,3,0.06124752,-0.009664352,1,0,0,0.9488,rock_grid_rect_2,5,09,-1,-1,0.949,-0.341679067,-0.420258763,1,0,0,1.476,Obsidian_rect,5,1.476,1,2,0,2,0,1,,,,,,,,,,,,
664c9c1485557ed7abb000b2,TCN,2024-06-10_15h12.11.302,LearnStrategy,2023.2.3,MacIntel,123.4567901,4,1,4,-0.006576554,-0.022275959,1,0,0,0.7054,rock_grid_rect_2,1,04,-1,-1,0.705,0.344717262,-0.24989666,1,0,0,1.6676,Gabbro_rect,4,1.668,0,3,0,3,0,1,,,,,,,,,,,,
664c9c1485557ed7abb000b2,TCN,2024-06-10_15h12.11.302,LearnStrategy,2023.2.3,MacIntel,123.4567901,4,1,5,0.020068618,-0.017654597,1,0,0,0.5481,rock_grid_rect_2,4,16,-1,-1,0.548,-0.089037698,-0.238029101,1,0,0,1.1007,Basalt_rect,2,1.101,0,4,0,4,0,1,,,,,,,,,,,,
664c9c1485557ed7abb000b2,TCN,2024-06-10_15h12.11.302,LearnStrategy,2023.2.3,MacIntel,123.4567901,4,1,6,-0.008035714,0.000661376,1,0,0,0.8557,rock_grid_rect_2,2,08,-1,-1,0.856,-0.117691799,-0.228815311,1,0,0,1.2204,Basalt_rect,2,1.22,1,5,0,5,0,1,,,,,,,,,,,,
664c9c1485557ed7abb000b2,TCN,2024-06-10_15h12.11.302,LearnStrategy,2023.2.3,MacIntel,123.4567901,4,1,7,-0.03760334,-0.016894015,1,0,0,0.9899,rock_grid_rect_2,5,06,-1,-1,0.99,-0.3729208,-0.391724537,1,0,0,0.959,Obsidian_rect,5,0.959,1,6,0,6,0,1,,,,,,,,,,,,
664c9c1485557ed7abb000b2,TCN,2024-06-10_15h12.11.302,LearnStrategy,2023.2.3,MacIntel,123.4567901,4,1,8,0.020469577,-0.005948247,1,0,0,0.6482,rock_grid_rect_2,4,11,-1,-1,0.648,0.079551091,-0.241439319,1,0,0,3.159,Diorite_rect,3,3.159,0,7,0,7,0,1,,,,,,,,,,,,
664c9c1485557ed7abb000b2,TCN,2024-06-10_15h12.11.302,LearnStrategy,2023.2.3,MacIntel,123.4567901,4,1,9,0.035536541,-0.01792328,1,0,0,0.9654,rock_grid_rect_2,7,06,-1,-1,0.965,0.110168651,-0.401984127,1,0,0,1.3645,Peridotite_rect,7,1.364,1,8,0,8,0,1,,,,,,,,,,,,
664c9c1485557ed7abb000b2,TCN,2024-06-10_15h12.11.302,LearnStrategy,2023.2.3,MacIntel,123.4567901,4,1,10,0.00760582,0.014174107,1,0,0,0.7542,rock_grid_rect_2,1,03,-1,-1,0.754,-0.441530258,-0.240852348,1,0,0,3.261,Andesite_rect,1,3.261,1,9,0,9,0,1,,,,,,,,,,,,
664c9c1485557ed7abb000b2,TCN,2024-06-10_15h12.11.302,LearnStrategy,2023.2.3,MacIntel,123.4567901,4,1,11,0.067195767,-0.005340608,1,0,0,0.8557,rock_grid_rect_2,8,08,-1,-1,0.856,0.381911376,-0.405063657,1,0,0,2.4354,Pumice_rect,8,2.435,1,10,0,10,0,1,,,,,,,,,,,,
664c9c1485557ed7abb000b2,TCN,2024-06-10_15h12.11.302,LearnStrategy,2023.2.3,MacIntel,123.4567901,4,1,12,0.039744544,-0.000710979,1,0,0,0.898,rock_grid_rect_2,6,08,-1,-1,0.898,-0.123879795,-0.392241237,1,0,0,2.0673,Pegmatite_rect,6,2.067,1,11,0,11,0,1,,,,,,,,,,,,
664c9c1485557ed7abb000b2,TCN,2024-06-10_15h12.11.302,LearnStrategy,2023.2.3,MacIntel,123.4567901,4,1,13,0.07567791,-0.01603836,1,0,0,0.6468,rock_grid_rect_2,7,08,-1,-1,0.647,0.169663525,-0.403158069,1,0,0,2.0545,Peridotite_rect,7,2.055,1,12,0,12,0,1,,,,,,,,,,,,
664c9c1485557ed7abb000b2,TCN,2024-06-10_15h12.11.302,LearnStrategy,2023.2.3,MacIntel,123.4567901,4,1,14,0.051959325,-0.010540675,1,0,0,0.6304,rock_grid_rect_2,3,10,-1,-1,0.63,0.183159722,-0.259180721,1,0,0,3.0287,Diorite_rect,3,3.029,1,13,0,13,0,1,,,,,,,,,,,,
664c9c1485557ed7abb000b2,TCN,2024-06-10_15h12.11.302,LearnStrategy,2023.2.3,MacIntel,123.4567901,4,1,15,0.018737599,-0.00641121,1,0,0,0.8389,rock_grid_rect_2,2,14,-1,-1,0.839,-0.062929894,-0.252500827,1,0,0,1.9028,Basalt_rect,2,1.903,1,14,0,14,0,1,,,,,,,,,,,,
664c9c1485557ed7abb000b2,TCN,2024-06-10_15h12.11.302,LearnStrategy,2023.2.3,MacIntel,123.4567901,4,1,16,0.047284226,-0.006270668,1,0,0,0.6568,rock_grid_rect_2,3,12,-1,-1,0.657,0.185408399,-0.229815642,1,0,0,2.5845,Diorite_rect,3,2.584,1,15,0,15,0,1,,,,,,,,,,,,
664c9c1485557ed7abb000b2,TCN,2024-06-10_15h12.11.302,LearnStrategy,2023.2.3,MacIntel,123.4567901,4,2,1,,,,,,,,2,11,,,,,,,,,,,1,4.01,0,,,,,,-0.448040675,-0.268146495,1,0,0,4.0098,Andesite_rect,0,0,0,0,1
664c9c1485557ed7abb000b2,TCN,2024-06-10_15h12.11.302,LearnStrategy,2023.2.3,MacIntel,123.4567901,4,2,2,,,,,,,,4,12,,,,,,,,,,,1,4.525,0,,,,,,-0.360623347,-0.254823909,1,0,0,4.5252,Andesite_rect,1,0,1,0,1
664c9c1485557ed7abb000b2,TCN,2024-06-10_15h12.11.302,LearnStrategy,2023.2.3,MacIntel,123.4567901,4,2,3,,,,,,,,3,15,,,,,,,,,,,4,1.166,0,,,,,,0.463186177,-0.258130787,1,0,0,1.1663,Gabbro_rect,2,0,2,0,1
664c9c1485557ed7abb000b2,TCN,2024-06-10_15h12.11.302,LearnStrategy,2023.2.3,MacIntel,123.4567901,4,2,4,,,,,,,,3,07,,,,,,,,,,,4,3.912,0,,,,,,0.416608796,-0.245775463,1,0,0,3.9118,Gabbro_rect,3,0,3,0,1
664c9c1485557ed7abb000b2,TCN,2024-06-10_15h12.11.302,LearnStrategy,2023.2.3,MacIntel,123.4567901,4,2,5,,,,,,,,5,07,,,,,,,,,,,5,1.485,1,,,,,,-0.342774471,-0.384970238,1,0,0,1.4847,Obsidian_rect,4,0,4,0,1
664c9c1485557ed7abb000b2,TCN,2024-06-10_15h12.11.302,LearnStrategy,2023.2.3,MacIntel,123.4567901,4,2,6,,,,,,,,5,16,,,,,,,,,,,5,0.53,1,,,,,,-0.405237269,-0.404877646,1,0,0,0.5298,Obsidian_rect,5,0,5,0,1
664c9c1485557ed7abb000b2,TCN,2024-06-10_15h12.11.302,LearnStrategy,2023.2.3,MacIntel,123.4567901,4,2,7,,,,,,,,6,09,,,,,,,,,,,7,0.949,0,,,,,,0.079332011,-0.394874339,1,0,0,0.9494,Peridotite_rect,6,0,6,0,1
664c9c1485557ed7abb000b2,TCN,2024-06-10_15h12.11.302,LearnStrategy,2023.2.3,MacIntel,123.4567901,4,2,8,,,,,,,,7,15,,,,,,,,,,,7,2.203,1,,,,,,0.097652116,-0.396027612,1,0,0,2.2033,Peridotite_rect,7,0,7,0,1
664c9c1485557ed7abb000b2,TCN,2024-06-10_15h12.11.302,LearnStrategy,2023.2.3,MacIntel,123.4567901,4,2,9,,,,,,,,2,06,,,,,,,,,,,2,2.259,1,,,,,,-0.212739749,-0.257589286,1,0,0,2.2594,Basalt_rect,8,0,8,0,1
664c9c1485557ed7abb000b2,TCN,2024-06-10_15h12.11.302,LearnStrategy,2023.2.3,MacIntel,123.4567901,4,2,10,,,,,,,,1,10,,,,,,,,,,,1,4.925,1,,,,,,-0.352719907,-0.261189649,1,0,0,4.9251,Andesite_rect,9,0,9,0,1
664c9c1485557ed7abb000b2,TCN,2024-06-10_15h12.11.302,LearnStrategy,2023.2.3,MacIntel,123.4567901,4,2,11,,,,,,,,8,06,,,,,,,,,,,8,1.083,1,,,,,,0.321990741,-0.380559689,1,0,0,1.0831,Pumice_rect,10,0,10,0,1
664c9c1485557ed7abb000b2,TCN,2024-06-10_15h12.11.302,LearnStrategy,2023.2.3,MacIntel,123.4567901,4,2,12,,,,,,,,1,01,,,,,,,,,,,4,2.367,0,,,,,,0.346812996,-0.244448578,1,0,0,2.3674,Gabbro_rect,11,0,11,0,1
664c9c1485557ed7abb000b2,TCN,2024-06-10_15h12.11.302,LearnStrategy,2023.2.3,MacIntel,123.4567901,4,2,13,,,,,,,,4,10,,,,,,,,,,,2,1.325,0,,,,,,-0.098214286,-0.257477679,1,0,0,1.3251,Basalt_rect,12,0,12,0,1
664c9c1485557ed7abb000b2,TCN,2024-06-10_15h12.11.302,LearnStrategy,2023.2.3,MacIntel,123.4567901,4,2,14,,,,,,,,8,14,,,,,,,,,,,8,0.833,1,,,,,,0.379910714,-0.392121362,1,0,0,0.8327,Pumice_rect,13,0,13,0,1
664c9c1485557ed7abb000b2,TCN,2024-06-10_15h12.11.302,LearnStrategy,2023.2.3,MacIntel,123.4567901,4,2,15,,,,,,,,6,07,,,,,,,,,,,6,2.56,1,,,,,,-0.152190807,-0.40484871,1,0,0,2.5596,Pegmatite_rect,14,0,14,0,1
664c9c1485557ed7abb000b2,TCN,2024-06-10_15h12.11.302,LearnStrategy,2023.2.3,MacIntel,123.4567901,4,2,16,,,,,,,,7,07,,,,,,,,,,,7,0.958,1,,,,,,0.100640708,-0.399227017,1,0,0,0.9581,Peridotite_rect,15,0,15,0,1
664c9c1485557ed7abb000b2,TCN,2024-06-10_15h12.11.302,LearnStrategy,2023.2.3,MacIntel,123.4567901,5,1,1,0.063777282,0.005894511,1,0,0,0.9432,rock_grid_rect_2,1,11,-1,-1,0.943,-0.365145503,-0.232304067,1,0,0,2.3417,Andesite_rect,1,2.342,1,0,0,0,0,1,,,,,,,,,,,,
664c9c1485557ed7abb000b2,TCN,2024-06-10_15h12.11.302,LearnStrategy,2023.2.3,MacIntel,123.4567901,5,1,2,0.03151455,-0.003463955,1,0,0,0.7736,rock_grid_rect_2,3,06,-1,-1,0.774,0.161900628,-0.228410218,1,0,0,1.2934,Diorite_rect,3,1.293,1,1,0,1,0,1,,,,,,,,,,,,
664c9c1485557ed7abb000b2,TCN,2024-06-10_15h12.11.302,LearnStrategy,2023.2.3,MacIntel,123.4567901,5,1,3,0.053674769,-0.017629795,1,0,0,0.6553,rock_grid_rect_2,6,06,-1,-1,0.655,-0.085759755,-0.401550099,1,0,0,2.9302,Pegmatite_rect,6,2.93,1,2,0,2,0,1,,,,,,,,,,,,
664c9c1485557ed7abb000b2,TCN,2024-06-10_15h12.11.302,LearnStrategy,2023.2.3,MacIntel,123.4567901,5,1,4,0.062330522,0.003220073,1,0,0,1.0817,rock_grid_rect_2,8,16,-1,-1,1.082,0.355344742,-0.382589286,1,0,0,1.0974,Pumice_rect,8,1.097,1,3,0,3,0,1,,,,,,,,,,,,
664c9c1485557ed7abb000b2,TCN,2024-06-10_15h12.11.302,LearnStrategy,2023.2.3,MacIntel,123.4567901,5,1,5,0.094572586,-0.023139881,1,0,0,0.5972,rock_grid_rect_2,7,14,-1,-1,0.597,0.08755787,-0.41938244,1,0,0,1.2938,Peridotite_rect,7,1.294,1,4,0,4,0,1,,,,,,,,,,,,
664c9c1485557ed7abb000b2,TCN,2024-06-10_15h12.11.302,LearnStrategy,2023.2.3,MacIntel,123.4567901,5,1,6,0.058010913,-0.010247189,1,0,0,0.9147,rock_grid_rect_2,4,14,-1,-1,0.915,-0.067534722,-0.255427414,1,0,0,1.7862,Basalt_rect,2,1.786,0,5,0,5,0,1,,,,,,,,,,,,
664c9c1485557ed7abb000b2,TCN,2024-06-10_15h12.11.302,LearnStrategy,2023.2.3,MacIntel,123.4567901,5,1,7,0.010536541,-0.005567956,1,0,0,0.5978,rock_grid_rect_2,2,10,-1,-1,0.598,-0.089240245,-0.235114914,1,0,0,1.452,Basalt_rect,2,1.452,1,6,0,6,0,1,,,,,,,,,,,,
664c9c1485557ed7abb000b2,TCN,2024-06-10_15h12.11.302,LearnStrategy,2023.2.3,MacIntel,123.4567901,5,1,8,-0.00822586,0.005212467,1,0,0,0.8978,rock_grid_rect_2,4,08,-1,-1,0.898,0.366960152,-0.243171296,1,0,0,2.4509,Gabbro_rect,4,2.451,1,7,0,7,0,1,,,,,,,,,,,,
664c9c1485557ed7abb000b2,TCN,2024-06-10_15h12.11.302,LearnStrategy,2023.2.3,MacIntel,123.4567901,5,1,9,0.041898148,-3.30688E-05,1,0,0,0.6888,rock_grid_rect_2,3,16,-1,-1,0.689,0.14156746,-0.249950397,1,0,0,4.5386,Diorite_rect,3,4.539,1,8,0,8,0,1,,,,,,,,,,,,
664c9c1485557ed7abb000b2,TCN,2024-06-10_15h12.11.302,LearnStrategy,2023.2.3,MacIntel,123.4567901,5,1,10,0.107614087,-0.024475033,1,0,0,0.6465,rock_grid_rect_2,7,02,-1,-1,0.646,0.110209987,-0.38735119,1,0,0,1.3426,Peridotite_rect,7,1.343,1,9,0,9,0,1,,,,,,,,,,,,
664c9c1485557ed7abb000b2,TCN,2024-06-10_15h12.11.302,LearnStrategy,2023.2.3,MacIntel,123.4567901,5,1,11,0.084341931,-0.013740079,1,0,0,0.7047,rock_grid_rect_2,2,12,-1,-1,0.705,-0.339860284,-0.236416997,1,0,0,1.6953,Andesite_rect,1,1.695,0,10,0,10,0,1,,,,,,,,,,,,
664c9c1485557ed7abb000b2,TCN,2024-06-10_15h12.11.302,LearnStrategy,2023.2.3,MacIntel,123.4567901,5,1,12,0.058403604,-0.007258598,1,0,0,0.7644,rock_grid_rect_2,1,05,-1,-1,0.764,-0.112789352,-0.393005952,1,0,0,2.9355,Pegmatite_rect,6,2.936,0,11,0,11,0,1,,,,,,,,,,,,
664c9c1485557ed7abb000b2,TCN,2024-06-10_15h12.11.302,LearnStrategy,2023.2.3,MacIntel,123.4567901,5,1,13,0.036433532,0.00921379,1,0,0,0.5067,rock_grid_rect_2,6,10,-1,-1,0.507,0.118315972,-0.389781746,1,0,0,1.0355,Peridotite_rect,7,1.036,0,12,0,12,0,1,,,,,,,,,,,,
664c9c1485557ed7abb000b2,TCN,2024-06-10_15h12.11.302,LearnStrategy,2023.2.3,MacIntel,123.4567901,5,1,14,0.015240575,0.003649967,1,0,0,0.6544,rock_grid_rect_2,5,10,-1,-1,0.654,-0.347829861,-0.40462963,1,0,0,0.9784,Obsidian_rect,5,0.978,1,13,0,13,0,1,,,,,,,,,,,,
664c9c1485557ed7abb000b2,TCN,2024-06-10_15h12.11.302,LearnStrategy,2023.2.3,MacIntel,123.4567901,5,1,15,0.058845899,-0.021841931,1,0,0,0.6893,rock_grid_rect_2,5,12,-1,-1,0.689,-0.397482639,-0.406266534,1,0,0,0.8527,Obsidian_rect,5,0.853,1,14,0,14,0,1,,,,,,,,,,,,
664c9c1485557ed7abb000b2,TCN,2024-06-10_15h12.11.302,LearnStrategy,2023.2.3,MacIntel,123.4567901,5,1,16,0.041087963,0.014587467,1,0,0,0.7821,rock_grid_rect_2,8,05,-1,-1,0.782,0.377219742,-0.402885251,1,0,0,1.1088,Pumice_rect,8,1.109,1,15,0,15,0,1,,,,,,,,,,,,
664c9c1485557ed7abb000b2,TCN,2024-06-10_15h12.11.302,LearnStrategy,2023.2.3,MacIntel,123.4567901,5,2,1,,,,,,,,2,02,,,,,,,,,,,1,6.251,0,,,,,,-0.348255622,-0.246498843,1,0,0,6.2507,Andesite_rect,0,0,0,0,1
664c9c1485557ed7abb000b2,TCN,2024-06-10_15h12.11.302,LearnStrategy,2023.2.3,MacIntel,123.4567901,5,2,2,,,,,,,,8,10,,,,,,,,,,,8,1.166,1,,,,,,0.346792328,-0.392476852,1,0,0,1.1662,Pumice_rect,1,0,1,0,1
664c9c1485557ed7abb000b2,TCN,2024-06-10_15h12.11.302,LearnStrategy,2023.2.3,MacIntel,123.4567901,5,2,3,,,,,,,,3,13,,,,,,,,,,,3,1.051,1,,,,,,0.137210648,-0.246746858,1,0,0,1.0511,Diorite_rect,2,0,2,0,1
664c9c1485557ed7abb000b2,TCN,2024-06-10_15h12.11.302,LearnStrategy,2023.2.3,MacIntel,123.4567901,5,2,4,,,,,,,,6,15,,,,,,,,,,,6,1.2,1,,,,,,-0.065856481,-0.393886409,1,0,0,1.1996,Pegmatite_rect,3,0,3,0,1
664c9c1485557ed7abb000b2,TCN,2024-06-10_15h12.11.302,LearnStrategy,2023.2.3,MacIntel,123.4567901,5,2,5,,,,,,,,4,13,,,,,,,,,,,6,3.393,0,,,,,,-0.071453373,-0.378323413,1,0,0,3.3933,Pegmatite_rect,4,0,4,0,1
664c9c1485557ed7abb000b2,TCN,2024-06-10_15h12.11.302,LearnStrategy,2023.2.3,MacIntel,123.4567901,5,2,6,,,,,,,,1,02,,,,,,,,,,,6,2.143,0,,,,,,-0.055543155,-0.388599537,1,0,0,2.1429,Pegmatite_rect,5,0,5,0,1
664c9c1485557ed7abb000b2,TCN,2024-06-10_15h12.11.302,LearnStrategy,2023.2.3,MacIntel,123.4567901,5,2,7,,,,,,,,7,12,,,,,,,,,,,7,1.035,1,,,,,,0.141422784,-0.401897321,1,0,0,1.035,Peridotite_rect,6,0,6,0,1
664c9c1485557ed7abb000b2,TCN,2024-06-10_15h12.11.302,LearnStrategy,2023.2.3,MacIntel,123.4567901,5,2,8,,,,,,,,5,02,,,,,,,,,,,5,1.309,1,,,,,,-0.411735284,-0.414066634,1,0,0,1.3092,Obsidian_rect,7,0,7,0,1
664c9c1485557ed7abb000b2,TCN,2024-06-10_15h12.11.302,LearnStrategy,2023.2.3,MacIntel,123.4567901,5,2,9,,,,,,,,8,13,,,,,,,,,,,8,1.293,1,,,,,,0.342927414,-0.406799769,1,0,0,1.2927,Pumice_rect,8,0,8,0,1
664c9c1485557ed7abb000b2,TCN,2024-06-10_15h12.11.302,LearnStrategy,2023.2.3,MacIntel,123.4567901,5,2,10,,,,,,,,4,05,,,,,,,,,,,6,1.776,0,,,,,,-0.137347057,-0.409234458,1,0,0,1.7764,Pegmatite_rect,9,0,9,0,1
664c9c1485557ed7abb000b2,TCN,2024-06-10_15h12.11.302,LearnStrategy,2023.2.3,MacIntel,123.4567901,5,2,11,,,,,,,,6,11,,,,,,,,,,,5,1.359,0,,,,,,-0.370374504,-0.412553737,1,0,0,1.359,Obsidian_rect,10,0,10,0,1
664c9c1485557ed7abb000b2,TCN,2024-06-10_15h12.11.302,LearnStrategy,2023.2.3,MacIntel,123.4567901,5,2,12,,,,,,,,2,01,,,,,,,,,,,2,2.752,1,,,,,,-0.125219081,-0.238624339,1,0,0,2.7517,Basalt_rect,11,0,11,0,1
664c9c1485557ed7abb000b2,TCN,2024-06-10_15h12.11.302,LearnStrategy,2023.2.3,MacIntel,123.4567901,5,2,13,,,,,,,,7,13,,,,,,,,,,,7,0.947,1,,,,,,0.120411706,-0.4125,1,0,0,0.9465,Peridotite_rect,12,0,12,0,1
664c9c1485557ed7abb000b2,TCN,2024-06-10_15h12.11.302,LearnStrategy,2023.2.3,MacIntel,123.4567901,5,2,14,,,,,,,,3,08,,,,,,,,,,,3,0.985,1,,,,,,0.133936839,-0.247904266,1,0,0,0.985,Diorite_rect,13,0,13,0,1
664c9c1485557ed7abb000b2,TCN,2024-06-10_15h12.11.302,LearnStrategy,2023.2.3,MacIntel,123.4567901,5,2,15,,,,,,,,1,16,,,,,,,,,,,1,1.91,1,,,,,,-0.348937665,-0.255679563,1,0,0,1.91,Andesite_rect,14,0,14,0,1
664c9c1485557ed7abb000b2,TCN,2024-06-10_15h12.11.302,LearnStrategy,2023.2.3,MacIntel,123.4567901,5,2,16,,,,,,,,5,04,,,,,,,,,,,5,0.821,1,,,,,,-0.380125661,-0.39489914,1,0,0,0.8208,Obsidian_rect,15,0,15,0,1
664c9c1485557ed7abb000b2,TCN,2024-06-10_15h12.11.302,LearnStrategy,2023.2.3,MacIntel,123.4567901,6,1,1,0.069597388,0.002471892,1,0,0,1.065,rock_grid_rect_2,4,01,-1,-1,1.065,-0.136313657,-0.39682953,1,0,0,3.3387,Pegmatite_rect,6,3.339,0,0,0,0,0,1,,,,,,,,,,,,
664c9c1485557ed7abb000b2,TCN,2024-06-10_15h12.11.302,LearnStrategy,2023.2.3,MacIntel,123.4567901,6,1,2,-0.003819444,0.010061177,1,0,0,0.8468,rock_grid_rect_2,2,05,-1,-1,0.847,-0.097073413,-0.270453042,1,0,0,1.6686,Basalt_rect,2,1.669,1,1,0,1,0,1,,,,,,,,,,,,
664c9c1485557ed7abb000b2,TCN,2024-06-10_15h12.11.302,LearnStrategy,2023.2.3,MacIntel,123.4567901,6,1,3,0.013756614,-0.012380126,1,0,0,0.8314,rock_grid_rect_2,3,14,-1,-1,0.831,0.189285714,-0.26000744,1,0,0,1.0698,Diorite_rect,3,1.07,1,2,0,2,0,1,,,,,,,,,,,,
664c9c1485557ed7abb000b2,TCN,2024-06-10_15h12.11.302,LearnStrategy,2023.2.3,MacIntel,123.4567901,6,1,4,0.068435847,-0.016265708,1,0,0,0.6734,rock_grid_rect_2,1,09,-1,-1,0.673,-0.297796792,-0.238322586,1,0,0,1.1696,Andesite_rect,1,1.17,1,3,0,3,0,1,,,,,,,,,,,,
664c9c1485557ed7abb000b2,TCN,2024-06-10_15h12.11.302,LearnStrategy,2023.2.3,MacIntel,123.4567901,6,1,5,0.001839451,-0.010238922,1,0,0,0.9383,rock_grid_rect_2,4,03,-1,-1,0.938,-0.050876323,-0.381477348,1,0,0,2.3273,Pegmatite_rect,6,2.327,0,4,0,4,0,1,,,,,,,,,,,,
664c9c1485557ed7abb000b2,TCN,2024-06-10_15h12.11.302,LearnStrategy,2023.2.3,MacIntel,123.4567901,6,1,6,-0.015641534,0.003463955,1,0,0,0.6555,rock_grid_rect_2,8,03,-1,-1,0.655,0.36474041,-0.382981978,1,0,0,1.2549,Pumice_rect,8,1.255,1,5,0,5,0,1,,,,,,,,,,,,
664c9c1485557ed7abb000b2,TCN,2024-06-10_15h12.11.302,LearnStrategy,2023.2.3,MacIntel,123.4567901,6,1,7,-0.000992063,0.002041997,1,0,0,0.5817,rock_grid_rect_2,2,04,-1,-1,0.582,-0.094911541,-0.254336144,1,0,0,1.1094,Basalt_rect,2,1.109,1,6,0,6,0,1,,,,,,,,,,,,
664c9c1485557ed7abb000b2,TCN,2024-06-10_15h12.11.302,LearnStrategy,2023.2.3,MacIntel,123.4567901,6,1,8,0.039666005,-0.012847222,1,0,0,0.8569,rock_grid_rect_2,6,13,-1,-1,0.857,-0.116848545,-0.41031746,1,0,0,2.103,Pegmatite_rect,6,2.103,1,7,0,7,0,1,,,,,,,,,,,,
664c9c1485557ed7abb000b2,TCN,2024-06-10_15h12.11.302,LearnStrategy,2023.2.3,MacIntel,123.4567901,6,1,9,0.020399306,-0.010544808,1,0,0,0.7481,rock_grid_rect_2,8,02,-1,-1,0.748,0.441145833,-0.418191964,1,0,0,0.9614,Pumice_rect,8,0.961,1,8,0,8,0,1,,,,,,,,,,,,
664c9c1485557ed7abb000b2,TCN,2024-06-10_15h12.11.302,LearnStrategy,2023.2.3,MacIntel,123.4567901,6,1,10,0.053236607,0.011545139,1,0,0,0.798,rock_grid_rect_2,7,16,-1,-1,0.798,0.119994213,-0.394663525,1,0,0,0.859,Peridotite_rect,7,0.859,1,9,0,9,0,1,,,,,,,,,,,,
664c9c1485557ed7abb000b2,TCN,2024-06-10_15h12.11.302,LearnStrategy,2023.2.3,MacIntel,123.4567901,6,1,11,0.070965608,0.018605324,1,0,0,0.4816,rock_grid_rect_2,7,04,-1,-1,0.482,-0.06786541,-0.394341104,1,0,0,1.2673,Pegmatite_rect,6,1.267,0,10,0,10,0,1,,,,,,,,,,,,
664c9c1485557ed7abb000b2,TCN,2024-06-10_15h12.11.302,LearnStrategy,2023.2.3,MacIntel,123.4567901,6,1,12,0.011214451,-0.01395916,1,0,0,0.4058,rock_grid_rect_2,6,05,-1,-1,0.406,-0.345213294,-0.379989253,1,0,0,1.9734,Obsidian_rect,5,1.973,0,11,0,11,0,1,,,,,,,,,,,,
664c9c1485557ed7abb000b2,TCN,2024-06-10_15h12.11.302,LearnStrategy,2023.2.3,MacIntel,123.4567901,6,1,13,-0.031039187,0.022709987,1,0,0,0.7321,rock_grid_rect_2,1,06,-1,-1,0.732,-0.371308697,-0.249020337,1,0,0,1.3788,Andesite_rect,1,1.379,1,12,0,12,0,1,,,,,,,,,,,,
664c9c1485557ed7abb000b2,TCN,2024-06-10_15h12.11.302,LearnStrategy,2023.2.3,MacIntel,123.4567901,6,1,14,-0.053959987,0.014091435,1,0,0,0.5984,rock_grid_rect_2,5,05,-1,-1,0.598,-0.342253638,-0.381750165,1,0,0,1.593,Obsidian_rect,5,1.593,1,13,0,13,0,1,,,,,,,,,,,,
664c9c1485557ed7abb000b2,TCN,2024-06-10_15h12.11.302,LearnStrategy,2023.2.3,MacIntel,123.4567901,6,1,15,-0.014806548,0.009015377,1,0,0,0.557,rock_grid_rect_2,5,11,-1,-1,0.557,-0.344109623,-0.397342097,1,0,0,0.7757,Obsidian_rect,5,0.776,1,14,0,14,0,1,,,,,,,,,,,,
664c9c1485557ed7abb000b2,TCN,2024-06-10_15h12.11.302,LearnStrategy,2023.2.3,MacIntel,123.4567901,6,1,16,-0.020320767,-0.003439153,1,0,0,2.1648,rock_grid_rect_2,3,02,-1,-1,2.165,0.147515708,-0.261479001,1,0,0,1.1433,Diorite_rect,3,1.143,1,15,0,15,0,1,,,,,,,,,,,,
664c9c1485557ed7abb000b2,TCN,2024-06-10_15h12.11.302,LearnStrategy,2023.2.3,MacIntel,123.4567901,6,2,1,,,,,,,,7,05,,,,,,,,,,,6,2.979,0,,,,,,-0.071011078,-0.413843419,1,0,0,2.979,Pegmatite_rect,0,0,0,0,1
664c9c1485557ed7abb000b2,TCN,2024-06-10_15h12.11.302,LearnStrategy,2023.2.3,MacIntel,123.4567901,6,2,2,,,,,,,,6,16,,,,,,,,,,,5,4.608,0,,,,,,-0.388492063,-0.406175595,1,0,0,4.6076,Obsidian_rect,1,0,1,0,1
664c9c1485557ed7abb000b2,TCN,2024-06-10_15h12.11.302,LearnStrategy,2023.2.3,MacIntel,123.4567901,6,2,3,,,,,,,,3,09,,,,,,,,,,,3,1.042,1,,,,,,0.171201224,-0.253873181,1,0,0,1.0416,Diorite_rect,2,0,2,0,1
664c9c1485557ed7abb000b2,TCN,2024-06-10_15h12.11.302,LearnStrategy,2023.2.3,MacIntel,123.4567901,6,2,4,,,,,,,,1,07,,,,,,,,,,,4,5.518,0,,,,,,0.455551422,-0.258242394,1,0,0,5.5179,Gabbro_rect,3,0,3,0,1
664c9c1485557ed7abb000b2,TCN,2024-06-10_15h12.11.302,LearnStrategy,2023.2.3,MacIntel,123.4567901,6,2,5,,,,,,,,8,04,,,,,,,,,,,8,1.035,1,,,,,,0.456059854,-0.412214782,1,0,0,1.0347,Pumice_rect,4,0,4,0,1
664c9c1485557ed7abb000b2,TCN,2024-06-10_15h12.11.302,LearnStrategy,2023.2.3,MacIntel,123.4567901,6,2,6,,,,,,,,4,15,,,,,,,,,,,6,2.011,0,,,,,,-0.079943783,-0.385511739,1,0,0,2.0114,Pegmatite_rect,5,0,5,0,1
664c9c1485557ed7abb000b2,TCN,2024-06-10_15h12.11.302,LearnStrategy,2023.2.3,MacIntel,123.4567901,6,2,7,,,,,,,,5,08,,,,,,,,,,,5,0.993,1,,,,,,-0.354005456,-0.39827629,1,0,0,0.9934,Obsidian_rect,6,0,6,0,1
664c9c1485557ed7abb000b2,TCN,2024-06-10_15h12.11.302,LearnStrategy,2023.2.3,MacIntel,123.4567901,6,2,8,,,,,,,,3,11,,,,,,,,,,,3,1.284,1,,,,,,0.104418816,-0.249801587,1,0,0,1.284,Diorite_rect,7,0,7,0,1
664c9c1485557ed7abb000b2,TCN,2024-06-10_15h12.11.302,LearnStrategy,2023.2.3,MacIntel,123.4567901,6,2,9,,,,,,,,4,09,,,,,,,,,,,2,2.008,0,,,,,,-0.111536872,-0.261698082,1,0,0,2.0079,Basalt_rect,8,0,8,0,1
664c9c1485557ed7abb000b2,TCN,2024-06-10_15h12.11.302,LearnStrategy,2023.2.3,MacIntel,123.4567901,6,2,10,,,,,,,,7,10,,,,,,,,,,,7,1.867,1,,,,,,0.11469494,-0.414541997,1,0,0,1.8669,Peridotite_rect,9,0,9,0,1
664c9c1485557ed7abb000b2,TCN,2024-06-10_15h12.11.302,LearnStrategy,2023.2.3,MacIntel,123.4567901,6,2,11,,,,,,,,8,09,,,,,,,,,,,8,1.742,1,,,,,,0.385189319,-0.408453208,1,0,0,1.7421,Pumice_rect,10,0,10,0,1
664c9c1485557ed7abb000b2,TCN,2024-06-10_15h12.11.302,LearnStrategy,2023.2.3,MacIntel,123.4567901,6,2,12,,,,,,,,2,16,,,,,,,,,,,2,2.1,1,,,,,,-0.084267526,-0.237318122,1,0,0,2.1002,Basalt_rect,11,0,11,0,1
664c9c1485557ed7abb000b2,TCN,2024-06-10_15h12.11.302,LearnStrategy,2023.2.3,MacIntel,123.4567901,6,2,13,,,,,,,,2,09,,,,,,,,,,,1,1.572,0,,,,,,-0.347953869,-0.253207672,1,0,0,1.5723,Andesite_rect,12,0,12,0,1
664c9c1485557ed7abb000b2,TCN,2024-06-10_15h12.11.302,LearnStrategy,2023.2.3,MacIntel,123.4567901,6,2,14,,,,,,,,5,14,,,,,,,,,,,5,1.034,1,,,,,,-0.340356316,-0.397565311,1,0,0,1.0345,Obsidian_rect,13,0,13,0,1
664c9c1485557ed7abb000b2,TCN,2024-06-10_15h12.11.302,LearnStrategy,2023.2.3,MacIntel,123.4567901,6,2,15,,,,,,,,6,03,,,,,,,,,,,6,1.234,1,,,,,,-0.122019676,-0.391480655,1,0,0,1.2338,Pegmatite_rect,14,0,14,0,1
664c9c1485557ed7abb000b2,TCN,2024-06-10_15h12.11.302,LearnStrategy,2023.2.3,MacIntel,123.4567901,6,2,16,,,,,,,,1,14,,,,,,,,,,,1,3.893,1,,,,,,-0.362714947,-0.259279927,1,0,0,3.8931,Andesite_rect,15,0,15,0,1
664c9c1485557ed7abb000b2,TCN,2024-06-10_15h12.11.302,LearnStrategy,2023.2.3,MacIntel,123.4567901,7,1,1,0.064575066,-0.005522487,1,0,0,0.4773,rock_grid_rect_2,6,05,-1,-1,0.477,-0.339186508,-0.398313492,1,0,0,1.3586,Obsidian_rect,5,1.359,0,0,0,0,0,1,,,,,,,,,,,,
664c9c1485557ed7abb000b2,TCN,2024-06-10_15h12.11.302,LearnStrategy,2023.2.3,MacIntel,123.4567901,7,1,2,-0.019349372,-0.012206515,1,0,0,0.782,rock_grid_rect_2,2,05,-1,-1,0.782,-0.128645833,-0.230539021,1,0,0,0.8182,Basalt_rect,2,0.818,1,1,0,1,0,1,,,,,,,,,,,,
664c9c1485557ed7abb000b2,TCN,2024-06-10_15h12.11.302,LearnStrategy,2023.2.3,MacIntel,123.4567901,7,1,3,0.073263889,-0.00707672,1,0,0,0.5733,rock_grid_rect_2,7,04,-1,-1,0.573,0.116232639,-0.405489418,1,0,0,2.0591,Peridotite_rect,7,2.059,1,2,0,2,0,1,,,,,,,,,,,,
664c9c1485557ed7abb000b2,TCN,2024-06-10_15h12.11.302,LearnStrategy,2023.2.3,MacIntel,123.4567901,7,1,4,0.060780423,-0.018419312,1,0,0,1.0146,rock_grid_rect_2,7,14,-1,-1,1.015,0.116542659,-0.391505456,1,0,0,1.0835,Peridotite_rect,7,1.083,1,3,0,3,0,1,,,,,,,,,,,,
664c9c1485557ed7abb000b2,TCN,2024-06-10_15h12.11.302,LearnStrategy,2023.2.3,MacIntel,123.4567901,7,1,5,0.062198247,0.011921296,1,0,0,0.5549,rock_grid_rect_2,1,03,-1,-1,0.555,-0.382932374,-0.237078373,1,0,0,1.0859,Andesite_rect,1,1.086,1,4,0,4,0,1,,,,,,,,,,,,
664c9c1485557ed7abb000b2,TCN,2024-06-10_15h12.11.302,LearnStrategy,2023.2.3,MacIntel,123.4567901,7,1,6,0.025963128,-0.008523479,1,0,0,0.564,rock_grid_rect_2,5,11,-1,-1,0.564,-0.3854208,-0.420874669,1,0,0,0.9762,Obsidian_rect,5,0.976,1,5,0,5,0,1,,,,,,,,,,,,
664c9c1485557ed7abb000b2,TCN,2024-06-10_15h12.11.302,LearnStrategy,2023.2.3,MacIntel,123.4567901,7,1,7,0.07526455,0.007378472,1,0,0,0.6799,rock_grid_rect_2,3,12,-1,-1,0.68,0.142464451,-0.251889054,1,0,0,1.2142,Diorite_rect,3,1.214,1,6,0,6,0,1,,,,,,,,,,,,
664c9c1485557ed7abb000b2,TCN,2024-06-10_15h12.11.302,LearnStrategy,2023.2.3,MacIntel,123.4567901,7,1,8,0.012586806,-0.009895833,1,0,0,0.5972,rock_grid_rect_2,8,16,-1,-1,0.597,-0.110644015,-0.230348876,1,0,0,1.0765,Basalt_rect,2,1.077,0,7,0,7,0,1,,,,,,,,,,,,
664c9c1485557ed7abb000b2,TCN,2024-06-10_15h12.11.302,LearnStrategy,2023.2.3,MacIntel,123.4567901,7,1,9,0.045610119,0.021416171,1,0,0,0.5409,rock_grid_rect_2,1,05,-1,-1,0.541,-0.324255952,-0.244105489,1,0,0,1.2438,Andesite_rect,1,1.244,1,8,0,8,0,1,,,,,,,,,,,,
664c9c1485557ed7abb000b2,TCN,2024-06-10_15h12.11.302,LearnStrategy,2023.2.3,MacIntel,123.4567901,7,1,10,0.029303075,-0.014302249,1,0,0,0.6642,rock_grid_rect_2,6,06,-1,-1,0.664,-0.166323578,-0.411772487,1,0,0,1.1777,Pegmatite_rect,6,1.178,1,9,0,9,0,1,,,,,,,,,,,,
664c9c1485557ed7abb000b2,TCN,2024-06-10_15h12.11.302,LearnStrategy,2023.2.3,MacIntel,123.4567901,7,1,11,-0.00458416,-0.009482474,1,0,0,0.8803,rock_grid_rect_2,4,16,-1,-1,0.88,-0.083130787,-0.252740575,1,0,0,1.5593,Basalt_rect,2,1.559,0,10,0,10,0,1,,,,,,,,,,,,
664c9c1485557ed7abb000b2,TCN,2024-06-10_15h12.11.302,LearnStrategy,2023.2.3,MacIntel,123.4567901,7,1,12,-0.003827712,-0.009978505,1,0,0,0.6806,rock_grid_rect_2,4,11,-1,-1,0.681,0.438458995,-0.242716601,1,0,0,1.5675,Gabbro_rect,4,1.567,1,11,0,11,0,1,,,,,,,,,,,,
664c9c1485557ed7abb000b2,TCN,2024-06-10_15h12.11.302,LearnStrategy,2023.2.3,MacIntel,123.4567901,7,1,13,0.082167659,0.016385582,1,0,0,0.5216,rock_grid_rect_2,3,06,-1,-1,0.522,0.103013393,-0.248255622,1,0,0,1.4102,Diorite_rect,3,1.41,1,12,0,12,0,1,,,,,,,,,,,,
664c9c1485557ed7abb000b2,TCN,2024-06-10_15h12.11.302,LearnStrategy,2023.2.3,MacIntel,123.4567901,7,1,14,0.069651124,0.013566468,1,0,0,0.5728,rock_grid_rect_2,2,12,-1,-1,0.573,-0.107440476,-0.245556382,1,0,0,1.3519,Basalt_rect,2,1.352,1,13,0,13,0,1,,,,,,,,,,,,
664c9c1485557ed7abb000b2,TCN,2024-06-10_15h12.11.302,LearnStrategy,2023.2.3,MacIntel,123.4567901,7,1,15,0.020568783,0.011698082,1,0,0,0.5064,rock_grid_rect_2,8,08,-1,-1,0.506,0.370816799,-0.384953704,1,0,0,1.1961,Pumice_rect,8,1.196,1,14,0,14,0,1,,,,,,,,,,,,
664c9c1485557ed7abb000b2,TCN,2024-06-10_15h12.11.302,LearnStrategy,2023.2.3,MacIntel,123.4567901,7,1,16,0.054141865,0.003525959,1,0,0,0.5386,rock_grid_rect_2,5,12,-1,-1,0.539,-0.352724041,-0.384589947,1,0,0,0.8692,Obsidian_rect,5,0.869,1,15,0,15,0,1,,,,,,,,,,,,
664c9c1485557ed7abb000b2,TCN,2024-06-10_15h12.11.302,LearnStrategy,2023.2.3,MacIntel,123.4567901,7,2,1,,,,,,,,7,15,,,,,,,,,,,7,1.134,1,,,,,,0.133994709,-0.399681713,1,0,0,1.1335,Peridotite_rect,0,0,0,0,1
664c9c1485557ed7abb000b2,TCN,2024-06-10_15h12.11.302,LearnStrategy,2023.2.3,MacIntel,123.4567901,7,2,2,,,,,,,,3,08,,,,,,,,,,,3,0.914,1,,,,,,0.12775711,-0.248040675,1,0,0,0.9142,Diorite_rect,1,0,1,0,1
664c9c1485557ed7abb000b2,TCN,2024-06-10_15h12.11.302,LearnStrategy,2023.2.3,MacIntel,123.4567901,7,2,3,,,,,,,,1,16,,,,,,,,,,,1,1.973,1,,,,,,-0.329311343,-0.262421462,1,0,0,1.9733,Andesite_rect,2,0,2,0,1
664c9c1485557ed7abb000b2,TCN,2024-06-10_15h12.11.302,LearnStrategy,2023.2.3,MacIntel,123.4567901,7,2,4,,,,,,,,8,04,,,,,,,,,,,8,1.225,1,,,,,,0.406808036,-0.398358962,1,0,0,1.2251,Pumice_rect,3,0,3,0,1
664c9c1485557ed7abb000b2,TCN,2024-06-10_15h12.11.302,LearnStrategy,2023.2.3,MacIntel,123.4567901,7,2,5,,,,,,,,8,06,,,,,,,,,,,8,0.926,1,,,,,,0.37113922,-0.399148479,1,0,0,0.9263,Pumice_rect,4,0,4,0,1
664c9c1485557ed7abb000b2,TCN,2024-06-10_15h12.11.302,LearnStrategy,2023.2.3,MacIntel,123.4567901,7,2,6,,,,,,,,6,11,,,,,,,,,,,5,1.192,0,,,,,,-0.367447917,-0.411747685,1,0,0,1.192,Obsidian_rect,5,0,5,0,1
664c9c1485557ed7abb000b2,TCN,2024-06-10_15h12.11.302,LearnStrategy,2023.2.3,MacIntel,123.4567901,7,2,7,,,,,,,,4,12,,,,,,,,,,,4,1.226,1,,,,,,0.383027447,-0.250582837,1,0,0,1.2255,Gabbro_rect,6,0,6,0,1
664c9c1485557ed7abb000b2,TCN,2024-06-10_15h12.11.302,LearnStrategy,2023.2.3,MacIntel,123.4567901,7,2,8,,,,,,,,3,09,,,,,,,,,,,3,0.874,1,,,,,,0.164281581,-0.250859788,1,0,0,0.8741,Diorite_rect,7,0,7,0,1
664c9c1485557ed7abb000b2,TCN,2024-06-10_15h12.11.302,LearnStrategy,2023.2.3,MacIntel,123.4567901,7,2,9,,,,,,,,6,16,,,,,,,,,,,5,1.368,0,,,,,,-0.376657573,-0.400797784,1,0,0,1.3681,Obsidian_rect,8,0,8,0,1
664c9c1485557ed7abb000b2,TCN,2024-06-10_15h12.11.302,LearnStrategy,2023.2.3,MacIntel,123.4567901,7,2,10,,,,,,,,7,13,,,,,,,,,,,7,1.285,1,,,,,,0.098830192,-0.412313988,1,0,0,1.2852,Peridotite_rect,9,0,9,0,1
664c9c1485557ed7abb000b2,TCN,2024-06-10_15h12.11.302,LearnStrategy,2023.2.3,MacIntel,123.4567901,7,2,11,,,,,,,,1,02,,,,,,,,,,,4,2,0,,,,,,0.399272487,-0.251831184,1,0,0,1.9997,Gabbro_rect,10,0,10,0,1
664c9c1485557ed7abb000b2,TCN,2024-06-10_15h12.11.302,LearnStrategy,2023.2.3,MacIntel,123.4567901,7,2,12,,,,,,,,2,06,,,,,,,,,,,2,1.325,1,,,,,,-0.086946098,-0.255299272,1,0,0,1.3253,Basalt_rect,11,0,11,0,1
664c9c1485557ed7abb000b2,TCN,2024-06-10_15h12.11.302,LearnStrategy,2023.2.3,MacIntel,123.4567901,7,2,13,,,,,,,,5,07,,,,,,,,,,,5,0.842,1,,,,,,-0.351264881,-0.411416997,1,0,0,0.8421,Obsidian_rect,12,0,12,0,1
664c9c1485557ed7abb000b2,TCN,2024-06-10_15h12.11.302,LearnStrategy,2023.2.3,MacIntel,123.4567901,7,2,14,,,,,,,,4,10,,,,,,,,,,,4,1.758,1,,,,,,0.402236276,-0.243927745,1,0,0,1.7584,Gabbro_rect,13,0,13,0,1
664c9c1485557ed7abb000b2,TCN,2024-06-10_15h12.11.302,LearnStrategy,2023.2.3,MacIntel,123.4567901,7,2,15,,,,,,,,2,09,,,,,,,,,,,2,1.41,1,,,,,,-0.126512897,-0.252476025,1,0,0,1.4103,Basalt_rect,14,0,14,0,1
664c9c1485557ed7abb000b2,TCN,2024-06-10_15h12.11.302,LearnStrategy,2023.2.3,MacIntel,123.4567901,7,2,16,,,,,,,,5,14,,,,,,,,,,,5,0.916,1,,,,,,-0.394861938,-0.405691964,1,0,0,0.9163,Obsidian_rect,15,0,15,0,1
664c9c1485557ed7abb000b2,TCN,2024-06-10_15h12.11.302,LearnStrategy,2023.2.3,MacIntel,123.4567901,8,1,1,0.106208664,-0.003773975,1,0,0,2.6279,rock_grid_rect_2,4,03,-1,-1,2.628,0.349074074,-0.22964203,1,0,0,2.2173,Gabbro_rect,4,2.217,1,0,0,0,0,1,,,,,,,,,,,,
664c9c1485557ed7abb000b2,TCN,2024-06-10_15h12.11.302,LearnStrategy,2023.2.3,MacIntel,123.4567901,8,1,2,0.101934524,0.009565146,1,0,0,0.6633,rock_grid_rect_2,3,10,-1,-1,0.663,0.07572338,-0.259085648,1,0,0,1.6529,Diorite_rect,3,1.653,1,1,0,1,0,1,,,,,,,,,,,,
664c9c1485557ed7abb000b2,TCN,2024-06-10_15h12.11.302,LearnStrategy,2023.2.3,MacIntel,123.4567901,8,1,3,0.091898148,-0.016158234,1,0,0,0.5725,rock_grid_rect_2,1,09,-1,-1,0.572,-0.330989583,-0.243051422,1,0,0,1.3782,Andesite_rect,1,1.378,1,2,0,2,0,1,,,,,,,,,,,,
664c9c1485557ed7abb000b2,TCN,2024-06-10_15h12.11.302,LearnStrategy,2023.2.3,MacIntel,123.4567901,8,1,4,0.068969081,-0.01505043,1,0,0,0.6887,rock_grid_rect_2,3,02,-1,-1,0.689,0.170862269,-0.253778108,1,0,0,1.022,Diorite_rect,3,1.022,1,3,0,3,0,1,,,,,,,,,,,,
664c9c1485557ed7abb000b2,TCN,2024-06-10_15h12.11.302,LearnStrategy,2023.2.3,MacIntel,123.4567901,8,1,5,0.042563657,0.000586971,1,0,0,0.6305,rock_grid_rect_2,2,10,-1,-1,0.63,-0.147329696,-0.252459491,1,0,0,1.8566,Basalt_rect,2,1.857,1,4,0,4,0,1,,,,,,,,,,,,
664c9c1485557ed7abb000b2,TCN,2024-06-10_15h12.11.302,LearnStrategy,2023.2.3,MacIntel,123.4567901,8,1,6,0.011429398,-0.016910549,1,0,0,0.5892,rock_grid_rect_2,8,03,-1,-1,0.589,0.365451389,-0.384126984,1,0,0,0.9928,Pumice_rect,8,0.993,1,5,0,5,0,1,,,,,,,,,,,,
664c9c1485557ed7abb000b2,TCN,2024-06-10_15h12.11.302,LearnStrategy,2023.2.3,MacIntel,123.4567901,8,1,7,0.063946759,0.008056382,1,0,0,0.5145,rock_grid_rect_2,6,08,-1,-1,0.514,-0.145696925,-0.417361111,1,0,0,1.3363,Pegmatite_rect,6,1.336,1,6,0,6,0,1,,,,,,,,,,,,
664c9c1485557ed7abb000b2,TCN,2024-06-10_15h12.11.302,LearnStrategy,2023.2.3,MacIntel,123.4567901,8,1,8,0.026169808,0.018576389,1,0,0,0.5142,rock_grid_rect_2,7,06,-1,-1,0.514,0.162458664,-0.380357143,1,0,0,1.0496,Peridotite_rect,7,1.05,1,7,0,7,0,1,,,,,,,,,,,,
664c9c1485557ed7abb000b2,TCN,2024-06-10_15h12.11.302,LearnStrategy,2023.2.3,MacIntel,123.4567901,8,1,9,0.073772321,-0.006378142,1,0,0,0.5311,rock_grid_rect_2,1,11,-1,-1,0.531,-0.37192047,-0.245506779,1,0,0,1.0444,Andesite_rect,1,1.044,1,8,0,8,0,1,,,,,,,,,,,,
664c9c1485557ed7abb000b2,TCN,2024-06-10_15h12.11.302,LearnStrategy,2023.2.3,MacIntel,123.4567901,8,1,10,0.012909226,-0.00807705,1,0,0,0.531,rock_grid_rect_2,5,10,-1,-1,0.531,-0.413438327,-0.402566964,1,0,0,0.926,Obsidian_rect,5,0.926,1,9,0,9,0,1,,,,,,,,,,,,
664c9c1485557ed7abb000b2,TCN,2024-06-10_15h12.11.302,LearnStrategy,2023.2.3,MacIntel,123.4567901,8,1,11,0.063058036,-0.00172371,1,0,0,0.5309,rock_grid_rect_2,7,16,-1,-1,0.531,0.119312169,-0.417216435,1,0,0,0.97,Peridotite_rect,7,0.97,1,10,0,10,0,1,,,,,,,,,,,,
664c9c1485557ed7abb000b2,TCN,2024-06-10_15h12.11.302,LearnStrategy,2023.2.3,MacIntel,123.4567901,8,1,12,0.023635913,-0.00744461,1,0,0,0.4986,rock_grid_rect_2,2,08,-1,-1,0.499,-0.100491898,-0.241116898,1,0,0,1.5947,Basalt_rect,2,1.595,1,11,0,11,0,1,,,,,,,,,,,,
664c9c1485557ed7abb000b2,TCN,2024-06-10_15h12.11.302,LearnStrategy,2023.2.3,MacIntel,123.4567901,8,1,13,0.050066138,-0.00250496,1,0,0,0.8053,rock_grid_rect_2,5,05,-1,-1,0.805,-0.417691799,-0.406423611,1,0,0,0.9684,Obsidian_rect,5,0.968,1,12,0,12,0,1,,,,,,,,,,,,
664c9c1485557ed7abb000b2,TCN,2024-06-10_15h12.11.302,LearnStrategy,2023.2.3,MacIntel,123.4567901,8,1,14,0.010267857,0.019361772,1,0,0,0.7812,rock_grid_rect_2,4,01,-1,-1,0.781,0.346238426,-0.268477183,1,0,0,1.1852,Gabbro_rect,4,1.185,1,13,0,13,0,1,,,,,,,,,,,,
664c9c1485557ed7abb000b2,TCN,2024-06-10_15h12.11.302,LearnStrategy,2023.2.3,MacIntel,123.4567901,8,1,15,0.029662698,-0.013740079,1,0,0,0.7321,rock_grid_rect_2,8,15,-1,-1,0.732,0.443299438,-0.418477183,1,0,0,1.2675,Pumice_rect,8,1.268,1,14,0,14,0,1,,,,,,,,,,,,
664c9c1485557ed7abb000b2,TCN,2024-06-10_15h12.11.302,LearnStrategy,2023.2.3,MacIntel,123.4567901,8,1,16,0.048677249,0.000124008,1,0,0,0.5469,rock_grid_rect_2,6,13,-1,-1,0.547,-0.094031085,-0.398325893,1,0,0,1.0259,Pegmatite_rect,6,1.026,1,15,0,15,0,1,,,,,,,,,,,,
664c9c1485557ed7abb000b2,TCN,2024-06-10_15h12.11.302,LearnStrategy,2023.2.3,MacIntel,123.4567901,8,2,1,,,,,,,,7,07,,,,,,,,,,,7,1.118,1,,,,,,0.154414683,-0.413289517,1,0,0,1.1181,Peridotite_rect,0,0,0,0,1
664c9c1485557ed7abb000b2,TCN,2024-06-10_15h12.11.302,LearnStrategy,2023.2.3,MacIntel,123.4567901,8,2,2,,,,,,,,2,02,,,,,,,,,,,2,0.993,1,,,,,,-0.142662864,-0.261987434,1,0,0,0.9934,Basalt_rect,1,0,1,0,1
664c9c1485557ed7abb000b2,TCN,2024-06-10_15h12.11.302,LearnStrategy,2023.2.3,MacIntel,123.4567901,8,2,3,,,,,,,,3,13,,,,,,,,,,,3,0.808,1,,,,,,0.138086971,-0.230047123,1,0,0,0.808,Diorite_rect,2,0,2,0,1
664c9c1485557ed7abb000b2,TCN,2024-06-10_15h12.11.302,LearnStrategy,2023.2.3,MacIntel,123.4567901,8,2,4,,,,,,,,1,10,,,,,,,,,,,4,1.3,0,,,,,,0.409800761,-0.233263062,1,0,0,1.3002,Gabbro_rect,3,0,3,0,1
664c9c1485557ed7abb000b2,TCN,2024-06-10_15h12.11.302,LearnStrategy,2023.2.3,MacIntel,123.4567901,8,2,5,,,,,,,,1,01,,,,,,,,,,,4,2.275,0,,,,,,0.355315807,-0.238748347,1,0,0,2.275,Gabbro_rect,4,0,4,0,1
664c9c1485557ed7abb000b2,TCN,2024-06-10_15h12.11.302,LearnStrategy,2023.2.3,MacIntel,123.4567901,8,2,6,,,,,,,,4,05,,,,,,,,,,,6,1.935,0,,,,,,-0.093088624,-0.406874173,1,0,0,1.935,Pegmatite_rect,5,0,5,0,1
664c9c1485557ed7abb000b2,TCN,2024-06-10_15h12.11.302,LearnStrategy,2023.2.3,MacIntel,123.4567901,8,2,7,,,,,,,,6,07,,,,,,,,,,,6,2.018,1,,,,,,-0.084296462,-0.415534061,1,0,0,2.0179,Pegmatite_rect,6,0,6,0,1
664c9c1485557ed7abb000b2,TCN,2024-06-10_15h12.11.302,LearnStrategy,2023.2.3,MacIntel,123.4567901,8,2,8,,,,,,,,7,05,,,,,,,,,,,7,0.927,1,,,,,,0.131452546,-0.397573578,1,0,0,0.9266,Peridotite_rect,7,0,7,0,1
664c9c1485557ed7abb000b2,TCN,2024-06-10_15h12.11.302,LearnStrategy,2023.2.3,MacIntel,123.4567901,8,2,9,,,,,,,,5,08,,,,,,,,,,,5,0.85,1,,,,,,-0.39239418,-0.389810681,1,0,0,0.85,Obsidian_rect,8,0,8,0,1
664c9c1485557ed7abb000b2,TCN,2024-06-10_15h12.11.302,LearnStrategy,2023.2.3,MacIntel,123.4567901,8,2,10,,,,,,,,8,09,,,,,,,,,,,8,0.785,1,,,,,,0.42479332,-0.393778935,1,0,0,0.7855,Pumice_rect,9,0,9,0,1
664c9c1485557ed7abb000b2,TCN,2024-06-10_15h12.11.302,LearnStrategy,2023.2.3,MacIntel,123.4567901,8,2,11,,,,,,,,8,13,,,,,,,,,,,8,0.784,1,,,,,,0.407738095,-0.39666832,1,0,0,0.7837,Pumice_rect,10,0,10,0,1
664c9c1485557ed7abb000b2,TCN,2024-06-10_15h12.11.302,LearnStrategy,2023.2.3,MacIntel,123.4567901,8,2,12,,,,,,,,3,11,,,,,,,,,,,3,0.87,1,,,,,,0.184664352,-0.268621858,1,0,0,0.8698,Diorite_rect,11,0,11,0,1
664c9c1485557ed7abb000b2,TCN,2024-06-10_15h12.11.302,LearnStrategy,2023.2.3,MacIntel,123.4567901,8,2,13,,,,,,,,5,02,,,,,,,,,,,5,0.809,1,,,,,,-0.421722057,-0.408709491,1,0,0,0.8086,Obsidian_rect,12,0,12,0,1
664c9c1485557ed7abb000b2,TCN,2024-06-10_15h12.11.302,LearnStrategy,2023.2.3,MacIntel,123.4567901,8,2,14,,,,,,,,6,03,,,,,,,,,,,6,2.108,1,,,,,,-0.114099702,-0.396457507,1,0,0,2.1077,Pegmatite_rect,13,0,13,0,1
664c9c1485557ed7abb000b2,TCN,2024-06-10_15h12.11.302,LearnStrategy,2023.2.3,MacIntel,123.4567901,8,2,15,,,,,,,,4,09,,,,,,,,,,,2,0.893,0,,,,,,-0.080129795,-0.27004795,1,0,0,0.8927,Basalt_rect,14,0,14,0,1
664c9c1485557ed7abb000b2,TCN,2024-06-10_15h12.11.302,LearnStrategy,2023.2.3,MacIntel,123.4567901,8,2,16,,,,,,,,2,16,,,,,,,,,,,2,2.216,1,,,,,,-0.080129795,-0.27004795,1,0,0,2.2158,Basalt_rect,15,0,15,0,1
664c9c1485557ed7abb000b2,TCN,2024-06-10_15h12.11.302,LearnStrategy,2023.2.3,MacIntel,123.4567901,9,1,1,0.076814649,0.002992725,1,0,0,1.1943,rock_grid_rect_2,3,14,-1,-1,1.194,0.12203621,-0.236975033,1,0,0,1.0938,Diorite_rect,3,1.094,1,0,0,0,0,1,,,,,,,,,,,,
664c9c1485557ed7abb000b2,TCN,2024-06-10_15h12.11.302,LearnStrategy,2023.2.3,MacIntel,123.4567901,9,1,2,0.06229332,0.011772487,1,0,0,0.7809,rock_grid_rect_2,3,16,-1,-1,0.781,0.117133763,-0.254832176,1,0,0,1.0684,Diorite_rect,3,1.068,1,1,0,1,0,1,,,,,,,,,,,,
664c9c1485557ed7abb000b2,TCN,2024-06-10_15h12.11.302,LearnStrategy,2023.2.3,MacIntel,123.4567901,9,1,3,0.086388062,-0.01400463,1,0,0,0.6897,rock_grid_rect_2,4,14,-1,-1,0.69,-0.101628638,-0.241071429,1,0,0,0.8282,Basalt_rect,2,0.828,0,2,0,2,0,1,,,,,,,,,,,,
664c9c1485557ed7abb000b2,TCN,2024-06-10_15h12.11.302,LearnStrategy,2023.2.3,MacIntel,123.4567901,9,1,4,-0.019696594,0.007204861,1,0,0,0.4734,rock_grid_rect_2,5,09,-1,-1,0.473,-0.376843585,-0.410528274,1,0,0,1.8444,Obsidian_rect,5,1.844,1,3,0,3,0,1,,,,,,,,,,,,
664c9c1485557ed7abb000b2,TCN,2024-06-10_15h12.11.302,LearnStrategy,2023.2.3,MacIntel,123.4567901,9,1,5,0.009875165,-0.017253638,1,0,0,0.6889,rock_grid_rect_2,7,08,-1,-1,0.689,0.099718915,-0.394179894,1,0,0,1.3463,Peridotite_rect,7,1.346,1,4,0,4,0,1,,,,,,,,,,,,
664c9c1485557ed7abb000b2,TCN,2024-06-10_15h12.11.302,LearnStrategy,2023.2.3,MacIntel,123.4567901,9,1,6,-0.03338707,0.007531415,1,0,0,0.5384,rock_grid_rect_2,8,05,-1,-1,0.538,0.37786045,-0.379633763,1,0,0,0.8373,Pumice_rect,8,0.837,1,5,0,5,0,1,,,,,,,,,,,,
664c9c1485557ed7abb000b2,TCN,2024-06-10_15h12.11.302,LearnStrategy,2023.2.3,MacIntel,123.4567901,9,1,7,-0.000818452,-0.00307953,1,0,0,0.5223,rock_grid_rect_2,2,04,-1,-1,0.522,-0.117584325,-0.261284722,1,0,0,0.8268,Basalt_rect,2,0.827,1,6,0,6,0,1,,,,,,,,,,,,
664c9c1485557ed7abb000b2,TCN,2024-06-10_15h12.11.302,LearnStrategy,2023.2.3,MacIntel,123.4567901,9,1,8,0.019770999,-0.018563988,1,0,0,0.6981,rock_grid_rect_2,2,14,-1,-1,0.698,-0.120849868,-0.232816634,1,0,0,1.3177,Basalt_rect,2,1.318,1,7,0,7,0,1,,,,,,,,,,,,
664c9c1485557ed7abb000b2,TCN,2024-06-10_15h12.11.302,LearnStrategy,2023.2.3,MacIntel,123.4567901,9,1,9,-0.006787368,-0.003893849,1,0,0,0.6468,rock_grid_rect_2,1,04,-1,-1,0.647,-0.372317295,-0.240815146,1,0,0,1.1279,Andesite_rect,1,1.128,1,8,0,8,0,1,,,,,,,,,,,,
664c9c1485557ed7abb000b2,TCN,2024-06-10_15h12.11.302,LearnStrategy,2023.2.3,MacIntel,123.4567901,9,1,10,0.007845569,0.011016038,1,0,0,0.4478,rock_grid_rect_2,1,06,-1,-1,0.448,-0.332204861,-0.232328869,1,0,0,0.7431,Andesite_rect,1,0.743,1,9,0,9,0,1,,,,,,,,,,,,
664c9c1485557ed7abb000b2,TCN,2024-06-10_15h12.11.302,LearnStrategy,2023.2.3,MacIntel,123.4567901,9,1,11,0.01020172,-0.01109871,1,0,0,0.532,rock_grid_rect_2,4,08,-1,-1,0.532,0.391356647,-0.249867725,1,0,0,1.2923,Gabbro_rect,4,1.292,1,10,0,10,0,1,,,,,,,,,,,,
664c9c1485557ed7abb000b2,TCN,2024-06-10_15h12.11.302,LearnStrategy,2023.2.3,MacIntel,123.4567901,9,1,12,0.0151083,-0.00984623,1,0,0,0.414,rock_grid_rect_2,7,02,-1,-1,0.414,0.123325893,-0.406841104,1,0,0,0.9681,Peridotite_rect,7,0.968,1,11,0,11,0,1,,,,,,,,,,,,
664c9c1485557ed7abb000b2,TCN,2024-06-10_15h12.11.302,LearnStrategy,2023.2.3,MacIntel,123.4567901,9,1,13,0.033709491,0.001641038,1,0,0,0.7165,rock_grid_rect_2,6,12,-1,-1,0.716,-0.099826389,-0.40036789,1,0,0,1.4266,Pegmatite_rect,6,1.427,1,12,0,12,0,1,,,,,,,,,,,,
664c9c1485557ed7abb000b2,TCN,2024-06-10_15h12.11.302,LearnStrategy,2023.2.3,MacIntel,123.4567901,9,1,14,0.017770337,-0.007510747,1,0,0,1.0821,rock_grid_rect_2,6,10,-1,-1,1.082,0.149016204,-0.399880126,1,0,0,0.9861,Peridotite_rect,7,0.986,0,13,0,13,0,1,,,,,,,,,,,,
664c9c1485557ed7abb000b2,TCN,2024-06-10_15h12.11.302,LearnStrategy,2023.2.3,MacIntel,123.4567901,9,1,15,0.018861607,0.008602017,1,0,0,0.7228,rock_grid_rect_2,8,02,-1,-1,0.723,0.373999669,-0.391860946,1,0,0,0.9779,Pumice_rect,8,0.978,1,14,0,14,0,1,,,,,,,,,,,,
664c9c1485557ed7abb000b2,TCN,2024-06-10_15h12.11.302,LearnStrategy,2023.2.3,MacIntel,123.4567901,9,1,16,0.007758763,0.00224041,1,0,0,0.5323,rock_grid_rect_2,5,06,-1,-1,0.532,-0.369642857,-0.416728671,1,0,0,0.8115,Obsidian_rect,5,0.812,1,15,0,15,0,1,,,,,,,,,,,,
664c9c1485557ed7abb000b2,TCN,2024-06-10_15h12.11.302,LearnStrategy,2023.2.3,MacIntel,123.4567901,9,2,1,,,,,,,,5,04,,,,,,,,,,,5,0.962,1,,,,,,-0.330299272,-0.414413856,1,0,0,0.9623,Obsidian_rect,0,0,0,0,1
664c9c1485557ed7abb000b2,TCN,2024-06-10_15h12.11.302,LearnStrategy,2023.2.3,MacIntel,123.4567901,9,2,2,,,,,,,,8,14,,,,,,,,,,,8,0.877,1,,,,,,0.368716931,-0.417443783,1,0,0,0.8767,Pumice_rect,1,0,1,0,1
664c9c1485557ed7abb000b2,TCN,2024-06-10_15h12.11.302,LearnStrategy,2023.2.3,MacIntel,123.4567901,9,2,3,,,,,,,,5,16,,,,,,,,,,,5,0.842,1,,,,,,-0.377186673,-0.409449405,1,0,0,0.8423,Obsidian_rect,2,0,2,0,1
664c9c1485557ed7abb000b2,TCN,2024-06-10_15h12.11.302,LearnStrategy,2023.2.3,MacIntel,123.4567901,9,2,4,,,,,,,,1,14,,,,,,,,,,,4,5.318,0,,,,,,0.435234788,-0.237285053,1,0,0,5.3185,Gabbro_rect,3,0,3,0,1
664c9c1485557ed7abb000b2,TCN,2024-06-10_15h12.11.302,LearnStrategy,2023.2.3,MacIntel,123.4567901,9,2,5,,,,,,,,7,10,,,,,,,,,,,7,1.535,1,,,,,,0.155501819,-0.386189649,1,0,0,1.5347,Peridotite_rect,4,0,4,0,1
664c9c1485557ed7abb000b2,TCN,2024-06-10_15h12.11.302,LearnStrategy,2023.2.3,MacIntel,123.4567901,9,2,6,,,,,,,,6,15,,,,,,,,,,,6,0.86,1,,,,,,-0.098259755,-0.381609623,1,0,0,0.8596,Pegmatite_rect,5,0,5,0,1
664c9c1485557ed7abb000b2,TCN,2024-06-10_15h12.11.302,LearnStrategy,2023.2.3,MacIntel,123.4567901,9,2,7,,,,,,,,4,13,,,,,,,,,,,6,2.435,0,,,,,,-0.117315642,-0.403373016,1,0,0,2.4353,Pegmatite_rect,6,0,6,0,1
664c9c1485557ed7abb000b2,TCN,2024-06-10_15h12.11.302,LearnStrategy,2023.2.3,MacIntel,123.4567901,9,2,8,,,,,,,,8,10,,,,,,,,,,,8,1.017,1,,,,,,0.467571925,-0.400219081,1,0,0,1.0174,Pumice_rect,7,0,7,0,1
664c9c1485557ed7abb000b2,TCN,2024-06-10_15h12.11.302,LearnStrategy,2023.2.3,MacIntel,123.4567901,9,2,9,,,,,,,,6,09,,,,,,,,,,,6,2.582,1,,,,,,-0.059089782,-0.417051091,1,0,0,2.5824,Pegmatite_rect,8,0,8,0,1
664c9c1485557ed7abb000b2,TCN,2024-06-10_15h12.11.302,LearnStrategy,2023.2.3,MacIntel,123.4567901,9,2,10,,,,,,,,1,07,,,,,,,,,,,4,3.851,0,,,,,,0.429956184,-0.250479497,1,0,0,3.8508,Gabbro_rect,9,0,9,0,1
664c9c1485557ed7abb000b2,TCN,2024-06-10_15h12.11.302,LearnStrategy,2023.2.3,MacIntel,123.4567901,9,2,11,,,,,,,,4,15,,,,,,,,,,,4,1.019,1,,,,,,0.368778935,-0.264723876,1,0,0,1.0186,Gabbro_rect,10,0,10,0,1
664c9c1485557ed7abb000b2,TCN,2024-06-10_15h12.11.302,LearnStrategy,2023.2.3,MacIntel,123.4567901,9,2,12,,,,,,,,3,15,,,,,,,,,,,4,1.158,0,,,,,,0.364876819,-0.260090112,1,0,0,1.1582,Gabbro_rect,11,0,11,0,1
664c9c1485557ed7abb000b2,TCN,2024-06-10_15h12.11.302,LearnStrategy,2023.2.3,MacIntel,123.4567901,9,2,13,,,,,,,,7,12,,,,,,,,,,,7,0.975,1,,,,,,0.160916832,-0.386330192,1,0,0,0.9753,Peridotite_rect,12,0,12,0,1
664c9c1485557ed7abb000b2,TCN,2024-06-10_15h12.11.302,LearnStrategy,2023.2.3,MacIntel,123.4567901,9,2,14,,,,,,,,3,07,,,,,,,,,,,6,1.193,0,,,,,,-0.061073909,-0.420407573,1,0,0,1.1933,Pegmatite_rect,13,0,13,0,1
664c9c1485557ed7abb000b2,TCN,2024-06-10_15h12.11.302,LearnStrategy,2023.2.3,MacIntel,123.4567901,9,2,15,,,,,,,,2,01,,,,,,,,,,,2,1.325,1,,,,,,-0.099842923,-0.269072421,1,0,0,1.325,Basalt_rect,14,0,14,0,1
664c9c1485557ed7abb000b2,TCN,2024-06-10_15h12.11.302,LearnStrategy,2023.2.3,MacIntel,123.4567901,9,2,16,,,,,,,,2,11,,,,,,,,,,,8,1.268,0,,,,,,0.350136409,-0.379360946,1,0,0,1.2682,Pumice_rect,15,0,15,0,1
664c9c1485557ed7abb000b2,TCN,2024-06-10_15h12.11.302,LearnStrategy,2023.2.3,MacIntel,123.4567901,,,,,,,,,,,,,,,,,,,,,,,,,,,,,,,,,,,,,,,,,,
664c9c1485557ed7abb000b2,TCN,2024-06-10_15h12.11.302,LearnStrategy,2023.2.3,MacIntel,123.4567901,,,,,,,,,,,,,,,,,,,,,,,,,,,,,,,,,,,,,,,,,,
664c9c1485557ed7abb000b2,TCN,2024-06-10_15h12.11.302,LearnStrategy,2023.2.3,MacIntel,123.4567901,,,,,,,,,,,8,02,1,1,,,,,,,,,,,,,,,,,,,,,,,,,,,,
664c9c1485557ed7abb000b2,TCN,2024-06-10_15h12.11.302,LearnStrategy,2023.2.3,MacIntel,123.4567901,,,,,,,,,,,4,14,1,2,,,,,,,,,,,,,,,,,,,,,,,,,,,,
664c9c1485557ed7abb000b2,TCN,2024-06-10_15h12.11.302,LearnStrategy,2023.2.3,MacIntel,123.4567901,,,,,,,,,,,1,06,1,3,,,,,,,,,,,,,,,,,,,,,,,,,,,,
664c9c1485557ed7abb000b2,TCN,2024-06-10_15h12.11.302,LearnStrategy,2023.2.3,MacIntel,123.4567901,,,,,,,,,,,3,12,1,4,,,,,,,,,,,,,,,,,,,,,,,,,,,,
664c9c1485557ed7abb000b2,TCN,2024-06-10_15h12.11.302,LearnStrategy,2023.2.3,MacIntel,123.4567901,,,,,,,,,,,7,08,1,5,,,,,,,,,,,,,,,,,,,,,,,,,,,,
664c9c1485557ed7abb000b2,TCN,2024-06-10_15h12.11.302,LearnStrategy,2023.2.3,MacIntel,123.4567901,,,,,,,,,,,3,10,1,6,,,,,,,,,,,,,,,,,,,,,,,,,,,,
664c9c1485557ed7abb000b2,TCN,2024-06-10_15h12.11.302,LearnStrategy,2023.2.3,MacIntel,123.4567901,,,,,,,,,,,8,16,1,7,,,,,,,,,,,,,,,,,,,,,,,,,,,,
664c9c1485557ed7abb000b2,TCN,2024-06-10_15h12.11.302,LearnStrategy,2023.2.3,MacIntel,123.4567901,,,,,,,,,,,2,14,1,8,,,,,,,,,,,,,,,,,,,,,,,,,,,,
664c9c1485557ed7abb000b2,TCN,2024-06-10_15h12.11.302,LearnStrategy,2023.2.3,MacIntel,123.4567901,,,,,,,,,,,1,11,2,1,,,,,,,,,,,,,,,,,,,,,,,,,,,,
664c9c1485557ed7abb000b2,TCN,2024-06-10_15h12.11.302,LearnStrategy,2023.2.3,MacIntel,123.4567901,,,,,,,,,,,5,05,2,2,,,,,,,,,,,,,,,,,,,,,,,,,,,,
664c9c1485557ed7abb000b2,TCN,2024-06-10_15h12.11.302,LearnStrategy,2023.2.3,MacIntel,123.4567901,,,,,,,,,,,5,09,2,3,,,,,,,,,,,,,,,,,,,,,,,,,,,,
664c9c1485557ed7abb000b2,TCN,2024-06-10_15h12.11.302,LearnStrategy,2023.2.3,MacIntel,123.4567901,,,,,,,,,,,1,05,2,4,,,,,,,,,,,,,,,,,,,,,,,,,,,,
664c9c1485557ed7abb000b2,TCN,2024-06-10_15h12.11.302,LearnStrategy,2023.2.3,MacIntel,123.4567901,,,,,,,,,,,6,12,2,5,,,,,,,,,,,,,,,,,,,,,,,,,,,,
664c9c1485557ed7abb000b2,TCN,2024-06-10_15h12.11.302,LearnStrategy,2023.2.3,MacIntel,123.4567901,,,,,,,,,,,2,08,2,6,,,,,,,,,,,,,,,,,,,,,,,,,,,,
664c9c1485557ed7abb000b2,TCN,2024-06-10_15h12.11.302,LearnStrategy,2023.2.3,MacIntel,123.4567901,,,,,,,,,,,8,15,2,7,,,,,,,,,,,,,,,,,,,,,,,,,,,,
664c9c1485557ed7abb000b2,TCN,2024-06-10_15h12.11.302,LearnStrategy,2023.2.3,MacIntel,123.4567901,,,,,,,,,,,4,08,2,8,,,,,,,,,,,,,,,,,,,,,,,,,,,,
664c9c1485557ed7abb000b2,TCN,2024-06-10_15h12.11.302,LearnStrategy,2023.2.3,MacIntel,123.4567901,,,,,,,,,,,1,03,3,1,,,,,,,,,,,,,,,,,,,,,,,,,,,,
664c9c1485557ed7abb000b2,TCN,2024-06-10_15h12.11.302,LearnStrategy,2023.2.3,MacIntel,123.4567901,,,,,,,,,,,7,04,3,2,,,,,,,,,,,,,,,,,,,,,,,,,,,,
664c9c1485557ed7abb000b2,TCN,2024-06-10_15h12.11.302,LearnStrategy,2023.2.3,MacIntel,123.4567901,,,,,,,,,,,4,11,3,3,,,,,,,,,,,,,,,,,,,,,,,,,,,,
664c9c1485557ed7abb000b2,TCN,2024-06-10_15h12.11.302,LearnStrategy,2023.2.3,MacIntel,123.4567901,,,,,,,,,,,7,14,3,4,,,,,,,,,,,,,,,,,,,,,,,,,,,,
664c9c1485557ed7abb000b2,TCN,2024-06-10_15h12.11.302,LearnStrategy,2023.2.3,MacIntel,123.4567901,,,,,,,,,,,4,01,3,5,,,,,,,,,,,,,,,,,,,,,,,,,,,,
664c9c1485557ed7abb000b2,TCN,2024-06-10_15h12.11.302,LearnStrategy,2023.2.3,MacIntel,123.4567901,,,,,,,,,,,6,13,3,6,,,,,,,,,,,,,,,,,,,,,,,,,,,,
664c9c1485557ed7abb000b2,TCN,2024-06-10_15h12.11.302,LearnStrategy,2023.2.3,MacIntel,123.4567901,,,,,,,,,,,2,05,3,7,,,,,,,,,,,,,,,,,,,,,,,,,,,,
664c9c1485557ed7abb000b2,TCN,2024-06-10_15h12.11.302,LearnStrategy,2023.2.3,MacIntel,123.4567901,,,,,,,,,,,4,03,3,8,,,,,,,,,,,,,,,,,,,,,,,,,,,,
664c9c1485557ed7abb000b2,TCN,2024-06-10_15h12.11.302,LearnStrategy,2023.2.3,MacIntel,123.4567901,,,,,,,,,,,3,06,4,1,,,,,,,,,,,,,,,,,,,,,,,,,,,,
664c9c1485557ed7abb000b2,TCN,2024-06-10_15h12.11.302,LearnStrategy,2023.2.3,MacIntel,123.4567901,,,,,,,,,,,2,10,4,2,,,,,,,,,,,,,,,,,,,,,,,,,,,,
664c9c1485557ed7abb000b2,TCN,2024-06-10_15h12.11.302,LearnStrategy,2023.2.3,MacIntel,123.4567901,,,,,,,,,,,1,09,4,3,,,,,,,,,,,,,,,,,,,,,,,,,,,,
664c9c1485557ed7abb000b2,TCN,2024-06-10_15h12.11.302,LearnStrategy,2023.2.3,MacIntel,123.4567901,,,,,,,,,,,6,10,4,4,,,,,,,,,,,,,,,,,,,,,,,,,,,,
664c9c1485557ed7abb000b2,TCN,2024-06-10_15h12.11.302,LearnStrategy,2023.2.3,MacIntel,123.4567901,,,,,,,,,,,6,05,4,5,,,,,,,,,,,,,,,,,,,,,,,,,,,,
664c9c1485557ed7abb000b2,TCN,2024-06-10_15h12.11.302,LearnStrategy,2023.2.3,MacIntel,123.4567901,,,,,,,,,,,3,02,4,6,,,,,,,,,,,,,,,,,,,,,,,,,,,,
664c9c1485557ed7abb000b2,TCN,2024-06-10_15h12.11.302,LearnStrategy,2023.2.3,MacIntel,123.4567901,,,,,,,,,,,5,12,4,7,,,,,,,,,,,,,,,,,,,,,,,,,,,,
664c9c1485557ed7abb000b2,TCN,2024-06-10_15h12.11.302,LearnStrategy,2023.2.3,MacIntel,123.4567901,,,,,,,,,,,4,16,4,8,,,,,,,,,,,,,,,,,,,,,,,,,,,,
664c9c1485557ed7abb000b2,TCN,2024-06-10_15h12.11.302,LearnStrategy,2023.2.3,MacIntel,123.4567901,,,,,,,,,,,5,06,5,1,,,,,,,,,,,,,,,,,,,,,,,,,,,,
664c9c1485557ed7abb000b2,TCN,2024-06-10_15h12.11.302,LearnStrategy,2023.2.3,MacIntel,123.4567901,,,,,,,,,,,8,08,5,2,,,,,,,,,,,,,,,,,,,,,,,,,,,,
664c9c1485557ed7abb000b2,TCN,2024-06-10_15h12.11.302,LearnStrategy,2023.2.3,MacIntel,123.4567901,,,,,,,,,,,3,14,5,3,,,,,,,,,,,,,,,,,,,,,,,,,,,,
664c9c1485557ed7abb000b2,TCN,2024-06-10_15h12.11.302,LearnStrategy,2023.2.3,MacIntel,123.4567901,,,,,,,,,,,6,08,5,4,,,,,,,,,,,,,,,,,,,,,,,,,,,,
664c9c1485557ed7abb000b2,TCN,2024-06-10_15h12.11.302,LearnStrategy,2023.2.3,MacIntel,123.4567901,,,,,,,,,,,6,06,5,5,,,,,,,,,,,,,,,,,,,,,,,,,,,,
664c9c1485557ed7abb000b2,TCN,2024-06-10_15h12.11.302,LearnStrategy,2023.2.3,MacIntel,123.4567901,,,,,,,,,,,7,06,5,6,,,,,,,,,,,,,,,,,,,,,,,,,,,,
664c9c1485557ed7abb000b2,TCN,2024-06-10_15h12.11.302,LearnStrategy,2023.2.3,MacIntel,123.4567901,,,,,,,,,,,2,04,5,7,,,,,,,,,,,,,,,,,,,,,,,,,,,,
664c9c1485557ed7abb000b2,TCN,2024-06-10_15h12.11.302,LearnStrategy,2023.2.3,MacIntel,123.4567901,,,,,,,,,,,8,05,5,8,,,,,,,,,,,,,,,,,,,,,,,,,,,,
664c9c1485557ed7abb000b2,TCN,2024-06-10_15h12.11.302,LearnStrategy,2023.2.3,MacIntel,123.4567901,,,,,,,,,,,7,02,6,1,,,,,,,,,,,,,,,,,,,,,,,,,,,,
664c9c1485557ed7abb000b2,TCN,2024-06-10_15h12.11.302,LearnStrategy,2023.2.3,MacIntel,123.4567901,,,,,,,,,,,3,16,6,2,,,,,,,,,,,,,,,,,,,,,,,,,,,,
664c9c1485557ed7abb000b2,TCN,2024-06-10_15h12.11.302,LearnStrategy,2023.2.3,MacIntel,123.4567901,,,,,,,,,,,5,10,6,3,,,,,,,,,,,,,,,,,,,,,,,,,,,,
664c9c1485557ed7abb000b2,TCN,2024-06-10_15h12.11.302,LearnStrategy,2023.2.3,MacIntel,123.4567901,,,,,,,,,,,8,03,6,4,,,,,,,,,,,,,,,,,,,,,,,,,,,,
664c9c1485557ed7abb000b2,TCN,2024-06-10_15h12.11.302,LearnStrategy,2023.2.3,MacIntel,123.4567901,,,,,,,,,,,5,11,6,5,,,,,,,,,,,,,,,,,,,,,,,,,,,,
664c9c1485557ed7abb000b2,TCN,2024-06-10_15h12.11.302,LearnStrategy,2023.2.3,MacIntel,123.4567901,,,,,,,,,,,2,12,6,6,,,,,,,,,,,,,,,,,,,,,,,,,,,,
664c9c1485557ed7abb000b2,TCN,2024-06-10_15h12.11.302,LearnStrategy,2023.2.3,MacIntel,123.4567901,,,,,,,,,,,1,04,6,7,,,,,,,,,,,,,,,,,,,,,,,,,,,,
664c9c1485557ed7abb000b2,TCN,2024-06-10_15h12.11.302,LearnStrategy,2023.2.3,MacIntel,123.4567901,,,,,,,,,,,7,16,6,8,,,,,,,,,,,,,,,,,,,,,,,,,,,,