participant,condition,date,expName,psychopyVersion,OS,frameRate,block,phase,trial,learn_mouse_2.x,learn_mouse_2.y,learn_mouse_2.leftButton,learn_mouse_2.midButton,learn_mouse_2.rightButton,learn_mouse_2.time,learn_mouse_2.clicked_name,cat,token,row,col,t_select,cat_mouse_l.x,cat_mouse_l.y,cat_mouse_l.leftButton,cat_mouse_l.midButton,cat_mouse_l.rightButton,cat_mouse_l.time,cat_mouse_l.clicked_name,resp,t_resp,corr,train_trials.thisRepN,train_trials.thisTrialN,train_trials.thisN,train_trials.thisIndex,train_trials.ran,cat_mouse_t.x,cat_mouse_t.y,cat_mouse_t.leftButton,cat_mouse_t.midButton,cat_mouse_t.rightButton,cat_mouse_t.time,cat_mouse_t.clicked_name,test_trials.thisRepN,test_trials.thisTrialN,test_trials.thisN,test_trials.thisIndex,test_trials.ran,Bonus
6652982569df798e71daaf11,TCR,2024-06-24_13h43.33.629,LearnStrategy,2023.2.3,Win32,28.98550725,,,,,,,,,,,,,,,,,,,,,,,,,,,,,,,,,,,,,,,,,,,
6652982569df798e71daaf11,TCR,2024-06-24_13h43.33.629,LearnStrategy,2023.2.3,Win32,28.98550725,1,1,1,-0.032407407,-0.01666666,1,0,0,4.4819,rock_grid_rect_2,1,16,-1,-1,4.482,0.348148205,-0.252777806,1,0,0,6.9261,Gabbro_rect,4,6.926,0,0,0,0,0,1,,,,,,,,,,,,,
6652982569df798e71daaf11,TCR,2024-06-24_13h43.33.629,LearnStrategy,2023.2.3,Win32,28.98550725,1,1,2,-0.011111083,-0.00462963,1,0,0,1.775,rock_grid_rect_2,8,14,-1,-1,1.775,0.374074159,-0.406481496,1,0,0,6.3905,Pumice_rect,8,6.391,1,1,0,1,0,1,,,,,,,,,,,,,
6652982569df798e71daaf11,TCR,2024-06-24_13h43.33.629,LearnStrategy,2023.2.3,Win32,28.98550725,1,1,3,-0.049074032,-0.001851859,1,0,0,1.7232,rock_grid_rect_2,4,08,-1,-1,1.723,0.159259302,-0.252777806,1,0,0,7.5922,Diorite_rect,3,7.592,0,2,0,2,0,1,,,,,,,,,,,,,
6652982569df798e71daaf11,TCR,2024-06-24_13h43.33.629,LearnStrategy,2023.2.3,Win32,28.98550725,1,1,4,-0.002777735,0,1,0,0,1.5784,rock_grid_rect_2,1,06,-1,-1,1.578,-0.088888875,-0.39907406,1,0,0,5.4257,Pegmatite_rect,6,5.426,0,3,0,3,0,1,,,,,,,,,,,,,
6652982569df798e71daaf11,TCR,2024-06-24_13h43.33.629,LearnStrategy,2023.2.3,Win32,28.98550725,1,1,5,0.077777792,-0.001851859,1,0,0,1.6614,rock_grid_rect_2,7,14,-1,-1,1.661,0.137037065,-0.39444443,1,0,0,6.5873,Peridotite_rect,7,6.587,1,4,0,4,0,1,,,,,,,,,,,,,
6652982569df798e71daaf11,TCR,2024-06-24_13h43.33.629,LearnStrategy,2023.2.3,Win32,28.98550725,1,1,6,0.087962963,0.011111118,1,0,0,1.3623,rock_grid_rect_2,2,02,-1,-1,1.362,-0.098148134,-0.247222265,1,0,0,2.8913,Basalt_rect,2,2.891,1,5,0,5,0,1,,,,,,,,,,,,,
6652982569df798e71daaf11,TCR,2024-06-24_13h43.33.629,LearnStrategy,2023.2.3,Win32,28.98550725,1,1,7,0.027777778,-0.002777771,1,0,0,1.4288,rock_grid_rect_2,3,09,-1,-1,1.429,0.160185213,-0.248148176,1,0,0,5.4575,Diorite_rect,3,5.458,1,6,0,6,0,1,,,,,,,,,,,,,
6652982569df798e71daaf11,TCR,2024-06-24_13h43.33.629,LearnStrategy,2023.2.3,Win32,28.98550725,1,1,8,0,-0.002777771,1,0,0,1.8601,rock_grid_rect_2,8,09,-1,-1,1.86,0.376851824,-0.402777778,1,0,0,2.4911,Pumice_rect,8,2.491,1,7,0,7,0,1,,,,,,,,,,,,,
6652982569df798e71daaf11,TCR,2024-06-24_13h43.33.629,LearnStrategy,2023.2.3,Win32,28.98550725,1,1,9,-0.059259273,0.000925912,1,0,0,1.4295,rock_grid_rect_2,5,04,-1,-1,1.43,-0.347222222,-0.398148148,1,0,0,2.9236,Obsidian_rect,5,2.924,1,8,0,8,0,1,,,,,,,,,,,,,
6652982569df798e71daaf11,TCR,2024-06-24_13h43.33.629,LearnStrategy,2023.2.3,Win32,28.98550725,1,1,10,0.007407436,0.002777771,1,0,0,1.2286,rock_grid_rect_2,5,02,-1,-1,1.229,-0.401851831,-0.408333319,1,0,0,4.2245,Obsidian_rect,5,4.224,1,9,0,9,0,1,,,,,,,,,,,,,
6652982569df798e71daaf11,TCR,2024-06-24_13h43.33.629,LearnStrategy,2023.2.3,Win32,28.98550725,1,1,11,0.055555556,0.002777771,1,0,0,1.4959,rock_grid_rect_2,6,06,-1,-1,1.496,0.093518504,-0.235185199,1,0,0,4.6568,Diorite_rect,3,4.657,0,10,0,10,0,1,,,,,,,,,,,,,
6652982569df798e71daaf11,TCR,2024-06-24_13h43.33.629,LearnStrategy,2023.2.3,Win32,28.98550725,1,1,12,0.050000014,0.013888889,1,0,0,1.4846,rock_grid_rect_2,3,16,-1,-1,1.485,0.086111139,-0.235185199,1,0,0,1.8234,Diorite_rect,3,1.823,1,11,0,11,0,1,,,,,,,,,,,,,
6652982569df798e71daaf11,TCR,2024-06-24_13h43.33.629,LearnStrategy,2023.2.3,Win32,28.98550725,1,1,13,0.056481467,-0.011111118,1,0,0,1.4972,rock_grid_rect_2,6,03,-1,-1,1.497,-0.122222194,-0.405555584,1,0,0,6.8927,Pegmatite_rect,6,6.893,1,12,0,12,0,1,,,,,,,,,,,,,
6652982569df798e71daaf11,TCR,2024-06-24_13h43.33.629,LearnStrategy,2023.2.3,Win32,28.98550725,1,1,14,0.091666681,-0.003703718,1,0,0,8.1966,rock_grid_rect_2,2,09,-1,-1,8.197,-0.101851852,-0.248148176,1,0,0,5.5548,Basalt_rect,2,5.555,1,13,0,13,0,1,,,,,,,,,,,,,
6652982569df798e71daaf11,TCR,2024-06-24_13h43.33.629,LearnStrategy,2023.2.3,Win32,28.98550725,1,1,15,0.073148162,-0.002777771,1,0,0,1.1955,rock_grid_rect_2,7,05,-1,-1,1.195,-0.364814794,-0.238888917,1,0,0,6.7901,Andesite_rect,1,6.79,0,14,0,14,0,1,,,,,,,,,,,,,
6652982569df798e71daaf11,TCR,2024-06-24_13h43.33.629,LearnStrategy,2023.2.3,Win32,28.98550725,1,1,16,0.089814857,-0.00462963,1,0,0,1.4812,rock_grid_rect_2,4,12,-1,-1,1.481,-0.104629587,-0.393518519,1,0,0,5.9253,Pegmatite_rect,6,5.925,0,15,0,15,0,1,,,,,,,,,,,,,
6652982569df798e71daaf11,TCR,2024-06-24_13h43.33.629,LearnStrategy,2023.2.3,Win32,28.98550725,1,2,1,,,,,,,,3,12,,,,,,,,,,,1,10.091,0,,,,,,-0.375925912,-0.270370413,1,0,0,10.0909,Andesite_rect,0,0,0,0,1,
6652982569df798e71daaf11,TCR,2024-06-24_13h43.33.629,LearnStrategy,2023.2.3,Win32,28.98550725,1,2,2,,,,,,,,7,15,,,,,,,,,,,3,5.452,0,,,,,,0.116666653,-0.231481481,1,0,0,5.4525,Diorite_rect,1,0,1,0,1,
6652982569df798e71daaf11,TCR,2024-06-24_13h43.33.629,LearnStrategy,2023.2.3,Win32,28.98550725,1,2,3,,,,,,,,3,06,,,,,,,,,,,7,2.624,0,,,,,,0.115740741,-0.405555584,1,0,0,2.6243,Peridotite_rect,2,0,2,0,1,
6652982569df798e71daaf11,TCR,2024-06-24_13h43.33.629,LearnStrategy,2023.2.3,Win32,28.98550725,1,2,4,,,,,,,,4,13,,,,,,,,,,,1,3.77,0,,,,,,-0.351851852,-0.252777806,1,0,0,3.7702,Andesite_rect,3,0,3,0,1,
6652982569df798e71daaf11,TCR,2024-06-24_13h43.33.629,LearnStrategy,2023.2.3,Win32,28.98550725,1,2,5,,,,,,,,1,10,,,,,,,,,,,3,1.903,0,,,,,,0.053703732,-0.251851894,1,0,0,1.9027,Diorite_rect,4,0,4,0,1,
6652982569df798e71daaf11,TCR,2024-06-24_13h43.33.629,LearnStrategy,2023.2.3,Win32,28.98550725,1,2,6,,,,,,,,6,12,,,,,,,,,,,7,5.192,0,,,,,,0.116666653,-0.414814843,1,0,0,5.1921,Peridotite_rect,5,0,5,0,1,
6652982569df798e71daaf11,TCR,2024-06-24_13h43.33.629,LearnStrategy,2023.2.3,Win32,28.98550725,1,2,7,,,,,,,,1,05,,,,,,,,,,,1,1.589,1,,,,,,-0.427777785,-0.229629658,1,0,0,1.5888,Andesite_rect,6,0,6,0,1,
6652982569df798e71daaf11,TCR,2024-06-24_13h43.33.629,LearnStrategy,2023.2.3,Win32,28.98550725,1,2,8,,,,,,,,2,10,,,,,,,,,,,2,1.883,1,,,,,,-0.113888847,-0.266666695,1,0,0,1.8832,Basalt_rect,7,0,7,0,1,
6652982569df798e71daaf11,TCR,2024-06-24_13h43.33.629,LearnStrategy,2023.2.3,Win32,28.98550725,1,2,9,,,,,,,,5,14,,,,,,,,,,,5,3.224,1,,,,,,-0.389814801,-0.404629672,1,0,0,3.2241,Obsidian_rect,8,0,8,0,1,
6652982569df798e71daaf11,TCR,2024-06-24_13h43.33.629,LearnStrategy,2023.2.3,Win32,28.98550725,1,2,10,,,,,,,,8,04,,,,,,,,,,,8,1.671,1,,,,,,0.431481538,-0.404629672,1,0,0,1.6709,Pumice_rect,9,0,9,0,1,
6652982569df798e71daaf11,TCR,2024-06-24_13h43.33.629,LearnStrategy,2023.2.3,Win32,28.98550725,1,2,11,,,,,,,,8,13,,,,,,,,,,,6,6.495,0,,,,,,-0.085185157,-0.393518519,1,0,0,6.4953,Pegmatite_rect,10,0,10,0,1,
6652982569df798e71daaf11,TCR,2024-06-24_13h43.33.629,LearnStrategy,2023.2.3,Win32,28.98550725,1,2,12,,,,,,,,6,13,,,,,,,,,,,7,2.989,0,,,,,,0.099074116,-0.390740783,1,0,0,2.9893,Peridotite_rect,11,0,11,0,1,
6652982569df798e71daaf11,TCR,2024-06-24_13h43.33.629,LearnStrategy,2023.2.3,Win32,28.98550725,1,2,13,,,,,,,,4,11,,,,,,,,,,,4,2.678,1,,,,,,0.348148205,-0.250925912,1,0,0,2.6782,Gabbro_rect,12,0,12,0,1,
6652982569df798e71daaf11,TCR,2024-06-24_13h43.33.629,LearnStrategy,2023.2.3,Win32,28.98550725,1,2,14,,,,,,,,5,08,,,,,,,,,,,5,1.678,1,,,,,,-0.447222215,-0.400000042,1,0,0,1.6777,Obsidian_rect,13,0,13,0,1,
6652982569df798e71daaf11,TCR,2024-06-24_13h43.33.629,LearnStrategy,2023.2.3,Win32,28.98550725,1,2,15,,,,,,,,2,08,,,,,,,,,,,2,1.657,1,,,,,,-0.170370384,-0.251851894,1,0,0,1.6571,Basalt_rect,14,0,14,0,1,
6652982569df798e71daaf11,TCR,2024-06-24_13h43.33.629,LearnStrategy,2023.2.3,Win32,28.98550725,1,2,16,,,,,,,,7,07,,,,,,,,,,,1,1.492,0,,,,,,-0.375925912,-0.248148176,1,0,0,1.4917,Andesite_rect,15,0,15,0,1,
6652982569df798e71daaf11,TCR,2024-06-24_13h43.33.629,LearnStrategy,2023.2.3,Win32,28.98550725,2,1,1,0.039814843,-0.002777771,1,0,0,14.7978,rock_grid_rect_2,8,14,-1,-1,14.798,0.430555556,-0.401851866,1,0,0,1.9171,Pumice_rect,8,1.917,1,0,0,0,0,1,,,,,,,,,,,,,
6652982569df798e71daaf11,TCR,2024-06-24_13h43.33.629,LearnStrategy,2023.2.3,Win32,28.98550725,2,1,2,0.014814801,0,1,0,0,1.497,rock_grid_rect_2,3,08,-1,-1,1.497,-0.099999958,-0.388888889,1,0,0,7.6594,Pegmatite_rect,6,7.659,0,1,0,1,0,1,,,,,,,,,,,,,
6652982569df798e71daaf11,TCR,2024-06-24_13h43.33.629,LearnStrategy,2023.2.3,Win32,28.98550725,2,1,3,0.040740755,0.01944443,1,0,0,2.0458,rock_grid_rect_2,7,04,-1,-1,2.046,-0.094444416,-0.387037065,1,0,0,37.5906,Pegmatite_rect,6,37.591,0,2,0,2,0,1,,,,,,,,,,,,,
6652982569df798e71daaf11,TCR,2024-06-24_13h43.33.629,LearnStrategy,2023.2.3,Win32,28.98550725,2,1,4,0.051851838,0.0074074,1,0,0,1.247,rock_grid_rect_2,4,01,-1,-1,1.247,0.37962963,-0.229629658,1,0,0,2.1564,Gabbro_rect,4,2.156,1,3,0,3,0,1,,,,,,,,,,,,,
6652982569df798e71daaf11,TCR,2024-06-24_13h43.33.629,LearnStrategy,2023.2.3,Win32,28.98550725,2,1,5,0.041666667,0.008333312,1,0,0,1.3981,rock_grid_rect_2,6,09,-1,-1,1.398,-0.131481453,-0.393518519,1,0,0,6.5569,Pegmatite_rect,6,6.557,1,4,0,4,0,1,,,,,,,,,,,,,
6652982569df798e71daaf11,TCR,2024-06-24_13h43.33.629,LearnStrategy,2023.2.3,Win32,28.98550725,2,1,6,0.047222208,-0.009259259,1,0,0,1.4606,rock_grid_rect_2,1,09,-1,-1,1.461,0.366666723,-0.248148176,1,0,0,3.6228,Gabbro_rect,4,3.623,0,5,0,5,0,1,,,,,,,,,,,,,
6652982569df798e71daaf11,TCR,2024-06-24_13h43.33.629,LearnStrategy,2023.2.3,Win32,28.98550725,2,1,7,0.030555584,0.006481489,1,0,0,1.3308,rock_grid_rect_2,7,08,-1,-1,1.331,-0.351851852,-0.246296282,1,0,0,3.0568,Andesite_rect,1,3.057,0,6,0,6,0,1,,,,,,,,,,,,,
6652982569df798e71daaf11,TCR,2024-06-24_13h43.33.629,LearnStrategy,2023.2.3,Win32,28.98550725,2,1,8,0.141666695,0.013888889,1,0,0,2.1296,rock_grid_rect_2,7,05,-1,-1,2.13,-0.088888875,-0.410185213,1,0,0,6.0237,Pegmatite_rect,6,6.024,0,7,0,7,0,1,,,,,,,,,,,,,
6652982569df798e71daaf11,TCR,2024-06-24_13h43.33.629,LearnStrategy,2023.2.3,Win32,28.98550725,2,1,9,0.071296339,-0.012962977,1,0,0,1.4293,rock_grid_rect_2,6,09,-1,-1,1.429,-0.109259217,-0.391666695,1,0,0,4.3268,Pegmatite_rect,6,4.327,1,8,0,8,0,1,,,,,,,,,,,,,
6652982569df798e71daaf11,TCR,2024-06-24_13h43.33.629,LearnStrategy,2023.2.3,Win32,28.98550725,2,1,10,0.062037079,0.0074074,1,0,0,1.594,rock_grid_rect_2,4,01,-1,-1,1.594,0.36018527,-0.248148176,1,0,0,2.5515,Gabbro_rect,4,2.551,1,9,0,9,0,1,,,,,,,,,,,,,
6652982569df798e71daaf11,TCR,2024-06-24_13h43.33.629,LearnStrategy,2023.2.3,Win32,28.98550725,2,1,11,0.054629644,0.005555541,1,0,0,1.1976,rock_grid_rect_2,7,14,-1,-1,1.198,-0.375925912,-0.228703746,1,0,0,3.5237,Andesite_rect,1,3.524,0,10,0,10,0,1,,,,,,,,,,,,,
6652982569df798e71daaf11,TCR,2024-06-24_13h43.33.629,LearnStrategy,2023.2.3,Win32,28.98550725,2,1,12,0.07222225,0.008333312,1,0,0,1.4252,rock_grid_rect_2,1,16,-1,-1,1.425,-0.375925912,-0.252777806,1,0,0,1.8237,Andesite_rect,1,1.824,1,11,0,11,0,1,,,,,,,,,,,,,
6652982569df798e71daaf11,TCR,2024-06-24_13h43.33.629,LearnStrategy,2023.2.3,Win32,28.98550725,2,1,13,0.059259273,0.008333312,1,0,0,1.4657,rock_grid_rect_2,3,09,-1,-1,1.466,0.133333347,-0.25,1,0,0,2.6538,Diorite_rect,3,2.654,1,12,0,12,0,1,,,,,,,,,,,,,
6652982569df798e71daaf11,TCR,2024-06-24_13h43.33.629,LearnStrategy,2023.2.3,Win32,28.98550725,2,1,14,-0.001851824,0.008333312,1,0,0,1.231,rock_grid_rect_2,6,05,-1,-1,1.231,-0.118518476,-0.404629672,1,0,0,6.4604,Pegmatite_rect,6,6.46,1,13,0,13,0,1,,,,,,,,,,,,,
6652982569df798e71daaf11,TCR,2024-06-24_13h43.33.629,LearnStrategy,2023.2.3,Win32,28.98550725,2,1,15,0.029629672,-0.015740748,1,0,0,1.228,rock_grid_rect_2,3,16,-1,-1,1.228,0.147222236,-0.239814829,1,0,0,1.3578,Diorite_rect,3,1.358,1,14,0,14,0,1,,,,,,,,,,,,,
6652982569df798e71daaf11,TCR,2024-06-24_13h43.33.629,LearnStrategy,2023.2.3,Win32,28.98550725,2,1,16,0.062037079,0.01203703,1,0,0,1.2956,rock_grid_rect_2,8,09,-1,-1,1.296,0.373148176,-0.397222236,1,0,0,1.6257,Pumice_rect,8,1.626,1,15,0,15,0,1,,,,,,,,,,,,,
6652982569df798e71daaf11,TCR,2024-06-24_13h43.33.629,LearnStrategy,2023.2.3,Win32,28.98550725,2,2,1,,,,,,,,2,12,,,,,,,,,,,2,4.021,1,,,,,,-0.091666681,-0.25,1,0,0,4.021,Basalt_rect,0,0,0,0,1,
6652982569df798e71daaf11,TCR,2024-06-24_13h43.33.629,LearnStrategy,2023.2.3,Win32,28.98550725,2,2,2,,,,,,,,6,11,,,,,,,,,,,6,2.076,1,,,,,,-0.108333305,-0.395370413,1,0,0,2.0761,Pegmatite_rect,1,0,1,0,1,
6652982569df798e71daaf11,TCR,2024-06-24_13h43.33.629,LearnStrategy,2023.2.3,Win32,28.98550725,2,2,3,,,,,,,,8,16,,,,,,,,,,,8,1.555,1,,,,,,0.394444501,-0.395370413,1,0,0,1.5547,Pumice_rect,2,0,2,0,1,
6652982569df798e71daaf11,TCR,2024-06-24_13h43.33.629,LearnStrategy,2023.2.3,Win32,28.98550725,2,2,4,,,,,,,,1,04,,,,,,,,,,,1,3.591,1,,,,,,-0.327777757,-0.228703746,1,0,0,3.5905,Andesite_rect,3,0,3,0,1,
6652982569df798e71daaf11,TCR,2024-06-24_13h43.33.629,LearnStrategy,2023.2.3,Win32,28.98550725,2,2,5,,,,,,,,3,15,,,,,,,,,,,3,2.578,1,,,,,,0.143518519,-0.246296282,1,0,0,2.5781,Diorite_rect,4,0,4,0,1,
6652982569df798e71daaf11,TCR,2024-06-24_13h43.33.629,LearnStrategy,2023.2.3,Win32,28.98550725,2,2,6,,,,,,,,3,10,,,,,,,,,,,3,1.044,1,,,,,,0.143518519,-0.246296282,1,0,0,1.0441,Diorite_rect,5,0,5,0,1,
6652982569df798e71daaf11,TCR,2024-06-24_13h43.33.629,LearnStrategy,2023.2.3,Win32,28.98550725,2,2,7,,,,,,,,2,05,,,,,,,,,,,2,1.521,1,,,,,,-0.131481453,-0.236111111,1,0,0,1.5211,Basalt_rect,6,0,6,0,1,
6652982569df798e71daaf11,TCR,2024-06-24_13h43.33.629,LearnStrategy,2023.2.3,Win32,28.98550725,2,2,8,,,,,,,,8,10,,,,,,,,,,,8,2.079,1,,,,,,0.388888889,-0.39907406,1,0,0,2.0793,Pumice_rect,7,0,7,0,1,
6652982569df798e71daaf11,TCR,2024-06-24_13h43.33.629,LearnStrategy,2023.2.3,Win32,28.98550725,2,2,9,,,,,,,,7,10,,,,,,,,,,,1,5.759,0,,,,,,-0.424074067,-0.239814829,1,0,0,5.7588,Andesite_rect,8,0,8,0,1,
6652982569df798e71daaf11,TCR,2024-06-24_13h43.33.629,LearnStrategy,2023.2.3,Win32,28.98550725,2,2,10,,,,,,,,4,05,,,,,,,,,,,4,2.209,1,,,,,,0.402777778,-0.267592607,1,0,0,2.2091,Gabbro_rect,9,0,9,0,1,
6652982569df798e71daaf11,TCR,2024-06-24_13h43.33.629,LearnStrategy,2023.2.3,Win32,28.98550725,2,2,11,,,,,,,,5,07,,,,,,,,,,,5,1.627,1,,,,,,-0.401851831,-0.389814801,1,0,0,1.6269,Obsidian_rect,10,0,10,0,1,
6652982569df798e71daaf11,TCR,2024-06-24_13h43.33.629,LearnStrategy,2023.2.3,Win32,28.98550725,2,2,12,,,,,,,,5,11,,,,,,,,,,,5,1.189,1,,,,,,-0.40370369,-0.387037065,1,0,0,1.1892,Obsidian_rect,11,0,11,0,1,
6652982569df798e71daaf11,TCR,2024-06-24_13h43.33.629,LearnStrategy,2023.2.3,Win32,28.98550725,2,2,13,,,,,,,,1,03,,,,,,,,,,,1,6.822,1,,,,,,-0.360185164,-0.250925912,1,0,0,6.8217,Andesite_rect,12,0,12,0,1,
6652982569df798e71daaf11,TCR,2024-06-24_13h43.33.629,LearnStrategy,2023.2.3,Win32,28.98550725,2,2,14,,,,,,,,7,12,,,,,,,,,,,3,1.445,0,,,,,,0.074074074,-0.259259259,1,0,0,1.4447,Diorite_rect,13,0,13,0,1,
6652982569df798e71daaf11,TCR,2024-06-24_13h43.33.629,LearnStrategy,2023.2.3,Win32,28.98550725,2,2,15,,,,,,,,6,16,,,,,,,,,,,6,1.69,1,,,,,,-0.087962963,-0.388888889,1,0,0,1.6897,Pegmatite_rect,14,0,14,0,1,
6652982569df798e71daaf11,TCR,2024-06-24_13h43.33.629,LearnStrategy,2023.2.3,Win32,28.98550725,2,2,16,,,,,,,,4,03,,,,,,,,,,,3,3.477,0,,,,,,0.166666667,-0.242592635,1,0,0,3.4772,Diorite_rect,15,0,15,0,1,
6652982569df798e71daaf11,TCR,2024-06-24_13h43.33.629,LearnStrategy,2023.2.3,Win32,28.98550725,3,1,1,0.023148148,0.00462963,1,0,0,1.8955,rock_grid_rect_2,7,13,-1,-1,1.895,-0.088888875,-0.241666653,1,0,0,10.889,Basalt_rect,2,10.889,0,0,0,0,0,1,,,,,,,,,,,,,
6652982569df798e71daaf11,TCR,2024-06-24_13h43.33.629,LearnStrategy,2023.2.3,Win32,28.98550725,3,1,2,0.007407436,-0.012962977,1,0,0,1.431,rock_grid_rect_2,4,12,-1,-1,1.431,0.362037094,-0.232407393,1,0,0,2.322,Gabbro_rect,4,2.322,1,1,0,1,0,1,,,,,,,,,,,,,
6652982569df798e71daaf11,TCR,2024-06-24_13h43.33.629,LearnStrategy,2023.2.3,Win32,28.98550725,3,1,3,0.043518561,-0.001851859,1,0,0,1.4636,rock_grid_rect_2,7,04,-1,-1,1.464,0.125,-0.385185171,1,0,0,2.1247,Peridotite_rect,7,2.125,1,2,0,2,0,1,,,,,,,,,,,,,
6652982569df798e71daaf11,TCR,2024-06-24_13h43.33.629,LearnStrategy,2023.2.3,Win32,28.98550725,3,1,4,0.01944443,0.000925912,1,0,0,1.3287,rock_grid_rect_2,8,09,-1,-1,1.329,0.395370342,-0.409259302,1,0,0,1.7871,Pumice_rect,8,1.787,1,3,0,3,0,1,,,,,,,,,,,,,
6652982569df798e71daaf11,TCR,2024-06-24_13h43.33.629,LearnStrategy,2023.2.3,Win32,28.98550725,3,1,5,0.003703718,0.01203703,1,0,0,1.4294,rock_grid_rect_2,1,06,-1,-1,1.429,-0.347222222,-0.260185171,1,0,0,4.4896,Andesite_rect,1,4.49,1,4,0,4,0,1,,,,,,,,,,,,,
6652982569df798e71daaf11,TCR,2024-06-24_13h43.33.629,LearnStrategy,2023.2.3,Win32,28.98550725,3,1,6,0.183333362,0.000925912,1,0,0,1.4285,rock_grid_rect_2,1,09,-1,-1,1.428,-0.326851845,-0.259259259,1,0,0,1.7576,Andesite_rect,1,1.758,1,5,0,5,0,1,,,,,,,,,,,,,
6652982569df798e71daaf11,TCR,2024-06-24_13h43.33.629,LearnStrategy,2023.2.3,Win32,28.98550725,3,1,7,0.070370356,-0.0074074,1,0,0,1.3633,rock_grid_rect_2,3,07,-1,-1,1.363,0.132407436,-0.241666653,1,0,0,1.3573,Diorite_rect,3,1.357,1,6,0,6,0,1,,,,,,,,,,,,,
6652982569df798e71daaf11,TCR,2024-06-24_13h43.33.629,LearnStrategy,2023.2.3,Win32,28.98550725,3,1,8,-0.012036995,-0.018518519,1,0,0,1.4966,rock_grid_rect_2,3,11,-1,-1,1.497,0.084259245,-0.235185199,1,0,0,2.4957,Diorite_rect,3,2.496,1,7,0,7,0,1,,,,,,,,,,,,,
6652982569df798e71daaf11,TCR,2024-06-24_13h43.33.629,LearnStrategy,2023.2.3,Win32,28.98550725,3,1,9,0.048148191,0.005555541,1,0,0,9.2304,rock_grid_rect_2,6,05,-1,-1,9.23,-0.097222222,-0.419444473,1,0,0,3.9916,Pegmatite_rect,6,3.992,1,8,0,8,0,1,,,,,,,,,,,,,
6652982569df798e71daaf11,TCR,2024-06-24_13h43.33.629,LearnStrategy,2023.2.3,Win32,28.98550725,3,1,10,0.099074116,-0.0074074,1,0,0,1.7622,rock_grid_rect_2,4,10,-1,-1,1.762,-0.14907406,-0.243518547,1,0,0,1.4568,Basalt_rect,2,1.457,0,9,0,9,0,1,,,,,,,,,,,,,
6652982569df798e71daaf11,TCR,2024-06-24_13h43.33.629,LearnStrategy,2023.2.3,Win32,28.98550725,3,1,11,0.094444487,-0.012962977,1,0,0,1.3138,rock_grid_rect_2,7,04,-1,-1,1.314,0.112037023,-0.386111153,1,0,0,2.5575,Peridotite_rect,7,2.558,1,10,0,10,0,1,,,,,,,,,,,,,
6652982569df798e71daaf11,TCR,2024-06-24_13h43.33.629,LearnStrategy,2023.2.3,Win32,28.98550725,3,1,12,0.047222208,-0.014814836,1,0,0,1.3993,rock_grid_rect_2,5,04,-1,-1,1.399,-0.342592593,-0.392592607,1,0,0,1.9902,Obsidian_rect,5,1.99,1,11,0,11,0,1,,,,,,,,,,,,,
6652982569df798e71daaf11,TCR,2024-06-24_13h43.33.629,LearnStrategy,2023.2.3,Win32,28.98550725,3,1,13,0.109259288,0.000925912,1,0,0,1.7236,rock_grid_rect_2,7,05,-1,-1,1.724,-0.128703718,-0.398148148,1,0,0,4.6347,Pegmatite_rect,6,4.635,0,12,0,12,0,1,,,,,,,,,,,,,
6652982569df798e71daaf11,TCR,2024-06-24_13h43.33.629,LearnStrategy,2023.2.3,Win32,28.98550725,3,1,14,0.066666709,-0.009259259,1,0,0,1.5634,rock_grid_rect_2,3,14,-1,-1,1.563,0.095370399,-0.237037023,1,0,0,1.4227,Diorite_rect,3,1.423,1,13,0,13,0,1,,,,,,,,,,,,,
6652982569df798e71daaf11,TCR,2024-06-24_13h43.33.629,LearnStrategy,2023.2.3,Win32,28.98550725,3,1,15,0.062962991,-0.000925947,1,0,0,1.4974,rock_grid_rect_2,7,05,-1,-1,1.497,0.106481481,-0.381481524,1,0,0,2.4045,Peridotite_rect,7,2.404,1,14,0,14,0,1,,,,,,,,,,,,,
6652982569df798e71daaf11,TCR,2024-06-24_13h43.33.629,LearnStrategy,2023.2.3,Win32,28.98550725,3,1,16,0.035185213,0.010185171,1,0,0,1.1619,rock_grid_rect_2,6,09,-1,-1,1.162,-0.128703718,-0.419444473,1,0,0,1.4544,Pegmatite_rect,6,1.454,1,15,0,15,0,1,,,,,,,,,,,,,
6652982569df798e71daaf11,TCR,2024-06-24_13h43.33.629,LearnStrategy,2023.2.3,Win32,28.98550725,3,2,1,,,,,,,,1,02,,,,,,,,,,,4,8.287,0,,,,,,0.335185157,-0.268518519,1,0,0,8.2865,Gabbro_rect,0,0,0,0,1,
6652982569df798e71daaf11,TCR,2024-06-24_13h43.33.629,LearnStrategy,2023.2.3,Win32,28.98550725,3,2,2,,,,,,,,4,16,,,,,,,,,,,2,2.844,0,,,,,,-0.066666638,-0.239814829,1,0,0,2.8443,Basalt_rect,1,0,1,0,1,
6652982569df798e71daaf11,TCR,2024-06-24_13h43.33.629,LearnStrategy,2023.2.3,Win32,28.98550725,3,2,3,,,,,,,,6,10,,,,,,,,,,,6,3.557,1,,,,,,-0.111111111,-0.390740783,1,0,0,3.5565,Pegmatite_rect,2,0,2,0,1,
6652982569df798e71daaf11,TCR,2024-06-24_13h43.33.629,LearnStrategy,2023.2.3,Win32,28.98550725,3,2,4,,,,,,,,6,15,,,,,,,,,,,6,1.713,1,,,,,,-0.137962977,-0.387962977,1,0,0,1.7133,Pegmatite_rect,3,0,3,0,1,
6652982569df798e71daaf11,TCR,2024-06-24_13h43.33.629,LearnStrategy,2023.2.3,Win32,28.98550725,3,2,5,,,,,,,,3,13,,,,,,,,,,,3,2.023,1,,,,,,0.087962963,-0.240740741,1,0,0,2.0228,Diorite_rect,4,0,4,0,1,
6652982569df798e71daaf11,TCR,2024-06-24_13h43.33.629,LearnStrategy,2023.2.3,Win32,28.98550725,3,2,6,,,,,,,,2,14,,,,,,,,,,,8,2.61,0,,,,,,0.386111083,-0.378703718,1,0,0,2.6103,Pumice_rect,5,0,5,0,1,
6652982569df798e71daaf11,TCR,2024-06-24_13h43.33.629,LearnStrategy,2023.2.3,Win32,28.98550725,3,2,7,,,,,,,,5,06,,,,,,,,,,,5,2.393,1,,,,,,-0.462962963,-0.421296296,1,0,0,2.3925,Obsidian_rect,6,0,6,0,1,
6652982569df798e71daaf11,TCR,2024-06-24_13h43.33.629,LearnStrategy,2023.2.3,Win32,28.98550725,3,2,8,,,,,,,,8,03,,,,,,,,,,,8,1.801,1,,,,,,0.35555564,-0.412962949,1,0,0,1.8011,Pumice_rect,7,0,7,0,1,
6652982569df798e71daaf11,TCR,2024-06-24_13h43.33.629,LearnStrategy,2023.2.3,Win32,28.98550725,3,2,9,,,,,,,,5,10,,,,,,,,,,,5,1.555,1,,,,,,-0.431481467,-0.406481496,1,0,0,1.5553,Obsidian_rect,8,0,8,0,1,
6652982569df798e71daaf11,TCR,2024-06-24_13h43.33.629,LearnStrategy,2023.2.3,Win32,28.98550725,3,2,10,,,,,,,,7,16,,,,,,,,,,,2,7.022,0,,,,,,-0.174074032,-0.250925912,1,0,0,7.0217,Basalt_rect,9,0,9,0,1,
6652982569df798e71daaf11,TCR,2024-06-24_13h43.33.629,LearnStrategy,2023.2.3,Win32,28.98550725,3,2,11,,,,,,,,3,02,,,,,,,,,,,3,1.412,1,,,,,,0.169444473,-0.236111111,1,0,0,1.4121,Diorite_rect,10,0,10,0,1,
6652982569df798e71daaf11,TCR,2024-06-24_13h43.33.629,LearnStrategy,2023.2.3,Win32,28.98550725,3,2,12,,,,,,,,4,15,,,,,,,,,,,4,3.189,1,,,,,,0.358333305,-0.234259288,1,0,0,3.1892,Gabbro_rect,11,0,11,0,1,
6652982569df798e71daaf11,TCR,2024-06-24_13h43.33.629,LearnStrategy,2023.2.3,Win32,28.98550725,3,2,13,,,,,,,,1,01,,,,,,,,,,,2,4.041,0,,,,,,-0.121296282,-0.236111111,1,0,0,4.0412,Basalt_rect,12,0,12,0,1,
6652982569df798e71daaf11,TCR,2024-06-24_13h43.33.629,LearnStrategy,2023.2.3,Win32,28.98550725,3,2,14,,,,,,,,8,06,,,,,,,,,,,8,1.376,1,,,,,,0.345370399,-0.37962963,1,0,0,1.3764,Pumice_rect,13,0,13,0,1,
6652982569df798e71daaf11,TCR,2024-06-24_13h43.33.629,LearnStrategy,2023.2.3,Win32,28.98550725,3,2,15,,,,,,,,7,06,,,,,,,,,,,6,2.823,0,,,,,,-0.069444444,-0.406481496,1,0,0,2.8235,Pegmatite_rect,14,0,14,0,1,
6652982569df798e71daaf11,TCR,2024-06-24_13h43.33.629,LearnStrategy,2023.2.3,Win32,28.98550725,3,2,16,,,,,,,,2,04,,,,,,,,,,,2,3.274,1,,,,,,-0.079629616,-0.243518547,1,0,0,3.2742,Basalt_rect,15,0,15,0,1,
6652982569df798e71daaf11,TCR,2024-06-24_13h43.33.629,LearnStrategy,2023.2.3,Win32,28.98550725,4,1,1,0.020370413,0.003703683,1,0,0,1.4953,rock_grid_rect_2,1,11,-1,-1,1.495,0.087962963,-0.382407436,1,0,0,6.5572,Peridotite_rect,7,6.557,0,0,0,0,0,1,,,,,,,,,,,,,
6652982569df798e71daaf11,TCR,2024-06-24_13h43.33.629,LearnStrategy,2023.2.3,Win32,28.98550725,4,1,2,0.114814829,-0.01203703,1,0,0,1.6609,rock_grid_rect_2,6,03,-1,-1,1.661,-0.10555557,-0.37962963,1,0,0,2.291,Pegmatite_rect,6,2.291,1,1,0,1,0,1,,,,,,,,,,,,,
6652982569df798e71daaf11,TCR,2024-06-24_13h43.33.629,LearnStrategy,2023.2.3,Win32,28.98550725,4,1,3,0.127777806,-0.013888889,1,0,0,1.6965,rock_grid_rect_2,4,12,-1,-1,1.697,0.387037065,-0.262037065,1,0,0,3.1904,Gabbro_rect,4,3.19,1,2,0,2,0,1,,,,,,,,,,,,,
6652982569df798e71daaf11,TCR,2024-06-24_13h43.33.629,LearnStrategy,2023.2.3,Win32,28.98550725,4,1,4,0.037962949,0,1,0,0,1.6622,rock_grid_rect_2,5,09,-1,-1,1.662,-0.380555541,-0.400000042,1,0,0,1.3247,Obsidian_rect,5,1.325,1,3,0,3,0,1,,,,,,,,,,,,,
6652982569df798e71daaf11,TCR,2024-06-24_13h43.33.629,LearnStrategy,2023.2.3,Win32,28.98550725,4,1,5,0.132407436,-0.013888889,1,0,0,2.2968,rock_grid_rect_2,7,08,-1,-1,2.297,-0.3824074,-0.259259259,1,0,0,4.2735,Andesite_rect,1,4.274,0,4,0,4,0,1,,,,,,,,,,,,,
6652982569df798e71daaf11,TCR,2024-06-24_13h43.33.629,LearnStrategy,2023.2.3,Win32,28.98550725,4,1,6,0.172222208,-0.000925947,1,0,0,1.6932,rock_grid_rect_2,7,04,-1,-1,1.693,0.148148148,-0.405555584,1,0,0,2.2242,Peridotite_rect,7,2.224,1,5,0,5,0,1,,,,,,,,,,,,,
6652982569df798e71daaf11,TCR,2024-06-24_13h43.33.629,LearnStrategy,2023.2.3,Win32,28.98550725,4,1,7,0.038888931,-0.003703718,1,0,0,1.5608,rock_grid_rect_2,2,01,-1,-1,1.561,-0.143518519,-0.25,1,0,0,1.7255,Basalt_rect,2,1.725,1,6,0,6,0,1,,,,,,,,,,,,,
6652982569df798e71daaf11,TCR,2024-06-24_13h43.33.629,LearnStrategy,2023.2.3,Win32,28.98550725,4,1,8,-0.002777735,-0.000925947,1,0,0,1.7651,rock_grid_rect_2,7,05,-1,-1,1.765,0.12037037,-0.391666695,1,0,0,2.9199,Peridotite_rect,7,2.92,1,7,0,7,0,1,,,,,,,,,,,,,
6652982569df798e71daaf11,TCR,2024-06-24_13h43.33.629,LearnStrategy,2023.2.3,Win32,28.98550725,4,1,9,0.046296296,0.014814801,1,0,0,1.3928,rock_grid_rect_2,2,09,-1,-1,1.393,-0.12037037,-0.252777806,1,0,0,1.7909,Basalt_rect,2,1.791,1,8,0,8,0,1,,,,,,,,,,,,,
6652982569df798e71daaf11,TCR,2024-06-24_13h43.33.629,LearnStrategy,2023.2.3,Win32,28.98550725,4,1,10,0.067592621,-0.002777771,1,0,0,1.4299,rock_grid_rect_2,3,11,-1,-1,1.43,0.147222236,-0.237963005,1,0,0,1.3913,Diorite_rect,3,1.391,1,9,0,9,0,1,,,,,,,,,,,,,
6652982569df798e71daaf11,TCR,2024-06-24_13h43.33.629,LearnStrategy,2023.2.3,Win32,28.98550725,4,1,11,0.025000042,0.002777771,1,0,0,1.3303,rock_grid_rect_2,8,14,-1,-1,1.33,0.384259259,-0.397222236,1,0,0,2.2906,Pumice_rect,8,2.291,1,10,0,10,0,1,,,,,,,,,,,,,
6652982569df798e71daaf11,TCR,2024-06-24_13h43.33.629,LearnStrategy,2023.2.3,Win32,28.98550725,4,1,12,0.017592607,-0.015740748,1,0,0,1.2635,rock_grid_rect_2,1,16,-1,-1,1.264,-0.37037037,-0.24537037,1,0,0,2.7913,Andesite_rect,1,2.791,1,11,0,11,0,1,,,,,,,,,,,,,
6652982569df798e71daaf11,TCR,2024-06-24_13h43.33.629,LearnStrategy,2023.2.3,Win32,28.98550725,4,1,13,0.034259302,-0.015740748,1,0,0,1.3628,rock_grid_rect_2,4,09,-1,-1,1.363,0.340740769,-0.239814829,1,0,0,4.3917,Gabbro_rect,4,4.392,1,12,0,12,0,1,,,,,,,,,,,,,
6652982569df798e71daaf11,TCR,2024-06-24_13h43.33.629,LearnStrategy,2023.2.3,Win32,28.98550725,4,1,14,0.069444444,0.018518519,1,0,0,1.252,rock_grid_rect_2,7,14,-1,-1,1.252,-0.354629623,-0.233333376,1,0,0,3.5577,Andesite_rect,1,3.558,0,13,0,13,0,1,,,,,,,,,,,,,
6652982569df798e71daaf11,TCR,2024-06-24_13h43.33.629,LearnStrategy,2023.2.3,Win32,28.98550725,4,1,15,0.099074116,-0.013888889,1,0,0,1.5638,rock_grid_rect_2,1,09,-1,-1,1.564,-0.360185164,-0.250925912,1,0,0,2.4905,Andesite_rect,1,2.49,1,14,0,14,0,1,,,,,,,,,,,,,
6652982569df798e71daaf11,TCR,2024-06-24_13h43.33.629,LearnStrategy,2023.2.3,Win32,28.98550725,4,1,16,0.092592593,-0.010185206,1,0,0,1.3615,rock_grid_rect_2,4,01,-1,-1,1.361,0.366666723,-0.256481524,1,0,0,3.4245,Gabbro_rect,4,3.424,1,15,0,15,0,1,,,,,,,,,,,,,
6652982569df798e71daaf11,TCR,2024-06-24_13h43.33.629,LearnStrategy,2023.2.3,Win32,28.98550725,4,2,1,,,,,,,,8,04,,,,,,,,,,,8,1.356,1,,,,,,0.380555612,-0.383333347,1,0,0,1.356,Pumice_rect,0,0,0,0,1,
6652982569df798e71daaf11,TCR,2024-06-24_13h43.33.629,LearnStrategy,2023.2.3,Win32,28.98550725,4,2,2,,,,,,,,5,10,,,,,,,,,,,5,1.42,1,,,,,,-0.396296289,-0.411111125,1,0,0,1.4202,Obsidian_rect,1,0,1,0,1,
6652982569df798e71daaf11,TCR,2024-06-24_13h43.33.629,LearnStrategy,2023.2.3,Win32,28.98550725,4,2,3,,,,,,,,1,10,,,,,,,,,,,1,2.821,1,,,,,,-0.344444452,-0.257407436,1,0,0,2.821,Andesite_rect,2,0,2,0,1,
6652982569df798e71daaf11,TCR,2024-06-24_13h43.33.629,LearnStrategy,2023.2.3,Win32,28.98550725,4,2,4,,,,,,,,5,06,,,,,,,,,,,5,1.275,1,,,,,,-0.377777771,-0.402777778,1,0,0,1.2753,Obsidian_rect,3,0,3,0,1,
6652982569df798e71daaf11,TCR,2024-06-24_13h43.33.629,LearnStrategy,2023.2.3,Win32,28.98550725,4,2,5,,,,,,,,2,10,,,,,,,,,,,2,1.559,1,,,,,,-0.12037037,-0.256481524,1,0,0,1.5591,Basalt_rect,4,0,4,0,1,
6652982569df798e71daaf11,TCR,2024-06-24_13h43.33.629,LearnStrategy,2023.2.3,Win32,28.98550725,4,2,6,,,,,,,,4,16,,,,,,,,,,,2,1.65,0,,,,,,-0.121296282,-0.241666653,1,0,0,1.65,Basalt_rect,5,0,5,0,1,
6652982569df798e71daaf11,TCR,2024-06-24_13h43.33.629,LearnStrategy,2023.2.3,Win32,28.98550725,4,2,7,,,,,,,,7,12,,,,,,,,,,,2,0.623,0,,,,,,-0.121296282,-0.241666653,1,0,0,0.6226,Basalt_rect,6,0,6,0,1,
6652982569df798e71daaf11,TCR,2024-06-24_13h43.33.629,LearnStrategy,2023.2.3,Win32,28.98550725,4,2,8,,,,,,,,6,12,,,,,,,,,,,6,5.858,1,,,,,,-0.075925898,-0.400000042,1,0,0,5.8576,Pegmatite_rect,7,0,7,0,1,
6652982569df798e71daaf11,TCR,2024-06-24_13h43.33.629,LearnStrategy,2023.2.3,Win32,28.98550725,4,2,9,,,,,,,,8,13,,,,,,,,,,,8,3.144,1,,,,,,0.338888945,-0.402777778,1,0,0,3.1443,Pumice_rect,8,0,8,0,1,
6652982569df798e71daaf11,TCR,2024-06-24_13h43.33.629,LearnStrategy,2023.2.3,Win32,28.98550725,4,2,10,,,,,,,,3,13,,,,,,,,,,,3,1.611,1,,,,,,0.070370356,-0.242592635,1,0,0,1.6108,Diorite_rect,9,0,9,0,1,
6652982569df798e71daaf11,TCR,2024-06-24_13h43.33.629,LearnStrategy,2023.2.3,Win32,28.98550725,4,2,11,,,,,,,,3,10,,,,,,,,,,,1,3.29,0,,,,,,-0.350925905,-0.24537037,1,0,0,3.2901,Andesite_rect,10,0,10,0,1,
6652982569df798e71daaf11,TCR,2024-06-24_13h43.33.629,LearnStrategy,2023.2.3,Win32,28.98550725,4,2,12,,,,,,,,2,14,,,,,,,,,,,8,2.275,0,,,,,,0.371296353,-0.400000042,1,0,0,2.2751,Pumice_rect,11,0,11,0,1,
6652982569df798e71daaf11,TCR,2024-06-24_13h43.33.629,LearnStrategy,2023.2.3,Win32,28.98550725,4,2,13,,,,,,,,7,06,,,,,,,,,,,6,1.757,0,,,,,,-0.093518504,-0.388888889,1,0,0,1.7566,Pegmatite_rect,12,0,12,0,1,
6652982569df798e71daaf11,TCR,2024-06-24_13h43.33.629,LearnStrategy,2023.2.3,Win32,28.98550725,4,2,14,,,,,,,,4,05,,,,,,,,,,,4,2.192,1,,,,,,0.437962991,-0.239814829,1,0,0,2.1924,Gabbro_rect,13,0,13,0,1,
6652982569df798e71daaf11,TCR,2024-06-24_13h43.33.629,LearnStrategy,2023.2.3,Win32,28.98550725,4,2,15,,,,,,,,6,11,,,,,,,,,,,6,1.688,1,,,,,,-0.136111083,-0.409259302,1,0,0,1.6882,Pegmatite_rect,14,0,14,0,1,
6652982569df798e71daaf11,TCR,2024-06-24_13h43.33.629,LearnStrategy,2023.2.3,Win32,28.98550725,4,2,16,,,,,,,,1,01,,,,,,,,,,,4,1.774,0,,,,,,0.421296296,-0.268518519,1,0,0,1.7737,Gabbro_rect,15,0,15,0,1,
6652982569df798e71daaf11,TCR,2024-06-24_13h43.33.629,LearnStrategy,2023.2.3,Win32,28.98550725,5,1,1,0.029629672,-0.005555577,1,0,0,2.0299,rock_grid_rect_2,1,07,-1,-1,2.03,-0.38703703,-0.241666653,1,0,0,2.0865,Andesite_rect,1,2.087,1,0,0,0,0,1,,,,,,,,,,,,,
6652982569df798e71daaf11,TCR,2024-06-24_13h43.33.629,LearnStrategy,2023.2.3,Win32,28.98550725,5,1,2,0.027777778,0.0074074,1,0,0,1.3639,rock_grid_rect_2,4,12,-1,-1,1.364,0.374074159,-0.258333347,1,0,0,3.0882,Gabbro_rect,4,3.088,1,1,0,1,0,1,,,,,,,,,,,,,
6652982569df798e71daaf11,TCR,2024-06-24_13h43.33.629,LearnStrategy,2023.2.3,Win32,28.98550725,5,1,3,-0.013888889,-0.013888889,1,0,0,1.2311,rock_grid_rect_2,7,02,-1,-1,1.231,-0.361111111,-0.235185199,1,0,0,2.9918,Andesite_rect,1,2.992,0,2,0,2,0,1,,,,,,,,,,,,,
6652982569df798e71daaf11,TCR,2024-06-24_13h43.33.629,LearnStrategy,2023.2.3,Win32,28.98550725,5,1,4,0.157407407,-0.009259259,1,0,0,2.1291,rock_grid_rect_2,6,05,-1,-1,2.129,-0.119444459,-0.407407407,1,0,0,1.4253,Pegmatite_rect,6,1.425,1,3,0,3,0,1,,,,,,,,,,,,,
6652982569df798e71daaf11,TCR,2024-06-24_13h43.33.629,LearnStrategy,2023.2.3,Win32,28.98550725,5,1,5,-0.009259259,0.005555541,1,0,0,1.3983,rock_grid_rect_2,7,02,-1,-1,1.398,0.127777806,-0.398148148,1,0,0,2.8897,Peridotite_rect,7,2.89,1,4,0,4,0,1,,,,,,,,,,,,,
6652982569df798e71daaf11,TCR,2024-06-24_13h43.33.629,LearnStrategy,2023.2.3,Win32,28.98550725,5,1,6,0.009259259,-0.023148148,1,0,0,1.2946,rock_grid_rect_2,1,11,-1,-1,1.295,-0.346296275,-0.267592607,1,0,0,6.2898,Andesite_rect,1,6.29,1,5,0,5,0,1,,,,,,,,,,,,,
6652982569df798e71daaf11,TCR,2024-06-24_13h43.33.629,LearnStrategy,2023.2.3,Win32,28.98550725,5,1,7,0.155555584,0.018518519,1,0,0,1.4949,rock_grid_rect_2,4,12,-1,-1,1.495,0.343518575,-0.262962977,1,0,0,1.6574,Gabbro_rect,4,1.657,1,6,0,6,0,1,,,,,,,,,,,,,
6652982569df798e71daaf11,TCR,2024-06-24_13h43.33.629,LearnStrategy,2023.2.3,Win32,28.98550725,5,1,8,-0.039814772,0.008333312,1,0,0,1.1956,rock_grid_rect_2,8,15,-1,-1,1.196,0.33148151,-0.39444443,1,0,0,2.2045,Pumice_rect,8,2.205,1,7,0,7,0,1,,,,,,,,,,,,,
6652982569df798e71daaf11,TCR,2024-06-24_13h43.33.629,LearnStrategy,2023.2.3,Win32,28.98550725,5,1,9,-0.006481453,-0.00462963,1,0,0,1.4,rock_grid_rect_2,3,09,-1,-1,1.4,0.088888875,-0.244444459,1,0,0,1.3148,Diorite_rect,3,1.315,1,8,0,8,0,1,,,,,,,,,,,,,
6652982569df798e71daaf11,TCR,2024-06-24_13h43.33.629,LearnStrategy,2023.2.3,Win32,28.98550725,5,1,10,0.020370413,0.009259259,1,0,0,1.2355,rock_grid_rect_2,3,16,-1,-1,1.236,0.109259288,-0.237037023,1,0,0,1.2486,Diorite_rect,3,1.249,1,9,0,9,0,1,,,,,,,,,,,,,
6652982569df798e71daaf11,TCR,2024-06-24_13h43.33.629,LearnStrategy,2023.2.3,Win32,28.98550725,5,1,11,-0.025925884,-0.005555577,1,0,0,1.6284,rock_grid_rect_2,7,14,-1,-1,1.628,0.124074088,-0.391666695,1,0,0,1.8919,Peridotite_rect,7,1.892,1,10,0,10,0,1,,,,,,,,,,,,,
6652982569df798e71daaf11,TCR,2024-06-24_13h43.33.629,LearnStrategy,2023.2.3,Win32,28.98550725,5,1,12,0.01944443,-0.0074074,1,0,0,1.4651,rock_grid_rect_2,2,01,-1,-1,1.465,-0.137962977,-0.260185171,1,0,0,1.2558,Basalt_rect,2,1.256,1,11,0,11,0,1,,,,,,,,,,,,,
6652982569df798e71daaf11,TCR,2024-06-24_13h43.33.629,LearnStrategy,2023.2.3,Win32,28.98550725,5,1,13,0.000925912,0,1,0,0,1.0944,rock_grid_rect_2,2,01,-1,-1,1.094,-0.126851824,-0.240740741,1,0,0,1.2914,Basalt_rect,2,1.291,1,12,0,12,0,1,,,,,,,,,,,,,
6652982569df798e71daaf11,TCR,2024-06-24_13h43.33.629,LearnStrategy,2023.2.3,Win32,28.98550725,5,1,14,-0.008333347,0.009259259,1,0,0,1.1281,rock_grid_rect_2,7,08,-1,-1,1.128,0.121296282,-0.384259259,1,0,0,3.1897,Peridotite_rect,7,3.19,1,13,0,13,0,1,,,,,,,,,,,,,
6652982569df798e71daaf11,TCR,2024-06-24_13h43.33.629,LearnStrategy,2023.2.3,Win32,28.98550725,5,1,15,0.10092594,0.014814801,1,0,0,1.1957,rock_grid_rect_2,4,10,-1,-1,1.196,0.393518519,-0.262037065,1,0,0,1.7901,Gabbro_rect,4,1.79,1,14,0,14,0,1,,,,,,,,,,,,,
6652982569df798e71daaf11,TCR,2024-06-24_13h43.33.629,LearnStrategy,2023.2.3,Win32,28.98550725,5,1,16,-0.037962949,-0.001851859,1,0,0,1.3306,rock_grid_rect_2,1,06,-1,-1,1.331,-0.39907406,-0.231481481,1,0,0,1.4909,Andesite_rect,1,1.491,1,15,0,15,0,1,,,,,,,,,,,,,
6652982569df798e71daaf11,TCR,2024-06-24_13h43.33.629,LearnStrategy,2023.2.3,Win32,28.98550725,5,2,1,,,,,,,,8,16,,,,,,,,,,,8,1.387,1,,,,,,0.351851852,-0.37962963,1,0,0,1.3868,Pumice_rect,0,0,0,0,1,
6652982569df798e71daaf11,TCR,2024-06-24_13h43.33.629,LearnStrategy,2023.2.3,Win32,28.98550725,5,2,2,,,,,,,,6,10,,,,,,,,,,,6,1.957,1,,,,,,-0.12037037,-0.39907406,1,0,0,1.9566,Pegmatite_rect,1,0,1,0,1,
6652982569df798e71daaf11,TCR,2024-06-24_13h43.33.629,LearnStrategy,2023.2.3,Win32,28.98550725,5,2,3,,,,,,,,7,15,,,,,,,,,,,7,1.745,1,,,,,,0.104629658,-0.414814843,1,0,0,1.7446,Peridotite_rect,2,0,2,0,1,
6652982569df798e71daaf11,TCR,2024-06-24_13h43.33.629,LearnStrategy,2023.2.3,Win32,28.98550725,5,2,4,,,,,,,,3,02,,,,,,,,,,,3,1.356,1,,,,,,0.131481524,-0.260185171,1,0,0,1.3564,Diorite_rect,3,0,3,0,1,
6652982569df798e71daaf11,TCR,2024-06-24_13h43.33.629,LearnStrategy,2023.2.3,Win32,28.98550725,5,2,5,,,,,,,,2,05,,,,,,,,,,,2,1.089,1,,,,,,-0.111111111,-0.235185199,1,0,0,1.0887,Basalt_rect,4,0,4,0,1,
6652982569df798e71daaf11,TCR,2024-06-24_13h43.33.629,LearnStrategy,2023.2.3,Win32,28.98550725,5,2,6,,,,,,,,1,02,,,,,,,,,,,1,3.057,1,,,,,,-0.371296282,-0.246296282,1,0,0,3.0572,Andesite_rect,5,0,5,0,1,
6652982569df798e71daaf11,TCR,2024-06-24_13h43.33.629,LearnStrategy,2023.2.3,Win32,28.98550725,5,2,7,,,,,,,,3,15,,,,,,,,,,,7,3.81,0,,,,,,0.086111139,-0.391666695,1,0,0,3.8099,Peridotite_rect,6,0,6,0,1,
6652982569df798e71daaf11,TCR,2024-06-24_13h43.33.629,LearnStrategy,2023.2.3,Win32,28.98550725,5,2,8,,,,,,,,8,10,,,,,,,,,,,8,3.576,1,,,,,,0.376851824,-0.406481496,1,0,0,3.576,Pumice_rect,7,0,7,0,1,
6652982569df798e71daaf11,TCR,2024-06-24_13h43.33.629,LearnStrategy,2023.2.3,Win32,28.98550725,5,2,9,,,,,,,,5,08,,,,,,,,,,,5,2.673,1,,,,,,-0.365740741,-0.37962963,1,0,0,2.6731,Obsidian_rect,8,0,8,0,1,
6652982569df798e71daaf11,TCR,2024-06-24_13h43.33.629,LearnStrategy,2023.2.3,Win32,28.98550725,5,2,10,,,,,,,,7,16,,,,,,,,,,,4,4.577,0,,,,,,0.368518547,-0.262037065,1,0,0,4.5769,Gabbro_rect,9,0,9,0,1,
6652982569df798e71daaf11,TCR,2024-06-24_13h43.33.629,LearnStrategy,2023.2.3,Win32,28.98550725,5,2,11,,,,,,,,2,12,,,,,,,,,,,8,1.536,0,,,,,,0.36018527,-0.395370413,1,0,0,1.5365,Pumice_rect,10,0,10,0,1,
6652982569df798e71daaf11,TCR,2024-06-24_13h43.33.629,LearnStrategy,2023.2.3,Win32,28.98550725,5,2,12,,,,,,,,1,04,,,,,,,,,,,1,2.257,1,,,,,,-0.372222229,-0.24537037,1,0,0,2.2566,Andesite_rect,11,0,11,0,1,
6652982569df798e71daaf11,TCR,2024-06-24_13h43.33.629,LearnStrategy,2023.2.3,Win32,28.98550725,5,2,13,,,,,,,,4,15,,,,,,,,,,,4,2.607,1,,,,,,0.357407464,-0.236111111,1,0,0,2.6073,Gabbro_rect,12,0,12,0,1,
6652982569df798e71daaf11,TCR,2024-06-24_13h43.33.629,LearnStrategy,2023.2.3,Win32,28.98550725,5,2,14,,,,,,,,4,03,,,,,,,,,,,7,3.189,0,,,,,,0.150925954,-0.405555584,1,0,0,3.1892,Peridotite_rect,13,0,13,0,1,
6652982569df798e71daaf11,TCR,2024-06-24_13h43.33.629,LearnStrategy,2023.2.3,Win32,28.98550725,5,2,15,,,,,,,,6,16,,,,,,,,,,,6,1.311,1,,,,,,-0.19259255,-0.39444443,1,0,0,1.3107,Pegmatite_rect,14,0,14,0,1,
6652982569df798e71daaf11,TCR,2024-06-24_13h43.33.629,LearnStrategy,2023.2.3,Win32,28.98550725,5,2,16,,,,,,,,5,14,,,,,,,,,,,5,1.256,1,,,,,,-0.462962963,-0.408333319,1,0,0,1.2559,Obsidian_rect,15,0,15,0,1,
6652982569df798e71daaf11,TCR,2024-06-24_13h43.33.629,LearnStrategy,2023.2.3,Win32,28.98550725,6,1,1,0.039814843,-0.000925947,1,0,0,1.1312,rock_grid_rect_2,3,08,-1,-1,1.131,0.137962977,-0.268518519,1,0,0,1.3242,Diorite_rect,3,1.324,1,0,0,0,0,1,,,,,,,,,,,,,
6652982569df798e71daaf11,TCR,2024-06-24_13h43.33.629,LearnStrategy,2023.2.3,Win32,28.98550725,6,1,2,-0.020370342,-0.002777771,1,0,0,1.129,rock_grid_rect_2,2,09,-1,-1,1.129,-0.137962977,-0.242592635,1,0,0,1.1922,Basalt_rect,2,1.192,1,1,0,1,0,1,,,,,,,,,,,,,
6652982569df798e71daaf11,TCR,2024-06-24_13h43.33.629,LearnStrategy,2023.2.3,Win32,28.98550725,6,1,3,0.075925968,0.001851859,1,0,0,1.0297,rock_grid_rect_2,8,15,-1,-1,1.03,0.392592677,-0.406481496,1,0,0,2.7927,Pumice_rect,8,2.793,1,2,0,2,0,1,,,,,,,,,,,,,
6652982569df798e71daaf11,TCR,2024-06-24_13h43.33.629,LearnStrategy,2023.2.3,Win32,28.98550725,6,1,4,-0.030555513,0.005555541,1,0,0,0.997,rock_grid_rect_2,7,05,-1,-1,0.997,0.150000042,-0.402777778,1,0,0,1.6552,Peridotite_rect,7,1.655,1,3,0,3,0,1,,,,,,,,,,,,,
6652982569df798e71daaf11,TCR,2024-06-24_13h43.33.629,LearnStrategy,2023.2.3,Win32,28.98550725,6,1,5,0.00462963,-0.012962977,1,0,0,1.2644,rock_grid_rect_2,3,08,-1,-1,1.264,0.167592578,-0.244444459,1,0,0,1.2899,Diorite_rect,3,1.29,1,4,0,4,0,1,,,,,,,,,,,,,
6652982569df798e71daaf11,TCR,2024-06-24_13h43.33.629,LearnStrategy,2023.2.3,Win32,28.98550725,6,1,6,0.022222236,0.006481489,1,0,0,1.263,rock_grid_rect_2,4,08,-1,-1,1.263,0.363888917,-0.241666653,1,0,0,2.7771,Gabbro_rect,4,2.777,1,5,0,5,0,1,,,,,,,,,,,,,
6652982569df798e71daaf11,TCR,2024-06-24_13h43.33.629,LearnStrategy,2023.2.3,Win32,28.98550725,6,1,7,-0.05277775,0.003703683,1,0,0,1.1308,rock_grid_rect_2,2,11,-1,-1,1.131,-0.09629631,-0.244444459,1,0,0,2.6865,Basalt_rect,2,2.687,1,6,0,6,0,1,,,,,,,,,,,,,
6652982569df798e71daaf11,TCR,2024-06-24_13h43.33.629,LearnStrategy,2023.2.3,Win32,28.98550725,6,1,8,0.07222225,-0.011111118,1,0,0,1.2294,rock_grid_rect_2,7,13,-1,-1,1.229,0.386111083,-0.237963005,1,0,0,2.4572,Gabbro_rect,4,2.457,0,7,0,7,0,1,,,,,,,,,,,,,
6652982569df798e71daaf11,TCR,2024-06-24_13h43.33.629,LearnStrategy,2023.2.3,Win32,28.98550725,6,1,9,0.061111097,-0.00462963,1,0,0,1.2984,rock_grid_rect_2,1,07,-1,-1,1.298,-0.343518504,-0.241666653,1,0,0,1.6549,Andesite_rect,1,1.655,1,8,0,8,0,1,,,,,,,,,,,,,
6652982569df798e71daaf11,TCR,2024-06-24_13h43.33.629,LearnStrategy,2023.2.3,Win32,28.98550725,6,1,10,0.12962963,-0.018518519,1,0,0,1.1634,rock_grid_rect_2,4,12,-1,-1,1.163,0.42777775,-0.268518519,1,0,0,2.1905,Gabbro_rect,4,2.19,1,9,0,9,0,1,,,,,,,,,,,,,
6652982569df798e71daaf11,TCR,2024-06-24_13h43.33.629,LearnStrategy,2023.2.3,Win32,28.98550725,6,1,11,0.017592607,-0.003703718,1,0,0,1.0655,rock_grid_rect_2,6,06,-1,-1,1.065,-0.130555541,-0.412037037,1,0,0,1.8516,Pegmatite_rect,6,1.852,1,10,0,10,0,1,,,,,,,,,,,,,
6652982569df798e71daaf11,TCR,2024-06-24_13h43.33.629,LearnStrategy,2023.2.3,Win32,28.98550725,6,1,12,0.062037079,0,1,0,0,1.1001,rock_grid_rect_2,7,02,-1,-1,1.1,0.137962977,-0.419444473,1,0,0,1.4464,Peridotite_rect,7,1.446,1,11,0,11,0,1,,,,,,,,,,,,,
6652982569df798e71daaf11,TCR,2024-06-24_13h43.33.629,LearnStrategy,2023.2.3,Win32,28.98550725,6,1,13,0.054629644,-0.015740748,1,0,0,1.0942,rock_grid_rect_2,2,16,-1,-1,1.094,-0.108333305,-0.247222265,1,0,0,1.9223,Basalt_rect,2,1.922,1,12,0,12,0,1,,,,,,,,,,,,,
6652982569df798e71daaf11,TCR,2024-06-24_13h43.33.629,LearnStrategy,2023.2.3,Win32,28.98550725,6,1,14,0.053703732,-0.018518519,1,0,0,1.0964,rock_grid_rect_2,7,05,-1,-1,1.096,0.121296282,-0.400925954,1,0,0,1.6914,Peridotite_rect,7,1.691,1,13,0,13,0,1,,,,,,,,,,,,,
6652982569df798e71daaf11,TCR,2024-06-24_13h43.33.629,LearnStrategy,2023.2.3,Win32,28.98550725,6,1,15,0.02407406,-0.017592607,1,0,0,1.1642,rock_grid_rect_2,4,08,-1,-1,1.164,0.415740826,-0.239814829,1,0,0,1.9553,Gabbro_rect,4,1.955,1,14,0,14,0,1,,,,,,,,,,,,,
6652982569df798e71daaf11,TCR,2024-06-24_13h43.33.629,LearnStrategy,2023.2.3,Win32,28.98550725,6,1,16,-0.047222208,0.009259259,1,0,0,1.0651,rock_grid_rect_2,1,11,-1,-1,1.065,-0.374074053,-0.238888917,1,0,0,1.5375,Andesite_rect,1,1.537,1,15,0,15,0,1,,,,,,,,,,,,,
6652982569df798e71daaf11,TCR,2024-06-24_13h43.33.629,LearnStrategy,2023.2.3,Win32,28.98550725,6,2,1,,,,,,,,7,07,,,,,,,,,,,7,2.555,1,,,,,,0.150925954,-0.407407407,1,0,0,2.5553,Peridotite_rect,0,0,0,0,1,
6652982569df798e71daaf11,TCR,2024-06-24_13h43.33.629,LearnStrategy,2023.2.3,Win32,28.98550725,6,2,2,,,,,,,,5,07,,,,,,,,,,,5,1.556,1,,,,,,-0.393518519,-0.406481496,1,0,0,1.5563,Obsidian_rect,1,0,1,0,1,
6652982569df798e71daaf11,TCR,2024-06-24_13h43.33.629,LearnStrategy,2023.2.3,Win32,28.98550725,6,2,3,,,,,,,,3,12,,,,,,,,,,,3,1.722,1,,,,,,0.111111111,-0.260185171,1,0,0,1.7224,Diorite_rect,2,0,2,0,1,
6652982569df798e71daaf11,TCR,2024-06-24_13h43.33.629,LearnStrategy,2023.2.3,Win32,28.98550725,6,2,4,,,,,,,,8,06,,,,,,,,,,,8,1.391,1,,,,,,0.381481453,-0.397222236,1,0,0,1.391,Pumice_rect,3,0,3,0,1,
6652982569df798e71daaf11,TCR,2024-06-24_13h43.33.629,LearnStrategy,2023.2.3,Win32,28.98550725,6,2,5,,,,,,,,4,13,,,,,,,,,,,4,2.386,1,,,,,,0.395370342,-0.250925912,1,0,0,2.3856,Gabbro_rect,4,0,4,0,1,
6652982569df798e71daaf11,TCR,2024-06-24_13h43.33.629,LearnStrategy,2023.2.3,Win32,28.98550725,6,2,6,,,,,,,,4,11,,,,,,,,,,,4,3.544,1,,,,,,0.407407407,-0.236111111,1,0,0,3.5439,Gabbro_rect,5,0,5,0,1,
6652982569df798e71daaf11,TCR,2024-06-24_13h43.33.629,LearnStrategy,2023.2.3,Win32,28.98550725,6,2,7,,,,,,,,1,03,,,,,,,,,,,1,1.501,1,,,,,,-0.444444444,-0.241666653,1,0,0,1.501,Andesite_rect,6,0,6,0,1,
6652982569df798e71daaf11,TCR,2024-06-24_13h43.33.629,LearnStrategy,2023.2.3,Win32,28.98550725,6,2,8,,,,,,,,2,08,,,,,,,,,,,2,1.754,1,,,,,,-0.138888889,-0.266666695,1,0,0,1.7536,Basalt_rect,7,0,7,0,1,
6652982569df798e71daaf11,TCR,2024-06-24_13h43.33.629,LearnStrategy,2023.2.3,Win32,28.98550725,6,2,9,,,,,,,,2,04,,,,,,,,,,,2,1.225,1,,,,,,-0.138888889,-0.266666695,1,0,0,1.2252,Basalt_rect,8,0,8,0,1,
6652982569df798e71daaf11,TCR,2024-06-24_13h43.33.629,LearnStrategy,2023.2.3,Win32,28.98550725,6,2,10,,,,,,,,8,03,,,,,,,,,,,8,1.954,1,,,,,,0.42777775,-0.384259259,1,0,0,1.9539,Pumice_rect,9,0,9,0,1,
6652982569df798e71daaf11,TCR,2024-06-24_13h43.33.629,LearnStrategy,2023.2.3,Win32,28.98550725,6,2,11,,,,,,,,6,13,,,,,,,,,,,6,1.458,1,,,,,,-0.112037023,-0.408333319,1,0,0,1.4583,Pegmatite_rect,10,0,10,0,1,
6652982569df798e71daaf11,TCR,2024-06-24_13h43.33.629,LearnStrategy,2023.2.3,Win32,28.98550725,6,2,12,,,,,,,,3,06,,,,,,,,,,,3,2.955,1,,,,,,0.138888889,-0.249074088,1,0,0,2.9547,Diorite_rect,11,0,11,0,1,
6652982569df798e71daaf11,TCR,2024-06-24_13h43.33.629,LearnStrategy,2023.2.3,Win32,28.98550725,6,2,13,,,,,,,,1,05,,,,,,,,,,,1,1.644,1,,,,,,-0.334259245,-0.261111153,1,0,0,1.6444,Andesite_rect,12,0,12,0,1,
6652982569df798e71daaf11,TCR,2024-06-24_13h43.33.629,LearnStrategy,2023.2.3,Win32,28.98550725,6,2,14,,,,,,,,5,11,,,,,,,,,,,5,1.156,1,,,,,,-0.392592571,-0.413888931,1,0,0,1.1559,Obsidian_rect,13,0,13,0,1,
6652982569df798e71daaf11,TCR,2024-06-24_13h43.33.629,LearnStrategy,2023.2.3,Win32,28.98550725,6,2,15,,,,,,,,6,15,,,,,,,,,,,6,1.424,1,,,,,,-0.157407407,-0.405555584,1,0,0,1.4241,Pegmatite_rect,14,0,14,0,1,
6652982569df798e71daaf11,TCR,2024-06-24_13h43.33.629,LearnStrategy,2023.2.3,Win32,28.98550725,6,2,16,,,,,,,,7,10,,,,,,,,,,,7,1.315,1,,,,,,0.108333376,-0.402777778,1,0,0,1.315,Peridotite_rect,15,0,15,0,1,
6652982569df798e71daaf11,TCR,2024-06-24_13h43.33.629,LearnStrategy,2023.2.3,Win32,28.98550725,7,1,1,0.062037079,0.0074074,1,0,0,1.6634,rock_grid_rect_2,5,09,-1,-1,1.663,-0.368518511,-0.383333347,1,0,0,1.4312,Obsidian_rect,5,1.431,1,0,0,0,0,1,,,,,,,,,,,,,
6652982569df798e71daaf11,TCR,2024-06-24_13h43.33.629,LearnStrategy,2023.2.3,Win32,28.98550725,7,1,2,0.041666667,0.011111118,1,0,0,1.8633,rock_grid_rect_2,7,02,-1,-1,1.863,0.137962977,-0.412962949,1,0,0,1.6594,Peridotite_rect,7,1.659,1,1,0,1,0,1,,,,,,,,,,,,,
6652982569df798e71daaf11,TCR,2024-06-24_13h43.33.629,LearnStrategy,2023.2.3,Win32,28.98550725,7,1,3,0.025925954,0.001851859,1,0,0,1.1986,rock_grid_rect_2,1,07,-1,-1,1.199,-0.369444423,-0.25462963,1,0,0,1.3217,Andesite_rect,1,1.322,1,2,0,2,0,1,,,,,,,,,,,,,
6652982569df798e71daaf11,TCR,2024-06-24_13h43.33.629,LearnStrategy,2023.2.3,Win32,28.98550725,7,1,4,0.056481467,0.001851859,1,0,0,1.362,rock_grid_rect_2,4,14,-1,-1,1.362,0.353703675,-0.231481481,1,0,0,1.5568,Gabbro_rect,4,1.557,1,3,0,3,0,1,,,,,,,,,,,,,
6652982569df798e71daaf11,TCR,2024-06-24_13h43.33.629,LearnStrategy,2023.2.3,Win32,28.98550725,7,1,5,-0.00462963,-0.012962977,1,0,0,1.1296,rock_grid_rect_2,4,09,-1,-1,1.13,0.353703675,-0.252777806,1,0,0,2.4588,Gabbro_rect,4,2.459,1,4,0,4,0,1,,,,,,,,,,,,,
6652982569df798e71daaf11,TCR,2024-06-24_13h43.33.629,LearnStrategy,2023.2.3,Win32,28.98550725,7,1,6,-0.055555556,0.01203703,1,0,0,1.0289,rock_grid_rect_2,8,15,-1,-1,1.029,0.354629658,-0.414814843,1,0,0,1.2906,Pumice_rect,8,1.291,1,5,0,5,0,1,,,,,,,,,,,,,
6652982569df798e71daaf11,TCR,2024-06-24_13h43.33.629,LearnStrategy,2023.2.3,Win32,28.98550725,7,1,7,-0.001851824,-0.017592607,1,0,0,1.0303,rock_grid_rect_2,2,06,-1,-1,1.03,-0.134259259,-0.260185171,1,0,0,1.1251,Basalt_rect,2,1.125,1,6,0,6,0,1,,,,,,,,,,,,,
6652982569df798e71daaf11,TCR,2024-06-24_13h43.33.629,LearnStrategy,2023.2.3,Win32,28.98550725,7,1,8,0.137037065,0.00462963,1,0,0,1.0635,rock_grid_rect_2,1,06,-1,-1,1.063,-0.39907406,-0.243518547,1,0,0,1.2209,Andesite_rect,1,1.221,1,7,0,7,0,1,,,,,,,,,,,,,
6652982569df798e71daaf11,TCR,2024-06-24_13h43.33.629,LearnStrategy,2023.2.3,Win32,28.98550725,7,1,9,0.051851838,-0.019444466,1,0,0,1.1629,rock_grid_rect_2,3,07,-1,-1,1.163,0.122222265,-0.233333376,1,0,0,1.2915,Diorite_rect,3,1.292,1,8,0,8,0,1,,,,,,,,,,,,,
6652982569df798e71daaf11,TCR,2024-06-24_13h43.33.629,LearnStrategy,2023.2.3,Win32,28.98550725,7,1,10,-0.193518533,0.005555541,1,0,0,1.1623,rock_grid_rect_2,3,16,-1,-1,1.162,0.102777764,-0.243518547,1,0,0,1.1908,Diorite_rect,3,1.191,1,9,0,9,0,1,,,,,,,,,,,,,
6652982569df798e71daaf11,TCR,2024-06-24_13h43.33.629,LearnStrategy,2023.2.3,Win32,28.98550725,7,1,11,-0.042592578,0.006481489,1,0,0,1.0306,rock_grid_rect_2,7,14,-1,-1,1.031,0.116666653,-0.40370369,1,0,0,1.4587,Peridotite_rect,7,1.459,1,10,0,10,0,1,,,,,,,,,,,,,
6652982569df798e71daaf11,TCR,2024-06-24_13h43.33.629,LearnStrategy,2023.2.3,Win32,28.98550725,7,1,12,0.070370356,0.005555541,1,0,0,1.1291,rock_grid_rect_2,4,01,-1,-1,1.129,0.122222265,-0.382407436,1,0,0,2.123,Peridotite_rect,7,2.123,0,11,0,11,0,1,,,,,,,,,,,,,
6652982569df798e71daaf11,TCR,2024-06-24_13h43.33.629,LearnStrategy,2023.2.3,Win32,28.98550725,7,1,13,0.017592607,-0.0074074,1,0,0,1.2253,rock_grid_rect_2,7,14,-1,-1,1.225,0.068518533,-0.415740755,1,0,0,2.3048,Peridotite_rect,7,2.305,1,12,0,12,0,1,,,,,,,,,,,,,
6652982569df798e71daaf11,TCR,2024-06-24_13h43.33.629,LearnStrategy,2023.2.3,Win32,28.98550725,7,1,14,0.017592607,0.012962942,1,0,0,0.9631,rock_grid_rect_2,7,05,-1,-1,0.963,0.088888875,-0.390740783,1,0,0,2.3558,Peridotite_rect,7,2.356,1,13,0,13,0,1,,,,,,,,,,,,,
6652982569df798e71daaf11,TCR,2024-06-24_13h43.33.629,LearnStrategy,2023.2.3,Win32,28.98550725,7,1,15,0.011111153,-0.021296289,1,0,0,1.1301,rock_grid_rect_2,6,08,-1,-1,1.13,-0.143518519,-0.407407407,1,0,0,2.259,Pegmatite_rect,6,2.259,1,14,0,14,0,1,,,,,,,,,,,,,
6652982569df798e71daaf11,TCR,2024-06-24_13h43.33.629,LearnStrategy,2023.2.3,Win32,28.98550725,7,1,16,0.064814815,0.006481489,1,0,0,1.1012,rock_grid_rect_2,2,02,-1,-1,1.101,-0.156481496,-0.238888917,1,0,0,1.2194,Basalt_rect,2,1.219,1,15,0,15,0,1,,,,,,,,,,,,,
6652982569df798e71daaf11,TCR,2024-06-24_13h43.33.629,LearnStrategy,2023.2.3,Win32,28.98550725,7,2,1,,,,,,,,7,10,,,,,,,,,,,7,1.521,1,,,,,,0.112963005,-0.400000042,1,0,0,1.521,Peridotite_rect,0,0,0,0,1,
6652982569df798e71daaf11,TCR,2024-06-24_13h43.33.629,LearnStrategy,2023.2.3,Win32,28.98550725,7,2,2,,,,,,,,5,06,,,,,,,,,,,5,1.157,1,,,,,,-0.390740748,-0.404629672,1,0,0,1.1567,Obsidian_rect,1,0,1,0,1,
6652982569df798e71daaf11,TCR,2024-06-24_13h43.33.629,LearnStrategy,2023.2.3,Win32,28.98550725,7,2,3,,,,,,,,1,10,,,,,,,,,,,4,2.023,0,,,,,,0.352777834,-0.256481524,1,0,0,2.023,Gabbro_rect,2,0,2,0,1,
6652982569df798e71daaf11,TCR,2024-06-24_13h43.33.629,LearnStrategy,2023.2.3,Win32,28.98550725,7,2,4,,,,,,,,4,15,,,,,,,,,,,4,1.922,1,,,,,,0.352777834,-0.260185171,1,0,0,1.9218,Gabbro_rect,3,0,3,0,1,
6652982569df798e71daaf11,TCR,2024-06-24_13h43.33.629,LearnStrategy,2023.2.3,Win32,28.98550725,7,2,5,,,,,,,,4,11,,,,,,,,,,,4,3.394,1,,,,,,0.443518603,-0.236111111,1,0,0,3.3938,Gabbro_rect,4,0,4,0,1,
6652982569df798e71daaf11,TCR,2024-06-24_13h43.33.629,LearnStrategy,2023.2.3,Win32,28.98550725,7,2,6,,,,,,,,6,10,,,,,,,,,,,6,1.743,1,,,,,,-0.118518476,-0.40370369,1,0,0,1.7427,Pegmatite_rect,5,0,5,0,1,
6652982569df798e71daaf11,TCR,2024-06-24_13h43.33.629,LearnStrategy,2023.2.3,Win32,28.98550725,7,2,7,,,,,,,,8,06,,,,,,,,,,,8,1.245,1,,,,,,0.390740712,-0.389814801,1,0,0,1.2449,Pumice_rect,6,0,6,0,1,
6652982569df798e71daaf11,TCR,2024-06-24_13h43.33.629,LearnStrategy,2023.2.3,Win32,28.98550725,7,2,8,,,,,,,,1,01,,,,,,,,,,,1,2.623,1,,,,,,-0.354629623,-0.25462963,1,0,0,2.6227,Andesite_rect,7,0,7,0,1,
6652982569df798e71daaf11,TCR,2024-06-24_13h43.33.629,LearnStrategy,2023.2.3,Win32,28.98550725,7,2,9,,,,,,,,8,04,,,,,,,,,,,8,1.678,1,,,,,,0.36018527,-0.407407407,1,0,0,1.6775,Pumice_rect,8,0,8,0,1,
6652982569df798e71daaf11,TCR,2024-06-24_13h43.33.629,LearnStrategy,2023.2.3,Win32,28.98550725,7,2,10,,,,,,,,3,10,,,,,,,,,,,3,2.122,1,,,,,,0.173148191,-0.243518547,1,0,0,2.1224,Diorite_rect,9,0,9,0,1,
6652982569df798e71daaf11,TCR,2024-06-24_13h43.33.629,LearnStrategy,2023.2.3,Win32,28.98550725,7,2,11,,,,,,,,3,15,,,,,,,,,,,3,1.326,1,,,,,,0.170370384,-0.246296282,1,0,0,1.3262,Diorite_rect,10,0,10,0,1,
6652982569df798e71daaf11,TCR,2024-06-24_13h43.33.629,LearnStrategy,2023.2.3,Win32,28.98550725,7,2,12,,,,,,,,6,11,,,,,,,,,,,6,1.158,1,,,,,,-0.12037037,-0.384259259,1,0,0,1.1577,Pegmatite_rect,11,0,11,0,1,
6652982569df798e71daaf11,TCR,2024-06-24_13h43.33.629,LearnStrategy,2023.2.3,Win32,28.98550725,7,2,13,,,,,,,,7,12,,,,,,,,,,,3,1.256,0,,,,,,0.080555598,-0.265740783,1,0,0,1.2564,Diorite_rect,12,0,12,0,1,
6652982569df798e71daaf11,TCR,2024-06-24_13h43.33.629,LearnStrategy,2023.2.3,Win32,28.98550725,7,2,14,,,,,,,,5,11,,,,,,,,,,,5,1.356,1,,,,,,-0.38703703,-0.402777778,1,0,0,1.3559,Obsidian_rect,13,0,13,0,1,
6652982569df798e71daaf11,TCR,2024-06-24_13h43.33.629,LearnStrategy,2023.2.3,Win32,28.98550725,7,2,15,,,,,,,,2,05,,,,,,,,,,,2,1.255,1,,,,,,-0.183333291,-0.255555541,1,0,0,1.2555,Basalt_rect,14,0,14,0,1,
6652982569df798e71daaf11,TCR,2024-06-24_13h43.33.629,LearnStrategy,2023.2.3,Win32,28.98550725,7,2,16,,,,,,,,2,04,,,,,,,,,,,2,1.091,1,,,,,,-0.183333291,-0.255555541,1,0,0,1.0914,Basalt_rect,15,0,15,0,1,
6652982569df798e71daaf11,TCR,2024-06-24_13h43.33.629,LearnStrategy,2023.2.3,Win32,28.98550725,8,1,1,0.017592607,-0.014814836,1,0,0,1.3294,rock_grid_rect_2,7,13,-1,-1,1.329,0.118518547,-0.393518519,1,0,0,5.2568,Peridotite_rect,7,5.257,1,0,0,0,0,1,,,,,,,,,,,,,
6652982569df798e71daaf11,TCR,2024-06-24_13h43.33.629,LearnStrategy,2023.2.3,Win32,28.98550725,8,1,2,-0.000925912,-0.005555577,1,0,0,1.1953,rock_grid_rect_2,4,12,-1,-1,1.195,0.329629686,-0.249074088,1,0,0,1.824,Gabbro_rect,4,1.824,1,1,0,1,0,1,,,,,,,,,,,,,
6652982569df798e71daaf11,TCR,2024-06-24_13h43.33.629,LearnStrategy,2023.2.3,Win32,28.98550725,8,1,3,0.015740783,-0.002777771,1,0,0,1.1,rock_grid_rect_2,4,14,-1,-1,1.1,0.334259316,-0.239814829,1,0,0,2.5861,Gabbro_rect,4,2.586,1,2,0,2,0,1,,,,,,,,,,,,,
6652982569df798e71daaf11,TCR,2024-06-24_13h43.33.629,LearnStrategy,2023.2.3,Win32,28.98550725,8,1,4,0.042592578,0.006481489,1,0,0,1.3307,rock_grid_rect_2,3,08,-1,-1,1.331,0.098148134,-0.236111111,1,0,0,1.39,Diorite_rect,3,1.39,1,3,0,3,0,1,,,,,,,,,,,,,
6652982569df798e71daaf11,TCR,2024-06-24_13h43.33.629,LearnStrategy,2023.2.3,Win32,28.98550725,8,1,5,0.008333347,0.009259259,1,0,0,1.0287,rock_grid_rect_2,7,14,-1,-1,1.029,0.099074116,-0.387037065,1,0,0,1.1918,Peridotite_rect,7,1.192,1,4,0,4,0,1,,,,,,,,,,,,,
6652982569df798e71daaf11,TCR,2024-06-24_13h43.33.629,LearnStrategy,2023.2.3,Win32,28.98550725,8,1,6,0.018518519,-0.000925947,1,0,0,1.3967,rock_grid_rect_2,1,09,-1,-1,1.397,-0.396296289,-0.249074088,1,0,0,1.5572,Andesite_rect,1,1.557,1,5,0,5,0,1,,,,,,,,,,,,,
6652982569df798e71daaf11,TCR,2024-06-24_13h43.33.629,LearnStrategy,2023.2.3,Win32,28.98550725,8,1,7,0.015740783,-0.008333347,1,0,0,1.03,rock_grid_rect_2,5,16,-1,-1,1.03,-0.419444437,-0.417592578,1,0,0,2.0915,Obsidian_rect,5,2.091,1,6,0,6,0,1,,,,,,,,,,,,,
6652982569df798e71daaf11,TCR,2024-06-24_13h43.33.629,LearnStrategy,2023.2.3,Win32,28.98550725,8,1,8,0.110185199,-0.00462963,1,0,0,1.0287,rock_grid_rect_2,6,07,-1,-1,1.029,-0.089814787,-0.39907406,1,0,0,1.2249,Pegmatite_rect,6,1.225,1,7,0,7,0,1,,,,,,,,,,,,,
6652982569df798e71daaf11,TCR,2024-06-24_13h43.33.629,LearnStrategy,2023.2.3,Win32,28.98550725,8,1,9,0.059259273,-0.009259259,1,0,0,0.9627,rock_grid_rect_2,7,04,-1,-1,0.963,0.118518547,-0.387962977,1,0,0,1.4565,Peridotite_rect,7,1.457,1,8,0,8,0,1,,,,,,,,,,,,,
6652982569df798e71daaf11,TCR,2024-06-24_13h43.33.629,LearnStrategy,2023.2.3,Win32,28.98550725,8,1,10,0.00462963,-0.013888889,1,0,0,1.2974,rock_grid_rect_2,3,14,-1,-1,1.297,0.086111139,-0.242592635,1,0,0,1.9563,Diorite_rect,3,1.956,1,9,0,9,0,1,,,,,,,,,,,,,
6652982569df798e71daaf11,TCR,2024-06-24_13h43.33.629,LearnStrategy,2023.2.3,Win32,28.98550725,8,1,11,0.011111153,0.006481489,1,0,0,1.028,rock_grid_rect_2,2,06,-1,-1,1.028,-0.186111097,-0.251851894,1,0,0,1.2204,Basalt_rect,2,1.22,1,10,0,10,0,1,,,,,,,,,,,,,
6652982569df798e71daaf11,TCR,2024-06-24_13h43.33.629,LearnStrategy,2023.2.3,Win32,28.98550725,8,1,12,0.056481467,0.006481489,1,0,0,0.9307,rock_grid_rect_2,8,14,-1,-1,0.931,0.384259259,-0.400925954,1,0,0,1.4239,Pumice_rect,8,1.424,1,11,0,11,0,1,,,,,,,,,,,,,
6652982569df798e71daaf11,TCR,2024-06-24_13h43.33.629,LearnStrategy,2023.2.3,Win32,28.98550725,8,1,13,0.012962977,-0.017592607,1,0,0,1.0295,rock_grid_rect_2,1,07,-1,-1,1.03,-0.384259259,-0.237037023,1,0,0,2.2567,Andesite_rect,1,2.257,1,12,0,12,0,1,,,,,,,,,,,,,
6652982569df798e71daaf11,TCR,2024-06-24_13h43.33.629,LearnStrategy,2023.2.3,Win32,28.98550725,8,1,14,0.077777792,-0.010185206,1,0,0,1.2318,rock_grid_rect_2,7,14,-1,-1,1.232,0.137037065,-0.40370369,1,0,0,1.2248,Peridotite_rect,7,1.225,1,13,0,13,0,1,,,,,,,,,,,,,
6652982569df798e71daaf11,TCR,2024-06-24_13h43.33.629,LearnStrategy,2023.2.3,Win32,28.98550725,8,1,15,0.074074074,0.0074074,1,0,0,1.1971,rock_grid_rect_2,2,01,-1,-1,1.197,-0.141666624,-0.235185199,1,0,0,1.2907,Basalt_rect,2,1.291,1,14,0,14,0,1,,,,,,,,,,,,,
6652982569df798e71daaf11,TCR,2024-06-24_13h43.33.629,LearnStrategy,2023.2.3,Win32,28.98550725,8,1,16,0.035185213,-0.002777771,1,0,0,1.1966,rock_grid_rect_2,1,16,-1,-1,1.197,-0.336111104,-0.228703746,1,0,0,1.9574,Andesite_rect,1,1.957,1,15,0,15,0,1,,,,,,,,,,,,,
6652982569df798e71daaf11,TCR,2024-06-24_13h43.33.629,LearnStrategy,2023.2.3,Win32,28.98550725,8,2,1,,,,,,,,1,03,,,,,,,,,,,1,2.467,1,,,,,,-0.380555541,-0.262962977,1,0,0,2.4671,Andesite_rect,0,0,0,0,1,
6652982569df798e71daaf11,TCR,2024-06-24_13h43.33.629,LearnStrategy,2023.2.3,Win32,28.98550725,8,2,2,,,,,,,,7,15,,,,,,,,,,,7,1.441,1,,,,,,0.091666681,-0.398148148,1,0,0,1.4412,Peridotite_rect,1,0,1,0,1,
6652982569df798e71daaf11,TCR,2024-06-24_13h43.33.629,LearnStrategy,2023.2.3,Win32,28.98550725,8,2,3,,,,,,,,7,16,,,,,,,,,,,4,2.823,0,,,,,,0.422222279,-0.267592607,1,0,0,2.8233,Gabbro_rect,2,0,2,0,1,
6652982569df798e71daaf11,TCR,2024-06-24_13h43.33.629,LearnStrategy,2023.2.3,Win32,28.98550725,8,2,4,,,,,,,,4,13,,,,,,,,,,,4,2.456,1,,,,,,0.420370455,-0.264814801,1,0,0,2.4557,Gabbro_rect,3,0,3,0,1,
6652982569df798e71daaf11,TCR,2024-06-24_13h43.33.629,LearnStrategy,2023.2.3,Win32,28.98550725,8,2,5,,,,,,,,5,08,,,,,,,,,,,5,1.376,1,,,,,,-0.410185178,-0.380555541,1,0,0,1.3764,Obsidian_rect,4,0,4,0,1,
6652982569df798e71daaf11,TCR,2024-06-24_13h43.33.629,LearnStrategy,2023.2.3,Win32,28.98550725,8,2,6,,,,,,,,2,12,,,,,,,,,,,8,1.557,0,,,,,,0.437037009,-0.405555584,1,0,0,1.5572,Pumice_rect,5,0,5,0,1,
6652982569df798e71daaf11,TCR,2024-06-24_13h43.33.629,LearnStrategy,2023.2.3,Win32,28.98550725,8,2,7,,,,,,,,5,10,,,,,,,,,,,5,1.424,1,,,,,,-0.336111104,-0.39907406,1,0,0,1.4238,Obsidian_rect,6,0,6,0,1,
6652982569df798e71daaf11,TCR,2024-06-24_13h43.33.629,LearnStrategy,2023.2.3,Win32,28.98550725,8,2,8,,,,,,,,3,13,,,,,,,,,,,3,1.992,1,,,,,,0.110185199,-0.263888889,1,0,0,1.992,Diorite_rect,7,0,7,0,1,
6652982569df798e71daaf11,TCR,2024-06-24_13h43.33.629,LearnStrategy,2023.2.3,Win32,28.98550725,8,2,9,,,,,,,,1,05,,,,,,,,,,,1,1.724,1,,,,,,-0.455555563,-0.267592607,1,0,0,1.7243,Andesite_rect,8,0,8,0,1,
6652982569df798e71daaf11,TCR,2024-06-24_13h43.33.629,LearnStrategy,2023.2.3,Win32,28.98550725,8,2,10,,,,,,,,6,13,,,,,,,,,,,6,1.522,1,,,,,,-0.150925884,-0.39907406,1,0,0,1.5222,Pegmatite_rect,9,0,9,0,1,
6652982569df798e71daaf11,TCR,2024-06-24_13h43.33.629,LearnStrategy,2023.2.3,Win32,28.98550725,8,2,11,,,,,,,,3,12,,,,,,,,,,,3,1.426,1,,,,,,0.179629644,-0.234259288,1,0,0,1.4255,Diorite_rect,10,0,10,0,1,
6652982569df798e71daaf11,TCR,2024-06-24_13h43.33.629,LearnStrategy,2023.2.3,Win32,28.98550725,8,2,12,,,,,,,,8,16,,,,,,,,,,,8,1.359,1,,,,,,0.337962963,-0.390740783,1,0,0,1.3585,Pumice_rect,11,0,11,0,1,
6652982569df798e71daaf11,TCR,2024-06-24_13h43.33.629,LearnStrategy,2023.2.3,Win32,28.98550725,8,2,13,,,,,,,,8,13,,,,,,,,,,,8,1.254,1,,,,,,0.350926011,-0.400000042,1,0,0,1.2539,Pumice_rect,12,0,12,0,1,
6652982569df798e71daaf11,TCR,2024-06-24_13h43.33.629,LearnStrategy,2023.2.3,Win32,28.98550725,8,2,14,,,,,,,,4,16,,,,,,,,,,,4,5.055,1,,,,,,0.375925982,-0.243518547,1,0,0,5.0552,Gabbro_rect,13,0,13,0,1,
6652982569df798e71daaf11,TCR,2024-06-24_13h43.33.629,LearnStrategy,2023.2.3,Win32,28.98550725,8,2,15,,,,,,,,6,15,,,,,,,,,,,6,1.372,1,,,,,,-0.152777778,-0.391666695,1,0,0,1.3719,Pegmatite_rect,14,0,14,0,1,
6652982569df798e71daaf11,TCR,2024-06-24_13h43.33.629,LearnStrategy,2023.2.3,Win32,28.98550725,8,2,16,,,,,,,,2,14,,,,,,,,,,,8,1.488,0,,,,,,0.35555564,-0.386111153,1,0,0,1.4876,Pumice_rect,15,0,15,0,1,
6652982569df798e71daaf11,TCR,2024-06-24_13h43.33.629,LearnStrategy,2023.2.3,Win32,28.98550725,9,1,1,0.050000014,-0.0074074,1,0,0,1.2297,rock_grid_rect_2,7,02,-1,-1,1.23,0.112037023,-0.388888889,1,0,0,2.4805,Peridotite_rect,7,2.48,1,0,0,0,0,1,,,,,,,,,,,,,
6652982569df798e71daaf11,TCR,2024-06-24_13h43.33.629,LearnStrategy,2023.2.3,Win32,28.98550725,9,1,2,0.082407422,0.010185171,1,0,0,1.1963,rock_grid_rect_2,2,02,-1,-1,1.196,-0.142592607,-0.253703718,1,0,0,1.2242,Basalt_rect,2,1.224,1,1,0,1,0,1,,,,,,,,,,,,,
6652982569df798e71daaf11,TCR,2024-06-24_13h43.33.629,LearnStrategy,2023.2.3,Win32,28.98550725,9,1,3,0.080555598,-0.000925947,1,0,0,1.0955,rock_grid_rect_2,4,01,-1,-1,1.095,0.113888917,-0.413888931,1,0,0,2.2235,Peridotite_rect,7,2.224,0,2,0,2,0,1,,,,,,,,,,,,,
6652982569df798e71daaf11,TCR,2024-06-24_13h43.33.629,LearnStrategy,2023.2.3,Win32,28.98550725,9,1,4,0.065740727,-0.00462963,1,0,0,1.3324,rock_grid_rect_2,8,08,-1,-1,1.332,0.426851908,-0.393518519,1,0,0,1.3882,Pumice_rect,8,1.388,1,3,0,3,0,1,,,,,,,,,,,,,
6652982569df798e71daaf11,TCR,2024-06-24_13h43.33.629,LearnStrategy,2023.2.3,Win32,28.98550725,9,1,5,0.008333347,0.000925912,1,0,0,1.1964,rock_grid_rect_2,2,09,-1,-1,1.196,-0.161111125,-0.234259288,1,0,0,1.3232,Basalt_rect,2,1.323,1,4,0,4,0,1,,,,,,,,,,,,,
6652982569df798e71daaf11,TCR,2024-06-24_13h43.33.629,LearnStrategy,2023.2.3,Win32,28.98550725,9,1,6,0.075925968,-0.002777771,1,0,0,1.1639,rock_grid_rect_2,3,11,-1,-1,1.164,0.152777778,-0.237963005,1,0,0,1.259,Diorite_rect,3,1.259,1,5,0,5,0,1,,,,,,,,,,,,,
6652982569df798e71daaf11,TCR,2024-06-24_13h43.33.629,LearnStrategy,2023.2.3,Win32,28.98550725,9,1,7,0.053703732,0,1,0,0,1.0627,rock_grid_rect_2,1,14,-1,-1,1.063,-0.350925905,-0.24537037,1,0,0,2.2023,Andesite_rect,1,2.202,1,6,0,6,0,1,,,,,,,,,,,,,
6652982569df798e71daaf11,TCR,2024-06-24_13h43.33.629,LearnStrategy,2023.2.3,Win32,28.98550725,9,1,8,0.094444487,-0.000925947,1,0,0,1.2299,rock_grid_rect_2,7,04,-1,-1,1.23,0.126851894,-0.392592607,1,0,0,2.8866,Peridotite_rect,7,2.887,1,7,0,7,0,1,,,,,,,,,,,,,
6652982569df798e71daaf11,TCR,2024-06-24_13h43.33.629,LearnStrategy,2023.2.3,Win32,28.98550725,9,1,9,0.05740745,0.001851859,1,0,0,1.1624,rock_grid_rect_2,2,16,-1,-1,1.162,-0.114814829,-0.253703718,1,0,0,2.1915,Basalt_rect,2,2.191,1,8,0,8,0,1,,,,,,,,,,,,,
6652982569df798e71daaf11,TCR,2024-06-24_13h43.33.629,LearnStrategy,2023.2.3,Win32,28.98550725,9,1,10,0.147222236,-0.012962977,1,0,0,1.8972,rock_grid_rect_2,7,14,-1,-1,1.897,0.100000028,-0.395370413,1,0,0,2.2251,Peridotite_rect,7,2.225,1,9,0,9,0,1,,,,,,,,,,,,,
6652982569df798e71daaf11,TCR,2024-06-24_13h43.33.629,LearnStrategy,2023.2.3,Win32,28.98550725,9,1,11,0.085185228,0.009259259,1,0,0,1.1293,rock_grid_rect_2,5,04,-1,-1,1.129,-0.412962949,-0.406481496,1,0,0,2.3589,Obsidian_rect,5,2.359,1,10,0,10,0,1,,,,,,,,,,,,,
6652982569df798e71daaf11,TCR,2024-06-24_13h43.33.629,LearnStrategy,2023.2.3,Win32,28.98550725,9,1,12,0.075925968,-0.009259259,1,0,0,1.7961,rock_grid_rect_2,2,01,-1,-1,1.796,-0.137962977,-0.258333347,1,0,0,1.2892,Basalt_rect,2,1.289,1,11,0,11,0,1,,,,,,,,,,,,,
6652982569df798e71daaf11,TCR,2024-06-24_13h43.33.629,LearnStrategy,2023.2.3,Win32,28.98550725,9,1,13,0.097222222,-0.000925947,1,0,0,1.2953,rock_grid_rect_2,7,14,-1,-1,1.295,0.162037037,-0.411111125,1,0,0,1.19,Peridotite_rect,7,1.19,1,12,0,12,0,1,,,,,,,,,,,,,
6652982569df798e71daaf11,TCR,2024-06-24_13h43.33.629,LearnStrategy,2023.2.3,Win32,28.98550725,9,1,14,0.125925912,-0.009259259,1,0,0,1.3299,rock_grid_rect_2,1,16,-1,-1,1.33,-0.3675926,-0.247222265,1,0,0,1.1234,Andesite_rect,1,1.123,1,13,0,13,0,1,,,,,,,,,,,,,
6652982569df798e71daaf11,TCR,2024-06-24_13h43.33.629,LearnStrategy,2023.2.3,Win32,28.98550725,9,1,15,0.041666667,-0.015740748,1,0,0,1.0274,rock_grid_rect_2,4,09,-1,-1,1.027,0.347222222,-0.238888917,1,0,0,1.7246,Gabbro_rect,4,1.725,1,14,0,14,0,1,,,,,,,,,,,,,
6652982569df798e71daaf11,TCR,2024-06-24_13h43.33.629,LearnStrategy,2023.2.3,Win32,28.98550725,9,1,16,0.064814815,-0.013888889,1,0,0,1.1962,rock_grid_rect_2,6,03,-1,-1,1.196,-0.125925912,-0.412962949,1,0,0,1.4906,Pegmatite_rect,6,1.491,1,15,0,15,0,1,,,,,,,,,,,,,
6652982569df798e71daaf11,TCR,2024-06-24_13h43.33.629,LearnStrategy,2023.2.3,Win32,28.98550725,9,2,1,,,,,,,,6,16,,,,,,,,,,,6,1.424,1,,,,,,-0.088888875,-0.382407436,1,0,0,1.4237,Pegmatite_rect,0,0,0,0,1,
6652982569df798e71daaf11,TCR,2024-06-24_13h43.33.629,LearnStrategy,2023.2.3,Win32,28.98550725,9,2,2,,,,,,,,7,06,,,,,,,,,,,7,4.484,1,,,,,,0.152777778,-0.389814801,1,0,0,4.484,Peridotite_rect,1,0,1,0,1,
6652982569df798e71daaf11,TCR,2024-06-24_13h43.33.629,LearnStrategy,2023.2.3,Win32,28.98550725,9,2,3,,,,,,,,5,07,,,,,,,,,,,5,1.213,1,,,,,,-0.418518526,-0.400925954,1,0,0,1.2127,Obsidian_rect,2,0,2,0,1,
6652982569df798e71daaf11,TCR,2024-06-24_13h43.33.629,LearnStrategy,2023.2.3,Win32,28.98550725,9,2,4,,,,,,,,4,05,,,,,,,,,,,4,1.99,1,,,,,,0.354629658,-0.244444459,1,0,0,1.9899,Gabbro_rect,3,0,3,0,1,
6652982569df798e71daaf11,TCR,2024-06-24_13h43.33.629,LearnStrategy,2023.2.3,Win32,28.98550725,9,2,5,,,,,,,,2,10,,,,,,,,,,,2,2.379,1,,,,,,-0.115740741,-0.247222265,1,0,0,2.3785,Basalt_rect,4,0,4,0,1,
6652982569df798e71daaf11,TCR,2024-06-24_13h43.33.629,LearnStrategy,2023.2.3,Win32,28.98550725,9,2,6,,,,,,,,8,10,,,,,,,,,,,8,1.322,1,,,,,,0.415740826,-0.393518519,1,0,0,1.3219,Pumice_rect,5,0,5,0,1,
6652982569df798e71daaf11,TCR,2024-06-24_13h43.33.629,LearnStrategy,2023.2.3,Win32,28.98550725,9,2,7,,,,,,,,3,06,,,,,,,,,,,3,1.755,1,,,,,,0.163888931,-0.261111153,1,0,0,1.7545,Diorite_rect,6,0,6,0,1,
6652982569df798e71daaf11,TCR,2024-06-24_13h43.33.629,LearnStrategy,2023.2.3,Win32,28.98550725,9,2,8,,,,,,,,8,03,,,,,,,,,,,8,1.257,1,,,,,,0.3648149,-0.408333319,1,0,0,1.2569,Pumice_rect,7,0,7,0,1,
6652982569df798e71daaf11,TCR,2024-06-24_13h43.33.629,LearnStrategy,2023.2.3,Win32,28.98550725,9,2,9,,,,,,,,1,04,,,,,,,,,,,1,1.523,1,,,,,,-0.359259252,-0.232407393,1,0,0,1.5226,Andesite_rect,8,0,8,0,1,
6652982569df798e71daaf11,TCR,2024-06-24_13h43.33.629,LearnStrategy,2023.2.3,Win32,28.98550725,9,2,10,,,,,,,,7,07,,,,,,,,,,,7,1.491,1,,,,,,0.08148151,-0.412037037,1,0,0,1.4907,Peridotite_rect,9,0,9,0,1,
6652982569df798e71daaf11,TCR,2024-06-24_13h43.33.629,LearnStrategy,2023.2.3,Win32,28.98550725,9,2,11,,,,,,,,6,12,,,,,,,,,,,6,1.159,1,,,,,,-0.166666667,-0.39444443,1,0,0,1.1593,Pegmatite_rect,10,0,10,0,1,
6652982569df798e71daaf11,TCR,2024-06-24_13h43.33.629,LearnStrategy,2023.2.3,Win32,28.98550725,9,2,12,,,,,,,,1,02,,,,,,,,,,,1,2.659,1,,,,,,-0.354629623,-0.250925912,1,0,0,2.6587,Andesite_rect,11,0,11,0,1,
6652982569df798e71daaf11,TCR,2024-06-24_13h43.33.629,LearnStrategy,2023.2.3,Win32,28.98550725,9,2,13,,,,,,,,2,08,,,,,,,,,,,2,1.159,1,,,,,,-0.131481453,-0.241666653,1,0,0,1.1592,Basalt_rect,12,0,12,0,1,
6652982569df798e71daaf11,TCR,2024-06-24_13h43.33.629,LearnStrategy,2023.2.3,Win32,28.98550725,9,2,14,,,,,,,,3,02,,,,,,,,,,,3,1.192,1,,,,,,0.162962949,-0.241666653,1,0,0,1.1924,Diorite_rect,13,0,13,0,1,
6652982569df798e71daaf11,TCR,2024-06-24_13h43.33.629,LearnStrategy,2023.2.3,Win32,28.98550725,9,2,15,,,,,,,,5,14,,,,,,,,,,,5,1.424,1,,,,,,-0.3675926,-0.392592607,1,0,0,1.4243,Obsidian_rect,14,0,14,0,1,
6652982569df798e71daaf11,TCR,2024-06-24_13h43.33.629,LearnStrategy,2023.2.3,Win32,28.98550725,9,2,16,,,,,,,,4,03,,,,,,,,,,,4,3.166,1,,,,,,0.371296353,-0.25,1,0,0,3.1657,Gabbro_rect,15,0,15,0,1,
6652982569df798e71daaf11,TCR,2024-06-24_13h43.33.629,LearnStrategy,2023.2.3,Win32,28.98550725,,,,,,,,,,,,,,,,,,,,,,,,,,,,,,,,,,,,,,,,,,,1
6652982569df798e71daaf11,TCR,2024-06-24_13h43.33.629,LearnStrategy,2023.2.3,Win32,28.98550725,,,,,,,,,,,,,,,,,,,,,,,,,,,,,,,,,,,,,,,,,,,
6652982569df798e71daaf11,TCR,2024-06-24_13h43.33.629,LearnStrategy,2023.2.3,Win32,28.98550725,,,,,,,,,,,5,04,1,1,,,,,,,,,,,,,,,,,,,,,,,,,,,,,
6652982569df798e71daaf11,TCR,2024-06-24_13h43.33.629,LearnStrategy,2023.2.3,Win32,28.98550725,,,,,,,,,,,7,14,1,2,,,,,,,,,,,,,,,,,,,,,,,,,,,,,
6652982569df798e71daaf11,TCR,2024-06-24_13h43.33.629,LearnStrategy,2023.2.3,Win32,28.98550725,,,,,,,,,,,8,14,1,3,,,,,,,,,,,,,,,,,,,,,,,,,,,,,
6652982569df798e71daaf11,TCR,2024-06-24_13h43.33.629,LearnStrategy,2023.2.3,Win32,28.98550725,,,,,,,,,,,1,16,1,4,,,,,,,,,,,,,,,,,,,,,,,,,,,,,
6652982569df798e71daaf11,TCR,2024-06-24_13h43.33.629,LearnStrategy,2023.2.3,Win32,28.98550725,,,,,,,,,,,5,02,1,5,,,,,,,,,,,,,,,,,,,,,,,,,,,,,
6652982569df798e71daaf11,TCR,2024-06-24_13h43.33.629,LearnStrategy,2023.2.3,Win32,28.98550725,,,,,,,,,,,6,09,1,6,,,,,,,,,,,,,,,,,,,,,,,,,,,,,
6652982569df798e71daaf11,TCR,2024-06-24_13h43.33.629,LearnStrategy,2023.2.3,Win32,28.98550725,,,,,,,,,,,3,07,1,7,,,,,,,,,,,,,,,,,,,,,,,,,,,,,
6652982569df798e71daaf11,TCR,2024-06-24_13h43.33.629,LearnStrategy,2023.2.3,Win32,28.98550725,,,,,,,,,,,5,05,1,8,,,,,,,,,,,,,,,,,,,,,,,,,,,,,
6652982569df798e71daaf11,TCR,2024-06-24_13h43.33.629,LearnStrategy,2023.2.3,Win32,28.98550725,,,,,,,,,,,6,07,2,1,,,,,,,,,,,,,,,,,,,,,,,,,,,,,
6652982569df798e71daaf11,TCR,2024-06-24_13h43.33.629,LearnStrategy,2023.2.3,Win32,28.98550725,,,,,,,,,,,1,09,2,2,,,,,,,,,,,,,,,,,,,,,,,,,,,,,
6652982569df798e71daaf11,TCR,2024-06-24_13h43.33.629,LearnStrategy,2023.2.3,Win32,28.98550725,,,,,,,,,,,6,06,2,3,,,,,,,,,,,,,,,,,,,,,,,,,,,,,
6652982569df798e71daaf11,TCR,2024-06-24_13h43.33.629,LearnStrategy,2023.2.3,Win32,28.98550725,,,,,,,,,,,2,09,2,4,,,,,,,,,,,,,,,,,,,,,,,,,,,,,
6652982569df798e71daaf11,TCR,2024-06-24_13h43.33.629,LearnStrategy,2023.2.3,Win32,28.98550725,,,,,,,,,,,4,09,2,5,,,,,,,,,,,,,,,,,,,,,,,,,,,,,
6652982569df798e71daaf11,TCR,2024-06-24_13h43.33.629,LearnStrategy,2023.2.3,Win32,28.98550725,,,,,,,,,,,3,09,2,6,,,,,,,,,,,,,,,,,,,,,,,,,,,,,
6652982569df798e71daaf11,TCR,2024-06-24_13h43.33.629,LearnStrategy,2023.2.3,Win32,28.98550725,,,,,,,,,,,8,02,2,7,,,,,,,,,,,,,,,,,,,,,,,,,,,,,
6652982569df798e71daaf11,TCR,2024-06-24_13h43.33.629,LearnStrategy,2023.2.3,Win32,28.98550725,,,,,,,,,,,8,08,2,8,,,,,,,,,,,,,,,,,,,,,,,,,,,,,
6652982569df798e71daaf11,TCR,2024-06-24_13h43.33.629,LearnStrategy,2023.2.3,Win32,28.98550725,,,,,,,,,,,5,09,3,1,,,,,,,,,,,,,,,,,,,,,,,,,,,,,
6652982569df798e71daaf11,TCR,2024-06-24_13h43.33.629,LearnStrategy,2023.2.3,Win32,28.98550725,,,,,,,,,,,6,05,3,2,,,,,,,,,,,,,,,,,,,,,,,,,,,,,
6652982569df798e71daaf11,TCR,2024-06-24_13h43.33.629,LearnStrategy,2023.2.3,Win32,28.98550725,,,,,,,,,,,3,14,3,3,,,,,,,,,,,,,,,,,,,,,,,,,,,,,
6652982569df798e71daaf11,TCR,2024-06-24_13h43.33.629,LearnStrategy,2023.2.3,Win32,28.98550725,,,,,,,,,,,4,12,3,4,,,,,,,,,,,,,,,,,,,,,,,,,,,,,
6652982569df798e71daaf11,TCR,2024-06-24_13h43.33.629,LearnStrategy,2023.2.3,Win32,28.98550725,,,,,,,,,,,7,04,3,5,,,,,,,,,,,,,,,,,,,,,,,,,,,,,
6652982569df798e71daaf11,TCR,2024-06-24_13h43.33.629,LearnStrategy,2023.2.3,Win32,28.98550725,,,,,,,,,,,1,06,3,6,,,,,,,,,,,,,,,,,,,,,,,,,,,,,
6652982569df798e71daaf11,TCR,2024-06-24_13h43.33.629,LearnStrategy,2023.2.3,Win32,28.98550725,,,,,,,,,,,7,05,3,7,,,,,,,,,,,,,,,,,,,,,,,,,,,,,
6652982569df798e71daaf11,TCR,2024-06-24_13h43.33.629,LearnStrategy,2023.2.3,Win32,28.98550725,,,,,,,,,,,2,11,3,8,,,,,,,,,,,,,,,,,,,,,,,,,,,,,
6652982569df798e71daaf11,TCR,2024-06-24_13h43.33.629,LearnStrategy,2023.2.3,Win32,28.98550725,,,,,,,,,,,8,15,4,1,,,,,,,,,,,,,,,,,,,,,,,,,,,,,
6652982569df798e71daaf11,TCR,2024-06-24_13h43.33.629,LearnStrategy,2023.2.3,Win32,28.98550725,,,,,,,,,,,4,01,4,2,,,,,,,,,,,,,,,,,,,,,,,,,,,,,
6652982569df798e71daaf11,TCR,2024-06-24_13h43.33.629,LearnStrategy,2023.2.3,Win32,28.98550725,,,,,,,,,,,4,08,4,3,,,,,,,,,,,,,,,,,,,,,,,,,,,,,
6652982569df798e71daaf11,TCR,2024-06-24_13h43.33.629,LearnStrategy,2023.2.3,Win32,28.98550725,,,,,,,,,,,6,08,4,4,,,,,,,,,,,,,,,,,,,,,,,,,,,,,
6652982569df798e71daaf11,TCR,2024-06-24_13h43.33.629,LearnStrategy,2023.2.3,Win32,28.98550725,,,,,,,,,,,1,11,4,5,,,,,,,,,,,,,,,,,,,,,,,,,,,,,
6652982569df798e71daaf11,TCR,2024-06-24_13h43.33.629,LearnStrategy,2023.2.3,Win32,28.98550725,,,,,,,,,,,4,14,4,6,,,,,,,,,,,,,,,,,,,,,,,,,,,,,
6652982569df798e71daaf11,TCR,2024-06-24_13h43.33.629,LearnStrategy,2023.2.3,Win32,28.98550725,,,,,,,,,,,5,12,4,7,,,,,,,,,,,,,,,,,,,,,,,,,,,,,
6652982569df798e71daaf11,TCR,2024-06-24_13h43.33.629,LearnStrategy,2023.2.3,Win32,28.98550725,,,,,,,,,,,7,02,4,8,,,,,,,,,,,,,,,,,,,,,,,,,,,,,
6652982569df798e71daaf11,TCR,2024-06-24_13h43.33.629,LearnStrategy,2023.2.3,Win32,28.98550725,,,,,,,,,,,3,08,5,1,,,,,,,,,,,,,,,,,,,,,,,,,,,,,
6652982569df798e71daaf11,TCR,2024-06-24_13h43.33.629,LearnStrategy,2023.2.3,Win32,28.98550725,,,,,,,,,,,5,16,5,2,,,,,,,,,,,,,,,,,,,,,,,,,,,,,
6652982569df798e71daaf11,TCR,2024-06-24_13h43.33.629,LearnStrategy,2023.2.3,Win32,28.98550725,,,,,,,,,,,1,14,5,3,,,,,,,,,,,,,,,,,,,,,,,,,,,,,
6652982569df798e71daaf11,TCR,2024-06-24_13h43.33.629,LearnStrategy,2023.2.3,Win32,28.98550725,,,,,,,,,,,2,16,5,4,,,,,,,,,,,,,,,,,,,,,,,,,,,,,
6652982569df798e71daaf11,TCR,2024-06-24_13h43.33.629,LearnStrategy,2023.2.3,Win32,28.98550725,,,,,,,,,,,3,16,5,5,,,,,,,,,,,,,,,,,,,,,,,,,,,,,
6652982569df798e71daaf11,TCR,2024-06-24_13h43.33.629,LearnStrategy,2023.2.3,Win32,28.98550725,,,,,,,,,,,6,03,5,6,,,,,,,,,,,,,,,,,,,,,,,,,,,,,
6652982569df798e71daaf11,TCR,2024-06-24_13h43.33.629,LearnStrategy,2023.2.3,Win32,28.98550725,,,,,,,,,,,7,13,5,7,,,,,,,,,,,,,,,,,,,,,,,,,,,,,
6652982569df798e71daaf11,TCR,2024-06-24_13h43.33.629,LearnStrategy,2023.2.3,Win32,28.98550725,,,,,,,,,,,4,10,5,8,,,,,,,,,,,,,,,,,,,,,,,,,,,,,
6652982569df798e71daaf11,TCR,2024-06-24_13h43.33.629,LearnStrategy,2023.2.3,Win32,28.98550725,,,,,,,,,,,3,11,6,1,,,,,,,,,,,,,,,,,,,,,,,,,,,,,
6652982569df798e71daaf11,TCR,2024-06-24_13h43.33.629,LearnStrategy,2023.2.3,Win32,28.98550725,,,,,,,,,,,8,05,6,2,,,,,,,,,,,,,,,,,,,,,,,,,,,,,
6652982569df798e71daaf11,TCR,2024-06-24_13h43.33.629,LearnStrategy,2023.2.3,Win32,28.98550725,,,,,,,,,,,1,07,6,3,,,,,,,,,,,,,,,,,,,,,,,,,,,,,
6652982569df798e71daaf11,TCR,2024-06-24_13h43.33.629,LearnStrategy,2023.2.3,Win32,28.98550725,,,,,,,,,,,7,08,6,4,,,,,,,,,,,,,,,,,,,,,,,,,,,,,
6652982569df798e71daaf11,TCR,2024-06-24_13h43.33.629,LearnStrategy,2023.2.3,Win32,28.98550725,,,,,,,,,,,2,06,6,5,,,,,,,,,,,,,,,,,,,,,,,,,,,,,
6652982569df798e71daaf11,TCR,2024-06-24_13h43.33.629,LearnStrategy,2023.2.3,Win32,28.98550725,,,,,,,,,,,2,01,6,6,,,,,,,,,,,,,,,,,,,,,,,,,,,,,
6652982569df798e71daaf11,TCR,2024-06-24_13h43.33.629,LearnStrategy,2023.2.3,Win32,28.98550725,,,,,,,,,,,2,02,6,7,,,,,,,,,,,,,,,,,,,,,,,,,,,,,
6652982569df798e71daaf11,TCR,2024-06-24_13h43.33.629,LearnStrategy,2023.2.3,Win32,28.98550725,,,,,,,,,,,8,09,6,8,,,,,,,,,,,,,,,,,,,,,,,,,,,,,