participant,condition,date,expName,psychopyVersion,OS,frameRate,block,phase,trial,learn_mouse.x,learn_mouse.y,learn_mouse.leftButton,learn_mouse.midButton,learn_mouse.rightButton,learn_mouse.time,learn_mouse.clicked_name,cat,token,row,col,t_select,cat_rec,token_rec,cat_mouse_l.x,cat_mouse_l.y,cat_mouse_l.leftButton,cat_mouse_l.midButton,cat_mouse_l.rightButton,cat_mouse_l.time,cat_mouse_l.clicked_name,resp,t_resp,corr,train_trials.thisRepN,train_trials.thisTrialN,train_trials.thisN,train_trials.thisIndex,train_trials.ran,cat_mouse_t.x,cat_mouse_t.y,cat_mouse_t.leftButton,cat_mouse_t.midButton,cat_mouse_t.rightButton,cat_mouse_t.time,cat_mouse_t.clicked_name,test_trials.thisRepN,test_trials.thisTrialN,test_trials.thisN,test_trials.thisIndex,test_trials.ran,Bonus
66544eb885c9e3646bd7d2fb,SCR,2024-06-11_18h27.20.337,LearnStrategy,2023.2.3,Win32,59.88023952,,,,,,,,,,,,,,,,,,,,,,,,,,,,,,,,,,,,,,,,,,,,,
66544eb885c9e3646bd7d2fb,SCR,2024-06-11_18h27.20.337,LearnStrategy,2023.2.3,Win32,59.88023952,1,1,1,-0.071614583,0.119791667,1,0,0,3.8982,Obsidian_12,5,12,4,4,3.898,5,09,-0.341145833,-0.256510417,1,0,0,7.6922,Andesite_rect,1,7.692,0,0,0,0,0,1,,,,,,,,,,,,,
66544eb885c9e3646bd7d2fb,SCR,2024-06-11_18h27.20.337,LearnStrategy,2023.2.3,Win32,59.88023952,1,1,2,-0.204427083,-0.380208333,1,0,0,10.2835,Andesite_03,1,03,1,3,10.284,8,14,-0.123697917,-0.2578125,1,0,0,75.9714,Basalt_rect,2,75.971,0,1,0,1,0,1,,,,,,,,,,,,,
66544eb885c9e3646bd7d2fb,SCR,2024-06-11_18h27.20.337,LearnStrategy,2023.2.3,Win32,59.88023952,1,1,3,0.513020833,0.282552083,1,0,0,3.1625,Gabbro_03,4,03,5,8,3.163,4,11,-0.126302083,-0.265625,1,0,0,31.2227,Basalt_rect,2,31.223,0,2,0,2,0,1,,,,,,,,,,,,,
66544eb885c9e3646bd7d2fb,SCR,2024-06-11_18h27.20.337,LearnStrategy,2023.2.3,Win32,59.88023952,1,1,4,-0.08203125,-0.389322917,1,0,0,3.205,Diorite_11,3,11,1,4,3.205,6,15,0.16015625,-0.244791667,1,0,0,27.8428,Diorite_rect,3,27.843,1,3,0,3,0,1,,,,,,,,,,,,,
66544eb885c9e3646bd7d2fb,SCR,2024-06-11_18h27.20.337,LearnStrategy,2023.2.3,Win32,59.88023952,1,1,5,-0.546875,0.26953125,1,0,0,2.2994,Obsidian_08,5,08,5,1,2.299,2,06,-0.477864583,-0.412760417,1,0,0,25.1408,Obsidian_rect,5,25.141,1,4,0,4,0,1,,,,,,,,,,,,,
66544eb885c9e3646bd7d2fb,SCR,2024-06-11_18h27.20.337,LearnStrategy,2023.2.3,Win32,59.88023952,1,1,6,-0.520833333,0.380208333,1,0,0,3.521,Andesite_09,1,09,6,1,3.521,7,02,0.328125,-0.2578125,1,0,0,30.0458,Gabbro_rect,4,30.046,0,5,0,5,0,1,,,,,,,,,,,,,
66544eb885c9e3646bd7d2fb,SCR,2024-06-11_18h27.20.337,LearnStrategy,2023.2.3,Win32,59.88023952,1,1,7,-0.1015625,0.08203125,1,0,0,2.0742,Obsidian_12,5,12,4,4,2.074,6,05,-0.395833333,-0.407552083,1,0,0,16.2143,Obsidian_rect,5,16.214,1,6,0,6,0,1,,,,,,,,,,,,,
66544eb885c9e3646bd7d2fb,SCR,2024-06-11_18h27.20.337,LearnStrategy,2023.2.3,Win32,59.88023952,1,1,8,-0.072916667,0.09765625,1,0,0,0.9956,Obsidian_12,5,12,4,4,0.996,2,01,-0.395833333,-0.391927083,1,0,0,1.0098,Obsidian_rect,5,1.01,1,7,0,7,0,1,,,,,,,,,,,,,
66544eb885c9e3646bd7d2fb,SCR,2024-06-11_18h27.20.337,LearnStrategy,2023.2.3,Win32,59.88023952,1,1,9,0.553385417,0.282552083,1,0,0,3.2782,Gabbro_03,4,03,5,8,3.278,1,09,0.330729167,-0.248697917,1,0,0,2.2262,Gabbro_rect,4,2.226,1,8,0,8,0,1,,,,,,,,,,,,,
66544eb885c9e3646bd7d2fb,SCR,2024-06-11_18h27.20.337,LearnStrategy,2023.2.3,Win32,59.88023952,1,1,10,0.578125,0.248697917,1,0,0,1.2126,Gabbro_03,4,03,5,8,1.213,5,12,0.328125,-0.235677083,1,0,0,1.559,Gabbro_rect,4,1.559,1,9,0,9,0,1,,,,,,,,,,,,,
66544eb885c9e3646bd7d2fb,SCR,2024-06-11_18h27.20.337,LearnStrategy,2023.2.3,Win32,59.88023952,1,1,11,0.243489583,-0.3984375,1,0,0,8.1283,Peridotite_04,7,04,1,6,8.128,8,08,0.384114583,-0.390625,1,0,0,40.3697,Pumice_rect,8,40.37,0,10,0,10,0,1,,,,,,,,,,,,,
66544eb885c9e3646bd7d2fb,SCR,2024-06-11_18h27.20.337,LearnStrategy,2023.2.3,Win32,59.88023952,1,1,12,-0.419270833,-0.078125,1,0,0,1.8252,Andesite_07,1,07,3,2,1.825,1,07,-0.16796875,-0.390625,1,0,0,30.7233,Pegmatite_rect,6,30.723,0,11,0,11,0,1,,,,,,,,,,,,,
66544eb885c9e3646bd7d2fb,SCR,2024-06-11_18h27.20.337,LearnStrategy,2023.2.3,Win32,59.88023952,1,1,13,0.256510417,-0.428385417,1,0,0,3.5038,Peridotite_04,7,04,1,6,3.504,3,16,0.19140625,-0.404947917,1,0,0,0.9422,Peridotite_rect,7,0.942,1,12,0,12,0,1,,,,,,,,,,,,,
66544eb885c9e3646bd7d2fb,SCR,2024-06-11_18h27.20.337,LearnStrategy,2023.2.3,Win32,59.88023952,1,1,14,-0.1015625,0.075520833,1,0,0,3.5982,Obsidian_12,5,12,4,4,3.598,7,10,-0.358072917,-0.3828125,1,0,0,1.2342,Obsidian_rect,5,1.234,1,13,0,13,0,1,,,,,,,,,,,,,
66544eb885c9e3646bd7d2fb,SCR,2024-06-11_18h27.20.337,LearnStrategy,2023.2.3,Win32,59.88023952,1,1,15,0.53515625,0.260416667,1,0,0,2.52,Gabbro_03,4,03,5,8,2.52,3,07,0.350260417,-0.263020833,1,0,0,2.9821,Gabbro_rect,4,2.982,1,14,0,14,0,1,,,,,,,,,,,,,
66544eb885c9e3646bd7d2fb,SCR,2024-06-11_18h27.20.337,LearnStrategy,2023.2.3,Win32,59.88023952,1,1,16,0.350260417,0.424479167,1,0,0,3.7957,Basalt_09,2,09,6,7,3.796,4,03,-0.0859375,-0.419270833,1,0,0,71.45,Pegmatite_rect,6,71.45,0,15,0,15,0,1,,,,,,,,,,,,,
66544eb885c9e3646bd7d2fb,SCR,2024-06-11_18h27.20.337,LearnStrategy,2023.2.3,Win32,59.88023952,1,2,1,,,,,,,,2,11,,,,,,,,,,,,,2,34.403,1,,,,,,-0.07421875,-0.265625,1,0,0,34.4028,Basalt_rect,0,0,0,0,1,
66544eb885c9e3646bd7d2fb,SCR,2024-06-11_18h27.20.337,LearnStrategy,2023.2.3,Win32,59.88023952,1,2,2,,,,,,,,6,12,,,,,,,,,,,,,4,23.243,0,,,,,,0.471354167,-0.233072917,1,0,0,23.2432,Gabbro_rect,1,0,1,0,1,
66544eb885c9e3646bd7d2fb,SCR,2024-06-11_18h27.20.337,LearnStrategy,2023.2.3,Win32,59.88023952,1,2,3,,,,,,,,2,02,,,,,,,,,,,,,4,1.521,0,,,,,,0.462239583,-0.2578125,1,0,0,1.5211,Gabbro_rect,2,0,2,0,1,
66544eb885c9e3646bd7d2fb,SCR,2024-06-11_18h27.20.337,LearnStrategy,2023.2.3,Win32,59.88023952,1,2,4,,,,,,,,4,01,,,,,,,,,,,,,2,46.572,0,,,,,,-0.084635417,-0.243489583,1,0,0,46.5719,Basalt_rect,3,0,3,0,1,
66544eb885c9e3646bd7d2fb,SCR,2024-06-11_18h27.20.337,LearnStrategy,2023.2.3,Win32,59.88023952,1,2,5,,,,,,,,1,10,,,,,,,,,,,,,3,1.941,0,,,,,,0.114583333,-0.263020833,1,0,0,1.9411,Diorite_rect,4,0,4,0,1,
66544eb885c9e3646bd7d2fb,SCR,2024-06-11_18h27.20.337,LearnStrategy,2023.2.3,Win32,59.88023952,1,2,6,,,,,,,,8,09,,,,,,,,,,,,,7,0.713,0,,,,,,0.075520833,-0.389322917,1,0,0,0.7132,Peridotite_rect,5,0,5,0,1,
66544eb885c9e3646bd7d2fb,SCR,2024-06-11_18h27.20.337,LearnStrategy,2023.2.3,Win32,59.88023952,1,2,7,,,,,,,,5,10,,,,,,,,,,,,,5,17.304,1,,,,,,-0.39453125,-0.395833333,1,0,0,17.3037,Obsidian_rect,6,0,6,0,1,
66544eb885c9e3646bd7d2fb,SCR,2024-06-11_18h27.20.337,LearnStrategy,2023.2.3,Win32,59.88023952,1,2,8,,,,,,,,3,14,,,,,,,,,,,,,6,21.259,0,,,,,,-0.075520833,-0.41796875,1,0,0,21.2587,Pegmatite_rect,7,0,7,0,1,
66544eb885c9e3646bd7d2fb,SCR,2024-06-11_18h27.20.337,LearnStrategy,2023.2.3,Win32,59.88023952,1,2,9,,,,,,,,7,06,,,,,,,,,,,,,6,26.254,0,,,,,,-0.067708333,-0.41015625,1,0,0,26.2535,Pegmatite_rect,8,0,8,0,1,
66544eb885c9e3646bd7d2fb,SCR,2024-06-11_18h27.20.337,LearnStrategy,2023.2.3,Win32,59.88023952,1,2,10,,,,,,,,3,09,,,,,,,,,,,,,6,1.033,0,,,,,,-0.06640625,-0.380208333,1,0,0,1.0326,Pegmatite_rect,9,0,9,0,1,
66544eb885c9e3646bd7d2fb,SCR,2024-06-11_18h27.20.337,LearnStrategy,2023.2.3,Win32,59.88023952,1,2,11,,,,,,,,6,03,,,,,,,,,,,,,5,3.258,0,,,,,,-0.408854167,-0.391927083,1,0,0,3.2577,Obsidian_rect,10,0,10,0,1,
66544eb885c9e3646bd7d2fb,SCR,2024-06-11_18h27.20.337,LearnStrategy,2023.2.3,Win32,59.88023952,1,2,12,,,,,,,,4,05,,,,,,,,,,,,,2,1.841,0,,,,,,-0.08984375,-0.259114583,1,0,0,1.8406,Basalt_rect,11,0,11,0,1,
66544eb885c9e3646bd7d2fb,SCR,2024-06-11_18h27.20.337,LearnStrategy,2023.2.3,Win32,59.88023952,1,2,13,,,,,,,,8,04,,,,,,,,,,,,,7,3.143,0,,,,,,0.16015625,-0.404947917,1,0,0,3.1429,Peridotite_rect,12,0,12,0,1,
66544eb885c9e3646bd7d2fb,SCR,2024-06-11_18h27.20.337,LearnStrategy,2023.2.3,Win32,59.88023952,1,2,14,,,,,,,,1,16,,,,,,,,,,,,,8,2.972,0,,,,,,0.338541667,-0.39453125,1,0,0,2.9717,Pumice_rect,13,0,13,0,1,
66544eb885c9e3646bd7d2fb,SCR,2024-06-11_18h27.20.337,LearnStrategy,2023.2.3,Win32,59.88023952,1,2,15,,,,,,,,5,07,,,,,,,,,,,,,5,24.388,1,,,,,,-0.438802083,-0.403645833,1,0,0,24.3882,Obsidian_rect,14,0,14,0,1,
66544eb885c9e3646bd7d2fb,SCR,2024-06-11_18h27.20.337,LearnStrategy,2023.2.3,Win32,59.88023952,1,2,16,,,,,,,,7,14,,,,,,,,,,,,,1,2.396,0,,,,,,-0.359375,-0.252604167,1,0,0,2.3956,Andesite_rect,15,0,15,0,1,
66544eb885c9e3646bd7d2fb,SCR,2024-06-11_18h27.20.337,LearnStrategy,2023.2.3,Win32,59.88023952,2,1,1,-0.096354167,0.118489583,1,0,0,2.7653,Obsidian_12,5,12,4,4,2.765,4,08,-0.3203125,-0.380208333,1,0,0,1.1262,Obsidian_rect,5,1.126,1,0,0,0,0,1,,,,,,,,,,,,,
66544eb885c9e3646bd7d2fb,SCR,2024-06-11_18h27.20.337,LearnStrategy,2023.2.3,Win32,59.88023952,2,1,2,0.595052083,0.23046875,1,0,0,1.6428,Gabbro_03,4,03,5,8,1.643,8,14,0.377604167,-0.244791667,1,0,0,2.3297,Gabbro_rect,4,2.33,1,1,0,1,0,1,,,,,,,,,,,,,
66544eb885c9e3646bd7d2fb,SCR,2024-06-11_18h27.20.337,LearnStrategy,2023.2.3,Win32,59.88023952,2,1,3,-0.513020833,0.21875,1,0,0,3.4953,Obsidian_08,5,08,5,1,3.495,4,16,-0.381510417,-0.391927083,1,0,0,1.1352,Obsidian_rect,5,1.135,1,2,0,2,0,1,,,,,,,,,,,,,
66544eb885c9e3646bd7d2fb,SCR,2024-06-11_18h27.20.337,LearnStrategy,2023.2.3,Win32,59.88023952,2,1,4,-0.040364583,-0.444010417,1,0,0,3.0622,Diorite_11,3,11,1,4,3.062,7,04,0.177083333,-0.3828125,1,0,0,0.8128,Peridotite_rect,7,0.813,0,3,0,3,0,1,,,,,,,,,,,,,
66544eb885c9e3646bd7d2fb,SCR,2024-06-11_18h27.20.337,LearnStrategy,2023.2.3,Win32,59.88023952,2,1,5,-0.09765625,0.274739583,1,0,0,1.9292,Obsidian_04,5,04,5,4,1.929,2,04,-0.36328125,-0.408854167,1,0,0,1.2249,Obsidian_rect,5,1.225,1,4,0,4,0,1,,,,,,,,,,,,,
66544eb885c9e3646bd7d2fb,SCR,2024-06-11_18h27.20.337,LearnStrategy,2023.2.3,Win32,59.88023952,2,1,6,-0.123697917,0.234375,1,0,0,1.4441,Obsidian_04,5,04,5,4,1.444,2,10,-0.40234375,-0.381510417,1,0,0,1.6081,Obsidian_rect,5,1.608,1,5,0,5,0,1,,,,,,,,,,,,,
66544eb885c9e3646bd7d2fb,SCR,2024-06-11_18h27.20.337,LearnStrategy,2023.2.3,Win32,59.88023952,2,1,7,-0.5546875,0.08203125,1,0,0,2.4774,Obsidian_16,5,16,4,1,2.477,8,03,-0.377604167,-0.420572917,1,0,0,1.1763,Obsidian_rect,5,1.176,1,6,0,6,0,1,,,,,,,,,,,,,
66544eb885c9e3646bd7d2fb,SCR,2024-06-11_18h27.20.337,LearnStrategy,2023.2.3,Win32,59.88023952,2,1,8,-0.345052083,0.10546875,1,0,0,2.0805,Pegmatite_15,6,15,4,2,2.081,6,05,-0.09765625,-0.266927083,1,0,0,30.0201,Basalt_rect,2,30.02,0,7,0,7,0,1,,,,,,,,,,,,,
66544eb885c9e3646bd7d2fb,SCR,2024-06-11_18h27.20.337,LearnStrategy,2023.2.3,Win32,59.88023952,2,1,9,-0.53515625,-0.40625,1,0,0,2.0612,Diorite_15,3,15,1,1,2.061,3,15,-0.06640625,-0.40234375,1,0,0,2.4019,Pegmatite_rect,6,2.402,0,8,0,8,0,1,,,,,,,,,,,,,
66544eb885c9e3646bd7d2fb,SCR,2024-06-11_18h27.20.337,LearnStrategy,2023.2.3,Win32,59.88023952,2,1,10,-0.541666667,-0.41796875,1,0,0,1.2291,Diorite_15,3,15,1,1,1.229,3,11,0.118489583,-0.256510417,1,0,0,1.0447,Diorite_rect,3,1.045,1,9,0,9,0,1,,,,,,,,,,,,,
66544eb885c9e3646bd7d2fb,SCR,2024-06-11_18h27.20.337,LearnStrategy,2023.2.3,Win32,59.88023952,2,1,11,0.05078125,-0.069010417,1,0,0,1.4231,Diorite_02,3,02,3,5,1.423,6,08,0.184895833,-0.243489583,1,0,0,14.784,Diorite_rect,3,14.784,1,10,0,10,0,1,,,,,,,,,,,,,
66544eb885c9e3646bd7d2fb,SCR,2024-06-11_18h27.20.337,LearnStrategy,2023.2.3,Win32,59.88023952,2,1,12,0.084635417,-0.09375,1,0,0,0.9628,Diorite_02,3,02,3,5,0.963,6,06,0.078125,-0.255208333,1,0,0,1.1065,Diorite_rect,3,1.106,1,11,0,11,0,1,,,,,,,,,,,,,
66544eb885c9e3646bd7d2fb,SCR,2024-06-11_18h27.20.337,LearnStrategy,2023.2.3,Win32,59.88023952,2,1,13,0.09765625,-0.095052083,1,0,0,1.4131,Diorite_02,3,02,3,5,1.413,1,05,0.078125,-0.247395833,1,0,0,2.2775,Diorite_rect,3,2.278,1,12,0,12,0,1,,,,,,,,,,,,,
66544eb885c9e3646bd7d2fb,SCR,2024-06-11_18h27.20.337,LearnStrategy,2023.2.3,Win32,59.88023952,2,1,14,-0.5625,0.115885417,1,0,0,1.2718,Obsidian_16,5,16,4,1,1.272,7,05,-0.37890625,-0.391927083,1,0,0,1.5983,Obsidian_rect,5,1.598,1,13,0,13,0,1,,,,,,,,,,,,,
66544eb885c9e3646bd7d2fb,SCR,2024-06-11_18h27.20.337,LearnStrategy,2023.2.3,Win32,59.88023952,2,1,15,-0.540364583,0.274739583,1,0,0,2.8063,Obsidian_08,5,08,5,1,2.806,1,04,-0.299479167,-0.3984375,1,0,0,2.1012,Obsidian_rect,5,2.101,1,14,0,14,0,1,,,,,,,,,,,,,
66544eb885c9e3646bd7d2fb,SCR,2024-06-11_18h27.20.337,LearnStrategy,2023.2.3,Win32,59.88023952,2,1,16,-0.087239583,0.11328125,1,0,0,1.8232,Obsidian_12,5,12,4,4,1.823,1,05,-0.319010417,-0.4140625,1,0,0,1.4191,Obsidian_rect,5,1.419,1,15,0,15,0,1,,,,,,,,,,,,,
66544eb885c9e3646bd7d2fb,SCR,2024-06-11_18h27.20.337,LearnStrategy,2023.2.3,Win32,59.88023952,2,2,1,,,,,,,,8,16,,,,,,,,,,,,,2,31.671,0,,,,,,-0.147135417,-0.263020833,1,0,0,31.6713,Basalt_rect,0,0,0,0,1,
66544eb885c9e3646bd7d2fb,SCR,2024-06-11_18h27.20.337,LearnStrategy,2023.2.3,Win32,59.88023952,2,2,2,,,,,,,,6,10,,,,,,,,,,,,,7,34.329,0,,,,,,0.151041667,-0.411458333,1,0,0,34.3287,Peridotite_rect,1,0,1,0,1,
66544eb885c9e3646bd7d2fb,SCR,2024-06-11_18h27.20.337,LearnStrategy,2023.2.3,Win32,59.88023952,2,2,3,,,,,,,,7,12,,,,,,,,,,,,,2,1.319,0,,,,,,-0.140625,-0.229166667,1,0,0,1.3195,Basalt_rect,2,0,2,0,1,
66544eb885c9e3646bd7d2fb,SCR,2024-06-11_18h27.20.337,LearnStrategy,2023.2.3,Win32,59.88023952,2,2,4,,,,,,,,7,13,,,,,,,,,,,,,7,1.371,1,,,,,,0.126302083,-0.404947917,1,0,0,1.3713,Peridotite_rect,3,0,3,0,1,
66544eb885c9e3646bd7d2fb,SCR,2024-06-11_18h27.20.337,LearnStrategy,2023.2.3,Win32,59.88023952,2,2,5,,,,,,,,8,02,,,,,,,,,,,,,4,2.268,0,,,,,,0.399739583,-0.26953125,1,0,0,2.2682,Gabbro_rect,4,0,4,0,1,
66544eb885c9e3646bd7d2fb,SCR,2024-06-11_18h27.20.337,LearnStrategy,2023.2.3,Win32,59.88023952,2,2,6,,,,,,,,5,14,,,,,,,,,,,,,5,1.485,1,,,,,,-0.3984375,-0.385416667,1,0,0,1.4845,Obsidian_rect,5,0,5,0,1,
66544eb885c9e3646bd7d2fb,SCR,2024-06-11_18h27.20.337,LearnStrategy,2023.2.3,Win32,59.88023952,2,2,7,,,,,,,,2,16,,,,,,,,,,,,,1,2.384,0,,,,,,-0.3359375,-0.255208333,1,0,0,2.3844,Andesite_rect,6,0,6,0,1,
66544eb885c9e3646bd7d2fb,SCR,2024-06-11_18h27.20.337,LearnStrategy,2023.2.3,Win32,59.88023952,2,2,8,,,,,,,,3,12,,,,,,,,,,,,,8,1.518,0,,,,,,0.334635417,-0.4140625,1,0,0,1.5184,Pumice_rect,7,0,7,0,1,
66544eb885c9e3646bd7d2fb,SCR,2024-06-11_18h27.20.337,LearnStrategy,2023.2.3,Win32,59.88023952,2,2,9,,,,,,,,4,10,,,,,,,,,,,,,7,1.767,0,,,,,,0.239583333,-0.41796875,1,0,0,1.7671,Peridotite_rect,8,0,8,0,1,
66544eb885c9e3646bd7d2fb,SCR,2024-06-11_18h27.20.337,LearnStrategy,2023.2.3,Win32,59.88023952,2,2,10,,,,,,,,5,02,,,,,,,,,,,,,5,1.765,1,,,,,,-0.393229167,-0.416666667,1,0,0,1.7654,Obsidian_rect,9,0,9,0,1,
66544eb885c9e3646bd7d2fb,SCR,2024-06-11_18h27.20.337,LearnStrategy,2023.2.3,Win32,59.88023952,2,2,11,,,,,,,,3,10,,,,,,,,,,,,,4,2.359,0,,,,,,0.342447917,-0.2578125,1,0,0,2.3589,Gabbro_rect,10,0,10,0,1,
66544eb885c9e3646bd7d2fb,SCR,2024-06-11_18h27.20.337,LearnStrategy,2023.2.3,Win32,59.88023952,2,2,12,,,,,,,,4,13,,,,,,,,,,,,,1,1.797,0,,,,,,-0.350260417,-0.265625,1,0,0,1.7966,Andesite_rect,11,0,11,0,1,
66544eb885c9e3646bd7d2fb,SCR,2024-06-11_18h27.20.337,LearnStrategy,2023.2.3,Win32,59.88023952,2,2,13,,,,,,,,1,02,,,,,,,,,,,,,7,1.647,0,,,,,,0.194010417,-0.389322917,1,0,0,1.6473,Peridotite_rect,12,0,12,0,1,
66544eb885c9e3646bd7d2fb,SCR,2024-06-11_18h27.20.337,LearnStrategy,2023.2.3,Win32,59.88023952,2,2,14,,,,,,,,2,08,,,,,,,,,,,,,6,1.965,0,,,,,,-0.140625,-0.420572917,1,0,0,1.9649,Pegmatite_rect,13,0,13,0,1,
66544eb885c9e3646bd7d2fb,SCR,2024-06-11_18h27.20.337,LearnStrategy,2023.2.3,Win32,59.88023952,2,2,15,,,,,,,,6,07,,,,,,,,,,,,,5,1.359,0,,,,,,-0.3671875,-0.419270833,1,0,0,1.3586,Obsidian_rect,14,0,14,0,1,
66544eb885c9e3646bd7d2fb,SCR,2024-06-11_18h27.20.337,LearnStrategy,2023.2.3,Win32,59.88023952,2,2,16,,,,,,,,1,14,,,,,,,,,,,,,7,2.127,0,,,,,,0.111979167,-0.385416667,1,0,0,2.1274,Peridotite_rect,15,0,15,0,1,
66544eb885c9e3646bd7d2fb,SCR,2024-06-11_18h27.20.337,LearnStrategy,2023.2.3,Win32,59.88023952,3,1,1,-0.12890625,0.235677083,1,0,0,9.0645,Obsidian_04,5,04,5,4,9.064,4,03,-0.3828125,-0.390625,1,0,0,0.9899,Obsidian_rect,5,0.99,1,0,0,0,0,1,,,,,,,,,,,,,
66544eb885c9e3646bd7d2fb,SCR,2024-06-11_18h27.20.337,LearnStrategy,2023.2.3,Win32,59.88023952,3,1,2,-0.079427083,0.075520833,1,0,0,1.1811,Obsidian_12,5,12,4,4,1.181,6,05,-0.3515625,-0.416666667,1,0,0,1.7966,Obsidian_rect,5,1.797,1,1,0,1,0,1,,,,,,,,,,,,,
66544eb885c9e3646bd7d2fb,SCR,2024-06-11_18h27.20.337,LearnStrategy,2023.2.3,Win32,59.88023952,3,1,3,-0.514322917,0.0703125,1,0,0,1.7262,Obsidian_16,5,16,4,1,1.726,1,06,-0.381510417,-0.39453125,1,0,0,1.3242,Obsidian_rect,5,1.324,1,2,0,2,0,1,,,,,,,,,,,,,
66544eb885c9e3646bd7d2fb,SCR,2024-06-11_18h27.20.337,LearnStrategy,2023.2.3,Win32,59.88023952,3,1,4,-0.545572917,0.23046875,1,0,0,1.4281,Obsidian_08,5,08,5,1,1.428,6,05,-0.364583333,-0.41015625,1,0,0,1.6429,Obsidian_rect,5,1.643,1,3,0,3,0,1,,,,,,,,,,,,,
66544eb885c9e3646bd7d2fb,SCR,2024-06-11_18h27.20.337,LearnStrategy,2023.2.3,Win32,59.88023952,3,1,5,-0.041666667,0.247395833,1,0,0,1.4743,Obsidian_04,5,04,5,4,1.474,3,06,-0.30859375,-0.391927083,1,0,0,1.3343,Obsidian_rect,5,1.334,1,4,0,4,0,1,,,,,,,,,,,,,
66544eb885c9e3646bd7d2fb,SCR,2024-06-11_18h27.20.337,LearnStrategy,2023.2.3,Win32,59.88023952,3,1,6,0.57421875,0.204427083,1,0,0,3.0775,Gabbro_03,4,03,5,8,3.077,2,01,0.342447917,-0.24609375,1,0,0,1.1353,Gabbro_rect,4,1.135,1,5,0,5,0,1,,,,,,,,,,,,,
66544eb885c9e3646bd7d2fb,SCR,2024-06-11_18h27.20.337,LearnStrategy,2023.2.3,Win32,59.88023952,3,1,7,-0.546875,-0.446614583,1,0,0,1.2997,Diorite_15,3,15,1,1,1.3,4,11,0.18359375,-0.266927083,1,0,0,2.0357,Diorite_rect,3,2.036,1,6,0,6,0,1,,,,,,,,,,,,,
66544eb885c9e3646bd7d2fb,SCR,2024-06-11_18h27.20.337,LearnStrategy,2023.2.3,Win32,59.88023952,3,1,8,-0.079427083,0.233072917,1,0,0,4.9544,Obsidian_04,5,04,5,4,4.954,8,08,-0.384114583,-0.397135417,1,0,0,1.3101,Obsidian_rect,5,1.31,1,7,0,7,0,1,,,,,,,,,,,,,
66544eb885c9e3646bd7d2fb,SCR,2024-06-11_18h27.20.337,LearnStrategy,2023.2.3,Win32,59.88023952,3,1,9,0.57421875,0.216145833,1,0,0,2.1295,Gabbro_03,4,03,5,8,2.13,3,02,0.204427083,-0.265625,1,0,0,1.7029,Diorite_rect,3,1.703,0,8,0,8,0,1,,,,,,,,,,,,,
66544eb885c9e3646bd7d2fb,SCR,2024-06-11_18h27.20.337,LearnStrategy,2023.2.3,Win32,59.88023952,3,1,10,0.118489583,-0.135416667,1,0,0,1.3406,Diorite_02,3,02,3,5,1.341,2,14,0.391927083,-0.2578125,1,0,0,42.4753,Gabbro_rect,4,42.475,0,9,0,9,0,1,,,,,,,,,,,,,
66544eb885c9e3646bd7d2fb,SCR,2024-06-11_18h27.20.337,LearnStrategy,2023.2.3,Win32,59.88023952,3,1,11,0.065104167,-0.063802083,1,0,0,1.0876,Diorite_02,3,02,3,5,1.088,1,03,0.180989583,-0.270833333,1,0,0,1.389,Diorite_rect,3,1.389,1,10,0,10,0,1,,,,,,,,,,,,,
66544eb885c9e3646bd7d2fb,SCR,2024-06-11_18h27.20.337,LearnStrategy,2023.2.3,Win32,59.88023952,3,1,12,-0.505208333,0.0859375,1,0,0,1.1317,Obsidian_16,5,16,4,1,1.132,8,13,-0.346354167,-0.38671875,1,0,0,1.1094,Obsidian_rect,5,1.109,1,11,0,11,0,1,,,,,,,,,,,,,
66544eb885c9e3646bd7d2fb,SCR,2024-06-11_18h27.20.337,LearnStrategy,2023.2.3,Win32,59.88023952,3,1,13,-0.58984375,0.21875,1,0,0,2.0613,Obsidian_08,5,08,5,1,2.061,7,10,-0.33203125,-0.40625,1,0,0,1.0844,Obsidian_rect,5,1.084,1,12,0,12,0,1,,,,,,,,,,,,,
66544eb885c9e3646bd7d2fb,SCR,2024-06-11_18h27.20.337,LearnStrategy,2023.2.3,Win32,59.88023952,3,1,14,-0.096354167,0.268229167,1,0,0,1.6501,Obsidian_04,5,04,5,4,1.65,2,14,-0.364583333,-0.416666667,1,0,0,1.5309,Obsidian_rect,5,1.531,1,13,0,13,0,1,,,,,,,,,,,,,
66544eb885c9e3646bd7d2fb,SCR,2024-06-11_18h27.20.337,LearnStrategy,2023.2.3,Win32,59.88023952,3,1,15,-0.041666667,0.25,1,0,0,2.7823,Obsidian_04,5,04,5,4,2.782,1,03,-0.358072917,-0.395833333,1,0,0,1.2146,Obsidian_rect,5,1.215,1,14,0,14,0,1,,,,,,,,,,,,,
66544eb885c9e3646bd7d2fb,SCR,2024-06-11_18h27.20.337,LearnStrategy,2023.2.3,Win32,59.88023952,3,1,16,-0.5546875,0.229166667,1,0,0,1.9598,Obsidian_08,5,08,5,1,1.96,7,07,-0.377604167,-0.37890625,1,0,0,1.1773,Obsidian_rect,5,1.177,1,15,0,15,0,1,,,,,,,,,,,,,
66544eb885c9e3646bd7d2fb,SCR,2024-06-11_18h27.20.337,LearnStrategy,2023.2.3,Win32,59.88023952,3,2,1,,,,,,,,6,11,,,,,,,,,,,,,2,21.849,0,,,,,,-0.061197917,-0.244791667,1,0,0,21.8488,Basalt_rect,0,0,0,0,1,
66544eb885c9e3646bd7d2fb,SCR,2024-06-11_18h27.20.337,LearnStrategy,2023.2.3,Win32,59.88023952,3,2,2,,,,,,,,1,11,,,,,,,,,,,,,7,1.221,0,,,,,,0.063802083,-0.40234375,1,0,0,1.2215,Peridotite_rect,1,0,1,0,1,
66544eb885c9e3646bd7d2fb,SCR,2024-06-11_18h27.20.337,LearnStrategy,2023.2.3,Win32,59.88023952,3,2,3,,,,,,,,3,08,,,,,,,,,,,,,6,0.84,0,,,,,,-0.078125,-0.3828125,1,0,0,0.8396,Pegmatite_rect,2,0,2,0,1,
66544eb885c9e3646bd7d2fb,SCR,2024-06-11_18h27.20.337,LearnStrategy,2023.2.3,Win32,59.88023952,3,2,4,,,,,,,,4,14,,,,,,,,,,,,,2,2.146,0,,,,,,-0.088541667,-0.251302083,1,0,0,2.1461,Basalt_rect,3,0,3,0,1,
66544eb885c9e3646bd7d2fb,SCR,2024-06-11_18h27.20.337,LearnStrategy,2023.2.3,Win32,59.88023952,3,2,5,,,,,,,,5,06,,,,,,,,,,,,,5,1.309,1,,,,,,-0.321614583,-0.390625,1,0,0,1.309,Obsidian_rect,4,0,4,0,1,
66544eb885c9e3646bd7d2fb,SCR,2024-06-11_18h27.20.337,LearnStrategy,2023.2.3,Win32,59.88023952,3,2,6,,,,,,,,5,11,,,,,,,,,,,,,5,1.025,1,,,,,,-0.358072917,-0.411458333,1,0,0,1.0247,Obsidian_rect,5,0,5,0,1,
66544eb885c9e3646bd7d2fb,SCR,2024-06-11_18h27.20.337,LearnStrategy,2023.2.3,Win32,59.88023952,3,2,7,,,,,,,,6,13,,,,,,,,,,,,,6,1.038,1,,,,,,-0.1953125,-0.391927083,1,0,0,1.0384,Pegmatite_rect,6,0,6,0,1,
66544eb885c9e3646bd7d2fb,SCR,2024-06-11_18h27.20.337,LearnStrategy,2023.2.3,Win32,59.88023952,3,2,8,,,,,,,,7,15,,,,,,,,,,,,,4,1.899,0,,,,,,0.352864583,-0.252604167,1,0,0,1.8994,Gabbro_rect,7,0,7,0,1,
66544eb885c9e3646bd7d2fb,SCR,2024-06-11_18h27.20.337,LearnStrategy,2023.2.3,Win32,59.88023952,3,2,9,,,,,,,,3,13,,,,,,,,,,,,,3,0.957,1,,,,,,0.153645833,-0.265625,1,0,0,0.9567,Diorite_rect,8,0,8,0,1,
66544eb885c9e3646bd7d2fb,SCR,2024-06-11_18h27.20.337,LearnStrategy,2023.2.3,Win32,59.88023952,3,2,10,,,,,,,,8,06,,,,,,,,,,,,,1,3.114,0,,,,,,-0.3515625,-0.236979167,1,0,0,3.1139,Andesite_rect,9,0,9,0,1,
66544eb885c9e3646bd7d2fb,SCR,2024-06-11_18h27.20.337,LearnStrategy,2023.2.3,Win32,59.88023952,3,2,11,,,,,,,,2,12,,,,,,,,,,,,,3,1.177,0,,,,,,0.1171875,-0.266927083,1,0,0,1.177,Diorite_rect,10,0,10,0,1,
66544eb885c9e3646bd7d2fb,SCR,2024-06-11_18h27.20.337,LearnStrategy,2023.2.3,Win32,59.88023952,3,2,12,,,,,,,,1,01,,,,,,,,,,,,,7,0.961,0,,,,,,0.084635417,-0.40234375,1,0,0,0.9612,Peridotite_rect,11,0,11,0,1,
66544eb885c9e3646bd7d2fb,SCR,2024-06-11_18h27.20.337,LearnStrategy,2023.2.3,Win32,59.88023952,3,2,13,,,,,,,,8,10,,,,,,,,,,,,,2,1.236,0,,,,,,-0.08984375,-0.26953125,1,0,0,1.2363,Basalt_rect,12,0,12,0,1,
66544eb885c9e3646bd7d2fb,SCR,2024-06-11_18h27.20.337,LearnStrategy,2023.2.3,Win32,59.88023952,3,2,14,,,,,,,,7,08,,,,,,,,,,,,,6,0.767,0,,,,,,-0.0546875,-0.41015625,1,0,0,0.7666,Pegmatite_rect,13,0,13,0,1,
66544eb885c9e3646bd7d2fb,SCR,2024-06-11_18h27.20.337,LearnStrategy,2023.2.3,Win32,59.88023952,3,2,15,,,,,,,,2,05,,,,,,,,,,,,,4,1.681,0,,,,,,0.361979167,-0.25,1,0,0,1.681,Gabbro_rect,14,0,14,0,1,
66544eb885c9e3646bd7d2fb,SCR,2024-06-11_18h27.20.337,LearnStrategy,2023.2.3,Win32,59.88023952,3,2,16,,,,,,,,4,12,,,,,,,,,,,,,4,1.014,1,,,,,,0.354166667,-0.25,1,0,0,1.0139,Gabbro_rect,15,0,15,0,1,
66544eb885c9e3646bd7d2fb,SCR,2024-06-11_18h27.20.337,LearnStrategy,2023.2.3,Win32,59.88023952,4,1,1,0.559895833,0.225260417,1,0,0,2.3142,Gabbro_03,4,03,5,8,2.314,3,06,0.401041667,-0.235677083,1,0,0,1.0559,Gabbro_rect,4,1.056,1,0,0,0,0,1,,,,,,,,,,,,,
66544eb885c9e3646bd7d2fb,SCR,2024-06-11_18h27.20.337,LearnStrategy,2023.2.3,Win32,59.88023952,4,1,2,0.032552083,-0.0625,1,0,0,1.167,Diorite_02,3,02,3,5,1.167,4,11,0.161458333,-0.23046875,1,0,0,0.9332,Diorite_rect,3,0.933,1,1,0,1,0,1,,,,,,,,,,,,,
66544eb885c9e3646bd7d2fb,SCR,2024-06-11_18h27.20.337,LearnStrategy,2023.2.3,Win32,59.88023952,4,1,3,-0.53515625,0.143229167,1,0,0,1.6446,Obsidian_16,5,16,4,1,1.645,1,07,-0.352864583,-0.39453125,1,0,0,0.9692,Obsidian_rect,5,0.969,1,2,0,2,0,1,,,,,,,,,,,,,
66544eb885c9e3646bd7d2fb,SCR,2024-06-11_18h27.20.337,LearnStrategy,2023.2.3,Win32,59.88023952,4,1,4,-0.557291667,0.25,1,0,0,1.3147,Obsidian_08,5,08,5,1,1.315,2,10,-0.419270833,-0.385416667,1,0,0,2.0197,Obsidian_rect,5,2.02,1,3,0,3,0,1,,,,,,,,,,,,,
66544eb885c9e3646bd7d2fb,SCR,2024-06-11_18h27.20.337,LearnStrategy,2023.2.3,Win32,59.88023952,4,1,5,-0.108072917,0.251302083,1,0,0,1.9616,Obsidian_04,5,04,5,4,1.962,7,04,-0.350260417,-0.393229167,1,0,0,1.5351,Obsidian_rect,5,1.535,1,4,0,4,0,1,,,,,,,,,,,,,
66544eb885c9e3646bd7d2fb,SCR,2024-06-11_18h27.20.337,LearnStrategy,2023.2.3,Win32,59.88023952,4,1,6,-0.276041667,0.065104167,1,0,0,1.7905,Obsidian_09,5,09,4,3,1.791,8,05,-0.45703125,-0.40625,1,0,0,1.1507,Obsidian_rect,5,1.151,1,5,0,5,0,1,,,,,,,,,,,,,
66544eb885c9e3646bd7d2fb,SCR,2024-06-11_18h27.20.337,LearnStrategy,2023.2.3,Win32,59.88023952,4,1,7,-0.236979167,-0.111979167,1,0,0,19.1397,Pegmatite_05,6,05,3,3,19.14,4,08,-0.35546875,-0.393229167,1,0,0,1.0043,Obsidian_rect,5,1.004,0,6,0,6,0,1,,,,,,,,,,,,,
66544eb885c9e3646bd7d2fb,SCR,2024-06-11_18h27.20.337,LearnStrategy,2023.2.3,Win32,59.88023952,4,1,8,-0.100260417,0.104166667,1,0,0,1.3204,Obsidian_12,5,12,4,4,1.32,7,02,-0.342447917,-0.401041667,1,0,0,1.1647,Obsidian_rect,5,1.165,1,7,0,7,0,1,,,,,,,,,,,,,
66544eb885c9e3646bd7d2fb,SCR,2024-06-11_18h27.20.337,LearnStrategy,2023.2.3,Win32,59.88023952,4,1,9,0.576822917,0.287760417,1,0,0,3.0829,Gabbro_03,4,03,5,8,3.083,8,15,0.39453125,-0.25390625,1,0,0,1.2652,Gabbro_rect,4,1.265,1,8,0,8,0,1,,,,,,,,,,,,,
66544eb885c9e3646bd7d2fb,SCR,2024-06-11_18h27.20.337,LearnStrategy,2023.2.3,Win32,59.88023952,4,1,10,0.080729167,-0.111979167,1,0,0,1.2099,Diorite_02,3,02,3,5,1.21,6,15,0.1484375,-0.247395833,1,0,0,2.6282,Diorite_rect,3,2.628,1,9,0,9,0,1,,,,,,,,,,,,,
66544eb885c9e3646bd7d2fb,SCR,2024-06-11_18h27.20.337,LearnStrategy,2023.2.3,Win32,59.88023952,4,1,11,-0.041666667,0.208333333,1,0,0,1.4886,Obsidian_04,5,04,5,4,1.489,3,07,-0.3203125,-0.420572917,1,0,0,1.3417,Obsidian_rect,5,1.342,1,10,0,10,0,1,,,,,,,,,,,,,
66544eb885c9e3646bd7d2fb,SCR,2024-06-11_18h27.20.337,LearnStrategy,2023.2.3,Win32,59.88023952,4,1,12,-0.5234375,0.25390625,1,0,0,1.8644,Obsidian_08,5,08,5,1,1.864,2,04,-0.338541667,-0.40625,1,0,0,1.2354,Obsidian_rect,5,1.235,1,11,0,11,0,1,,,,,,,,,,,,,
66544eb885c9e3646bd7d2fb,SCR,2024-06-11_18h27.20.337,LearnStrategy,2023.2.3,Win32,59.88023952,4,1,13,-0.513020833,0.37890625,1,0,0,1.2319,Andesite_09,1,09,6,1,1.232,1,04,-0.135416667,-0.234375,1,0,0,1.1847,Basalt_rect,2,1.185,0,12,0,12,0,1,,,,,,,,,,,,,
66544eb885c9e3646bd7d2fb,SCR,2024-06-11_18h27.20.337,LearnStrategy,2023.2.3,Win32,59.88023952,4,1,14,-0.529947917,0.41015625,1,0,0,1.4959,Andesite_09,1,09,6,1,1.496,6,08,-0.346354167,-0.2421875,1,0,0,2.0487,Andesite_rect,1,2.049,1,13,0,13,0,1,,,,,,,,,,,,,
66544eb885c9e3646bd7d2fb,SCR,2024-06-11_18h27.20.337,LearnStrategy,2023.2.3,Win32,59.88023952,4,1,15,-0.096354167,-0.397135417,1,0,0,4.6939,Diorite_11,3,11,1,4,4.694,1,03,0.33203125,-0.244791667,1,0,0,1.3215,Gabbro_rect,4,1.322,0,14,0,14,0,1,,,,,,,,,,,,,
66544eb885c9e3646bd7d2fb,SCR,2024-06-11_18h27.20.337,LearnStrategy,2023.2.3,Win32,59.88023952,4,1,16,-0.104166667,-0.41015625,1,0,0,1.3256,Diorite_11,3,11,1,4,1.326,2,01,0.126302083,-0.26171875,1,0,0,1.0534,Diorite_rect,3,1.053,1,15,0,15,0,1,,,,,,,,,,,,,
66544eb885c9e3646bd7d2fb,SCR,2024-06-11_18h27.20.337,LearnStrategy,2023.2.3,Win32,59.88023952,4,2,1,,,,,,,,4,05,,,,,,,,,,,,,4,2.205,1,,,,,,0.30859375,-0.235677083,1,0,0,2.205,Gabbro_rect,0,0,0,0,1,
66544eb885c9e3646bd7d2fb,SCR,2024-06-11_18h27.20.337,LearnStrategy,2023.2.3,Win32,59.88023952,4,2,2,,,,,,,,5,06,,,,,,,,,,,,,5,1.331,1,,,,,,-0.420572917,-0.39453125,1,0,0,1.3312,Obsidian_rect,1,0,1,0,1,
66544eb885c9e3646bd7d2fb,SCR,2024-06-11_18h27.20.337,LearnStrategy,2023.2.3,Win32,59.88023952,4,2,3,,,,,,,,1,11,,,,,,,,,,,,,2,1.244,0,,,,,,-0.102864583,-0.244791667,1,0,0,1.244,Basalt_rect,2,0,2,0,1,
66544eb885c9e3646bd7d2fb,SCR,2024-06-11_18h27.20.337,LearnStrategy,2023.2.3,Win32,59.88023952,4,2,4,,,,,,,,1,01,,,,,,,,,,,,,7,2.681,0,,,,,,0.186197917,-0.415364583,1,0,0,2.6813,Peridotite_rect,3,0,3,0,1,
66544eb885c9e3646bd7d2fb,SCR,2024-06-11_18h27.20.337,LearnStrategy,2023.2.3,Win32,59.88023952,4,2,5,,,,,,,,7,14,,,,,,,,,,,,,4,2.033,0,,,,,,0.368489583,-0.239583333,1,0,0,2.0329,Gabbro_rect,4,0,4,0,1,
66544eb885c9e3646bd7d2fb,SCR,2024-06-11_18h27.20.337,LearnStrategy,2023.2.3,Win32,59.88023952,4,2,6,,,,,,,,6,13,,,,,,,,,,,,,3,1.15,0,,,,,,0.048177083,-0.24609375,1,0,0,1.1499,Diorite_rect,5,0,5,0,1,
66544eb885c9e3646bd7d2fb,SCR,2024-06-11_18h27.20.337,LearnStrategy,2023.2.3,Win32,59.88023952,4,2,7,,,,,,,,8,16,,,,,,,,,,,,,2,0.859,0,,,,,,-0.06640625,-0.252604167,1,0,0,0.8594,Basalt_rect,6,0,6,0,1,
66544eb885c9e3646bd7d2fb,SCR,2024-06-11_18h27.20.337,LearnStrategy,2023.2.3,Win32,59.88023952,4,2,8,,,,,,,,8,10,,,,,,,,,,,,,8,1.014,1,,,,,,0.342447917,-0.421875,1,0,0,1.0141,Pumice_rect,7,0,7,0,1,
66544eb885c9e3646bd7d2fb,SCR,2024-06-11_18h27.20.337,LearnStrategy,2023.2.3,Win32,59.88023952,4,2,9,,,,,,,,3,09,,,,,,,,,,,,,7,0.685,0,,,,,,0.123697917,-0.421875,1,0,0,0.6845,Peridotite_rect,8,0,8,0,1,
66544eb885c9e3646bd7d2fb,SCR,2024-06-11_18h27.20.337,LearnStrategy,2023.2.3,Win32,59.88023952,4,2,10,,,,,,,,7,08,,,,,,,,,,,,,1,2.097,0,,,,,,-0.377604167,-0.252604167,1,0,0,2.0967,Andesite_rect,9,0,9,0,1,
66544eb885c9e3646bd7d2fb,SCR,2024-06-11_18h27.20.337,LearnStrategy,2023.2.3,Win32,59.88023952,4,2,11,,,,,,,,4,01,,,,,,,,,,,,,2,1.615,0,,,,,,-0.21484375,-0.2578125,1,0,0,1.6146,Basalt_rect,10,0,10,0,1,
66544eb885c9e3646bd7d2fb,SCR,2024-06-11_18h27.20.337,LearnStrategy,2023.2.3,Win32,59.88023952,4,2,12,,,,,,,,5,14,,,,,,,,,,,,,5,0.898,1,,,,,,-0.330729167,-0.404947917,1,0,0,0.8984,Obsidian_rect,11,0,11,0,1,
66544eb885c9e3646bd7d2fb,SCR,2024-06-11_18h27.20.337,LearnStrategy,2023.2.3,Win32,59.88023952,4,2,13,,,,,,,,3,12,,,,,,,,,,,,,2,1.174,0,,,,,,-0.07421875,-0.24609375,1,0,0,1.174,Basalt_rect,12,0,12,0,1,
66544eb885c9e3646bd7d2fb,SCR,2024-06-11_18h27.20.337,LearnStrategy,2023.2.3,Win32,59.88023952,4,2,14,,,,,,,,6,07,,,,,,,,,,,,,3,1.985,0,,,,,,0.080729167,-0.2421875,1,0,0,1.9847,Diorite_rect,13,0,13,0,1,
66544eb885c9e3646bd7d2fb,SCR,2024-06-11_18h27.20.337,LearnStrategy,2023.2.3,Win32,59.88023952,4,2,15,,,,,,,,2,02,,,,,,,,,,,,,6,0.75,0,,,,,,-0.110677083,-0.37890625,1,0,0,0.7496,Pegmatite_rect,14,0,14,0,1,
66544eb885c9e3646bd7d2fb,SCR,2024-06-11_18h27.20.337,LearnStrategy,2023.2.3,Win32,59.88023952,4,2,16,,,,,,,,2,12,,,,,,,,,,,,,1,1.969,0,,,,,,-0.328125,-0.26171875,1,0,0,1.9687,Andesite_rect,15,0,15,0,1,
66544eb885c9e3646bd7d2fb,SCR,2024-06-11_18h27.20.337,LearnStrategy,2023.2.3,Win32,59.88023952,5,1,1,-0.095052083,0.111979167,1,0,0,2.378,Obsidian_12,5,12,4,4,2.378,4,15,-0.32421875,-0.399739583,1,0,0,2.1541,Obsidian_rect,5,2.154,1,0,0,0,0,1,,,,,,,,,,,,,
66544eb885c9e3646bd7d2fb,SCR,2024-06-11_18h27.20.337,LearnStrategy,2023.2.3,Win32,59.88023952,5,1,2,0.520833333,0.229166667,1,0,0,1.88,Gabbro_03,4,03,5,8,1.88,3,07,0.385416667,-0.25390625,1,0,0,1.6137,Gabbro_rect,4,1.614,1,1,0,1,0,1,,,,,,,,,,,,,
66544eb885c9e3646bd7d2fb,SCR,2024-06-11_18h27.20.337,LearnStrategy,2023.2.3,Win32,59.88023952,5,1,3,0.109375,-0.123697917,1,0,0,3.7842,Diorite_02,3,02,3,5,3.784,1,09,0.15625,-0.239583333,1,0,0,0.6783,Diorite_rect,3,0.678,1,2,0,2,0,1,,,,,,,,,,,,,
66544eb885c9e3646bd7d2fb,SCR,2024-06-11_18h27.20.337,LearnStrategy,2023.2.3,Win32,59.88023952,5,1,4,-0.098958333,0.221354167,1,0,0,1.2499,Obsidian_04,5,04,5,4,1.25,6,05,-0.35546875,-0.40234375,1,0,0,1.3512,Obsidian_rect,5,1.351,1,3,0,3,0,1,,,,,,,,,,,,,
66544eb885c9e3646bd7d2fb,SCR,2024-06-11_18h27.20.337,LearnStrategy,2023.2.3,Win32,59.88023952,5,1,5,-0.501302083,0.248697917,1,0,0,1.5627,Obsidian_08,5,08,5,1,1.563,6,09,-0.420572917,-0.390625,1,0,0,1.0947,Obsidian_rect,5,1.095,1,4,0,4,0,1,,,,,,,,,,,,,
66544eb885c9e3646bd7d2fb,SCR,2024-06-11_18h27.20.337,LearnStrategy,2023.2.3,Win32,59.88023952,5,1,6,-0.240885417,0.095052083,1,0,0,3.0942,Obsidian_09,5,09,4,3,3.094,2,06,-0.3671875,-0.399739583,1,0,0,1.1062,Obsidian_rect,5,1.106,1,5,0,5,0,1,,,,,,,,,,,,,
66544eb885c9e3646bd7d2fb,SCR,2024-06-11_18h27.20.337,LearnStrategy,2023.2.3,Win32,59.88023952,5,1,7,0.095052083,-0.100260417,1,0,0,1.2466,Diorite_02,3,02,3,5,1.247,1,04,0.10546875,-0.236979167,1,0,0,0.6833,Diorite_rect,3,0.683,1,6,0,6,0,1,,,,,,,,,,,,,
66544eb885c9e3646bd7d2fb,SCR,2024-06-11_18h27.20.337,LearnStrategy,2023.2.3,Win32,59.88023952,5,1,8,-0.51171875,0.4609375,1,0,0,1.2697,Andesite_09,1,09,6,1,1.27,3,15,-0.38671875,-0.2578125,1,0,0,1.512,Andesite_rect,1,1.512,1,7,0,7,0,1,,,,,,,,,,,,,
66544eb885c9e3646bd7d2fb,SCR,2024-06-11_18h27.20.337,LearnStrategy,2023.2.3,Win32,59.88023952,5,1,9,-0.104166667,0.266927083,1,0,0,1.2964,Obsidian_04,5,04,5,4,1.296,2,06,-0.434895833,-0.384114583,1,0,0,1.0281,Obsidian_rect,5,1.028,1,8,0,8,0,1,,,,,,,,,,,,,
66544eb885c9e3646bd7d2fb,SCR,2024-06-11_18h27.20.337,LearnStrategy,2023.2.3,Win32,59.88023952,5,1,10,0.231770833,-0.078125,1,0,0,1.2406,Pegmatite_09,6,09,3,6,1.241,1,04,0.111979167,-0.404947917,1,0,0,49.189,Peridotite_rect,7,49.189,0,9,0,9,0,1,,,,,,,,,,,,,
66544eb885c9e3646bd7d2fb,SCR,2024-06-11_18h27.20.337,LearnStrategy,2023.2.3,Win32,59.88023952,5,1,11,0.21875,-0.096354167,1,0,0,1.0961,Pegmatite_09,6,09,3,6,1.096,8,03,-0.104166667,-0.420572917,1,0,0,1.4384,Pegmatite_rect,6,1.438,1,10,0,10,0,1,,,,,,,,,,,,,
66544eb885c9e3646bd7d2fb,SCR,2024-06-11_18h27.20.337,LearnStrategy,2023.2.3,Win32,59.88023952,5,1,12,-0.514322917,0.13671875,1,0,0,1.6599,Obsidian_16,5,16,4,1,1.66,7,16,-0.348958333,-0.40234375,1,0,0,1.7401,Obsidian_rect,5,1.74,1,11,0,11,0,1,,,,,,,,,,,,,
66544eb885c9e3646bd7d2fb,SCR,2024-06-11_18h27.20.337,LearnStrategy,2023.2.3,Win32,59.88023952,5,1,13,0.571614583,0.200520833,1,0,0,1.1773,Gabbro_03,4,03,5,8,1.177,2,10,0.390625,-0.234375,1,0,0,1.0351,Gabbro_rect,4,1.035,1,12,0,12,0,1,,,,,,,,,,,,,
66544eb885c9e3646bd7d2fb,SCR,2024-06-11_18h27.20.337,LearnStrategy,2023.2.3,Win32,59.88023952,5,1,14,-0.0859375,0.274739583,1,0,0,6.6763,Obsidian_04,5,04,5,4,6.676,8,03,-0.33984375,-0.393229167,1,0,0,2.7623,Obsidian_rect,5,2.762,1,13,0,13,0,1,,,,,,,,,,,,,
66544eb885c9e3646bd7d2fb,SCR,2024-06-11_18h27.20.337,LearnStrategy,2023.2.3,Win32,59.88023952,5,1,15,-0.3984375,0.376302083,1,0,0,1.36,Peridotite_05,7,05,6,2,1.36,4,15,-0.389322917,-0.41796875,1,0,0,1.0863,Obsidian_rect,5,1.086,0,14,0,14,0,1,,,,,,,,,,,,,
66544eb885c9e3646bd7d2fb,SCR,2024-06-11_18h27.20.337,LearnStrategy,2023.2.3,Win32,59.88023952,5,1,16,-0.548177083,0.286458333,1,0,0,1.0833,Obsidian_08,5,08,5,1,1.083,7,16,-0.423177083,-0.408854167,1,0,0,1.0309,Obsidian_rect,5,1.031,1,15,0,15,0,1,,,,,,,,,,,,,
66544eb885c9e3646bd7d2fb,SCR,2024-06-11_18h27.20.337,LearnStrategy,2023.2.3,Win32,59.88023952,5,2,1,,,,,,,,2,05,,,,,,,,,,,,,3,7.306,0,,,,,,0.088541667,-0.26171875,1,0,0,7.3063,Diorite_rect,0,0,0,0,1,
66544eb885c9e3646bd7d2fb,SCR,2024-06-11_18h27.20.337,LearnStrategy,2023.2.3,Win32,59.88023952,5,2,2,,,,,,,,1,16,,,,,,,,,,,,,3,5.451,0,,,,,,0.080729167,-0.236979167,1,0,0,5.451,Diorite_rect,1,0,1,0,1,
66544eb885c9e3646bd7d2fb,SCR,2024-06-11_18h27.20.337,LearnStrategy,2023.2.3,Win32,59.88023952,5,2,3,,,,,,,,7,12,,,,,,,,,,,,,2,1.016,0,,,,,,-0.07421875,-0.263020833,1,0,0,1.0156,Basalt_rect,2,0,2,0,1,
66544eb885c9e3646bd7d2fb,SCR,2024-06-11_18h27.20.337,LearnStrategy,2023.2.3,Win32,59.88023952,5,2,4,,,,,,,,4,12,,,,,,,,,,,,,7,1.661,0,,,,,,0.11328125,-0.403645833,1,0,0,1.6612,Peridotite_rect,3,0,3,0,1,
66544eb885c9e3646bd7d2fb,SCR,2024-06-11_18h27.20.337,LearnStrategy,2023.2.3,Win32,59.88023952,5,2,5,,,,,,,,2,11,,,,,,,,,,,,,4,1.095,0,,,,,,0.401041667,-0.234375,1,0,0,1.0954,Gabbro_rect,4,0,4,0,1,
66544eb885c9e3646bd7d2fb,SCR,2024-06-11_18h27.20.337,LearnStrategy,2023.2.3,Win32,59.88023952,5,2,6,,,,,,,,3,10,,,,,,,,,,,,,3,0.813,1,,,,,,0.102864583,-0.229166667,1,0,0,0.8129,Diorite_rect,5,0,5,0,1,
66544eb885c9e3646bd7d2fb,SCR,2024-06-11_18h27.20.337,LearnStrategy,2023.2.3,Win32,59.88023952,5,2,7,,,,,,,,8,04,,,,,,,,,,,,,6,1.493,0,,,,,,-0.178385417,-0.39453125,1,0,0,1.4928,Pegmatite_rect,6,0,6,0,1,
66544eb885c9e3646bd7d2fb,SCR,2024-06-11_18h27.20.337,LearnStrategy,2023.2.3,Win32,59.88023952,5,2,8,,,,,,,,6,12,,,,,,,,,,,,,1,0.97,0,,,,,,-0.377604167,-0.239583333,1,0,0,0.9705,Andesite_rect,7,0,7,0,1,
66544eb885c9e3646bd7d2fb,SCR,2024-06-11_18h27.20.337,LearnStrategy,2023.2.3,Win32,59.88023952,5,2,9,,,,,,,,3,14,,,,,,,,,,,,,8,1.019,0,,,,,,0.33984375,-0.40625,1,0,0,1.0188,Pumice_rect,8,0,8,0,1,
66544eb885c9e3646bd7d2fb,SCR,2024-06-11_18h27.20.337,LearnStrategy,2023.2.3,Win32,59.88023952,5,2,10,,,,,,,,1,10,,,,,,,,,,,,,6,0.609,0,,,,,,-0.055989583,-0.380208333,1,0,0,0.6093,Pegmatite_rect,9,0,9,0,1,
66544eb885c9e3646bd7d2fb,SCR,2024-06-11_18h27.20.337,LearnStrategy,2023.2.3,Win32,59.88023952,5,2,11,,,,,,,,7,13,,,,,,,,,,,,,1,1.522,0,,,,,,-0.34765625,-0.247395833,1,0,0,1.5221,Andesite_rect,10,0,10,0,1,
66544eb885c9e3646bd7d2fb,SCR,2024-06-11_18h27.20.337,LearnStrategy,2023.2.3,Win32,59.88023952,5,2,12,,,,,,,,5,11,,,,,,,,,,,,,6,1.419,0,,,,,,-0.072916667,-0.389322917,1,0,0,1.4189,Pegmatite_rect,11,0,11,0,1,
66544eb885c9e3646bd7d2fb,SCR,2024-06-11_18h27.20.337,LearnStrategy,2023.2.3,Win32,59.88023952,5,2,13,,,,,,,,4,14,,,,,,,,,,,,,7,1.05,0,,,,,,0.110677083,-0.385416667,1,0,0,1.0495,Peridotite_rect,12,0,12,0,1,
66544eb885c9e3646bd7d2fb,SCR,2024-06-11_18h27.20.337,LearnStrategy,2023.2.3,Win32,59.88023952,5,2,14,,,,,,,,8,06,,,,,,,,,,,,,2,1.253,0,,,,,,-0.143229167,-0.25390625,1,0,0,1.2525,Basalt_rect,13,0,13,0,1,
66544eb885c9e3646bd7d2fb,SCR,2024-06-11_18h27.20.337,LearnStrategy,2023.2.3,Win32,59.88023952,5,2,15,,,,,,,,6,03,,,,,,,,,,,,,2,1.575,0,,,,,,-0.13671875,-0.252604167,1,0,0,1.5747,Basalt_rect,14,0,14,0,1,
66544eb885c9e3646bd7d2fb,SCR,2024-06-11_18h27.20.337,LearnStrategy,2023.2.3,Win32,59.88023952,5,2,16,,,,,,,,5,02,,,,,,,,,,,,,5,2.019,1,,,,,,-0.342447917,-0.404947917,1,0,0,2.0195,Obsidian_rect,15,0,15,0,1,
66544eb885c9e3646bd7d2fb,SCR,2024-06-11_18h27.20.337,LearnStrategy,2023.2.3,Win32,59.88023952,6,1,1,-0.546875,0.0859375,1,0,0,1.9188,Obsidian_16,5,16,4,1,1.919,2,09,-0.341145833,-0.39453125,1,0,0,1.8261,Obsidian_rect,5,1.826,1,0,0,0,0,1,,,,,,,,,,,,,
66544eb885c9e3646bd7d2fb,SCR,2024-06-11_18h27.20.337,LearnStrategy,2023.2.3,Win32,59.88023952,6,1,2,-0.533854167,0.368489583,1,0,0,1.0436,Andesite_09,1,09,6,1,1.044,1,06,-0.389322917,-0.255208333,1,0,0,1.5578,Andesite_rect,1,1.558,1,1,0,1,0,1,,,,,,,,,,,,,
66544eb885c9e3646bd7d2fb,SCR,2024-06-11_18h27.20.337,LearnStrategy,2023.2.3,Win32,59.88023952,6,1,3,-0.545572917,0.220052083,1,0,0,1.2745,Obsidian_08,5,08,5,1,1.274,5,04,-0.42578125,-0.38671875,1,0,0,1.2655,Obsidian_rect,5,1.266,1,2,0,2,0,1,,,,,,,,,,,,,
66544eb885c9e3646bd7d2fb,SCR,2024-06-11_18h27.20.337,LearnStrategy,2023.2.3,Win32,59.88023952,6,1,4,0.524739583,0.21484375,1,0,0,1.2328,Gabbro_03,4,03,5,8,1.233,6,06,0.391927083,-0.243489583,1,0,0,1.9781,Gabbro_rect,4,1.978,1,3,0,3,0,1,,,,,,,,,,,,,
66544eb885c9e3646bd7d2fb,SCR,2024-06-11_18h27.20.337,LearnStrategy,2023.2.3,Win32,59.88023952,6,1,5,0.221354167,-0.071614583,1,0,0,2.0469,Pegmatite_09,6,09,3,6,2.047,2,10,-0.1015625,-0.41015625,1,0,0,0.9012,Pegmatite_rect,6,0.901,1,4,0,4,0,1,,,,,,,,,,,,,
66544eb885c9e3646bd7d2fb,SCR,2024-06-11_18h27.20.337,LearnStrategy,2023.2.3,Win32,59.88023952,6,1,6,-0.125,0.115885417,1,0,0,1.3291,Obsidian_12,5,12,4,4,1.329,8,03,-0.326822917,-0.399739583,1,0,0,1.1692,Obsidian_rect,5,1.169,1,5,0,5,0,1,,,,,,,,,,,,,
66544eb885c9e3646bd7d2fb,SCR,2024-06-11_18h27.20.337,LearnStrategy,2023.2.3,Win32,59.88023952,6,1,7,0.1171875,0.234375,1,0,0,3.5015,Basalt_04,2,04,5,5,3.502,8,08,0.098958333,-0.252604167,1,0,0,3.212,Diorite_rect,3,3.212,0,6,0,6,0,1,,,,,,,,,,,,,
66544eb885c9e3646bd7d2fb,SCR,2024-06-11_18h27.20.337,LearnStrategy,2023.2.3,Win32,59.88023952,6,1,8,0.069010417,0.295572917,1,0,0,1.3575,Basalt_04,2,04,5,5,1.358,6,06,-0.196614583,-0.255208333,1,0,0,0.8441,Basalt_rect,2,0.844,1,7,0,7,0,1,,,,,,,,,,,,,
66544eb885c9e3646bd7d2fb,SCR,2024-06-11_18h27.20.337,LearnStrategy,2023.2.3,Win32,59.88023952,6,1,9,0.048177083,-0.43359375,1,0,0,3.1653,Basalt_01,2,01,1,5,3.165,7,02,-0.067708333,-0.40625,1,0,0,0.7822,Pegmatite_rect,6,0.782,0,8,0,8,0,1,,,,,,,,,,,,,
66544eb885c9e3646bd7d2fb,SCR,2024-06-11_18h27.20.337,LearnStrategy,2023.2.3,Win32,59.88023952,6,1,10,0.055989583,-0.40625,1,0,0,1.2627,Basalt_01,2,01,1,5,1.263,3,15,-0.065104167,-0.24609375,1,0,0,1.4733,Basalt_rect,2,1.473,1,9,0,9,0,1,,,,,,,,,,,,,
66544eb885c9e3646bd7d2fb,SCR,2024-06-11_18h27.20.337,LearnStrategy,2023.2.3,Win32,59.88023952,6,1,11,0.5390625,-0.397135417,1,0,0,2.0299,Pumice_14,8,14,1,8,2.03,4,08,0.104166667,-0.229166667,1,0,0,1.7656,Diorite_rect,3,1.766,0,10,0,10,0,1,,,,,,,,,,,,,
66544eb885c9e3646bd7d2fb,SCR,2024-06-11_18h27.20.337,LearnStrategy,2023.2.3,Win32,59.88023952,6,1,12,0.545572917,-0.440104167,1,0,0,1.2948,Pumice_14,8,14,1,8,1.295,2,09,0.416666667,-0.384114583,1,0,0,1.1819,Pumice_rect,8,1.182,1,11,0,11,0,1,,,,,,,,,,,,,
66544eb885c9e3646bd7d2fb,SCR,2024-06-11_18h27.20.337,LearnStrategy,2023.2.3,Win32,59.88023952,6,1,13,0.50390625,0.248697917,1,0,0,1.5959,Gabbro_03,4,03,5,8,1.596,7,16,0.4453125,-0.244791667,1,0,0,2.0853,Gabbro_rect,4,2.085,1,12,0,12,0,1,,,,,,,,,,,,,
66544eb885c9e3646bd7d2fb,SCR,2024-06-11_18h27.20.337,LearnStrategy,2023.2.3,Win32,59.88023952,6,1,14,-0.533854167,0.115885417,1,0,0,1.15,Obsidian_16,5,16,4,1,1.15,3,11,-0.3515625,-0.403645833,1,0,0,1.4913,Obsidian_rect,5,1.491,1,13,0,13,0,1,,,,,,,,,,,,,
66544eb885c9e3646bd7d2fb,SCR,2024-06-11_18h27.20.337,LearnStrategy,2023.2.3,Win32,59.88023952,6,1,15,-0.541666667,0.225260417,1,0,0,1.6453,Obsidian_08,5,08,5,1,1.645,1,09,-0.4140625,-0.381510417,1,0,0,1.5875,Obsidian_rect,5,1.588,1,14,0,14,0,1,,,,,,,,,,,,,
66544eb885c9e3646bd7d2fb,SCR,2024-06-11_18h27.20.337,LearnStrategy,2023.2.3,Win32,59.88023952,6,1,16,-0.408854167,0.115885417,1,0,0,1.1142,Pegmatite_15,6,15,4,2,1.114,4,15,-0.055989583,-0.4140625,1,0,0,1.7931,Pegmatite_rect,6,1.793,1,15,0,15,0,1,,,,,,,,,,,,,
66544eb885c9e3646bd7d2fb,SCR,2024-06-11_18h27.20.337,LearnStrategy,2023.2.3,Win32,59.88023952,6,2,1,,,,,,,,8,09,,,,,,,,,,,,,8,1.901,1,,,,,,0.3515625,-0.404947917,1,0,0,1.901,Pumice_rect,0,0,0,0,1,
66544eb885c9e3646bd7d2fb,SCR,2024-06-11_18h27.20.337,LearnStrategy,2023.2.3,Win32,59.88023952,6,2,2,,,,,,,,4,10,,,,,,,,,,,,,2,1.829,0,,,,,,-0.110677083,-0.233072917,1,0,0,1.8291,Basalt_rect,1,0,1,0,1,
66544eb885c9e3646bd7d2fb,SCR,2024-06-11_18h27.20.337,LearnStrategy,2023.2.3,Win32,59.88023952,6,2,3,,,,,,,,4,13,,,,,,,,,,,,,8,3.543,0,,,,,,0.3828125,-0.4140625,1,0,0,3.5426,Pumice_rect,2,0,2,0,1,
66544eb885c9e3646bd7d2fb,SCR,2024-06-11_18h27.20.337,LearnStrategy,2023.2.3,Win32,59.88023952,6,2,4,,,,,,,,3,13,,,,,,,,,,,,,4,1.397,0,,,,,,0.348958333,-0.26953125,1,0,0,1.3969,Gabbro_rect,3,0,3,0,1,
66544eb885c9e3646bd7d2fb,SCR,2024-06-11_18h27.20.337,LearnStrategy,2023.2.3,Win32,59.88023952,6,2,5,,,,,,,,2,08,,,,,,,,,,,,,2,1.181,1,,,,,,-0.115885417,-0.270833333,1,0,0,1.1808,Basalt_rect,4,0,4,0,1,
66544eb885c9e3646bd7d2fb,SCR,2024-06-11_18h27.20.337,LearnStrategy,2023.2.3,Win32,59.88023952,6,2,6,,,,,,,,5,07,,,,,,,,,,,,,5,1.401,1,,,,,,-0.427083333,-0.4140625,1,0,0,1.4009,Obsidian_rect,5,0,5,0,1,
66544eb885c9e3646bd7d2fb,SCR,2024-06-11_18h27.20.337,LearnStrategy,2023.2.3,Win32,59.88023952,6,2,7,,,,,,,,8,02,,,,,,,,,,,,,8,1.356,1,,,,,,0.369791667,-0.412760417,1,0,0,1.3562,Pumice_rect,6,0,6,0,1,
66544eb885c9e3646bd7d2fb,SCR,2024-06-11_18h27.20.337,LearnStrategy,2023.2.3,Win32,59.88023952,6,2,8,,,,,,,,6,10,,,,,,,,,,,,,3,1.683,0,,,,,,0.072916667,-0.247395833,1,0,0,1.6831,Diorite_rect,7,0,7,0,1,
66544eb885c9e3646bd7d2fb,SCR,2024-06-11_18h27.20.337,LearnStrategy,2023.2.3,Win32,59.88023952,6,2,9,,,,,,,,7,15,,,,,,,,,,,,,1,1.559,0,,,,,,-0.361979167,-0.235677083,1,0,0,1.5585,Andesite_rect,8,0,8,0,1,
66544eb885c9e3646bd7d2fb,SCR,2024-06-11_18h27.20.337,LearnStrategy,2023.2.3,Win32,59.88023952,6,2,10,,,,,,,,2,16,,,,,,,,,,,,,4,1.361,0,,,,,,0.416666667,-0.23828125,1,0,0,1.3608,Gabbro_rect,9,0,9,0,1,
66544eb885c9e3646bd7d2fb,SCR,2024-06-11_18h27.20.337,LearnStrategy,2023.2.3,Win32,59.88023952,6,2,11,,,,,,,,5,10,,,,,,,,,,,,,5,1.83,1,,,,,,-0.352864583,-0.397135417,1,0,0,1.8298,Obsidian_rect,10,0,10,0,1,
66544eb885c9e3646bd7d2fb,SCR,2024-06-11_18h27.20.337,LearnStrategy,2023.2.3,Win32,59.88023952,6,2,12,,,,,,,,7,06,,,,,,,,,,,,,7,0.986,1,,,,,,0.139322917,-0.412760417,1,0,0,0.986,Peridotite_rect,11,0,11,0,1,
66544eb885c9e3646bd7d2fb,SCR,2024-06-11_18h27.20.337,LearnStrategy,2023.2.3,Win32,59.88023952,6,2,13,,,,,,,,3,08,,,,,,,,,,,,,2,0.812,0,,,,,,-0.12890625,-0.239583333,1,0,0,0.8118,Basalt_rect,12,0,12,0,1,
66544eb885c9e3646bd7d2fb,SCR,2024-06-11_18h27.20.337,LearnStrategy,2023.2.3,Win32,59.88023952,6,2,14,,,,,,,,1,02,,,,,,,,,,,,,8,2.81,0,,,,,,0.438802083,-0.412760417,1,0,0,2.8103,Pumice_rect,13,0,13,0,1,
66544eb885c9e3646bd7d2fb,SCR,2024-06-11_18h27.20.337,LearnStrategy,2023.2.3,Win32,59.88023952,6,2,15,,,,,,,,1,14,,,,,,,,,,,,,7,2.015,0,,,,,,0.184895833,-0.395833333,1,0,0,2.0149,Peridotite_rect,14,0,14,0,1,
66544eb885c9e3646bd7d2fb,SCR,2024-06-11_18h27.20.337,LearnStrategy,2023.2.3,Win32,59.88023952,6,2,16,,,,,,,,6,11,,,,,,,,,,,,,6,2.246,1,,,,,,-0.114583333,-0.416666667,1,0,0,2.2457,Pegmatite_rect,15,0,15,0,1,
66544eb885c9e3646bd7d2fb,SCR,2024-06-11_18h27.20.337,LearnStrategy,2023.2.3,Win32,59.88023952,7,1,1,-0.380208333,0.071614583,1,0,0,1.505,Pegmatite_15,6,15,4,2,1.505,6,16,-0.328125,-0.407552083,1,0,0,1.1943,Obsidian_rect,5,1.194,0,0,0,0,0,1,,,,,,,,,,,,,
66544eb885c9e3646bd7d2fb,SCR,2024-06-11_18h27.20.337,LearnStrategy,2023.2.3,Win32,59.88023952,7,1,2,-0.55859375,0.115885417,1,0,0,1.2847,Obsidian_16,5,16,4,1,1.285,1,04,-0.37890625,-0.40625,1,0,0,0.8983,Obsidian_rect,5,0.898,1,1,0,1,0,1,,,,,,,,,,,,,
66544eb885c9e3646bd7d2fb,SCR,2024-06-11_18h27.20.337,LearnStrategy,2023.2.3,Win32,59.88023952,7,1,3,-0.553385417,0.260416667,1,0,0,1.0503,Obsidian_08,5,08,5,1,1.05,4,08,-0.3671875,-0.389322917,1,0,0,0.9293,Obsidian_rect,5,0.929,1,2,0,2,0,1,,,,,,,,,,,,,
66544eb885c9e3646bd7d2fb,SCR,2024-06-11_18h27.20.337,LearnStrategy,2023.2.3,Win32,59.88023952,7,1,4,-0.552083333,0.294270833,1,0,0,1.2335,Obsidian_08,5,08,5,1,1.234,5,16,-0.360677083,-0.38671875,1,0,0,2.7223,Obsidian_rect,5,2.722,1,3,0,3,0,1,,,,,,,,,,,,,
66544eb885c9e3646bd7d2fb,SCR,2024-06-11_18h27.20.337,LearnStrategy,2023.2.3,Win32,59.88023952,7,1,5,-0.095052083,0.0859375,1,0,0,2.0685,Obsidian_12,5,12,4,4,2.069,4,16,-0.345052083,-0.40234375,1,0,0,1.7022,Obsidian_rect,5,1.702,1,4,0,4,0,1,,,,,,,,,,,,,
66544eb885c9e3646bd7d2fb,SCR,2024-06-11_18h27.20.337,LearnStrategy,2023.2.3,Win32,59.88023952,7,1,6,-0.084635417,0.240885417,1,0,0,2.8021,Obsidian_04,5,04,5,4,2.802,3,07,-0.32421875,-0.38671875,1,0,0,2.0021,Obsidian_rect,5,2.002,1,5,0,5,0,1,,,,,,,,,,,,,
66544eb885c9e3646bd7d2fb,SCR,2024-06-11_18h27.20.337,LearnStrategy,2023.2.3,Win32,59.88023952,7,1,7,0.108072917,-0.098958333,1,0,0,1.6111,Diorite_02,3,02,3,5,1.611,3,15,0.21484375,-0.252604167,1,0,0,1.1131,Diorite_rect,3,1.113,1,6,0,6,0,1,,,,,,,,,,,,,
66544eb885c9e3646bd7d2fb,SCR,2024-06-11_18h27.20.337,LearnStrategy,2023.2.3,Win32,59.88023952,7,1,8,0.529947917,0.216145833,1,0,0,1.4762,Gabbro_03,4,03,5,8,1.476,6,05,0.391927083,-0.256510417,1,0,0,1.7923,Gabbro_rect,4,1.792,1,7,0,7,0,1,,,,,,,,,,,,,
66544eb885c9e3646bd7d2fb,SCR,2024-06-11_18h27.20.337,LearnStrategy,2023.2.3,Win32,59.88023952,7,1,9,0.524739583,-0.424479167,1,0,0,1.5292,Pumice_14,8,14,1,8,1.529,7,02,0.356770833,-0.395833333,1,0,0,1.4561,Pumice_rect,8,1.456,1,8,0,8,0,1,,,,,,,,,,,,,
66544eb885c9e3646bd7d2fb,SCR,2024-06-11_18h27.20.337,LearnStrategy,2023.2.3,Win32,59.88023952,7,1,10,-0.575520833,0.421875,1,0,0,1.1441,Andesite_09,1,09,6,1,1.144,7,05,-0.38671875,-0.251302083,1,0,0,1.3211,Andesite_rect,1,1.321,1,9,0,9,0,1,,,,,,,,,,,,,
66544eb885c9e3646bd7d2fb,SCR,2024-06-11_18h27.20.337,LearnStrategy,2023.2.3,Win32,59.88023952,7,1,11,0.071614583,-0.12890625,1,0,0,1.0995,Diorite_02,3,02,3,5,1.1,2,01,0.19921875,-0.23046875,1,0,0,1.6948,Diorite_rect,3,1.695,1,10,0,10,0,1,,,,,,,,,,,,,
66544eb885c9e3646bd7d2fb,SCR,2024-06-11_18h27.20.337,LearnStrategy,2023.2.3,Win32,59.88023952,7,1,12,-0.401041667,-0.251302083,1,0,0,2.1315,Pumice_08,8,08,2,2,2.131,2,04,0.46484375,-0.420572917,1,0,0,1.0952,Pumice_rect,8,1.095,1,11,0,11,0,1,,,,,,,,,,,,,
66544eb885c9e3646bd7d2fb,SCR,2024-06-11_18h27.20.337,LearnStrategy,2023.2.3,Win32,59.88023952,7,1,13,0.544270833,-0.098958333,1,0,0,2.3941,Pumice_13,8,13,3,8,2.394,8,13,0.373697917,-0.39453125,1,0,0,1.4593,Pumice_rect,8,1.459,1,12,0,12,0,1,,,,,,,,,,,,,
66544eb885c9e3646bd7d2fb,SCR,2024-06-11_18h27.20.337,LearnStrategy,2023.2.3,Win32,59.88023952,7,1,14,0.346354167,0.252604167,1,0,0,1.5427,Pumice_15,8,15,5,7,1.543,8,03,0.3671875,-0.397135417,1,0,0,1.9829,Pumice_rect,8,1.983,1,13,0,13,0,1,,,,,,,,,,,,,
66544eb885c9e3646bd7d2fb,SCR,2024-06-11_18h27.20.337,LearnStrategy,2023.2.3,Win32,59.88023952,7,1,15,-0.102864583,-0.26171875,1,0,0,3.9293,Pumice_03,8,03,2,4,3.929,1,03,0.328125,-0.412760417,1,0,0,1.0906,Pumice_rect,8,1.091,1,14,0,14,0,1,,,,,,,,,,,,,
66544eb885c9e3646bd7d2fb,SCR,2024-06-11_18h27.20.337,LearnStrategy,2023.2.3,Win32,59.88023952,7,1,16,-0.4140625,-0.272135417,1,0,0,2.4909,Pumice_08,8,08,2,2,2.491,1,09,0.34375,-0.37890625,1,0,0,1.3013,Pumice_rect,8,1.301,1,15,0,15,0,1,,,,,,,,,,,,,
66544eb885c9e3646bd7d2fb,SCR,2024-06-11_18h27.20.337,LearnStrategy,2023.2.3,Win32,59.88023952,7,2,1,,,,,,,,1,02,,,,,,,,,,,,,3,1.381,0,,,,,,0.046875,-0.264322917,1,0,0,1.3806,Diorite_rect,0,0,0,0,1,
66544eb885c9e3646bd7d2fb,SCR,2024-06-11_18h27.20.337,LearnStrategy,2023.2.3,Win32,59.88023952,7,2,2,,,,,,,,7,06,,,,,,,,,,,,,7,3.358,1,,,,,,0.11328125,-0.401041667,1,0,0,3.3583,Peridotite_rect,1,0,1,0,1,
66544eb885c9e3646bd7d2fb,SCR,2024-06-11_18h27.20.337,LearnStrategy,2023.2.3,Win32,59.88023952,7,2,3,,,,,,,,4,12,,,,,,,,,,,,,4,2.527,1,,,,,,0.36328125,-0.255208333,1,0,0,2.5269,Gabbro_rect,2,0,2,0,1,
66544eb885c9e3646bd7d2fb,SCR,2024-06-11_18h27.20.337,LearnStrategy,2023.2.3,Win32,59.88023952,7,2,4,,,,,,,,6,10,,,,,,,,,,,,,3,1.915,0,,,,,,0.13671875,-0.270833333,1,0,0,1.9152,Diorite_rect,3,0,3,0,1,
66544eb885c9e3646bd7d2fb,SCR,2024-06-11_18h27.20.337,LearnStrategy,2023.2.3,Win32,59.88023952,7,2,5,,,,,,,,3,09,,,,,,,,,,,,,1,3.409,0,,,,,,-0.372395833,-0.260416667,1,0,0,3.4095,Andesite_rect,4,0,4,0,1,
66544eb885c9e3646bd7d2fb,SCR,2024-06-11_18h27.20.337,LearnStrategy,2023.2.3,Win32,59.88023952,7,2,6,,,,,,,,8,06,,,,,,,,,,,,,8,2.575,1,,,,,,0.4765625,-0.393229167,1,0,0,2.575,Pumice_rect,5,0,5,0,1,
66544eb885c9e3646bd7d2fb,SCR,2024-06-11_18h27.20.337,LearnStrategy,2023.2.3,Win32,59.88023952,7,2,7,,,,,,,,6,03,,,,,,,,,,,,,8,0.77,0,,,,,,0.4765625,-0.393229167,1,0,0,0.7703,Pumice_rect,6,0,6,0,1,
66544eb885c9e3646bd7d2fb,SCR,2024-06-11_18h27.20.337,LearnStrategy,2023.2.3,Win32,59.88023952,7,2,8,,,,,,,,2,16,,,,,,,,,,,,,4,1.466,0,,,,,,0.334635417,-0.231770833,1,0,0,1.4659,Gabbro_rect,7,0,7,0,1,
66544eb885c9e3646bd7d2fb,SCR,2024-06-11_18h27.20.337,LearnStrategy,2023.2.3,Win32,59.88023952,7,2,9,,,,,,,,1,10,,,,,,,,,,,,,8,1.622,0,,,,,,0.317708333,-0.401041667,1,0,0,1.622,Pumice_rect,8,0,8,0,1,
66544eb885c9e3646bd7d2fb,SCR,2024-06-11_18h27.20.337,LearnStrategy,2023.2.3,Win32,59.88023952,7,2,10,,,,,,,,7,14,,,,,,,,,,,,,3,1.986,0,,,,,,0.12109375,-0.24609375,1,0,0,1.9861,Diorite_rect,9,0,9,0,1,
66544eb885c9e3646bd7d2fb,SCR,2024-06-11_18h27.20.337,LearnStrategy,2023.2.3,Win32,59.88023952,7,2,11,,,,,,,,5,14,,,,,,,,,,,,,5,1.228,1,,,,,,-0.421875,-0.393229167,1,0,0,1.2276,Obsidian_rect,10,0,10,0,1,
66544eb885c9e3646bd7d2fb,SCR,2024-06-11_18h27.20.337,LearnStrategy,2023.2.3,Win32,59.88023952,7,2,12,,,,,,,,8,09,,,,,,,,,,,,,8,1.229,1,,,,,,0.30859375,-0.399739583,1,0,0,1.229,Pumice_rect,11,0,11,0,1,
66544eb885c9e3646bd7d2fb,SCR,2024-06-11_18h27.20.337,LearnStrategy,2023.2.3,Win32,59.88023952,7,2,13,,,,,,,,3,10,,,,,,,,,,,,,2,2.214,0,,,,,,-0.09375,-0.2578125,1,0,0,2.2139,Basalt_rect,12,0,12,0,1,
66544eb885c9e3646bd7d2fb,SCR,2024-06-11_18h27.20.337,LearnStrategy,2023.2.3,Win32,59.88023952,7,2,14,,,,,,,,4,10,,,,,,,,,,,,,4,1.106,1,,,,,,0.372395833,-0.243489583,1,0,0,1.1063,Gabbro_rect,13,0,13,0,1,
66544eb885c9e3646bd7d2fb,SCR,2024-06-11_18h27.20.337,LearnStrategy,2023.2.3,Win32,59.88023952,7,2,15,,,,,,,,5,02,,,,,,,,,,,,,5,1.992,1,,,,,,-0.4609375,-0.380208333,1,0,0,1.9916,Obsidian_rect,14,0,14,0,1,
66544eb885c9e3646bd7d2fb,SCR,2024-06-11_18h27.20.337,LearnStrategy,2023.2.3,Win32,59.88023952,7,2,16,,,,,,,,2,05,,,,,,,,,,,,,3,3.095,0,,,,,,0.083333333,-0.263020833,1,0,0,3.0948,Diorite_rect,15,0,15,0,1,
66544eb885c9e3646bd7d2fb,SCR,2024-06-11_18h27.20.337,LearnStrategy,2023.2.3,Win32,59.88023952,8,1,1,0.53515625,-0.37890625,1,0,0,15.3383,Pumice_14,8,14,1,8,15.338,3,06,0.444010417,-0.407552083,1,0,0,6.8909,Pumice_rect,8,6.891,1,0,0,0,0,1,,,,,,,,,,,,,
66544eb885c9e3646bd7d2fb,SCR,2024-06-11_18h27.20.337,LearnStrategy,2023.2.3,Win32,59.88023952,8,1,2,-0.059895833,-0.259114583,1,0,0,1.083,Pumice_03,8,03,2,4,1.083,6,16,0.326822917,-0.397135417,1,0,0,1.0835,Pumice_rect,8,1.083,1,1,0,1,0,1,,,,,,,,,,,,,
66544eb885c9e3646bd7d2fb,SCR,2024-06-11_18h27.20.337,LearnStrategy,2023.2.3,Win32,59.88023952,8,1,3,-0.065104167,-0.274739583,1,0,0,5.4673,Pumice_03,8,03,2,4,5.467,3,02,0.365885417,-0.408854167,1,0,0,1.314,Pumice_rect,8,1.314,1,2,0,2,0,1,,,,,,,,,,,,,
66544eb885c9e3646bd7d2fb,SCR,2024-06-11_18h27.20.337,LearnStrategy,2023.2.3,Win32,59.88023952,8,1,4,0.365885417,0.244791667,1,0,0,2.6067,Pumice_15,8,15,5,7,2.607,2,06,0.3828125,-0.388020833,1,0,0,1.2767,Pumice_rect,8,1.277,1,3,0,3,0,1,,,,,,,,,,,,,
66544eb885c9e3646bd7d2fb,SCR,2024-06-11_18h27.20.337,LearnStrategy,2023.2.3,Win32,59.88023952,8,1,5,-0.126302083,0.071614583,1,0,0,1.0803,Obsidian_12,5,12,4,4,1.08,3,15,-0.408854167,-0.41015625,1,0,0,0.8283,Obsidian_rect,5,0.828,1,4,0,4,0,1,,,,,,,,,,,,,
66544eb885c9e3646bd7d2fb,SCR,2024-06-11_18h27.20.337,LearnStrategy,2023.2.3,Win32,59.88023952,8,1,6,-0.50390625,0.134114583,1,0,0,1.1165,Obsidian_16,5,16,4,1,1.117,2,10,-0.407552083,-0.390625,1,0,0,1.3162,Obsidian_rect,5,1.316,1,5,0,5,0,1,,,,,,,,,,,,,
66544eb885c9e3646bd7d2fb,SCR,2024-06-11_18h27.20.337,LearnStrategy,2023.2.3,Win32,59.88023952,8,1,7,-0.544270833,0.291666667,1,0,0,1.3465,Obsidian_08,5,08,5,1,1.347,1,05,-0.404947917,-0.384114583,1,0,0,1.1664,Obsidian_rect,5,1.166,1,6,0,6,0,1,,,,,,,,,,,,,
66544eb885c9e3646bd7d2fb,SCR,2024-06-11_18h27.20.337,LearnStrategy,2023.2.3,Win32,59.88023952,8,1,8,-0.235677083,0.059895833,1,0,0,2.4453,Obsidian_09,5,09,4,3,2.445,7,16,-0.385416667,-0.380208333,1,0,0,0.8795,Obsidian_rect,5,0.88,1,7,0,7,0,1,,,,,,,,,,,,,
66544eb885c9e3646bd7d2fb,SCR,2024-06-11_18h27.20.337,LearnStrategy,2023.2.3,Win32,59.88023952,8,1,9,-0.09375,-0.247395833,1,0,0,2.4029,Pumice_03,8,03,2,4,2.403,2,01,-0.09375,-0.247395833,1,0,0,0.2948,Basalt_rect,2,0.295,0,8,0,8,0,1,,,,,,,,,,,,,
66544eb885c9e3646bd7d2fb,SCR,2024-06-11_18h27.20.337,LearnStrategy,2023.2.3,Win32,59.88023952,8,1,10,-0.359375,-0.265625,1,0,0,1.3783,Pumice_08,8,08,2,2,1.378,4,16,0.450520833,-0.4140625,1,0,0,1.0121,Pumice_rect,8,1.012,1,9,0,9,0,1,,,,,,,,,,,,,
66544eb885c9e3646bd7d2fb,SCR,2024-06-11_18h27.20.337,LearnStrategy,2023.2.3,Win32,59.88023952,8,1,11,-0.088541667,0.083333333,1,0,0,2.099,Obsidian_12,5,12,4,4,2.099,1,09,-0.372395833,-0.388020833,1,0,0,1.0289,Obsidian_rect,5,1.029,1,10,0,10,0,1,,,,,,,,,,,,,
66544eb885c9e3646bd7d2fb,SCR,2024-06-11_18h27.20.337,LearnStrategy,2023.2.3,Win32,59.88023952,8,1,12,0.557291667,0.248697917,1,0,0,5.0007,Gabbro_03,4,03,5,8,5.001,7,04,0.423177083,-0.248697917,1,0,0,1.3711,Gabbro_rect,4,1.371,1,11,0,11,0,1,,,,,,,,,,,,,
66544eb885c9e3646bd7d2fb,SCR,2024-06-11_18h27.20.337,LearnStrategy,2023.2.3,Win32,59.88023952,8,1,13,-0.50390625,0.255208333,1,0,0,6.1256,Obsidian_08,5,08,5,1,6.126,1,03,-0.470052083,-0.408854167,1,0,0,1.4695,Obsidian_rect,5,1.47,1,12,0,12,0,1,,,,,,,,,,,,,
66544eb885c9e3646bd7d2fb,SCR,2024-06-11_18h27.20.337,LearnStrategy,2023.2.3,Win32,59.88023952,8,1,14,-0.091145833,0.223958333,1,0,0,1.3788,Obsidian_04,5,04,5,4,1.379,8,14,-0.395833333,-0.3828125,1,0,0,1.325,Obsidian_rect,5,1.325,1,13,0,13,0,1,,,,,,,,,,,,,
66544eb885c9e3646bd7d2fb,SCR,2024-06-11_18h27.20.337,LearnStrategy,2023.2.3,Win32,59.88023952,8,1,15,-0.065104167,0.23046875,1,0,0,1.7638,Obsidian_04,5,04,5,4,1.764,4,03,-0.325520833,-0.391927083,1,0,0,1.4488,Obsidian_rect,5,1.449,1,14,0,14,0,1,,,,,,,,,,,,,
66544eb885c9e3646bd7d2fb,SCR,2024-06-11_18h27.20.337,LearnStrategy,2023.2.3,Win32,59.88023952,8,1,16,-0.084635417,0.05859375,1,0,0,1.0778,Obsidian_12,5,12,4,4,1.078,6,09,-0.411458333,-0.389322917,1,0,0,1.0039,Obsidian_rect,5,1.004,1,15,0,15,0,1,,,,,,,,,,,,,
66544eb885c9e3646bd7d2fb,SCR,2024-06-11_18h27.20.337,LearnStrategy,2023.2.3,Win32,59.88023952,8,2,1,,,,,,,,1,16,,,,,,,,,,,,,3,3.126,0,,,,,,0.072916667,-0.2421875,1,0,0,3.1257,Diorite_rect,0,0,0,0,1,
66544eb885c9e3646bd7d2fb,SCR,2024-06-11_18h27.20.337,LearnStrategy,2023.2.3,Win32,59.88023952,8,2,2,,,,,,,,5,07,,,,,,,,,,,,,5,1.345,1,,,,,,-0.486979167,-0.407552083,1,0,0,1.3454,Obsidian_rect,1,0,1,0,1,
66544eb885c9e3646bd7d2fb,SCR,2024-06-11_18h27.20.337,LearnStrategy,2023.2.3,Win32,59.88023952,8,2,3,,,,,,,,3,12,,,,,,,,,,,,,7,2.319,0,,,,,,0.0234375,-0.41015625,1,0,0,2.3186,Peridotite_rect,2,0,2,0,1,
66544eb885c9e3646bd7d2fb,SCR,2024-06-11_18h27.20.337,LearnStrategy,2023.2.3,Win32,59.88023952,8,2,4,,,,,,,,8,10,,,,,,,,,,,,,8,1.325,1,,,,,,0.342447917,-0.395833333,1,0,0,1.3248,Pumice_rect,3,0,3,0,1,
66544eb885c9e3646bd7d2fb,SCR,2024-06-11_18h27.20.337,LearnStrategy,2023.2.3,Win32,59.88023952,8,2,5,,,,,,,,6,12,,,,,,,,,,,,,2,1.32,0,,,,,,-0.135416667,-0.256510417,1,0,0,1.3196,Basalt_rect,4,0,4,0,1,
66544eb885c9e3646bd7d2fb,SCR,2024-06-11_18h27.20.337,LearnStrategy,2023.2.3,Win32,59.88023952,8,2,6,,,,,,,,4,05,,,,,,,,,,,,,1,1.785,0,,,,,,-0.39453125,-0.236979167,1,0,0,1.785,Andesite_rect,5,0,5,0,1,
66544eb885c9e3646bd7d2fb,SCR,2024-06-11_18h27.20.337,LearnStrategy,2023.2.3,Win32,59.88023952,8,2,7,,,,,,,,7,12,,,,,,,,,,,,,7,1.065,1,,,,,,0.22265625,-0.39453125,1,0,0,1.0647,Peridotite_rect,6,0,6,0,1,
66544eb885c9e3646bd7d2fb,SCR,2024-06-11_18h27.20.337,LearnStrategy,2023.2.3,Win32,59.88023952,8,2,8,,,,,,,,5,11,,,,,,,,,,,,,5,2.013,1,,,,,,-0.3203125,-0.420572917,1,0,0,2.0128,Obsidian_rect,7,0,7,0,1,
66544eb885c9e3646bd7d2fb,SCR,2024-06-11_18h27.20.337,LearnStrategy,2023.2.3,Win32,59.88023952,8,2,9,,,,,,,,4,01,,,,,,,,,,,,,4,1.765,1,,,,,,0.395833333,-0.25390625,1,0,0,1.7655,Gabbro_rect,8,0,8,0,1,
66544eb885c9e3646bd7d2fb,SCR,2024-06-11_18h27.20.337,LearnStrategy,2023.2.3,Win32,59.88023952,8,2,10,,,,,,,,8,02,,,,,,,,,,,,,8,2.001,1,,,,,,0.337239583,-0.384114583,1,0,0,2.0007,Pumice_rect,9,0,9,0,1,
66544eb885c9e3646bd7d2fb,SCR,2024-06-11_18h27.20.337,LearnStrategy,2023.2.3,Win32,59.88023952,8,2,11,,,,,,,,2,11,,,,,,,,,,,,,8,1.953,0,,,,,,0.307291667,-0.3984375,1,0,0,1.9533,Pumice_rect,10,0,10,0,1,
66544eb885c9e3646bd7d2fb,SCR,2024-06-11_18h27.20.337,LearnStrategy,2023.2.3,Win32,59.88023952,8,2,12,,,,,,,,1,11,,,,,,,,,,,,,2,1.233,0,,,,,,-0.1328125,-0.2578125,1,0,0,1.233,Basalt_rect,11,0,11,0,1,
66544eb885c9e3646bd7d2fb,SCR,2024-06-11_18h27.20.337,LearnStrategy,2023.2.3,Win32,59.88023952,8,2,13,,,,,,,,2,12,,,,,,,,,,,,,7,1.014,0,,,,,,0.182291667,-0.399739583,1,0,0,1.0138,Peridotite_rect,12,0,12,0,1,
66544eb885c9e3646bd7d2fb,SCR,2024-06-11_18h27.20.337,LearnStrategy,2023.2.3,Win32,59.88023952,8,2,14,,,,,,,,7,13,,,,,,,,,,,,,1,1.576,0,,,,,,-0.404947917,-0.234375,1,0,0,1.5761,Andesite_rect,13,0,13,0,1,
66544eb885c9e3646bd7d2fb,SCR,2024-06-11_18h27.20.337,LearnStrategy,2023.2.3,Win32,59.88023952,8,2,15,,,,,,,,3,08,,,,,,,,,,,,,4,1.161,0,,,,,,0.388020833,-0.2578125,1,0,0,1.1608,Gabbro_rect,14,0,14,0,1,
66544eb885c9e3646bd7d2fb,SCR,2024-06-11_18h27.20.337,LearnStrategy,2023.2.3,Win32,59.88023952,8,2,16,,,,,,,,6,07,,,,,,,,,,,,,6,1.754,1,,,,,,-0.0546875,-0.391927083,1,0,0,1.7535,Pegmatite_rect,15,0,15,0,1,
66544eb885c9e3646bd7d2fb,SCR,2024-06-11_18h27.20.337,LearnStrategy,2023.2.3,Win32,59.88023952,9,1,1,-0.092447917,0.0859375,1,0,0,0.8794,Obsidian_12,5,12,4,4,0.879,2,10,-0.423177083,-0.395833333,1,0,0,0.9932,Obsidian_rect,5,0.993,1,0,0,0,0,1,,,,,,,,,,,,,
66544eb885c9e3646bd7d2fb,SCR,2024-06-11_18h27.20.337,LearnStrategy,2023.2.3,Win32,59.88023952,9,1,2,-0.533854167,0.075520833,1,0,0,1.0959,Obsidian_16,5,16,4,1,1.096,6,15,-0.375,-0.407552083,1,0,0,1.5409,Obsidian_rect,5,1.541,1,1,0,1,0,1,,,,,,,,,,,,,
66544eb885c9e3646bd7d2fb,SCR,2024-06-11_18h27.20.337,LearnStrategy,2023.2.3,Win32,59.88023952,9,1,3,-0.51953125,0.403645833,1,0,0,1.1647,Andesite_09,1,09,6,1,1.165,1,06,-0.423177083,-0.393229167,1,0,0,2.1488,Obsidian_rect,5,2.149,0,2,0,2,0,1,,,,,,,,,,,,,
66544eb885c9e3646bd7d2fb,SCR,2024-06-11_18h27.20.337,LearnStrategy,2023.2.3,Win32,59.88023952,9,1,4,0.571614583,0.282552083,1,0,0,1.6027,Gabbro_03,4,03,5,8,1.603,7,04,0.388020833,-0.252604167,1,0,0,1.7619,Gabbro_rect,4,1.762,1,3,0,3,0,1,,,,,,,,,,,,,
66544eb885c9e3646bd7d2fb,SCR,2024-06-11_18h27.20.337,LearnStrategy,2023.2.3,Win32,59.88023952,9,1,5,0.520833333,-0.114583333,1,0,0,1.2165,Pumice_13,8,13,3,8,1.216,1,05,0.360677083,-0.389322917,1,0,0,1.3804,Pumice_rect,8,1.38,1,4,0,4,0,1,,,,,,,,,,,,,
66544eb885c9e3646bd7d2fb,SCR,2024-06-11_18h27.20.337,LearnStrategy,2023.2.3,Win32,59.88023952,9,1,6,0.549479167,-0.4375,1,0,0,1.1517,Pumice_14,8,14,1,8,1.152,3,11,0.412760417,-0.391927083,1,0,0,2.3453,Pumice_rect,8,2.345,1,5,0,5,0,1,,,,,,,,,,,,,
66544eb885c9e3646bd7d2fb,SCR,2024-06-11_18h27.20.337,LearnStrategy,2023.2.3,Win32,59.88023952,9,1,7,-0.08984375,-0.248697917,1,0,0,1.617,Pumice_03,8,03,2,4,1.617,1,04,0.43359375,-0.404947917,1,0,0,1.2321,Pumice_rect,8,1.232,1,6,0,6,0,1,,,,,,,,,,,,,
66544eb885c9e3646bd7d2fb,SCR,2024-06-11_18h27.20.337,LearnStrategy,2023.2.3,Win32,59.88023952,9,1,8,-0.372395833,-0.244791667,1,0,0,2.1986,Pumice_08,8,08,2,2,2.199,4,08,0.3984375,-0.403645833,1,0,0,1.2023,Pumice_rect,8,1.202,1,7,0,7,0,1,,,,,,,,,,,,,
66544eb885c9e3646bd7d2fb,SCR,2024-06-11_18h27.20.337,LearnStrategy,2023.2.3,Win32,59.88023952,9,1,9,0.104166667,-0.06640625,1,0,0,1.4151,Diorite_02,3,02,3,5,1.415,2,14,0.12890625,-0.23828125,1,0,0,1.1931,Diorite_rect,3,1.193,1,8,0,8,0,1,,,,,,,,,,,,,
66544eb885c9e3646bd7d2fb,SCR,2024-06-11_18h27.20.337,LearnStrategy,2023.2.3,Win32,59.88023952,9,1,10,-0.028645833,0.279947917,1,0,0,1.6497,Obsidian_04,5,04,5,4,1.65,8,14,-0.411458333,-0.41015625,1,0,0,1.4614,Obsidian_rect,5,1.461,1,9,0,9,0,1,,,,,,,,,,,,,
66544eb885c9e3646bd7d2fb,SCR,2024-06-11_18h27.20.337,LearnStrategy,2023.2.3,Win32,59.88023952,9,1,11,-0.50390625,0.412760417,1,0,0,1.6291,Andesite_09,1,09,6,1,1.629,6,05,-0.4375,-0.252604167,1,0,0,1.5734,Andesite_rect,1,1.573,1,10,0,10,0,1,,,,,,,,,,,,,
66544eb885c9e3646bd7d2fb,SCR,2024-06-11_18h27.20.337,LearnStrategy,2023.2.3,Win32,59.88023952,9,1,12,-0.130208333,-0.419270833,1,0,0,2.8954,Diorite_11,3,11,1,4,2.895,4,03,0.139322917,-0.264322917,1,0,0,1.5184,Diorite_rect,3,1.518,1,11,0,11,0,1,,,,,,,,,,,,,
66544eb885c9e3646bd7d2fb,SCR,2024-06-11_18h27.20.337,LearnStrategy,2023.2.3,Win32,59.88023952,9,1,13,-0.057291667,-0.06640625,1,0,0,1.1588,Gabbro_15,4,15,3,4,1.159,3,06,0.088541667,-0.251302083,1,0,0,1.4034,Diorite_rect,3,1.403,0,12,0,12,0,1,,,,,,,,,,,,,
66544eb885c9e3646bd7d2fb,SCR,2024-06-11_18h27.20.337,LearnStrategy,2023.2.3,Win32,59.88023952,9,1,14,-0.048177083,-0.106770833,1,0,0,1.2916,Gabbro_15,4,15,3,4,1.292,2,06,0.393229167,-0.234375,1,0,0,1.3059,Gabbro_rect,4,1.306,1,13,0,13,0,1,,,,,,,,,,,,,
66544eb885c9e3646bd7d2fb,SCR,2024-06-11_18h27.20.337,LearnStrategy,2023.2.3,Win32,59.88023952,9,1,15,0.063802083,0.067708333,1,0,0,1.2122,Pumice_05,8,05,4,5,1.212,7,16,0.372395833,-0.4140625,1,0,0,1.0118,Pumice_rect,8,1.012,1,14,0,14,0,1,,,,,,,,,,,,,
66544eb885c9e3646bd7d2fb,SCR,2024-06-11_18h27.20.337,LearnStrategy,2023.2.3,Win32,59.88023952,9,1,16,0.3515625,0.256510417,1,0,0,1.6502,Pumice_15,8,15,5,7,1.65,3,15,0.415364583,-0.407552083,1,0,0,1.5314,Pumice_rect,8,1.531,1,15,0,15,0,1,,,,,,,,,,,,,
66544eb885c9e3646bd7d2fb,SCR,2024-06-11_18h27.20.337,LearnStrategy,2023.2.3,Win32,59.88023952,9,2,1,,,,,,,,6,13,,,,,,,,,,,,,2,2.389,0,,,,,,-0.0546875,-0.23828125,1,0,0,2.3888,Basalt_rect,0,0,0,0,1,
66544eb885c9e3646bd7d2fb,SCR,2024-06-11_18h27.20.337,LearnStrategy,2023.2.3,Win32,59.88023952,9,2,2,,,,,,,,8,16,,,,,,,,,,,,,8,1.508,1,,,,,,0.40625,-0.404947917,1,0,0,1.508,Pumice_rect,1,0,1,0,1,
66544eb885c9e3646bd7d2fb,SCR,2024-06-11_18h27.20.337,LearnStrategy,2023.2.3,Win32,59.88023952,9,2,3,,,,,,,,5,06,,,,,,,,,,,,,5,1.514,1,,,,,,-0.3984375,-0.389322917,1,0,0,1.5143,Obsidian_rect,2,0,2,0,1,
66544eb885c9e3646bd7d2fb,SCR,2024-06-11_18h27.20.337,LearnStrategy,2023.2.3,Win32,59.88023952,9,2,4,,,,,,,,6,11,,,,,,,,,,,,,3,0.977,0,,,,,,0.16015625,-0.252604167,1,0,0,0.9767,Diorite_rect,3,0,3,0,1,
66544eb885c9e3646bd7d2fb,SCR,2024-06-11_18h27.20.337,LearnStrategy,2023.2.3,Win32,59.88023952,9,2,5,,,,,,,,3,13,,,,,,,,,,,,,4,1.143,0,,,,,,0.41796875,-0.252604167,1,0,0,1.1435,Gabbro_rect,4,0,4,0,1,
66544eb885c9e3646bd7d2fb,SCR,2024-06-11_18h27.20.337,LearnStrategy,2023.2.3,Win32,59.88023952,9,2,6,,,,,,,,7,15,,,,,,,,,,,,,6,1.897,0,,,,,,-0.07421875,-0.412760417,1,0,0,1.8974,Pegmatite_rect,5,0,5,0,1,
66544eb885c9e3646bd7d2fb,SCR,2024-06-11_18h27.20.337,LearnStrategy,2023.2.3,Win32,59.88023952,9,2,7,,,,,,,,1,01,,,,,,,,,,,,,7,1.146,0,,,,,,0.0859375,-0.412760417,1,0,0,1.1465,Peridotite_rect,6,0,6,0,1,
66544eb885c9e3646bd7d2fb,SCR,2024-06-11_18h27.20.337,LearnStrategy,2023.2.3,Win32,59.88023952,9,2,8,,,,,,,,8,04,,,,,,,,,,,,,8,1.09,1,,,,,,0.326822917,-0.415364583,1,0,0,1.0902,Pumice_rect,7,0,7,0,1,
66544eb885c9e3646bd7d2fb,SCR,2024-06-11_18h27.20.337,LearnStrategy,2023.2.3,Win32,59.88023952,9,2,9,,,,,,,,1,14,,,,,,,,,,,,,7,1.393,0,,,,,,0.18359375,-0.407552083,1,0,0,1.3932,Peridotite_rect,8,0,8,0,1,
66544eb885c9e3646bd7d2fb,SCR,2024-06-11_18h27.20.337,LearnStrategy,2023.2.3,Win32,59.88023952,9,2,10,,,,,,,,3,14,,,,,,,,,,,,,3,1.289,1,,,,,,0.188802083,-0.263020833,1,0,0,1.2892,Diorite_rect,9,0,9,0,1,
66544eb885c9e3646bd7d2fb,SCR,2024-06-11_18h27.20.337,LearnStrategy,2023.2.3,Win32,59.88023952,9,2,11,,,,,,,,5,10,,,,,,,,,,,,,5,1.395,1,,,,,,-0.372395833,-0.40234375,1,0,0,1.3952,Obsidian_rect,10,0,10,0,1,
66544eb885c9e3646bd7d2fb,SCR,2024-06-11_18h27.20.337,LearnStrategy,2023.2.3,Win32,59.88023952,9,2,12,,,,,,,,4,14,,,,,,,,,,,,,4,1.303,1,,,,,,0.368489583,-0.259114583,1,0,0,1.3035,Gabbro_rect,11,0,11,0,1,
66544eb885c9e3646bd7d2fb,SCR,2024-06-11_18h27.20.337,LearnStrategy,2023.2.3,Win32,59.88023952,9,2,13,,,,,,,,2,08,,,,,,,,,,,,,4,1.31,0,,,,,,0.341145833,-0.2421875,1,0,0,1.3097,Gabbro_rect,12,0,12,0,1,
66544eb885c9e3646bd7d2fb,SCR,2024-06-11_18h27.20.337,LearnStrategy,2023.2.3,Win32,59.88023952,9,2,14,,,,,,,,2,02,,,,,,,,,,,,,7,1.176,0,,,,,,0.12109375,-0.41015625,1,0,0,1.1763,Peridotite_rect,13,0,13,0,1,
66544eb885c9e3646bd7d2fb,SCR,2024-06-11_18h27.20.337,LearnStrategy,2023.2.3,Win32,59.88023952,9,2,15,,,,,,,,7,08,,,,,,,,,,,,,2,1.356,0,,,,,,-0.048177083,-0.25,1,0,0,1.3559,Basalt_rect,14,0,14,0,1,
66544eb885c9e3646bd7d2fb,SCR,2024-06-11_18h27.20.337,LearnStrategy,2023.2.3,Win32,59.88023952,9,2,16,,,,,,,,4,13,,,,,,,,,,,,,1,1.676,0,,,,,,-0.369791667,-0.252604167,1,0,0,1.6758,Andesite_rect,15,0,15,0,1,
66544eb885c9e3646bd7d2fb,SCR,2024-06-11_18h27.20.337,LearnStrategy,2023.2.3,Win32,59.88023952,,,,,,,,,,,,,,,,,,,,,,,,,,,,,,,,,,,,,,,,,,,,,0
66544eb885c9e3646bd7d2fb,SCR,2024-06-11_18h27.20.337,LearnStrategy,2023.2.3,Win32,59.88023952,,,,,,,,,,,,,,,,,,,,,,,,,,,,,,,,,,,,,,,,,,,,,
66544eb885c9e3646bd7d2fb,SCR,2024-06-11_18h27.20.337,LearnStrategy,2023.2.3,Win32,59.88023952,,,,,,,,,,,3,15,1,1,,,,,,,,,,,,,,,,,,,,,,,,,,,,,,,
66544eb885c9e3646bd7d2fb,SCR,2024-06-11_18h27.20.337,LearnStrategy,2023.2.3,Win32,59.88023952,,,,,,,,,,,4,16,1,2,,,,,,,,,,,,,,,,,,,,,,,,,,,,,,,
66544eb885c9e3646bd7d2fb,SCR,2024-06-11_18h27.20.337,LearnStrategy,2023.2.3,Win32,59.88023952,,,,,,,,,,,1,03,1,3,,,,,,,,,,,,,,,,,,,,,,,,,,,,,,,
66544eb885c9e3646bd7d2fb,SCR,2024-06-11_18h27.20.337,LearnStrategy,2023.2.3,Win32,59.88023952,,,,,,,,,,,3,11,1,4,,,,,,,,,,,,,,,,,,,,,,,,,,,,,,,
66544eb885c9e3646bd7d2fb,SCR,2024-06-11_18h27.20.337,LearnStrategy,2023.2.3,Win32,59.88023952,,,,,,,,,,,2,01,1,5,,,,,,,,,,,,,,,,,,,,,,,,,,,,,,,
66544eb885c9e3646bd7d2fb,SCR,2024-06-11_18h27.20.337,LearnStrategy,2023.2.3,Win32,59.88023952,,,,,,,,,,,7,04,1,6,,,,,,,,,,,,,,,,,,,,,,,,,,,,,,,
66544eb885c9e3646bd7d2fb,SCR,2024-06-11_18h27.20.337,LearnStrategy,2023.2.3,Win32,59.88023952,,,,,,,,,,,7,10,1,7,,,,,,,,,,,,,,,,,,,,,,,,,,,,,,,
66544eb885c9e3646bd7d2fb,SCR,2024-06-11_18h27.20.337,LearnStrategy,2023.2.3,Win32,59.88023952,,,,,,,,,,,8,14,1,8,,,,,,,,,,,,,,,,,,,,,,,,,,,,,,,
66544eb885c9e3646bd7d2fb,SCR,2024-06-11_18h27.20.337,LearnStrategy,2023.2.3,Win32,59.88023952,,,,,,,,,,,2,06,2,1,,,,,,,,,,,,,,,,,,,,,,,,,,,,,,,
66544eb885c9e3646bd7d2fb,SCR,2024-06-11_18h27.20.337,LearnStrategy,2023.2.3,Win32,59.88023952,,,,,,,,,,,8,08,2,2,,,,,,,,,,,,,,,,,,,,,,,,,,,,,,,
66544eb885c9e3646bd7d2fb,SCR,2024-06-11_18h27.20.337,LearnStrategy,2023.2.3,Win32,59.88023952,,,,,,,,,,,1,06,2,3,,,,,,,,,,,,,,,,,,,,,,,,,,,,,,,
66544eb885c9e3646bd7d2fb,SCR,2024-06-11_18h27.20.337,LearnStrategy,2023.2.3,Win32,59.88023952,,,,,,,,,,,8,03,2,4,,,,,,,,,,,,,,,,,,,,,,,,,,,,,,,
66544eb885c9e3646bd7d2fb,SCR,2024-06-11_18h27.20.337,LearnStrategy,2023.2.3,Win32,59.88023952,,,,,,,,,,,4,11,2,5,,,,,,,,,,,,,,,,,,,,,,,,,,,,,,,
66544eb885c9e3646bd7d2fb,SCR,2024-06-11_18h27.20.337,LearnStrategy,2023.2.3,Win32,59.88023952,,,,,,,,,,,3,06,2,6,,,,,,,,,,,,,,,,,,,,,,,,,,,,,,,
66544eb885c9e3646bd7d2fb,SCR,2024-06-11_18h27.20.337,LearnStrategy,2023.2.3,Win32,59.88023952,,,,,,,,,,,5,05,2,7,,,,,,,,,,,,,,,,,,,,,,,,,,,,,,,
66544eb885c9e3646bd7d2fb,SCR,2024-06-11_18h27.20.337,LearnStrategy,2023.2.3,Win32,59.88023952,,,,,,,,,,,4,09,2,8,,,,,,,,,,,,,,,,,,,,,,,,,,,,,,,
66544eb885c9e3646bd7d2fb,SCR,2024-06-11_18h27.20.337,LearnStrategy,2023.2.3,Win32,59.88023952,,,,,,,,,,,7,16,3,1,,,,,,,,,,,,,,,,,,,,,,,,,,,,,,,
66544eb885c9e3646bd7d2fb,SCR,2024-06-11_18h27.20.337,LearnStrategy,2023.2.3,Win32,59.88023952,,,,,,,,,,,1,07,3,2,,,,,,,,,,,,,,,,,,,,,,,,,,,,,,,
66544eb885c9e3646bd7d2fb,SCR,2024-06-11_18h27.20.337,LearnStrategy,2023.2.3,Win32,59.88023952,,,,,,,,,,,6,05,3,3,,,,,,,,,,,,,,,,,,,,,,,,,,,,,,,
66544eb885c9e3646bd7d2fb,SCR,2024-06-11_18h27.20.337,LearnStrategy,2023.2.3,Win32,59.88023952,,,,,,,,,,,4,15,3,4,,,,,,,,,,,,,,,,,,,,,,,,,,,,,,,
66544eb885c9e3646bd7d2fb,SCR,2024-06-11_18h27.20.337,LearnStrategy,2023.2.3,Win32,59.88023952,,,,,,,,,,,3,02,3,5,,,,,,,,,,,,,,,,,,,,,,,,,,,,,,,
66544eb885c9e3646bd7d2fb,SCR,2024-06-11_18h27.20.337,LearnStrategy,2023.2.3,Win32,59.88023952,,,,,,,,,,,6,09,3,6,,,,,,,,,,,,,,,,,,,,,,,,,,,,,,,
66544eb885c9e3646bd7d2fb,SCR,2024-06-11_18h27.20.337,LearnStrategy,2023.2.3,Win32,59.88023952,,,,,,,,,,,6,06,3,7,,,,,,,,,,,,,,,,,,,,,,,,,,,,,,,
66544eb885c9e3646bd7d2fb,SCR,2024-06-11_18h27.20.337,LearnStrategy,2023.2.3,Win32,59.88023952,,,,,,,,,,,8,13,3,8,,,,,,,,,,,,,,,,,,,,,,,,,,,,,,,
66544eb885c9e3646bd7d2fb,SCR,2024-06-11_18h27.20.337,LearnStrategy,2023.2.3,Win32,59.88023952,,,,,,,,,,,5,16,4,1,,,,,,,,,,,,,,,,,,,,,,,,,,,,,,,
66544eb885c9e3646bd7d2fb,SCR,2024-06-11_18h27.20.337,LearnStrategy,2023.2.3,Win32,59.88023952,,,,,,,,,,,6,15,4,2,,,,,,,,,,,,,,,,,,,,,,,,,,,,,,,
66544eb885c9e3646bd7d2fb,SCR,2024-06-11_18h27.20.337,LearnStrategy,2023.2.3,Win32,59.88023952,,,,,,,,,,,5,09,4,3,,,,,,,,,,,,,,,,,,,,,,,,,,,,,,,
66544eb885c9e3646bd7d2fb,SCR,2024-06-11_18h27.20.337,LearnStrategy,2023.2.3,Win32,59.88023952,,,,,,,,,,,5,12,4,4,,,,,,,,,,,,,,,,,,,,,,,,,,,,,,,
66544eb885c9e3646bd7d2fb,SCR,2024-06-11_18h27.20.337,LearnStrategy,2023.2.3,Win32,59.88023952,,,,,,,,,,,8,05,4,5,,,,,,,,,,,,,,,,,,,,,,,,,,,,,,,
66544eb885c9e3646bd7d2fb,SCR,2024-06-11_18h27.20.337,LearnStrategy,2023.2.3,Win32,59.88023952,,,,,,,,,,,2,10,4,6,,,,,,,,,,,,,,,,,,,,,,,,,,,,,,,
66544eb885c9e3646bd7d2fb,SCR,2024-06-11_18h27.20.337,LearnStrategy,2023.2.3,Win32,59.88023952,,,,,,,,,,,6,08,4,7,,,,,,,,,,,,,,,,,,,,,,,,,,,,,,,
66544eb885c9e3646bd7d2fb,SCR,2024-06-11_18h27.20.337,LearnStrategy,2023.2.3,Win32,59.88023952,,,,,,,,,,,2,14,4,8,,,,,,,,,,,,,,,,,,,,,,,,,,,,,,,
66544eb885c9e3646bd7d2fb,SCR,2024-06-11_18h27.20.337,LearnStrategy,2023.2.3,Win32,59.88023952,,,,,,,,,,,5,08,5,1,,,,,,,,,,,,,,,,,,,,,,,,,,,,,,,
66544eb885c9e3646bd7d2fb,SCR,2024-06-11_18h27.20.337,LearnStrategy,2023.2.3,Win32,59.88023952,,,,,,,,,,,1,04,5,2,,,,,,,,,,,,,,,,,,,,,,,,,,,,,,,
66544eb885c9e3646bd7d2fb,SCR,2024-06-11_18h27.20.337,LearnStrategy,2023.2.3,Win32,59.88023952,,,,,,,,,,,7,02,5,3,,,,,,,,,,,,,,,,,,,,,,,,,,,,,,,
66544eb885c9e3646bd7d2fb,SCR,2024-06-11_18h27.20.337,LearnStrategy,2023.2.3,Win32,59.88023952,,,,,,,,,,,5,04,5,4,,,,,,,,,,,,,,,,,,,,,,,,,,,,,,,
66544eb885c9e3646bd7d2fb,SCR,2024-06-11_18h27.20.337,LearnStrategy,2023.2.3,Win32,59.88023952,,,,,,,,,,,2,04,5,5,,,,,,,,,,,,,,,,,,,,,,,,,,,,,,,
66544eb885c9e3646bd7d2fb,SCR,2024-06-11_18h27.20.337,LearnStrategy,2023.2.3,Win32,59.88023952,,,,,,,,,,,6,16,5,6,,,,,,,,,,,,,,,,,,,,,,,,,,,,,,,
66544eb885c9e3646bd7d2fb,SCR,2024-06-11_18h27.20.337,LearnStrategy,2023.2.3,Win32,59.88023952,,,,,,,,,,,8,15,5,7,,,,,,,,,,,,,,,,,,,,,,,,,,,,,,,
66544eb885c9e3646bd7d2fb,SCR,2024-06-11_18h27.20.337,LearnStrategy,2023.2.3,Win32,59.88023952,,,,,,,,,,,4,03,5,8,,,,,,,,,,,,,,,,,,,,,,,,,,,,,,,
66544eb885c9e3646bd7d2fb,SCR,2024-06-11_18h27.20.337,LearnStrategy,2023.2.3,Win32,59.88023952,,,,,,,,,,,1,09,6,1,,,,,,,,,,,,,,,,,,,,,,,,,,,,,,,
66544eb885c9e3646bd7d2fb,SCR,2024-06-11_18h27.20.337,LearnStrategy,2023.2.3,Win32,59.88023952,,,,,,,,,,,7,05,6,2,,,,,,,,,,,,,,,,,,,,,,,,,,,,,,,
66544eb885c9e3646bd7d2fb,SCR,2024-06-11_18h27.20.337,LearnStrategy,2023.2.3,Win32,59.88023952,,,,,,,,,,,3,16,6,3,,,,,,,,,,,,,,,,,,,,,,,,,,,,,,,
66544eb885c9e3646bd7d2fb,SCR,2024-06-11_18h27.20.337,LearnStrategy,2023.2.3,Win32,59.88023952,,,,,,,,,,,7,07,6,4,,,,,,,,,,,,,,,,,,,,,,,,,,,,,,,
66544eb885c9e3646bd7d2fb,SCR,2024-06-11_18h27.20.337,LearnStrategy,2023.2.3,Win32,59.88023952,,,,,,,,,,,1,05,6,5,,,,,,,,,,,,,,,,,,,,,,,,,,,,,,,
66544eb885c9e3646bd7d2fb,SCR,2024-06-11_18h27.20.337,LearnStrategy,2023.2.3,Win32,59.88023952,,,,,,,,,,,4,08,6,6,,,,,,,,,,,,,,,,,,,,,,,,,,,,,,,
66544eb885c9e3646bd7d2fb,SCR,2024-06-11_18h27.20.337,LearnStrategy,2023.2.3,Win32,59.88023952,,,,,,,,,,,2,09,6,7,,,,,,,,,,,,,,,,,,,,,,,,,,,,,,,
66544eb885c9e3646bd7d2fb,SCR,2024-06-11_18h27.20.337,LearnStrategy,2023.2.3,Win32,59.88023952,,,,,,,,,,,3,07,6,8,,,,,,,,,,,,,,,,,,,,,,,,,,,,,,,