participant,condition,date,expName,psychopyVersion,OS,frameRate,block,phase,trial,learn_mouse_2.x,learn_mouse_2.y,learn_mouse_2.leftButton,learn_mouse_2.midButton,learn_mouse_2.rightButton,learn_mouse_2.time,learn_mouse_2.clicked_name,cat,token,row,col,t_select,cat_mouse_l.x,cat_mouse_l.y,cat_mouse_l.leftButton,cat_mouse_l.midButton,cat_mouse_l.rightButton,cat_mouse_l.time,cat_mouse_l.clicked_name,resp,t_resp,corr,train_trials.thisRepN,train_trials.thisTrialN,train_trials.thisN,train_trials.thisIndex,train_trials.ran,cat_mouse_t.x,cat_mouse_t.y,cat_mouse_t.leftButton,cat_mouse_t.midButton,cat_mouse_t.rightButton,cat_mouse_t.time,cat_mouse_t.clicked_name,test_trials.thisRepN,test_trials.thisTrialN,test_trials.thisN,test_trials.thisIndex,test_trials.ran,Bonus
665696a90e34e3e67cfcfdc0,TCN,2024-06-24_17h32.52.085,LearnStrategy,2023.2.3,Win32,59.88023952,,,,,,,,,,,,,,,,,,,,,,,,,,,,,,,,,,,,,,,,,,,
665696a90e34e3e67cfcfdc0,TCN,2024-06-24_17h32.52.085,LearnStrategy,2023.2.3,Win32,59.88023952,1,1,1,0.008333333,-0.006481481,1,0,0,2.7048,rock_grid_rect_2,3,11,-1,-1,2.705,-0.37037037,-0.258333333,1,0,0,12.0689,Andesite_rect,1,12.069,0,0,0,0,0,1,,,,,,,,,,,,,
665696a90e34e3e67cfcfdc0,TCN,2024-06-24_17h32.52.085,LearnStrategy,2023.2.3,Win32,59.88023952,1,1,2,-0.012962963,-0.006481481,1,0,0,2.2089,rock_grid_rect_2,7,12,-1,-1,2.209,-0.114814815,-0.403703704,1,0,0,9.5964,Pegmatite_rect,6,9.596,0,1,0,1,0,1,,,,,,,,,,,,,
665696a90e34e3e67cfcfdc0,TCN,2024-06-24_17h32.52.085,LearnStrategy,2023.2.3,Win32,59.88023952,1,1,3,-0.000925926,-0.00462963,1,0,0,2.9073,rock_grid_rect_2,3,08,-1,-1,2.907,-0.132407407,-0.25462963,1,0,0,9.7294,Basalt_rect,2,9.729,0,2,0,2,0,1,,,,,,,,,,,,,
665696a90e34e3e67cfcfdc0,TCN,2024-06-24_17h32.52.085,LearnStrategy,2023.2.3,Win32,59.88023952,1,1,4,-0.017592593,0.002777778,1,0,0,1.7593,rock_grid_rect_2,7,13,-1,-1,1.759,0.442592593,-0.262962963,1,0,0,8.6123,Gabbro_rect,4,8.612,0,3,0,3,0,1,,,,,,,,,,,,,
665696a90e34e3e67cfcfdc0,TCN,2024-06-24_17h32.52.085,LearnStrategy,2023.2.3,Win32,59.88023952,1,1,5,0.00462963,0.002777778,1,0,0,1.9262,rock_grid_rect_2,5,09,-1,-1,1.926,-0.381481481,-0.388888889,1,0,0,3.6954,Obsidian_rect,5,3.695,1,4,0,4,0,1,,,,,,,,,,,,,
665696a90e34e3e67cfcfdc0,TCN,2024-06-24_17h32.52.085,LearnStrategy,2023.2.3,Win32,59.88023952,1,1,6,0.014814815,0.002777778,1,0,0,1.3424,rock_grid_rect_2,1,02,-1,-1,1.342,-0.106481481,-0.271296296,1,0,0,7.7286,Basalt_rect,2,7.729,0,5,0,5,0,1,,,,,,,,,,,,,
665696a90e34e3e67cfcfdc0,TCN,2024-06-24_17h32.52.085,LearnStrategy,2023.2.3,Win32,59.88023952,1,1,7,-0.013888889,0,1,0,0,1.9761,rock_grid_rect_2,2,02,-1,-1,1.976,-0.106481481,-0.268518519,1,0,0,5.3955,Basalt_rect,2,5.395,1,6,0,6,0,1,,,,,,,,,,,,,
665696a90e34e3e67cfcfdc0,TCN,2024-06-24_17h32.52.085,LearnStrategy,2023.2.3,Win32,59.88023952,1,1,8,0.003703704,-0.011111111,1,0,0,1.2924,rock_grid_rect_2,4,12,-1,-1,1.292,0.099074074,-0.412037037,1,0,0,6.4281,Peridotite_rect,7,6.428,0,7,0,7,0,1,,,,,,,,,,,,,
665696a90e34e3e67cfcfdc0,TCN,2024-06-24_17h32.52.085,LearnStrategy,2023.2.3,Win32,59.88023952,1,1,9,-0.002777778,-0.006481481,1,0,0,1.5759,rock_grid_rect_2,6,16,-1,-1,1.576,-0.125,-0.418518519,1,0,0,8.7957,Pegmatite_rect,6,8.796,1,8,0,8,0,1,,,,,,,,,,,,,
665696a90e34e3e67cfcfdc0,TCN,2024-06-24_17h32.52.085,LearnStrategy,2023.2.3,Win32,59.88023952,1,1,10,-0.028703704,-0.008333333,1,0,0,1.2081,rock_grid_rect_2,6,12,-1,-1,1.208,0.412037037,-0.408333333,1,0,0,19.7129,Pumice_rect,8,19.713,0,9,0,9,0,1,,,,,,,,,,,,,
665696a90e34e3e67cfcfdc0,TCN,2024-06-24_17h32.52.085,LearnStrategy,2023.2.3,Win32,59.88023952,1,1,11,0.000925926,-0.000925926,1,0,0,1.3925,rock_grid_rect_2,1,07,-1,-1,1.392,-0.362037037,-0.263888889,1,0,0,6.2294,Andesite_rect,1,6.229,1,10,0,10,0,1,,,,,,,,,,,,,
665696a90e34e3e67cfcfdc0,TCN,2024-06-24_17h32.52.085,LearnStrategy,2023.2.3,Win32,59.88023952,1,1,12,0.013888889,0.00462963,1,0,0,1.3312,rock_grid_rect_2,8,15,-1,-1,1.331,0.427777778,-0.401851852,1,0,0,6.7952,Pumice_rect,8,6.795,1,11,0,11,0,1,,,,,,,,,,,,,
665696a90e34e3e67cfcfdc0,TCN,2024-06-24_17h32.52.085,LearnStrategy,2023.2.3,Win32,59.88023952,1,1,13,0.016666667,-0.013888889,1,0,0,1.1642,rock_grid_rect_2,8,10,-1,-1,1.164,0.373148148,-0.412962963,1,0,0,4.2624,Pumice_rect,8,4.262,1,12,0,12,0,1,,,,,,,,,,,,,
665696a90e34e3e67cfcfdc0,TCN,2024-06-24_17h32.52.085,LearnStrategy,2023.2.3,Win32,59.88023952,1,1,14,0.025,0.00462963,1,0,0,1.0645,rock_grid_rect_2,5,02,-1,-1,1.065,-0.362037037,-0.399074074,1,0,0,1.8608,Obsidian_rect,5,1.861,1,13,0,13,0,1,,,,,,,,,,,,,
665696a90e34e3e67cfcfdc0,TCN,2024-06-24_17h32.52.085,LearnStrategy,2023.2.3,Win32,59.88023952,1,1,15,0.042592593,0.00462963,1,0,0,1.1811,rock_grid_rect_2,2,11,-1,-1,1.181,-0.09537037,-0.250925926,1,0,0,2.7295,Basalt_rect,2,2.73,1,14,0,14,0,1,,,,,,,,,,,,,
665696a90e34e3e67cfcfdc0,TCN,2024-06-24_17h32.52.085,LearnStrategy,2023.2.3,Win32,59.88023952,1,1,16,0.055555556,-0.012037037,1,0,0,1.2985,rock_grid_rect_2,4,01,-1,-1,1.299,0.111111111,-0.421296296,1,0,0,3.3446,Peridotite_rect,7,3.345,0,15,0,15,0,1,,,,,,,,,,,,,
665696a90e34e3e67cfcfdc0,TCN,2024-06-24_17h32.52.085,LearnStrategy,2023.2.3,Win32,59.88023952,1,2,1,,,,,,,,7,02,,,,,,,,,,,6,5.21,0,,,,,,-0.132407407,-0.406481481,1,0,0,5.2101,Pegmatite_rect,0,0,0,0,1,
665696a90e34e3e67cfcfdc0,TCN,2024-06-24_17h32.52.085,LearnStrategy,2023.2.3,Win32,59.88023952,1,2,2,,,,,,,,8,06,,,,,,,,,,,8,2.66,1,,,,,,0.387962963,-0.393518519,1,0,0,2.6604,Pumice_rect,1,0,1,0,1,
665696a90e34e3e67cfcfdc0,TCN,2024-06-24_17h32.52.085,LearnStrategy,2023.2.3,Win32,59.88023952,1,2,3,,,,,,,,1,14,,,,,,,,,,,3,8.562,0,,,,,,0.080555556,-0.259259259,1,0,0,8.5621,Diorite_rect,2,0,2,0,1,
665696a90e34e3e67cfcfdc0,TCN,2024-06-24_17h32.52.085,LearnStrategy,2023.2.3,Win32,59.88023952,1,2,4,,,,,,,,4,09,,,,,,,,,,,5,6.062,0,,,,,,-0.360185185,-0.42037037,1,0,0,6.0624,Obsidian_rect,3,0,3,0,1,
665696a90e34e3e67cfcfdc0,TCN,2024-06-24_17h32.52.085,LearnStrategy,2023.2.3,Win32,59.88023952,1,2,5,,,,,,,,3,06,,,,,,,,,,,1,4.211,0,,,,,,-0.378703704,-0.250925926,1,0,0,4.2108,Andesite_rect,4,0,4,0,1,
665696a90e34e3e67cfcfdc0,TCN,2024-06-24_17h32.52.085,LearnStrategy,2023.2.3,Win32,59.88023952,1,2,6,,,,,,,,1,11,,,,,,,,,,,4,5.492,0,,,,,,0.346296296,-0.269444444,1,0,0,5.4921,Gabbro_rect,5,0,5,0,1,
665696a90e34e3e67cfcfdc0,TCN,2024-06-24_17h32.52.085,LearnStrategy,2023.2.3,Win32,59.88023952,1,2,7,,,,,,,,5,07,,,,,,,,,,,5,1.976,1,,,,,,-0.398148148,-0.399074074,1,0,0,1.9765,Obsidian_rect,6,0,6,0,1,
665696a90e34e3e67cfcfdc0,TCN,2024-06-24_17h32.52.085,LearnStrategy,2023.2.3,Win32,59.88023952,1,2,8,,,,,,,,7,16,,,,,,,,,,,7,3.478,1,,,,,,0.081481481,-0.42037037,1,0,0,3.4778,Peridotite_rect,7,0,7,0,1,
665696a90e34e3e67cfcfdc0,TCN,2024-06-24_17h32.52.085,LearnStrategy,2023.2.3,Win32,59.88023952,1,2,9,,,,,,,,4,13,,,,,,,,,,,1,5.078,0,,,,,,-0.397222222,-0.258333333,1,0,0,5.0778,Andesite_rect,8,0,8,0,1,
665696a90e34e3e67cfcfdc0,TCN,2024-06-24_17h32.52.085,LearnStrategy,2023.2.3,Win32,59.88023952,1,2,10,,,,,,,,3,14,,,,,,,,,,,6,6.212,0,,,,,,-0.162037037,-0.410185185,1,0,0,6.2119,Pegmatite_rect,9,0,9,0,1,
665696a90e34e3e67cfcfdc0,TCN,2024-06-24_17h32.52.085,LearnStrategy,2023.2.3,Win32,59.88023952,1,2,11,,,,,,,,6,11,,,,,,,,,,,4,9.778,0,,,,,,0.42962963,-0.25,1,0,0,9.7781,Gabbro_rect,10,0,10,0,1,
665696a90e34e3e67cfcfdc0,TCN,2024-06-24_17h32.52.085,LearnStrategy,2023.2.3,Win32,59.88023952,1,2,12,,,,,,,,2,06,,,,,,,,,,,2,7.828,1,,,,,,-0.066666667,-0.25,1,0,0,7.8276,Basalt_rect,11,0,11,0,1,
665696a90e34e3e67cfcfdc0,TCN,2024-06-24_17h32.52.085,LearnStrategy,2023.2.3,Win32,59.88023952,1,2,13,,,,,,,,5,16,,,,,,,,,,,5,1.56,1,,,,,,-0.387037037,-0.414814815,1,0,0,1.5602,Obsidian_rect,12,0,12,0,1,
665696a90e34e3e67cfcfdc0,TCN,2024-06-24_17h32.52.085,LearnStrategy,2023.2.3,Win32,59.88023952,1,2,14,,,,,,,,6,06,,,,,,,,,,,7,7.461,0,,,,,,0.087962963,-0.408333333,1,0,0,7.4613,Peridotite_rect,13,0,13,0,1,
665696a90e34e3e67cfcfdc0,TCN,2024-06-24_17h32.52.085,LearnStrategy,2023.2.3,Win32,59.88023952,1,2,15,,,,,,,,8,14,,,,,,,,,,,8,1.327,1,,,,,,0.325,-0.389814815,1,0,0,1.3272,Pumice_rect,14,0,14,0,1,
665696a90e34e3e67cfcfdc0,TCN,2024-06-24_17h32.52.085,LearnStrategy,2023.2.3,Win32,59.88023952,1,2,16,,,,,,,,2,16,,,,,,,,,,,6,11.745,0,,,,,,-0.087962963,-0.391666667,1,0,0,11.7448,Pegmatite_rect,15,0,15,0,1,
665696a90e34e3e67cfcfdc0,TCN,2024-06-24_17h32.52.085,LearnStrategy,2023.2.3,Win32,59.88023952,2,1,1,0.025,-0.001851852,1,0,0,1.466,rock_grid_rect_2,2,14,-1,-1,1.466,0.411111111,-0.383333333,1,0,0,8.3962,Pumice_rect,8,8.396,0,0,0,0,0,1,,,,,,,,,,,,,
665696a90e34e3e67cfcfdc0,TCN,2024-06-24_17h32.52.085,LearnStrategy,2023.2.3,Win32,59.88023952,2,1,2,0.007407407,0.002777778,1,0,0,1.3091,rock_grid_rect_2,7,06,-1,-1,1.309,0.332407407,-0.238888889,1,0,0,3.6615,Gabbro_rect,4,3.661,0,1,0,1,0,1,,,,,,,,,,,,,
665696a90e34e3e67cfcfdc0,TCN,2024-06-24_17h32.52.085,LearnStrategy,2023.2.3,Win32,59.88023952,2,1,3,0.047222222,-0.009259259,1,0,0,1.114,rock_grid_rect_2,8,09,-1,-1,1.114,0.341666667,-0.393518519,1,0,0,1.1607,Pumice_rect,8,1.161,1,2,0,2,0,1,,,,,,,,,,,,,
665696a90e34e3e67cfcfdc0,TCN,2024-06-24_17h32.52.085,LearnStrategy,2023.2.3,Win32,59.88023952,2,1,4,0.010185185,-0.015740741,1,0,0,0.9483,rock_grid_rect_2,6,03,-1,-1,0.948,0.089814815,-0.246296296,1,0,0,5.0299,Diorite_rect,3,5.03,0,3,0,3,0,1,,,,,,,,,,,,,
665696a90e34e3e67cfcfdc0,TCN,2024-06-24_17h32.52.085,LearnStrategy,2023.2.3,Win32,59.88023952,2,1,5,0.022222222,-0.015740741,1,0,0,1.0475,rock_grid_rect_2,3,02,-1,-1,1.048,0.141666667,-0.24537037,1,0,0,3.6953,Diorite_rect,3,3.695,1,4,0,4,0,1,,,,,,,,,,,,,
665696a90e34e3e67cfcfdc0,TCN,2024-06-24_17h32.52.085,LearnStrategy,2023.2.3,Win32,59.88023952,2,1,6,0.041666667,-0.000925926,1,0,0,1.2491,rock_grid_rect_2,6,08,-1,-1,1.249,0.376851852,-0.259259259,1,0,0,6.3777,Gabbro_rect,4,6.378,0,5,0,5,0,1,,,,,,,,,,,,,
665696a90e34e3e67cfcfdc0,TCN,2024-06-24_17h32.52.085,LearnStrategy,2023.2.3,Win32,59.88023952,2,1,7,0.031481481,0.002777778,1,0,0,1.2817,rock_grid_rect_2,5,14,-1,-1,1.282,-0.364814815,-0.387962963,1,0,0,1.5452,Obsidian_rect,5,1.545,1,6,0,6,0,1,,,,,,,,,,,,,
665696a90e34e3e67cfcfdc0,TCN,2024-06-24_17h32.52.085,LearnStrategy,2023.2.3,Win32,59.88023952,2,1,8,0.022222222,0.003703704,1,0,0,1.199,rock_grid_rect_2,7,14,-1,-1,1.199,-0.377777778,-0.261111111,1,0,0,4.6297,Andesite_rect,1,4.63,0,7,0,7,0,1,,,,,,,,,,,,,
665696a90e34e3e67cfcfdc0,TCN,2024-06-24_17h32.52.085,LearnStrategy,2023.2.3,Win32,59.88023952,2,1,9,0.04537037,0.001851852,1,0,0,1.1149,rock_grid_rect_2,5,11,-1,-1,1.115,-0.359259259,-0.398148148,1,0,0,1.3457,Obsidian_rect,5,1.346,1,8,0,8,0,1,,,,,,,,,,,,,
665696a90e34e3e67cfcfdc0,TCN,2024-06-24_17h32.52.085,LearnStrategy,2023.2.3,Win32,59.88023952,2,1,10,-0.000925926,0,1,0,0,1.1989,rock_grid_rect_2,4,11,-1,-1,1.199,0.101851852,-0.265740741,1,0,0,3.7622,Diorite_rect,3,3.762,0,9,0,9,0,1,,,,,,,,,,,,,
665696a90e34e3e67cfcfdc0,TCN,2024-06-24_17h32.52.085,LearnStrategy,2023.2.3,Win32,59.88023952,2,1,11,0.006481481,-0.008333333,1,0,0,1.0313,rock_grid_rect_2,1,16,-1,-1,1.031,0.113888889,-0.251851852,1,0,0,2.5286,Diorite_rect,3,2.529,0,10,0,10,0,1,,,,,,,,,,,,,
665696a90e34e3e67cfcfdc0,TCN,2024-06-24_17h32.52.085,LearnStrategy,2023.2.3,Win32,59.88023952,2,1,12,-0.018518519,-0.006481481,1,0,0,1.3649,rock_grid_rect_2,1,03,-1,-1,1.365,-0.408333333,-0.25462963,1,0,0,3.7134,Andesite_rect,1,3.713,1,11,0,11,0,1,,,,,,,,,,,,,
665696a90e34e3e67cfcfdc0,TCN,2024-06-24_17h32.52.085,LearnStrategy,2023.2.3,Win32,59.88023952,2,1,13,0.028703704,-0.012037037,1,0,0,1.2481,rock_grid_rect_2,4,15,-1,-1,1.248,0.410185185,-0.241666667,1,0,0,6.0457,Gabbro_rect,4,6.046,1,12,0,12,0,1,,,,,,,,,,,,,
665696a90e34e3e67cfcfdc0,TCN,2024-06-24_17h32.52.085,LearnStrategy,2023.2.3,Win32,59.88023952,2,1,14,-0.005555556,0.007407407,1,0,0,1.0478,rock_grid_rect_2,8,02,-1,-1,1.048,0.358333333,-0.413888889,1,0,0,1.1451,Pumice_rect,8,1.145,1,13,0,13,0,1,,,,,,,,,,,,,
665696a90e34e3e67cfcfdc0,TCN,2024-06-24_17h32.52.085,LearnStrategy,2023.2.3,Win32,59.88023952,2,1,15,0.021296296,-0.003703704,1,0,0,1.0654,rock_grid_rect_2,3,09,-1,-1,1.065,0.152777778,-0.248148148,1,0,0,7.4958,Diorite_rect,3,7.496,1,14,0,14,0,1,,,,,,,,,,,,,
665696a90e34e3e67cfcfdc0,TCN,2024-06-24_17h32.52.085,LearnStrategy,2023.2.3,Win32,59.88023952,2,1,16,-0.014814815,-0.012037037,1,0,0,1.1488,rock_grid_rect_2,2,01,-1,-1,1.149,-0.119444444,-0.238888889,1,0,0,1.9951,Basalt_rect,2,1.995,1,15,0,15,0,1,,,,,,,,,,,,,
665696a90e34e3e67cfcfdc0,TCN,2024-06-24_17h32.52.085,LearnStrategy,2023.2.3,Win32,59.88023952,2,2,1,,,,,,,,8,16,,,,,,,,,,,2,5.113,0,,,,,,-0.081481481,-0.269444444,1,0,0,5.1127,Basalt_rect,0,0,0,0,1,
665696a90e34e3e67cfcfdc0,TCN,2024-06-24_17h32.52.085,LearnStrategy,2023.2.3,Win32,59.88023952,2,2,2,,,,,,,,2,10,,,,,,,,,,,7,9.095,0,,,,,,0.111111111,-0.418518519,1,0,0,9.0954,Peridotite_rect,1,0,1,0,1,
665696a90e34e3e67cfcfdc0,TCN,2024-06-24_17h32.52.085,LearnStrategy,2023.2.3,Win32,59.88023952,2,2,3,,,,,,,,1,09,,,,,,,,,,,1,2.279,1,,,,,,-0.375,-0.253703704,1,0,0,2.2785,Andesite_rect,2,0,2,0,1,
665696a90e34e3e67cfcfdc0,TCN,2024-06-24_17h32.52.085,LearnStrategy,2023.2.3,Win32,59.88023952,2,2,4,,,,,,,,8,05,,,,,,,,,,,8,1.961,1,,,,,,0.394444444,-0.387962963,1,0,0,1.9607,Pumice_rect,3,0,3,0,1,
665696a90e34e3e67cfcfdc0,TCN,2024-06-24_17h32.52.085,LearnStrategy,2023.2.3,Win32,59.88023952,2,2,5,,,,,,,,5,10,,,,,,,,,,,5,1.527,1,,,,,,-0.337037037,-0.4,1,0,0,1.527,Obsidian_rect,4,0,4,0,1,
665696a90e34e3e67cfcfdc0,TCN,2024-06-24_17h32.52.085,LearnStrategy,2023.2.3,Win32,59.88023952,2,2,6,,,,,,,,3,07,,,,,,,,,,,7,6.192,0,,,,,,0.125925926,-0.39537037,1,0,0,6.1923,Peridotite_rect,5,0,5,0,1,
665696a90e34e3e67cfcfdc0,TCN,2024-06-24_17h32.52.085,LearnStrategy,2023.2.3,Win32,59.88023952,2,2,7,,,,,,,,7,08,,,,,,,,,,,7,3.011,1,,,,,,0.125925926,-0.39537037,1,0,0,3.0107,Peridotite_rect,6,0,6,0,1,
665696a90e34e3e67cfcfdc0,TCN,2024-06-24_17h32.52.085,LearnStrategy,2023.2.3,Win32,59.88023952,2,2,8,,,,,,,,2,04,,,,,,,,,,,2,1.762,1,,,,,,-0.151851852,-0.246296296,1,0,0,1.7616,Basalt_rect,7,0,7,0,1,
665696a90e34e3e67cfcfdc0,TCN,2024-06-24_17h32.52.085,LearnStrategy,2023.2.3,Win32,59.88023952,2,2,9,,,,,,,,7,15,,,,,,,,,,,6,2.561,0,,,,,,-0.141666667,-0.411111111,1,0,0,2.5613,Pegmatite_rect,8,0,8,0,1,
665696a90e34e3e67cfcfdc0,TCN,2024-06-24_17h32.52.085,LearnStrategy,2023.2.3,Win32,59.88023952,2,2,10,,,,,,,,3,10,,,,,,,,,,,4,2.545,0,,,,,,0.369444444,-0.246296296,1,0,0,2.5449,Gabbro_rect,9,0,9,0,1,
665696a90e34e3e67cfcfdc0,TCN,2024-06-24_17h32.52.085,LearnStrategy,2023.2.3,Win32,59.88023952,2,2,11,,,,,,,,1,06,,,,,,,,,,,4,3.644,0,,,,,,0.369444444,-0.246296296,1,0,0,3.644,Gabbro_rect,10,0,10,0,1,
665696a90e34e3e67cfcfdc0,TCN,2024-06-24_17h32.52.085,LearnStrategy,2023.2.3,Win32,59.88023952,2,2,12,,,,,,,,4,03,,,,,,,,,,,3,2.896,0,,,,,,0.164814815,-0.250925926,1,0,0,2.8956,Diorite_rect,11,0,11,0,1,
665696a90e34e3e67cfcfdc0,TCN,2024-06-24_17h32.52.085,LearnStrategy,2023.2.3,Win32,59.88023952,2,2,13,,,,,,,,5,08,,,,,,,,,,,5,1.427,1,,,,,,-0.398148148,-0.381481481,1,0,0,1.4271,Obsidian_rect,12,0,12,0,1,
665696a90e34e3e67cfcfdc0,TCN,2024-06-24_17h32.52.085,LearnStrategy,2023.2.3,Win32,59.88023952,2,2,14,,,,,,,,4,14,,,,,,,,,,,3,11.162,0,,,,,,0.202777778,-0.263888889,1,0,0,11.1617,Diorite_rect,13,0,13,0,1,
665696a90e34e3e67cfcfdc0,TCN,2024-06-24_17h32.52.085,LearnStrategy,2023.2.3,Win32,59.88023952,2,2,15,,,,,,,,6,13,,,,,,,,,,,6,4.178,1,,,,,,-0.12037037,-0.421296296,1,0,0,4.1781,Pegmatite_rect,14,0,14,0,1,
665696a90e34e3e67cfcfdc0,TCN,2024-06-24_17h32.52.085,LearnStrategy,2023.2.3,Win32,59.88023952,2,2,16,,,,,,,,6,09,,,,,,,,,,,7,2.311,0,,,,,,0.115740741,-0.414814815,1,0,0,2.3113,Peridotite_rect,15,0,15,0,1,
665696a90e34e3e67cfcfdc0,TCN,2024-06-24_17h32.52.085,LearnStrategy,2023.2.3,Win32,59.88023952,3,1,1,-0.014814815,-0.009259259,1,0,0,1.349,rock_grid_rect_2,3,15,-1,-1,1.349,0.124074074,-0.251851852,1,0,0,1.9451,Diorite_rect,3,1.945,1,0,0,0,0,1,,,,,,,,,,,,,
665696a90e34e3e67cfcfdc0,TCN,2024-06-24_17h32.52.085,LearnStrategy,2023.2.3,Win32,59.88023952,3,1,2,-0.010185185,-0.005555556,1,0,0,1.2758,rock_grid_rect_2,4,08,-1,-1,1.276,-0.365740741,-0.406481481,1,0,0,3.7787,Obsidian_rect,5,3.779,0,1,0,1,0,1,,,,,,,,,,,,,
665696a90e34e3e67cfcfdc0,TCN,2024-06-24_17h32.52.085,LearnStrategy,2023.2.3,Win32,59.88023952,3,1,3,0.02962963,0.001851852,1,0,0,1.065,rock_grid_rect_2,6,10,-1,-1,1.065,0.131481481,-0.401851852,1,0,0,2.544,Peridotite_rect,7,2.544,0,2,0,2,0,1,,,,,,,,,,,,,
665696a90e34e3e67cfcfdc0,TCN,2024-06-24_17h32.52.085,LearnStrategy,2023.2.3,Win32,59.88023952,3,1,4,0.02037037,-0.002777778,1,0,0,1.0318,rock_grid_rect_2,4,05,-1,-1,1.032,0.160185185,-0.400925926,1,0,0,5.3287,Peridotite_rect,7,5.329,0,3,0,3,0,1,,,,,,,,,,,,,
665696a90e34e3e67cfcfdc0,TCN,2024-06-24_17h32.52.085,LearnStrategy,2023.2.3,Win32,59.88023952,3,1,5,0.039814815,-0.008333333,1,0,0,0.8822,rock_grid_rect_2,8,08,-1,-1,0.882,0.339814815,-0.391666667,1,0,0,2.1289,Pumice_rect,8,2.129,1,4,0,4,0,1,,,,,,,,,,,,,
665696a90e34e3e67cfcfdc0,TCN,2024-06-24_17h32.52.085,LearnStrategy,2023.2.3,Win32,59.88023952,3,1,6,-0.025925926,-0.015740741,1,0,0,1.1989,rock_grid_rect_2,7,04,-1,-1,1.199,-0.102777778,-0.410185185,1,0,0,3.4631,Pegmatite_rect,6,3.463,0,5,0,5,0,1,,,,,,,,,,,,,
665696a90e34e3e67cfcfdc0,TCN,2024-06-24_17h32.52.085,LearnStrategy,2023.2.3,Win32,59.88023952,3,1,7,-0.067592593,0.009259259,1,0,0,0.9821,rock_grid_rect_2,2,08,-1,-1,0.982,-0.149074074,-0.238888889,1,0,0,1.4449,Basalt_rect,2,1.445,1,6,0,6,0,1,,,,,,,,,,,,,
665696a90e34e3e67cfcfdc0,TCN,2024-06-24_17h32.52.085,LearnStrategy,2023.2.3,Win32,59.88023952,3,1,8,-0.025925926,0.008333333,1,0,0,1.5155,rock_grid_rect_2,1,05,-1,-1,1.516,-0.327777778,-0.267592593,1,0,0,1.6114,Andesite_rect,1,1.611,1,7,0,7,0,1,,,,,,,,,,,,,
665696a90e34e3e67cfcfdc0,TCN,2024-06-24_17h32.52.085,LearnStrategy,2023.2.3,Win32,59.88023952,3,1,9,-0.005555556,0.006481481,1,0,0,1.4323,rock_grid_rect_2,5,05,-1,-1,1.432,-0.357407407,-0.396296296,1,0,0,1.8122,Obsidian_rect,5,1.812,1,8,0,8,0,1,,,,,,,,,,,,,
665696a90e34e3e67cfcfdc0,TCN,2024-06-24_17h32.52.085,LearnStrategy,2023.2.3,Win32,59.88023952,3,1,10,-0.012037037,0.010185185,1,0,0,1.1145,rock_grid_rect_2,3,12,-1,-1,1.115,0.340740741,-0.24537037,1,0,0,2.2626,Gabbro_rect,4,2.263,0,9,0,9,0,1,,,,,,,,,,,,,
665696a90e34e3e67cfcfdc0,TCN,2024-06-24_17h32.52.085,LearnStrategy,2023.2.3,Win32,59.88023952,3,1,11,0.022222222,0.002777778,1,0,0,1.1813,rock_grid_rect_2,7,07,-1,-1,1.181,0.096296296,-0.402777778,1,0,0,2.3117,Peridotite_rect,7,2.312,1,10,0,10,0,1,,,,,,,,,,,,,
665696a90e34e3e67cfcfdc0,TCN,2024-06-24_17h32.52.085,LearnStrategy,2023.2.3,Win32,59.88023952,3,1,12,-0.022222222,-0.016666667,1,0,0,1.199,rock_grid_rect_2,2,09,-1,-1,1.199,-0.157407407,-0.266666667,1,0,0,1.3283,Basalt_rect,2,1.328,1,11,0,11,0,1,,,,,,,,,,,,,
665696a90e34e3e67cfcfdc0,TCN,2024-06-24_17h32.52.085,LearnStrategy,2023.2.3,Win32,59.88023952,3,1,13,0.018518519,-0.003703704,1,0,0,1.4159,rock_grid_rect_2,1,10,-1,-1,1.416,0.348148148,-0.407407407,1,0,0,1.7615,Pumice_rect,8,1.761,0,12,0,12,0,1,,,,,,,,,,,,,
665696a90e34e3e67cfcfdc0,TCN,2024-06-24_17h32.52.085,LearnStrategy,2023.2.3,Win32,59.88023952,3,1,14,-0.013888889,-0.009259259,1,0,0,0.9492,rock_grid_rect_2,6,07,-1,-1,0.949,-0.37037037,-0.394444444,1,0,0,2.162,Obsidian_rect,5,2.162,0,13,0,13,0,1,,,,,,,,,,,,,
665696a90e34e3e67cfcfdc0,TCN,2024-06-24_17h32.52.085,LearnStrategy,2023.2.3,Win32,59.88023952,3,1,15,0.080555556,0,1,0,0,1.2645,rock_grid_rect_2,5,06,-1,-1,1.264,-0.423148148,-0.402777778,1,0,0,1.2934,Obsidian_rect,5,1.293,1,14,0,14,0,1,,,,,,,,,,,,,
665696a90e34e3e67cfcfdc0,TCN,2024-06-24_17h32.52.085,LearnStrategy,2023.2.3,Win32,59.88023952,3,1,16,0.056481481,0.003703704,1,0,0,1.1658,rock_grid_rect_2,8,13,-1,-1,1.166,0.353703704,-0.394444444,1,0,0,1.445,Pumice_rect,8,1.445,1,15,0,15,0,1,,,,,,,,,,,,,
665696a90e34e3e67cfcfdc0,TCN,2024-06-24_17h32.52.085,LearnStrategy,2023.2.3,Win32,59.88023952,3,2,1,,,,,,,,8,04,,,,,,,,,,,8,1.512,1,,,,,,0.396296296,-0.397222222,1,0,0,1.512,Pumice_rect,0,0,0,0,1,
665696a90e34e3e67cfcfdc0,TCN,2024-06-24_17h32.52.085,LearnStrategy,2023.2.3,Win32,59.88023952,3,2,2,,,,,,,,7,10,,,,,,,,,,,7,3.178,1,,,,,,0.141666667,-0.405555556,1,0,0,3.1784,Peridotite_rect,1,0,1,0,1,
665696a90e34e3e67cfcfdc0,TCN,2024-06-24_17h32.52.085,LearnStrategy,2023.2.3,Win32,59.88023952,3,2,3,,,,,,,,7,05,,,,,,,,,,,7,2.695,1,,,,,,0.141666667,-0.405555556,1,0,0,2.6947,Peridotite_rect,2,0,2,0,1,
665696a90e34e3e67cfcfdc0,TCN,2024-06-24_17h32.52.085,LearnStrategy,2023.2.3,Win32,59.88023952,3,2,4,,,,,,,,6,05,,,,,,,,,,,4,7.213,0,,,,,,0.361111111,-0.242592593,1,0,0,7.2126,Gabbro_rect,3,0,3,0,1,
665696a90e34e3e67cfcfdc0,TCN,2024-06-24_17h32.52.085,LearnStrategy,2023.2.3,Win32,59.88023952,3,2,5,,,,,,,,1,01,,,,,,,,,,,1,2.378,1,,,,,,-0.411111111,-0.246296296,1,0,0,2.378,Andesite_rect,4,0,4,0,1,
665696a90e34e3e67cfcfdc0,TCN,2024-06-24_17h32.52.085,LearnStrategy,2023.2.3,Win32,59.88023952,3,2,6,,,,,,,,6,15,,,,,,,,,,,3,2.728,0,,,,,,0.097222222,-0.257407407,1,0,0,2.7277,Diorite_rect,5,0,5,0,1,
665696a90e34e3e67cfcfdc0,TCN,2024-06-24_17h32.52.085,LearnStrategy,2023.2.3,Win32,59.88023952,3,2,7,,,,,,,,2,12,,,,,,,,,,,8,6.744,0,,,,,,0.365740741,-0.410185185,1,0,0,6.744,Pumice_rect,6,0,6,0,1,
665696a90e34e3e67cfcfdc0,TCN,2024-06-24_17h32.52.085,LearnStrategy,2023.2.3,Win32,59.88023952,3,2,8,,,,,,,,8,03,,,,,,,,,,,8,1.227,1,,,,,,0.368518519,-0.401851852,1,0,0,1.227,Pumice_rect,7,0,7,0,1,
665696a90e34e3e67cfcfdc0,TCN,2024-06-24_17h32.52.085,LearnStrategy,2023.2.3,Win32,59.88023952,3,2,9,,,,,,,,3,16,,,,,,,,,,,4,4.879,0,,,,,,0.411111111,-0.247222222,1,0,0,4.8787,Gabbro_rect,8,0,8,0,1,
665696a90e34e3e67cfcfdc0,TCN,2024-06-24_17h32.52.085,LearnStrategy,2023.2.3,Win32,59.88023952,3,2,10,,,,,,,,1,04,,,,,,,,,,,3,4.862,0,,,,,,0.127777778,-0.258333333,1,0,0,4.8618,Diorite_rect,9,0,9,0,1,
665696a90e34e3e67cfcfdc0,TCN,2024-06-24_17h32.52.085,LearnStrategy,2023.2.3,Win32,59.88023952,3,2,11,,,,,,,,4,10,,,,,,,,,,,8,4.095,0,,,,,,0.333333333,-0.412037037,1,0,0,4.0946,Pumice_rect,10,0,10,0,1,
665696a90e34e3e67cfcfdc0,TCN,2024-06-24_17h32.52.085,LearnStrategy,2023.2.3,Win32,59.88023952,3,2,12,,,,,,,,5,12,,,,,,,,,,,5,1.312,1,,,,,,-0.392592593,-0.406481481,1,0,0,1.3117,Obsidian_rect,11,0,11,0,1,
665696a90e34e3e67cfcfdc0,TCN,2024-06-24_17h32.52.085,LearnStrategy,2023.2.3,Win32,59.88023952,3,2,13,,,,,,,,5,04,,,,,,,,,,,5,1.045,1,,,,,,-0.392592593,-0.406481481,1,0,0,1.045,Obsidian_rect,12,0,12,0,1,
665696a90e34e3e67cfcfdc0,TCN,2024-06-24_17h32.52.085,LearnStrategy,2023.2.3,Win32,59.88023952,3,2,14,,,,,,,,2,05,,,,,,,,,,,2,1.811,1,,,,,,-0.09537037,-0.252777778,1,0,0,1.8112,Basalt_rect,13,0,13,0,1,
665696a90e34e3e67cfcfdc0,TCN,2024-06-24_17h32.52.085,LearnStrategy,2023.2.3,Win32,59.88023952,3,2,15,,,,,,,,3,13,,,,,,,,,,,3,7.212,1,,,,,,0.106481481,-0.237962963,1,0,0,7.2116,Diorite_rect,14,0,14,0,1,
665696a90e34e3e67cfcfdc0,TCN,2024-06-24_17h32.52.085,LearnStrategy,2023.2.3,Win32,59.88023952,3,2,16,,,,,,,,4,16,,,,,,,,,,,4,3.912,1,,,,,,0.347222222,-0.265740741,1,0,0,3.9119,Gabbro_rect,15,0,15,0,1,
665696a90e34e3e67cfcfdc0,TCN,2024-06-24_17h32.52.085,LearnStrategy,2023.2.3,Win32,59.88023952,4,1,1,0.049074074,0.00462963,1,0,0,1.1321,rock_grid_rect_2,4,15,-1,-1,1.132,0.100925926,-0.235185185,1,0,0,3.5121,Diorite_rect,3,3.512,0,0,0,0,0,1,,,,,,,,,,,,,
665696a90e34e3e67cfcfdc0,TCN,2024-06-24_17h32.52.085,LearnStrategy,2023.2.3,Win32,59.88023952,4,1,2,0.041666667,-0.007407407,1,0,0,0.8314,rock_grid_rect_2,6,10,-1,-1,0.831,0.071296296,-0.388888889,1,0,0,1.5782,Peridotite_rect,7,1.578,0,1,0,1,0,1,,,,,,,,,,,,,
665696a90e34e3e67cfcfdc0,TCN,2024-06-24_17h32.52.085,LearnStrategy,2023.2.3,Win32,59.88023952,4,1,3,0.034259259,0.001851852,1,0,0,0.9156,rock_grid_rect_2,2,09,-1,-1,0.916,-0.144444444,-0.251851852,1,0,0,1.3266,Basalt_rect,2,1.327,1,2,0,2,0,1,,,,,,,,,,,,,
665696a90e34e3e67cfcfdc0,TCN,2024-06-24_17h32.52.085,LearnStrategy,2023.2.3,Win32,59.88023952,4,1,4,-0.026851852,-0.003703704,1,0,0,1.4657,rock_grid_rect_2,3,12,-1,-1,1.466,0.368518519,-0.243518519,1,0,0,2.6445,Gabbro_rect,4,2.644,0,3,0,3,0,1,,,,,,,,,,,,,
665696a90e34e3e67cfcfdc0,TCN,2024-06-24_17h32.52.085,LearnStrategy,2023.2.3,Win32,59.88023952,4,1,5,-0.019444444,-0.007407407,1,0,0,1.0804,rock_grid_rect_2,2,08,-1,-1,1.08,-0.17037037,-0.259259259,1,0,0,3.0621,Basalt_rect,2,3.062,1,4,0,4,0,1,,,,,,,,,,,,,
665696a90e34e3e67cfcfdc0,TCN,2024-06-24_17h32.52.085,LearnStrategy,2023.2.3,Win32,59.88023952,4,1,6,-0.008333333,-0.018518519,1,0,0,1.2317,rock_grid_rect_2,1,02,-1,-1,1.232,-0.372222222,-0.253703704,1,0,0,1.2788,Andesite_rect,1,1.279,1,5,0,5,0,1,,,,,,,,,,,,,
665696a90e34e3e67cfcfdc0,TCN,2024-06-24_17h32.52.085,LearnStrategy,2023.2.3,Win32,59.88023952,4,1,7,-0.013888889,-0.000925926,1,0,0,0.9819,rock_grid_rect_2,5,05,-1,-1,0.982,-0.337962963,-0.40462963,1,0,0,1.3951,Obsidian_rect,5,1.395,1,6,0,6,0,1,,,,,,,,,,,,,
665696a90e34e3e67cfcfdc0,TCN,2024-06-24_17h32.52.085,LearnStrategy,2023.2.3,Win32,59.88023952,4,1,8,-0.033333333,0.00462963,1,0,0,1.3659,rock_grid_rect_2,1,10,-1,-1,1.366,-0.39537037,-0.246296296,1,0,0,2.3449,Andesite_rect,1,2.345,1,7,0,7,0,1,,,,,,,,,,,,,
665696a90e34e3e67cfcfdc0,TCN,2024-06-24_17h32.52.085,LearnStrategy,2023.2.3,Win32,59.88023952,4,1,9,0.008333333,-0.012962963,1,0,0,1.0316,rock_grid_rect_2,3,08,-1,-1,1.032,0.430555556,-0.243518519,1,0,0,3.7123,Gabbro_rect,4,3.712,0,8,0,8,0,1,,,,,,,,,,,,,
665696a90e34e3e67cfcfdc0,TCN,2024-06-24_17h32.52.085,LearnStrategy,2023.2.3,Win32,59.88023952,4,1,10,-0.022222222,-0.005555556,1,0,0,0.9808,rock_grid_rect_2,7,13,-1,-1,0.981,0.112037037,-0.394444444,1,0,0,1.929,Peridotite_rect,7,1.929,1,9,0,9,0,1,,,,,,,,,,,,,
665696a90e34e3e67cfcfdc0,TCN,2024-06-24_17h32.52.085,LearnStrategy,2023.2.3,Win32,59.88023952,4,1,11,-0.012037037,-0.00462963,1,0,0,1.3155,rock_grid_rect_2,8,15,-1,-1,1.315,0.366666667,-0.385185185,1,0,0,1.2952,Pumice_rect,8,1.295,1,10,0,10,0,1,,,,,,,,,,,,,
665696a90e34e3e67cfcfdc0,TCN,2024-06-24_17h32.52.085,LearnStrategy,2023.2.3,Win32,59.88023952,4,1,12,-0.007407407,-0.010185185,1,0,0,0.7661,rock_grid_rect_2,7,14,-1,-1,0.766,-0.121296296,-0.402777778,1,0,0,2.4611,Pegmatite_rect,6,2.461,0,11,0,11,0,1,,,,,,,,,,,,,
665696a90e34e3e67cfcfdc0,TCN,2024-06-24_17h32.52.085,LearnStrategy,2023.2.3,Win32,59.88023952,4,1,13,-0.073148148,0.003703704,1,0,0,0.9157,rock_grid_rect_2,4,01,-1,-1,0.916,0.337962963,-0.266666667,1,0,0,5.3781,Gabbro_rect,4,5.378,1,12,0,12,0,1,,,,,,,,,,,,,
665696a90e34e3e67cfcfdc0,TCN,2024-06-24_17h32.52.085,LearnStrategy,2023.2.3,Win32,59.88023952,4,1,14,-0.018518519,0.00462963,1,0,0,1.0152,rock_grid_rect_2,6,08,-1,-1,1.015,0.125925926,-0.251851852,1,0,0,2.1141,Diorite_rect,3,2.114,0,13,0,13,0,1,,,,,,,,,,,,,
665696a90e34e3e67cfcfdc0,TCN,2024-06-24_17h32.52.085,LearnStrategy,2023.2.3,Win32,59.88023952,4,1,15,-0.008333333,-0.012962963,1,0,0,1.0984,rock_grid_rect_2,8,10,-1,-1,1.098,0.328703704,-0.4,1,0,0,1.3448,Pumice_rect,8,1.345,1,14,0,14,0,1,,,,,,,,,,,,,
665696a90e34e3e67cfcfdc0,TCN,2024-06-24_17h32.52.085,LearnStrategy,2023.2.3,Win32,59.88023952,4,1,16,0.012037037,-0.010185185,1,0,0,1.2824,rock_grid_rect_2,5,06,-1,-1,1.282,-0.403703704,-0.394444444,1,0,0,1.1451,Obsidian_rect,5,1.145,1,15,0,15,0,1,,,,,,,,,,,,,
665696a90e34e3e67cfcfdc0,TCN,2024-06-24_17h32.52.085,LearnStrategy,2023.2.3,Win32,59.88023952,4,2,1,,,,,,,,3,16,,,,,,,,,,,3,2.762,1,,,,,,0.075925926,-0.239814815,1,0,0,2.7616,Diorite_rect,0,0,0,0,1,
665696a90e34e3e67cfcfdc0,TCN,2024-06-24_17h32.52.085,LearnStrategy,2023.2.3,Win32,59.88023952,4,2,2,,,,,,,,4,09,,,,,,,,,,,2,3.044,0,,,,,,-0.116666667,-0.252777778,1,0,0,3.0443,Basalt_rect,1,0,1,0,1,
665696a90e34e3e67cfcfdc0,TCN,2024-06-24_17h32.52.085,LearnStrategy,2023.2.3,Win32,59.88023952,4,2,3,,,,,,,,3,10,,,,,,,,,,,4,4.395,0,,,,,,0.386111111,-0.262037037,1,0,0,4.3953,Gabbro_rect,2,0,2,0,1,
665696a90e34e3e67cfcfdc0,TCN,2024-06-24_17h32.52.085,LearnStrategy,2023.2.3,Win32,59.88023952,4,2,4,,,,,,,,5,07,,,,,,,,,,,5,2.112,1,,,,,,-0.386111111,-0.383333333,1,0,0,2.1117,Obsidian_rect,3,0,3,0,1,
665696a90e34e3e67cfcfdc0,TCN,2024-06-24_17h32.52.085,LearnStrategy,2023.2.3,Win32,59.88023952,4,2,5,,,,,,,,2,10,,,,,,,,,,,3,3.078,0,,,,,,0.163888889,-0.264814815,1,0,0,3.0779,Diorite_rect,4,0,4,0,1,
665696a90e34e3e67cfcfdc0,TCN,2024-06-24_17h32.52.085,LearnStrategy,2023.2.3,Win32,59.88023952,4,2,6,,,,,,,,8,14,,,,,,,,,,,8,1.361,1,,,,,,0.328703704,-0.391666667,1,0,0,1.361,Pumice_rect,5,0,5,0,1,
665696a90e34e3e67cfcfdc0,TCN,2024-06-24_17h32.52.085,LearnStrategy,2023.2.3,Win32,59.88023952,4,2,7,,,,,,,,6,15,,,,,,,,,,,7,2.145,0,,,,,,0.142592593,-0.414814815,1,0,0,2.1452,Peridotite_rect,6,0,6,0,1,
665696a90e34e3e67cfcfdc0,TCN,2024-06-24_17h32.52.085,LearnStrategy,2023.2.3,Win32,59.88023952,4,2,8,,,,,,,,8,05,,,,,,,,,,,8,1.394,1,,,,,,0.371296296,-0.416666667,1,0,0,1.3945,Pumice_rect,7,0,7,0,1,
665696a90e34e3e67cfcfdc0,TCN,2024-06-24_17h32.52.085,LearnStrategy,2023.2.3,Win32,59.88023952,4,2,9,,,,,,,,1,04,,,,,,,,,,,6,3.846,0,,,,,,-0.166666667,-0.401851852,1,0,0,3.8455,Pegmatite_rect,8,0,8,0,1,
665696a90e34e3e67cfcfdc0,TCN,2024-06-24_17h32.52.085,LearnStrategy,2023.2.3,Win32,59.88023952,4,2,10,,,,,,,,1,01,,,,,,,,,,,8,3.478,0,,,,,,0.312037037,-0.389814815,1,0,0,3.4779,Pumice_rect,9,0,9,0,1,
665696a90e34e3e67cfcfdc0,TCN,2024-06-24_17h32.52.085,LearnStrategy,2023.2.3,Win32,59.88023952,4,2,11,,,,,,,,4,03,,,,,,,,,,,4,6.278,1,,,,,,0.387962963,-0.251851852,1,0,0,6.2779,Gabbro_rect,10,0,10,0,1,
665696a90e34e3e67cfcfdc0,TCN,2024-06-24_17h32.52.085,LearnStrategy,2023.2.3,Win32,59.88023952,4,2,12,,,,,,,,2,06,,,,,,,,,,,2,1.245,1,,,,,,-0.080555556,-0.243518519,1,0,0,1.2447,Basalt_rect,11,0,11,0,1,
665696a90e34e3e67cfcfdc0,TCN,2024-06-24_17h32.52.085,LearnStrategy,2023.2.3,Win32,59.88023952,4,2,13,,,,,,,,6,05,,,,,,,,,,,6,2.077,1,,,,,,-0.121296296,-0.421296296,1,0,0,2.0771,Pegmatite_rect,12,0,12,0,1,
665696a90e34e3e67cfcfdc0,TCN,2024-06-24_17h32.52.085,LearnStrategy,2023.2.3,Win32,59.88023952,4,2,14,,,,,,,,5,08,,,,,,,,,,,5,1.244,1,,,,,,-0.333333333,-0.397222222,1,0,0,1.2443,Obsidian_rect,13,0,13,0,1,
665696a90e34e3e67cfcfdc0,TCN,2024-06-24_17h32.52.085,LearnStrategy,2023.2.3,Win32,59.88023952,4,2,15,,,,,,,,7,08,,,,,,,,,,,7,1.6,1,,,,,,0.125925926,-0.415740741,1,0,0,1.6002,Peridotite_rect,14,0,14,0,1,
665696a90e34e3e67cfcfdc0,TCN,2024-06-24_17h32.52.085,LearnStrategy,2023.2.3,Win32,59.88023952,4,2,16,,,,,,,,7,05,,,,,,,,,,,7,1.183,1,,,,,,0.125925926,-0.415740741,1,0,0,1.1833,Peridotite_rect,15,0,15,0,1,
665696a90e34e3e67cfcfdc0,TCN,2024-06-24_17h32.52.085,LearnStrategy,2023.2.3,Win32,59.88023952,5,1,1,0.015740741,0.005555556,1,0,0,1.1486,rock_grid_rect_2,1,05,-1,-1,1.149,-0.382407407,-0.262962963,1,0,0,2.8506,Andesite_rect,1,2.851,1,0,0,0,0,1,,,,,,,,,,,,,
665696a90e34e3e67cfcfdc0,TCN,2024-06-24_17h32.52.085,LearnStrategy,2023.2.3,Win32,59.88023952,5,1,2,-0.030555556,0.008333333,1,0,0,1.3029,rock_grid_rect_2,2,01,-1,-1,1.303,-0.083333333,-0.251851852,1,0,0,1.1144,Basalt_rect,2,1.114,1,1,0,1,0,1,,,,,,,,,,,,,
665696a90e34e3e67cfcfdc0,TCN,2024-06-24_17h32.52.085,LearnStrategy,2023.2.3,Win32,59.88023952,5,1,3,0.038888889,0.011111111,1,0,0,0.9154,rock_grid_rect_2,5,14,-1,-1,0.915,-0.321296296,-0.389814815,1,0,0,1.6509,Obsidian_rect,5,1.651,1,2,0,2,0,1,,,,,,,,,,,,,
665696a90e34e3e67cfcfdc0,TCN,2024-06-24_17h32.52.085,LearnStrategy,2023.2.3,Win32,59.88023952,5,1,4,0.007407407,-0.000925926,1,0,0,1.3427,rock_grid_rect_2,7,06,-1,-1,1.343,0.144444444,-0.415740741,1,0,0,1.0335,Peridotite_rect,7,1.034,1,3,0,3,0,1,,,,,,,,,,,,,
665696a90e34e3e67cfcfdc0,TCN,2024-06-24_17h32.52.085,LearnStrategy,2023.2.3,Win32,59.88023952,5,1,5,-0.013888889,-0.006481481,1,0,0,1.0648,rock_grid_rect_2,4,05,-1,-1,1.065,0.114814815,-0.243518519,1,0,0,1.1523,Diorite_rect,3,1.152,0,4,0,4,0,1,,,,,,,,,,,,,
665696a90e34e3e67cfcfdc0,TCN,2024-06-24_17h32.52.085,LearnStrategy,2023.2.3,Win32,59.88023952,5,1,6,0.032407407,-0.014814815,1,0,0,1.0193,rock_grid_rect_2,4,12,-1,-1,1.019,0.327777778,-0.236111111,1,0,0,3.5644,Gabbro_rect,4,3.564,1,5,0,5,0,1,,,,,,,,,,,,,
665696a90e34e3e67cfcfdc0,TCN,2024-06-24_17h32.52.085,LearnStrategy,2023.2.3,Win32,59.88023952,5,1,7,-0.037037037,0.023148148,1,0,0,1.7335,rock_grid_rect_2,3,09,-1,-1,1.734,-0.106481481,-0.397222222,1,0,0,1.7794,Pegmatite_rect,6,1.779,0,6,0,6,0,1,,,,,,,,,,,,,
665696a90e34e3e67cfcfdc0,TCN,2024-06-24_17h32.52.085,LearnStrategy,2023.2.3,Win32,59.88023952,5,1,8,-0.02037037,0.002777778,1,0,0,0.8822,rock_grid_rect_2,8,09,-1,-1,0.882,0.407407407,-0.412037037,1,0,0,1.2666,Pumice_rect,8,1.267,1,7,0,7,0,1,,,,,,,,,,,,,
665696a90e34e3e67cfcfdc0,TCN,2024-06-24_17h32.52.085,LearnStrategy,2023.2.3,Win32,59.88023952,5,1,9,0.027777778,-0.00462963,1,0,0,0.9661,rock_grid_rect_2,6,12,-1,-1,0.966,0.04537037,-0.386111111,1,0,0,2.4007,Peridotite_rect,7,2.401,0,8,0,8,0,1,,,,,,,,,,,,,
665696a90e34e3e67cfcfdc0,TCN,2024-06-24_17h32.52.085,LearnStrategy,2023.2.3,Win32,59.88023952,5,1,10,0.028703704,-0.00462963,1,0,0,0.8983,rock_grid_rect_2,6,16,-1,-1,0.898,-0.134259259,-0.394444444,1,0,0,1.7829,Pegmatite_rect,6,1.783,1,9,0,9,0,1,,,,,,,,,,,,,
665696a90e34e3e67cfcfdc0,TCN,2024-06-24_17h32.52.085,LearnStrategy,2023.2.3,Win32,59.88023952,5,1,11,0.022222222,-0.011111111,1,0,0,1.1153,rock_grid_rect_2,5,11,-1,-1,1.115,-0.340740741,-0.385185185,1,0,0,1.2675,Obsidian_rect,5,1.267,1,10,0,10,0,1,,,,,,,,,,,,,
665696a90e34e3e67cfcfdc0,TCN,2024-06-24_17h32.52.085,LearnStrategy,2023.2.3,Win32,59.88023952,5,1,12,0.012037037,0,1,0,0,0.9191,rock_grid_rect_2,8,08,-1,-1,0.919,0.342592593,-0.414814815,1,0,0,1.1964,Pumice_rect,8,1.196,1,11,0,11,0,1,,,,,,,,,,,,,
665696a90e34e3e67cfcfdc0,TCN,2024-06-24_17h32.52.085,LearnStrategy,2023.2.3,Win32,59.88023952,5,1,13,0.015740741,0.003703704,1,0,0,0.9987,rock_grid_rect_2,3,11,-1,-1,0.999,0.175,-0.266666667,1,0,0,4.4345,Diorite_rect,3,4.434,1,12,0,12,0,1,,,,,,,,,,,,,
665696a90e34e3e67cfcfdc0,TCN,2024-06-24_17h32.52.085,LearnStrategy,2023.2.3,Win32,59.88023952,5,1,14,0.025,-0.000925926,1,0,0,1.4528,rock_grid_rect_2,1,07,-1,-1,1.453,0.343518519,-0.244444444,1,0,0,3.5639,Gabbro_rect,4,3.564,0,13,0,13,0,1,,,,,,,,,,,,,
665696a90e34e3e67cfcfdc0,TCN,2024-06-24_17h32.52.085,LearnStrategy,2023.2.3,Win32,59.88023952,5,1,15,-0.015740741,-0.013888889,1,0,0,1.4648,rock_grid_rect_2,2,02,-1,-1,1.465,-0.124074074,-0.234259259,1,0,0,1.0689,Basalt_rect,2,1.069,1,14,0,14,0,1,,,,,,,,,,,,,
665696a90e34e3e67cfcfdc0,TCN,2024-06-24_17h32.52.085,LearnStrategy,2023.2.3,Win32,59.88023952,5,1,16,0.010185185,-0.012037037,1,0,0,1.0491,rock_grid_rect_2,7,04,-1,-1,1.049,-0.097222222,-0.393518519,1,0,0,2.7187,Pegmatite_rect,6,2.719,0,15,0,15,0,1,,,,,,,,,,,,,
665696a90e34e3e67cfcfdc0,TCN,2024-06-24_17h32.52.085,LearnStrategy,2023.2.3,Win32,59.88023952,5,2,1,,,,,,,,4,10,,,,,,,,,,,8,2.801,0,,,,,,0.375,-0.413888889,1,0,0,2.8007,Pumice_rect,0,0,0,0,1,
665696a90e34e3e67cfcfdc0,TCN,2024-06-24_17h32.52.085,LearnStrategy,2023.2.3,Win32,59.88023952,5,2,2,,,,,,,,3,14,,,,,,,,,,,4,2.301,0,,,,,,0.374074074,-0.255555556,1,0,0,2.3008,Gabbro_rect,1,0,1,0,1,
665696a90e34e3e67cfcfdc0,TCN,2024-06-24_17h32.52.085,LearnStrategy,2023.2.3,Win32,59.88023952,5,2,3,,,,,,,,3,07,,,,,,,,,,,4,1.918,0,,,,,,0.374074074,-0.252777778,1,0,0,1.9182,Gabbro_rect,2,0,2,0,1,
665696a90e34e3e67cfcfdc0,TCN,2024-06-24_17h32.52.085,LearnStrategy,2023.2.3,Win32,59.88023952,5,2,4,,,,,,,,1,06,,,,,,,,,,,4,3.22,0,,,,,,0.374074074,-0.251851852,1,0,0,3.2197,Gabbro_rect,3,0,3,0,1,
665696a90e34e3e67cfcfdc0,TCN,2024-06-24_17h32.52.085,LearnStrategy,2023.2.3,Win32,59.88023952,5,2,5,,,,,,,,4,16,,,,,,,,,,,3,1.769,0,,,,,,0.136111111,-0.25462963,1,0,0,1.7688,Diorite_rect,4,0,4,0,1,
665696a90e34e3e67cfcfdc0,TCN,2024-06-24_17h32.52.085,LearnStrategy,2023.2.3,Win32,59.88023952,5,2,6,,,,,,,,8,03,,,,,,,,,,,8,1.085,1,,,,,,0.327777778,-0.4,1,0,0,1.0849,Pumice_rect,5,0,5,0,1,
665696a90e34e3e67cfcfdc0,TCN,2024-06-24_17h32.52.085,LearnStrategy,2023.2.3,Win32,59.88023952,5,2,7,,,,,,,,7,10,,,,,,,,,,,7,1.22,1,,,,,,0.177777778,-0.407407407,1,0,0,1.2196,Peridotite_rect,6,0,6,0,1,
665696a90e34e3e67cfcfdc0,TCN,2024-06-24_17h32.52.085,LearnStrategy,2023.2.3,Win32,59.88023952,5,2,8,,,,,,,,6,11,,,,,,,,,,,6,1.651,1,,,,,,-0.071296296,-0.393518519,1,0,0,1.6505,Pegmatite_rect,7,0,7,0,1,
665696a90e34e3e67cfcfdc0,TCN,2024-06-24_17h32.52.085,LearnStrategy,2023.2.3,Win32,59.88023952,5,2,9,,,,,,,,7,16,,,,,,,,,,,7,1.995,1,,,,,,0.07962963,-0.390740741,1,0,0,1.9954,Peridotite_rect,8,0,8,0,1,
665696a90e34e3e67cfcfdc0,TCN,2024-06-24_17h32.52.085,LearnStrategy,2023.2.3,Win32,59.88023952,5,2,10,,,,,,,,1,11,,,,,,,,,,,1,1.75,1,,,,,,-0.375925926,-0.233333333,1,0,0,1.7502,Andesite_rect,9,0,9,0,1,
665696a90e34e3e67cfcfdc0,TCN,2024-06-24_17h32.52.085,LearnStrategy,2023.2.3,Win32,59.88023952,5,2,11,,,,,,,,5,10,,,,,,,,,,,5,1.251,1,,,,,,-0.355555556,-0.381481481,1,0,0,1.2509,Obsidian_rect,10,0,10,0,1,
665696a90e34e3e67cfcfdc0,TCN,2024-06-24_17h32.52.085,LearnStrategy,2023.2.3,Win32,59.88023952,5,2,12,,,,,,,,2,04,,,,,,,,,,,5,3.218,0,,,,,,-0.349074074,-0.378703704,1,0,0,3.2184,Obsidian_rect,11,0,11,0,1,
665696a90e34e3e67cfcfdc0,TCN,2024-06-24_17h32.52.085,LearnStrategy,2023.2.3,Win32,59.88023952,5,2,13,,,,,,,,8,04,,,,,,,,,,,8,1.649,1,,,,,,0.339814815,-0.412037037,1,0,0,1.6495,Pumice_rect,12,0,12,0,1,
665696a90e34e3e67cfcfdc0,TCN,2024-06-24_17h32.52.085,LearnStrategy,2023.2.3,Win32,59.88023952,5,2,14,,,,,,,,5,04,,,,,,,,,,,5,1.867,1,,,,,,-0.333333333,-0.387962963,1,0,0,1.8669,Obsidian_rect,13,0,13,0,1,
665696a90e34e3e67cfcfdc0,TCN,2024-06-24_17h32.52.085,LearnStrategy,2023.2.3,Win32,59.88023952,5,2,15,,,,,,,,2,12,,,,,,,,,,,2,1.716,1,,,,,,-0.150925926,-0.251851852,1,0,0,1.7159,Basalt_rect,14,0,14,0,1,
665696a90e34e3e67cfcfdc0,TCN,2024-06-24_17h32.52.085,LearnStrategy,2023.2.3,Win32,59.88023952,5,2,16,,,,,,,,6,06,,,,,,,,,,,7,2.434,0,,,,,,0.088888889,-0.410185185,1,0,0,2.4343,Peridotite_rect,15,0,15,0,1,
665696a90e34e3e67cfcfdc0,TCN,2024-06-24_17h32.52.085,LearnStrategy,2023.2.3,Win32,59.88023952,6,1,1,0.001851852,-0.021296296,1,0,0,1.3159,rock_grid_rect_2,4,11,-1,-1,1.316,-0.116666667,-0.260185185,1,0,0,3.8178,Basalt_rect,2,3.818,0,0,0,0,0,1,,,,,,,,,,,,,
665696a90e34e3e67cfcfdc0,TCN,2024-06-24_17h32.52.085,LearnStrategy,2023.2.3,Win32,59.88023952,6,1,2,-0.034259259,-0.015740741,1,0,0,1.0019,rock_grid_rect_2,5,02,-1,-1,1.002,-0.317592593,-0.406481481,1,0,0,1.2954,Obsidian_rect,5,1.295,1,1,0,1,0,1,,,,,,,,,,,,,
665696a90e34e3e67cfcfdc0,TCN,2024-06-24_17h32.52.085,LearnStrategy,2023.2.3,Win32,59.88023952,6,1,3,-0.006481481,0.00462963,1,0,0,1.4315,rock_grid_rect_2,7,07,-1,-1,1.432,0.107407407,-0.392592593,1,0,0,1.5671,Peridotite_rect,7,1.567,1,2,0,2,0,1,,,,,,,,,,,,,
665696a90e34e3e67cfcfdc0,TCN,2024-06-24_17h32.52.085,LearnStrategy,2023.2.3,Win32,59.88023952,6,1,4,-0.001851852,0.000925926,1,0,0,0.9204,rock_grid_rect_2,6,03,-1,-1,0.92,-0.109259259,-0.400925926,1,0,0,1.499,Pegmatite_rect,6,1.499,1,3,0,3,0,1,,,,,,,,,,,,,
665696a90e34e3e67cfcfdc0,TCN,2024-06-24_17h32.52.085,LearnStrategy,2023.2.3,Win32,59.88023952,6,1,5,-0.002777778,-0.009259259,1,0,0,1.3193,rock_grid_rect_2,8,02,-1,-1,1.319,0.357407407,-0.412962963,1,0,0,1.2639,Pumice_rect,8,1.264,1,4,0,4,0,1,,,,,,,,,,,,,
665696a90e34e3e67cfcfdc0,TCN,2024-06-24_17h32.52.085,LearnStrategy,2023.2.3,Win32,59.88023952,6,1,6,-0.044444444,0.012962963,1,0,0,1.4322,rock_grid_rect_2,6,07,-1,-1,1.432,0.094444444,-0.261111111,1,0,0,6.7529,Diorite_rect,3,6.753,0,5,0,5,0,1,,,,,,,,,,,,,
665696a90e34e3e67cfcfdc0,TCN,2024-06-24_17h32.52.085,LearnStrategy,2023.2.3,Win32,59.88023952,6,1,7,0.02037037,-0.015740741,1,0,0,1.2148,rock_grid_rect_2,3,02,-1,-1,1.215,0.363888889,-0.259259259,1,0,0,3.302,Gabbro_rect,4,3.302,0,6,0,6,0,1,,,,,,,,,,,,,
665696a90e34e3e67cfcfdc0,TCN,2024-06-24_17h32.52.085,LearnStrategy,2023.2.3,Win32,59.88023952,6,1,8,0.001851852,-0.002777778,1,0,0,1.2982,rock_grid_rect_2,3,15,-1,-1,1.298,0.360185185,-0.247222222,1,0,0,2.6181,Gabbro_rect,4,2.618,0,7,0,7,0,1,,,,,,,,,,,,,
665696a90e34e3e67cfcfdc0,TCN,2024-06-24_17h32.52.085,LearnStrategy,2023.2.3,Win32,59.88023952,6,1,9,0.063888889,0.022222222,1,0,0,0.895,rock_grid_rect_2,8,13,-1,-1,0.895,0.337037037,-0.40462963,1,0,0,1.1536,Pumice_rect,8,1.154,1,8,0,8,0,1,,,,,,,,,,,,,
665696a90e34e3e67cfcfdc0,TCN,2024-06-24_17h32.52.085,LearnStrategy,2023.2.3,Win32,59.88023952,6,1,10,0.037962963,0.008333333,1,0,0,1.0807,rock_grid_rect_2,5,09,-1,-1,1.081,-0.330555556,-0.403703704,1,0,0,1.0496,Obsidian_rect,5,1.05,1,9,0,9,0,1,,,,,,,,,,,,,
665696a90e34e3e67cfcfdc0,TCN,2024-06-24_17h32.52.085,LearnStrategy,2023.2.3,Win32,59.88023952,6,1,11,-0.010185185,-0.008333333,1,0,0,0.8818,rock_grid_rect_2,1,16,-1,-1,0.882,-0.35,-0.237037037,1,0,0,2.0195,Andesite_rect,1,2.019,1,10,0,10,0,1,,,,,,,,,,,,,
665696a90e34e3e67cfcfdc0,TCN,2024-06-24_17h32.52.085,LearnStrategy,2023.2.3,Win32,59.88023952,6,1,12,0.015740741,-0.00462963,1,0,0,1.1323,rock_grid_rect_2,2,11,-1,-1,1.132,-0.096296296,-0.262037037,1,0,0,1.2677,Basalt_rect,2,1.268,1,11,0,11,0,1,,,,,,,,,,,,,
665696a90e34e3e67cfcfdc0,TCN,2024-06-24_17h32.52.085,LearnStrategy,2023.2.3,Win32,59.88023952,6,1,13,0.011111111,-0.008333333,1,0,0,0.9818,rock_grid_rect_2,1,03,-1,-1,0.982,-0.357407407,-0.268518519,1,0,0,1.4509,Andesite_rect,1,1.451,1,12,0,12,0,1,,,,,,,,,,,,,
665696a90e34e3e67cfcfdc0,TCN,2024-06-24_17h32.52.085,LearnStrategy,2023.2.3,Win32,59.88023952,6,1,14,-0.053703704,0.003703704,1,0,0,0.7655,rock_grid_rect_2,4,08,-1,-1,0.765,-0.089814815,-0.396296296,1,0,0,2.7343,Pegmatite_rect,6,2.734,0,13,0,13,0,1,,,,,,,,,,,,,
665696a90e34e3e67cfcfdc0,TCN,2024-06-24_17h32.52.085,LearnStrategy,2023.2.3,Win32,59.88023952,6,1,15,-0.024074074,-0.00462963,1,0,0,0.953,rock_grid_rect_2,2,14,-1,-1,0.953,0.108333333,-0.401851852,1,0,0,1.9798,Peridotite_rect,7,1.98,0,14,0,14,0,1,,,,,,,,,,,,,
665696a90e34e3e67cfcfdc0,TCN,2024-06-24_17h32.52.085,LearnStrategy,2023.2.3,Win32,59.88023952,6,1,16,0.061111111,-0.022222222,1,0,0,2.0202,rock_grid_rect_2,7,12,-1,-1,2.02,0.090740741,-0.385185185,1,0,0,1.2803,Peridotite_rect,7,1.28,1,15,0,15,0,1,,,,,,,,,,,,,
665696a90e34e3e67cfcfdc0,TCN,2024-06-24_17h32.52.085,LearnStrategy,2023.2.3,Win32,59.88023952,6,2,1,,,,,,,,8,16,,,,,,,,,,,2,1.405,0,,,,,,-0.112037037,-0.250925926,1,0,0,1.4049,Basalt_rect,0,0,0,0,1,
665696a90e34e3e67cfcfdc0,TCN,2024-06-24_17h32.52.085,LearnStrategy,2023.2.3,Win32,59.88023952,6,2,2,,,,,,,,1,09,,,,,,,,,,,4,3.585,0,,,,,,0.359259259,-0.25462963,1,0,0,3.5845,Gabbro_rect,1,0,1,0,1,
665696a90e34e3e67cfcfdc0,TCN,2024-06-24_17h32.52.085,LearnStrategy,2023.2.3,Win32,59.88023952,6,2,3,,,,,,,,4,14,,,,,,,,,,,2,1.951,0,,,,,,-0.097222222,-0.252777778,1,0,0,1.9513,Basalt_rect,2,0,2,0,1,
665696a90e34e3e67cfcfdc0,TCN,2024-06-24_17h32.52.085,LearnStrategy,2023.2.3,Win32,59.88023952,6,2,4,,,,,,,,3,06,,,,,,,,,,,3,3.128,1,,,,,,0.082407407,-0.259259259,1,0,0,3.1283,Diorite_rect,3,0,3,0,1,
665696a90e34e3e67cfcfdc0,TCN,2024-06-24_17h32.52.085,LearnStrategy,2023.2.3,Win32,59.88023952,6,2,5,,,,,,,,1,14,,,,,,,,,,,6,2.868,0,,,,,,-0.116666667,-0.403703704,1,0,0,2.8678,Pegmatite_rect,4,0,4,0,1,
665696a90e34e3e67cfcfdc0,TCN,2024-06-24_17h32.52.085,LearnStrategy,2023.2.3,Win32,59.88023952,6,2,6,,,,,,,,8,06,,,,,,,,,,,8,1.167,1,,,,,,0.35462963,-0.417592593,1,0,0,1.1673,Pumice_rect,5,0,5,0,1,
665696a90e34e3e67cfcfdc0,TCN,2024-06-24_17h32.52.085,LearnStrategy,2023.2.3,Win32,59.88023952,6,2,7,,,,,,,,5,12,,,,,,,,,,,5,1.521,1,,,,,,-0.339814815,-0.390740741,1,0,0,1.5207,Obsidian_rect,6,0,6,0,1,
665696a90e34e3e67cfcfdc0,TCN,2024-06-24_17h32.52.085,LearnStrategy,2023.2.3,Win32,59.88023952,6,2,8,,,,,,,,4,13,,,,,,,,,,,2,1.768,0,,,,,,-0.124074074,-0.25462963,1,0,0,1.7676,Basalt_rect,7,0,7,0,1,
665696a90e34e3e67cfcfdc0,TCN,2024-06-24_17h32.52.085,LearnStrategy,2023.2.3,Win32,59.88023952,6,2,9,,,,,,,,6,13,,,,,,,,,,,6,2.501,1,,,,,,-0.123148148,-0.410185185,1,0,0,2.5006,Pegmatite_rect,8,0,8,0,1,
665696a90e34e3e67cfcfdc0,TCN,2024-06-24_17h32.52.085,LearnStrategy,2023.2.3,Win32,59.88023952,6,2,10,,,,,,,,5,16,,,,,,,,,,,5,1.267,1,,,,,,-0.350925926,-0.393518519,1,0,0,1.2667,Obsidian_rect,9,0,9,0,1,
665696a90e34e3e67cfcfdc0,TCN,2024-06-24_17h32.52.085,LearnStrategy,2023.2.3,Win32,59.88023952,6,2,11,,,,,,,,2,16,,,,,,,,,,,2,1.532,1,,,,,,-0.174074074,-0.237037037,1,0,0,1.5324,Basalt_rect,10,0,10,0,1,
665696a90e34e3e67cfcfdc0,TCN,2024-06-24_17h32.52.085,LearnStrategy,2023.2.3,Win32,59.88023952,6,2,12,,,,,,,,2,05,,,,,,,,,,,2,2.835,1,,,,,,-0.174074074,-0.237037037,1,0,0,2.8349,Basalt_rect,11,0,11,0,1,
665696a90e34e3e67cfcfdc0,TCN,2024-06-24_17h32.52.085,LearnStrategy,2023.2.3,Win32,59.88023952,6,2,13,,,,,,,,7,15,,,,,,,,,,,7,1.383,1,,,,,,0.060185185,-0.398148148,1,0,0,1.3835,Peridotite_rect,12,0,12,0,1,
665696a90e34e3e67cfcfdc0,TCN,2024-06-24_17h32.52.085,LearnStrategy,2023.2.3,Win32,59.88023952,6,2,14,,,,,,,,7,02,,,,,,,,,,,7,1.283,1,,,,,,0.062962963,-0.398148148,1,0,0,1.2832,Peridotite_rect,13,0,13,0,1,
665696a90e34e3e67cfcfdc0,TCN,2024-06-24_17h32.52.085,LearnStrategy,2023.2.3,Win32,59.88023952,6,2,15,,,,,,,,3,13,,,,,,,,,,,4,3.469,0,,,,,,0.37962963,-0.259259259,1,0,0,3.469,Gabbro_rect,14,0,14,0,1,
665696a90e34e3e67cfcfdc0,TCN,2024-06-24_17h32.52.085,LearnStrategy,2023.2.3,Win32,59.88023952,6,2,16,,,,,,,,6,09,,,,,,,,,,,6,1.584,1,,,,,,-0.150925926,-0.384259259,1,0,0,1.5836,Pegmatite_rect,15,0,15,0,1,
665696a90e34e3e67cfcfdc0,TCN,2024-06-24_17h32.52.085,LearnStrategy,2023.2.3,Win32,59.88023952,7,1,1,0.008333333,-0.012037037,1,0,0,1.1686,rock_grid_rect_2,1,07,-1,-1,1.169,0.380555556,-0.231481481,1,0,0,1.8451,Gabbro_rect,4,1.845,0,0,0,0,0,1,,,,,,,,,,,,,
665696a90e34e3e67cfcfdc0,TCN,2024-06-24_17h32.52.085,LearnStrategy,2023.2.3,Win32,59.88023952,7,1,2,0.012037037,0.003703704,1,0,0,1.0473,rock_grid_rect_2,1,16,-1,-1,1.047,0.34537037,-0.255555556,1,0,0,4.0338,Gabbro_rect,4,4.034,0,1,0,1,0,1,,,,,,,,,,,,,
665696a90e34e3e67cfcfdc0,TCN,2024-06-24_17h32.52.085,LearnStrategy,2023.2.3,Win32,59.88023952,7,1,3,0.009259259,-0.019444444,1,0,0,0.915,rock_grid_rect_2,2,01,-1,-1,0.915,-0.127777778,-0.237037037,1,0,0,1.4013,Basalt_rect,2,1.401,1,2,0,2,0,1,,,,,,,,,,,,,
665696a90e34e3e67cfcfdc0,TCN,2024-06-24_17h32.52.085,LearnStrategy,2023.2.3,Win32,59.88023952,7,1,4,-0.025925926,0.005555556,1,0,0,1.0819,rock_grid_rect_2,8,08,-1,-1,1.082,0.325925926,-0.409259259,1,0,0,1.2172,Pumice_rect,8,1.217,1,3,0,3,0,1,,,,,,,,,,,,,
665696a90e34e3e67cfcfdc0,TCN,2024-06-24_17h32.52.085,LearnStrategy,2023.2.3,Win32,59.88023952,7,1,5,0.036111111,0.011111111,1,0,0,0.9162,rock_grid_rect_2,7,14,-1,-1,0.916,-0.134259259,-0.419444444,1,0,0,1.634,Pegmatite_rect,6,1.634,0,4,0,4,0,1,,,,,,,,,,,,,
665696a90e34e3e67cfcfdc0,TCN,2024-06-24_17h32.52.085,LearnStrategy,2023.2.3,Win32,59.88023952,7,1,6,0.014814815,-0.015740741,1,0,0,0.8858,rock_grid_rect_2,8,09,-1,-1,0.886,0.357407407,-0.418518519,1,0,0,1.2315,Pumice_rect,8,1.231,1,5,0,5,0,1,,,,,,,,,,,,,
665696a90e34e3e67cfcfdc0,TCN,2024-06-24_17h32.52.085,LearnStrategy,2023.2.3,Win32,59.88023952,7,1,7,0.02037037,0.005555556,1,0,0,1.0154,rock_grid_rect_2,5,02,-1,-1,1.015,-0.351851852,-0.403703704,1,0,0,1.619,Obsidian_rect,5,1.619,1,6,0,6,0,1,,,,,,,,,,,,,
665696a90e34e3e67cfcfdc0,TCN,2024-06-24_17h32.52.085,LearnStrategy,2023.2.3,Win32,59.88023952,7,1,8,-0.014814815,0.005555556,1,0,0,1.1687,rock_grid_rect_2,3,02,-1,-1,1.169,0.107407407,-0.259259259,1,0,0,2.0312,Diorite_rect,3,2.031,1,7,0,7,0,1,,,,,,,,,,,,,
665696a90e34e3e67cfcfdc0,TCN,2024-06-24_17h32.52.085,LearnStrategy,2023.2.3,Win32,59.88023952,7,1,9,-0.005555556,-0.009259259,1,0,0,1.748,rock_grid_rect_2,7,07,-1,-1,1.748,0.1,-0.401851852,1,0,0,1.1521,Peridotite_rect,7,1.152,1,8,0,8,0,1,,,,,,,,,,,,,
665696a90e34e3e67cfcfdc0,TCN,2024-06-24_17h32.52.085,LearnStrategy,2023.2.3,Win32,59.88023952,7,1,10,-0.02037037,0.001851852,1,0,0,1.1636,rock_grid_rect_2,6,07,-1,-1,1.164,-0.07962963,-0.402777778,1,0,0,1.3505,Pegmatite_rect,6,1.351,1,9,0,9,0,1,,,,,,,,,,,,,
665696a90e34e3e67cfcfdc0,TCN,2024-06-24_17h32.52.085,LearnStrategy,2023.2.3,Win32,59.88023952,7,1,11,0.011111111,-0.007407407,1,0,0,1.2324,rock_grid_rect_2,4,11,-1,-1,1.232,-0.110185185,-0.262037037,1,0,0,1.5184,Basalt_rect,2,1.518,0,10,0,10,0,1,,,,,,,,,,,,,
665696a90e34e3e67cfcfdc0,TCN,2024-06-24_17h32.52.085,LearnStrategy,2023.2.3,Win32,59.88023952,7,1,12,0.014814815,-0.010185185,1,0,0,1.1317,rock_grid_rect_2,5,11,-1,-1,1.132,-0.346296296,-0.396296296,1,0,0,1.253,Obsidian_rect,5,1.253,1,11,0,11,0,1,,,,,,,,,,,,,
665696a90e34e3e67cfcfdc0,TCN,2024-06-24_17h32.52.085,LearnStrategy,2023.2.3,Win32,59.88023952,7,1,13,0.028703704,0.005555556,1,0,0,1.2369,rock_grid_rect_2,3,08,-1,-1,1.237,0.149074074,-0.240740741,1,0,0,3.9464,Diorite_rect,3,3.946,1,12,0,12,0,1,,,,,,,,,,,,,
665696a90e34e3e67cfcfdc0,TCN,2024-06-24_17h32.52.085,LearnStrategy,2023.2.3,Win32,59.88023952,7,1,14,0.008333333,0.001851852,1,0,0,1.2365,rock_grid_rect_2,6,12,-1,-1,1.236,0.426851852,-0.267592593,1,0,0,2.8294,Gabbro_rect,4,2.829,0,13,0,13,0,1,,,,,,,,,,,,,
665696a90e34e3e67cfcfdc0,TCN,2024-06-24_17h32.52.085,LearnStrategy,2023.2.3,Win32,59.88023952,7,1,15,0.001851852,-0.010185185,1,0,0,0.815,rock_grid_rect_2,2,14,-1,-1,0.815,-0.131481481,-0.262037037,1,0,0,1.5009,Basalt_rect,2,1.501,1,14,0,14,0,1,,,,,,,,,,,,,
665696a90e34e3e67cfcfdc0,TCN,2024-06-24_17h32.52.085,LearnStrategy,2023.2.3,Win32,59.88023952,7,1,16,0.012962963,-0.016666667,1,0,0,1.3663,rock_grid_rect_2,4,12,-1,-1,1.366,0.351851852,-0.262037037,1,0,0,2.0508,Gabbro_rect,4,2.051,1,15,0,15,0,1,,,,,,,,,,,,,
665696a90e34e3e67cfcfdc0,TCN,2024-06-24_17h32.52.085,LearnStrategy,2023.2.3,Win32,59.88023952,7,2,1,,,,,,,,6,11,,,,,,,,,,,6,1.086,1,,,,,,-0.091666667,-0.398148148,1,0,0,1.0856,Pegmatite_rect,0,0,0,0,1,
665696a90e34e3e67cfcfdc0,TCN,2024-06-24_17h32.52.085,LearnStrategy,2023.2.3,Win32,59.88023952,7,2,2,,,,,,,,6,09,,,,,,,,,,,6,1.684,1,,,,,,-0.091666667,-0.398148148,1,0,0,1.6842,Pegmatite_rect,1,0,1,0,1,
665696a90e34e3e67cfcfdc0,TCN,2024-06-24_17h32.52.085,LearnStrategy,2023.2.3,Win32,59.88023952,7,2,3,,,,,,,,7,02,,,,,,,,,,,7,1.067,1,,,,,,0.098148148,-0.411111111,1,0,0,1.0665,Peridotite_rect,2,0,2,0,1,
665696a90e34e3e67cfcfdc0,TCN,2024-06-24_17h32.52.085,LearnStrategy,2023.2.3,Win32,59.88023952,7,2,4,,,,,,,,7,08,,,,,,,,,,,7,1.218,1,,,,,,0.098148148,-0.411111111,1,0,0,1.2181,Peridotite_rect,3,0,3,0,1,
665696a90e34e3e67cfcfdc0,TCN,2024-06-24_17h32.52.085,LearnStrategy,2023.2.3,Win32,59.88023952,7,2,5,,,,,,,,1,04,,,,,,,,,,,4,1.97,0,,,,,,0.387037037,-0.228703704,1,0,0,1.9703,Gabbro_rect,4,0,4,0,1,
665696a90e34e3e67cfcfdc0,TCN,2024-06-24_17h32.52.085,LearnStrategy,2023.2.3,Win32,59.88023952,7,2,6,,,,,,,,8,14,,,,,,,,,,,8,1.051,1,,,,,,0.401851852,-0.37962963,1,0,0,1.0508,Pumice_rect,5,0,5,0,1,
665696a90e34e3e67cfcfdc0,TCN,2024-06-24_17h32.52.085,LearnStrategy,2023.2.3,Win32,59.88023952,7,2,7,,,,,,,,3,13,,,,,,,,,,,3,5.001,1,,,,,,0.064814815,-0.241666667,1,0,0,5.0014,Diorite_rect,6,0,6,0,1,
665696a90e34e3e67cfcfdc0,TCN,2024-06-24_17h32.52.085,LearnStrategy,2023.2.3,Win32,59.88023952,7,2,8,,,,,,,,8,05,,,,,,,,,,,8,1.094,1,,,,,,0.35462963,-0.407407407,1,0,0,1.0945,Pumice_rect,7,0,7,0,1,
665696a90e34e3e67cfcfdc0,TCN,2024-06-24_17h32.52.085,LearnStrategy,2023.2.3,Win32,59.88023952,7,2,9,,,,,,,,5,16,,,,,,,,,,,5,1.251,1,,,,,,-0.386111111,-0.390740741,1,0,0,1.2514,Obsidian_rect,8,0,8,0,1,
665696a90e34e3e67cfcfdc0,TCN,2024-06-24_17h32.52.085,LearnStrategy,2023.2.3,Win32,59.88023952,7,2,10,,,,,,,,1,06,,,,,,,,,,,1,1.267,1,,,,,,-0.365740741,-0.253703704,1,0,0,1.2672,Andesite_rect,9,0,9,0,1,
665696a90e34e3e67cfcfdc0,TCN,2024-06-24_17h32.52.085,LearnStrategy,2023.2.3,Win32,59.88023952,7,2,11,,,,,,,,2,04,,,,,,,,,,,2,1.434,1,,,,,,-0.197222222,-0.262962963,1,0,0,1.4344,Basalt_rect,10,0,10,0,1,
665696a90e34e3e67cfcfdc0,TCN,2024-06-24_17h32.52.085,LearnStrategy,2023.2.3,Win32,59.88023952,7,2,12,,,,,,,,4,10,,,,,,,,,,,2,5.117,0,,,,,,-0.07962963,-0.253703704,1,0,0,5.1168,Basalt_rect,11,0,11,0,1,
665696a90e34e3e67cfcfdc0,TCN,2024-06-24_17h32.52.085,LearnStrategy,2023.2.3,Win32,59.88023952,7,2,13,,,,,,,,2,12,,,,,,,,,,,8,1.986,0,,,,,,0.448148148,-0.42037037,1,0,0,1.986,Pumice_rect,12,0,12,0,1,
665696a90e34e3e67cfcfdc0,TCN,2024-06-24_17h32.52.085,LearnStrategy,2023.2.3,Win32,59.88023952,7,2,14,,,,,,,,3,10,,,,,,,,,,,1,2.75,0,,,,,,-0.361111111,-0.246296296,1,0,0,2.7497,Andesite_rect,13,0,13,0,1,
665696a90e34e3e67cfcfdc0,TCN,2024-06-24_17h32.52.085,LearnStrategy,2023.2.3,Win32,59.88023952,7,2,15,,,,,,,,5,10,,,,,,,,,,,5,1.028,1,,,,,,-0.365740741,-0.37962963,1,0,0,1.028,Obsidian_rect,14,0,14,0,1,
665696a90e34e3e67cfcfdc0,TCN,2024-06-24_17h32.52.085,LearnStrategy,2023.2.3,Win32,59.88023952,7,2,16,,,,,,,,4,03,,,,,,,,,,,4,2.183,1,,,,,,0.380555556,-0.237962963,1,0,0,2.1825,Gabbro_rect,15,0,15,0,1,
665696a90e34e3e67cfcfdc0,TCN,2024-06-24_17h32.52.085,LearnStrategy,2023.2.3,Win32,59.88023952,8,1,1,0.017592593,-0.003703704,1,0,0,2.3655,rock_grid_rect_2,4,15,-1,-1,2.365,-0.062037037,-0.240740741,1,0,0,1.1009,Basalt_rect,2,1.101,0,0,0,0,0,1,,,,,,,,,,,,,
665696a90e34e3e67cfcfdc0,TCN,2024-06-24_17h32.52.085,LearnStrategy,2023.2.3,Win32,59.88023952,8,1,2,-0.00462963,0.003703704,1,0,0,1.0319,rock_grid_rect_2,5,09,-1,-1,1.032,-0.372222222,-0.398148148,1,0,0,1.1014,Obsidian_rect,5,1.101,1,1,0,1,0,1,,,,,,,,,,,,,
665696a90e34e3e67cfcfdc0,TCN,2024-06-24_17h32.52.085,LearnStrategy,2023.2.3,Win32,59.88023952,8,1,3,-0.006481481,0.00462963,1,0,0,1.8846,rock_grid_rect_2,5,05,-1,-1,1.885,-0.387962963,-0.387962963,1,0,0,1.5978,Obsidian_rect,5,1.598,1,2,0,2,0,1,,,,,,,,,,,,,
665696a90e34e3e67cfcfdc0,TCN,2024-06-24_17h32.52.085,LearnStrategy,2023.2.3,Win32,59.88023952,8,1,4,0.014814815,-0.006481481,1,0,0,0.9157,rock_grid_rect_2,6,10,-1,-1,0.916,-0.092592593,-0.39537037,1,0,0,1.2681,Pegmatite_rect,6,1.268,1,3,0,3,0,1,,,,,,,,,,,,,
665696a90e34e3e67cfcfdc0,TCN,2024-06-24_17h32.52.085,LearnStrategy,2023.2.3,Win32,59.88023952,8,1,5,0.028703704,-0.002777778,1,0,0,0.9365,rock_grid_rect_2,6,16,-1,-1,0.937,-0.158333333,-0.402777778,1,0,0,1.4323,Pegmatite_rect,6,1.432,1,4,0,4,0,1,,,,,,,,,,,,,
665696a90e34e3e67cfcfdc0,TCN,2024-06-24_17h32.52.085,LearnStrategy,2023.2.3,Win32,59.88023952,8,1,6,0.030555556,0.012037037,1,0,0,0.7985,rock_grid_rect_2,2,02,-1,-1,0.798,-0.106481481,-0.262037037,1,0,0,1.417,Basalt_rect,2,1.417,1,5,0,5,0,1,,,,,,,,,,,,,
665696a90e34e3e67cfcfdc0,TCN,2024-06-24_17h32.52.085,LearnStrategy,2023.2.3,Win32,59.88023952,8,1,7,0.044444444,0.005555556,1,0,0,1.1469,rock_grid_rect_2,3,09,-1,-1,1.147,0.348148148,-0.257407407,1,0,0,2.5349,Gabbro_rect,4,2.535,0,6,0,6,0,1,,,,,,,,,,,,,
665696a90e34e3e67cfcfdc0,TCN,2024-06-24_17h32.52.085,LearnStrategy,2023.2.3,Win32,59.88023952,8,1,8,0.058333333,-0.008333333,1,0,0,1.1147,rock_grid_rect_2,8,15,-1,-1,1.115,0.319444444,-0.401851852,1,0,0,1.201,Pumice_rect,8,1.201,1,7,0,7,0,1,,,,,,,,,,,,,
665696a90e34e3e67cfcfdc0,TCN,2024-06-24_17h32.52.085,LearnStrategy,2023.2.3,Win32,59.88023952,8,1,9,0.037037037,0.011111111,1,0,0,0.8806,rock_grid_rect_2,7,06,-1,-1,0.881,0.086111111,-0.40462963,1,0,0,1.086,Peridotite_rect,7,1.086,1,8,0,8,0,1,,,,,,,,,,,,,
665696a90e34e3e67cfcfdc0,TCN,2024-06-24_17h32.52.085,LearnStrategy,2023.2.3,Win32,59.88023952,8,1,10,0.016666667,-0.009259259,1,0,0,0.9987,rock_grid_rect_2,2,11,-1,-1,0.999,0.32037037,-0.387037037,1,0,0,2.735,Pumice_rect,8,2.735,0,9,0,9,0,1,,,,,,,,,,,,,
665696a90e34e3e67cfcfdc0,TCN,2024-06-24_17h32.52.085,LearnStrategy,2023.2.3,Win32,59.88023952,8,1,11,0.024074074,-0.012037037,1,0,0,1.1361,rock_grid_rect_2,4,01,-1,-1,1.136,0.15,-0.392592593,1,0,0,1.7807,Peridotite_rect,7,1.781,0,10,0,10,0,1,,,,,,,,,,,,,
665696a90e34e3e67cfcfdc0,TCN,2024-06-24_17h32.52.085,LearnStrategy,2023.2.3,Win32,59.88023952,8,1,12,0.040740741,-0.012962963,1,0,0,1.015,rock_grid_rect_2,1,05,-1,-1,1.015,-0.352777778,-0.230555556,1,0,0,1.4332,Andesite_rect,1,1.433,1,11,0,11,0,1,,,,,,,,,,,,,
665696a90e34e3e67cfcfdc0,TCN,2024-06-24_17h32.52.085,LearnStrategy,2023.2.3,Win32,59.88023952,8,1,13,-0.018518519,-0.002777778,1,0,0,0.9642,rock_grid_rect_2,8,10,-1,-1,0.964,0.375925926,-0.391666667,1,0,0,1.1865,Pumice_rect,8,1.187,1,12,0,12,0,1,,,,,,,,,,,,,
665696a90e34e3e67cfcfdc0,TCN,2024-06-24_17h32.52.085,LearnStrategy,2023.2.3,Win32,59.88023952,8,1,14,0.037962963,-0.001851852,1,0,0,0.815,rock_grid_rect_2,3,12,-1,-1,0.815,0.387962963,-0.237962963,1,0,0,1.8179,Gabbro_rect,4,1.818,0,13,0,13,0,1,,,,,,,,,,,,,
665696a90e34e3e67cfcfdc0,TCN,2024-06-24_17h32.52.085,LearnStrategy,2023.2.3,Win32,59.88023952,8,1,15,0.017592593,0.017592593,1,0,0,1.2161,rock_grid_rect_2,7,13,-1,-1,1.216,0.116666667,-0.381481481,1,0,0,1.2523,Peridotite_rect,7,1.252,1,14,0,14,0,1,,,,,,,,,,,,,
665696a90e34e3e67cfcfdc0,TCN,2024-06-24_17h32.52.085,LearnStrategy,2023.2.3,Win32,59.88023952,8,1,16,0.013888889,0,1,0,0,0.8647,rock_grid_rect_2,1,03,-1,-1,0.865,-0.381481481,-0.247222222,1,0,0,2.0993,Andesite_rect,1,2.099,1,15,0,15,0,1,,,,,,,,,,,,,
665696a90e34e3e67cfcfdc0,TCN,2024-06-24_17h32.52.085,LearnStrategy,2023.2.3,Win32,59.88023952,8,2,1,,,,,,,,3,07,,,,,,,,,,,3,3.167,1,,,,,,0.181481481,-0.256481481,1,0,0,3.1666,Diorite_rect,0,0,0,0,1,
665696a90e34e3e67cfcfdc0,TCN,2024-06-24_17h32.52.085,LearnStrategy,2023.2.3,Win32,59.88023952,8,2,2,,,,,,,,8,03,,,,,,,,,,,8,1.494,1,,,,,,0.378703704,-0.419444444,1,0,0,1.4941,Pumice_rect,1,0,1,0,1,
665696a90e34e3e67cfcfdc0,TCN,2024-06-24_17h32.52.085,LearnStrategy,2023.2.3,Win32,59.88023952,8,2,3,,,,,,,,7,05,,,,,,,,,,,7,1.318,1,,,,,,0.142592593,-0.407407407,1,0,0,1.3179,Peridotite_rect,2,0,2,0,1,
665696a90e34e3e67cfcfdc0,TCN,2024-06-24_17h32.52.085,LearnStrategy,2023.2.3,Win32,59.88023952,8,2,4,,,,,,,,3,06,,,,,,,,,,,3,2.186,1,,,,,,0.127777778,-0.257407407,1,0,0,2.1861,Diorite_rect,3,0,3,0,1,
665696a90e34e3e67cfcfdc0,TCN,2024-06-24_17h32.52.085,LearnStrategy,2023.2.3,Win32,59.88023952,8,2,5,,,,,,,,7,15,,,,,,,,,,,7,1.148,1,,,,,,0.133333333,-0.401851852,1,0,0,1.1484,Peridotite_rect,4,0,4,0,1,
665696a90e34e3e67cfcfdc0,TCN,2024-06-24_17h32.52.085,LearnStrategy,2023.2.3,Win32,59.88023952,8,2,6,,,,,,,,6,06,,,,,,,,,,,4,4.049,0,,,,,,0.347222222,-0.267592593,1,0,0,4.0493,Gabbro_rect,5,0,5,0,1,
665696a90e34e3e67cfcfdc0,TCN,2024-06-24_17h32.52.085,LearnStrategy,2023.2.3,Win32,59.88023952,8,2,7,,,,,,,,6,15,,,,,,,,,,,6,1.696,1,,,,,,-0.086111111,-0.410185185,1,0,0,1.6956,Pegmatite_rect,6,0,6,0,1,
665696a90e34e3e67cfcfdc0,TCN,2024-06-24_17h32.52.085,LearnStrategy,2023.2.3,Win32,59.88023952,8,2,8,,,,,,,,4,13,,,,,,,,,,,2,1.267,0,,,,,,-0.132407407,-0.238888889,1,0,0,1.2673,Basalt_rect,7,0,7,0,1,
665696a90e34e3e67cfcfdc0,TCN,2024-06-24_17h32.52.085,LearnStrategy,2023.2.3,Win32,59.88023952,8,2,9,,,,,,,,5,12,,,,,,,,,,,5,1.253,1,,,,,,-0.319444444,-0.378703704,1,0,0,1.2533,Obsidian_rect,8,0,8,0,1,
665696a90e34e3e67cfcfdc0,TCN,2024-06-24_17h32.52.085,LearnStrategy,2023.2.3,Win32,59.88023952,8,2,10,,,,,,,,8,04,,,,,,,,,,,8,1.384,1,,,,,,0.462962963,-0.413888889,1,0,0,1.3842,Pumice_rect,9,0,9,0,1,
665696a90e34e3e67cfcfdc0,TCN,2024-06-24_17h32.52.085,LearnStrategy,2023.2.3,Win32,59.88023952,8,2,11,,,,,,,,1,11,,,,,,,,,,,1,1.583,1,,,,,,-0.4,-0.250925926,1,0,0,1.5835,Andesite_rect,10,0,10,0,1,
665696a90e34e3e67cfcfdc0,TCN,2024-06-24_17h32.52.085,LearnStrategy,2023.2.3,Win32,59.88023952,8,2,12,,,,,,,,1,01,,,,,,,,,,,1,1.867,1,,,,,,-0.4,-0.250925926,1,0,0,1.8674,Andesite_rect,11,0,11,0,1,
665696a90e34e3e67cfcfdc0,TCN,2024-06-24_17h32.52.085,LearnStrategy,2023.2.3,Win32,59.88023952,8,2,13,,,,,,,,2,16,,,,,,,,,,,2,1.068,1,,,,,,-0.166666667,-0.249074074,1,0,0,1.0682,Basalt_rect,12,0,12,0,1,
665696a90e34e3e67cfcfdc0,TCN,2024-06-24_17h32.52.085,LearnStrategy,2023.2.3,Win32,59.88023952,8,2,14,,,,,,,,5,07,,,,,,,,,,,5,1.265,1,,,,,,-0.35462963,-0.381481481,1,0,0,1.2655,Obsidian_rect,13,0,13,0,1,
665696a90e34e3e67cfcfdc0,TCN,2024-06-24_17h32.52.085,LearnStrategy,2023.2.3,Win32,59.88023952,8,2,15,,,,,,,,2,10,,,,,,,,,,,5,1.001,0,,,,,,-0.356481481,-0.381481481,1,0,0,1.0015,Obsidian_rect,14,0,14,0,1,
665696a90e34e3e67cfcfdc0,TCN,2024-06-24_17h32.52.085,LearnStrategy,2023.2.3,Win32,59.88023952,8,2,16,,,,,,,,4,09,,,,,,,,,,,2,1.9,0,,,,,,-0.138888889,-0.235185185,1,0,0,1.9005,Basalt_rect,15,0,15,0,1,
665696a90e34e3e67cfcfdc0,TCN,2024-06-24_17h32.52.085,LearnStrategy,2023.2.3,Win32,59.88023952,9,1,1,0.023148148,-0.02037037,1,0,0,1.1158,rock_grid_rect_2,4,05,-1,-1,1.116,0.414814815,-0.238888889,1,0,0,2.2185,Gabbro_rect,4,2.219,1,0,0,0,0,1,,,,,,,,,,,,,
665696a90e34e3e67cfcfdc0,TCN,2024-06-24_17h32.52.085,LearnStrategy,2023.2.3,Win32,59.88023952,9,1,2,-0.006481481,0.008333333,1,0,0,1.536,rock_grid_rect_2,6,03,-1,-1,1.536,-0.135185185,-0.396296296,1,0,0,1.1823,Pegmatite_rect,6,1.182,1,1,0,1,0,1,,,,,,,,,,,,,
665696a90e34e3e67cfcfdc0,TCN,2024-06-24_17h32.52.085,LearnStrategy,2023.2.3,Win32,59.88023952,9,1,3,-0.055555556,-0.012962963,1,0,0,0.987,rock_grid_rect_2,5,06,-1,-1,0.987,-0.321296296,-0.401851852,1,0,0,1.1471,Obsidian_rect,5,1.147,1,2,0,2,0,1,,,,,,,,,,,,,
665696a90e34e3e67cfcfdc0,TCN,2024-06-24_17h32.52.085,LearnStrategy,2023.2.3,Win32,59.88023952,9,1,4,-0.007407407,0.00462963,1,0,0,1.3812,rock_grid_rect_2,6,08,-1,-1,1.381,-0.146296296,-0.400925926,1,0,0,1.2683,Pegmatite_rect,6,1.268,1,3,0,3,0,1,,,,,,,,,,,,,
665696a90e34e3e67cfcfdc0,TCN,2024-06-24_17h32.52.085,LearnStrategy,2023.2.3,Win32,59.88023952,9,1,5,-0.039814815,0.003703704,1,0,0,1.0828,rock_grid_rect_2,7,04,-1,-1,1.083,0.144444444,-0.263888889,1,0,0,2.0184,Diorite_rect,3,2.018,0,4,0,4,0,1,,,,,,,,,,,,,
665696a90e34e3e67cfcfdc0,TCN,2024-06-24_17h32.52.085,LearnStrategy,2023.2.3,Win32,59.88023952,9,1,6,0.015740741,-0.002777778,1,0,0,1.2486,rock_grid_rect_2,8,13,-1,-1,1.249,0.374074074,-0.417592593,1,0,0,1.5702,Pumice_rect,8,1.57,1,5,0,5,0,1,,,,,,,,,,,,,
665696a90e34e3e67cfcfdc0,TCN,2024-06-24_17h32.52.085,LearnStrategy,2023.2.3,Win32,59.88023952,9,1,7,0.038888889,0.007407407,1,0,0,0.9988,rock_grid_rect_2,3,11,-1,-1,0.999,0.15,-0.244444444,1,0,0,1.8363,Diorite_rect,3,1.836,1,6,0,6,0,1,,,,,,,,,,,,,
665696a90e34e3e67cfcfdc0,TCN,2024-06-24_17h32.52.085,LearnStrategy,2023.2.3,Win32,59.88023952,9,1,8,0.043518519,0.00462963,1,0,0,1.2154,rock_grid_rect_2,2,09,-1,-1,1.215,-0.1,-0.247222222,1,0,0,1.1853,Basalt_rect,2,1.185,1,7,0,7,0,1,,,,,,,,,,,,,
665696a90e34e3e67cfcfdc0,TCN,2024-06-24_17h32.52.085,LearnStrategy,2023.2.3,Win32,59.88023952,9,1,9,0.062037037,0.007407407,1,0,0,1.1986,rock_grid_rect_2,1,02,-1,-1,1.199,-0.377777778,-0.260185185,1,0,0,1.6003,Andesite_rect,1,1.6,1,8,0,8,0,1,,,,,,,,,,,,,
665696a90e34e3e67cfcfdc0,TCN,2024-06-24_17h32.52.085,LearnStrategy,2023.2.3,Win32,59.88023952,9,1,10,0.026851852,0.00462963,1,0,0,1.6156,rock_grid_rect_2,5,14,-1,-1,1.616,-0.375925926,-0.386111111,1,0,0,1.6194,Obsidian_rect,5,1.619,1,9,0,9,0,1,,,,,,,,,,,,,
665696a90e34e3e67cfcfdc0,TCN,2024-06-24_17h32.52.085,LearnStrategy,2023.2.3,Win32,59.88023952,9,1,11,0.051851852,-0.013888889,1,0,0,1.2797,rock_grid_rect_2,4,08,-1,-1,1.28,0.383333333,-0.260185185,1,0,0,3.4163,Gabbro_rect,4,3.416,1,10,0,10,0,1,,,,,,,,,,,,,
665696a90e34e3e67cfcfdc0,TCN,2024-06-24_17h32.52.085,LearnStrategy,2023.2.3,Win32,59.88023952,9,1,12,0.006481481,-0.019444444,1,0,0,1.1652,rock_grid_rect_2,8,02,-1,-1,1.165,0.377777778,-0.40462963,1,0,0,1.2675,Pumice_rect,8,1.268,1,11,0,11,0,1,,,,,,,,,,,,,
665696a90e34e3e67cfcfdc0,TCN,2024-06-24_17h32.52.085,LearnStrategy,2023.2.3,Win32,59.88023952,9,1,13,0.006481481,-0.015740741,1,0,0,1.3128,rock_grid_rect_2,2,08,-1,-1,1.313,-0.126851852,-0.240740741,1,0,0,1.1339,Basalt_rect,2,1.134,1,12,0,12,0,1,,,,,,,,,,,,,
665696a90e34e3e67cfcfdc0,TCN,2024-06-24_17h32.52.085,LearnStrategy,2023.2.3,Win32,59.88023952,9,1,14,-0.002777778,-0.00462963,1,0,0,1.0322,rock_grid_rect_2,7,12,-1,-1,1.032,0.123148148,-0.391666667,1,0,0,1.052,Peridotite_rect,7,1.052,1,13,0,13,0,1,,,,,,,,,,,,,
665696a90e34e3e67cfcfdc0,TCN,2024-06-24_17h32.52.085,LearnStrategy,2023.2.3,Win32,59.88023952,9,1,15,0.014814815,-0.012962963,1,0,0,1.0496,rock_grid_rect_2,3,15,-1,-1,1.05,0.15462963,-0.267592593,1,0,0,1.884,Diorite_rect,3,1.884,1,14,0,14,0,1,,,,,,,,,,,,,
665696a90e34e3e67cfcfdc0,TCN,2024-06-24_17h32.52.085,LearnStrategy,2023.2.3,Win32,59.88023952,9,1,16,0.011111111,-0.010185185,1,0,0,1.0143,rock_grid_rect_2,1,10,-1,-1,1.014,0.419444444,-0.235185185,1,0,0,2.8851,Gabbro_rect,4,2.885,0,15,0,15,0,1,,,,,,,,,,,,,
665696a90e34e3e67cfcfdc0,TCN,2024-06-24_17h32.52.085,LearnStrategy,2023.2.3,Win32,59.88023952,9,2,1,,,,,,,,2,06,,,,,,,,,,,2,1.467,1,,,,,,-0.074074074,-0.266666667,1,0,0,1.4673,Basalt_rect,0,0,0,0,1,
665696a90e34e3e67cfcfdc0,TCN,2024-06-24_17h32.52.085,LearnStrategy,2023.2.3,Win32,59.88023952,9,2,2,,,,,,,,1,14,,,,,,,,,,,1,3.119,1,,,,,,-0.361111111,-0.237962963,1,0,0,3.1194,Andesite_rect,1,0,1,0,1,
665696a90e34e3e67cfcfdc0,TCN,2024-06-24_17h32.52.085,LearnStrategy,2023.2.3,Win32,59.88023952,9,2,3,,,,,,,,7,10,,,,,,,,,,,7,1.778,1,,,,,,0.133333333,-0.416666667,1,0,0,1.7777,Peridotite_rect,2,0,2,0,1,
665696a90e34e3e67cfcfdc0,TCN,2024-06-24_17h32.52.085,LearnStrategy,2023.2.3,Win32,59.88023952,9,2,4,,,,,,,,8,06,,,,,,,,,,,8,1.285,1,,,,,,0.389814815,-0.412037037,1,0,0,1.2849,Pumice_rect,3,0,3,0,1,
665696a90e34e3e67cfcfdc0,TCN,2024-06-24_17h32.52.085,LearnStrategy,2023.2.3,Win32,59.88023952,9,2,5,,,,,,,,3,16,,,,,,,,,,,3,3.451,1,,,,,,0.161111111,-0.256481481,1,0,0,3.4506,Diorite_rect,4,0,4,0,1,
665696a90e34e3e67cfcfdc0,TCN,2024-06-24_17h32.52.085,LearnStrategy,2023.2.3,Win32,59.88023952,9,2,6,,,,,,,,4,16,,,,,,,,,,,2,1.194,0,,,,,,-0.080555556,-0.262962963,1,0,0,1.1944,Basalt_rect,5,0,5,0,1,
665696a90e34e3e67cfcfdc0,TCN,2024-06-24_17h32.52.085,LearnStrategy,2023.2.3,Win32,59.88023952,9,2,7,,,,,,,,8,16,,,,,,,,,,,2,1.133,0,,,,,,-0.080555556,-0.262962963,1,0,0,1.1331,Basalt_rect,6,0,6,0,1,
665696a90e34e3e67cfcfdc0,TCN,2024-06-24_17h32.52.085,LearnStrategy,2023.2.3,Win32,59.88023952,9,2,8,,,,,,,,3,14,,,,,,,,,,,3,1.834,1,,,,,,0.118518519,-0.248148148,1,0,0,1.8337,Diorite_rect,7,0,7,0,1,
665696a90e34e3e67cfcfdc0,TCN,2024-06-24_17h32.52.085,LearnStrategy,2023.2.3,Win32,59.88023952,9,2,9,,,,,,,,7,16,,,,,,,,,,,7,1.334,1,,,,,,0.126851852,-0.406481481,1,0,0,1.3343,Peridotite_rect,8,0,8,0,1,
665696a90e34e3e67cfcfdc0,TCN,2024-06-24_17h32.52.085,LearnStrategy,2023.2.3,Win32,59.88023952,9,2,10,,,,,,,,6,13,,,,,,,,,,,4,3.885,0,,,,,,0.374074074,-0.257407407,1,0,0,3.8851,Gabbro_rect,9,0,9,0,1,
665696a90e34e3e67cfcfdc0,TCN,2024-06-24_17h32.52.085,LearnStrategy,2023.2.3,Win32,59.88023952,9,2,11,,,,,,,,5,08,,,,,,,,,,,5,1.212,1,,,,,,-0.365740741,-0.399074074,1,0,0,1.2124,Obsidian_rect,10,0,10,0,1,
665696a90e34e3e67cfcfdc0,TCN,2024-06-24_17h32.52.085,LearnStrategy,2023.2.3,Win32,59.88023952,9,2,12,,,,,,,,2,05,,,,,,,,,,,2,1.518,1,,,,,,-0.162037037,-0.244444444,1,0,0,1.518,Basalt_rect,11,0,11,0,1,
665696a90e34e3e67cfcfdc0,TCN,2024-06-24_17h32.52.085,LearnStrategy,2023.2.3,Win32,59.88023952,9,2,13,,,,,,,,6,05,,,,,,,,,,,4,3.769,0,,,,,,0.338888889,-0.233333333,1,0,0,3.7686,Gabbro_rect,12,0,12,0,1,
665696a90e34e3e67cfcfdc0,TCN,2024-06-24_17h32.52.085,LearnStrategy,2023.2.3,Win32,59.88023952,9,2,14,,,,,,,,5,04,,,,,,,,,,,5,1.104,1,,,,,,-0.430555556,-0.402777778,1,0,0,1.104,Obsidian_rect,13,0,13,0,1,
665696a90e34e3e67cfcfdc0,TCN,2024-06-24_17h32.52.085,LearnStrategy,2023.2.3,Win32,59.88023952,9,2,15,,,,,,,,4,14,,,,,,,,,,,2,2.879,0,,,,,,-0.192592593,-0.25,1,0,0,2.8785,Basalt_rect,14,0,14,0,1,
665696a90e34e3e67cfcfdc0,TCN,2024-06-24_17h32.52.085,LearnStrategy,2023.2.3,Win32,59.88023952,9,2,16,,,,,,,,1,09,,,,,,,,,,,1,1.345,1,,,,,,-0.358333333,-0.262962963,1,0,0,1.3451,Andesite_rect,15,0,15,0,1,
665696a90e34e3e67cfcfdc0,TCN,2024-06-24_17h32.52.085,LearnStrategy,2023.2.3,Win32,59.88023952,,,,,,,,,,,,,,,,,,,,,,,,,,,,,,,,,,,,,,,,,,,1
665696a90e34e3e67cfcfdc0,TCN,2024-06-24_17h32.52.085,LearnStrategy,2023.2.3,Win32,59.88023952,,,,,,,,,,,,,,,,,,,,,,,,,,,,,,,,,,,,,,,,,,,
665696a90e34e3e67cfcfdc0,TCN,2024-06-24_17h32.52.085,LearnStrategy,2023.2.3,Win32,59.88023952,,,,,,,,,,,3,11,1,1,,,,,,,,,,,,,,,,,,,,,,,,,,,,,
665696a90e34e3e67cfcfdc0,TCN,2024-06-24_17h32.52.085,LearnStrategy,2023.2.3,Win32,59.88023952,,,,,,,,,,,2,11,1,2,,,,,,,,,,,,,,,,,,,,,,,,,,,,,
665696a90e34e3e67cfcfdc0,TCN,2024-06-24_17h32.52.085,LearnStrategy,2023.2.3,Win32,59.88023952,,,,,,,,,,,1,03,1,3,,,,,,,,,,,,,,,,,,,,,,,,,,,,,
665696a90e34e3e67cfcfdc0,TCN,2024-06-24_17h32.52.085,LearnStrategy,2023.2.3,Win32,59.88023952,,,,,,,,,,,2,09,1,4,,,,,,,,,,,,,,,,,,,,,,,,,,,,,
665696a90e34e3e67cfcfdc0,TCN,2024-06-24_17h32.52.085,LearnStrategy,2023.2.3,Win32,59.88023952,,,,,,,,,,,6,12,1,5,,,,,,,,,,,,,,,,,,,,,,,,,,,,,
665696a90e34e3e67cfcfdc0,TCN,2024-06-24_17h32.52.085,LearnStrategy,2023.2.3,Win32,59.88023952,,,,,,,,,,,6,07,1,6,,,,,,,,,,,,,,,,,,,,,,,,,,,,,
665696a90e34e3e67cfcfdc0,TCN,2024-06-24_17h32.52.085,LearnStrategy,2023.2.3,Win32,59.88023952,,,,,,,,,,,6,16,1,7,,,,,,,,,,,,,,,,,,,,,,,,,,,,,
665696a90e34e3e67cfcfdc0,TCN,2024-06-24_17h32.52.085,LearnStrategy,2023.2.3,Win32,59.88023952,,,,,,,,,,,2,08,1,8,,,,,,,,,,,,,,,,,,,,,,,,,,,,,
665696a90e34e3e67cfcfdc0,TCN,2024-06-24_17h32.52.085,LearnStrategy,2023.2.3,Win32,59.88023952,,,,,,,,,,,5,06,2,1,,,,,,,,,,,,,,,,,,,,,,,,,,,,,
665696a90e34e3e67cfcfdc0,TCN,2024-06-24_17h32.52.085,LearnStrategy,2023.2.3,Win32,59.88023952,,,,,,,,,,,4,11,2,2,,,,,,,,,,,,,,,,,,,,,,,,,,,,,
665696a90e34e3e67cfcfdc0,TCN,2024-06-24_17h32.52.085,LearnStrategy,2023.2.3,Win32,59.88023952,,,,,,,,,,,5,11,2,3,,,,,,,,,,,,,,,,,,,,,,,,,,,,,
665696a90e34e3e67cfcfdc0,TCN,2024-06-24_17h32.52.085,LearnStrategy,2023.2.3,Win32,59.88023952,,,,,,,,,,,6,03,2,4,,,,,,,,,,,,,,,,,,,,,,,,,,,,,
665696a90e34e3e67cfcfdc0,TCN,2024-06-24_17h32.52.085,LearnStrategy,2023.2.3,Win32,59.88023952,,,,,,,,,,,3,12,2,5,,,,,,,,,,,,,,,,,,,,,,,,,,,,,
665696a90e34e3e67cfcfdc0,TCN,2024-06-24_17h32.52.085,LearnStrategy,2023.2.3,Win32,59.88023952,,,,,,,,,,,2,14,2,6,,,,,,,,,,,,,,,,,,,,,,,,,,,,,
665696a90e34e3e67cfcfdc0,TCN,2024-06-24_17h32.52.085,LearnStrategy,2023.2.3,Win32,59.88023952,,,,,,,,,,,8,09,2,7,,,,,,,,,,,,,,,,,,,,,,,,,,,,,
665696a90e34e3e67cfcfdc0,TCN,2024-06-24_17h32.52.085,LearnStrategy,2023.2.3,Win32,59.88023952,,,,,,,,,,,8,02,2,8,,,,,,,,,,,,,,,,,,,,,,,,,,,,,
665696a90e34e3e67cfcfdc0,TCN,2024-06-24_17h32.52.085,LearnStrategy,2023.2.3,Win32,59.88023952,,,,,,,,,,,8,13,3,1,,,,,,,,,,,,,,,,,,,,,,,,,,,,,
665696a90e34e3e67cfcfdc0,TCN,2024-06-24_17h32.52.085,LearnStrategy,2023.2.3,Win32,59.88023952,,,,,,,,,,,3,02,3,2,,,,,,,,,,,,,,,,,,,,,,,,,,,,,
665696a90e34e3e67cfcfdc0,TCN,2024-06-24_17h32.52.085,LearnStrategy,2023.2.3,Win32,59.88023952,,,,,,,,,,,5,14,3,3,,,,,,,,,,,,,,,,,,,,,,,,,,,,,
665696a90e34e3e67cfcfdc0,TCN,2024-06-24_17h32.52.085,LearnStrategy,2023.2.3,Win32,59.88023952,,,,,,,,,,,5,09,3,4,,,,,,,,,,,,,,,,,,,,,,,,,,,,,
665696a90e34e3e67cfcfdc0,TCN,2024-06-24_17h32.52.085,LearnStrategy,2023.2.3,Win32,59.88023952,,,,,,,,,,,4,05,3,5,,,,,,,,,,,,,,,,,,,,,,,,,,,,,
665696a90e34e3e67cfcfdc0,TCN,2024-06-24_17h32.52.085,LearnStrategy,2023.2.3,Win32,59.88023952,,,,,,,,,,,2,01,3,6,,,,,,,,,,,,,,,,,,,,,,,,,,,,,
665696a90e34e3e67cfcfdc0,TCN,2024-06-24_17h32.52.085,LearnStrategy,2023.2.3,Win32,59.88023952,,,,,,,,,,,1,16,3,7,,,,,,,,,,,,,,,,,,,,,,,,,,,,,
665696a90e34e3e67cfcfdc0,TCN,2024-06-24_17h32.52.085,LearnStrategy,2023.2.3,Win32,59.88023952,,,,,,,,,,,8,15,3,8,,,,,,,,,,,,,,,,,,,,,,,,,,,,,
665696a90e34e3e67cfcfdc0,TCN,2024-06-24_17h32.52.085,LearnStrategy,2023.2.3,Win32,59.88023952,,,,,,,,,,,3,15,4,1,,,,,,,,,,,,,,,,,,,,,,,,,,,,,
665696a90e34e3e67cfcfdc0,TCN,2024-06-24_17h32.52.085,LearnStrategy,2023.2.3,Win32,59.88023952,,,,,,,,,,,5,05,4,2,,,,,,,,,,,,,,,,,,,,,,,,,,,,,
665696a90e34e3e67cfcfdc0,TCN,2024-06-24_17h32.52.085,LearnStrategy,2023.2.3,Win32,59.88023952,,,,,,,,,,,2,02,4,3,,,,,,,,,,,,,,,,,,,,,,,,,,,,,
665696a90e34e3e67cfcfdc0,TCN,2024-06-24_17h32.52.085,LearnStrategy,2023.2.3,Win32,59.88023952,,,,,,,,,,,1,10,4,4,,,,,,,,,,,,,,,,,,,,,,,,,,,,,
665696a90e34e3e67cfcfdc0,TCN,2024-06-24_17h32.52.085,LearnStrategy,2023.2.3,Win32,59.88023952,,,,,,,,,,,7,12,4,5,,,,,,,,,,,,,,,,,,,,,,,,,,,,,
665696a90e34e3e67cfcfdc0,TCN,2024-06-24_17h32.52.085,LearnStrategy,2023.2.3,Win32,59.88023952,,,,,,,,,,,3,09,4,6,,,,,,,,,,,,,,,,,,,,,,,,,,,,,
665696a90e34e3e67cfcfdc0,TCN,2024-06-24_17h32.52.085,LearnStrategy,2023.2.3,Win32,59.88023952,,,,,,,,,,,4,15,4,7,,,,,,,,,,,,,,,,,,,,,,,,,,,,,
665696a90e34e3e67cfcfdc0,TCN,2024-06-24_17h32.52.085,LearnStrategy,2023.2.3,Win32,59.88023952,,,,,,,,,,,4,08,4,8,,,,,,,,,,,,,,,,,,,,,,,,,,,,,
665696a90e34e3e67cfcfdc0,TCN,2024-06-24_17h32.52.085,LearnStrategy,2023.2.3,Win32,59.88023952,,,,,,,,,,,1,02,5,1,,,,,,,,,,,,,,,,,,,,,,,,,,,,,
665696a90e34e3e67cfcfdc0,TCN,2024-06-24_17h32.52.085,LearnStrategy,2023.2.3,Win32,59.88023952,,,,,,,,,,,8,08,5,2,,,,,,,,,,,,,,,,,,,,,,,,,,,,,
665696a90e34e3e67cfcfdc0,TCN,2024-06-24_17h32.52.085,LearnStrategy,2023.2.3,Win32,59.88023952,,,,,,,,,,,3,08,5,3,,,,,,,,,,,,,,,,,,,,,,,,,,,,,
665696a90e34e3e67cfcfdc0,TCN,2024-06-24_17h32.52.085,LearnStrategy,2023.2.3,Win32,59.88023952,,,,,,,,,,,7,04,5,4,,,,,,,,,,,,,,,,,,,,,,,,,,,,,
665696a90e34e3e67cfcfdc0,TCN,2024-06-24_17h32.52.085,LearnStrategy,2023.2.3,Win32,59.88023952,,,,,,,,,,,7,06,5,5,,,,,,,,,,,,,,,,,,,,,,,,,,,,,
665696a90e34e3e67cfcfdc0,TCN,2024-06-24_17h32.52.085,LearnStrategy,2023.2.3,Win32,59.88023952,,,,,,,,,,,6,08,5,6,,,,,,,,,,,,,,,,,,,,,,,,,,,,,
665696a90e34e3e67cfcfdc0,TCN,2024-06-24_17h32.52.085,LearnStrategy,2023.2.3,Win32,59.88023952,,,,,,,,,,,7,07,5,7,,,,,,,,,,,,,,,,,,,,,,,,,,,,,
665696a90e34e3e67cfcfdc0,TCN,2024-06-24_17h32.52.085,LearnStrategy,2023.2.3,Win32,59.88023952,,,,,,,,,,,4,01,5,8,,,,,,,,,,,,,,,,,,,,,,,,,,,,,
665696a90e34e3e67cfcfdc0,TCN,2024-06-24_17h32.52.085,LearnStrategy,2023.2.3,Win32,59.88023952,,,,,,,,,,,7,13,6,1,,,,,,,,,,,,,,,,,,,,,,,,,,,,,
665696a90e34e3e67cfcfdc0,TCN,2024-06-24_17h32.52.085,LearnStrategy,2023.2.3,Win32,59.88023952,,,,,,,,,,,4,12,6,2,,,,,,,,,,,,,,,,,,,,,,,,,,,,,
665696a90e34e3e67cfcfdc0,TCN,2024-06-24_17h32.52.085,LearnStrategy,2023.2.3,Win32,59.88023952,,,,,,,,,,,1,05,6,3,,,,,,,,,,,,,,,,,,,,,,,,,,,,,
665696a90e34e3e67cfcfdc0,TCN,2024-06-24_17h32.52.085,LearnStrategy,2023.2.3,Win32,59.88023952,,,,,,,,,,,1,07,6,4,,,,,,,,,,,,,,,,,,,,,,,,,,,,,
665696a90e34e3e67cfcfdc0,TCN,2024-06-24_17h32.52.085,LearnStrategy,2023.2.3,Win32,59.88023952,,,,,,,,,,,5,02,6,5,,,,,,,,,,,,,,,,,,,,,,,,,,,,,
665696a90e34e3e67cfcfdc0,TCN,2024-06-24_17h32.52.085,LearnStrategy,2023.2.3,Win32,59.88023952,,,,,,,,,,,7,14,6,6,,,,,,,,,,,,,,,,,,,,,,,,,,,,,
665696a90e34e3e67cfcfdc0,TCN,2024-06-24_17h32.52.085,LearnStrategy,2023.2.3,Win32,59.88023952,,,,,,,,,,,6,10,6,7,,,,,,,,,,,,,,,,,,,,,,,,,,,,,
665696a90e34e3e67cfcfdc0,TCN,2024-06-24_17h32.52.085,LearnStrategy,2023.2.3,Win32,59.88023952,,,,,,,,,,,8,10,6,8,,,,,,,,,,,,,,,,,,,,,,,,,,,,,