participant,condition,date,expName,psychopyVersion,OS,frameRate,block,phase,trial,learn_mouse.x,learn_mouse.y,learn_mouse.leftButton,learn_mouse.midButton,learn_mouse.rightButton,learn_mouse.time,learn_mouse.clicked_name,cat,token,row,col,t_select,cat_mouse_l.x,cat_mouse_l.y,cat_mouse_l.leftButton,cat_mouse_l.midButton,cat_mouse_l.rightButton,cat_mouse_l.time,cat_mouse_l.clicked_name,resp,t_resp,corr,train_trials.thisRepN,train_trials.thisTrialN,train_trials.thisN,train_trials.thisIndex,train_trials.ran,cat_mouse_t.x,cat_mouse_t.y,cat_mouse_t.leftButton,cat_mouse_t.midButton,cat_mouse_t.rightButton,cat_mouse_t.time,cat_mouse_t.clicked_name,test_trials.thisRepN,test_trials.thisTrialN,test_trials.thisN,test_trials.thisIndex,test_trials.ran,Bonus
66561df3560bbac516eb85ac,SCN,2024-06-25_12h41.33.780,LearnStrategy,2023.2.3,Win32,60.97560976,,,,,,,,,,,,,,,,,,,,,,,,,,,,,,,,,,,,,,,,,,,
66561df3560bbac516eb85ac,SCN,2024-06-25_12h41.33.780,LearnStrategy,2023.2.3,Win32,60.97560976,1,1,1,0.229767143,0.399297854,1,0,0,6.164,Obsidian_04,5,04,6,6,6.164,0.195583883,-0.228935726,1,0,0,6.1448,Diorite_rect,3,6.145,0,0,0,0,0,1,,,,,,,,,,,,,
66561df3560bbac516eb85ac,SCN,2024-06-25_12h41.33.780,LearnStrategy,2023.2.3,Win32,60.97560976,1,1,2,-0.248798947,0.420546936,1,0,0,3.5464,Obsidian_11,5,11,6,3,3.546,-0.371674068,-0.407243236,1,0,0,2.4277,Obsidian_rect,5,2.428,1,1,0,1,0,1,,,,,,,,,,,,,
66561df3560bbac516eb85ac,SCN,2024-06-25_12h41.33.780,LearnStrategy,2023.2.3,Win32,60.97560976,1,1,3,-0.371674068,0.415927571,1,0,0,3.9458,Pumice_02,8,02,6,2,3.946,-0.387379902,-0.248337015,1,0,0,2.295,Andesite_rect,1,2.295,0,2,0,2,0,1,,,,,,,,,,,,,
66561df3560bbac516eb85ac,SCN,2024-06-25_12h41.33.780,LearnStrategy,2023.2.3,Win32,60.97560976,1,1,4,-0.396618578,0.378972654,1,0,0,1.6296,Pumice_02,8,02,6,2,1.63,0.105044332,-0.235402772,1,0,0,3.2096,Diorite_rect,3,3.21,0,3,0,3,0,1,,,,,,,,,,,,,
66561df3560bbac516eb85ac,SCN,2024-06-25_12h41.33.780,LearnStrategy,2023.2.3,Win32,60.97560976,1,1,5,0.396064274,0.385439766,1,0,0,1.179,Pumice_04,8,04,6,7,1.179,0.360957225,-0.388765661,1,0,0,2.7753,Pumice_rect,8,2.775,1,4,0,4,0,1,,,,,,,,,,,,,
66561df3560bbac516eb85ac,SCN,2024-06-25_12h41.33.780,LearnStrategy,2023.2.3,Win32,60.97560976,1,1,6,0.076404255,0.105506302,1,0,0,1.5443,Peridotite_12,7,12,4,5,1.544,-0.348577248,-0.242793758,1,0,0,2.0725,Andesite_rect,1,2.072,0,5,0,5,0,1,,,,,,,,,,,,,
66561df3560bbac516eb85ac,SCN,2024-06-25_12h41.33.780,LearnStrategy,2023.2.3,Win32,60.97560976,1,1,7,-0.5204176,0.236696234,1,0,0,3.5784,Basalt_10,2,10,5,1,3.578,-0.093588331,-0.257575728,1,0,0,1.7181,Basalt_rect,2,1.718,1,6,0,6,0,1,,,,,,,,,,,,,
66561df3560bbac516eb85ac,SCN,2024-06-25_12h41.33.780,LearnStrategy,2023.2.3,Win32,60.97560976,1,1,8,-0.220158944,-0.073725035,1,0,0,2.0324,Andesite_01,1,01,3,3,2.032,-0.16380258,-0.24464156,1,0,0,2.2533,Basalt_rect,2,2.253,0,7,0,7,0,1,,,,,,,,,,,,,
66561df3560bbac516eb85ac,SCN,2024-06-25_12h41.33.780,LearnStrategy,2023.2.3,Win32,60.97560976,1,1,9,0.235310401,0.074094596,1,0,0,1.5962,Pumice_08,8,08,4,6,1.596,0.127217288,-0.248337015,1,0,0,2.9591,Diorite_rect,3,2.959,0,8,0,8,0,1,,,,,,,,,,,,,
66561df3560bbac516eb85ac,SCN,2024-06-25_12h41.33.780,LearnStrategy,2023.2.3,Win32,60.97560976,1,1,10,0.537416784,-0.128233523,1,0,0,1.5621,Gabbro_14,4,14,3,8,1.562,-0.417867707,-0.241869894,1,0,0,3.0513,Andesite_rect,1,3.051,0,9,0,9,0,1,,,,,,,,,,,,,
66561df3560bbac516eb85ac,SCN,2024-06-25_12h41.33.780,LearnStrategy,2023.2.3,Win32,60.97560976,1,1,11,-0.379065053,-0.064486322,1,0,0,1.8613,Pumice_15,8,15,3,2,1.861,0.36557647,-0.383222552,1,0,0,2.0334,Pumice_rect,8,2.033,1,10,0,10,0,1,,,,,,,,,,,,,
66561df3560bbac516eb85ac,SCN,2024-06-25_12h41.33.780,LearnStrategy,2023.2.3,Win32,60.97560976,1,1,12,0.369271925,-0.093126362,1,0,0,2.2341,Basalt_06,2,06,3,7,2.234,0.169715546,-0.243717622,1,0,0,3.1785,Diorite_rect,3,3.178,0,11,0,11,0,1,,,,,,,,,,,,,
66561df3560bbac516eb85ac,SCN,2024-06-25_12h41.33.780,LearnStrategy,2023.2.3,Win32,60.97560976,1,1,13,0.065317815,-0.091278634,1,0,0,8.9424,Diorite_10,3,10,3,5,8.942,-0.124999926,-0.243717622,1,0,0,6.774,Basalt_rect,2,6.774,0,12,0,12,0,1,,,,,,,,,,,,,
66561df3560bbac516eb85ac,SCN,2024-06-25_12h41.33.780,LearnStrategy,2023.2.3,Win32,60.97560976,1,1,14,-0.205376974,0.105506302,1,0,0,9.9831,Gabbro_10,4,10,4,3,9.983,-0.112065757,-0.393385054,1,0,0,1.8117,Pegmatite_rect,6,1.812,0,13,0,13,0,1,,,,,,,,,,,,,
66561df3560bbac516eb85ac,SCN,2024-06-25_12h41.33.780,LearnStrategy,2023.2.3,Win32,60.97560976,1,1,15,-0.203529172,-0.085735451,1,0,0,1.1337,Andesite_01,1,01,3,3,1.134,0.454268293,-0.231707392,1,0,0,2.4008,Gabbro_rect,4,2.401,0,14,0,14,0,1,,,,,,,,,,,,,
66561df3560bbac516eb85ac,SCN,2024-06-25_12h41.33.780,LearnStrategy,2023.2.3,Win32,60.97560976,1,1,16,-0.2238544,-0.094974127,1,0,0,1.6843,Andesite_01,1,01,3,3,1.684,-0.355044295,-0.240022166,1,0,0,0.8918,Andesite_rect,1,0.892,1,15,0,15,0,1,,,,,,,,,,,,,
66561df3560bbac516eb85ac,SCN,2024-06-25_12h41.33.780,LearnStrategy,2023.2.3,Win32,60.97560976,1,2,1,,,,,,,,6,10,,,,,,,,,,,2,11.151,0,,,,,,-0.177660761,-0.261271333,1,0,0,11.1507,Basalt_rect,0,0,0,0,1,
66561df3560bbac516eb85ac,SCN,2024-06-25_12h41.33.780,LearnStrategy,2023.2.3,Win32,60.97560976,1,2,2,,,,,,,,4,12,,,,,,,,,,,5,10.365,0,,,,,,-0.3227088,-0.394308918,1,0,0,10.3654,Obsidian_rect,1,0,1,0,1,
66561df3560bbac516eb85ac,SCN,2024-06-25_12h41.33.780,LearnStrategy,2023.2.3,Win32,60.97560976,1,2,3,,,,,,,,8,16,,,,,,,,,,,8,7.649,1,,,,,,0.318458967,-0.382298614,1,0,0,7.6488,Pumice_rect,2,0,2,0,1,
66561df3560bbac516eb85ac,SCN,2024-06-25_12h41.33.780,LearnStrategy,2023.2.3,Win32,60.97560976,1,2,4,,,,,,,,7,10,,,,,,,,,,,7,7.949,1,,,,,,0.136456001,-0.418329602,1,0,0,7.9487,Peridotite_rect,3,0,3,0,1,
66561df3560bbac516eb85ac,SCN,2024-06-25_12h41.33.780,LearnStrategy,2023.2.3,Win32,60.97560976,1,2,5,,,,,,,,5,07,,,,,,,,,,,5,6.944,1,,,,,,-0.335642968,-0.388765661,1,0,0,6.9445,Obsidian_rect,4,0,4,0,1,
66561df3560bbac516eb85ac,SCN,2024-06-25_12h41.33.780,LearnStrategy,2023.2.3,Win32,60.97560976,1,2,6,,,,,,,,5,02,,,,,,,,,,,5,3.455,1,,,,,,-0.420639336,-0.379526948,1,0,0,3.4548,Obsidian_rect,5,0,5,0,1,
66561df3560bbac516eb85ac,SCN,2024-06-25_12h41.33.780,LearnStrategy,2023.2.3,Win32,60.97560976,1,2,7,,,,,,,,3,09,,,,,,,,,,,3,11.104,1,,,,,,0.157705093,-0.239098377,1,0,0,11.1037,Diorite_rect,6,0,6,0,1,
66561df3560bbac516eb85ac,SCN,2024-06-25_12h41.33.780,LearnStrategy,2023.2.3,Win32,60.97560976,1,2,8,,,,,,,,2,01,,,,,,,,,,,2,7.434,1,,,,,,-0.06494818,-0.242793758,1,0,0,7.4338,Basalt_rect,7,0,7,0,1,
66561df3560bbac516eb85ac,SCN,2024-06-25_12h41.33.780,LearnStrategy,2023.2.3,Win32,60.97560976,1,2,9,,,,,,,,1,02,,,,,,,,,,,3,8.995,0,,,,,,0.156781229,-0.248337015,1,0,0,8.9955,Diorite_rect,8,0,8,0,1,
66561df3560bbac516eb85ac,SCN,2024-06-25_12h41.33.780,LearnStrategy,2023.2.3,Win32,60.97560976,1,2,10,,,,,,,,8,13,,,,,,,,,,,8,5.531,1,,,,,,0.35726162,-0.413710357,1,0,0,5.531,Pumice_rect,9,0,9,0,1,
66561df3560bbac516eb85ac,SCN,2024-06-25_12h41.33.780,LearnStrategy,2023.2.3,Win32,60.97560976,1,2,11,,,,,,,,7,07,,,,,,,,,,,7,3.89,1,,,,,,0.066241678,-0.397080584,1,0,0,3.8898,Peridotite_rect,10,0,10,0,1,
66561df3560bbac516eb85ac,SCN,2024-06-25_12h41.33.780,LearnStrategy,2023.2.3,Win32,60.97560976,1,2,12,,,,,,,,3,12,,,,,,,,,,,7,2.134,0,,,,,,0.129065016,-0.387841797,1,0,0,2.1344,Peridotite_rect,11,0,11,0,1,
66561df3560bbac516eb85ac,SCN,2024-06-25_12h41.33.780,LearnStrategy,2023.2.3,Win32,60.97560976,1,2,13,,,,,,,,1,10,,,,,,,,,,,7,1.991,0,,,,,,0.163248351,-0.398928386,1,0,0,1.9913,Peridotite_rect,12,0,12,0,1,
66561df3560bbac516eb85ac,SCN,2024-06-25_12h41.33.780,LearnStrategy,2023.2.3,Win32,60.97560976,1,2,14,,,,,,,,4,15,,,,,,,,,,,4,11.279,1,,,,,,0.376663134,-0.25942353,1,0,0,11.2793,Gabbro_rect,13,0,13,0,1,
66561df3560bbac516eb85ac,SCN,2024-06-25_12h41.33.780,LearnStrategy,2023.2.3,Win32,60.97560976,1,2,15,,,,,,,,2,16,,,,,,,,,,,4,12.418,0,,,,,,0.366500333,-0.242793758,1,0,0,12.4182,Gabbro_rect,14,0,14,0,1,
66561df3560bbac516eb85ac,SCN,2024-06-25_12h41.33.780,LearnStrategy,2023.2.3,Win32,60.97560976,1,2,16,,,,,,,,6,07,,,,,,,,,,,7,7.829,0,,,,,,0.093033953,-0.405395433,1,0,0,7.8293,Peridotite_rect,15,0,15,0,1,
66561df3560bbac516eb85ac,SCN,2024-06-25_12h41.33.780,LearnStrategy,2023.2.3,Win32,60.97560976,2,1,1,0.2085182,0.407612703,1,0,0,6.5759,Obsidian_04,5,04,6,6,6.576,-0.390151531,-0.411862555,1,0,0,9.7654,Obsidian_rect,5,9.765,1,0,0,0,0,1,,,,,,,,,,,,,
66561df3560bbac516eb85ac,SCN,2024-06-25_12h41.33.780,LearnStrategy,2023.2.3,Win32,60.97560976,2,1,2,-0.397542516,0.407612703,1,0,0,2.217,Pumice_02,8,02,6,2,2.217,0.406227075,-0.412786419,1,0,0,4.7455,Pumice_rect,8,4.745,1,1,0,1,0,1,,,,,,,,,,,,,
66561df3560bbac516eb85ac,SCN,2024-06-25_12h41.33.780,LearnStrategy,2023.2.3,Win32,60.97560976,2,1,3,-0.54905764,0.419623063,1,0,0,2.8005,Diorite_07,3,07,6,1,2.8,0.190040626,-0.237250575,1,0,0,3.9131,Diorite_rect,3,3.913,1,2,0,2,0,1,,,,,,,,,,,,,
66561df3560bbac516eb85ac,SCN,2024-06-25_12h41.33.780,LearnStrategy,2023.2.3,Win32,60.97560976,2,1,4,0.051459708,0.108277893,1,0,0,4.996,Peridotite_12,7,12,4,5,4.996,0.150314108,-0.409090889,1,0,0,4.1023,Peridotite_rect,7,4.102,1,3,0,3,0,1,,,,,,,,,,,,,
66561df3560bbac516eb85ac,SCN,2024-06-25_12h41.33.780,LearnStrategy,2023.2.3,Win32,60.97560976,2,1,5,0.191888353,0.113821151,1,0,0,2.9545,Pumice_08,8,08,4,6,2.954,0.434867003,-0.40447157,1,0,0,2.5645,Pumice_rect,8,2.565,1,4,0,4,0,1,,,,,,,,,,,,,
66561df3560bbac516eb85ac,SCN,2024-06-25_12h41.33.780,LearnStrategy,2023.2.3,Win32,60.97560976,2,1,6,0.560513827,-0.078344466,1,0,0,8.8096,Gabbro_14,4,14,3,8,8.81,0.37573927,-0.250184743,1,0,0,3.0653,Gabbro_rect,4,3.065,1,5,0,5,0,1,,,,,,,,,,,,,
66561df3560bbac516eb85ac,SCN,2024-06-25_12h41.33.780,LearnStrategy,2023.2.3,Win32,60.97560976,2,1,7,-0.054785677,-0.06633405,1,0,0,1.7326,Gabbro_01,4,01,3,4,1.733,-0.113913559,-0.396156646,1,0,0,3.6078,Pegmatite_rect,6,3.608,0,6,0,6,0,1,,,,,,,,,,,,,
66561df3560bbac516eb85ac,SCN,2024-06-25_12h41.33.780,LearnStrategy,2023.2.3,Win32,60.97560976,2,1,8,-0.054785677,-0.110679961,1,0,0,1.1951,Gabbro_01,4,01,3,4,1.195,0.355413893,-0.261271333,1,0,0,1.0746,Gabbro_rect,4,1.075,1,7,0,7,0,1,,,,,,,,,,,,,
66561df3560bbac516eb85ac,SCN,2024-06-25_12h41.33.780,LearnStrategy,2023.2.3,Win32,60.97560976,2,1,9,0.093957966,-0.40077604,1,0,0,1.5784,Basalt_09,2,09,1,5,1.578,-0.379065053,-0.248337015,1,0,0,5.8615,Andesite_rect,1,5.862,0,8,0,8,0,1,,,,,,,,,,,,,
66561df3560bbac516eb85ac,SCN,2024-06-25_12h41.33.780,LearnStrategy,2023.2.3,Win32,60.97560976,2,1,10,-0.202605308,-0.241869894,1,0,0,4.0866,Diorite_08,3,08,2,3,4.087,0.117978575,-0.231707392,1,0,0,1.8528,Diorite_rect,3,1.853,1,9,0,9,0,1,,,,,,,,,,,,,
66561df3560bbac516eb85ac,SCN,2024-06-25_12h41.33.780,LearnStrategy,2023.2.3,Win32,60.97560976,2,1,11,-0.051090147,0.062084217,1,0,0,3.2628,Obsidian_12,5,12,4,4,3.263,0.354490029,-0.237250575,1,0,0,1.9373,Gabbro_rect,4,1.937,0,10,0,10,0,1,,,,,,,,,,,,,
66561df3560bbac516eb85ac,SCN,2024-06-25_12h41.33.780,LearnStrategy,2023.2.3,Win32,60.97560976,2,1,12,-0.04185136,0.111973386,1,0,0,1.2306,Obsidian_12,5,12,4,4,1.231,-0.3855321,-0.386917933,1,0,0,1.012,Obsidian_rect,5,1.012,1,11,0,11,0,1,,,,,,,,,,,,,
66561df3560bbac516eb85ac,SCN,2024-06-25_12h41.33.780,LearnStrategy,2023.2.3,Win32,60.97560976,2,1,13,-0.379065053,0.099963007,1,0,0,1.8303,Pegmatite_06,6,06,4,2,1.83,-0.328251983,-0.247413151,1,0,0,2.1359,Andesite_rect,1,2.136,0,12,0,12,0,1,,,,,,,,,,,,,
66561df3560bbac516eb85ac,SCN,2024-06-25_12h41.33.780,LearnStrategy,2023.2.3,Win32,60.97560976,2,1,14,-0.359663726,0.08980043,1,0,0,1.0964,Pegmatite_06,6,06,4,2,1.096,-0.138858107,-0.390613463,1,0,0,1.1177,Pegmatite_rect,6,1.118,1,13,0,13,0,1,,,,,,,,,,,,,
66561df3560bbac516eb85ac,SCN,2024-06-25_12h41.33.780,LearnStrategy,2023.2.3,Win32,60.97560976,2,1,15,0.547579435,0.244087219,1,0,0,2.1357,Pegmatite_11,6,11,5,8,2.136,-0.408628994,-0.228935726,1,0,0,3.7461,Andesite_rect,1,3.746,0,14,0,14,0,1,,,,,,,,,,,,,
66561df3560bbac516eb85ac,SCN,2024-06-25_12h41.33.780,LearnStrategy,2023.2.3,Win32,60.97560976,2,1,16,0.573447921,0.2616408,1,0,0,2.7802,Pegmatite_11,6,11,5,8,2.78,-0.145325228,-0.393385054,1,0,0,1.7501,Pegmatite_rect,6,1.75,1,15,0,15,0,1,,,,,,,,,,,,,
66561df3560bbac516eb85ac,SCN,2024-06-25_12h41.33.780,LearnStrategy,2023.2.3,Win32,60.97560976,2,2,1,,,,,,,,6,05,,,,,,,,,,,3,3.016,0,,,,,,0.132760546,-0.242793758,1,0,0,3.0156,Diorite_rect,0,0,0,0,1,
66561df3560bbac516eb85ac,SCN,2024-06-25_12h41.33.780,LearnStrategy,2023.2.3,Win32,60.97560976,2,2,2,,,,,,,,4,16,,,,,,,,,,,2,1.958,0,,,,,,-0.119456742,-0.24464156,1,0,0,1.9583,Basalt_rect,1,0,1,0,1,
66561df3560bbac516eb85ac,SCN,2024-06-25_12h41.33.780,LearnStrategy,2023.2.3,Win32,60.97560976,2,2,3,,,,,,,,7,05,,,,,,,,,,,7,10.579,1,,,,,,0.117054786,-0.383222552,1,0,0,10.5791,Peridotite_rect,2,0,2,0,1,
66561df3560bbac516eb85ac,SCN,2024-06-25_12h41.33.780,LearnStrategy,2023.2.3,Win32,60.97560976,2,2,4,,,,,,,,8,05,,,,,,,,,,,8,5.251,1,,,,,,0.336012529,-0.410014753,1,0,0,5.2511,Pumice_rect,3,0,3,0,1,
66561df3560bbac516eb85ac,SCN,2024-06-25_12h41.33.780,LearnStrategy,2023.2.3,Win32,60.97560976,2,2,5,,,,,,,,1,14,,,,,,,,,,,3,6.844,0,,,,,,0.122597894,-0.247413151,1,0,0,6.8436,Diorite_rect,4,0,4,0,1,
66561df3560bbac516eb85ac,SCN,2024-06-25_12h41.33.780,LearnStrategy,2023.2.3,Win32,60.97560976,2,2,6,,,,,,,,6,08,,,,,,,,,,,2,4.246,0,,,,,,-0.101903106,-0.247413151,1,0,0,4.2456,Basalt_rect,5,0,5,0,1,
66561df3560bbac516eb85ac,SCN,2024-06-25_12h41.33.780,LearnStrategy,2023.2.3,Win32,60.97560976,2,2,7,,,,,,,,1,07,,,,,,,,,,,3,5.41,0,,,,,,0.130912744,-0.252032545,1,0,0,5.4097,Diorite_rect,6,0,6,0,1,
66561df3560bbac516eb85ac,SCN,2024-06-25_12h41.33.780,LearnStrategy,2023.2.3,Win32,60.97560976,2,2,8,,,,,,,,5,10,,,,,,,,,,,5,4.761,1,,,,,,-0.347653384,-0.390613463,1,0,0,4.7611,Obsidian_rect,7,0,7,0,1,
66561df3560bbac516eb85ac,SCN,2024-06-25_12h41.33.780,LearnStrategy,2023.2.3,Win32,60.97560976,2,2,9,,,,,,,,3,13,,,,,,,,,,,3,7.408,1,,,,,,0.121674031,-0.242793758,1,0,0,7.4084,Diorite_rect,8,0,8,0,1,
66561df3560bbac516eb85ac,SCN,2024-06-25_12h41.33.780,LearnStrategy,2023.2.3,Win32,60.97560976,2,2,10,,,,,,,,5,09,,,,,,,,,,,5,6.956,1,,,,,,-0.359663726,-0.398004448,1,0,0,6.9559,Obsidian_rect,9,0,9,0,1,
66561df3560bbac516eb85ac,SCN,2024-06-25_12h41.33.780,LearnStrategy,2023.2.3,Win32,60.97560976,2,2,11,,,,,,,,4,09,,,,,,,,,,,1,5.587,0,,,,,,-0.368902439,-0.238174513,1,0,0,5.5873,Andesite_rect,10,0,10,0,1,
66561df3560bbac516eb85ac,SCN,2024-06-25_12h41.33.780,LearnStrategy,2023.2.3,Win32,60.97560976,2,2,12,,,,,,,,2,11,,,,,,,,,,,1,1.788,0,,,,,,-0.366130773,-0.24464156,1,0,0,1.7878,Andesite_rect,11,0,11,0,1,
66561df3560bbac516eb85ac,SCN,2024-06-25_12h41.33.780,LearnStrategy,2023.2.3,Win32,60.97560976,2,2,13,,,,,,,,2,05,,,,,,,,,,,2,7.82,1,,,,,,-0.150868411,-0.252956409,1,0,0,7.8202,Basalt_rect,12,0,12,0,1,
66561df3560bbac516eb85ac,SCN,2024-06-25_12h41.33.780,LearnStrategy,2023.2.3,Win32,60.97560976,2,2,14,,,,,,,,7,08,,,,,,,,,,,7,4.301,1,,,,,,0.105968196,-0.390613463,1,0,0,4.3011,Peridotite_rect,13,0,13,0,1,
66561df3560bbac516eb85ac,SCN,2024-06-25_12h41.33.780,LearnStrategy,2023.2.3,Win32,60.97560976,2,2,15,,,,,,,,3,11,,,,,,,,,,,1,7.358,0,,,,,,-0.412324487,-0.24464156,1,0,0,7.358,Andesite_rect,14,0,14,0,1,
66561df3560bbac516eb85ac,SCN,2024-06-25_12h41.33.780,LearnStrategy,2023.2.3,Win32,60.97560976,2,2,16,,,,,,,,8,10,,,,,,,,,,,3,6.269,0,,,,,,0.108739937,-0.242793758,1,0,0,6.2695,Diorite_rect,15,0,15,0,1,
66561df3560bbac516eb85ac,SCN,2024-06-25_12h41.33.780,LearnStrategy,2023.2.3,Win32,60.97560976,3,1,1,-0.537047261,0.414079824,1,0,0,10.0084,Diorite_07,3,07,6,1,10.008,-0.12869553,-0.247413151,1,0,0,12.4503,Basalt_rect,2,12.45,0,0,0,0,0,1,,,,,,,,,,,,,
66561df3560bbac516eb85ac,SCN,2024-06-25_12h41.33.780,LearnStrategy,2023.2.3,Win32,60.97560976,3,1,2,-0.417867707,0.419623063,1,0,0,1.811,Pumice_02,8,02,6,2,1.811,-0.113913559,-0.262195196,1,0,0,1.8117,Basalt_rect,2,1.812,0,1,0,1,0,1,,,,,,,,,,,,,
66561df3560bbac516eb85ac,SCN,2024-06-25_12h41.33.780,LearnStrategy,2023.2.3,Win32,60.97560976,3,1,3,0.255635629,0.41869919,1,0,0,1.4459,Obsidian_04,5,04,6,6,1.446,-0.38368441,-0.389689599,1,0,0,1.7111,Obsidian_rect,5,1.711,1,2,0,2,0,1,,,,,,,,,,,,,
66561df3560bbac516eb85ac,SCN,2024-06-25_12h41.33.780,LearnStrategy,2023.2.3,Win32,60.97560976,3,1,4,0.250092371,-0.268662318,1,0,0,1.5938,Pumice_14,8,14,2,6,1.594,-0.083425754,-0.398004448,1,0,0,1.7281,Pegmatite_rect,6,1.728,0,3,0,3,0,1,,,,,,,,,,,,,
66561df3560bbac516eb85ac,SCN,2024-06-25_12h41.33.780,LearnStrategy,2023.2.3,Win32,60.97560976,3,1,5,0.562361406,-0.106060605,1,0,0,7.0269,Gabbro_14,4,14,3,8,7.027,0.392368968,-0.394308918,1,0,0,2.2025,Pumice_rect,8,2.202,0,4,0,4,0,1,,,,,,,,,,,,,
66561df3560bbac516eb85ac,SCN,2024-06-25_12h41.33.780,LearnStrategy,2023.2.3,Win32,60.97560976,3,1,6,0.527254281,-0.090354771,1,0,0,1.2159,Gabbro_14,4,14,3,8,1.216,0.346175254,-0.247413151,1,0,0,1.0179,Gabbro_rect,4,1.018,1,5,0,5,0,1,,,,,,,,,,,,,
66561df3560bbac516eb85ac,SCN,2024-06-25_12h41.33.780,LearnStrategy,2023.2.3,Win32,60.97560976,3,1,7,0.113359181,-0.122690303,1,0,0,1.0338,Diorite_10,3,10,3,5,1.034,-0.343957892,-0.24464156,1,0,0,1.4978,Andesite_rect,1,1.498,0,6,0,6,0,1,,,,,,,,,,,,,
66561df3560bbac516eb85ac,SCN,2024-06-25_12h41.33.780,LearnStrategy,2023.2.3,Win32,60.97560976,3,1,8,0.2085182,0.301367336,1,0,0,1.7679,Pegmatite_12,6,12,5,6,1.768,-0.139781971,-0.231707392,1,0,0,1.9065,Basalt_rect,2,1.907,0,7,0,7,0,1,,,,,,,,,,,,,
66561df3560bbac516eb85ac,SCN,2024-06-25_12h41.33.780,LearnStrategy,2023.2.3,Win32,60.97560976,3,1,9,0.236234265,0.250554322,1,0,0,1.2358,Pegmatite_12,6,12,5,6,1.236,-0.173041367,-0.408167025,1,0,0,1.0994,Pegmatite_rect,6,1.099,1,8,0,8,0,1,,,,,,,,,,,,,
66561df3560bbac516eb85ac,SCN,2024-06-25_12h41.33.780,LearnStrategy,2023.2.3,Win32,60.97560976,3,1,10,-0.536123434,-0.24464156,1,0,0,22.7212,Basalt_08,2,08,2,1,22.721,0.432095262,-0.247413151,1,0,0,10.4177,Gabbro_rect,4,10.418,0,9,0,9,0,1,,,,,,,,,,,,,
66561df3560bbac516eb85ac,SCN,2024-06-25_12h41.33.780,LearnStrategy,2023.2.3,Win32,60.97560976,3,1,11,0.232538809,-0.403547631,1,0,0,1.4609,Andesite_06,1,06,1,6,1.461,-0.409552858,-0.410938616,1,0,0,1.6647,Obsidian_rect,5,1.665,0,10,0,10,0,1,,,,,,,,,,,,,
66561df3560bbac516eb85ac,SCN,2024-06-25_12h41.33.780,LearnStrategy,2023.2.3,Win32,60.97560976,3,1,12,0.374815257,-0.250184743,1,0,0,1.829,Peridotite_15,7,15,2,7,1.829,0.149390244,-0.387841797,1,0,0,1.0837,Peridotite_rect,7,1.084,1,11,0,11,0,1,,,,,,,,,,,,,
66561df3560bbac516eb85ac,SCN,2024-06-25_12h41.33.780,LearnStrategy,2023.2.3,Win32,60.97560976,3,1,13,0.420085032,-0.394308918,1,0,0,4.6843,Gabbro_03,4,03,1,7,4.684,-0.111141893,-0.248337015,1,0,0,1.1352,Basalt_rect,2,1.135,0,12,0,12,0,1,,,,,,,,,,,,,
66561df3560bbac516eb85ac,SCN,2024-06-25_12h41.33.780,LearnStrategy,2023.2.3,Win32,60.97560976,3,1,14,0.35726162,-0.418329602,1,0,0,1.0957,Gabbro_03,4,03,1,7,1.096,0.297209875,-0.265890577,1,0,0,0.7946,Gabbro_rect,4,0.795,1,13,0,13,0,1,,,,,,,,,,,,,
66561df3560bbac516eb85ac,SCN,2024-06-25_12h41.33.780,LearnStrategy,2023.2.3,Win32,60.97560976,3,1,15,0.527254281,0.242239473,1,0,0,2.7127,Pegmatite_11,6,11,5,8,2.713,-0.121304545,-0.263118986,1,0,0,1.5881,Basalt_rect,2,1.588,0,14,0,14,0,1,,,,,,,,,,,,,
66561df3560bbac516eb85ac,SCN,2024-06-25_12h41.33.780,LearnStrategy,2023.2.3,Win32,60.97560976,3,1,16,-0.522265327,0.409460459,1,0,0,2.83,Diorite_07,3,07,6,1,2.83,-0.082501891,-0.420177404,1,0,0,1.6576,Pegmatite_rect,6,1.658,0,15,0,15,0,1,,,,,,,,,,,,,
66561df3560bbac516eb85ac,SCN,2024-06-25_12h41.33.780,LearnStrategy,2023.2.3,Win32,60.97560976,3,2,1,,,,,,,,6,16,,,,,,,,,,,4,2.925,0,,,,,,0.4145417,-0.24464156,1,0,0,2.9249,Gabbro_rect,0,0,0,0,1,
66561df3560bbac516eb85ac,SCN,2024-06-25_12h41.33.780,LearnStrategy,2023.2.3,Win32,60.97560976,3,2,2,,,,,,,,2,04,,,,,,,,,,,2,1.501,1,,,,,,-0.123152272,-0.245565424,1,0,0,1.5006,Basalt_rect,1,0,1,0,1,
66561df3560bbac516eb85ac,SCN,2024-06-25_12h41.33.780,LearnStrategy,2023.2.3,Win32,60.97560976,3,2,3,,,,,,,,7,13,,,,,,,,,,,3,1.732,0,,,,,,0.123521758,-0.239098377,1,0,0,1.7321,Diorite_rect,2,0,2,0,1,
66561df3560bbac516eb85ac,SCN,2024-06-25_12h41.33.780,LearnStrategy,2023.2.3,Win32,60.97560976,3,2,4,,,,,,,,1,04,,,,,,,,,,,6,3.466,0,,,,,,-0.138858107,-0.396156646,1,0,0,3.4655,Pegmatite_rect,3,0,3,0,1,
66561df3560bbac516eb85ac,SCN,2024-06-25_12h41.33.780,LearnStrategy,2023.2.3,Win32,60.97560976,3,2,5,,,,,,,,8,03,,,,,,,,,,,7,4.706,0,,,,,,0.08749077,-0.39985225,1,0,0,4.7057,Peridotite_rect,4,0,4,0,1,
66561df3560bbac516eb85ac,SCN,2024-06-25_12h41.33.780,LearnStrategy,2023.2.3,Win32,60.97560976,3,2,6,,,,,,,,3,02,,,,,,,,,,,3,6.496,1,,,,,,0.119826303,-0.250184743,1,0,0,6.4965,Diorite_rect,5,0,5,0,1,
66561df3560bbac516eb85ac,SCN,2024-06-25_12h41.33.780,LearnStrategy,2023.2.3,Win32,60.97560976,3,2,7,,,,,,,,3,14,,,,,,,,,,,4,4.392,0,,,,,,0.35726162,-0.261271333,1,0,0,4.3918,Gabbro_rect,6,0,6,0,1,
66561df3560bbac516eb85ac,SCN,2024-06-25_12h41.33.780,LearnStrategy,2023.2.3,Win32,60.97560976,3,2,8,,,,,,,,7,16,,,,,,,,,,,2,1.692,0,,,,,,-0.076034769,-0.247413151,1,0,0,1.6923,Basalt_rect,7,0,7,0,1,
66561df3560bbac516eb85ac,SCN,2024-06-25_12h41.33.780,LearnStrategy,2023.2.3,Win32,60.97560976,3,2,9,,,,,,,,4,08,,,,,,,,,,,1,7.925,0,,,,,,-0.364283083,-0.243717622,1,0,0,7.9252,Andesite_rect,8,0,8,0,1,
66561df3560bbac516eb85ac,SCN,2024-06-25_12h41.33.780,LearnStrategy,2023.2.3,Win32,60.97560976,3,2,10,,,,,,,,5,08,,,,,,,,,,,5,19.334,1,,,,,,-0.354120469,-0.397080584,1,0,0,19.3345,Obsidian_rect,9,0,9,0,1,
66561df3560bbac516eb85ac,SCN,2024-06-25_12h41.33.780,LearnStrategy,2023.2.3,Win32,60.97560976,3,2,11,,,,,,,,6,15,,,,,,,,,,,1,2.117,0,,,,,,-0.306079102,-0.240022166,1,0,0,2.1174,Andesite_rect,10,0,10,0,1,
66561df3560bbac516eb85ac,SCN,2024-06-25_12h41.33.780,LearnStrategy,2023.2.3,Win32,60.97560976,3,2,12,,,,,,,,1,11,,,,,,,,,,,2,4.379,0,,,,,,-0.175813033,-0.239098377,1,0,0,4.379,Basalt_rect,11,0,11,0,1,
66561df3560bbac516eb85ac,SCN,2024-06-25_12h41.33.780,LearnStrategy,2023.2.3,Win32,60.97560976,3,2,13,,,,,,,,4,13,,,,,,,,,,,8,2.517,0,,,,,,0.360957225,-0.403547631,1,0,0,2.5167,Pumice_rect,12,0,12,0,1,
66561df3560bbac516eb85ac,SCN,2024-06-25_12h41.33.780,LearnStrategy,2023.2.3,Win32,60.97560976,3,2,14,,,,,,,,8,09,,,,,,,,,,,3,1.317,0,,,,,,0.134608273,-0.253880347,1,0,0,1.3168,Diorite_rect,13,0,13,0,1,
66561df3560bbac516eb85ac,SCN,2024-06-25_12h41.33.780,LearnStrategy,2023.2.3,Win32,60.97560976,3,2,15,,,,,,,,5,06,,,,,,,,,,,5,2.403,1,,,,,,-0.378141189,-0.419253466,1,0,0,2.4033,Obsidian_rect,14,0,14,0,1,
66561df3560bbac516eb85ac,SCN,2024-06-25_12h41.33.780,LearnStrategy,2023.2.3,Win32,60.97560976,3,2,16,,,,,,,,2,02,,,,,,,,,,,1,2.197,0,,,,,,-0.425258692,-0.26404285,1,0,0,2.197,Andesite_rect,15,0,15,0,1,
66561df3560bbac516eb85ac,SCN,2024-06-25_12h41.33.780,LearnStrategy,2023.2.3,Win32,60.97560976,4,1,1,-0.232169175,0.426090171,1,0,0,2.0406,Obsidian_11,5,11,6,3,2.041,-0.314393951,-0.392461265,1,0,0,1.7899,Obsidian_rect,5,1.79,1,0,0,0,0,1,,,,,,,,,,,,,
66561df3560bbac516eb85ac,SCN,2024-06-25_12h41.33.780,LearnStrategy,2023.2.3,Win32,60.97560976,4,1,2,-0.537047261,-0.241869894,1,0,0,4.8371,Basalt_08,2,08,2,1,4.837,-0.09081674,-0.250184743,1,0,0,1.1233,Basalt_rect,2,1.123,1,1,0,1,0,1,,,,,,,,,,,,,
66561df3560bbac516eb85ac,SCN,2024-06-25_12h41.33.780,LearnStrategy,2023.2.3,Win32,60.97560976,4,1,3,0.366500333,0.092572021,1,0,0,3.4442,Peridotite_02,7,02,4,7,3.444,-0.417867707,-0.246489362,1,0,0,1.9879,Andesite_rect,1,1.988,0,2,0,2,0,1,,,,,,,,,,,,,
66561df3560bbac516eb85ac,SCN,2024-06-25_12h41.33.780,LearnStrategy,2023.2.3,Win32,60.97560976,4,1,4,0.093033953,0.386363639,1,0,0,1.3641,Pegmatite_03,6,03,6,5,1.364,-0.122228408,-0.385994069,1,0,0,1.4687,Pegmatite_rect,6,1.469,1,3,0,3,0,1,,,,,,,,,,,,,
66561df3560bbac516eb85ac,SCN,2024-06-25_12h41.33.780,LearnStrategy,2023.2.3,Win32,60.97560976,4,1,5,0.541112388,-0.118994811,1,0,0,4.9649,Gabbro_14,4,14,3,8,4.965,-0.397542516,-0.252956409,1,0,0,1.2202,Andesite_rect,1,1.22,0,4,0,4,0,1,,,,,,,,,,,,,
66561df3560bbac516eb85ac,SCN,2024-06-25_12h41.33.780,LearnStrategy,2023.2.3,Win32,60.97560976,4,1,6,0.589153904,-0.105136778,1,0,0,1.4197,Gabbro_14,4,14,3,8,1.42,0.424704352,-0.233555045,1,0,0,0.7439,Gabbro_rect,4,0.744,1,5,0,5,0,1,,,,,,,,,,,,,
66561df3560bbac516eb85ac,SCN,2024-06-25_12h41.33.780,LearnStrategy,2023.2.3,Win32,60.97560976,4,1,7,0.530949737,-0.240022166,1,0,0,1.4968,Obsidian_16,5,16,2,8,1.497,-0.076958633,-0.24094603,1,0,0,1.2544,Basalt_rect,2,1.254,0,6,0,6,0,1,,,,,,,,,,,,,
66561df3560bbac516eb85ac,SCN,2024-06-25_12h41.33.780,LearnStrategy,2023.2.3,Win32,60.97560976,4,1,8,0.415465564,-0.398004448,1,0,0,1.3131,Gabbro_03,4,03,1,7,1.313,-0.047394692,-0.403547631,1,0,0,1.8126,Pegmatite_rect,6,1.813,0,7,0,7,0,1,,,,,,,,,,,,,
66561df3560bbac516eb85ac,SCN,2024-06-25_12h41.33.780,LearnStrategy,2023.2.3,Win32,60.97560976,4,1,9,-0.260809326,-0.419253466,1,0,0,1.3102,Andesite_09,1,09,1,3,1.31,0.346175254,-0.24094603,1,0,0,1.9161,Gabbro_rect,4,1.916,0,8,0,8,0,1,,,,,,,,,,,,,
66561df3560bbac516eb85ac,SCN,2024-06-25_12h41.33.780,LearnStrategy,2023.2.3,Win32,60.97560976,4,1,10,-0.55829639,-0.396156646,1,0,0,1.4523,Andesite_05,1,05,1,1,1.452,-0.388303766,-0.254804137,1,0,0,1.1165,Andesite_rect,1,1.116,1,9,0,9,0,1,,,,,,,,,,,,,
66561df3560bbac516eb85ac,SCN,2024-06-25_12h41.33.780,LearnStrategy,2023.2.3,Win32,60.97560976,4,1,11,0.403455334,0.260716936,1,0,0,1.8163,Peridotite_06,7,06,5,7,1.816,-0.121304545,-0.238174513,1,0,0,1.5508,Basalt_rect,2,1.551,0,10,0,10,0,1,,,,,,,,,,,,,
66561df3560bbac516eb85ac,SCN,2024-06-25_12h41.33.780,LearnStrategy,2023.2.3,Win32,60.97560976,4,1,12,0.559589963,0.230229131,1,0,0,2.0635,Pegmatite_11,6,11,5,8,2.063,-0.363359219,-0.243717622,1,0,0,1.0388,Andesite_rect,1,1.039,0,11,0,11,0,1,,,,,,,,,,,,,
66561df3560bbac516eb85ac,SCN,2024-06-25_12h41.33.780,LearnStrategy,2023.2.3,Win32,60.97560976,4,1,13,0.57806724,0.233000741,1,0,0,1.2351,Pegmatite_11,6,11,5,8,1.235,-0.139781971,-0.408167025,1,0,0,1.3056,Pegmatite_rect,6,1.306,1,12,0,12,0,1,,,,,,,,,,,,,
66561df3560bbac516eb85ac,SCN,2024-06-25_12h41.33.780,LearnStrategy,2023.2.3,Win32,60.97560976,4,1,14,0.55127489,-0.086659278,1,0,0,1.7296,Gabbro_14,4,14,3,8,1.73,-0.053861813,-0.411862555,1,0,0,2.6091,Pegmatite_rect,6,2.609,0,13,0,13,0,1,,,,,,,,,,,,,
66561df3560bbac516eb85ac,SCN,2024-06-25_12h41.33.780,LearnStrategy,2023.2.3,Win32,60.97560976,4,1,15,-0.242331826,-0.24464156,1,0,0,2.9629,Diorite_08,3,08,2,3,2.963,-0.060328935,-0.392461265,1,0,0,1.4408,Pegmatite_rect,6,1.441,0,14,0,14,0,1,,,,,,,,,,,,,
66561df3560bbac516eb85ac,SCN,2024-06-25_12h41.33.780,LearnStrategy,2023.2.3,Win32,60.97560976,4,1,16,-0.226625991,-0.243717622,1,0,0,1.2526,Diorite_08,3,08,2,3,1.253,0.112435318,-0.240022166,1,0,0,2.3963,Diorite_rect,3,2.396,1,15,0,15,0,1,,,,,,,,,,,,,
66561df3560bbac516eb85ac,SCN,2024-06-25_12h41.33.780,LearnStrategy,2023.2.3,Win32,60.97560976,4,2,1,,,,,,,,4,12,,,,,,,,,,,6,2.804,0,,,,,,-0.125923789,-0.39985225,1,0,0,2.8039,Pegmatite_rect,0,0,0,0,1,
66561df3560bbac516eb85ac,SCN,2024-06-25_12h41.33.780,LearnStrategy,2023.2.3,Win32,60.97560976,4,2,2,,,,,,,,3,14,,,,,,,,,,,7,3.276,0,,,,,,0.11058759,-0.413710357,1,0,0,3.2761,Peridotite_rect,1,0,1,0,1,
66561df3560bbac516eb85ac,SCN,2024-06-25_12h41.33.780,LearnStrategy,2023.2.3,Win32,60.97560976,4,2,3,,,,,,,,6,15,,,,,,,,,,,8,2.691,0,,,,,,0.315687449,-0.405395433,1,0,0,2.6909,Pumice_rect,2,0,2,0,1,
66561df3560bbac516eb85ac,SCN,2024-06-25_12h41.33.780,LearnStrategy,2023.2.3,Win32,60.97560976,4,2,4,,,,,,,,6,08,,,,,,,,,,,2,1.341,0,,,,,,-0.113913559,-0.251108607,1,0,0,1.3409,Basalt_rect,3,0,3,0,1,
66561df3560bbac516eb85ac,SCN,2024-06-25_12h41.33.780,LearnStrategy,2023.2.3,Win32,60.97560976,4,2,5,,,,,,,,2,01,,,,,,,,,,,2,2.822,1,,,,,,-0.1434775,-0.252032545,1,0,0,2.8217,Basalt_rect,4,0,4,0,1,
66561df3560bbac516eb85ac,SCN,2024-06-25_12h41.33.780,LearnStrategy,2023.2.3,Win32,60.97560976,4,2,6,,,,,,,,5,02,,,,,,,,,,,5,1.739,1,,,,,,-0.355968233,-0.393385054,1,0,0,1.739,Obsidian_rect,5,0,5,0,1,
66561df3560bbac516eb85ac,SCN,2024-06-25_12h41.33.780,LearnStrategy,2023.2.3,Win32,60.97560976,4,2,7,,,,,,,,1,10,,,,,,,,,,,1,1.312,1,,,,,,-0.396618578,-0.232631181,1,0,0,1.3121,Andesite_rect,6,0,6,0,1,
66561df3560bbac516eb85ac,SCN,2024-06-25_12h41.33.780,LearnStrategy,2023.2.3,Win32,60.97560976,4,2,8,,,,,,,,1,14,,,,,,,,,,,1,1.333,1,,,,,,-0.449279339,-0.253880347,1,0,0,1.3333,Andesite_rect,7,0,7,0,1,
66561df3560bbac516eb85ac,SCN,2024-06-25_12h41.33.780,LearnStrategy,2023.2.3,Win32,60.97560976,4,2,9,,,,,,,,2,05,,,,,,,,,,,2,2.238,1,,,,,,-0.100979317,-0.243717622,1,0,0,2.2385,Basalt_rect,8,0,8,0,1,
66561df3560bbac516eb85ac,SCN,2024-06-25_12h41.33.780,LearnStrategy,2023.2.3,Win32,60.97560976,4,2,10,,,,,,,,7,07,,,,,,,,,,,6,1.702,0,,,,,,-0.076958633,-0.407243236,1,0,0,1.702,Pegmatite_rect,9,0,9,0,1,
66561df3560bbac516eb85ac,SCN,2024-06-25_12h41.33.780,LearnStrategy,2023.2.3,Win32,60.97560976,4,2,11,,,,,,,,8,03,,,,,,,,,,,8,1.202,1,,,,,,0.405303062,-0.410014753,1,0,0,1.2022,Pumice_rect,10,0,10,0,1,
66561df3560bbac516eb85ac,SCN,2024-06-25_12h41.33.780,LearnStrategy,2023.2.3,Win32,60.97560976,4,2,12,,,,,,,,7,08,,,,,,,,,,,7,1.659,1,,,,,,0.145694714,-0.398928386,1,0,0,1.6587,Peridotite_rect,11,0,11,0,1,
66561df3560bbac516eb85ac,SCN,2024-06-25_12h41.33.780,LearnStrategy,2023.2.3,Win32,60.97560976,4,2,13,,,,,,,,8,10,,,,,,,,,,,8,1.274,1,,,,,,0.381282304,-0.40447157,1,0,0,1.2741,Pumice_rect,12,0,12,0,1,
66561df3560bbac516eb85ac,SCN,2024-06-25_12h41.33.780,LearnStrategy,2023.2.3,Win32,60.97560976,4,2,14,,,,,,,,4,15,,,,,,,,,,,3,0.896,0,,,,,,0.163248351,-0.236326711,1,0,0,0.8962,Diorite_rect,13,0,13,0,1,
66561df3560bbac516eb85ac,SCN,2024-06-25_12h41.33.780,LearnStrategy,2023.2.3,Win32,60.97560976,4,2,15,,,,,,,,3,12,,,,,,,,,,,3,1.418,1,,,,,,0.119826303,-0.248337015,1,0,0,1.4179,Diorite_rect,14,0,14,0,1,
66561df3560bbac516eb85ac,SCN,2024-06-25_12h41.33.780,LearnStrategy,2023.2.3,Win32,60.97560976,4,2,16,,,,,,,,5,06,,,,,,,,,,,5,1.44,1,,,,,,-0.390151531,-0.391537401,1,0,0,1.4405,Obsidian_rect,15,0,15,0,1,
66561df3560bbac516eb85ac,SCN,2024-06-25_12h41.33.780,LearnStrategy,2023.2.3,Win32,60.97560976,5,1,1,-0.581393209,0.427014044,1,0,0,1.7285,Diorite_07,3,07,6,1,1.728,-0.387379902,-0.230783528,1,0,0,2.5086,Andesite_rect,1,2.509,0,0,0,0,0,1,,,,,,,,,,,,,
66561df3560bbac516eb85ac,SCN,2024-06-25_12h41.33.780,LearnStrategy,2023.2.3,Win32,60.97560976,5,1,2,0.555894359,0.259793054,1,0,0,1.799,Pegmatite_11,6,11,5,8,1.799,-0.208148566,-0.386917933,1,0,0,0.8865,Pegmatite_rect,6,0.887,1,1,0,1,0,1,,,,,,,,,,,,,
66561df3560bbac516eb85ac,SCN,2024-06-25_12h41.33.780,LearnStrategy,2023.2.3,Win32,60.97560976,5,1,3,-0.247875009,0.387287512,1,0,0,1.1459,Obsidian_11,5,11,6,3,1.146,-0.400314071,-0.402623767,1,0,0,2.6976,Obsidian_rect,5,2.698,1,2,0,2,0,1,,,,,,,,,,,,,
66561df3560bbac516eb85ac,SCN,2024-06-25_12h41.33.780,LearnStrategy,2023.2.3,Win32,60.97560976,5,1,4,0.558666099,0.426090171,1,0,0,1.8268,Gabbro_05,4,05,6,8,1.827,0.366500333,-0.254804137,1,0,0,91.4721,Gabbro_rect,4,91.472,1,3,0,3,0,1,,,,,,,,,,,,,
66561df3560bbac516eb85ac,SCN,2024-06-25_12h41.33.780,LearnStrategy,2023.2.3,Win32,60.97560976,5,1,5,0.392368968,0.462121212,1,0,0,1.7612,Pumice_04,8,04,6,7,1.761,-0.130543258,-0.380450812,1,0,0,1.3239,Pegmatite_rect,6,1.324,0,4,0,4,0,1,,,,,,,,,,,,,
66561df3560bbac516eb85ac,SCN,2024-06-25_12h41.33.780,LearnStrategy,2023.2.3,Win32,60.97560976,5,1,6,-0.428954185,-0.091278634,1,0,0,5.9829,Pumice_15,8,15,3,2,5.983,0.326773816,-0.252032545,1,0,0,105.0159,Gabbro_rect,4,105.016,0,5,0,5,0,1,,,,,,,,,,,,,
66561df3560bbac516eb85ac,SCN,2024-06-25_12h41.33.780,LearnStrategy,2023.2.3,Win32,60.97560976,5,1,7,-0.55829639,0.107353992,1,0,0,2.2509,Pumice_06,8,06,4,1,2.251,-0.394770887,-0.239098377,1,0,0,2.5627,Andesite_rect,1,2.563,0,6,0,6,0,1,,,,,,,,,,,,,
66561df3560bbac516eb85ac,SCN,2024-06-25_12h41.33.780,LearnStrategy,2023.2.3,Win32,60.97560976,5,1,8,-0.208148566,-0.237250575,1,0,0,1.4986,Diorite_08,3,08,2,3,1.499,-0.097283787,-0.40077604,1,0,0,1.1578,Pegmatite_rect,6,1.158,0,7,0,7,0,1,,,,,,,,,,,,,
66561df3560bbac516eb85ac,SCN,2024-06-25_12h41.33.780,LearnStrategy,2023.2.3,Win32,60.97560976,5,1,9,0.257483357,-0.087583142,1,0,0,1.6953,Pegmatite_13,6,13,3,6,1.695,0.407150938,-0.408167025,1,0,0,1.125,Pumice_rect,8,1.125,0,8,0,8,0,1,,,,,,,,,,,,,
66561df3560bbac516eb85ac,SCN,2024-06-25_12h41.33.780,LearnStrategy,2023.2.3,Win32,60.97560976,5,1,10,-0.528732449,0.278270517,1,0,0,1.3636,Basalt_10,2,10,5,1,1.364,-0.094512121,-0.235402772,1,0,0,1.4835,Basalt_rect,2,1.484,1,9,0,9,0,1,,,,,,,,,,,,,
66561df3560bbac516eb85ac,SCN,2024-06-25_12h41.33.780,LearnStrategy,2023.2.3,Win32,60.97560976,5,1,11,-0.502863963,-0.099593484,1,0,0,1.2475,Diorite_06,3,06,3,1,1.247,-0.374445697,-0.239098377,1,0,0,3.6548,Andesite_rect,1,3.655,0,10,0,10,0,1,,,,,,,,,,,,,
66561df3560bbac516eb85ac,SCN,2024-06-25_12h41.33.780,LearnStrategy,2023.2.3,Win32,60.97560976,5,1,12,0.564209133,-0.088507006,1,0,0,1.4701,Gabbro_14,4,14,3,8,1.47,0.338784269,-0.251108607,1,0,0,1.8516,Gabbro_rect,4,1.852,1,11,0,11,0,1,,,,,,,,,,,,,
66561df3560bbac516eb85ac,SCN,2024-06-25_12h41.33.780,LearnStrategy,2023.2.3,Win32,60.97560976,5,1,13,0.561437542,0.287509248,1,0,0,1.3969,Pegmatite_11,6,11,5,8,1.397,0.44872511,-0.393385054,1,0,0,2.1996,Pumice_rect,8,2.2,0,12,0,12,0,1,,,,,,,,,,,,,
66561df3560bbac516eb85ac,SCN,2024-06-25_12h41.33.780,LearnStrategy,2023.2.3,Win32,60.97560976,5,1,14,0.212213581,0.07594236,1,0,0,0.9426,Pumice_08,8,08,4,6,0.943,0.37573927,-0.410014753,1,0,0,0.9838,Pumice_rect,8,0.984,1,13,0,13,0,1,,,,,,,,,,,,,
66561df3560bbac516eb85ac,SCN,2024-06-25_12h41.33.780,LearnStrategy,2023.2.3,Win32,60.97560976,5,1,15,0.511548447,0.226533639,1,0,0,1.3783,Pegmatite_11,6,11,5,8,1.378,-0.137934243,-0.393385054,1,0,0,3.5059,Pegmatite_rect,6,3.506,1,14,0,14,0,1,,,,,,,,,,,,,
66561df3560bbac516eb85ac,SCN,2024-06-25_12h41.33.780,LearnStrategy,2023.2.3,Win32,60.97560976,5,1,16,0.540188524,0.1045824,1,0,0,1.7273,Basalt_12,2,12,4,8,1.727,-0.432649678,-0.245565424,1,0,0,1.3025,Andesite_rect,1,1.303,0,15,0,15,0,1,,,,,,,,,,,,,
66561df3560bbac516eb85ac,SCN,2024-06-25_12h41.33.780,LearnStrategy,2023.2.3,Win32,60.97560976,5,2,1,,,,,,,,5,10,,,,,,,,,,,5,3.424,1,,,,,,-0.370750204,-0.394308918,1,0,0,3.4236,Obsidian_rect,0,0,0,0,1,
66561df3560bbac516eb85ac,SCN,2024-06-25_12h41.33.780,LearnStrategy,2023.2.3,Win32,60.97560976,5,2,2,,,,,,,,7,13,,,,,,,,,,,1,4.481,0,,,,,,-0.330099785,-0.237250575,1,0,0,4.4809,Andesite_rect,1,0,1,0,1,
66561df3560bbac516eb85ac,SCN,2024-06-25_12h41.33.780,LearnStrategy,2023.2.3,Win32,60.97560976,5,2,3,,,,,,,,2,11,,,,,,,,,,,8,4.01,0,,,,,,0.343403514,-0.413710357,1,0,0,4.0101,Pumice_rect,2,0,2,0,1,
66561df3560bbac516eb85ac,SCN,2024-06-25_12h41.33.780,LearnStrategy,2023.2.3,Win32,60.97560976,5,2,4,,,,,,,,6,05,,,,,,,,,,,5,2.219,0,,,,,,-0.381836682,-0.390613463,1,0,0,2.2188,Obsidian_rect,3,0,3,0,1,
66561df3560bbac516eb85ac,SCN,2024-06-25_12h41.33.780,LearnStrategy,2023.2.3,Win32,60.97560976,5,2,5,,,,,,,,4,08,,,,,,,,,,,2,1.236,0,,,,,,-0.078806361,-0.261271333,1,0,0,1.2358,Basalt_rect,4,0,4,0,1,
66561df3560bbac516eb85ac,SCN,2024-06-25_12h41.33.780,LearnStrategy,2023.2.3,Win32,60.97560976,5,2,6,,,,,,,,8,13,,,,,,,,,,,4,1.607,0,,,,,,0.379434576,-0.255728001,1,0,0,1.607,Gabbro_rect,5,0,5,0,1,
66561df3560bbac516eb85ac,SCN,2024-06-25_12h41.33.780,LearnStrategy,2023.2.3,Win32,60.97560976,5,2,7,,,,,,,,4,09,,,,,,,,,,,7,1.227,0,,,,,,0.117978575,-0.407243236,1,0,0,1.2272,Peridotite_rect,6,0,6,0,1,
66561df3560bbac516eb85ac,SCN,2024-06-25_12h41.33.780,LearnStrategy,2023.2.3,Win32,60.97560976,5,2,8,,,,,,,,1,07,,,,,,,,,,,1,2.011,1,,,,,,-0.370750204,-0.246489362,1,0,0,2.0114,Andesite_rect,7,0,7,0,1,
66561df3560bbac516eb85ac,SCN,2024-06-25_12h41.33.780,LearnStrategy,2023.2.3,Win32,60.97560976,5,2,9,,,,,,,,8,05,,,,,,,,,,,8,2.664,1,,,,,,0.462583067,-0.392461265,1,0,0,2.664,Pumice_rect,8,0,8,0,1,
66561df3560bbac516eb85ac,SCN,2024-06-25_12h41.33.780,LearnStrategy,2023.2.3,Win32,60.97560976,5,2,10,,,,,,,,2,02,,,,,,,,,,,2,1.363,1,,,,,,-0.106522574,-0.249260879,1,0,0,1.3628,Basalt_rect,9,0,9,0,1,
66561df3560bbac516eb85ac,SCN,2024-06-25_12h41.33.780,LearnStrategy,2023.2.3,Win32,60.97560976,5,2,11,,,,,,,,3,13,,,,,,,,,,,7,4.171,0,,,,,,0.101348951,-0.395232782,1,0,0,4.1713,Peridotite_rect,10,0,10,0,1,
66561df3560bbac516eb85ac,SCN,2024-06-25_12h41.33.780,LearnStrategy,2023.2.3,Win32,60.97560976,5,2,12,,,,,,,,6,16,,,,,,,,,,,3,1.627,0,,,,,,0.201127215,-0.26773838,1,0,0,1.6269,Diorite_rect,11,0,11,0,1,
66561df3560bbac516eb85ac,SCN,2024-06-25_12h41.33.780,LearnStrategy,2023.2.3,Win32,60.97560976,5,2,13,,,,,,,,3,09,,,,,,,,,,,1,1.375,0,,,,,,-0.403085737,-0.250184743,1,0,0,1.3753,Andesite_rect,12,0,12,0,1,
66561df3560bbac516eb85ac,SCN,2024-06-25_12h41.33.780,LearnStrategy,2023.2.3,Win32,60.97560976,5,2,14,,,,,,,,1,11,,,,,,,,,,,1,2,1,,,,,,-0.321784936,-0.25942353,1,0,0,2.0003,Andesite_rect,13,0,13,0,1,
66561df3560bbac516eb85ac,SCN,2024-06-25_12h41.33.780,LearnStrategy,2023.2.3,Win32,60.97560976,5,2,15,,,,,,,,5,09,,,,,,,,,,,5,1.701,1,,,,,,-0.457594225,-0.385994069,1,0,0,1.7013,Obsidian_rect,14,0,14,0,1,
66561df3560bbac516eb85ac,SCN,2024-06-25_12h41.33.780,LearnStrategy,2023.2.3,Win32,60.97560976,5,2,16,,,,,,,,7,05,,,,,,,,,,,7,7.252,1,,,,,,0.18634517,-0.409090889,1,0,0,7.2517,Peridotite_rect,15,0,15,0,1,
66561df3560bbac516eb85ac,SCN,2024-06-25_12h41.33.780,LearnStrategy,2023.2.3,Win32,60.97560976,6,1,1,-0.547209912,0.413155951,1,0,0,1.2282,Diorite_07,3,07,6,1,1.228,-0.049242345,-0.236326711,1,0,0,2.1634,Basalt_rect,2,2.163,0,0,0,0,0,1,,,,,,,,,,,,,
66561df3560bbac516eb85ac,SCN,2024-06-25_12h41.33.780,LearnStrategy,2023.2.3,Win32,60.97560976,6,1,2,-0.074186967,-0.128233523,1,0,0,1.3607,Gabbro_01,4,01,3,4,1.361,0.377586849,-0.393385054,1,0,0,10.6766,Pumice_rect,8,10.677,0,1,0,1,0,1,,,,,,,,,,,,,
66561df3560bbac516eb85ac,SCN,2024-06-25_12h41.33.780,LearnStrategy,2023.2.3,Win32,60.97560976,6,1,3,0.268569797,0.121212136,1,0,0,1.3461,Pumice_08,8,08,4,6,1.346,0.145694714,-0.394308918,1,0,0,2.2554,Peridotite_rect,7,2.255,0,2,0,2,0,1,,,,,,,,,,,,,
66561df3560bbac516eb85ac,SCN,2024-06-25_12h41.33.780,LearnStrategy,2023.2.3,Win32,60.97560976,6,1,4,0.578991104,0.118440507,1,0,0,1.1306,Basalt_12,2,12,4,8,1.131,-0.3227088,-0.235402772,1,0,0,1.3087,Andesite_rect,1,1.309,0,3,0,3,0,1,,,,,,,,,,,,,
66561df3560bbac516eb85ac,SCN,2024-06-25_12h41.33.780,LearnStrategy,2023.2.3,Win32,60.97560976,6,1,5,0.081023649,0.071323004,1,0,0,0.9948,Peridotite_12,7,12,4,5,0.995,-0.066795982,-0.397080584,1,0,0,1.9642,Pegmatite_rect,6,1.964,0,4,0,4,0,1,,,,,,,,,,,,,
66561df3560bbac516eb85ac,SCN,2024-06-25_12h41.33.780,LearnStrategy,2023.2.3,Win32,60.97560976,6,1,6,0.25471184,0.09903918,1,0,0,1.4808,Pumice_08,8,08,4,6,1.481,-0.414172214,-0.254804137,1,0,0,1.0541,Andesite_rect,1,1.054,0,5,0,5,0,1,,,,,,,,,,,,,
66561df3560bbac516eb85ac,SCN,2024-06-25_12h41.33.780,LearnStrategy,2023.2.3,Win32,60.97560976,6,1,7,0.573447921,-0.252956409,1,0,0,1.6809,Obsidian_16,5,16,2,8,1.681,-0.118532804,-0.229859589,1,0,0,0.9457,Basalt_rect,2,0.946,0,6,0,6,0,1,,,,,,,,,,,,,
66561df3560bbac516eb85ac,SCN,2024-06-25_12h41.33.780,LearnStrategy,2023.2.3,Win32,60.97560976,6,1,8,0.384053896,-0.086659278,1,0,0,5.8441,Basalt_06,2,06,3,7,5.844,-0.122228408,-0.233555045,1,0,0,1.5954,Basalt_rect,2,1.595,1,7,0,7,0,1,,,,,,,,,,,,,
66561df3560bbac516eb85ac,SCN,2024-06-25_12h41.33.780,LearnStrategy,2023.2.3,Win32,60.97560976,6,1,9,0.544807992,-0.06633405,1,0,0,3.1798,Gabbro_14,4,14,3,8,3.18,-0.20445311,-0.393385054,1,0,0,1.4097,Pegmatite_rect,6,1.41,0,8,0,8,0,1,,,,,,,,,,,,,
66561df3560bbac516eb85ac,SCN,2024-06-25_12h41.33.780,LearnStrategy,2023.2.3,Win32,60.97560976,6,1,10,-0.254342205,0.436252771,1,0,0,1.7788,Obsidian_11,5,11,6,3,1.779,-0.391075395,-0.417405738,1,0,0,1.4643,Obsidian_rect,5,1.464,1,9,0,9,0,1,,,,,,,,,,,,,
66561df3560bbac516eb85ac,SCN,2024-06-25_12h41.33.780,LearnStrategy,2023.2.3,Win32,60.97560976,6,1,11,0.378510712,-0.407243236,1,0,0,1.8975,Gabbro_03,4,03,1,7,1.898,-0.157335533,-0.24464156,1,0,0,3.4848,Basalt_rect,2,3.485,0,10,0,10,0,1,,,,,,,,,,,,,
66561df3560bbac516eb85ac,SCN,2024-06-25_12h41.33.780,LearnStrategy,2023.2.3,Win32,60.97560976,6,1,12,0.258407221,-0.243717622,1,0,0,3.5809,Pumice_14,8,14,2,6,3.581,0.407150938,-0.396156646,1,0,0,3.0176,Pumice_rect,8,3.018,1,11,0,11,0,1,,,,,,,,,,,,,
66561df3560bbac516eb85ac,SCN,2024-06-25_12h41.33.780,LearnStrategy,2023.2.3,Win32,60.97560976,6,1,13,0.530949737,0.272727278,1,0,0,1.8781,Pegmatite_11,6,11,5,8,1.878,0.16786767,-0.386917933,1,0,0,1.4558,Peridotite_rect,7,1.456,0,12,0,12,0,1,,,,,,,,,,,,,
66561df3560bbac516eb85ac,SCN,2024-06-25_12h41.33.780,LearnStrategy,2023.2.3,Win32,60.97560976,6,1,14,-0.538895063,0.269955649,1,0,0,1.918,Basalt_10,2,10,5,1,1.918,-0.101903106,-0.242793758,1,0,0,1.1933,Basalt_rect,2,1.193,1,13,0,13,0,1,,,,,,,,,,,,,
66561df3560bbac516eb85ac,SCN,2024-06-25_12h41.33.780,LearnStrategy,2023.2.3,Win32,60.97560976,6,1,15,0.230691156,0.096267514,1,0,0,20.452,Pumice_08,8,08,4,6,20.452,0.395140411,-0.253880347,1,0,0,3.0537,Gabbro_rect,4,3.054,0,14,0,14,0,1,,,,,,,,,,,,,
66561df3560bbac516eb85ac,SCN,2024-06-25_12h41.33.780,LearnStrategy,2023.2.3,Win32,60.97560976,6,1,16,0.533721328,0.394678497,1,0,0,2.1616,Gabbro_05,4,05,6,8,2.162,-0.343957892,-0.243717622,1,0,0,3.7578,Andesite_rect,1,3.758,0,15,0,15,0,1,,,,,,,,,,,,,
66561df3560bbac516eb85ac,SCN,2024-06-25_12h41.33.780,LearnStrategy,2023.2.3,Win32,60.97560976,6,2,1,,,,,,,,3,11,,,,,,,,,,,6,1.909,0,,,,,,-0.124999926,-0.391537401,1,0,0,1.9093,Pegmatite_rect,0,0,0,0,1,
66561df3560bbac516eb85ac,SCN,2024-06-25_12h41.33.780,LearnStrategy,2023.2.3,Win32,60.97560976,6,2,2,,,,,,,,2,04,,,,,,,,,,,2,0.981,1,,,,,,-0.098207725,-0.257575728,1,0,0,0.9809,Basalt_rect,1,0,1,0,1,
66561df3560bbac516eb85ac,SCN,2024-06-25_12h41.33.780,LearnStrategy,2023.2.3,Win32,60.97560976,6,2,3,,,,,,,,7,10,,,,,,,,,,,7,1.442,1,,,,,,0.134608273,-0.407243236,1,0,0,1.4424,Peridotite_rect,2,0,2,0,1,
66561df3560bbac516eb85ac,SCN,2024-06-25_12h41.33.780,LearnStrategy,2023.2.3,Win32,60.97560976,6,2,4,,,,,,,,6,07,,,,,,,,,,,1,1.704,0,,,,,,-0.36058759,-0.260347394,1,0,0,1.704,Andesite_rect,3,0,3,0,1,
66561df3560bbac516eb85ac,SCN,2024-06-25_12h41.33.780,LearnStrategy,2023.2.3,Win32,60.97560976,6,2,5,,,,,,,,2,16,,,,,,,,,,,2,1.641,1,,,,,,-0.06771992,-0.234478909,1,0,0,1.6412,Basalt_rect,4,0,4,0,1,
66561df3560bbac516eb85ac,SCN,2024-06-25_12h41.33.780,LearnStrategy,2023.2.3,Win32,60.97560976,6,2,6,,,,,,,,4,16,,,,,,,,,,,2,1.794,0,,,,,,-0.132390985,-0.256651864,1,0,0,1.7944,Basalt_rect,5,0,5,0,1,
66561df3560bbac516eb85ac,SCN,2024-06-25_12h41.33.780,LearnStrategy,2023.2.3,Win32,60.97560976,6,2,7,,,,,,,,5,08,,,,,,,,,,,5,1.861,1,,,,,,-0.423410927,-0.402623767,1,0,0,1.8615,Obsidian_rect,6,0,6,0,1,
66561df3560bbac516eb85ac,SCN,2024-06-25_12h41.33.780,LearnStrategy,2023.2.3,Win32,60.97560976,6,2,8,,,,,,,,6,10,,,,,,,,,,,4,1.876,0,,,,,,0.433943139,-0.255728001,1,0,0,1.8756,Gabbro_rect,7,0,7,0,1,
66561df3560bbac516eb85ac,SCN,2024-06-25_12h41.33.780,LearnStrategy,2023.2.3,Win32,60.97560976,6,2,9,,,,,,,,3,02,,,,,,,,,,,8,2.571,0,,,,,,0.325849952,-0.384146416,1,0,0,2.5707,Pumice_rect,8,0,8,0,1,
66561df3560bbac516eb85ac,SCN,2024-06-25_12h41.33.780,LearnStrategy,2023.2.3,Win32,60.97560976,6,2,10,,,,,,,,8,09,,,,,,,,,,,8,6.861,1,,,,,,0.335088665,-0.398004448,1,0,0,6.8606,Pumice_rect,9,0,9,0,1,
66561df3560bbac516eb85ac,SCN,2024-06-25_12h41.33.780,LearnStrategy,2023.2.3,Win32,60.97560976,6,2,11,,,,,,,,1,04,,,,,,,,,,,4,4.334,0,,,,,,0.445029505,-0.264966714,1,0,0,4.334,Gabbro_rect,10,0,10,0,1,
66561df3560bbac516eb85ac,SCN,2024-06-25_12h41.33.780,LearnStrategy,2023.2.3,Win32,60.97560976,6,2,12,,,,,,,,5,07,,,,,,,,,,,5,1.611,1,,,,,,-0.438192898,-0.390613463,1,0,0,1.6113,Obsidian_rect,11,0,11,0,1,
66561df3560bbac516eb85ac,SCN,2024-06-25_12h41.33.780,LearnStrategy,2023.2.3,Win32,60.97560976,6,2,13,,,,,,,,4,13,,,,,,,,,,,1,2.684,0,,,,,,-0.373521758,-0.253880347,1,0,0,2.6837,Andesite_rect,12,0,12,0,1,
66561df3560bbac516eb85ac,SCN,2024-06-25_12h41.33.780,LearnStrategy,2023.2.3,Win32,60.97560976,6,2,14,,,,,,,,8,16,,,,,,,,,,,8,3.215,1,,,,,,0.467202684,-0.40447157,1,0,0,3.2146,Pumice_rect,13,0,13,0,1,
66561df3560bbac516eb85ac,SCN,2024-06-25_12h41.33.780,LearnStrategy,2023.2.3,Win32,60.97560976,6,2,15,,,,,,,,1,02,,,,,,,,,,,3,2.081,0,,,,,,0.113359181,-0.234478909,1,0,0,2.0814,Diorite_rect,14,0,14,0,1,
66561df3560bbac516eb85ac,SCN,2024-06-25_12h41.33.780,LearnStrategy,2023.2.3,Win32,60.97560976,6,2,16,,,,,,,,7,16,,,,,,,,,,,4,1.969,0,,,,,,0.416389428,-0.254804137,1,0,0,1.9689,Gabbro_rect,15,0,15,0,1,
66561df3560bbac516eb85ac,SCN,2024-06-25_12h41.33.780,LearnStrategy,2023.2.3,Win32,60.97560976,7,1,1,-0.063100526,0.111049522,1,0,0,1.6092,Obsidian_12,5,12,4,4,1.609,-0.367978575,-0.40447157,1,0,0,1.9041,Obsidian_rect,5,1.904,1,0,0,0,0,1,,,,,,,,,,,,,
66561df3560bbac516eb85ac,SCN,2024-06-25_12h41.33.780,LearnStrategy,2023.2.3,Win32,60.97560976,7,1,2,-0.531504077,-0.260347394,1,0,0,3.7753,Basalt_08,2,08,2,1,3.775,-0.113913559,-0.253880347,1,0,0,1.703,Basalt_rect,2,1.703,1,1,0,1,0,1,,,,,,,,,,,,,
66561df3560bbac516eb85ac,SCN,2024-06-25_12h41.33.780,LearnStrategy,2023.2.3,Win32,60.97560976,7,1,3,0.554970495,-0.090354771,1,0,0,4.5288,Gabbro_14,4,14,3,8,4.529,-0.370750204,-0.262195196,1,0,0,1.2119,Andesite_rect,1,1.212,0,2,0,2,0,1,,,,,,,,,,,,,
66561df3560bbac516eb85ac,SCN,2024-06-25_12h41.33.780,LearnStrategy,2023.2.3,Win32,60.97560976,7,1,4,0.545731856,-0.076496664,1,0,0,7.2022,Gabbro_14,4,14,3,8,7.202,0.408074653,-0.254804137,1,0,0,1.1015,Gabbro_rect,4,1.102,1,3,0,3,0,1,,,,,,,,,,,,,
66561df3560bbac516eb85ac,SCN,2024-06-25_12h41.33.780,LearnStrategy,2023.2.3,Win32,60.97560976,7,1,5,-0.518569835,0.08980043,1,0,0,2.1024,Pumice_06,8,06,4,1,2.102,0.371119653,-0.403547631,1,0,0,1.1911,Pumice_rect,8,1.191,1,4,0,4,0,1,,,,,,,,,,,,,
66561df3560bbac516eb85ac,SCN,2024-06-25_12h41.33.780,LearnStrategy,2023.2.3,Win32,60.97560976,7,1,6,0.239929795,-0.250184743,1,0,0,3.0784,Pumice_14,8,14,2,6,3.078,0.36557647,-0.416481874,1,0,0,1.7852,Pumice_rect,8,1.785,1,5,0,5,0,1,,,,,,,,,,,,,
66561df3560bbac516eb85ac,SCN,2024-06-25_12h41.33.780,LearnStrategy,2023.2.3,Win32,60.97560976,7,1,7,-0.586936448,0.42886179,1,0,0,2.3624,Diorite_07,3,07,6,1,2.362,-0.347653384,-0.249260879,1,0,0,0.9434,Andesite_rect,1,0.943,0,6,0,6,0,1,,,,,,,,,,,,,
66561df3560bbac516eb85ac,SCN,2024-06-25_12h41.33.780,LearnStrategy,2023.2.3,Win32,60.97560976,7,1,8,0.256559493,0.103658499,1,0,0,2.3144,Pumice_08,8,08,4,6,2.314,0.114283045,-0.255728001,1,0,0,1.9812,Diorite_rect,3,1.981,0,7,0,7,0,1,,,,,,,,,,,,,
66561df3560bbac516eb85ac,SCN,2024-06-25_12h41.33.780,LearnStrategy,2023.2.3,Win32,60.97560976,7,1,9,0.363728742,0.250554322,1,0,0,3.6464,Peridotite_06,7,06,5,7,3.646,-0.374445697,-0.241869894,1,0,0,1.3464,Andesite_rect,1,1.346,0,8,0,8,0,1,,,,,,,,,,,,,
66561df3560bbac516eb85ac,SCN,2024-06-25_12h41.33.780,LearnStrategy,2023.2.3,Win32,60.97560976,7,1,10,0.518939358,-0.247413151,1,0,0,1.7806,Obsidian_16,5,16,2,8,1.781,-0.336566906,-0.398928386,1,0,0,2.1351,Obsidian_rect,5,2.135,1,9,0,9,0,1,,,,,,,,,,,,,
66561df3560bbac516eb85ac,SCN,2024-06-25_12h41.33.780,LearnStrategy,2023.2.3,Win32,60.97560976,7,1,11,0.066241678,0.394678497,1,0,0,5.3575,Pegmatite_03,6,03,6,5,5.358,-0.402161873,-0.263118986,1,0,0,1.2794,Andesite_rect,1,1.279,0,10,0,10,0,1,,,,,,,,,,,,,
66561df3560bbac516eb85ac,SCN,2024-06-25_12h41.33.780,LearnStrategy,2023.2.3,Win32,60.97560976,7,1,12,0.369271925,-0.425720587,1,0,0,2.902,Gabbro_03,4,03,1,7,2.902,-0.134238713,-0.40447157,1,0,0,1.781,Pegmatite_rect,6,1.781,0,11,0,11,0,1,,,,,,,,,,,,,
66561df3560bbac516eb85ac,SCN,2024-06-25_12h41.33.780,LearnStrategy,2023.2.3,Win32,60.97560976,7,1,13,0.226071688,-0.088507006,1,0,0,2.5456,Pegmatite_13,6,13,3,6,2.546,-0.417867707,-0.252032545,1,0,0,1.0846,Andesite_rect,1,1.085,0,12,0,12,0,1,,,,,,,,,,,,,
66561df3560bbac516eb85ac,SCN,2024-06-25_12h41.33.780,LearnStrategy,2023.2.3,Win32,60.97560976,7,1,14,0.417313292,-0.392461265,1,0,0,16.4635,Gabbro_03,4,03,1,7,16.464,0.324002224,-0.389689599,1,0,0,6.2631,Pumice_rect,8,6.263,0,13,0,13,0,1,,,,,,,,,,,,,
66561df3560bbac516eb85ac,SCN,2024-06-25_12h41.33.780,LearnStrategy,2023.2.3,Win32,60.97560976,7,1,15,0.59746853,0.08980043,1,0,0,1.183,Basalt_12,2,12,4,8,1.183,0.164172214,-0.251108607,1,0,0,0.9622,Diorite_rect,3,0.962,0,14,0,14,0,1,,,,,,,,,,,,,
66561df3560bbac516eb85ac,SCN,2024-06-25_12h41.33.780,LearnStrategy,2023.2.3,Win32,60.97560976,7,1,16,0.102272741,0.112897287,1,0,0,1.1789,Peridotite_12,7,12,4,5,1.179,-0.371674068,-0.379526948,1,0,0,1.6629,Obsidian_rect,5,1.663,0,15,0,15,0,1,,,,,,,,,,,,,
66561df3560bbac516eb85ac,SCN,2024-06-25_12h41.33.780,LearnStrategy,2023.2.3,Win32,60.97560976,7,2,1,,,,,,,,8,10,,,,,,,,,,,1,1.137,0,,,,,,-0.324556565,-0.245565424,1,0,0,1.1368,Andesite_rect,0,0,0,0,1,
66561df3560bbac516eb85ac,SCN,2024-06-25_12h41.33.780,LearnStrategy,2023.2.3,Win32,60.97560976,7,2,2,,,,,,,,2,05,,,,,,,,,,,4,6.066,0,,,,,,0.38035844,-0.261271333,1,0,0,6.0664,Gabbro_rect,1,0,1,0,1,
66561df3560bbac516eb85ac,SCN,2024-06-25_12h41.33.780,LearnStrategy,2023.2.3,Win32,60.97560976,7,2,3,,,,,,,,7,08,,,,,,,,,,,1,2.805,0,,,,,,-0.418791534,-0.265890577,1,0,0,2.8052,Andesite_rect,2,0,2,0,1,
66561df3560bbac516eb85ac,SCN,2024-06-25_12h41.33.780,LearnStrategy,2023.2.3,Win32,60.97560976,7,2,4,,,,,,,,6,10,,,,,,,,,,,3,24.012,0,,,,,,0.130912744,-0.26404285,1,0,0,24.0119,Diorite_rect,3,0,3,0,1,
66561df3560bbac516eb85ac,SCN,2024-06-25_12h41.33.780,LearnStrategy,2023.2.3,Win32,60.97560976,7,2,5,,,,,,,,5,06,,,,,,,,,,,5,1.38,1,,,,,,-0.455746497,-0.41555801,1,0,0,1.3804,Obsidian_rect,4,0,4,0,1,
66561df3560bbac516eb85ac,SCN,2024-06-25_12h41.33.780,LearnStrategy,2023.2.3,Win32,60.97560976,7,2,6,,,,,,,,8,16,,,,,,,,,,,8,1.568,1,,,,,,0.452420714,-0.395232782,1,0,0,1.5678,Pumice_rect,5,0,5,0,1,
66561df3560bbac516eb85ac,SCN,2024-06-25_12h41.33.780,LearnStrategy,2023.2.3,Win32,60.97560976,7,2,7,,,,,,,,3,11,,,,,,,,,,,1,1.57,0,,,,,,-0.346729446,-0.231707392,1,0,0,1.57,Andesite_rect,6,0,6,0,1,
66561df3560bbac516eb85ac,SCN,2024-06-25_12h41.33.780,LearnStrategy,2023.2.3,Win32,60.97560976,7,2,8,,,,,,,,2,16,,,,,,,,,,,7,3.552,0,,,,,,0.105968196,-0.417405738,1,0,0,3.552,Peridotite_rect,7,0,7,0,1,
66561df3560bbac516eb85ac,SCN,2024-06-25_12h41.33.780,LearnStrategy,2023.2.3,Win32,60.97560976,7,2,9,,,,,,,,7,07,,,,,,,,,,,2,1.734,0,,,,,,-0.103750908,-0.247413151,1,0,0,1.7336,Basalt_rect,8,0,8,0,1,
66561df3560bbac516eb85ac,SCN,2024-06-25_12h41.33.780,LearnStrategy,2023.2.3,Win32,60.97560976,7,2,10,,,,,,,,3,09,,,,,,,,,,,4,19.724,0,,,,,,0.46350708,-0.256651864,1,0,0,19.7235,Gabbro_rect,9,0,9,0,1,
66561df3560bbac516eb85ac,SCN,2024-06-25_12h41.33.780,LearnStrategy,2023.2.3,Win32,60.97560976,7,2,11,,,,,,,,1,02,,,,,,,,,,,7,2.291,0,,,,,,0.149390244,-0.385070205,1,0,0,2.2915,Peridotite_rect,10,0,10,0,1,
66561df3560bbac516eb85ac,SCN,2024-06-25_12h41.33.780,LearnStrategy,2023.2.3,Win32,60.97560976,7,2,12,,,,,,,,5,10,,,,,,,,,,,5,1.378,1,,,,,,-0.377217288,-0.380450812,1,0,0,1.3775,Obsidian_rect,11,0,11,0,1,
66561df3560bbac516eb85ac,SCN,2024-06-25_12h41.33.780,LearnStrategy,2023.2.3,Win32,60.97560976,7,2,13,,,,,,,,4,09,,,,,,,,,,,6,2.34,0,,,,,,-0.10559871,-0.403547631,1,0,0,2.34,Pegmatite_rect,12,0,12,0,1,
66561df3560bbac516eb85ac,SCN,2024-06-25_12h41.33.780,LearnStrategy,2023.2.3,Win32,60.97560976,7,2,14,,,,,,,,1,07,,,,,,,,,,,2,5.294,0,,,,,,-0.093588331,-0.253880347,1,0,0,5.2945,Basalt_rect,13,0,13,0,1,
66561df3560bbac516eb85ac,SCN,2024-06-25_12h41.33.780,LearnStrategy,2023.2.3,Win32,60.97560976,7,2,15,,,,,,,,4,16,,,,,,,,,,,2,1.527,0,,,,,,-0.138858107,-0.250184743,1,0,0,1.5271,Basalt_rect,14,0,14,0,1,
66561df3560bbac516eb85ac,SCN,2024-06-25_12h41.33.780,LearnStrategy,2023.2.3,Win32,60.97560976,7,2,16,,,,,,,,6,16,,,,,,,,,,,8,2.05,0,,,,,,0.449648973,-0.418329602,1,0,0,2.05,Pumice_rect,15,0,15,0,1,
66561df3560bbac516eb85ac,SCN,2024-06-25_12h41.33.780,LearnStrategy,2023.2.3,Win32,60.97560976,8,1,1,-0.270048039,0.420546936,1,0,0,1.3624,Obsidian_11,5,11,6,3,1.362,-0.404933501,-0.40447157,1,0,0,1.9965,Obsidian_rect,5,1.997,1,0,0,0,0,1,,,,,,,,,,,,,
66561df3560bbac516eb85ac,SCN,2024-06-25_12h41.33.780,LearnStrategy,2023.2.3,Win32,60.97560976,8,1,2,-0.500092409,-0.257575728,1,0,0,4.4292,Basalt_08,2,08,2,1,4.429,-0.130543258,-0.240022166,1,0,0,1.0516,Basalt_rect,2,1.052,1,1,0,1,0,1,,,,,,,,,,,,,
66561df3560bbac516eb85ac,SCN,2024-06-25_12h41.33.780,LearnStrategy,2023.2.3,Win32,60.97560976,8,1,3,0.244549114,-0.095897991,1,0,0,51.9408,Pegmatite_13,6,13,3,6,51.941,0.190040626,-0.414634221,1,0,0,2.5421,Peridotite_rect,7,2.542,0,2,0,2,0,1,,,,,,,,,,,,,
66561df3560bbac516eb85ac,SCN,2024-06-25_12h41.33.780,LearnStrategy,2023.2.3,Win32,60.97560976,8,1,4,0.564209133,-0.106984469,1,0,0,1.2888,Gabbro_14,4,14,3,8,1.289,-0.303307473,-0.234478909,1,0,0,1.2155,Andesite_rect,1,1.215,0,3,0,3,0,1,,,,,,,,,,,,,
66561df3560bbac516eb85ac,SCN,2024-06-25_12h41.33.780,LearnStrategy,2023.2.3,Win32,60.97560976,8,1,5,0.445029505,-0.430340055,1,0,0,1.362,Gabbro_03,4,03,1,7,1.362,-0.16657432,-0.230783528,1,0,0,1.1852,Basalt_rect,2,1.185,0,4,0,4,0,1,,,,,,,,,,,,,
66561df3560bbac516eb85ac,SCN,2024-06-25_12h41.33.780,LearnStrategy,2023.2.3,Win32,60.97560976,8,1,6,0.103196605,0.267184039,1,0,0,2.5462,Obsidian_05,5,05,5,5,2.546,-0.452974831,-0.40077604,1,0,0,1.7139,Obsidian_rect,5,1.714,1,5,0,5,0,1,,,,,,,,,,,,,
66561df3560bbac516eb85ac,SCN,2024-06-25_12h41.33.780,LearnStrategy,2023.2.3,Win32,60.97560976,8,1,7,0.373891393,0.4011456,1,0,0,4.2169,Pumice_04,8,04,6,7,4.217,0.336012529,-0.387841797,1,0,0,1.1499,Pumice_rect,8,1.15,1,6,0,6,0,1,,,,,,,,,,,,,
66561df3560bbac516eb85ac,SCN,2024-06-25_12h41.33.780,LearnStrategy,2023.2.3,Win32,60.97560976,8,1,8,-0.409552858,0.101810809,1,0,0,2.1362,Pegmatite_06,6,06,4,2,2.136,0.391445104,-0.24094603,1,0,0,3.1484,Gabbro_rect,4,3.148,0,7,0,7,0,1,,,,,,,,,,,,,
66561df3560bbac516eb85ac,SCN,2024-06-25_12h41.33.780,LearnStrategy,2023.2.3,Win32,60.97560976,8,1,9,0.374815257,0.42886179,1,0,0,1.3809,Pumice_04,8,04,6,7,1.381,-0.368902439,-0.229859589,1,0,0,1.2502,Andesite_rect,1,1.25,0,8,0,8,0,1,,,,,,,,,,,,,
66561df3560bbac516eb85ac,SCN,2024-06-25_12h41.33.780,LearnStrategy,2023.2.3,Win32,60.97560976,8,1,10,-0.049242345,-0.118994811,1,0,0,1.0793,Gabbro_01,4,01,3,4,1.079,-0.100055453,-0.406319372,1,0,0,1.0205,Pegmatite_rect,6,1.021,0,9,0,9,0,1,,,,,,,,,,,,,
66561df3560bbac516eb85ac,SCN,2024-06-25_12h41.33.780,LearnStrategy,2023.2.3,Win32,60.97560976,8,1,11,0.123521758,-0.275129365,1,0,0,1.727,Andesite_16,1,16,2,5,1.727,-0.376293424,-0.410938616,1,0,0,1.726,Obsidian_rect,5,1.726,0,10,0,10,0,1,,,,,,,,,,,,,
66561df3560bbac516eb85ac,SCN,2024-06-25_12h41.33.780,LearnStrategy,2023.2.3,Win32,60.97560976,8,1,12,-0.574002224,-0.076496664,1,0,0,3.367,Diorite_06,3,06,3,1,3.367,0.419161169,-0.393385054,1,0,0,1.498,Pumice_rect,8,1.498,0,11,0,11,0,1,,,,,,,,,,,,,
66561df3560bbac516eb85ac,SCN,2024-06-25_12h41.33.780,LearnStrategy,2023.2.3,Win32,60.97560976,8,1,13,-0.51210275,0.116592742,1,0,0,11.144,Pumice_06,8,06,4,1,11.144,0.410846245,-0.395232782,1,0,0,2.0436,Pumice_rect,8,2.044,1,12,0,12,0,1,,,,,,,,,,,,,
66561df3560bbac516eb85ac,SCN,2024-06-25_12h41.33.780,LearnStrategy,2023.2.3,Win32,60.97560976,8,1,14,0.409922381,0.090724331,1,0,0,1.8857,Peridotite_02,7,02,4,7,1.886,0.137379865,-0.248337015,1,0,0,1.7199,Diorite_rect,3,1.72,0,13,0,13,0,1,,,,,,,,,,,,,
66561df3560bbac516eb85ac,SCN,2024-06-25_12h41.33.780,LearnStrategy,2023.2.3,Win32,60.97560976,8,1,15,0.546655571,0.274575024,1,0,0,6.3604,Pegmatite_11,6,11,5,8,6.36,-0.119456742,-0.390613463,1,0,0,1.4876,Pegmatite_rect,6,1.488,1,14,0,14,0,1,,,,,,,,,,,,,
66561df3560bbac516eb85ac,SCN,2024-06-25_12h41.33.780,LearnStrategy,2023.2.3,Win32,60.97560976,8,1,16,0.109663726,-0.116223256,1,0,0,1.2168,Diorite_10,3,10,3,5,1.217,-0.138858107,-0.242793758,1,0,0,1.1186,Basalt_rect,2,1.119,0,15,0,15,0,1,,,,,,,,,,,,,
66561df3560bbac516eb85ac,SCN,2024-06-25_12h41.33.780,LearnStrategy,2023.2.3,Win32,60.97560976,8,2,1,,,,,,,,2,11,,,,,,,,,,,2,4.325,1,,,,,,-0.137934243,-0.243717622,1,0,0,4.325,Basalt_rect,0,0,0,0,1,
66561df3560bbac516eb85ac,SCN,2024-06-25_12h41.33.780,LearnStrategy,2023.2.3,Win32,60.97560976,8,2,2,,,,,,,,7,05,,,,,,,,,,,1,2.03,0,,,,,,-0.408628994,-0.236326711,1,0,0,2.0299,Andesite_rect,1,0,1,0,1,
66561df3560bbac516eb85ac,SCN,2024-06-25_12h41.33.780,LearnStrategy,2023.2.3,Win32,60.97560976,8,2,3,,,,,,,,3,13,,,,,,,,,,,7,5.467,0,,,,,,0.094881756,-0.396156646,1,0,0,5.4666,Peridotite_rect,2,0,2,0,1,
66561df3560bbac516eb85ac,SCN,2024-06-25_12h41.33.780,LearnStrategy,2023.2.3,Win32,60.97560976,8,2,4,,,,,,,,4,15,,,,,,,,,,,2,2.216,0,,,,,,-0.144401364,-0.257575728,1,0,0,2.2157,Basalt_rect,3,0,3,0,1,
66561df3560bbac516eb85ac,SCN,2024-06-25_12h41.33.780,LearnStrategy,2023.2.3,Win32,60.97560976,8,2,5,,,,,,,,8,03,,,,,,,,,,,7,1.886,0,,,,,,0.1715632,-0.401699904,1,0,0,1.8857,Peridotite_rect,4,0,4,0,1,
66561df3560bbac516eb85ac,SCN,2024-06-25_12h41.33.780,LearnStrategy,2023.2.3,Win32,60.97560976,8,2,6,,,,,,,,6,08,,,,,,,,,,,5,2.189,0,,,,,,-0.327328156,-0.393385054,1,0,0,2.1895,Obsidian_rect,5,0,5,0,1,
66561df3560bbac516eb85ac,SCN,2024-06-25_12h41.33.780,LearnStrategy,2023.2.3,Win32,60.97560976,8,2,7,,,,,,,,8,05,,,,,,,,,,,4,1.903,0,,,,,,0.459811476,-0.246489362,1,0,0,1.9029,Gabbro_rect,6,0,6,0,1,
66561df3560bbac516eb85ac,SCN,2024-06-25_12h41.33.780,LearnStrategy,2023.2.3,Win32,60.97560976,8,2,8,,,,,,,,6,07,,,,,,,,,,,1,2.819,0,,,,,,-0.390151531,-0.247413151,1,0,0,2.8193,Andesite_rect,7,0,7,0,1,
66561df3560bbac516eb85ac,SCN,2024-06-25_12h41.33.780,LearnStrategy,2023.2.3,Win32,60.97560976,8,2,9,,,,,,,,4,08,,,,,,,,,,,3,3.771,0,,,,,,0.197431611,-0.249260879,1,0,0,3.7712,Diorite_rect,8,0,8,0,1,
66561df3560bbac516eb85ac,SCN,2024-06-25_12h41.33.780,LearnStrategy,2023.2.3,Win32,60.97560976,8,2,10,,,,,,,,3,14,,,,,,,,,,,6,2.278,0,,,,,,-0.092664467,-0.406319372,1,0,0,2.2782,Pegmatite_rect,9,0,9,0,1,
66561df3560bbac516eb85ac,SCN,2024-06-25_12h41.33.780,LearnStrategy,2023.2.3,Win32,60.97560976,8,2,11,,,,,,,,7,10,,,,,,,,,,,5,1.1,0,,,,,,-0.468680703,-0.403547631,1,0,0,1.1003,Obsidian_rect,10,0,10,0,1,
66561df3560bbac516eb85ac,SCN,2024-06-25_12h41.33.780,LearnStrategy,2023.2.3,Win32,60.97560976,8,2,12,,,,,,,,2,02,,,,,,,,,,,2,1.89,1,,,,,,-0.115761287,-0.26404285,1,0,0,1.8902,Basalt_rect,11,0,11,0,1,
66561df3560bbac516eb85ac,SCN,2024-06-25_12h41.33.780,LearnStrategy,2023.2.3,Win32,60.97560976,8,2,13,,,,,,,,5,02,,,,,,,,,,,5,1.543,1,,,,,,-0.442812292,-0.410014753,1,0,0,1.5429,Obsidian_rect,12,0,12,0,1,
66561df3560bbac516eb85ac,SCN,2024-06-25_12h41.33.780,LearnStrategy,2023.2.3,Win32,60.97560976,8,2,14,,,,,,,,5,07,,,,,,,,,,,5,1.951,1,,,,,,-0.388303766,-0.398928386,1,0,0,1.9512,Obsidian_rect,13,0,13,0,1,
66561df3560bbac516eb85ac,SCN,2024-06-25_12h41.33.780,LearnStrategy,2023.2.3,Win32,60.97560976,8,2,15,,,,,,,,1,04,,,,,,,,,,,8,2.215,0,,,,,,0.391445104,-0.394308918,1,0,0,2.2153,Pumice_rect,14,0,14,0,1,
66561df3560bbac516eb85ac,SCN,2024-06-25_12h41.33.780,LearnStrategy,2023.2.3,Win32,60.97560976,8,2,16,,,,,,,,1,10,,,,,,,,,,,1,3.895,1,,,,,,-0.361511454,-0.232631181,1,0,0,3.8946,Andesite_rect,15,0,15,0,1,
66561df3560bbac516eb85ac,SCN,2024-06-25_12h41.33.780,LearnStrategy,2023.2.3,Win32,60.97560976,9,1,1,-0.080654088,0.109201794,1,0,0,2.1663,Obsidian_12,5,12,4,4,2.166,-0.406781229,-0.391537401,1,0,0,1.1879,Obsidian_rect,5,1.188,1,0,0,0,0,1,,,,,,,,,,,,,
66561df3560bbac516eb85ac,SCN,2024-06-25_12h41.33.780,LearnStrategy,2023.2.3,Win32,60.97560976,9,1,2,-0.42710642,0.415003697,1,0,0,2.4782,Pumice_02,8,02,6,2,2.478,0.364652606,-0.254804137,1,0,0,2.5044,Gabbro_rect,4,2.504,0,1,0,1,0,1,,,,,,,,,,,,,
66561df3560bbac516eb85ac,SCN,2024-06-25_12h41.33.780,LearnStrategy,2023.2.3,Win32,60.97560976,9,1,3,-0.234016977,0.246858829,1,0,0,2.751,Diorite_16,3,16,5,3,2.751,-0.11760894,-0.253880347,1,0,0,1.6953,Basalt_rect,2,1.695,0,2,0,2,0,1,,,,,,,,,,,,,
66561df3560bbac516eb85ac,SCN,2024-06-25_12h41.33.780,LearnStrategy,2023.2.3,Win32,60.97560976,9,1,4,0.547579435,-0.088507006,1,0,0,1.3964,Gabbro_14,4,14,3,8,1.396,0.122597894,-0.395232782,1,0,0,0.9936,Peridotite_rect,7,0.994,0,3,0,3,0,1,,,,,,,,,,,,,
66561df3560bbac516eb85ac,SCN,2024-06-25_12h41.33.780,LearnStrategy,2023.2.3,Win32,60.97560976,9,1,5,0.535569056,-0.433111572,1,0,0,1.3939,Peridotite_14,7,14,1,8,1.394,0.210365854,-0.245565424,1,0,0,1.5488,Diorite_rect,3,1.549,0,4,0,4,0,1,,,,,,,,,,,,,
66561df3560bbac516eb85ac,SCN,2024-06-25_12h41.33.780,LearnStrategy,2023.2.3,Win32,60.97560976,9,1,6,-0.074186967,0.412232078,1,0,0,3.4397,Basalt_14,2,14,6,4,3.44,0.406227075,-0.246489362,1,0,0,4.3603,Gabbro_rect,4,4.36,0,5,0,5,0,1,,,,,,,,,,,,,
66561df3560bbac516eb85ac,SCN,2024-06-25_12h41.33.780,LearnStrategy,2023.2.3,Win32,60.97560976,9,1,7,-0.527808585,0.077790088,1,0,0,1.6806,Pumice_06,8,06,4,1,1.681,-0.363359219,-0.252032545,1,0,0,1.3673,Andesite_rect,1,1.367,0,6,0,6,0,1,,,,,,,,,,,,,
66561df3560bbac516eb85ac,SCN,2024-06-25_12h41.33.780,LearnStrategy,2023.2.3,Win32,60.97560976,9,1,8,0.425628216,-0.406319372,1,0,0,1.3258,Gabbro_03,4,03,1,7,1.326,-0.118532804,-0.24464156,1,0,0,2.0729,Basalt_rect,2,2.073,0,7,0,7,0,1,,,,,,,,,,,,,
66561df3560bbac516eb85ac,SCN,2024-06-25_12h41.33.780,LearnStrategy,2023.2.3,Win32,60.97560976,9,1,9,0.235310401,0.42147081,1,0,0,4.51,Obsidian_04,5,04,6,6,4.51,-0.43634517,-0.385070205,1,0,0,12.3462,Obsidian_rect,5,12.346,1,8,0,8,0,1,,,,,,,,,,,,,
66561df3560bbac516eb85ac,SCN,2024-06-25_12h41.33.780,LearnStrategy,2023.2.3,Win32,60.97560976,9,1,10,-0.522265327,0.241315572,1,0,0,10.1498,Basalt_10,2,10,5,1,10.15,-0.139781971,-0.243717622,1,0,0,1.0922,Basalt_rect,2,1.092,1,9,0,9,0,1,,,,,,,,,,,,,
66561df3560bbac516eb85ac,SCN,2024-06-25_12h41.33.780,LearnStrategy,2023.2.3,Win32,60.97560976,9,1,11,0.246396991,-0.236326711,1,0,0,3.5684,Pumice_14,8,14,2,6,3.568,0.40253147,-0.410938616,1,0,0,1.316,Pumice_rect,8,1.316,1,10,0,10,0,1,,,,,,,,,,,,,
66561df3560bbac516eb85ac,SCN,2024-06-25_12h41.33.780,LearnStrategy,2023.2.3,Win32,60.97560976,9,1,12,0.251016235,0.120288235,1,0,0,0.9967,Pumice_08,8,08,4,6,0.997,0.126293424,-0.252032545,1,0,0,2.0877,Diorite_rect,3,2.088,0,11,0,11,0,1,,,,,,,,,,,,,
66561df3560bbac516eb85ac,SCN,2024-06-25_12h41.33.780,LearnStrategy,2023.2.3,Win32,60.97560976,9,1,13,0.234386537,0.274575024,1,0,0,1.7975,Pegmatite_12,6,12,5,6,1.798,-0.136086515,-0.40077604,1,0,0,1.4334,Pegmatite_rect,6,1.433,1,12,0,12,0,1,,,,,,,,,,,,,
66561df3560bbac516eb85ac,SCN,2024-06-25_12h41.33.780,LearnStrategy,2023.2.3,Win32,60.97560976,9,1,14,-0.220158944,-0.261271333,1,0,0,1.7188,Diorite_08,3,08,2,3,1.719,0.367424197,-0.229859589,1,0,0,2.5009,Gabbro_rect,4,2.501,0,13,0,13,0,1,,,,,,,,,,,,,
66561df3560bbac516eb85ac,SCN,2024-06-25_12h41.33.780,LearnStrategy,2023.2.3,Win32,60.97560976,9,1,15,-0.263580955,0.2616408,1,0,0,2.2171,Diorite_16,3,16,5,3,2.217,-0.327328156,-0.252956409,1,0,0,1.5233,Andesite_rect,1,1.523,0,14,0,14,0,1,,,,,,,,,,,,,
66561df3560bbac516eb85ac,SCN,2024-06-25_12h41.33.780,LearnStrategy,2023.2.3,Win32,60.97560976,9,1,16,0.573447921,0.255173697,1,0,0,1.8008,Pegmatite_11,6,11,5,8,1.801,0.3877495,-0.388765661,1,0,0,7.3318,Pumice_rect,8,7.332,0,15,0,15,0,1,,,,,,,,,,,,,
66561df3560bbac516eb85ac,SCN,2024-06-25_12h41.33.780,LearnStrategy,2023.2.3,Win32,60.97560976,9,2,1,,,,,,,,8,09,,,,,,,,,,,2,1.642,0,,,,,,-0.115761287,-0.257575728,1,0,0,1.6419,Basalt_rect,0,0,0,0,1,
66561df3560bbac516eb85ac,SCN,2024-06-25_12h41.33.780,LearnStrategy,2023.2.3,Win32,60.97560976,9,2,2,,,,,,,,1,14,,,,,,,,,,,1,1.622,1,,,,,,-0.401238009,-0.24094603,1,0,0,1.6225,Andesite_rect,1,0,1,0,1,
66561df3560bbac516eb85ac,SCN,2024-06-25_12h41.33.780,LearnStrategy,2023.2.3,Win32,60.97560976,9,2,3,,,,,,,,3,02,,,,,,,,,,,6,1.321,0,,,,,,-0.14070576,-0.387841797,1,0,0,1.3206,Pegmatite_rect,2,0,2,0,1,
66561df3560bbac516eb85ac,SCN,2024-06-25_12h41.33.780,LearnStrategy,2023.2.3,Win32,60.97560976,9,2,4,,,,,,,,5,09,,,,,,,,,,,5,1.194,1,,,,,,-0.425258692,-0.402623767,1,0,0,1.1943,Obsidian_rect,3,0,3,0,1,
66561df3560bbac516eb85ac,SCN,2024-06-25_12h41.33.780,LearnStrategy,2023.2.3,Win32,60.97560976,9,2,5,,,,,,,,2,01,,,,,,,,,,,2,1.165,1,,,,,,-0.158259396,-0.236326711,1,0,0,1.165,Basalt_rect,4,0,4,0,1,
66561df3560bbac516eb85ac,SCN,2024-06-25_12h41.33.780,LearnStrategy,2023.2.3,Win32,60.97560976,9,2,6,,,,,,,,7,13,,,,,,,,,,,7,2.06,1,,,,,,0.225147824,-0.417405738,1,0,0,2.0599,Peridotite_rect,5,0,5,0,1,
66561df3560bbac516eb85ac,SCN,2024-06-25_12h41.33.780,LearnStrategy,2023.2.3,Win32,60.97560976,9,2,7,,,,,,,,8,13,,,,,,,,,,,8,1.205,1,,,,,,0.474593446,-0.403547631,1,0,0,1.2047,Pumice_rect,6,0,6,0,1,
66561df3560bbac516eb85ac,SCN,2024-06-25_12h41.33.780,LearnStrategy,2023.2.3,Win32,60.97560976,9,2,8,,,,,,,,7,16,,,,,,,,,,,4,2.19,0,,,,,,0.424704352,-0.257575728,1,0,0,2.1899,Gabbro_rect,7,0,7,0,1,
66561df3560bbac516eb85ac,SCN,2024-06-25_12h41.33.780,LearnStrategy,2023.2.3,Win32,60.97560976,9,2,9,,,,,,,,4,13,,,,,,,,,,,7,3.939,0,,,,,,0.155857365,-0.401699904,1,0,0,3.9392,Peridotite_rect,8,0,8,0,1,
66561df3560bbac516eb85ac,SCN,2024-06-25_12h41.33.780,LearnStrategy,2023.2.3,Win32,60.97560976,9,2,10,,,,,,,,6,05,,,,,,,,,,,5,1.535,0,,,,,,-0.431725814,-0.410938616,1,0,0,1.5345,Obsidian_rect,9,0,9,0,1,
66561df3560bbac516eb85ac,SCN,2024-06-25_12h41.33.780,LearnStrategy,2023.2.3,Win32,60.97560976,9,2,11,,,,,,,,6,15,,,,,,,,,,,2,2.191,0,,,,,,-0.121304545,-0.255728001,1,0,0,2.1915,Basalt_rect,10,0,10,0,1,
66561df3560bbac516eb85ac,SCN,2024-06-25_12h41.33.780,LearnStrategy,2023.2.3,Win32,60.97560976,9,2,12,,,,,,,,3,12,,,,,,,,,,,1,1.996,0,,,,,,-0.331947476,-0.249260879,1,0,0,1.9962,Andesite_rect,11,0,11,0,1,
66561df3560bbac516eb85ac,SCN,2024-06-25_12h41.33.780,LearnStrategy,2023.2.3,Win32,60.97560976,9,2,13,,,,,,,,1,11,,,,,,,,,,,6,1.905,0,,,,,,-0.135162577,-0.401699904,1,0,0,1.9052,Pegmatite_rect,12,0,12,0,1,
66561df3560bbac516eb85ac,SCN,2024-06-25_12h41.33.780,LearnStrategy,2023.2.3,Win32,60.97560976,9,2,14,,,,,,,,2,04,,,,,,,,,,,2,3.891,1,,,,,,-0.104674772,-0.265890577,1,0,0,3.8907,Basalt_rect,13,0,13,0,1,
66561df3560bbac516eb85ac,SCN,2024-06-25_12h41.33.780,LearnStrategy,2023.2.3,Win32,60.97560976,9,2,15,,,,,,,,5,08,,,,,,,,,,,5,1.434,1,,,,,,-0.395694751,-0.384146416,1,0,0,1.4338,Obsidian_rect,14,0,14,0,1,
66561df3560bbac516eb85ac,SCN,2024-06-25_12h41.33.780,LearnStrategy,2023.2.3,Win32,60.97560976,9,2,16,,,,,,,,4,12,,,,,,,,,,,2,1.584,0,,,,,,-0.123152272,-0.24094603,1,0,0,1.5839,Basalt_rect,15,0,15,0,1,
66561df3560bbac516eb85ac,SCN,2024-06-25_12h41.33.780,LearnStrategy,2023.2.3,Win32,60.97560976,,,,,,,,,,,,,,,,,,,,,,,,,,,,,,,,,,,,,,,,,,,0
66561df3560bbac516eb85ac,SCN,2024-06-25_12h41.33.780,LearnStrategy,2023.2.3,Win32,60.97560976,,,,,,,,,,,,,,,,,,,,,,,,,,,,,,,,,,,,,,,,,,,
66561df3560bbac516eb85ac,SCN,2024-06-25_12h41.33.780,LearnStrategy,2023.2.3,Win32,60.97560976,,,,,,,,,,,1,05,1,1,,,,,,,,,,,,,,,,,,,,,,,,,,,,,
66561df3560bbac516eb85ac,SCN,2024-06-25_12h41.33.780,LearnStrategy,2023.2.3,Win32,60.97560976,,,,,,,,,,,3,15,1,2,,,,,,,,,,,,,,,,,,,,,,,,,,,,,
66561df3560bbac516eb85ac,SCN,2024-06-25_12h41.33.780,LearnStrategy,2023.2.3,Win32,60.97560976,,,,,,,,,,,1,09,1,3,,,,,,,,,,,,,,,,,,,,,,,,,,,,,
66561df3560bbac516eb85ac,SCN,2024-06-25_12h41.33.780,LearnStrategy,2023.2.3,Win32,60.97560976,,,,,,,,,,,4,11,1,4,,,,,,,,,,,,,,,,,,,,,,,,,,,,,
66561df3560bbac516eb85ac,SCN,2024-06-25_12h41.33.780,LearnStrategy,2023.2.3,Win32,60.97560976,,,,,,,,,,,2,09,1,5,,,,,,,,,,,,,,,,,,,,,,,,,,,,,
66561df3560bbac516eb85ac,SCN,2024-06-25_12h41.33.780,LearnStrategy,2023.2.3,Win32,60.97560976,,,,,,,,,,,1,06,1,6,,,,,,,,,,,,,,,,,,,,,,,,,,,,,
66561df3560bbac516eb85ac,SCN,2024-06-25_12h41.33.780,LearnStrategy,2023.2.3,Win32,60.97560976,,,,,,,,,,,4,03,1,7,,,,,,,,,,,,,,,,,,,,,,,,,,,,,
66561df3560bbac516eb85ac,SCN,2024-06-25_12h41.33.780,LearnStrategy,2023.2.3,Win32,60.97560976,,,,,,,,,,,7,14,1,8,,,,,,,,,,,,,,,,,,,,,,,,,,,,,
66561df3560bbac516eb85ac,SCN,2024-06-25_12h41.33.780,LearnStrategy,2023.2.3,Win32,60.97560976,,,,,,,,,,,2,08,2,1,,,,,,,,,,,,,,,,,,,,,,,,,,,,,
66561df3560bbac516eb85ac,SCN,2024-06-25_12h41.33.780,LearnStrategy,2023.2.3,Win32,60.97560976,,,,,,,,,,,5,14,2,2,,,,,,,,,,,,,,,,,,,,,,,,,,,,,
66561df3560bbac516eb85ac,SCN,2024-06-25_12h41.33.780,LearnStrategy,2023.2.3,Win32,60.97560976,,,,,,,,,,,3,08,2,3,,,,,,,,,,,,,,,,,,,,,,,,,,,,,
66561df3560bbac516eb85ac,SCN,2024-06-25_12h41.33.780,LearnStrategy,2023.2.3,Win32,60.97560976,,,,,,,,,,,6,09,2,4,,,,,,,,,,,,,,,,,,,,,,,,,,,,,
66561df3560bbac516eb85ac,SCN,2024-06-25_12h41.33.780,LearnStrategy,2023.2.3,Win32,60.97560976,,,,,,,,,,,1,16,2,5,,,,,,,,,,,,,,,,,,,,,,,,,,,,,
66561df3560bbac516eb85ac,SCN,2024-06-25_12h41.33.780,LearnStrategy,2023.2.3,Win32,60.97560976,,,,,,,,,,,8,14,2,6,,,,,,,,,,,,,,,,,,,,,,,,,,,,,
66561df3560bbac516eb85ac,SCN,2024-06-25_12h41.33.780,LearnStrategy,2023.2.3,Win32,60.97560976,,,,,,,,,,,7,15,2,7,,,,,,,,,,,,,,,,,,,,,,,,,,,,,
66561df3560bbac516eb85ac,SCN,2024-06-25_12h41.33.780,LearnStrategy,2023.2.3,Win32,60.97560976,,,,,,,,,,,5,16,2,8,,,,,,,,,,,,,,,,,,,,,,,,,,,,,
66561df3560bbac516eb85ac,SCN,2024-06-25_12h41.33.780,LearnStrategy,2023.2.3,Win32,60.97560976,,,,,,,,,,,3,06,3,1,,,,,,,,,,,,,,,,,,,,,,,,,,,,,
66561df3560bbac516eb85ac,SCN,2024-06-25_12h41.33.780,LearnStrategy,2023.2.3,Win32,60.97560976,,,,,,,,,,,8,15,3,2,,,,,,,,,,,,,,,,,,,,,,,,,,,,,
66561df3560bbac516eb85ac,SCN,2024-06-25_12h41.33.780,LearnStrategy,2023.2.3,Win32,60.97560976,,,,,,,,,,,1,01,3,3,,,,,,,,,,,,,,,,,,,,,,,,,,,,,
66561df3560bbac516eb85ac,SCN,2024-06-25_12h41.33.780,LearnStrategy,2023.2.3,Win32,60.97560976,,,,,,,,,,,4,01,3,4,,,,,,,,,,,,,,,,,,,,,,,,,,,,,
66561df3560bbac516eb85ac,SCN,2024-06-25_12h41.33.780,LearnStrategy,2023.2.3,Win32,60.97560976,,,,,,,,,,,3,10,3,5,,,,,,,,,,,,,,,,,,,,,,,,,,,,,
66561df3560bbac516eb85ac,SCN,2024-06-25_12h41.33.780,LearnStrategy,2023.2.3,Win32,60.97560976,,,,,,,,,,,6,13,3,6,,,,,,,,,,,,,,,,,,,,,,,,,,,,,
66561df3560bbac516eb85ac,SCN,2024-06-25_12h41.33.780,LearnStrategy,2023.2.3,Win32,60.97560976,,,,,,,,,,,2,06,3,7,,,,,,,,,,,,,,,,,,,,,,,,,,,,,
66561df3560bbac516eb85ac,SCN,2024-06-25_12h41.33.780,LearnStrategy,2023.2.3,Win32,60.97560976,,,,,,,,,,,4,14,3,8,,,,,,,,,,,,,,,,,,,,,,,,,,,,,
66561df3560bbac516eb85ac,SCN,2024-06-25_12h41.33.780,LearnStrategy,2023.2.3,Win32,60.97560976,,,,,,,,,,,8,06,4,1,,,,,,,,,,,,,,,,,,,,,,,,,,,,,
66561df3560bbac516eb85ac,SCN,2024-06-25_12h41.33.780,LearnStrategy,2023.2.3,Win32,60.97560976,,,,,,,,,,,6,06,4,2,,,,,,,,,,,,,,,,,,,,,,,,,,,,,
66561df3560bbac516eb85ac,SCN,2024-06-25_12h41.33.780,LearnStrategy,2023.2.3,Win32,60.97560976,,,,,,,,,,,4,10,4,3,,,,,,,,,,,,,,,,,,,,,,,,,,,,,
66561df3560bbac516eb85ac,SCN,2024-06-25_12h41.33.780,LearnStrategy,2023.2.3,Win32,60.97560976,,,,,,,,,,,5,12,4,4,,,,,,,,,,,,,,,,,,,,,,,,,,,,,
66561df3560bbac516eb85ac,SCN,2024-06-25_12h41.33.780,LearnStrategy,2023.2.3,Win32,60.97560976,,,,,,,,,,,7,12,4,5,,,,,,,,,,,,,,,,,,,,,,,,,,,,,
66561df3560bbac516eb85ac,SCN,2024-06-25_12h41.33.780,LearnStrategy,2023.2.3,Win32,60.97560976,,,,,,,,,,,8,08,4,6,,,,,,,,,,,,,,,,,,,,,,,,,,,,,
66561df3560bbac516eb85ac,SCN,2024-06-25_12h41.33.780,LearnStrategy,2023.2.3,Win32,60.97560976,,,,,,,,,,,7,02,4,7,,,,,,,,,,,,,,,,,,,,,,,,,,,,,
66561df3560bbac516eb85ac,SCN,2024-06-25_12h41.33.780,LearnStrategy,2023.2.3,Win32,60.97560976,,,,,,,,,,,2,12,4,8,,,,,,,,,,,,,,,,,,,,,,,,,,,,,
66561df3560bbac516eb85ac,SCN,2024-06-25_12h41.33.780,LearnStrategy,2023.2.3,Win32,60.97560976,,,,,,,,,,,2,10,5,1,,,,,,,,,,,,,,,,,,,,,,,,,,,,,
66561df3560bbac516eb85ac,SCN,2024-06-25_12h41.33.780,LearnStrategy,2023.2.3,Win32,60.97560976,,,,,,,,,,,1,03,5,2,,,,,,,,,,,,,,,,,,,,,,,,,,,,,
66561df3560bbac516eb85ac,SCN,2024-06-25_12h41.33.780,LearnStrategy,2023.2.3,Win32,60.97560976,,,,,,,,,,,3,16,5,3,,,,,,,,,,,,,,,,,,,,,,,,,,,,,
66561df3560bbac516eb85ac,SCN,2024-06-25_12h41.33.780,LearnStrategy,2023.2.3,Win32,60.97560976,,,,,,,,,,,7,04,5,4,,,,,,,,,,,,,,,,,,,,,,,,,,,,,
66561df3560bbac516eb85ac,SCN,2024-06-25_12h41.33.780,LearnStrategy,2023.2.3,Win32,60.97560976,,,,,,,,,,,5,05,5,5,,,,,,,,,,,,,,,,,,,,,,,,,,,,,
66561df3560bbac516eb85ac,SCN,2024-06-25_12h41.33.780,LearnStrategy,2023.2.3,Win32,60.97560976,,,,,,,,,,,6,12,5,6,,,,,,,,,,,,,,,,,,,,,,,,,,,,,
66561df3560bbac516eb85ac,SCN,2024-06-25_12h41.33.780,LearnStrategy,2023.2.3,Win32,60.97560976,,,,,,,,,,,7,06,5,7,,,,,,,,,,,,,,,,,,,,,,,,,,,,,
66561df3560bbac516eb85ac,SCN,2024-06-25_12h41.33.780,LearnStrategy,2023.2.3,Win32,60.97560976,,,,,,,,,,,6,11,5,8,,,,,,,,,,,,,,,,,,,,,,,,,,,,,
66561df3560bbac516eb85ac,SCN,2024-06-25_12h41.33.780,LearnStrategy,2023.2.3,Win32,60.97560976,,,,,,,,,,,3,07,6,1,,,,,,,,,,,,,,,,,,,,,,,,,,,,,
66561df3560bbac516eb85ac,SCN,2024-06-25_12h41.33.780,LearnStrategy,2023.2.3,Win32,60.97560976,,,,,,,,,,,8,02,6,2,,,,,,,,,,,,,,,,,,,,,,,,,,,,,
66561df3560bbac516eb85ac,SCN,2024-06-25_12h41.33.780,LearnStrategy,2023.2.3,Win32,60.97560976,,,,,,,,,,,5,11,6,3,,,,,,,,,,,,,,,,,,,,,,,,,,,,,
66561df3560bbac516eb85ac,SCN,2024-06-25_12h41.33.780,LearnStrategy,2023.2.3,Win32,60.97560976,,,,,,,,,,,2,14,6,4,,,,,,,,,,,,,,,,,,,,,,,,,,,,,
66561df3560bbac516eb85ac,SCN,2024-06-25_12h41.33.780,LearnStrategy,2023.2.3,Win32,60.97560976,,,,,,,,,,,6,03,6,5,,,,,,,,,,,,,,,,,,,,,,,,,,,,,
66561df3560bbac516eb85ac,SCN,2024-06-25_12h41.33.780,LearnStrategy,2023.2.3,Win32,60.97560976,,,,,,,,,,,5,04,6,6,,,,,,,,,,,,,,,,,,,,,,,,,,,,,
66561df3560bbac516eb85ac,SCN,2024-06-25_12h41.33.780,LearnStrategy,2023.2.3,Win32,60.97560976,,,,,,,,,,,8,04,6,7,,,,,,,,,,,,,,,,,,,,,,,,,,,,,
66561df3560bbac516eb85ac,SCN,2024-06-25_12h41.33.780,LearnStrategy,2023.2.3,Win32,60.97560976,,,,,,,,,,,4,05,6,8,,,,,,,,,,,,,,,,,,,,,,,,,,,,,