participant,condition,date,expName,psychopyVersion,OS,frameRate,block,phase,trial,learn_mouse_2.x,learn_mouse_2.y,learn_mouse_2.leftButton,learn_mouse_2.midButton,learn_mouse_2.rightButton,learn_mouse_2.time,learn_mouse_2.clicked_name,cat,token,row,col,t_select,cat_mouse_l.x,cat_mouse_l.y,cat_mouse_l.leftButton,cat_mouse_l.midButton,cat_mouse_l.rightButton,cat_mouse_l.time,cat_mouse_l.clicked_name,resp,t_resp,corr,train_trials.thisRepN,train_trials.thisTrialN,train_trials.thisN,train_trials.thisIndex,train_trials.ran,cat_mouse_t.x,cat_mouse_t.y,cat_mouse_t.leftButton,cat_mouse_t.midButton,cat_mouse_t.rightButton,cat_mouse_t.time,cat_mouse_t.clicked_name,test_trials.thisRepN,test_trials.thisTrialN,test_trials.thisN,test_trials.thisIndex,test_trials.ran,Bonus
6657d2d03fb90667017a1f95,TCR,2024-06-11_13h13.48.996,LearnStrategy,2023.2.3,Win32,142.8571429,,,,,,,,,,,,,,,,,,,,,,,,,,,,,,,,,,,,,,,,,,,
6657d2d03fb90667017a1f95,TCR,2024-06-11_13h13.48.996,LearnStrategy,2023.2.3,Win32,142.8571429,1,1,1,0.111111111,-0.006481481,1,0,0,8.16,rock_grid_rect_2,7,08,-1,-1,8.16,0.161111111,-0.408333333,1,0,0,15.0124,Peridotite_rect,7,15.012,1,0,0,0,0,1,,,,,,,,,,,,,
6657d2d03fb90667017a1f95,TCR,2024-06-11_13h13.48.996,LearnStrategy,2023.2.3,Win32,142.8571429,1,1,2,0.111111111,-0.008333333,1,0,0,2.7745,rock_grid_rect_2,4,14,-1,-1,2.775,-0.348148148,-0.263888889,1,0,0,13.4503,Andesite_rect,1,13.45,0,1,0,1,0,1,,,,,,,,,,,,,
6657d2d03fb90667017a1f95,TCR,2024-06-11_13h13.48.996,LearnStrategy,2023.2.3,Win32,142.8571429,1,1,3,0.111111111,0.000925926,1,0,0,3.0007,rock_grid_rect_2,4,10,-1,-1,3.001,-0.32962963,-0.399074074,1,0,0,6.4158,Obsidian_rect,5,6.416,0,2,0,2,0,1,,,,,,,,,,,,,
6657d2d03fb90667017a1f95,TCR,2024-06-11_13h13.48.996,LearnStrategy,2023.2.3,Win32,142.8571429,1,1,4,0.113888889,0,1,0,0,2.1677,rock_grid_rect_2,2,05,-1,-1,2.168,-0.087962963,-0.242592593,1,0,0,8.956,Basalt_rect,2,8.956,1,3,0,3,0,1,,,,,,,,,,,,,
6657d2d03fb90667017a1f95,TCR,2024-06-11_13h13.48.996,LearnStrategy,2023.2.3,Win32,142.8571429,1,1,5,0.072222222,-0.019444444,1,0,0,1.787,rock_grid_rect_2,8,09,-1,-1,1.787,0.358333333,-0.388888889,1,0,0,2.1891,Pumice_rect,8,2.189,1,4,0,4,0,1,,,,,,,,,,,,,
6657d2d03fb90667017a1f95,TCR,2024-06-11_13h13.48.996,LearnStrategy,2023.2.3,Win32,142.8571429,1,1,6,0.051851852,-0.007407407,1,0,0,1.9598,rock_grid_rect_2,2,10,-1,-1,1.96,-0.125925926,-0.250925926,1,0,0,6.1051,Basalt_rect,2,6.105,1,5,0,5,0,1,,,,,,,,,,,,,
6657d2d03fb90667017a1f95,TCR,2024-06-11_13h13.48.996,LearnStrategy,2023.2.3,Win32,142.8571429,1,1,7,0.048148148,-0.006481481,1,0,0,1.5479,rock_grid_rect_2,8,13,-1,-1,1.548,-0.394444444,-0.258333333,1,0,0,9.1544,Andesite_rect,1,9.154,0,6,0,6,0,1,,,,,,,,,,,,,
6657d2d03fb90667017a1f95,TCR,2024-06-11_13h13.48.996,LearnStrategy,2023.2.3,Win32,142.8571429,1,1,8,0.007407407,-0.010185185,1,0,0,1.3891,rock_grid_rect_2,5,02,-1,-1,1.389,-0.412037037,-0.402777778,1,0,0,1.7988,Obsidian_rect,5,1.799,1,7,0,7,0,1,,,,,,,,,,,,,
6657d2d03fb90667017a1f95,TCR,2024-06-11_13h13.48.996,LearnStrategy,2023.2.3,Win32,142.8571429,1,1,9,-0.007407407,-0.007407407,1,0,0,1.6205,rock_grid_rect_2,1,09,-1,-1,1.621,-0.349074074,-0.244444444,1,0,0,9.6211,Andesite_rect,1,9.621,1,8,0,8,0,1,,,,,,,,,,,,,
6657d2d03fb90667017a1f95,TCR,2024-06-11_13h13.48.996,LearnStrategy,2023.2.3,Win32,142.8571429,1,1,10,0.026851852,-0.012037037,1,0,0,1.3939,rock_grid_rect_2,6,12,-1,-1,1.394,0.137037037,-0.25462963,1,0,0,6.4694,Diorite_rect,3,6.469,0,9,0,9,0,1,,,,,,,,,,,,,
6657d2d03fb90667017a1f95,TCR,2024-06-11_13h13.48.996,LearnStrategy,2023.2.3,Win32,142.8571429,1,1,11,0.008333333,0.000925926,1,0,0,1.379,rock_grid_rect_2,3,15,-1,-1,1.379,0.103703704,-0.398148148,1,0,0,4.7807,Peridotite_rect,7,4.781,0,10,0,10,0,1,,,,,,,,,,,,,
6657d2d03fb90667017a1f95,TCR,2024-06-11_13h13.48.996,LearnStrategy,2023.2.3,Win32,142.8571429,1,1,12,0.068518519,0.006481481,1,0,0,2.0383,rock_grid_rect_2,5,05,-1,-1,2.038,-0.393518519,-0.399074074,1,0,0,2.9477,Obsidian_rect,5,2.948,1,11,0,11,0,1,,,,,,,,,,,,,
6657d2d03fb90667017a1f95,TCR,2024-06-11_13h13.48.996,LearnStrategy,2023.2.3,Win32,142.8571429,1,1,13,0.009259259,-0.002777778,1,0,0,1.7567,rock_grid_rect_2,3,16,-1,-1,1.757,-0.327777778,-0.24537037,1,0,0,7.9448,Andesite_rect,1,7.945,0,12,0,12,0,1,,,,,,,,,,,,,
6657d2d03fb90667017a1f95,TCR,2024-06-11_13h13.48.996,LearnStrategy,2023.2.3,Win32,142.8571429,1,1,14,0.05,0,1,0,0,1.3855,rock_grid_rect_2,7,13,-1,-1,1.385,-0.083333333,-0.4,1,0,0,5.8464,Pegmatite_rect,6,5.846,0,13,0,13,0,1,,,,,,,,,,,,,
6657d2d03fb90667017a1f95,TCR,2024-06-11_13h13.48.996,LearnStrategy,2023.2.3,Win32,142.8571429,1,1,15,0.016666667,-0.008333333,1,0,0,1.3374,rock_grid_rect_2,6,15,-1,-1,1.337,0.175,-0.249074074,1,0,0,9.9332,Diorite_rect,3,9.933,0,14,0,14,0,1,,,,,,,,,,,,,
6657d2d03fb90667017a1f95,TCR,2024-06-11_13h13.48.996,LearnStrategy,2023.2.3,Win32,142.8571429,1,1,16,0.033333333,-0.012037037,1,0,0,1.1081,rock_grid_rect_2,1,05,-1,-1,1.108,0.063888889,-0.400925926,1,0,0,8.4978,Peridotite_rect,7,8.498,0,15,0,15,0,1,,,,,,,,,,,,,
6657d2d03fb90667017a1f95,TCR,2024-06-11_13h13.48.996,LearnStrategy,2023.2.3,Win32,142.8571429,1,2,1,,,,,,,,2,06,,,,,,,,,,,2,7.978,1,,,,,,-0.128703704,-0.246296296,1,0,0,7.9784,Basalt_rect,0,0,0,0,1,
6657d2d03fb90667017a1f95,TCR,2024-06-11_13h13.48.996,LearnStrategy,2023.2.3,Win32,142.8571429,1,2,2,,,,,,,,7,14,,,,,,,,,,,6,10.233,0,,,,,,-0.075,-0.396296296,1,0,0,10.233,Pegmatite_rect,1,0,1,0,1,
6657d2d03fb90667017a1f95,TCR,2024-06-11_13h13.48.996,LearnStrategy,2023.2.3,Win32,142.8571429,1,2,3,,,,,,,,8,03,,,,,,,,,,,8,2.107,1,,,,,,0.367592593,-0.398148148,1,0,0,2.1069,Pumice_rect,2,0,2,0,1,
6657d2d03fb90667017a1f95,TCR,2024-06-11_13h13.48.996,LearnStrategy,2023.2.3,Win32,142.8571429,1,2,4,,,,,,,,8,14,,,,,,,,,,,8,1.393,1,,,,,,0.367592593,-0.398148148,1,0,0,1.3926,Pumice_rect,3,0,3,0,1,
6657d2d03fb90667017a1f95,TCR,2024-06-11_13h13.48.996,LearnStrategy,2023.2.3,Win32,142.8571429,1,2,5,,,,,,,,6,05,,,,,,,,,,,1,12.897,0,,,,,,-0.342592593,-0.266666667,1,0,0,12.8969,Andesite_rect,4,0,4,0,1,
6657d2d03fb90667017a1f95,TCR,2024-06-11_13h13.48.996,LearnStrategy,2023.2.3,Win32,142.8571429,1,2,6,,,,,,,,3,11,,,,,,,,,,,4,10.75,0,,,,,,0.387037037,-0.237962963,1,0,0,10.7497,Gabbro_rect,5,0,5,0,1,
6657d2d03fb90667017a1f95,TCR,2024-06-11_13h13.48.996,LearnStrategy,2023.2.3,Win32,142.8571429,1,2,7,,,,,,,,3,08,,,,,,,,,,,4,5.063,0,,,,,,0.387037037,-0.237962963,1,0,0,5.063,Gabbro_rect,6,0,6,0,1,
6657d2d03fb90667017a1f95,TCR,2024-06-11_13h13.48.996,LearnStrategy,2023.2.3,Win32,142.8571429,1,2,8,,,,,,,,4,09,,,,,,,,,,,6,11.662,0,,,,,,-0.203703704,-0.394444444,1,0,0,11.662,Pegmatite_rect,7,0,7,0,1,
6657d2d03fb90667017a1f95,TCR,2024-06-11_13h13.48.996,LearnStrategy,2023.2.3,Win32,142.8571429,1,2,9,,,,,,,,4,12,,,,,,,,,,,2,3.893,0,,,,,,-0.182407407,-0.259259259,1,0,0,3.8933,Basalt_rect,8,0,8,0,1,
6657d2d03fb90667017a1f95,TCR,2024-06-11_13h13.48.996,LearnStrategy,2023.2.3,Win32,142.8571429,1,2,10,,,,,,,,2,12,,,,,,,,,,,8,3.605,0,,,,,,0.339814815,-0.398148148,1,0,0,3.605,Pumice_rect,9,0,9,0,1,
6657d2d03fb90667017a1f95,TCR,2024-06-11_13h13.48.996,LearnStrategy,2023.2.3,Win32,142.8571429,1,2,11,,,,,,,,5,16,,,,,,,,,,,5,1.879,1,,,,,,-0.325925926,-0.418518519,1,0,0,1.8794,Obsidian_rect,10,0,10,0,1,
6657d2d03fb90667017a1f95,TCR,2024-06-11_13h13.48.996,LearnStrategy,2023.2.3,Win32,142.8571429,1,2,12,,,,,,,,6,08,,,,,,,,,,,3,5.451,0,,,,,,0.101851852,-0.25,1,0,0,5.4509,Diorite_rect,11,0,11,0,1,
6657d2d03fb90667017a1f95,TCR,2024-06-11_13h13.48.996,LearnStrategy,2023.2.3,Win32,142.8571429,1,2,13,,,,,,,,1,02,,,,,,,,,,,4,3.788,0,,,,,,0.363888889,-0.235185185,1,0,0,3.7883,Gabbro_rect,12,0,12,0,1,
6657d2d03fb90667017a1f95,TCR,2024-06-11_13h13.48.996,LearnStrategy,2023.2.3,Win32,142.8571429,1,2,14,,,,,,,,7,02,,,,,,,,,,,6,12.281,0,,,,,,-0.087037037,-0.400925926,1,0,0,12.2814,Pegmatite_rect,13,0,13,0,1,
6657d2d03fb90667017a1f95,TCR,2024-06-11_13h13.48.996,LearnStrategy,2023.2.3,Win32,142.8571429,1,2,15,,,,,,,,1,06,,,,,,,,,,,3,4.948,0,,,,,,0.138888889,-0.256481481,1,0,0,4.9482,Diorite_rect,14,0,14,0,1,
6657d2d03fb90667017a1f95,TCR,2024-06-11_13h13.48.996,LearnStrategy,2023.2.3,Win32,142.8571429,1,2,16,,,,,,,,5,09,,,,,,,,,,,5,1.603,1,,,,,,-0.350925926,-0.414814815,1,0,0,1.6028,Obsidian_rect,15,0,15,0,1,
6657d2d03fb90667017a1f95,TCR,2024-06-11_13h13.48.996,LearnStrategy,2023.2.3,Win32,142.8571429,2,1,1,0.087037037,-0.012962963,1,0,0,3.1967,rock_grid_rect_2,4,03,-1,-1,3.197,0.388888889,-0.25,1,0,0,6.428,Gabbro_rect,4,6.428,1,0,0,0,0,1,,,,,,,,,,,,,
6657d2d03fb90667017a1f95,TCR,2024-06-11_13h13.48.996,LearnStrategy,2023.2.3,Win32,142.8571429,2,1,2,0.05,-0.011111111,1,0,0,1.8028,rock_grid_rect_2,3,13,-1,-1,1.803,0.349074074,-0.22962963,1,0,0,3.8035,Gabbro_rect,4,3.803,0,1,0,1,0,1,,,,,,,,,,,,,
6657d2d03fb90667017a1f95,TCR,2024-06-11_13h13.48.996,LearnStrategy,2023.2.3,Win32,142.8571429,2,1,3,0.032407407,-0.008333333,1,0,0,1.6272,rock_grid_rect_2,6,15,-1,-1,1.627,-0.146296296,-0.399074074,1,0,0,5.5638,Pegmatite_rect,6,5.564,1,2,0,2,0,1,,,,,,,,,,,,,
6657d2d03fb90667017a1f95,TCR,2024-06-11_13h13.48.996,LearnStrategy,2023.2.3,Win32,142.8571429,2,1,4,0.001851852,-0.00462963,1,0,0,1.8496,rock_grid_rect_2,2,01,-1,-1,1.85,-0.160185185,-0.241666667,1,0,0,2.6466,Basalt_rect,2,2.647,1,3,0,3,0,1,,,,,,,,,,,,,
6657d2d03fb90667017a1f95,TCR,2024-06-11_13h13.48.996,LearnStrategy,2023.2.3,Win32,142.8571429,2,1,5,-0.00462963,-0.001851852,1,0,0,1.3812,rock_grid_rect_2,1,11,-1,-1,1.381,-0.407407407,-0.262037037,1,0,0,10.4626,Andesite_rect,1,10.463,1,4,0,4,0,1,,,,,,,,,,,,,
6657d2d03fb90667017a1f95,TCR,2024-06-11_13h13.48.996,LearnStrategy,2023.2.3,Win32,142.8571429,2,1,6,0.017592593,-0.011111111,1,0,0,1.3844,rock_grid_rect_2,6,10,-1,-1,1.384,0.127777778,-0.410185185,1,0,0,5.4572,Peridotite_rect,7,5.457,0,5,0,5,0,1,,,,,,,,,,,,,
6657d2d03fb90667017a1f95,TCR,2024-06-11_13h13.48.996,LearnStrategy,2023.2.3,Win32,142.8571429,2,1,7,0.019444444,-0.002777778,1,0,0,1.3877,rock_grid_rect_2,3,15,-1,-1,1.388,0.346296296,-0.244444444,1,0,0,2.5426,Gabbro_rect,4,2.543,0,6,0,6,0,1,,,,,,,,,,,,,
6657d2d03fb90667017a1f95,TCR,2024-06-11_13h13.48.996,LearnStrategy,2023.2.3,Win32,142.8571429,2,1,8,0.030555556,-0.006481481,1,0,0,1.4765,rock_grid_rect_2,7,13,-1,-1,1.476,0.102777778,-0.413888889,1,0,0,6.1489,Peridotite_rect,7,6.149,1,7,0,7,0,1,,,,,,,,,,,,,
6657d2d03fb90667017a1f95,TCR,2024-06-11_13h13.48.996,LearnStrategy,2023.2.3,Win32,142.8571429,2,1,9,0.02037037,-0.017592593,1,0,0,1.2249,rock_grid_rect_2,2,01,-1,-1,1.225,-0.143518519,-0.24537037,1,0,0,1.8199,Basalt_rect,2,1.82,1,8,0,8,0,1,,,,,,,,,,,,,
6657d2d03fb90667017a1f95,TCR,2024-06-11_13h13.48.996,LearnStrategy,2023.2.3,Win32,142.8571429,2,1,10,-0.036111111,-0.009259259,1,0,0,1.7913,rock_grid_rect_2,4,08,-1,-1,1.791,0.162037037,-0.260185185,1,0,0,11.7466,Diorite_rect,3,11.747,0,9,0,9,0,1,,,,,,,,,,,,,
6657d2d03fb90667017a1f95,TCR,2024-06-11_13h13.48.996,LearnStrategy,2023.2.3,Win32,142.8571429,2,1,11,0.048148148,0.007407407,1,0,0,1.1408,rock_grid_rect_2,1,01,-1,-1,1.141,0.341666667,-0.244444444,1,0,0,2.8674,Gabbro_rect,4,2.867,0,10,0,10,0,1,,,,,,,,,,,,,
6657d2d03fb90667017a1f95,TCR,2024-06-11_13h13.48.996,LearnStrategy,2023.2.3,Win32,142.8571429,2,1,12,0.02037037,0.008333333,1,0,0,1.1922,rock_grid_rect_2,4,03,-1,-1,1.192,0.350925926,-0.242592593,1,0,0,2.6902,Gabbro_rect,4,2.69,1,11,0,11,0,1,,,,,,,,,,,,,
6657d2d03fb90667017a1f95,TCR,2024-06-11_13h13.48.996,LearnStrategy,2023.2.3,Win32,142.8571429,2,1,13,-0.013888889,-0.007407407,1,0,0,1.3454,rock_grid_rect_2,3,09,-1,-1,1.345,0.089814815,-0.247222222,1,0,0,6.1536,Diorite_rect,3,6.154,1,12,0,12,0,1,,,,,,,,,,,,,
6657d2d03fb90667017a1f95,TCR,2024-06-11_13h13.48.996,LearnStrategy,2023.2.3,Win32,142.8571429,2,1,14,0.068518519,-0.001851852,1,0,0,2.1875,rock_grid_rect_2,6,15,-1,-1,2.188,-0.143518519,-0.399074074,1,0,0,2.519,Pegmatite_rect,6,2.519,1,13,0,13,0,1,,,,,,,,,,,,,
6657d2d03fb90667017a1f95,TCR,2024-06-11_13h13.48.996,LearnStrategy,2023.2.3,Win32,142.8571429,2,1,15,-0.005555556,-0.005555556,1,0,0,1.3207,rock_grid_rect_2,1,05,-1,-1,1.321,0.15,-0.242592593,1,0,0,10.3737,Diorite_rect,3,10.374,0,14,0,14,0,1,,,,,,,,,,,,,
6657d2d03fb90667017a1f95,TCR,2024-06-11_13h13.48.996,LearnStrategy,2023.2.3,Win32,142.8571429,2,1,16,0.023148148,-0.013888889,1,0,0,1.3666,rock_grid_rect_2,7,12,-1,-1,1.367,0.140740741,-0.251851852,1,0,0,2.5811,Diorite_rect,3,2.581,0,15,0,15,0,1,,,,,,,,,,,,,
6657d2d03fb90667017a1f95,TCR,2024-06-11_13h13.48.996,LearnStrategy,2023.2.3,Win32,142.8571429,2,2,1,,,,,,,,7,06,,,,,,,,,,,6,10.15,0,,,,,,-0.139814815,-0.4,1,0,0,10.1496,Pegmatite_rect,0,0,0,0,1,
6657d2d03fb90667017a1f95,TCR,2024-06-11_13h13.48.996,LearnStrategy,2023.2.3,Win32,142.8571429,2,2,2,,,,,,,,5,04,,,,,,,,,,,5,1.625,1,,,,,,-0.336111111,-0.402777778,1,0,0,1.625,Obsidian_rect,1,0,1,0,1,
6657d2d03fb90667017a1f95,TCR,2024-06-11_13h13.48.996,LearnStrategy,2023.2.3,Win32,142.8571429,2,2,3,,,,,,,,8,06,,,,,,,,,,,8,1.605,1,,,,,,0.389814815,-0.408333333,1,0,0,1.6049,Pumice_rect,2,0,2,0,1,
6657d2d03fb90667017a1f95,TCR,2024-06-11_13h13.48.996,LearnStrategy,2023.2.3,Win32,142.8571429,2,2,4,,,,,,,,1,04,,,,,,,,,,,6,8.349,0,,,,,,-0.076851852,-0.406481481,1,0,0,8.3491,Pegmatite_rect,3,0,3,0,1,
6657d2d03fb90667017a1f95,TCR,2024-06-11_13h13.48.996,LearnStrategy,2023.2.3,Win32,142.8571429,2,2,5,,,,,,,,3,14,,,,,,,,,,,3,4.983,1,,,,,,0.15462963,-0.253703704,1,0,0,4.983,Diorite_rect,4,0,4,0,1,
6657d2d03fb90667017a1f95,TCR,2024-06-11_13h13.48.996,LearnStrategy,2023.2.3,Win32,142.8571429,2,2,6,,,,,,,,3,10,,,,,,,,,,,4,3.875,0,,,,,,0.350925926,-0.239814815,1,0,0,3.8755,Gabbro_rect,5,0,5,0,1,
6657d2d03fb90667017a1f95,TCR,2024-06-11_13h13.48.996,LearnStrategy,2023.2.3,Win32,142.8571429,2,2,7,,,,,,,,5,07,,,,,,,,,,,5,14.443,1,,,,,,-0.380555556,-0.409259259,1,0,0,14.4432,Obsidian_rect,6,0,6,0,1,
6657d2d03fb90667017a1f95,TCR,2024-06-11_13h13.48.996,LearnStrategy,2023.2.3,Win32,142.8571429,2,2,8,,,,,,,,2,04,,,,,,,,,,,2,1.792,1,,,,,,-0.156481481,-0.248148148,1,0,0,1.7922,Basalt_rect,7,0,7,0,1,
6657d2d03fb90667017a1f95,TCR,2024-06-11_13h13.48.996,LearnStrategy,2023.2.3,Win32,142.8571429,2,2,9,,,,,,,,7,05,,,,,,,,,,,7,5.6,1,,,,,,0.063888889,-0.400925926,1,0,0,5.6004,Peridotite_rect,8,0,8,0,1,
6657d2d03fb90667017a1f95,TCR,2024-06-11_13h13.48.996,LearnStrategy,2023.2.3,Win32,142.8571429,2,2,10,,,,,,,,4,01,,,,,,,,,,,1,4.763,0,,,,,,-0.34537037,-0.25,1,0,0,4.7632,Andesite_rect,9,0,9,0,1,
6657d2d03fb90667017a1f95,TCR,2024-06-11_13h13.48.996,LearnStrategy,2023.2.3,Win32,142.8571429,2,2,11,,,,,,,,6,16,,,,,,,,,,,1,7.49,0,,,,,,-0.34537037,-0.25,1,0,0,7.4896,Andesite_rect,10,0,10,0,1,
6657d2d03fb90667017a1f95,TCR,2024-06-11_13h13.48.996,LearnStrategy,2023.2.3,Win32,142.8571429,2,2,12,,,,,,,,4,13,,,,,,,,,,,3,3.797,0,,,,,,0.137962963,-0.237962963,1,0,0,3.7971,Diorite_rect,11,0,11,0,1,
6657d2d03fb90667017a1f95,TCR,2024-06-11_13h13.48.996,LearnStrategy,2023.2.3,Win32,142.8571429,2,2,13,,,,,,,,2,02,,,,,,,,,,,2,2.075,1,,,,,,-0.099074074,-0.255555556,1,0,0,2.0754,Basalt_rect,12,0,12,0,1,
6657d2d03fb90667017a1f95,TCR,2024-06-11_13h13.48.996,LearnStrategy,2023.2.3,Win32,142.8571429,2,2,14,,,,,,,,6,06,,,,,,,,,,,1,4.569,0,,,,,,-0.328703704,-0.263888889,1,0,0,4.5686,Andesite_rect,13,0,13,0,1,
6657d2d03fb90667017a1f95,TCR,2024-06-11_13h13.48.996,LearnStrategy,2023.2.3,Win32,142.8571429,2,2,15,,,,,,,,8,15,,,,,,,,,,,8,1.936,1,,,,,,0.422222222,-0.42037037,1,0,0,1.9355,Pumice_rect,14,0,14,0,1,
6657d2d03fb90667017a1f95,TCR,2024-06-11_13h13.48.996,LearnStrategy,2023.2.3,Win32,142.8571429,2,2,16,,,,,,,,1,16,,,,,,,,,,,3,3.415,0,,,,,,0.210185185,-0.256481481,1,0,0,3.4152,Diorite_rect,15,0,15,0,1,
6657d2d03fb90667017a1f95,TCR,2024-06-11_13h13.48.996,LearnStrategy,2023.2.3,Win32,142.8571429,3,1,1,0.080555556,-0.003703704,1,0,0,2.2569,rock_grid_rect_2,6,15,-1,-1,2.257,-0.160185185,-0.40462963,1,0,0,2.5108,Pegmatite_rect,6,2.511,1,0,0,0,0,1,,,,,,,,,,,,,
6657d2d03fb90667017a1f95,TCR,2024-06-11_13h13.48.996,LearnStrategy,2023.2.3,Win32,142.8571429,3,1,2,-0.030555556,-0.008333333,1,0,0,1.8831,rock_grid_rect_2,2,01,-1,-1,1.883,-0.128703704,-0.250925926,1,0,0,1.589,Basalt_rect,2,1.589,1,1,0,1,0,1,,,,,,,,,,,,,
6657d2d03fb90667017a1f95,TCR,2024-06-11_13h13.48.996,LearnStrategy,2023.2.3,Win32,142.8571429,3,1,3,-0.052777778,0.006481481,1,0,0,1.3441,rock_grid_rect_2,1,09,-1,-1,1.344,0.103703704,-0.243518519,1,0,0,17.5245,Diorite_rect,3,17.524,0,2,0,2,0,1,,,,,,,,,,,,,
6657d2d03fb90667017a1f95,TCR,2024-06-11_13h13.48.996,LearnStrategy,2023.2.3,Win32,142.8571429,3,1,4,0.011111111,-0.010185185,1,0,0,1.2917,rock_grid_rect_2,4,14,-1,-1,1.292,0.117592593,-0.262962963,1,0,0,2.232,Diorite_rect,3,2.232,0,3,0,3,0,1,,,,,,,,,,,,,
6657d2d03fb90667017a1f95,TCR,2024-06-11_13h13.48.996,LearnStrategy,2023.2.3,Win32,142.8571429,3,1,5,0.05,-0.009259259,1,0,0,1.2074,rock_grid_rect_2,3,09,-1,-1,1.207,0.122222222,-0.241666667,1,0,0,2.6453,Diorite_rect,3,2.645,1,4,0,4,0,1,,,,,,,,,,,,,
6657d2d03fb90667017a1f95,TCR,2024-06-11_13h13.48.996,LearnStrategy,2023.2.3,Win32,142.8571429,3,1,6,-0.037037037,-0.009259259,1,0,0,1.3253,rock_grid_rect_2,3,07,-1,-1,1.325,-0.369444444,-0.247222222,1,0,0,3.4772,Andesite_rect,1,3.477,0,5,0,5,0,1,,,,,,,,,,,,,
6657d2d03fb90667017a1f95,TCR,2024-06-11_13h13.48.996,LearnStrategy,2023.2.3,Win32,142.8571429,3,1,7,0.040740741,0.010185185,1,0,0,1.915,rock_grid_rect_2,7,10,-1,-1,1.915,0.124074074,-0.387962963,1,0,0,2.8605,Peridotite_rect,7,2.861,1,6,0,6,0,1,,,,,,,,,,,,,
6657d2d03fb90667017a1f95,TCR,2024-06-11_13h13.48.996,LearnStrategy,2023.2.3,Win32,142.8571429,3,1,8,0.026851852,-0.002777778,1,0,0,1.41,rock_grid_rect_2,3,09,-1,-1,1.41,0.338888889,-0.238888889,1,0,0,6.5497,Gabbro_rect,4,6.55,0,7,0,7,0,1,,,,,,,,,,,,,
6657d2d03fb90667017a1f95,TCR,2024-06-11_13h13.48.996,LearnStrategy,2023.2.3,Win32,142.8571429,3,1,9,0.026851852,-0.007407407,1,0,0,1.3851,rock_grid_rect_2,7,13,-1,-1,1.385,0.118518519,-0.413888889,1,0,0,1.7083,Peridotite_rect,7,1.708,1,8,0,8,0,1,,,,,,,,,,,,,
6657d2d03fb90667017a1f95,TCR,2024-06-11_13h13.48.996,LearnStrategy,2023.2.3,Win32,142.8571429,3,1,10,0.084259259,0.001851852,1,0,0,1.5159,rock_grid_rect_2,1,05,-1,-1,1.516,-0.347222222,-0.228703704,1,0,0,3.135,Andesite_rect,1,3.135,1,9,0,9,0,1,,,,,,,,,,,,,
6657d2d03fb90667017a1f95,TCR,2024-06-11_13h13.48.996,LearnStrategy,2023.2.3,Win32,142.8571429,3,1,11,0.012962963,0.003703704,1,0,0,1.3156,rock_grid_rect_2,1,05,-1,-1,1.316,-0.356481481,-0.244444444,1,0,0,2.0983,Andesite_rect,1,2.098,1,10,0,10,0,1,,,,,,,,,,,,,
6657d2d03fb90667017a1f95,TCR,2024-06-11_13h13.48.996,LearnStrategy,2023.2.3,Win32,142.8571429,3,1,12,-0.016666667,0.005555556,1,0,0,1.3748,rock_grid_rect_2,4,03,-1,-1,1.375,0.405555556,-0.231481481,1,0,0,2.7481,Gabbro_rect,4,2.748,1,11,0,11,0,1,,,,,,,,,,,,,
6657d2d03fb90667017a1f95,TCR,2024-06-11_13h13.48.996,LearnStrategy,2023.2.3,Win32,142.8571429,3,1,13,0.024074074,-0.011111111,1,0,0,1.2608,rock_grid_rect_2,4,10,-1,-1,1.261,0.398148148,-0.411111111,1,0,0,4.3166,Pumice_rect,8,4.317,0,12,0,12,0,1,,,,,,,,,,,,,
6657d2d03fb90667017a1f95,TCR,2024-06-11_13h13.48.996,LearnStrategy,2023.2.3,Win32,142.8571429,3,1,14,0.115740741,0.000925926,1,0,0,1.0595,rock_grid_rect_2,6,03,-1,-1,1.06,0.127777778,-0.407407407,1,0,0,2.0312,Peridotite_rect,7,2.031,0,13,0,13,0,1,,,,,,,,,,,,,
6657d2d03fb90667017a1f95,TCR,2024-06-11_13h13.48.996,LearnStrategy,2023.2.3,Win32,142.8571429,3,1,15,0.025925926,-0.001851852,1,0,0,1.4515,rock_grid_rect_2,6,10,-1,-1,1.452,-0.176851852,-0.416666667,1,0,0,2.5458,Pegmatite_rect,6,2.546,1,14,0,14,0,1,,,,,,,,,,,,,
6657d2d03fb90667017a1f95,TCR,2024-06-11_13h13.48.996,LearnStrategy,2023.2.3,Win32,142.8571429,3,1,16,-0.057407407,-0.010185185,1,0,0,1.4388,rock_grid_rect_2,1,10,-1,-1,1.439,0.392592593,-0.392592593,1,0,0,3.7135,Pumice_rect,8,3.713,0,15,0,15,0,1,,,,,,,,,,,,,
6657d2d03fb90667017a1f95,TCR,2024-06-11_13h13.48.996,LearnStrategy,2023.2.3,Win32,142.8571429,3,2,1,,,,,,,,3,06,,,,,,,,,,,3,8.622,1,,,,,,0.174074074,-0.24537037,1,0,0,8.6224,Diorite_rect,0,0,0,0,1,
6657d2d03fb90667017a1f95,TCR,2024-06-11_13h13.48.996,LearnStrategy,2023.2.3,Win32,142.8571429,3,2,2,,,,,,,,1,07,,,,,,,,,,,1,5.86,1,,,,,,-0.400925926,-0.240740741,1,0,0,5.8602,Andesite_rect,1,0,1,0,1,
6657d2d03fb90667017a1f95,TCR,2024-06-11_13h13.48.996,LearnStrategy,2023.2.3,Win32,142.8571429,3,2,3,,,,,,,,8,02,,,,,,,,,,,8,1.849,1,,,,,,0.418518519,-0.417592593,1,0,0,1.849,Pumice_rect,2,0,2,0,1,
6657d2d03fb90667017a1f95,TCR,2024-06-11_13h13.48.996,LearnStrategy,2023.2.3,Win32,142.8571429,3,2,4,,,,,,,,1,03,,,,,,,,,,,2,6.307,0,,,,,,-0.14537037,-0.238888889,1,0,0,6.3066,Basalt_rect,3,0,3,0,1,
6657d2d03fb90667017a1f95,TCR,2024-06-11_13h13.48.996,LearnStrategy,2023.2.3,Win32,142.8571429,3,2,5,,,,,,,,8,08,,,,,,,,,,,8,1.66,1,,,,,,0.375925926,-0.40462963,1,0,0,1.6601,Pumice_rect,4,0,4,0,1,
6657d2d03fb90667017a1f95,TCR,2024-06-11_13h13.48.996,LearnStrategy,2023.2.3,Win32,142.8571429,3,2,6,,,,,,,,5,11,,,,,,,,,,,5,2.28,1,,,,,,-0.413888889,-0.405555556,1,0,0,2.2802,Obsidian_rect,5,0,5,0,1,
6657d2d03fb90667017a1f95,TCR,2024-06-11_13h13.48.996,LearnStrategy,2023.2.3,Win32,142.8571429,3,2,7,,,,,,,,2,08,,,,,,,,,,,2,1.532,1,,,,,,-0.182407407,-0.251851852,1,0,0,1.5317,Basalt_rect,6,0,6,0,1,
6657d2d03fb90667017a1f95,TCR,2024-06-11_13h13.48.996,LearnStrategy,2023.2.3,Win32,142.8571429,3,2,8,,,,,,,,6,09,,,,,,,,,,,6,2.828,1,,,,,,-0.162037037,-0.398148148,1,0,0,2.828,Pegmatite_rect,7,0,7,0,1,
6657d2d03fb90667017a1f95,TCR,2024-06-11_13h13.48.996,LearnStrategy,2023.2.3,Win32,142.8571429,3,2,9,,,,,,,,6,11,,,,,,,,,,,6,3.567,1,,,,,,-0.162037037,-0.398148148,1,0,0,3.5667,Pegmatite_rect,8,0,8,0,1,
6657d2d03fb90667017a1f95,TCR,2024-06-11_13h13.48.996,LearnStrategy,2023.2.3,Win32,142.8571429,3,2,10,,,,,,,,7,15,,,,,,,,,,,7,2.869,1,,,,,,0.091666667,-0.396296296,1,0,0,2.8691,Peridotite_rect,9,0,9,0,1,
6657d2d03fb90667017a1f95,TCR,2024-06-11_13h13.48.996,LearnStrategy,2023.2.3,Win32,142.8571429,3,2,11,,,,,,,,3,02,,,,,,,,,,,3,16.361,1,,,,,,0.128703704,-0.247222222,1,0,0,16.361,Diorite_rect,10,0,10,0,1,
6657d2d03fb90667017a1f95,TCR,2024-06-11_13h13.48.996,LearnStrategy,2023.2.3,Win32,142.8571429,3,2,12,,,,,,,,2,16,,,,,,,,,,,2,4.866,1,,,,,,-0.112037037,-0.244444444,1,0,0,4.8657,Basalt_rect,11,0,11,0,1,
6657d2d03fb90667017a1f95,TCR,2024-06-11_13h13.48.996,LearnStrategy,2023.2.3,Win32,142.8571429,3,2,13,,,,,,,,4,05,,,,,,,,,,,6,4.821,0,,,,,,-0.137037037,-0.40462963,1,0,0,4.8207,Pegmatite_rect,12,0,12,0,1,
6657d2d03fb90667017a1f95,TCR,2024-06-11_13h13.48.996,LearnStrategy,2023.2.3,Win32,142.8571429,3,2,14,,,,,,,,7,04,,,,,,,,,,,6,3.494,0,,,,,,-0.137037037,-0.40462963,1,0,0,3.4937,Pegmatite_rect,13,0,13,0,1,
6657d2d03fb90667017a1f95,TCR,2024-06-11_13h13.48.996,LearnStrategy,2023.2.3,Win32,142.8571429,3,2,15,,,,,,,,5,12,,,,,,,,,,,5,1.462,1,,,,,,-0.333333333,-0.393518519,1,0,0,1.4621,Obsidian_rect,14,0,14,0,1,
6657d2d03fb90667017a1f95,TCR,2024-06-11_13h13.48.996,LearnStrategy,2023.2.3,Win32,142.8571429,3,2,16,,,,,,,,4,15,,,,,,,,,,,4,4.018,1,,,,,,0.399074074,-0.247222222,1,0,0,4.0179,Gabbro_rect,15,0,15,0,1,
6657d2d03fb90667017a1f95,TCR,2024-06-11_13h13.48.996,LearnStrategy,2023.2.3,Win32,142.8571429,4,1,1,0.053703704,-0.005555556,1,0,0,2.1825,rock_grid_rect_2,2,01,-1,-1,2.183,-0.15462963,-0.241666667,1,0,0,1.8219,Basalt_rect,2,1.822,1,0,0,0,0,1,,,,,,,,,,,,,
6657d2d03fb90667017a1f95,TCR,2024-06-11_13h13.48.996,LearnStrategy,2023.2.3,Win32,142.8571429,4,1,2,-0.044444444,-0.006481481,1,0,0,1.4927,rock_grid_rect_2,1,14,-1,-1,1.493,-0.363888889,-0.236111111,1,0,0,4.9759,Andesite_rect,1,4.976,1,1,0,1,0,1,,,,,,,,,,,,,
6657d2d03fb90667017a1f95,TCR,2024-06-11_13h13.48.996,LearnStrategy,2023.2.3,Win32,142.8571429,4,1,3,-0.075,-0.001851852,1,0,0,1.2586,rock_grid_rect_2,7,16,-1,-1,1.259,0.102777778,-0.40462963,1,0,0,3.6193,Peridotite_rect,7,3.619,1,2,0,2,0,1,,,,,,,,,,,,,
6657d2d03fb90667017a1f95,TCR,2024-06-11_13h13.48.996,LearnStrategy,2023.2.3,Win32,142.8571429,4,1,4,-0.040740741,-0.000925926,1,0,0,1.1423,rock_grid_rect_2,4,14,-1,-1,1.142,0.35462963,-0.261111111,1,0,0,3.0221,Gabbro_rect,4,3.022,1,3,0,3,0,1,,,,,,,,,,,,,
6657d2d03fb90667017a1f95,TCR,2024-06-11_13h13.48.996,LearnStrategy,2023.2.3,Win32,142.8571429,4,1,5,0.009259259,0.011111111,1,0,0,1.1237,rock_grid_rect_2,3,13,-1,-1,1.124,0.136111111,-0.250925926,1,0,0,2.244,Diorite_rect,3,2.244,1,4,0,4,0,1,,,,,,,,,,,,,
6657d2d03fb90667017a1f95,TCR,2024-06-11_13h13.48.996,LearnStrategy,2023.2.3,Win32,142.8571429,4,1,6,0.043518519,-0.003703704,1,0,0,1.2775,rock_grid_rect_2,6,07,-1,-1,1.278,-0.10462963,-0.406481481,1,0,0,3.2293,Pegmatite_rect,6,3.229,1,5,0,5,0,1,,,,,,,,,,,,,
6657d2d03fb90667017a1f95,TCR,2024-06-11_13h13.48.996,LearnStrategy,2023.2.3,Win32,142.8571429,4,1,7,-0.015740741,-0.005555556,1,0,0,1.4062,rock_grid_rect_2,1,11,-1,-1,1.406,-0.394444444,-0.249074074,1,0,0,2.031,Andesite_rect,1,2.031,1,6,0,6,0,1,,,,,,,,,,,,,
6657d2d03fb90667017a1f95,TCR,2024-06-11_13h13.48.996,LearnStrategy,2023.2.3,Win32,142.8571429,4,1,8,-0.058333333,0.00462963,1,0,0,1.3072,rock_grid_rect_2,1,10,-1,-1,1.307,0.437962963,-0.412962963,1,0,0,12.0815,Pumice_rect,8,12.082,0,7,0,7,0,1,,,,,,,,,,,,,
6657d2d03fb90667017a1f95,TCR,2024-06-11_13h13.48.996,LearnStrategy,2023.2.3,Win32,142.8571429,4,1,9,0.105555556,-0.009259259,1,0,0,1.2282,rock_grid_rect_2,3,13,-1,-1,1.228,0.338888889,-0.228703704,1,0,0,4.4327,Gabbro_rect,4,4.433,0,8,0,8,0,1,,,,,,,,,,,,,
6657d2d03fb90667017a1f95,TCR,2024-06-11_13h13.48.996,LearnStrategy,2023.2.3,Win32,142.8571429,4,1,10,0.041666667,-0.015740741,1,0,0,1.2767,rock_grid_rect_2,4,11,-1,-1,1.277,-0.360185185,-0.247222222,1,0,0,7.9501,Andesite_rect,1,7.95,0,9,0,9,0,1,,,,,,,,,,,,,
6657d2d03fb90667017a1f95,TCR,2024-06-11_13h13.48.996,LearnStrategy,2023.2.3,Win32,142.8571429,4,1,11,0.027777778,-0.010185185,1,0,0,1.0664,rock_grid_rect_2,6,10,-1,-1,1.066,-0.144444444,-0.403703704,1,0,0,1.7337,Pegmatite_rect,6,1.734,1,10,0,10,0,1,,,,,,,,,,,,,
6657d2d03fb90667017a1f95,TCR,2024-06-11_13h13.48.996,LearnStrategy,2023.2.3,Win32,142.8571429,4,1,12,-0.046296296,-0.009259259,1,0,0,1.3115,rock_grid_rect_2,4,16,-1,-1,1.312,0.350925926,-0.232407407,1,0,0,3.5996,Gabbro_rect,4,3.6,1,11,0,11,0,1,,,,,,,,,,,,,
6657d2d03fb90667017a1f95,TCR,2024-06-11_13h13.48.996,LearnStrategy,2023.2.3,Win32,142.8571429,4,1,13,-0.017592593,-0.006481481,1,0,0,1.1983,rock_grid_rect_2,7,07,-1,-1,1.198,0.10462963,-0.246296296,1,0,0,3.7384,Diorite_rect,3,3.738,0,12,0,12,0,1,,,,,,,,,,,,,
6657d2d03fb90667017a1f95,TCR,2024-06-11_13h13.48.996,LearnStrategy,2023.2.3,Win32,142.8571429,4,1,14,-0.006481481,0,1,0,0,1.0887,rock_grid_rect_2,7,12,-1,-1,1.089,0.113888889,-0.416666667,1,0,0,4.7039,Peridotite_rect,7,4.704,1,13,0,13,0,1,,,,,,,,,,,,,
6657d2d03fb90667017a1f95,TCR,2024-06-11_13h13.48.996,LearnStrategy,2023.2.3,Win32,142.8571429,4,1,15,0.038888889,-0.012037037,1,0,0,1.314,rock_grid_rect_2,6,07,-1,-1,1.314,-0.099074074,-0.399074074,1,0,0,2.9225,Pegmatite_rect,6,2.922,1,14,0,14,0,1,,,,,,,,,,,,,
6657d2d03fb90667017a1f95,TCR,2024-06-11_13h13.48.996,LearnStrategy,2023.2.3,Win32,142.8571429,4,1,16,0.015740741,-0.008333333,1,0,0,1.159,rock_grid_rect_2,1,01,-1,-1,1.159,0.337962963,-0.246296296,1,0,0,5.0087,Gabbro_rect,4,5.009,0,15,0,15,0,1,,,,,,,,,,,,,
6657d2d03fb90667017a1f95,TCR,2024-06-11_13h13.48.996,LearnStrategy,2023.2.3,Win32,142.8571429,4,2,1,,,,,,,,3,06,,,,,,,,,,,3,5.703,1,,,,,,0.132407407,-0.25462963,1,0,0,5.7026,Diorite_rect,0,0,0,0,1,
6657d2d03fb90667017a1f95,TCR,2024-06-11_13h13.48.996,LearnStrategy,2023.2.3,Win32,142.8571429,4,2,2,,,,,,,,2,02,,,,,,,,,,,2,2.487,1,,,,,,-0.099074074,-0.259259259,1,0,0,2.4867,Basalt_rect,1,0,1,0,1,
6657d2d03fb90667017a1f95,TCR,2024-06-11_13h13.48.996,LearnStrategy,2023.2.3,Win32,142.8571429,4,2,3,,,,,,,,5,16,,,,,,,,,,,5,1.481,1,,,,,,-0.3,-0.415740741,1,0,0,1.4814,Obsidian_rect,2,0,2,0,1,
6657d2d03fb90667017a1f95,TCR,2024-06-11_13h13.48.996,LearnStrategy,2023.2.3,Win32,142.8571429,4,2,4,,,,,,,,4,01,,,,,,,,,,,1,4.386,0,,,,,,-0.368518519,-0.25462963,1,0,0,4.3857,Andesite_rect,3,0,3,0,1,
6657d2d03fb90667017a1f95,TCR,2024-06-11_13h13.48.996,LearnStrategy,2023.2.3,Win32,142.8571429,4,2,5,,,,,,,,8,03,,,,,,,,,,,8,1.551,1,,,,,,0.359259259,-0.401851852,1,0,0,1.5512,Pumice_rect,4,0,4,0,1,
6657d2d03fb90667017a1f95,TCR,2024-06-11_13h13.48.996,LearnStrategy,2023.2.3,Win32,142.8571429,4,2,6,,,,,,,,2,04,,,,,,,,,,,2,1.638,1,,,,,,-0.088888889,-0.246296296,1,0,0,1.6379,Basalt_rect,5,0,5,0,1,
6657d2d03fb90667017a1f95,TCR,2024-06-11_13h13.48.996,LearnStrategy,2023.2.3,Win32,142.8571429,4,2,7,,,,,,,,3,11,,,,,,,,,,,3,4.13,1,,,,,,0.141666667,-0.246296296,1,0,0,4.1303,Diorite_rect,6,0,6,0,1,
6657d2d03fb90667017a1f95,TCR,2024-06-11_13h13.48.996,LearnStrategy,2023.2.3,Win32,142.8571429,4,2,8,,,,,,,,4,09,,,,,,,,,,,4,6.288,1,,,,,,0.341666667,-0.25,1,0,0,6.2877,Gabbro_rect,7,0,7,0,1,
6657d2d03fb90667017a1f95,TCR,2024-06-11_13h13.48.996,LearnStrategy,2023.2.3,Win32,142.8571429,4,2,9,,,,,,,,1,02,,,,,,,,,,,6,2.962,0,,,,,,-0.119444444,-0.405555556,1,0,0,2.9616,Pegmatite_rect,8,0,8,0,1,
6657d2d03fb90667017a1f95,TCR,2024-06-11_13h13.48.996,LearnStrategy,2023.2.3,Win32,142.8571429,4,2,10,,,,,,,,1,04,,,,,,,,,,,1,6.274,1,,,,,,-0.371296296,-0.259259259,1,0,0,6.2745,Andesite_rect,9,0,9,0,1,
6657d2d03fb90667017a1f95,TCR,2024-06-11_13h13.48.996,LearnStrategy,2023.2.3,Win32,142.8571429,4,2,11,,,,,,,,6,16,,,,,,,,,,,6,1.601,1,,,,,,-0.158333333,-0.406481481,1,0,0,1.6015,Pegmatite_rect,10,0,10,0,1,
6657d2d03fb90667017a1f95,TCR,2024-06-11_13h13.48.996,LearnStrategy,2023.2.3,Win32,142.8571429,4,2,12,,,,,,,,8,06,,,,,,,,,,,8,1.555,1,,,,,,0.310185185,-0.392592593,1,0,0,1.5547,Pumice_rect,11,0,11,0,1,
6657d2d03fb90667017a1f95,TCR,2024-06-11_13h13.48.996,LearnStrategy,2023.2.3,Win32,142.8571429,4,2,13,,,,,,,,7,02,,,,,,,,,,,7,1.65,1,,,,,,0.136111111,-0.40462963,1,0,0,1.6496,Peridotite_rect,12,0,12,0,1,
6657d2d03fb90667017a1f95,TCR,2024-06-11_13h13.48.996,LearnStrategy,2023.2.3,Win32,142.8571429,4,2,14,,,,,,,,6,08,,,,,,,,,,,6,1.651,1,,,,,,-0.116666667,-0.408333333,1,0,0,1.6514,Pegmatite_rect,13,0,13,0,1,
6657d2d03fb90667017a1f95,TCR,2024-06-11_13h13.48.996,LearnStrategy,2023.2.3,Win32,142.8571429,4,2,15,,,,,,,,7,14,,,,,,,,,,,1,9.803,0,,,,,,-0.351851852,-0.251851852,1,0,0,9.8032,Andesite_rect,14,0,14,0,1,
6657d2d03fb90667017a1f95,TCR,2024-06-11_13h13.48.996,LearnStrategy,2023.2.3,Win32,142.8571429,4,2,16,,,,,,,,5,09,,,,,,,,,,,5,1.271,1,,,,,,-0.386111111,-0.392592593,1,0,0,1.2708,Obsidian_rect,15,0,15,0,1,
6657d2d03fb90667017a1f95,TCR,2024-06-11_13h13.48.996,LearnStrategy,2023.2.3,Win32,142.8571429,5,1,1,0.092592593,-0.009259259,1,0,0,1.8839,rock_grid_rect_2,2,14,-1,-1,1.884,0.356481481,-0.251851852,1,0,0,3.5045,Gabbro_rect,4,3.505,0,0,0,0,0,1,,,,,,,,,,,,,
6657d2d03fb90667017a1f95,TCR,2024-06-11_13h13.48.996,LearnStrategy,2023.2.3,Win32,142.8571429,5,1,2,0.009259259,-0.002777778,1,0,0,1.6778,rock_grid_rect_2,3,07,-1,-1,1.678,-0.369444444,-0.233333333,1,0,0,3.8772,Andesite_rect,1,3.877,0,1,0,1,0,1,,,,,,,,,,,,,
6657d2d03fb90667017a1f95,TCR,2024-06-11_13h13.48.996,LearnStrategy,2023.2.3,Win32,142.8571429,5,1,3,0.006481481,0,1,0,0,1.2633,rock_grid_rect_2,8,09,-1,-1,1.263,0.362962963,-0.396296296,1,0,0,1.4502,Pumice_rect,8,1.45,1,2,0,2,0,1,,,,,,,,,,,,,
6657d2d03fb90667017a1f95,TCR,2024-06-11_13h13.48.996,LearnStrategy,2023.2.3,Win32,142.8571429,5,1,4,0.037037037,-0.00462963,1,0,0,1.494,rock_grid_rect_2,1,09,-1,-1,1.494,0.35,-0.250925926,1,0,0,2.7632,Gabbro_rect,4,2.763,0,3,0,3,0,1,,,,,,,,,,,,,
6657d2d03fb90667017a1f95,TCR,2024-06-11_13h13.48.996,LearnStrategy,2023.2.3,Win32,142.8571429,5,1,5,-0.011111111,-0.010185185,1,0,0,1.0381,rock_grid_rect_2,7,12,-1,-1,1.038,0.084259259,-0.386111111,1,0,0,2.7998,Peridotite_rect,7,2.8,1,4,0,4,0,1,,,,,,,,,,,,,
6657d2d03fb90667017a1f95,TCR,2024-06-11_13h13.48.996,LearnStrategy,2023.2.3,Win32,142.8571429,5,1,6,0.034259259,0.000925926,1,0,0,1.7965,rock_grid_rect_2,3,09,-1,-1,1.796,0.10462963,-0.249074074,1,0,0,2.3897,Diorite_rect,3,2.39,1,5,0,5,0,1,,,,,,,,,,,,,
6657d2d03fb90667017a1f95,TCR,2024-06-11_13h13.48.996,LearnStrategy,2023.2.3,Win32,142.8571429,5,1,7,0.034259259,-0.012037037,1,0,0,1.1363,rock_grid_rect_2,7,08,-1,-1,1.136,0.077777778,-0.394444444,1,0,0,2.144,Peridotite_rect,7,2.144,1,6,0,6,0,1,,,,,,,,,,,,,
6657d2d03fb90667017a1f95,TCR,2024-06-11_13h13.48.996,LearnStrategy,2023.2.3,Win32,142.8571429,5,1,8,0,0.001851852,1,0,0,1.249,rock_grid_rect_2,1,10,-1,-1,1.249,-0.381481481,-0.259259259,1,0,0,3.7146,Andesite_rect,1,3.715,1,7,0,7,0,1,,,,,,,,,,,,,
6657d2d03fb90667017a1f95,TCR,2024-06-11_13h13.48.996,LearnStrategy,2023.2.3,Win32,142.8571429,5,1,9,0.002777778,0,1,0,0,1.1667,rock_grid_rect_2,4,08,-1,-1,1.167,0.326851852,-0.244444444,1,0,0,8.9883,Gabbro_rect,4,8.988,1,8,0,8,0,1,,,,,,,,,,,,,
6657d2d03fb90667017a1f95,TCR,2024-06-11_13h13.48.996,LearnStrategy,2023.2.3,Win32,142.8571429,5,1,10,0.026851852,0.012962963,1,0,0,1.0996,rock_grid_rect_2,1,01,-1,-1,1.1,0.106481481,-0.238888889,1,0,0,2.4752,Diorite_rect,3,2.475,0,9,0,9,0,1,,,,,,,,,,,,,
6657d2d03fb90667017a1f95,TCR,2024-06-11_13h13.48.996,LearnStrategy,2023.2.3,Win32,142.8571429,5,1,11,-0.005555556,-0.015740741,1,0,0,1.2267,rock_grid_rect_2,6,07,-1,-1,1.227,-0.113888889,-0.397222222,1,0,0,1.6437,Pegmatite_rect,6,1.644,1,10,0,10,0,1,,,,,,,,,,,,,
6657d2d03fb90667017a1f95,TCR,2024-06-11_13h13.48.996,LearnStrategy,2023.2.3,Win32,142.8571429,5,1,12,-0.034259259,-0.015740741,1,0,0,1.2905,rock_grid_rect_2,6,10,-1,-1,1.291,-0.131481481,-0.408333333,1,0,0,1.5112,Pegmatite_rect,6,1.511,1,11,0,11,0,1,,,,,,,,,,,,,
6657d2d03fb90667017a1f95,TCR,2024-06-11_13h13.48.996,LearnStrategy,2023.2.3,Win32,142.8571429,5,1,13,-0.049074074,-0.011111111,1,0,0,0.998,rock_grid_rect_2,4,08,-1,-1,0.998,0.326851852,-0.234259259,1,0,0,5.1207,Gabbro_rect,4,5.121,1,12,0,12,0,1,,,,,,,,,,,,,
6657d2d03fb90667017a1f95,TCR,2024-06-11_13h13.48.996,LearnStrategy,2023.2.3,Win32,142.8571429,5,1,14,0.006481481,-0.010185185,1,0,0,1.0757,rock_grid_rect_2,5,06,-1,-1,1.076,-0.417592593,-0.421296296,1,0,0,2.2857,Obsidian_rect,5,2.286,1,13,0,13,0,1,,,,,,,,,,,,,
6657d2d03fb90667017a1f95,TCR,2024-06-11_13h13.48.996,LearnStrategy,2023.2.3,Win32,142.8571429,5,1,15,0.025,-0.010185185,1,0,0,1.2206,rock_grid_rect_2,4,16,-1,-1,1.221,0.375,-0.247222222,1,0,0,4.8917,Gabbro_rect,4,4.892,1,14,0,14,0,1,,,,,,,,,,,,,
6657d2d03fb90667017a1f95,TCR,2024-06-11_13h13.48.996,LearnStrategy,2023.2.3,Win32,142.8571429,5,1,16,-0.026851852,-0.001851852,1,0,0,1.0812,rock_grid_rect_2,7,13,-1,-1,1.081,0.085185185,-0.396296296,1,0,0,2.9716,Peridotite_rect,7,2.972,1,15,0,15,0,1,,,,,,,,,,,,,
6657d2d03fb90667017a1f95,TCR,2024-06-11_13h13.48.996,LearnStrategy,2023.2.3,Win32,142.8571429,5,2,1,,,,,,,,7,15,,,,,,,,,,,7,2.35,1,,,,,,0.125,-0.402777778,1,0,0,2.3502,Peridotite_rect,0,0,0,0,1,
6657d2d03fb90667017a1f95,TCR,2024-06-11_13h13.48.996,LearnStrategy,2023.2.3,Win32,142.8571429,5,2,2,,,,,,,,7,04,,,,,,,,,,,7,7.224,1,,,,,,0.062037037,-0.42037037,1,0,0,7.2245,Peridotite_rect,1,0,1,0,1,
6657d2d03fb90667017a1f95,TCR,2024-06-11_13h13.48.996,LearnStrategy,2023.2.3,Win32,142.8571429,5,2,3,,,,,,,,4,15,,,,,,,,,,,3,3.904,0,,,,,,0.092592593,-0.233333333,1,0,0,3.9035,Diorite_rect,2,0,2,0,1,
6657d2d03fb90667017a1f95,TCR,2024-06-11_13h13.48.996,LearnStrategy,2023.2.3,Win32,142.8571429,5,2,4,,,,,,,,6,06,,,,,,,,,,,6,2.145,1,,,,,,-0.122222222,-0.381481481,1,0,0,2.1453,Pegmatite_rect,3,0,3,0,1,
6657d2d03fb90667017a1f95,TCR,2024-06-11_13h13.48.996,LearnStrategy,2023.2.3,Win32,142.8571429,5,2,5,,,,,,,,6,09,,,,,,,,,,,6,1.174,1,,,,,,-0.122222222,-0.381481481,1,0,0,1.1739,Pegmatite_rect,4,0,4,0,1,
6657d2d03fb90667017a1f95,TCR,2024-06-11_13h13.48.996,LearnStrategy,2023.2.3,Win32,142.8571429,5,2,6,,,,,,,,3,14,,,,,,,,,,,3,5.38,1,,,,,,0.063888889,-0.260185185,1,0,0,5.3795,Diorite_rect,5,0,5,0,1,
6657d2d03fb90667017a1f95,TCR,2024-06-11_13h13.48.996,LearnStrategy,2023.2.3,Win32,142.8571429,5,2,7,,,,,,,,1,16,,,,,,,,,,,4,3.14,0,,,,,,0.316666667,-0.248148148,1,0,0,3.1402,Gabbro_rect,6,0,6,0,1,
6657d2d03fb90667017a1f95,TCR,2024-06-11_13h13.48.996,LearnStrategy,2023.2.3,Win32,142.8571429,5,2,8,,,,,,,,2,08,,,,,,,,,,,2,1.754,1,,,,,,-0.092592593,-0.261111111,1,0,0,1.7539,Basalt_rect,7,0,7,0,1,
6657d2d03fb90667017a1f95,TCR,2024-06-11_13h13.48.996,LearnStrategy,2023.2.3,Win32,142.8571429,5,2,9,,,,,,,,8,02,,,,,,,,,,,8,1.554,1,,,,,,0.316666667,-0.389814815,1,0,0,1.5538,Pumice_rect,8,0,8,0,1,
6657d2d03fb90667017a1f95,TCR,2024-06-11_13h13.48.996,LearnStrategy,2023.2.3,Win32,142.8571429,5,2,10,,,,,,,,8,15,,,,,,,,,,,8,2.535,1,,,,,,0.359259259,-0.39537037,1,0,0,2.5346,Pumice_rect,9,0,9,0,1,
6657d2d03fb90667017a1f95,TCR,2024-06-11_13h13.48.996,LearnStrategy,2023.2.3,Win32,142.8571429,5,2,11,,,,,,,,3,08,,,,,,,,,,,3,5.684,1,,,,,,0.173148148,-0.233333333,1,0,0,5.6837,Diorite_rect,10,0,10,0,1,
6657d2d03fb90667017a1f95,TCR,2024-06-11_13h13.48.996,LearnStrategy,2023.2.3,Win32,142.8571429,5,2,12,,,,,,,,5,04,,,,,,,,,,,5,1.424,1,,,,,,-0.357407407,-0.394444444,1,0,0,1.4235,Obsidian_rect,11,0,11,0,1,
6657d2d03fb90667017a1f95,TCR,2024-06-11_13h13.48.996,LearnStrategy,2023.2.3,Win32,142.8571429,5,2,13,,,,,,,,5,11,,,,,,,,,,,5,0.997,1,,,,,,-0.357407407,-0.394444444,1,0,0,0.9967,Obsidian_rect,12,0,12,0,1,
6657d2d03fb90667017a1f95,TCR,2024-06-11_13h13.48.996,LearnStrategy,2023.2.3,Win32,142.8571429,5,2,14,,,,,,,,2,16,,,,,,,,,,,2,4.126,1,,,,,,-0.164814815,-0.265740741,1,0,0,4.1264,Basalt_rect,13,0,13,0,1,
6657d2d03fb90667017a1f95,TCR,2024-06-11_13h13.48.996,LearnStrategy,2023.2.3,Win32,142.8571429,5,2,15,,,,,,,,4,05,,,,,,,,,,,7,6.638,0,,,,,,0.059259259,-0.403703704,1,0,0,6.6382,Peridotite_rect,14,0,14,0,1,
6657d2d03fb90667017a1f95,TCR,2024-06-11_13h13.48.996,LearnStrategy,2023.2.3,Win32,142.8571429,5,2,16,,,,,,,,1,06,,,,,,,,,,,3,2.546,0,,,,,,0.081481481,-0.257407407,1,0,0,2.5464,Diorite_rect,15,0,15,0,1,
6657d2d03fb90667017a1f95,TCR,2024-06-11_13h13.48.996,LearnStrategy,2023.2.3,Win32,142.8571429,6,1,1,0.050925926,-0.005555556,1,0,0,1.949,rock_grid_rect_2,4,11,-1,-1,1.949,0.365740741,-0.258333333,1,0,0,4.4516,Gabbro_rect,4,4.452,1,0,0,0,0,1,,,,,,,,,,,,,
6657d2d03fb90667017a1f95,TCR,2024-06-11_13h13.48.996,LearnStrategy,2023.2.3,Win32,142.8571429,6,1,2,0.05,-0.001851852,1,0,0,1.2967,rock_grid_rect_2,1,14,-1,-1,1.297,-0.111111111,-0.386111111,1,0,0,1.9418,Pegmatite_rect,6,1.942,0,1,0,1,0,1,,,,,,,,,,,,,
6657d2d03fb90667017a1f95,TCR,2024-06-11_13h13.48.996,LearnStrategy,2023.2.3,Win32,142.8571429,6,1,3,-0.032407407,-0.006481481,1,0,0,1.2143,rock_grid_rect_2,3,09,-1,-1,1.214,0.117592593,-0.238888889,1,0,0,2.0951,Diorite_rect,3,2.095,1,2,0,2,0,1,,,,,,,,,,,,,
6657d2d03fb90667017a1f95,TCR,2024-06-11_13h13.48.996,LearnStrategy,2023.2.3,Win32,142.8571429,6,1,4,-0.001851852,-0.003703704,1,0,0,1.3572,rock_grid_rect_2,4,03,-1,-1,1.357,0.333333333,-0.263888889,1,0,0,3.1262,Gabbro_rect,4,3.126,1,3,0,3,0,1,,,,,,,,,,,,,
6657d2d03fb90667017a1f95,TCR,2024-06-11_13h13.48.996,LearnStrategy,2023.2.3,Win32,142.8571429,6,1,5,0.022222222,-0.002777778,1,0,0,1.2595,rock_grid_rect_2,8,05,-1,-1,1.26,0.360185185,-0.402777778,1,0,0,1.5343,Pumice_rect,8,1.534,1,4,0,4,0,1,,,,,,,,,,,,,
6657d2d03fb90667017a1f95,TCR,2024-06-11_13h13.48.996,LearnStrategy,2023.2.3,Win32,142.8571429,6,1,6,0.019444444,-0.003703704,1,0,0,1.1428,rock_grid_rect_2,7,08,-1,-1,1.143,0.10462963,-0.39537037,1,0,0,2.0041,Peridotite_rect,7,2.004,1,5,0,5,0,1,,,,,,,,,,,,,
6657d2d03fb90667017a1f95,TCR,2024-06-11_13h13.48.996,LearnStrategy,2023.2.3,Win32,142.8571429,6,1,7,0.033333333,-0.003703704,1,0,0,1.0291,rock_grid_rect_2,1,10,-1,-1,1.029,0.322222222,-0.264814815,1,0,0,4.0158,Gabbro_rect,4,4.016,0,6,0,6,0,1,,,,,,,,,,,,,
6657d2d03fb90667017a1f95,TCR,2024-06-11_13h13.48.996,LearnStrategy,2023.2.3,Win32,142.8571429,6,1,8,0.016666667,0.015740741,1,0,0,1.054,rock_grid_rect_2,1,05,-1,-1,1.054,0.119444444,-0.247222222,1,0,0,2.2914,Diorite_rect,3,2.291,0,7,0,7,0,1,,,,,,,,,,,,,
6657d2d03fb90667017a1f95,TCR,2024-06-11_13h13.48.996,LearnStrategy,2023.2.3,Win32,142.8571429,6,1,9,0.009259259,-0.010185185,1,0,0,1.1078,rock_grid_rect_2,2,05,-1,-1,1.108,-0.137037037,-0.241666667,1,0,0,1.8378,Basalt_rect,2,1.838,1,8,0,8,0,1,,,,,,,,,,,,,
6657d2d03fb90667017a1f95,TCR,2024-06-11_13h13.48.996,LearnStrategy,2023.2.3,Win32,142.8571429,6,1,10,-0.030555556,0.000925926,1,0,0,1.0919,rock_grid_rect_2,4,10,-1,-1,1.092,0.378703704,-0.255555556,1,0,0,2.9442,Gabbro_rect,4,2.944,1,9,0,9,0,1,,,,,,,,,,,,,
6657d2d03fb90667017a1f95,TCR,2024-06-11_13h13.48.996,LearnStrategy,2023.2.3,Win32,142.8571429,6,1,11,0,-0.008333333,1,0,0,0.9854,rock_grid_rect_2,6,15,-1,-1,0.985,-0.162962963,-0.411111111,1,0,0,1.3872,Pegmatite_rect,6,1.387,1,10,0,10,0,1,,,,,,,,,,,,,
6657d2d03fb90667017a1f95,TCR,2024-06-11_13h13.48.996,LearnStrategy,2023.2.3,Win32,142.8571429,6,1,12,-0.025925926,-0.011111111,1,0,0,1.0963,rock_grid_rect_2,6,12,-1,-1,1.096,-0.139814815,-0.415740741,1,0,0,2.3008,Pegmatite_rect,6,2.301,1,11,0,11,0,1,,,,,,,,,,,,,
6657d2d03fb90667017a1f95,TCR,2024-06-11_13h13.48.996,LearnStrategy,2023.2.3,Win32,142.8571429,6,1,13,-0.028703704,0.000925926,1,0,0,0.9426,rock_grid_rect_2,4,10,-1,-1,0.943,0.364814815,-0.253703704,1,0,0,3.3495,Gabbro_rect,4,3.349,1,12,0,12,0,1,,,,,,,,,,,,,
6657d2d03fb90667017a1f95,TCR,2024-06-11_13h13.48.996,LearnStrategy,2023.2.3,Win32,142.8571429,6,1,14,-0.021296296,0,1,0,0,1.1242,rock_grid_rect_2,5,08,-1,-1,1.124,-0.387037037,-0.394444444,1,0,0,1.6009,Obsidian_rect,5,1.601,1,13,0,13,0,1,,,,,,,,,,,,,
6657d2d03fb90667017a1f95,TCR,2024-06-11_13h13.48.996,LearnStrategy,2023.2.3,Win32,142.8571429,6,1,15,0.011111111,0.001851852,1,0,0,1.7619,rock_grid_rect_2,7,16,-1,-1,1.762,0.101851852,-0.405555556,1,0,0,1.7121,Peridotite_rect,7,1.712,1,14,0,14,0,1,,,,,,,,,,,,,
6657d2d03fb90667017a1f95,TCR,2024-06-11_13h13.48.996,LearnStrategy,2023.2.3,Win32,142.8571429,6,1,16,-0.000925926,-0.010185185,1,0,0,1.0693,rock_grid_rect_2,1,05,-1,-1,1.069,-0.37037037,-0.246296296,1,0,0,3.7857,Andesite_rect,1,3.786,1,15,0,15,0,1,,,,,,,,,,,,,
6657d2d03fb90667017a1f95,TCR,2024-06-11_13h13.48.996,LearnStrategy,2023.2.3,Win32,142.8571429,6,2,1,,,,,,,,2,12,,,,,,,,,,,8,4.043,0,,,,,,0.362037037,-0.409259259,1,0,0,4.0426,Pumice_rect,0,0,0,0,1,
6657d2d03fb90667017a1f95,TCR,2024-06-11_13h13.48.996,LearnStrategy,2023.2.3,Win32,142.8571429,6,2,2,,,,,,,,5,12,,,,,,,,,,,5,1.483,1,,,,,,-0.32037037,-0.396296296,1,0,0,1.4827,Obsidian_rect,1,0,1,0,1,
6657d2d03fb90667017a1f95,TCR,2024-06-11_13h13.48.996,LearnStrategy,2023.2.3,Win32,142.8571429,6,2,3,,,,,,,,1,07,,,,,,,,,,,1,6.422,1,,,,,,-0.339814815,-0.249074074,1,0,0,6.4218,Andesite_rect,2,0,2,0,1,
6657d2d03fb90667017a1f95,TCR,2024-06-11_13h13.48.996,LearnStrategy,2023.2.3,Win32,142.8571429,6,2,4,,,,,,,,7,05,,,,,,,,,,,7,2.8,1,,,,,,0.116666667,-0.392592593,1,0,0,2.7998,Peridotite_rect,3,0,3,0,1,
6657d2d03fb90667017a1f95,TCR,2024-06-11_13h13.48.996,LearnStrategy,2023.2.3,Win32,142.8571429,6,2,5,,,,,,,,2,06,,,,,,,,,,,2,1.515,1,,,,,,-0.133333333,-0.250925926,1,0,0,1.5149,Basalt_rect,4,0,4,0,1,
6657d2d03fb90667017a1f95,TCR,2024-06-11_13h13.48.996,LearnStrategy,2023.2.3,Win32,142.8571429,6,2,6,,,,,,,,1,03,,,,,,,,,,,1,2.932,1,,,,,,-0.336111111,-0.24537037,1,0,0,2.9318,Andesite_rect,5,0,5,0,1,
6657d2d03fb90667017a1f95,TCR,2024-06-11_13h13.48.996,LearnStrategy,2023.2.3,Win32,142.8571429,6,2,7,,,,,,,,6,11,,,,,,,,,,,6,1.508,1,,,,,,-0.180555556,-0.396296296,1,0,0,1.5083,Pegmatite_rect,6,0,6,0,1,
6657d2d03fb90667017a1f95,TCR,2024-06-11_13h13.48.996,LearnStrategy,2023.2.3,Win32,142.8571429,6,2,8,,,,,,,,8,08,,,,,,,,,,,8,1.783,1,,,,,,0.410185185,-0.387962963,1,0,0,1.7825,Pumice_rect,7,0,7,0,1,
6657d2d03fb90667017a1f95,TCR,2024-06-11_13h13.48.996,LearnStrategy,2023.2.3,Win32,142.8571429,6,2,9,,,,,,,,4,13,,,,,,,,,,,4,4.47,1,,,,,,0.316666667,-0.242592593,1,0,0,4.4705,Gabbro_rect,8,0,8,0,1,
6657d2d03fb90667017a1f95,TCR,2024-06-11_13h13.48.996,LearnStrategy,2023.2.3,Win32,142.8571429,6,2,10,,,,,,,,7,06,,,,,,,,,,,7,3.057,1,,,,,,0.075,-0.400925926,1,0,0,3.057,Peridotite_rect,9,0,9,0,1,
6657d2d03fb90667017a1f95,TCR,2024-06-11_13h13.48.996,LearnStrategy,2023.2.3,Win32,142.8571429,6,2,11,,,,,,,,5,07,,,,,,,,,,,5,1.418,1,,,,,,-0.347222222,-0.388888889,1,0,0,1.4177,Obsidian_rect,10,0,10,0,1,
6657d2d03fb90667017a1f95,TCR,2024-06-11_13h13.48.996,LearnStrategy,2023.2.3,Win32,142.8571429,6,2,12,,,,,,,,8,14,,,,,,,,,,,8,1.577,1,,,,,,0.380555556,-0.401851852,1,0,0,1.5767,Pumice_rect,11,0,11,0,1,
6657d2d03fb90667017a1f95,TCR,2024-06-11_13h13.48.996,LearnStrategy,2023.2.3,Win32,142.8571429,6,2,13,,,,,,,,6,05,,,,,,,,,,,6,2.377,1,,,,,,-0.085185185,-0.40462963,1,0,0,2.3774,Pegmatite_rect,12,0,12,0,1,
6657d2d03fb90667017a1f95,TCR,2024-06-11_13h13.48.996,LearnStrategy,2023.2.3,Win32,142.8571429,6,2,14,,,,,,,,3,10,,,,,,,,,,,1,4.297,0,,,,,,-0.339814815,-0.244444444,1,0,0,4.2971,Andesite_rect,13,0,13,0,1,
6657d2d03fb90667017a1f95,TCR,2024-06-11_13h13.48.996,LearnStrategy,2023.2.3,Win32,142.8571429,6,2,15,,,,,,,,4,12,,,,,,,,,,,4,2.68,1,,,,,,0.373148148,-0.250925926,1,0,0,2.6802,Gabbro_rect,14,0,14,0,1,
6657d2d03fb90667017a1f95,TCR,2024-06-11_13h13.48.996,LearnStrategy,2023.2.3,Win32,142.8571429,6,2,16,,,,,,,,3,02,,,,,,,,,,,3,2.899,1,,,,,,0.148148148,-0.24537037,1,0,0,2.8985,Diorite_rect,15,0,15,0,1,
6657d2d03fb90667017a1f95,TCR,2024-06-11_13h13.48.996,LearnStrategy,2023.2.3,Win32,142.8571429,7,1,1,0.017592593,0.010185185,1,0,0,1.907,rock_grid_rect_2,3,15,-1,-1,1.907,0.122222222,-0.237037037,1,0,0,6.2844,Diorite_rect,3,6.284,1,0,0,0,0,1,,,,,,,,,,,,,
6657d2d03fb90667017a1f95,TCR,2024-06-11_13h13.48.996,LearnStrategy,2023.2.3,Win32,142.8571429,7,1,2,-0.005555556,0.00462963,1,0,0,1.2602,rock_grid_rect_2,7,16,-1,-1,1.26,0.093518519,-0.388888889,1,0,0,2.8326,Peridotite_rect,7,2.833,1,1,0,1,0,1,,,,,,,,,,,,,
6657d2d03fb90667017a1f95,TCR,2024-06-11_13h13.48.996,LearnStrategy,2023.2.3,Win32,142.8571429,7,1,3,0.026851852,-0.012962963,1,0,0,1.2859,rock_grid_rect_2,4,03,-1,-1,1.286,0.121296296,-0.243518519,1,0,0,2.6347,Diorite_rect,3,2.635,0,2,0,2,0,1,,,,,,,,,,,,,
6657d2d03fb90667017a1f95,TCR,2024-06-11_13h13.48.996,LearnStrategy,2023.2.3,Win32,142.8571429,7,1,4,0.057407407,-0.008333333,1,0,0,1.3034,rock_grid_rect_2,1,14,-1,-1,1.303,-0.365740741,-0.259259259,1,0,0,3.5777,Andesite_rect,1,3.578,1,3,0,3,0,1,,,,,,,,,,,,,
6657d2d03fb90667017a1f95,TCR,2024-06-11_13h13.48.996,LearnStrategy,2023.2.3,Win32,142.8571429,7,1,5,0.022222222,-0.003703704,1,0,0,1.3244,rock_grid_rect_2,5,06,-1,-1,1.324,-0.398148148,-0.401851852,1,0,0,1.5639,Obsidian_rect,5,1.564,1,4,0,4,0,1,,,,,,,,,,,,,
6657d2d03fb90667017a1f95,TCR,2024-06-11_13h13.48.996,LearnStrategy,2023.2.3,Win32,142.8571429,7,1,6,0.015740741,-0.019444444,1,0,0,1.4656,rock_grid_rect_2,7,08,-1,-1,1.466,0.096296296,-0.386111111,1,0,0,1.8049,Peridotite_rect,7,1.805,1,5,0,5,0,1,,,,,,,,,,,,,
6657d2d03fb90667017a1f95,TCR,2024-06-11_13h13.48.996,LearnStrategy,2023.2.3,Win32,142.8571429,7,1,7,0.034259259,-0.008333333,1,0,0,1.2355,rock_grid_rect_2,6,07,-1,-1,1.236,-0.115740741,-0.399074074,1,0,0,1.5466,Pegmatite_rect,6,1.547,1,6,0,6,0,1,,,,,,,,,,,,,
6657d2d03fb90667017a1f95,TCR,2024-06-11_13h13.48.996,LearnStrategy,2023.2.3,Win32,142.8571429,7,1,8,0.039814815,0.003703704,1,0,0,1.162,rock_grid_rect_2,4,14,-1,-1,1.162,0.362962963,-0.25,1,0,0,2.1111,Gabbro_rect,4,2.111,1,7,0,7,0,1,,,,,,,,,,,,,
6657d2d03fb90667017a1f95,TCR,2024-06-11_13h13.48.996,LearnStrategy,2023.2.3,Win32,142.8571429,7,1,9,0.059259259,0.002777778,1,0,0,1.2429,rock_grid_rect_2,8,09,-1,-1,1.243,0.359259259,-0.396296296,1,0,0,1.65,Pumice_rect,8,1.65,1,8,0,8,0,1,,,,,,,,,,,,,
6657d2d03fb90667017a1f95,TCR,2024-06-11_13h13.48.996,LearnStrategy,2023.2.3,Win32,142.8571429,7,1,10,0.02037037,-0.007407407,1,0,0,1.082,rock_grid_rect_2,2,14,-1,-1,1.082,0.363888889,-0.242592593,1,0,0,2.9331,Gabbro_rect,4,2.933,0,9,0,9,0,1,,,,,,,,,,,,,
6657d2d03fb90667017a1f95,TCR,2024-06-11_13h13.48.996,LearnStrategy,2023.2.3,Win32,142.8571429,7,1,11,-0.008333333,-0.014814815,1,0,0,1.0822,rock_grid_rect_2,3,07,-1,-1,1.082,-0.369444444,-0.253703704,1,0,0,2.307,Andesite_rect,1,2.307,0,10,0,10,0,1,,,,,,,,,,,,,
6657d2d03fb90667017a1f95,TCR,2024-06-11_13h13.48.996,LearnStrategy,2023.2.3,Win32,142.8571429,7,1,12,-0.012037037,-0.007407407,1,0,0,1.1704,rock_grid_rect_2,4,10,-1,-1,1.17,0.366666667,-0.251851852,1,0,0,2.9951,Gabbro_rect,4,2.995,1,11,0,11,0,1,,,,,,,,,,,,,
6657d2d03fb90667017a1f95,TCR,2024-06-11_13h13.48.996,LearnStrategy,2023.2.3,Win32,142.8571429,7,1,13,0.017592593,-0.008333333,1,0,0,1.1129,rock_grid_rect_2,2,14,-1,-1,1.113,-0.102777778,-0.246296296,1,0,0,3.5507,Basalt_rect,2,3.551,1,12,0,12,0,1,,,,,,,,,,,,,
6657d2d03fb90667017a1f95,TCR,2024-06-11_13h13.48.996,LearnStrategy,2023.2.3,Win32,142.8571429,7,1,14,0.047222222,0.015740741,1,0,0,1.149,rock_grid_rect_2,1,05,-1,-1,1.149,-0.430555556,-0.237962963,1,0,0,2.0901,Andesite_rect,1,2.09,1,13,0,13,0,1,,,,,,,,,,,,,
6657d2d03fb90667017a1f95,TCR,2024-06-11_13h13.48.996,LearnStrategy,2023.2.3,Win32,142.8571429,7,1,15,-0.034259259,-0.013888889,1,0,0,1.2947,rock_grid_rect_2,1,09,-1,-1,1.295,-0.355555556,-0.24537037,1,0,0,12.1096,Andesite_rect,1,12.11,1,14,0,14,0,1,,,,,,,,,,,,,
6657d2d03fb90667017a1f95,TCR,2024-06-11_13h13.48.996,LearnStrategy,2023.2.3,Win32,142.8571429,7,1,16,-0.016666667,-0.017592593,1,0,0,1.1745,rock_grid_rect_2,1,10,-1,-1,1.175,-0.352777778,-0.261111111,1,0,0,3.7194,Andesite_rect,1,3.719,1,15,0,15,0,1,,,,,,,,,,,,,
6657d2d03fb90667017a1f95,TCR,2024-06-11_13h13.48.996,LearnStrategy,2023.2.3,Win32,142.8571429,7,2,1,,,,,,,,4,05,,,,,,,,,,,7,2.137,0,,,,,,0.126851852,-0.402777778,1,0,0,2.1367,Peridotite_rect,0,0,0,0,1,
6657d2d03fb90667017a1f95,TCR,2024-06-11_13h13.48.996,LearnStrategy,2023.2.3,Win32,142.8571429,7,2,2,,,,,,,,8,02,,,,,,,,,,,8,1.374,1,,,,,,0.351851852,-0.408333333,1,0,0,1.3743,Pumice_rect,1,0,1,0,1,
6657d2d03fb90667017a1f95,TCR,2024-06-11_13h13.48.996,LearnStrategy,2023.2.3,Win32,142.8571429,7,2,3,,,,,,,,6,09,,,,,,,,,,,6,1.756,1,,,,,,-0.107407407,-0.417592593,1,0,0,1.7558,Pegmatite_rect,2,0,2,0,1,
6657d2d03fb90667017a1f95,TCR,2024-06-11_13h13.48.996,LearnStrategy,2023.2.3,Win32,142.8571429,7,2,4,,,,,,,,6,06,,,,,,,,,,,6,1.196,1,,,,,,-0.107407407,-0.417592593,1,0,0,1.1955,Pegmatite_rect,3,0,3,0,1,
6657d2d03fb90667017a1f95,TCR,2024-06-11_13h13.48.996,LearnStrategy,2023.2.3,Win32,142.8571429,7,2,5,,,,,,,,4,09,,,,,,,,,,,1,19.505,0,,,,,,-0.351851852,-0.258333333,1,0,0,19.5047,Andesite_rect,4,0,4,0,1,
6657d2d03fb90667017a1f95,TCR,2024-06-11_13h13.48.996,LearnStrategy,2023.2.3,Win32,142.8571429,7,2,6,,,,,,,,5,16,,,,,,,,,,,5,1.241,1,,,,,,-0.385185185,-0.401851852,1,0,0,1.2411,Obsidian_rect,5,0,5,0,1,
6657d2d03fb90667017a1f95,TCR,2024-06-11_13h13.48.996,LearnStrategy,2023.2.3,Win32,142.8571429,7,2,7,,,,,,,,1,06,,,,,,,,,,,1,2.118,1,,,,,,-0.383333333,-0.262037037,1,0,0,2.1183,Andesite_rect,6,0,6,0,1,
6657d2d03fb90667017a1f95,TCR,2024-06-11_13h13.48.996,LearnStrategy,2023.2.3,Win32,142.8571429,7,2,8,,,,,,,,7,04,,,,,,,,,,,6,4.953,0,,,,,,-0.193518519,-0.387962963,1,0,0,4.9528,Pegmatite_rect,7,0,7,0,1,
6657d2d03fb90667017a1f95,TCR,2024-06-11_13h13.48.996,LearnStrategy,2023.2.3,Win32,142.8571429,7,2,9,,,,,,,,7,06,,,,,,,,,,,6,1.778,0,,,,,,-0.193518519,-0.387962963,1,0,0,1.7779,Pegmatite_rect,8,0,8,0,1,
6657d2d03fb90667017a1f95,TCR,2024-06-11_13h13.48.996,LearnStrategy,2023.2.3,Win32,142.8571429,7,2,10,,,,,,,,1,04,,,,,,,,,,,1,2.343,1,,,,,,-0.363888889,-0.260185185,1,0,0,2.3429,Andesite_rect,9,0,9,0,1,
6657d2d03fb90667017a1f95,TCR,2024-06-11_13h13.48.996,LearnStrategy,2023.2.3,Win32,142.8571429,7,2,11,,,,,,,,3,08,,,,,,,,,,,3,4.458,1,,,,,,0.065740741,-0.252777778,1,0,0,4.4576,Diorite_rect,10,0,10,0,1,
6657d2d03fb90667017a1f95,TCR,2024-06-11_13h13.48.996,LearnStrategy,2023.2.3,Win32,142.8571429,7,2,12,,,,,,,,5,11,,,,,,,,,,,5,1.671,1,,,,,,-0.350925926,-0.386111111,1,0,0,1.6706,Obsidian_rect,11,0,11,0,1,
6657d2d03fb90667017a1f95,TCR,2024-06-11_13h13.48.996,LearnStrategy,2023.2.3,Win32,142.8571429,7,2,13,,,,,,,,2,06,,,,,,,,,,,2,1.683,1,,,,,,-0.137962963,-0.257407407,1,0,0,1.6827,Basalt_rect,12,0,12,0,1,
6657d2d03fb90667017a1f95,TCR,2024-06-11_13h13.48.996,LearnStrategy,2023.2.3,Win32,142.8571429,7,2,14,,,,,,,,8,14,,,,,,,,,,,8,1.741,1,,,,,,0.434259259,-0.402777778,1,0,0,1.7406,Pumice_rect,13,0,13,0,1,
6657d2d03fb90667017a1f95,TCR,2024-06-11_13h13.48.996,LearnStrategy,2023.2.3,Win32,142.8571429,7,2,15,,,,,,,,2,04,,,,,,,,,,,2,1.902,1,,,,,,-0.116666667,-0.248148148,1,0,0,1.9017,Basalt_rect,14,0,14,0,1,
6657d2d03fb90667017a1f95,TCR,2024-06-11_13h13.48.996,LearnStrategy,2023.2.3,Win32,142.8571429,7,2,16,,,,,,,,3,02,,,,,,,,,,,3,6.507,1,,,,,,0.173148148,-0.256481481,1,0,0,6.5066,Diorite_rect,15,0,15,0,1,
6657d2d03fb90667017a1f95,TCR,2024-06-11_13h13.48.996,LearnStrategy,2023.2.3,Win32,142.8571429,8,1,1,0.018518519,-0.016666667,1,0,0,1.9096,rock_grid_rect_2,4,11,-1,-1,1.91,0.381481481,-0.237962963,1,0,0,4.622,Gabbro_rect,4,4.622,1,0,0,0,0,1,,,,,,,,,,,,,
6657d2d03fb90667017a1f95,TCR,2024-06-11_13h13.48.996,LearnStrategy,2023.2.3,Win32,142.8571429,8,1,2,0.038888889,0,1,0,0,1.447,rock_grid_rect_2,4,11,-1,-1,1.447,0.350925926,-0.25,1,0,0,1.8476,Gabbro_rect,4,1.848,1,1,0,1,0,1,,,,,,,,,,,,,
6657d2d03fb90667017a1f95,TCR,2024-06-11_13h13.48.996,LearnStrategy,2023.2.3,Win32,142.8571429,8,1,3,0.044444444,-0.009259259,1,0,0,1.5082,rock_grid_rect_2,5,14,-1,-1,1.508,-0.371296296,-0.40462963,1,0,0,2.1602,Obsidian_rect,5,2.16,1,2,0,2,0,1,,,,,,,,,,,,,
6657d2d03fb90667017a1f95,TCR,2024-06-11_13h13.48.996,LearnStrategy,2023.2.3,Win32,142.8571429,8,1,4,-0.021296296,-0.009259259,1,0,0,1.2825,rock_grid_rect_2,7,12,-1,-1,1.283,0.096296296,-0.416666667,1,0,0,2.7471,Peridotite_rect,7,2.747,1,3,0,3,0,1,,,,,,,,,,,,,
6657d2d03fb90667017a1f95,TCR,2024-06-11_13h13.48.996,LearnStrategy,2023.2.3,Win32,142.8571429,8,1,5,0.048148148,-0.012962963,1,0,0,1.0758,rock_grid_rect_2,1,01,-1,-1,1.076,0.137962963,-0.246296296,1,0,0,4.6605,Diorite_rect,3,4.66,0,4,0,4,0,1,,,,,,,,,,,,,
6657d2d03fb90667017a1f95,TCR,2024-06-11_13h13.48.996,LearnStrategy,2023.2.3,Win32,142.8571429,8,1,6,0.005555556,-0.001851852,1,0,0,1.0808,rock_grid_rect_2,3,13,-1,-1,1.081,0.084259259,-0.24537037,1,0,0,6.7881,Diorite_rect,3,6.788,1,5,0,5,0,1,,,,,,,,,,,,,
6657d2d03fb90667017a1f95,TCR,2024-06-11_13h13.48.996,LearnStrategy,2023.2.3,Win32,142.8571429,8,1,7,0.02037037,-0.017592593,1,0,0,1.0276,rock_grid_rect_2,8,13,-1,-1,1.028,0.378703704,-0.402777778,1,0,0,2.2103,Pumice_rect,8,2.21,1,6,0,6,0,1,,,,,,,,,,,,,
6657d2d03fb90667017a1f95,TCR,2024-06-11_13h13.48.996,LearnStrategy,2023.2.3,Win32,142.8571429,8,1,8,0.050925926,-0.007407407,1,0,0,1.4828,rock_grid_rect_2,2,09,-1,-1,1.483,-0.125925926,-0.262962963,1,0,0,3.6825,Basalt_rect,2,3.682,1,7,0,7,0,1,,,,,,,,,,,,,
6657d2d03fb90667017a1f95,TCR,2024-06-11_13h13.48.996,LearnStrategy,2023.2.3,Win32,142.8571429,8,1,9,-0.047222222,-0.012962963,1,0,0,1.1012,rock_grid_rect_2,7,13,-1,-1,1.101,0.107407407,-0.407407407,1,0,0,1.5008,Peridotite_rect,7,1.501,1,8,0,8,0,1,,,,,,,,,,,,,
6657d2d03fb90667017a1f95,TCR,2024-06-11_13h13.48.996,LearnStrategy,2023.2.3,Win32,142.8571429,8,1,10,-0.010185185,-0.012037037,1,0,0,1.1048,rock_grid_rect_2,1,14,-1,-1,1.105,-0.32962963,-0.234259259,1,0,0,3.7089,Andesite_rect,1,3.709,1,9,0,9,0,1,,,,,,,,,,,,,
6657d2d03fb90667017a1f95,TCR,2024-06-11_13h13.48.996,LearnStrategy,2023.2.3,Win32,142.8571429,8,1,11,0.021296296,0.012037037,1,0,0,1.0749,rock_grid_rect_2,7,07,-1,-1,1.075,0.122222222,-0.403703704,1,0,0,2.7697,Peridotite_rect,7,2.77,1,10,0,10,0,1,,,,,,,,,,,,,
6657d2d03fb90667017a1f95,TCR,2024-06-11_13h13.48.996,LearnStrategy,2023.2.3,Win32,142.8571429,8,1,12,-0.001851852,-0.011111111,1,0,0,1.1544,rock_grid_rect_2,4,08,-1,-1,1.154,-0.375,-0.238888889,1,0,0,7.2727,Andesite_rect,1,7.273,0,11,0,11,0,1,,,,,,,,,,,,,
6657d2d03fb90667017a1f95,TCR,2024-06-11_13h13.48.996,LearnStrategy,2023.2.3,Win32,142.8571429,8,1,13,0.021296296,-0.007407407,1,0,0,1.2399,rock_grid_rect_2,4,10,-1,-1,1.24,0.34537037,-0.247222222,1,0,0,1.8058,Gabbro_rect,4,1.806,1,12,0,12,0,1,,,,,,,,,,,,,
6657d2d03fb90667017a1f95,TCR,2024-06-11_13h13.48.996,LearnStrategy,2023.2.3,Win32,142.8571429,8,1,14,0.010185185,-0.007407407,1,0,0,1.1785,rock_grid_rect_2,3,13,-1,-1,1.178,0.100925926,-0.241666667,1,0,0,1.8765,Diorite_rect,3,1.876,1,13,0,13,0,1,,,,,,,,,,,,,
6657d2d03fb90667017a1f95,TCR,2024-06-11_13h13.48.996,LearnStrategy,2023.2.3,Win32,142.8571429,8,1,15,0.018518519,-0.008333333,1,0,0,1.0672,rock_grid_rect_2,7,12,-1,-1,1.067,0.119444444,-0.4,1,0,0,1.6427,Peridotite_rect,7,1.643,1,14,0,14,0,1,,,,,,,,,,,,,
6657d2d03fb90667017a1f95,TCR,2024-06-11_13h13.48.996,LearnStrategy,2023.2.3,Win32,142.8571429,8,1,16,0.090740741,0.001851852,1,0,0,1.4954,rock_grid_rect_2,6,15,-1,-1,1.495,-0.143518519,-0.389814815,1,0,0,1.5762,Pegmatite_rect,6,1.576,1,15,0,15,0,1,,,,,,,,,,,,,
6657d2d03fb90667017a1f95,TCR,2024-06-11_13h13.48.996,LearnStrategy,2023.2.3,Win32,142.8571429,8,2,1,,,,,,,,4,13,,,,,,,,,,,4,4.162,1,,,,,,0.378703704,-0.264814815,1,0,0,4.1623,Gabbro_rect,0,0,0,0,1,
6657d2d03fb90667017a1f95,TCR,2024-06-11_13h13.48.996,LearnStrategy,2023.2.3,Win32,142.8571429,8,2,2,,,,,,,,5,07,,,,,,,,,,,5,2.121,1,,,,,,-0.389814815,-0.407407407,1,0,0,2.1212,Obsidian_rect,1,0,1,0,1,
6657d2d03fb90667017a1f95,TCR,2024-06-11_13h13.48.996,LearnStrategy,2023.2.3,Win32,142.8571429,8,2,3,,,,,,,,2,02,,,,,,,,,,,2,4.06,1,,,,,,-0.121296296,-0.234259259,1,0,0,4.0596,Basalt_rect,2,0,2,0,1,
6657d2d03fb90667017a1f95,TCR,2024-06-11_13h13.48.996,LearnStrategy,2023.2.3,Win32,142.8571429,8,2,4,,,,,,,,7,14,,,,,,,,,,,7,7.049,1,,,,,,0.07962963,-0.421296296,1,0,0,7.0492,Peridotite_rect,3,0,3,0,1,
6657d2d03fb90667017a1f95,TCR,2024-06-11_13h13.48.996,LearnStrategy,2023.2.3,Win32,142.8571429,8,2,5,,,,,,,,3,14,,,,,,,,,,,3,2.288,1,,,,,,0.065740741,-0.253703704,1,0,0,2.288,Diorite_rect,4,0,4,0,1,
6657d2d03fb90667017a1f95,TCR,2024-06-11_13h13.48.996,LearnStrategy,2023.2.3,Win32,142.8571429,8,2,6,,,,,,,,1,16,,,,,,,,,,,1,6.126,1,,,,,,-0.339814815,-0.24537037,1,0,0,6.126,Andesite_rect,5,0,5,0,1,
6657d2d03fb90667017a1f95,TCR,2024-06-11_13h13.48.996,LearnStrategy,2023.2.3,Win32,142.8571429,8,2,7,,,,,,,,4,15,,,,,,,,,,,4,3.588,1,,,,,,0.332407407,-0.255555556,1,0,0,3.5876,Gabbro_rect,6,0,6,0,1,
6657d2d03fb90667017a1f95,TCR,2024-06-11_13h13.48.996,LearnStrategy,2023.2.3,Win32,142.8571429,8,2,8,,,,,,,,8,08,,,,,,,,,,,8,1.495,1,,,,,,0.337962963,-0.399074074,1,0,0,1.4949,Pumice_rect,7,0,7,0,1,
6657d2d03fb90667017a1f95,TCR,2024-06-11_13h13.48.996,LearnStrategy,2023.2.3,Win32,142.8571429,8,2,9,,,,,,,,6,16,,,,,,,,,,,6,2.625,1,,,,,,-0.158333333,-0.406481481,1,0,0,2.6247,Pegmatite_rect,8,0,8,0,1,
6657d2d03fb90667017a1f95,TCR,2024-06-11_13h13.48.996,LearnStrategy,2023.2.3,Win32,142.8571429,8,2,10,,,,,,,,8,15,,,,,,,,,,,8,1.594,1,,,,,,0.358333333,-0.392592593,1,0,0,1.5936,Pumice_rect,9,0,9,0,1,
6657d2d03fb90667017a1f95,TCR,2024-06-11_13h13.48.996,LearnStrategy,2023.2.3,Win32,142.8571429,8,2,11,,,,,,,,5,12,,,,,,,,,,,5,1.48,1,,,,,,-0.347222222,-0.383333333,1,0,0,1.4804,Obsidian_rect,10,0,10,0,1,
6657d2d03fb90667017a1f95,TCR,2024-06-11_13h13.48.996,LearnStrategy,2023.2.3,Win32,142.8571429,8,2,12,,,,,,,,7,02,,,,,,,,,,,7,1.726,1,,,,,,0.075925926,-0.410185185,1,0,0,1.7255,Peridotite_rect,11,0,11,0,1,
6657d2d03fb90667017a1f95,TCR,2024-06-11_13h13.48.996,LearnStrategy,2023.2.3,Win32,142.8571429,8,2,13,,,,,,,,1,07,,,,,,,,,,,3,2.421,0,,,,,,0.096296296,-0.234259259,1,0,0,2.4208,Diorite_rect,12,0,12,0,1,
6657d2d03fb90667017a1f95,TCR,2024-06-11_13h13.48.996,LearnStrategy,2023.2.3,Win32,142.8571429,8,2,14,,,,,,,,3,11,,,,,,,,,,,4,3.238,0,,,,,,0.334259259,-0.239814815,1,0,0,3.2384,Gabbro_rect,13,0,13,0,1,
6657d2d03fb90667017a1f95,TCR,2024-06-11_13h13.48.996,LearnStrategy,2023.2.3,Win32,142.8571429,8,2,15,,,,,,,,2,16,,,,,,,,,,,2,1.457,1,,,,,,-0.132407407,-0.27037037,1,0,0,1.457,Basalt_rect,14,0,14,0,1,
6657d2d03fb90667017a1f95,TCR,2024-06-11_13h13.48.996,LearnStrategy,2023.2.3,Win32,142.8571429,8,2,16,,,,,,,,6,11,,,,,,,,,,,6,1.446,1,,,,,,-0.135185185,-0.386111111,1,0,0,1.4464,Pegmatite_rect,15,0,15,0,1,
6657d2d03fb90667017a1f95,TCR,2024-06-11_13h13.48.996,LearnStrategy,2023.2.3,Win32,142.8571429,9,1,1,-0.035185185,-0.015740741,1,0,0,1.6584,rock_grid_rect_2,1,01,-1,-1,1.658,0.364814815,-0.232407407,1,0,0,6.1244,Gabbro_rect,4,6.124,0,0,0,0,0,1,,,,,,,,,,,,,
6657d2d03fb90667017a1f95,TCR,2024-06-11_13h13.48.996,LearnStrategy,2023.2.3,Win32,142.8571429,9,1,2,0.038888889,-0.019444444,1,0,0,1.2319,rock_grid_rect_2,3,12,-1,-1,1.232,0.098148148,-0.248148148,1,0,0,1.9038,Diorite_rect,3,1.904,1,1,0,1,0,1,,,,,,,,,,,,,
6657d2d03fb90667017a1f95,TCR,2024-06-11_13h13.48.996,LearnStrategy,2023.2.3,Win32,142.8571429,9,1,3,0.033333333,-0.00462963,1,0,0,1.5563,rock_grid_rect_2,4,16,-1,-1,1.556,-0.15462963,-0.247222222,1,0,0,1.7738,Basalt_rect,2,1.774,0,2,0,2,0,1,,,,,,,,,,,,,
6657d2d03fb90667017a1f95,TCR,2024-06-11_13h13.48.996,LearnStrategy,2023.2.3,Win32,142.8571429,9,1,4,0.010185185,-0.003703704,1,0,0,1.3246,rock_grid_rect_2,6,07,-1,-1,1.325,-0.124074074,-0.409259259,1,0,0,1.6182,Pegmatite_rect,6,1.618,1,3,0,3,0,1,,,,,,,,,,,,,
6657d2d03fb90667017a1f95,TCR,2024-06-11_13h13.48.996,LearnStrategy,2023.2.3,Win32,142.8571429,9,1,5,0.006481481,-0.005555556,1,0,0,1.1074,rock_grid_rect_2,2,05,-1,-1,1.107,-0.156481481,-0.251851852,1,0,0,1.3548,Basalt_rect,2,1.355,1,4,0,4,0,1,,,,,,,,,,,,,
6657d2d03fb90667017a1f95,TCR,2024-06-11_13h13.48.996,LearnStrategy,2023.2.3,Win32,142.8571429,9,1,6,-0.027777778,-0.014814815,1,0,0,1.3839,rock_grid_rect_2,1,11,-1,-1,1.384,-0.353703704,-0.247222222,1,0,0,2.1169,Andesite_rect,1,2.117,1,5,0,5,0,1,,,,,,,,,,,,,
6657d2d03fb90667017a1f95,TCR,2024-06-11_13h13.48.996,LearnStrategy,2023.2.3,Win32,142.8571429,9,1,7,-0.039814815,0.000925926,1,0,0,1.1289,rock_grid_rect_2,3,15,-1,-1,1.129,0.115740741,-0.252777778,1,0,0,1.7759,Diorite_rect,3,1.776,1,6,0,6,0,1,,,,,,,,,,,,,
6657d2d03fb90667017a1f95,TCR,2024-06-11_13h13.48.996,LearnStrategy,2023.2.3,Win32,142.8571429,9,1,8,-0.001851852,-0.002777778,1,0,0,1.1747,rock_grid_rect_2,7,12,-1,-1,1.175,0.123148148,-0.399074074,1,0,0,1.653,Peridotite_rect,7,1.653,1,7,0,7,0,1,,,,,,,,,,,,,
6657d2d03fb90667017a1f95,TCR,2024-06-11_13h13.48.996,LearnStrategy,2023.2.3,Win32,142.8571429,9,1,9,0.011111111,0.007407407,1,0,0,1.0668,rock_grid_rect_2,3,13,-1,-1,1.067,0.093518519,-0.248148148,1,0,0,1.6364,Diorite_rect,3,1.636,1,8,0,8,0,1,,,,,,,,,,,,,
6657d2d03fb90667017a1f95,TCR,2024-06-11_13h13.48.996,LearnStrategy,2023.2.3,Win32,142.8571429,9,1,10,0.034259259,-0.009259259,1,0,0,1.0917,rock_grid_rect_2,4,08,-1,-1,1.092,0.353703704,-0.252777778,1,0,0,1.7832,Gabbro_rect,4,1.783,1,9,0,9,0,1,,,,,,,,,,,,,
6657d2d03fb90667017a1f95,TCR,2024-06-11_13h13.48.996,LearnStrategy,2023.2.3,Win32,142.8571429,9,1,11,0.009259259,0.007407407,1,0,0,1.052,rock_grid_rect_2,8,04,-1,-1,1.052,0.348148148,-0.401851852,1,0,0,1.6629,Pumice_rect,8,1.663,1,10,0,10,0,1,,,,,,,,,,,,,
6657d2d03fb90667017a1f95,TCR,2024-06-11_13h13.48.996,LearnStrategy,2023.2.3,Win32,142.8571429,9,1,12,0.014814815,0.005555556,1,0,0,1.0137,rock_grid_rect_2,7,10,-1,-1,1.014,0.151851852,-0.413888889,1,0,0,1.5992,Peridotite_rect,7,1.599,1,11,0,11,0,1,,,,,,,,,,,,,
6657d2d03fb90667017a1f95,TCR,2024-06-11_13h13.48.996,LearnStrategy,2023.2.3,Win32,142.8571429,9,1,13,0.022222222,0.001851852,1,0,0,0.9744,rock_grid_rect_2,4,08,-1,-1,0.974,0.340740741,-0.248148148,1,0,0,1.7803,Gabbro_rect,4,1.78,1,12,0,12,0,1,,,,,,,,,,,,,
6657d2d03fb90667017a1f95,TCR,2024-06-11_13h13.48.996,LearnStrategy,2023.2.3,Win32,142.8571429,9,1,14,0.016666667,0.010185185,1,0,0,1.1487,rock_grid_rect_2,5,06,-1,-1,1.149,-0.369444444,-0.382407407,1,0,0,1.3803,Obsidian_rect,5,1.38,1,13,0,13,0,1,,,,,,,,,,,,,
6657d2d03fb90667017a1f95,TCR,2024-06-11_13h13.48.996,LearnStrategy,2023.2.3,Win32,142.8571429,9,1,15,0.010185185,-0.010185185,1,0,0,1.1091,rock_grid_rect_2,1,09,-1,-1,1.109,-0.375925926,-0.242592593,1,0,0,3.3322,Andesite_rect,1,3.332,1,14,0,14,0,1,,,,,,,,,,,,,
6657d2d03fb90667017a1f95,TCR,2024-06-11_13h13.48.996,LearnStrategy,2023.2.3,Win32,142.8571429,9,1,16,0.019444444,-0.012037037,1,0,0,1.2928,rock_grid_rect_2,7,07,-1,-1,1.293,0.139814815,-0.410185185,1,0,0,1.4734,Peridotite_rect,7,1.473,1,15,0,15,0,1,,,,,,,,,,,,,
6657d2d03fb90667017a1f95,TCR,2024-06-11_13h13.48.996,LearnStrategy,2023.2.3,Win32,142.8571429,9,2,1,,,,,,,,4,01,,,,,,,,,,,1,5.986,0,,,,,,-0.312037037,-0.262962963,1,0,0,5.9865,Andesite_rect,0,0,0,0,1,
6657d2d03fb90667017a1f95,TCR,2024-06-11_13h13.48.996,LearnStrategy,2023.2.3,Win32,142.8571429,9,2,2,,,,,,,,5,04,,,,,,,,,,,5,1.283,1,,,,,,-0.361111111,-0.385185185,1,0,0,1.2829,Obsidian_rect,1,0,1,0,1,
6657d2d03fb90667017a1f95,TCR,2024-06-11_13h13.48.996,LearnStrategy,2023.2.3,Win32,142.8571429,9,2,3,,,,,,,,2,12,,,,,,,,,,,8,2.187,0,,,,,,0.398148148,-0.411111111,1,0,0,2.1866,Pumice_rect,2,0,2,0,1,
6657d2d03fb90667017a1f95,TCR,2024-06-11_13h13.48.996,LearnStrategy,2023.2.3,Win32,142.8571429,9,2,4,,,,,,,,6,05,,,,,,,,,,,6,1.801,1,,,,,,-0.143518519,-0.414814815,1,0,0,1.8008,Pegmatite_rect,3,0,3,0,1,
6657d2d03fb90667017a1f95,TCR,2024-06-11_13h13.48.996,LearnStrategy,2023.2.3,Win32,142.8571429,9,2,5,,,,,,,,5,09,,,,,,,,,,,5,1.359,1,,,,,,-0.353703704,-0.405555556,1,0,0,1.3593,Obsidian_rect,4,0,4,0,1,
6657d2d03fb90667017a1f95,TCR,2024-06-11_13h13.48.996,LearnStrategy,2023.2.3,Win32,142.8571429,9,2,6,,,,,,,,7,15,,,,,,,,,,,7,1.503,1,,,,,,0.146296296,-0.421296296,1,0,0,1.5027,Peridotite_rect,5,0,5,0,1,
6657d2d03fb90667017a1f95,TCR,2024-06-11_13h13.48.996,LearnStrategy,2023.2.3,Win32,142.8571429,9,2,7,,,,,,,,6,08,,,,,,,,,,,6,2.276,1,,,,,,-0.15,-0.398148148,1,0,0,2.2758,Pegmatite_rect,6,0,6,0,1,
6657d2d03fb90667017a1f95,TCR,2024-06-11_13h13.48.996,LearnStrategy,2023.2.3,Win32,142.8571429,9,2,8,,,,,,,,7,05,,,,,,,,,,,7,1.81,1,,,,,,0.118518519,-0.408333333,1,0,0,1.8097,Peridotite_rect,7,0,7,0,1,
6657d2d03fb90667017a1f95,TCR,2024-06-11_13h13.48.996,LearnStrategy,2023.2.3,Win32,142.8571429,9,2,9,,,,,,,,3,06,,,,,,,,,,,3,1.878,1,,,,,,0.089814815,-0.259259259,1,0,0,1.8782,Diorite_rect,8,0,8,0,1,
6657d2d03fb90667017a1f95,TCR,2024-06-11_13h13.48.996,LearnStrategy,2023.2.3,Win32,142.8571429,9,2,10,,,,,,,,1,03,,,,,,,,,,,1,5.085,1,,,,,,-0.338888889,-0.247222222,1,0,0,5.085,Andesite_rect,9,0,9,0,1,
6657d2d03fb90667017a1f95,TCR,2024-06-11_13h13.48.996,LearnStrategy,2023.2.3,Win32,142.8571429,9,2,11,,,,,,,,1,02,,,,,,,,,,,1,5.403,1,,,,,,-0.338888889,-0.247222222,1,0,0,5.4031,Andesite_rect,10,0,10,0,1,
6657d2d03fb90667017a1f95,TCR,2024-06-11_13h13.48.996,LearnStrategy,2023.2.3,Win32,142.8571429,9,2,12,,,,,,,,4,12,,,,,,,,,,,4,1.917,1,,,,,,0.380555556,-0.249074074,1,0,0,1.9172,Gabbro_rect,11,0,11,0,1,
6657d2d03fb90667017a1f95,TCR,2024-06-11_13h13.48.996,LearnStrategy,2023.2.3,Win32,142.8571429,9,2,13,,,,,,,,8,03,,,,,,,,,,,8,1.538,1,,,,,,0.371296296,-0.40462963,1,0,0,1.5378,Pumice_rect,12,0,12,0,1,
6657d2d03fb90667017a1f95,TCR,2024-06-11_13h13.48.996,LearnStrategy,2023.2.3,Win32,142.8571429,9,2,14,,,,,,,,8,06,,,,,,,,,,,8,1.044,1,,,,,,0.371296296,-0.40462963,1,0,0,1.0437,Pumice_rect,13,0,13,0,1,
6657d2d03fb90667017a1f95,TCR,2024-06-11_13h13.48.996,LearnStrategy,2023.2.3,Win32,142.8571429,9,2,15,,,,,,,,2,08,,,,,,,,,,,2,1.819,1,,,,,,-0.114814815,-0.232407407,1,0,0,1.819,Basalt_rect,14,0,14,0,1,
6657d2d03fb90667017a1f95,TCR,2024-06-11_13h13.48.996,LearnStrategy,2023.2.3,Win32,142.8571429,9,2,16,,,,,,,,3,10,,,,,,,,,,,3,1.602,1,,,,,,0.105555556,-0.252777778,1,0,0,1.6018,Diorite_rect,15,0,15,0,1,
6657d2d03fb90667017a1f95,TCR,2024-06-11_13h13.48.996,LearnStrategy,2023.2.3,Win32,142.8571429,,,,,,,,,,,,,,,,,,,,,,,,,,,,,,,,,,,,,,,,,,,1
6657d2d03fb90667017a1f95,TCR,2024-06-11_13h13.48.996,LearnStrategy,2023.2.3,Win32,142.8571429,,,,,,,,,,,,,,,,,,,,,,,,,,,,,,,,,,,,,,,,,,,
6657d2d03fb90667017a1f95,TCR,2024-06-11_13h13.48.996,LearnStrategy,2023.2.3,Win32,142.8571429,,,,,,,,,,,1,09,1,1,,,,,,,,,,,,,,,,,,,,,,,,,,,,,
6657d2d03fb90667017a1f95,TCR,2024-06-11_13h13.48.996,LearnStrategy,2023.2.3,Win32,142.8571429,,,,,,,,,,,7,13,1,2,,,,,,,,,,,,,,,,,,,,,,,,,,,,,
6657d2d03fb90667017a1f95,TCR,2024-06-11_13h13.48.996,LearnStrategy,2023.2.3,Win32,142.8571429,,,,,,,,,,,3,16,1,3,,,,,,,,,,,,,,,,,,,,,,,,,,,,,
6657d2d03fb90667017a1f95,TCR,2024-06-11_13h13.48.996,LearnStrategy,2023.2.3,Win32,142.8571429,,,,,,,,,,,2,01,1,4,,,,,,,,,,,,,,,,,,,,,,,,,,,,,
6657d2d03fb90667017a1f95,TCR,2024-06-11_13h13.48.996,LearnStrategy,2023.2.3,Win32,142.8571429,,,,,,,,,,,5,05,1,5,,,,,,,,,,,,,,,,,,,,,,,,,,,,,
6657d2d03fb90667017a1f95,TCR,2024-06-11_13h13.48.996,LearnStrategy,2023.2.3,Win32,142.8571429,,,,,,,,,,,8,13,1,6,,,,,,,,,,,,,,,,,,,,,,,,,,,,,
6657d2d03fb90667017a1f95,TCR,2024-06-11_13h13.48.996,LearnStrategy,2023.2.3,Win32,142.8571429,,,,,,,,,,,4,08,1,7,,,,,,,,,,,,,,,,,,,,,,,,,,,,,
6657d2d03fb90667017a1f95,TCR,2024-06-11_13h13.48.996,LearnStrategy,2023.2.3,Win32,142.8571429,,,,,,,,,,,1,11,1,8,,,,,,,,,,,,,,,,,,,,,,,,,,,,,
6657d2d03fb90667017a1f95,TCR,2024-06-11_13h13.48.996,LearnStrategy,2023.2.3,Win32,142.8571429,,,,,,,,,,,1,05,2,1,,,,,,,,,,,,,,,,,,,,,,,,,,,,,
6657d2d03fb90667017a1f95,TCR,2024-06-11_13h13.48.996,LearnStrategy,2023.2.3,Win32,142.8571429,,,,,,,,,,,4,14,2,2,,,,,,,,,,,,,,,,,,,,,,,,,,,,,
6657d2d03fb90667017a1f95,TCR,2024-06-11_13h13.48.996,LearnStrategy,2023.2.3,Win32,142.8571429,,,,,,,,,,,6,10,2,3,,,,,,,,,,,,,,,,,,,,,,,,,,,,,
6657d2d03fb90667017a1f95,TCR,2024-06-11_13h13.48.996,LearnStrategy,2023.2.3,Win32,142.8571429,,,,,,,,,,,3,07,2,4,,,,,,,,,,,,,,,,,,,,,,,,,,,,,
6657d2d03fb90667017a1f95,TCR,2024-06-11_13h13.48.996,LearnStrategy,2023.2.3,Win32,142.8571429,,,,,,,,,,,5,14,2,5,,,,,,,,,,,,,,,,,,,,,,,,,,,,,
6657d2d03fb90667017a1f95,TCR,2024-06-11_13h13.48.996,LearnStrategy,2023.2.3,Win32,142.8571429,,,,,,,,,,,8,10,2,6,,,,,,,,,,,,,,,,,,,,,,,,,,,,,
6657d2d03fb90667017a1f95,TCR,2024-06-11_13h13.48.996,LearnStrategy,2023.2.3,Win32,142.8571429,,,,,,,,,,,7,12,2,7,,,,,,,,,,,,,,,,,,,,,,,,,,,,,
6657d2d03fb90667017a1f95,TCR,2024-06-11_13h13.48.996,LearnStrategy,2023.2.3,Win32,142.8571429,,,,,,,,,,,7,07,2,8,,,,,,,,,,,,,,,,,,,,,,,,,,,,,
6657d2d03fb90667017a1f95,TCR,2024-06-11_13h13.48.996,LearnStrategy,2023.2.3,Win32,142.8571429,,,,,,,,,,,8,04,3,1,,,,,,,,,,,,,,,,,,,,,,,,,,,,,
6657d2d03fb90667017a1f95,TCR,2024-06-11_13h13.48.996,LearnStrategy,2023.2.3,Win32,142.8571429,,,,,,,,,,,7,16,3,2,,,,,,,,,,,,,,,,,,,,,,,,,,,,,
6657d2d03fb90667017a1f95,TCR,2024-06-11_13h13.48.996,LearnStrategy,2023.2.3,Win32,142.8571429,,,,,,,,,,,8,16,3,3,,,,,,,,,,,,,,,,,,,,,,,,,,,,,
6657d2d03fb90667017a1f95,TCR,2024-06-11_13h13.48.996,LearnStrategy,2023.2.3,Win32,142.8571429,,,,,,,,,,,5,08,3,4,,,,,,,,,,,,,,,,,,,,,,,,,,,,,
6657d2d03fb90667017a1f95,TCR,2024-06-11_13h13.48.996,LearnStrategy,2023.2.3,Win32,142.8571429,,,,,,,,,,,7,10,3,5,,,,,,,,,,,,,,,,,,,,,,,,,,,,,
6657d2d03fb90667017a1f95,TCR,2024-06-11_13h13.48.996,LearnStrategy,2023.2.3,Win32,142.8571429,,,,,,,,,,,7,08,3,6,,,,,,,,,,,,,,,,,,,,,,,,,,,,,
6657d2d03fb90667017a1f95,TCR,2024-06-11_13h13.48.996,LearnStrategy,2023.2.3,Win32,142.8571429,,,,,,,,,,,4,10,3,7,,,,,,,,,,,,,,,,,,,,,,,,,,,,,
6657d2d03fb90667017a1f95,TCR,2024-06-11_13h13.48.996,LearnStrategy,2023.2.3,Win32,142.8571429,,,,,,,,,,,2,05,3,8,,,,,,,,,,,,,,,,,,,,,,,,,,,,,
6657d2d03fb90667017a1f95,TCR,2024-06-11_13h13.48.996,LearnStrategy,2023.2.3,Win32,142.8571429,,,,,,,,,,,1,14,4,1,,,,,,,,,,,,,,,,,,,,,,,,,,,,,
6657d2d03fb90667017a1f95,TCR,2024-06-11_13h13.48.996,LearnStrategy,2023.2.3,Win32,142.8571429,,,,,,,,,,,5,06,4,2,,,,,,,,,,,,,,,,,,,,,,,,,,,,,
6657d2d03fb90667017a1f95,TCR,2024-06-11_13h13.48.996,LearnStrategy,2023.2.3,Win32,142.8571429,,,,,,,,,,,2,09,4,3,,,,,,,,,,,,,,,,,,,,,,,,,,,,,
6657d2d03fb90667017a1f95,TCR,2024-06-11_13h13.48.996,LearnStrategy,2023.2.3,Win32,142.8571429,,,,,,,,,,,1,10,4,4,,,,,,,,,,,,,,,,,,,,,,,,,,,,,
6657d2d03fb90667017a1f95,TCR,2024-06-11_13h13.48.996,LearnStrategy,2023.2.3,Win32,142.8571429,,,,,,,,,,,4,11,4,5,,,,,,,,,,,,,,,,,,,,,,,,,,,,,
6657d2d03fb90667017a1f95,TCR,2024-06-11_13h13.48.996,LearnStrategy,2023.2.3,Win32,142.8571429,,,,,,,,,,,5,02,4,6,,,,,,,,,,,,,,,,,,,,,,,,,,,,,
6657d2d03fb90667017a1f95,TCR,2024-06-11_13h13.48.996,LearnStrategy,2023.2.3,Win32,142.8571429,,,,,,,,,,,3,12,4,7,,,,,,,,,,,,,,,,,,,,,,,,,,,,,
6657d2d03fb90667017a1f95,TCR,2024-06-11_13h13.48.996,LearnStrategy,2023.2.3,Win32,142.8571429,,,,,,,,,,,6,07,4,8,,,,,,,,,,,,,,,,,,,,,,,,,,,,,
6657d2d03fb90667017a1f95,TCR,2024-06-11_13h13.48.996,LearnStrategy,2023.2.3,Win32,142.8571429,,,,,,,,,,,5,10,5,1,,,,,,,,,,,,,,,,,,,,,,,,,,,,,
6657d2d03fb90667017a1f95,TCR,2024-06-11_13h13.48.996,LearnStrategy,2023.2.3,Win32,142.8571429,,,,,,,,,,,3,09,5,2,,,,,,,,,,,,,,,,,,,,,,,,,,,,,
6657d2d03fb90667017a1f95,TCR,2024-06-11_13h13.48.996,LearnStrategy,2023.2.3,Win32,142.8571429,,,,,,,,,,,6,13,5,3,,,,,,,,,,,,,,,,,,,,,,,,,,,,,
6657d2d03fb90667017a1f95,TCR,2024-06-11_13h13.48.996,LearnStrategy,2023.2.3,Win32,142.8571429,,,,,,,,,,,6,12,5,4,,,,,,,,,,,,,,,,,,,,,,,,,,,,,
6657d2d03fb90667017a1f95,TCR,2024-06-11_13h13.48.996,LearnStrategy,2023.2.3,Win32,142.8571429,,,,,,,,,,,4,16,5,5,,,,,,,,,,,,,,,,,,,,,,,,,,,,,
6657d2d03fb90667017a1f95,TCR,2024-06-11_13h13.48.996,LearnStrategy,2023.2.3,Win32,142.8571429,,,,,,,,,,,2,14,5,6,,,,,,,,,,,,,,,,,,,,,,,,,,,,,
6657d2d03fb90667017a1f95,TCR,2024-06-11_13h13.48.996,LearnStrategy,2023.2.3,Win32,142.8571429,,,,,,,,,,,3,13,5,7,,,,,,,,,,,,,,,,,,,,,,,,,,,,,
6657d2d03fb90667017a1f95,TCR,2024-06-11_13h13.48.996,LearnStrategy,2023.2.3,Win32,142.8571429,,,,,,,,,,,8,09,5,8,,,,,,,,,,,,,,,,,,,,,,,,,,,,,
6657d2d03fb90667017a1f95,TCR,2024-06-11_13h13.48.996,LearnStrategy,2023.2.3,Win32,142.8571429,,,,,,,,,,,1,01,6,1,,,,,,,,,,,,,,,,,,,,,,,,,,,,,
6657d2d03fb90667017a1f95,TCR,2024-06-11_13h13.48.996,LearnStrategy,2023.2.3,Win32,142.8571429,,,,,,,,,,,2,10,6,2,,,,,,,,,,,,,,,,,,,,,,,,,,,,,
6657d2d03fb90667017a1f95,TCR,2024-06-11_13h13.48.996,LearnStrategy,2023.2.3,Win32,142.8571429,,,,,,,,,,,6,15,6,3,,,,,,,,,,,,,,,,,,,,,,,,,,,,,
6657d2d03fb90667017a1f95,TCR,2024-06-11_13h13.48.996,LearnStrategy,2023.2.3,Win32,142.8571429,,,,,,,,,,,6,03,6,4,,,,,,,,,,,,,,,,,,,,,,,,,,,,,
6657d2d03fb90667017a1f95,TCR,2024-06-11_13h13.48.996,LearnStrategy,2023.2.3,Win32,142.8571429,,,,,,,,,,,4,03,6,5,,,,,,,,,,,,,,,,,,,,,,,,,,,,,
6657d2d03fb90667017a1f95,TCR,2024-06-11_13h13.48.996,LearnStrategy,2023.2.3,Win32,142.8571429,,,,,,,,,,,2,11,6,6,,,,,,,,,,,,,,,,,,,,,,,,,,,,,
6657d2d03fb90667017a1f95,TCR,2024-06-11_13h13.48.996,LearnStrategy,2023.2.3,Win32,142.8571429,,,,,,,,,,,3,15,6,7,,,,,,,,,,,,,,,,,,,,,,,,,,,,,
6657d2d03fb90667017a1f95,TCR,2024-06-11_13h13.48.996,LearnStrategy,2023.2.3,Win32,142.8571429,,,,,,,,,,,8,05,6,8,,,,,,,,,,,,,,,,,,,,,,,,,,,,,