participant,condition,date,expName,psychopyVersion,OS,frameRate,block,phase,trial,learn_mouse.x,learn_mouse.y,learn_mouse.leftButton,learn_mouse.midButton,learn_mouse.rightButton,learn_mouse.time,learn_mouse.clicked_name,cat,token,row,col,t_select,cat_mouse_l.x,cat_mouse_l.y,cat_mouse_l.leftButton,cat_mouse_l.midButton,cat_mouse_l.rightButton,cat_mouse_l.time,cat_mouse_l.clicked_name,resp,t_resp,corr,train_trials.thisRepN,train_trials.thisTrialN,train_trials.thisN,train_trials.thisIndex,train_trials.ran,cat_mouse_t.x,cat_mouse_t.y,cat_mouse_t.leftButton,cat_mouse_t.midButton,cat_mouse_t.rightButton,cat_mouse_t.time,cat_mouse_t.clicked_name,test_trials.thisRepN,test_trials.thisTrialN,test_trials.thisN,test_trials.thisIndex,test_trials.ran,Bonus
6658ad19f1e9209af5f899b0,SCN,2024-06-11_13h10.24.982,LearnStrategy,2023.2.3,Win32,60.24096386,,,,,,,,,,,,,,,,,,,,,,,,,,,,,,,,,,,,,,,,,,,
6658ad19f1e9209af5f899b0,SCN,2024-06-11_13h10.24.982,LearnStrategy,2023.2.3,Win32,60.24096386,1,1,1,0.263020833,0.084635417,1,0,0,2.8509,Obsidian_10,5,10,4,6,2.851,-0.391927083,-0.401041667,1,0,0,4.98,Obsidian_rect,5,4.98,1,0,0,0,0,1,,,,,,,,,,,,,
6658ad19f1e9209af5f899b0,SCN,2024-06-11_13h10.24.982,LearnStrategy,2023.2.3,Win32,60.24096386,1,1,2,-0.38671875,0.076822917,1,0,0,4.0301,Pegmatite_11,6,11,4,2,4.03,0.147135417,-0.420572917,1,0,0,9.3356,Peridotite_rect,7,9.336,0,1,0,1,0,1,,,,,,,,,,,,,
6658ad19f1e9209af5f899b0,SCN,2024-06-11_13h10.24.982,LearnStrategy,2023.2.3,Win32,60.24096386,1,1,3,0.509114583,-0.247395833,1,0,0,5.1887,Peridotite_13,7,13,2,8,5.189,0.130208333,-0.40625,1,0,0,5.7493,Peridotite_rect,7,5.749,1,2,0,2,0,1,,,,,,,,,,,,,
6658ad19f1e9209af5f899b0,SCN,2024-06-11_13h10.24.982,LearnStrategy,2023.2.3,Win32,60.24096386,1,1,4,0.083333333,-0.403645833,1,0,0,4.9806,Diorite_14,3,14,1,5,4.981,-0.141927083,-0.24609375,1,0,0,8.2575,Basalt_rect,2,8.258,0,3,0,3,0,1,,,,,,,,,,,,,
6658ad19f1e9209af5f899b0,SCN,2024-06-11_13h10.24.982,LearnStrategy,2023.2.3,Win32,60.24096386,1,1,5,-0.231770833,-0.264322917,1,0,0,3.7902,Pumice_10,8,10,2,3,3.79,0.369791667,-0.390625,1,0,0,1.693,Pumice_rect,8,1.693,1,4,0,4,0,1,,,,,,,,,,,,,
6658ad19f1e9209af5f899b0,SCN,2024-06-11_13h10.24.982,LearnStrategy,2023.2.3,Win32,60.24096386,1,1,6,0.40234375,0.240885417,1,0,0,17.4549,Andesite_16,1,16,5,7,17.455,-0.3359375,-0.244791667,1,0,0,3.3442,Andesite_rect,1,3.344,1,5,0,5,0,1,,,,,,,,,,,,,
6658ad19f1e9209af5f899b0,SCN,2024-06-11_13h10.24.982,LearnStrategy,2023.2.3,Win32,60.24096386,1,1,7,0.559895833,-0.438802083,1,0,0,4.5557,Obsidian_05,5,05,1,8,4.556,0.389322917,-0.2578125,1,0,0,7.5813,Gabbro_rect,4,7.581,0,6,0,6,0,1,,,,,,,,,,,,,
6658ad19f1e9209af5f899b0,SCN,2024-06-11_13h10.24.982,LearnStrategy,2023.2.3,Win32,60.24096386,1,1,8,-0.243489583,-0.11328125,1,0,0,3.4459,Obsidian_07,5,07,3,3,3.446,-0.192708333,-0.239583333,1,0,0,2.9716,Basalt_rect,2,2.972,0,7,0,7,0,1,,,,,,,,,,,,,
6658ad19f1e9209af5f899b0,SCN,2024-06-11_13h10.24.982,LearnStrategy,2023.2.3,Win32,60.24096386,1,1,9,0.080729167,0.233072917,1,0,0,10.5792,Peridotite_02,7,02,5,5,10.579,0.182291667,-0.397135417,1,0,0,1.9506,Peridotite_rect,7,1.951,1,8,0,8,0,1,,,,,,,,,,,,,
6658ad19f1e9209af5f899b0,SCN,2024-06-11_13h10.24.982,LearnStrategy,2023.2.3,Win32,60.24096386,1,1,10,0.38671875,0.41796875,1,0,0,7.7814,Pegmatite_16,6,16,6,7,7.781,0.141927083,-0.25,1,0,0,4.8025,Diorite_rect,3,4.803,0,9,0,9,0,1,,,,,,,,,,,,,
6658ad19f1e9209af5f899b0,SCN,2024-06-11_13h10.24.982,LearnStrategy,2023.2.3,Win32,60.24096386,1,1,11,-0.22265625,0.26953125,1,0,0,15.1292,Pumice_16,8,16,5,3,15.129,-0.12890625,-0.248697917,1,0,0,1.5827,Basalt_rect,2,1.583,0,10,0,10,0,1,,,,,,,,,,,,,
6658ad19f1e9209af5f899b0,SCN,2024-06-11_13h10.24.982,LearnStrategy,2023.2.3,Win32,60.24096386,1,1,12,0.388020833,0.102864583,1,0,0,6.8238,Pegmatite_06,6,06,4,7,6.824,0.102864583,-0.24609375,1,0,0,4.204,Diorite_rect,3,4.204,0,11,0,11,0,1,,,,,,,,,,,,,
6658ad19f1e9209af5f899b0,SCN,2024-06-11_13h10.24.982,LearnStrategy,2023.2.3,Win32,60.24096386,1,1,13,-0.395833333,-0.223958333,1,0,0,4.1802,Diorite_07,3,07,2,2,4.18,0.080729167,-0.239583333,1,0,0,2.6313,Diorite_rect,3,2.631,1,12,0,12,0,1,,,,,,,,,,,,,
6658ad19f1e9209af5f899b0,SCN,2024-06-11_13h10.24.982,LearnStrategy,2023.2.3,Win32,60.24096386,1,1,14,0.390625,-0.130208333,1,0,0,5.3746,Andesite_11,1,11,3,7,5.375,0.365885417,-0.243489583,1,0,0,5.2428,Gabbro_rect,4,5.243,0,13,0,13,0,1,,,,,,,,,,,,,
6658ad19f1e9209af5f899b0,SCN,2024-06-11_13h10.24.982,LearnStrategy,2023.2.3,Win32,60.24096386,1,1,15,-0.53515625,-0.09765625,1,0,0,4.0287,Basalt_05,2,05,3,1,4.029,-0.203125,-0.234375,1,0,0,3.0077,Basalt_rect,2,3.008,1,14,0,14,0,1,,,,,,,,,,,,,
6658ad19f1e9209af5f899b0,SCN,2024-06-11_13h10.24.982,LearnStrategy,2023.2.3,Win32,60.24096386,1,1,16,0.36328125,-0.276041667,1,0,0,6.6133,Andesite_04,1,04,2,7,6.613,0.131510417,-0.259114583,1,0,0,3.2832,Diorite_rect,3,3.283,0,15,0,15,0,1,,,,,,,,,,,,,
6658ad19f1e9209af5f899b0,SCN,2024-06-11_13h10.24.982,LearnStrategy,2023.2.3,Win32,60.24096386,1,2,1,,,,,,,,6,08,,,,,,,,,,,6,16.68,1,,,,,,-0.115885417,-0.3828125,1,0,0,16.6805,Pegmatite_rect,0,0,0,0,1,
6658ad19f1e9209af5f899b0,SCN,2024-06-11_13h10.24.982,LearnStrategy,2023.2.3,Win32,60.24096386,1,2,2,,,,,,,,3,10,,,,,,,,,,,1,16.027,0,,,,,,-0.364583333,-0.231770833,1,0,0,16.0265,Andesite_rect,1,0,1,0,1,
6658ad19f1e9209af5f899b0,SCN,2024-06-11_13h10.24.982,LearnStrategy,2023.2.3,Win32,60.24096386,1,2,3,,,,,,,,8,13,,,,,,,,,,,8,26.701,1,,,,,,0.372395833,-0.404947917,1,0,0,26.7012,Pumice_rect,2,0,2,0,1,
6658ad19f1e9209af5f899b0,SCN,2024-06-11_13h10.24.982,LearnStrategy,2023.2.3,Win32,60.24096386,1,2,4,,,,,,,,3,16,,,,,,,,,,,3,19.654,1,,,,,,0.161458333,-0.247395833,1,0,0,19.6535,Diorite_rect,3,0,3,0,1,
6658ad19f1e9209af5f899b0,SCN,2024-06-11_13h10.24.982,LearnStrategy,2023.2.3,Win32,60.24096386,1,2,5,,,,,,,,6,12,,,,,,,,,,,1,31.417,0,,,,,,-0.407552083,-0.251302083,1,0,0,31.4168,Andesite_rect,4,0,4,0,1,
6658ad19f1e9209af5f899b0,SCN,2024-06-11_13h10.24.982,LearnStrategy,2023.2.3,Win32,60.24096386,1,2,6,,,,,,,,2,06,,,,,,,,,,,5,4.162,0,,,,,,-0.368489583,-0.385416667,1,0,0,4.162,Obsidian_rect,5,0,5,0,1,
6658ad19f1e9209af5f899b0,SCN,2024-06-11_13h10.24.982,LearnStrategy,2023.2.3,Win32,60.24096386,1,2,7,,,,,,,,1,07,,,,,,,,,,,1,10.799,1,,,,,,-0.411458333,-0.255208333,1,0,0,10.7993,Andesite_rect,6,0,6,0,1,
6658ad19f1e9209af5f899b0,SCN,2024-06-11_13h10.24.982,LearnStrategy,2023.2.3,Win32,60.24096386,1,2,8,,,,,,,,8,02,,,,,,,,,,,8,3.57,1,,,,,,0.390625,-0.393229167,1,0,0,3.5704,Pumice_rect,7,0,7,0,1,
6658ad19f1e9209af5f899b0,SCN,2024-06-11_13h10.24.982,LearnStrategy,2023.2.3,Win32,60.24096386,1,2,9,,,,,,,,5,06,,,,,,,,,,,5,3.336,1,,,,,,-0.3515625,-0.403645833,1,0,0,3.3363,Obsidian_rect,8,0,8,0,1,
6658ad19f1e9209af5f899b0,SCN,2024-06-11_13h10.24.982,LearnStrategy,2023.2.3,Win32,60.24096386,1,2,10,,,,,,,,4,15,,,,,,,,,,,3,7.044,0,,,,,,0.130208333,-0.234375,1,0,0,7.0443,Diorite_rect,9,0,9,0,1,
6658ad19f1e9209af5f899b0,SCN,2024-06-11_13h10.24.982,LearnStrategy,2023.2.3,Win32,60.24096386,1,2,11,,,,,,,,1,06,,,,,,,,,,,1,11.287,1,,,,,,-0.40625,-0.2421875,1,0,0,11.2874,Andesite_rect,10,0,10,0,1,
6658ad19f1e9209af5f899b0,SCN,2024-06-11_13h10.24.982,LearnStrategy,2023.2.3,Win32,60.24096386,1,2,12,,,,,,,,7,06,,,,,,,,,,,7,4.124,1,,,,,,0.173177083,-0.380208333,1,0,0,4.1237,Peridotite_rect,11,0,11,0,1,
6658ad19f1e9209af5f899b0,SCN,2024-06-11_13h10.24.982,LearnStrategy,2023.2.3,Win32,60.24096386,1,2,13,,,,,,,,4,03,,,,,,,,,,,1,20.413,0,,,,,,-0.360677083,-0.251302083,1,0,0,20.4131,Andesite_rect,12,0,12,0,1,
6658ad19f1e9209af5f899b0,SCN,2024-06-11_13h10.24.982,LearnStrategy,2023.2.3,Win32,60.24096386,1,2,14,,,,,,,,7,05,,,,,,,,,,,4,5.004,0,,,,,,0.41015625,-0.247395833,1,0,0,5.004,Gabbro_rect,13,0,13,0,1,
6658ad19f1e9209af5f899b0,SCN,2024-06-11_13h10.24.982,LearnStrategy,2023.2.3,Win32,60.24096386,1,2,15,,,,,,,,5,12,,,,,,,,,,,4,0.721,0,,,,,,0.41015625,-0.247395833,1,0,0,0.7207,Gabbro_rect,14,0,14,0,1,
6658ad19f1e9209af5f899b0,SCN,2024-06-11_13h10.24.982,LearnStrategy,2023.2.3,Win32,60.24096386,1,2,16,,,,,,,,2,02,,,,,,,,,,,2,8.588,1,,,,,,-0.139322917,-0.263020833,1,0,0,8.5877,Basalt_rect,15,0,15,0,1,
6658ad19f1e9209af5f899b0,SCN,2024-06-11_13h10.24.982,LearnStrategy,2023.2.3,Win32,60.24096386,2,1,1,-0.505208333,0.412760417,1,0,0,3.7455,Basalt_11,2,11,6,1,3.745,-0.096354167,-0.23046875,1,0,0,11.1957,Basalt_rect,2,11.196,1,0,0,0,0,1,,,,,,,,,,,,,
6658ad19f1e9209af5f899b0,SCN,2024-06-11_13h10.24.982,LearnStrategy,2023.2.3,Win32,60.24096386,2,1,2,-0.408854167,-0.098958333,1,0,0,2.4435,Pumice_03,8,03,3,2,2.443,0.39453125,-0.419270833,1,0,0,5.2674,Pumice_rect,8,5.267,1,1,0,1,0,1,,,,,,,,,,,,,
6658ad19f1e9209af5f899b0,SCN,2024-06-11_13h10.24.982,LearnStrategy,2023.2.3,Win32,60.24096386,2,1,3,0.37109375,-0.108072917,1,0,0,1.8304,Andesite_11,1,11,3,7,1.83,-0.34375,-0.229166667,1,0,0,3.4465,Andesite_rect,1,3.447,1,2,0,2,0,1,,,,,,,,,,,,,
6658ad19f1e9209af5f899b0,SCN,2024-06-11_13h10.24.982,LearnStrategy,2023.2.3,Win32,60.24096386,2,1,4,-0.2421875,-0.391927083,1,0,0,3.0793,Pegmatite_13,6,13,1,3,3.079,0.4140625,-0.235677083,1,0,0,4.597,Gabbro_rect,4,4.597,0,3,0,3,0,1,,,,,,,,,,,,,
6658ad19f1e9209af5f899b0,SCN,2024-06-11_13h10.24.982,LearnStrategy,2023.2.3,Win32,60.24096386,2,1,5,0.071614583,0.08984375,1,0,0,7.2218,Peridotite_04,7,04,4,5,7.222,-0.092447917,-0.388020833,1,0,0,2.3589,Pegmatite_rect,6,2.359,0,4,0,4,0,1,,,,,,,,,,,,,
6658ad19f1e9209af5f899b0,SCN,2024-06-11_13h10.24.982,LearnStrategy,2023.2.3,Win32,60.24096386,2,1,6,-0.526041667,-0.260416667,1,0,0,3.4889,Pegmatite_05,6,05,2,1,3.489,0.095052083,-0.265625,1,0,0,3.5578,Diorite_rect,3,3.558,0,5,0,5,0,1,,,,,,,,,,,,,
6658ad19f1e9209af5f899b0,SCN,2024-06-11_13h10.24.982,LearnStrategy,2023.2.3,Win32,60.24096386,2,1,7,0.259114583,0.23828125,1,0,0,3.5788,Pegmatite_09,6,09,5,6,3.579,0.161458333,-0.399739583,1,0,0,2.3404,Peridotite_rect,7,2.34,0,6,0,6,0,1,,,,,,,,,,,,,
6658ad19f1e9209af5f899b0,SCN,2024-06-11_13h10.24.982,LearnStrategy,2023.2.3,Win32,60.24096386,2,1,8,0.091145833,0.380208333,1,0,0,3.4132,Basalt_10,2,10,6,5,3.413,-0.1328125,-0.251302083,1,0,0,2.6185,Basalt_rect,2,2.619,1,7,0,7,0,1,,,,,,,,,,,,,
6658ad19f1e9209af5f899b0,SCN,2024-06-11_13h10.24.982,LearnStrategy,2023.2.3,Win32,60.24096386,2,1,9,-0.069010417,0.0859375,1,0,0,7,Peridotite_07,7,07,4,4,7,-0.079427083,-0.404947917,1,0,0,2.543,Pegmatite_rect,6,2.543,0,8,0,8,0,1,,,,,,,,,,,,,
6658ad19f1e9209af5f899b0,SCN,2024-06-11_13h10.24.982,LearnStrategy,2023.2.3,Win32,60.24096386,2,1,10,-0.096354167,-0.263020833,1,0,0,3.4636,Andesite_01,1,01,2,4,3.464,-0.345052083,-0.235677083,1,0,0,5.8643,Andesite_rect,1,5.864,1,9,0,9,0,1,,,,,,,,,,,,,
6658ad19f1e9209af5f899b0,SCN,2024-06-11_13h10.24.982,LearnStrategy,2023.2.3,Win32,60.24096386,2,1,11,0.399739583,-0.276041667,1,0,0,2.0915,Andesite_04,1,04,2,7,2.091,-0.391927083,-0.2578125,1,0,0,2.4839,Andesite_rect,1,2.484,1,10,0,10,0,1,,,,,,,,,,,,,
6658ad19f1e9209af5f899b0,SCN,2024-06-11_13h10.24.982,LearnStrategy,2023.2.3,Win32,60.24096386,2,1,12,-0.040364583,-0.4375,1,0,0,5.2472,Peridotite_12,7,12,1,4,5.247,0.134114583,-0.408854167,1,0,0,2.5159,Peridotite_rect,7,2.516,1,11,0,11,0,1,,,,,,,,,,,,,
6658ad19f1e9209af5f899b0,SCN,2024-06-11_13h10.24.982,LearnStrategy,2023.2.3,Win32,60.24096386,2,1,13,0.540364583,-0.106770833,1,0,0,3.3753,Diorite_09,3,09,3,8,3.375,0.092447917,-0.240885417,1,0,0,1.652,Diorite_rect,3,1.652,1,12,0,12,0,1,,,,,,,,,,,,,
6658ad19f1e9209af5f899b0,SCN,2024-06-11_13h10.24.982,LearnStrategy,2023.2.3,Win32,60.24096386,2,1,14,0.20703125,-0.265625,1,0,0,5.2136,Diorite_13,3,13,2,6,5.214,0.127604167,-0.239583333,1,0,0,2.2509,Diorite_rect,3,2.251,1,13,0,13,0,1,,,,,,,,,,,,,
6658ad19f1e9209af5f899b0,SCN,2024-06-11_13h10.24.982,LearnStrategy,2023.2.3,Win32,60.24096386,2,1,15,-0.58203125,0.080729167,1,0,0,4.6468,Diorite_06,3,06,4,1,4.647,-0.427083333,-0.25390625,1,0,0,1.3834,Andesite_rect,1,1.383,0,14,0,14,0,1,,,,,,,,,,,,,
6658ad19f1e9209af5f899b0,SCN,2024-06-11_13h10.24.982,LearnStrategy,2023.2.3,Win32,60.24096386,2,1,16,-0.348958333,0.256510417,1,0,0,2.5116,Gabbro_13,4,13,5,2,2.512,0.139322917,-0.240885417,1,0,0,2.2929,Diorite_rect,3,2.293,0,15,0,15,0,1,,,,,,,,,,,,,
6658ad19f1e9209af5f899b0,SCN,2024-06-11_13h10.24.982,LearnStrategy,2023.2.3,Win32,60.24096386,2,2,1,,,,,,,,6,07,,,,,,,,,,,6,14.939,1,,,,,,-0.09765625,-0.390625,1,0,0,14.9388,Pegmatite_rect,0,0,0,0,1,
6658ad19f1e9209af5f899b0,SCN,2024-06-11_13h10.24.982,LearnStrategy,2023.2.3,Win32,60.24096386,2,2,2,,,,,,,,4,01,,,,,,,,,,,1,7.887,0,,,,,,-0.372395833,-0.23828125,1,0,0,7.8865,Andesite_rect,1,0,1,0,1,
6658ad19f1e9209af5f899b0,SCN,2024-06-11_13h10.24.982,LearnStrategy,2023.2.3,Win32,60.24096386,2,2,3,,,,,,,,2,12,,,,,,,,,,,8,2.687,0,,,,,,0.451822917,-0.391927083,1,0,0,2.6865,Pumice_rect,2,0,2,0,1,
6658ad19f1e9209af5f899b0,SCN,2024-06-11_13h10.24.982,LearnStrategy,2023.2.3,Win32,60.24096386,2,2,4,,,,,,,,5,11,,,,,,,,,,,5,2.595,1,,,,,,-0.330729167,-0.39453125,1,0,0,2.5955,Obsidian_rect,3,0,3,0,1,
6658ad19f1e9209af5f899b0,SCN,2024-06-11_13h10.24.982,LearnStrategy,2023.2.3,Win32,60.24096386,2,2,5,,,,,,,,6,15,,,,,,,,,,,6,12.289,1,,,,,,-0.140625,-0.403645833,1,0,0,12.2893,Pegmatite_rect,4,0,4,0,1,
6658ad19f1e9209af5f899b0,SCN,2024-06-11_13h10.24.982,LearnStrategy,2023.2.3,Win32,60.24096386,2,2,6,,,,,,,,7,08,,,,,,,,,,,7,4.488,1,,,,,,0.14453125,-0.395833333,1,0,0,4.4884,Peridotite_rect,5,0,5,0,1,
6658ad19f1e9209af5f899b0,SCN,2024-06-11_13h10.24.982,LearnStrategy,2023.2.3,Win32,60.24096386,2,2,7,,,,,,,,8,06,,,,,,,,,,,8,5.671,1,,,,,,0.428385417,-0.401041667,1,0,0,5.6708,Pumice_rect,6,0,6,0,1,
6658ad19f1e9209af5f899b0,SCN,2024-06-11_13h10.24.982,LearnStrategy,2023.2.3,Win32,60.24096386,2,2,8,,,,,,,,4,08,,,,,,,,,,,1,5.888,0,,,,,,-0.393229167,-0.247395833,1,0,0,5.888,Andesite_rect,7,0,7,0,1,
6658ad19f1e9209af5f899b0,SCN,2024-06-11_13h10.24.982,LearnStrategy,2023.2.3,Win32,60.24096386,2,2,9,,,,,,,,2,04,,,,,,,,,,,2,2.105,1,,,,,,-0.127604167,-0.240885417,1,0,0,2.1052,Basalt_rect,8,0,8,0,1,
6658ad19f1e9209af5f899b0,SCN,2024-06-11_13h10.24.982,LearnStrategy,2023.2.3,Win32,60.24096386,2,2,10,,,,,,,,1,02,,,,,,,,,,,2,2.083,0,,,,,,-0.127604167,-0.240885417,1,0,0,2.0825,Basalt_rect,9,0,9,0,1,
6658ad19f1e9209af5f899b0,SCN,2024-06-11_13h10.24.982,LearnStrategy,2023.2.3,Win32,60.24096386,2,2,11,,,,,,,,3,02,,,,,,,,,,,3,3.889,1,,,,,,0.126302083,-0.252604167,1,0,0,3.8888,Diorite_rect,10,0,10,0,1,
6658ad19f1e9209af5f899b0,SCN,2024-06-11_13h10.24.982,LearnStrategy,2023.2.3,Win32,60.24096386,2,2,12,,,,,,,,1,14,,,,,,,,,,,1,4.296,1,,,,,,-0.395833333,-0.240885417,1,0,0,4.2956,Andesite_rect,11,0,11,0,1,
6658ad19f1e9209af5f899b0,SCN,2024-06-11_13h10.24.982,LearnStrategy,2023.2.3,Win32,60.24096386,2,2,13,,,,,,,,7,10,,,,,,,,,,,7,3.088,1,,,,,,0.151041667,-0.393229167,1,0,0,3.088,Peridotite_rect,12,0,12,0,1,
6658ad19f1e9209af5f899b0,SCN,2024-06-11_13h10.24.982,LearnStrategy,2023.2.3,Win32,60.24096386,2,2,14,,,,,,,,8,14,,,,,,,,,,,8,1.757,1,,,,,,0.372395833,-0.403645833,1,0,0,1.7572,Pumice_rect,13,0,13,0,1,
6658ad19f1e9209af5f899b0,SCN,2024-06-11_13h10.24.982,LearnStrategy,2023.2.3,Win32,60.24096386,2,2,15,,,,,,,,3,11,,,,,,,,,,,3,5.576,1,,,,,,0.130208333,-0.243489583,1,0,0,5.5764,Diorite_rect,14,0,14,0,1,
6658ad19f1e9209af5f899b0,SCN,2024-06-11_13h10.24.982,LearnStrategy,2023.2.3,Win32,60.24096386,2,2,16,,,,,,,,5,09,,,,,,,,,,,5,2.086,1,,,,,,-0.438802083,-0.395833333,1,0,0,2.0856,Obsidian_rect,15,0,15,0,1,
6658ad19f1e9209af5f899b0,SCN,2024-06-11_13h10.24.982,LearnStrategy,2023.2.3,Win32,60.24096386,3,1,1,-0.377604167,0.274739583,1,0,0,3.9968,Gabbro_13,4,13,5,2,3.997,0.444010417,-0.251302083,1,0,0,2.4498,Gabbro_rect,4,2.45,1,0,0,0,0,1,,,,,,,,,,,,,
6658ad19f1e9209af5f899b0,SCN,2024-06-11_13h10.24.982,LearnStrategy,2023.2.3,Win32,60.24096386,3,1,2,0.100260417,-0.104166667,1,0,0,6.1324,Gabbro_14,4,14,3,5,6.132,0.375,-0.239583333,1,0,0,1.93,Gabbro_rect,4,1.93,1,1,0,1,0,1,,,,,,,,,,,,,
6658ad19f1e9209af5f899b0,SCN,2024-06-11_13h10.24.982,LearnStrategy,2023.2.3,Win32,60.24096386,3,1,3,-0.384114583,-0.4140625,1,0,0,8.1458,Basalt_16,2,16,1,2,8.146,0.375,-0.25,1,0,0,2.6351,Gabbro_rect,4,2.635,0,2,0,2,0,1,,,,,,,,,,,,,
6658ad19f1e9209af5f899b0,SCN,2024-06-11_13h10.24.982,LearnStrategy,2023.2.3,Win32,60.24096386,3,1,4,-0.522135417,-0.270833333,1,0,0,2.3109,Pegmatite_05,6,05,2,1,2.311,-0.166666667,-0.380208333,1,0,0,2.5816,Pegmatite_rect,6,2.582,1,3,0,3,0,1,,,,,,,,,,,,,
6658ad19f1e9209af5f899b0,SCN,2024-06-11_13h10.24.982,LearnStrategy,2023.2.3,Win32,60.24096386,3,1,5,-0.048177083,-0.251302083,1,0,0,5.2248,Andesite_01,1,01,2,4,5.225,0.147135417,-0.23046875,1,0,0,1.3993,Diorite_rect,3,1.399,0,4,0,4,0,1,,,,,,,,,,,,,
6658ad19f1e9209af5f899b0,SCN,2024-06-11_13h10.24.982,LearnStrategy,2023.2.3,Win32,60.24096386,3,1,6,0.274739583,-0.25,1,0,0,1.8466,Diorite_13,3,13,2,6,1.847,0.106770833,-0.244791667,1,0,0,1.5536,Diorite_rect,3,1.554,1,5,0,5,0,1,,,,,,,,,,,,,
6658ad19f1e9209af5f899b0,SCN,2024-06-11_13h10.24.982,LearnStrategy,2023.2.3,Win32,60.24096386,3,1,7,-0.23046875,0.098958333,1,0,0,1.6795,Pumice_08,8,08,4,3,1.68,0.372395833,-0.395833333,1,0,0,1.9994,Pumice_rect,8,1.999,1,6,0,6,0,1,,,,,,,,,,,,,
6658ad19f1e9209af5f899b0,SCN,2024-06-11_13h10.24.982,LearnStrategy,2023.2.3,Win32,60.24096386,3,1,8,0.397135417,-0.091145833,1,0,0,2.376,Andesite_11,1,11,3,7,2.376,-0.38671875,-0.233072917,1,0,0,3.0344,Andesite_rect,1,3.034,1,7,0,7,0,1,,,,,,,,,,,,,
6658ad19f1e9209af5f899b0,SCN,2024-06-11_13h10.24.982,LearnStrategy,2023.2.3,Win32,60.24096386,3,1,9,0.3828125,-0.399739583,1,0,0,5.7956,Gabbro_11,4,11,1,7,5.796,-0.17578125,-0.234375,1,0,0,1.5517,Basalt_rect,2,1.552,0,8,0,8,0,1,,,,,,,,,,,,,
6658ad19f1e9209af5f899b0,SCN,2024-06-11_13h10.24.982,LearnStrategy,2023.2.3,Win32,60.24096386,3,1,10,-0.083333333,-0.265625,1,0,0,2.4459,Andesite_01,1,01,2,4,2.446,-0.444010417,-0.233072917,1,0,0,2.7437,Andesite_rect,1,2.744,1,9,0,9,0,1,,,,,,,,,,,,,
6658ad19f1e9209af5f899b0,SCN,2024-06-11_13h10.24.982,LearnStrategy,2023.2.3,Win32,60.24096386,3,1,11,-0.41015625,-0.390625,1,0,0,2.2343,Basalt_16,2,16,1,2,2.234,-0.130208333,-0.234375,1,0,0,2.0677,Basalt_rect,2,2.068,1,10,0,10,0,1,,,,,,,,,,,,,
6658ad19f1e9209af5f899b0,SCN,2024-06-11_13h10.24.982,LearnStrategy,2023.2.3,Win32,60.24096386,3,1,12,-0.545572917,0.41015625,1,0,0,5.292,Basalt_11,2,11,6,1,5.292,0.45703125,-0.38671875,1,0,0,2.4201,Pumice_rect,8,2.42,0,11,0,11,0,1,,,,,,,,,,,,,
6658ad19f1e9209af5f899b0,SCN,2024-06-11_13h10.24.982,LearnStrategy,2023.2.3,Win32,60.24096386,3,1,13,-0.385416667,0.420572917,1,0,0,1.3121,Pumice_05,8,05,6,2,1.312,0.385416667,-0.391927083,1,0,0,2.186,Pumice_rect,8,2.186,1,12,0,12,0,1,,,,,,,,,,,,,
6658ad19f1e9209af5f899b0,SCN,2024-06-11_13h10.24.982,LearnStrategy,2023.2.3,Win32,60.24096386,3,1,14,-0.235677083,0.3984375,1,0,0,1.4299,Obsidian_04,5,04,6,3,1.43,-0.41015625,-0.393229167,1,0,0,1.3836,Obsidian_rect,5,1.384,1,13,0,13,0,1,,,,,,,,,,,,,
6658ad19f1e9209af5f899b0,SCN,2024-06-11_13h10.24.982,LearnStrategy,2023.2.3,Win32,60.24096386,3,1,15,-0.075520833,0.41015625,1,0,0,1.2066,Basalt_09,2,09,6,4,1.207,-0.138020833,-0.24609375,1,0,0,2.0651,Basalt_rect,2,2.065,1,14,0,14,0,1,,,,,,,,,,,,,
6658ad19f1e9209af5f899b0,SCN,2024-06-11_13h10.24.982,LearnStrategy,2023.2.3,Win32,60.24096386,3,1,16,0.075520833,0.4296875,1,0,0,1.1627,Basalt_10,2,10,6,5,1.163,-0.095052083,-0.24609375,1,0,0,3.2388,Basalt_rect,2,3.239,1,15,0,15,0,1,,,,,,,,,,,,,
6658ad19f1e9209af5f899b0,SCN,2024-06-11_13h10.24.982,LearnStrategy,2023.2.3,Win32,60.24096386,3,2,1,,,,,,,,6,03,,,,,,,,,,,6,4.136,1,,,,,,-0.1640625,-0.412760417,1,0,0,4.1364,Pegmatite_rect,0,0,0,0,1,
6658ad19f1e9209af5f899b0,SCN,2024-06-11_13h10.24.982,LearnStrategy,2023.2.3,Win32,60.24096386,3,2,2,,,,,,,,2,01,,,,,,,,,,,2,1.921,1,,,,,,-0.140625,-0.255208333,1,0,0,1.9205,Basalt_rect,1,0,1,0,1,
6658ad19f1e9209af5f899b0,SCN,2024-06-11_13h10.24.982,LearnStrategy,2023.2.3,Win32,60.24096386,3,2,3,,,,,,,,3,15,,,,,,,,,,,3,5.53,1,,,,,,0.138020833,-0.243489583,1,0,0,5.5304,Diorite_rect,2,0,2,0,1,
6658ad19f1e9209af5f899b0,SCN,2024-06-11_13h10.24.982,LearnStrategy,2023.2.3,Win32,60.24096386,3,2,4,,,,,,,,7,16,,,,,,,,,,,4,2.883,0,,,,,,0.42578125,-0.247395833,1,0,0,2.8826,Gabbro_rect,3,0,3,0,1,
6658ad19f1e9209af5f899b0,SCN,2024-06-11_13h10.24.982,LearnStrategy,2023.2.3,Win32,60.24096386,3,2,5,,,,,,,,8,04,,,,,,,,,,,8,3.028,1,,,,,,0.404947917,-0.408854167,1,0,0,3.0283,Pumice_rect,4,0,4,0,1,
6658ad19f1e9209af5f899b0,SCN,2024-06-11_13h10.24.982,LearnStrategy,2023.2.3,Win32,60.24096386,3,2,6,,,,,,,,4,10,,,,,,,,,,,4,9.058,1,,,,,,0.38671875,-0.252604167,1,0,0,9.058,Gabbro_rect,5,0,5,0,1,
6658ad19f1e9209af5f899b0,SCN,2024-06-11_13h10.24.982,LearnStrategy,2023.2.3,Win32,60.24096386,3,2,7,,,,,,,,3,12,,,,,,,,,,,3,6.055,1,,,,,,0.138020833,-0.264322917,1,0,0,6.0545,Diorite_rect,6,0,6,0,1,
6658ad19f1e9209af5f899b0,SCN,2024-06-11_13h10.24.982,LearnStrategy,2023.2.3,Win32,60.24096386,3,2,8,,,,,,,,8,09,,,,,,,,,,,8,2.112,1,,,,,,0.38671875,-0.395833333,1,0,0,2.1117,Pumice_rect,7,0,7,0,1,
6658ad19f1e9209af5f899b0,SCN,2024-06-11_13h10.24.982,LearnStrategy,2023.2.3,Win32,60.24096386,3,2,9,,,,,,,,1,09,,,,,,,,,,,1,3.755,1,,,,,,-0.34765625,-0.239583333,1,0,0,3.7554,Andesite_rect,8,0,8,0,1,
6658ad19f1e9209af5f899b0,SCN,2024-06-11_13h10.24.982,LearnStrategy,2023.2.3,Win32,60.24096386,3,2,10,,,,,,,,5,08,,,,,,,,,,,5,2.032,1,,,,,,-0.384114583,-0.404947917,1,0,0,2.0325,Obsidian_rect,9,0,9,0,1,
6658ad19f1e9209af5f899b0,SCN,2024-06-11_13h10.24.982,LearnStrategy,2023.2.3,Win32,60.24096386,3,2,11,,,,,,,,1,03,,,,,,,,,,,3,4.731,0,,,,,,0.1015625,-0.252604167,1,0,0,4.7308,Diorite_rect,10,0,10,0,1,
6658ad19f1e9209af5f899b0,SCN,2024-06-11_13h10.24.982,LearnStrategy,2023.2.3,Win32,60.24096386,3,2,12,,,,,,,,2,14,,,,,,,,,,,4,4.39,0,,,,,,0.404947917,-0.265625,1,0,0,4.3901,Gabbro_rect,11,0,11,0,1,
6658ad19f1e9209af5f899b0,SCN,2024-06-11_13h10.24.982,LearnStrategy,2023.2.3,Win32,60.24096386,3,2,13,,,,,,,,7,14,,,,,,,,,,,7,3.197,1,,,,,,0.126302083,-0.416666667,1,0,0,3.1965,Peridotite_rect,12,0,12,0,1,
6658ad19f1e9209af5f899b0,SCN,2024-06-11_13h10.24.982,LearnStrategy,2023.2.3,Win32,60.24096386,3,2,14,,,,,,,,5,14,,,,,,,,,,,5,1.795,1,,,,,,-0.388020833,-0.39453125,1,0,0,1.7946,Obsidian_rect,13,0,13,0,1,
6658ad19f1e9209af5f899b0,SCN,2024-06-11_13h10.24.982,LearnStrategy,2023.2.3,Win32,60.24096386,3,2,15,,,,,,,,6,10,,,,,,,,,,,6,7.264,1,,,,,,-0.125,-0.412760417,1,0,0,7.2642,Pegmatite_rect,14,0,14,0,1,
6658ad19f1e9209af5f899b0,SCN,2024-06-11_13h10.24.982,LearnStrategy,2023.2.3,Win32,60.24096386,3,2,16,,,,,,,,4,09,,,,,,,,,,,2,2.63,0,,,,,,-0.12109375,-0.248697917,1,0,0,2.6296,Basalt_rect,15,0,15,0,1,
6658ad19f1e9209af5f899b0,SCN,2024-06-11_13h10.24.982,LearnStrategy,2023.2.3,Win32,60.24096386,4,1,1,0.578125,0.4140625,1,0,0,4.0299,Gabbro_16,4,16,6,8,4.03,0.375,-0.23828125,1,0,0,1.6515,Gabbro_rect,4,1.651,1,0,0,0,0,1,,,,,,,,,,,,,
6658ad19f1e9209af5f899b0,SCN,2024-06-11_13h10.24.982,LearnStrategy,2023.2.3,Win32,60.24096386,4,1,2,-0.501302083,0.266927083,1,0,0,1.3132,Obsidian_02,5,02,5,1,1.313,-0.3828125,-0.3984375,1,0,0,1.4181,Obsidian_rect,5,1.418,1,1,0,1,0,1,,,,,,,,,,,,,
6658ad19f1e9209af5f899b0,SCN,2024-06-11_13h10.24.982,LearnStrategy,2023.2.3,Win32,60.24096386,4,1,3,-0.391927083,0.2421875,1,0,0,1.3073,Gabbro_13,4,13,5,2,1.307,0.329427083,-0.243489583,1,0,0,1.7586,Gabbro_rect,4,1.759,1,2,0,2,0,1,,,,,,,,,,,,,
6658ad19f1e9209af5f899b0,SCN,2024-06-11_13h10.24.982,LearnStrategy,2023.2.3,Win32,60.24096386,4,1,4,-0.213541667,0.236979167,1,0,0,1.1644,Pumice_16,8,16,5,3,1.164,0.388020833,-0.38671875,1,0,0,2.4363,Pumice_rect,8,2.436,1,3,0,3,0,1,,,,,,,,,,,,,
6658ad19f1e9209af5f899b0,SCN,2024-06-11_13h10.24.982,LearnStrategy,2023.2.3,Win32,60.24096386,4,1,5,-0.076822917,0.264322917,1,0,0,1.0962,Gabbro_12,4,12,5,4,1.096,0.114583333,-0.26953125,1,0,0,5.5308,Diorite_rect,3,5.531,0,4,0,4,0,1,,,,,,,,,,,,,
6658ad19f1e9209af5f899b0,SCN,2024-06-11_13h10.24.982,LearnStrategy,2023.2.3,Win32,60.24096386,4,1,6,0.0546875,0.25390625,1,0,0,1.1325,Peridotite_02,7,02,5,5,1.132,0.1015625,-0.388020833,1,0,0,3.1404,Peridotite_rect,7,3.14,1,5,0,5,0,1,,,,,,,,,,,,,
6658ad19f1e9209af5f899b0,SCN,2024-06-11_13h10.24.982,LearnStrategy,2023.2.3,Win32,60.24096386,4,1,7,0.25,0.251302083,1,0,0,1.5955,Pegmatite_09,6,09,5,6,1.595,-0.14453125,-0.401041667,1,0,0,1.8118,Pegmatite_rect,6,1.812,1,6,0,6,0,1,,,,,,,,,,,,,
6658ad19f1e9209af5f899b0,SCN,2024-06-11_13h10.24.982,LearnStrategy,2023.2.3,Win32,60.24096386,4,1,8,0.385416667,0.28125,1,0,0,1.3908,Andesite_16,1,16,5,7,1.391,0.110677083,-0.26953125,1,0,0,2.5295,Diorite_rect,3,2.53,0,7,0,7,0,1,,,,,,,,,,,,,
6658ad19f1e9209af5f899b0,SCN,2024-06-11_13h10.24.982,LearnStrategy,2023.2.3,Win32,60.24096386,4,1,9,0.569010417,0.263020833,1,0,0,1.5313,Andesite_05,1,05,5,8,1.531,-0.4296875,-0.255208333,1,0,0,2.1427,Andesite_rect,1,2.143,1,8,0,8,0,1,,,,,,,,,,,,,
6658ad19f1e9209af5f899b0,SCN,2024-06-11_13h10.24.982,LearnStrategy,2023.2.3,Win32,60.24096386,4,1,10,-0.56640625,0.08203125,1,0,0,1.3477,Diorite_06,3,06,4,1,1.348,0.080729167,-0.235677083,1,0,0,4.807,Diorite_rect,3,4.807,1,9,0,9,0,1,,,,,,,,,,,,,
6658ad19f1e9209af5f899b0,SCN,2024-06-11_13h10.24.982,LearnStrategy,2023.2.3,Win32,60.24096386,4,1,11,-0.399739583,0.084635417,1,0,0,1.0627,Pegmatite_11,6,11,4,2,1.063,-0.141927083,-0.3828125,1,0,0,1.9615,Pegmatite_rect,6,1.962,1,10,0,10,0,1,,,,,,,,,,,,,
6658ad19f1e9209af5f899b0,SCN,2024-06-11_13h10.24.982,LearnStrategy,2023.2.3,Win32,60.24096386,4,1,12,-0.252604167,0.127604167,1,0,0,1.06,Pumice_08,8,08,4,3,1.06,0.408854167,-0.393229167,1,0,0,1.5217,Pumice_rect,8,1.522,1,11,0,11,0,1,,,,,,,,,,,,,
6658ad19f1e9209af5f899b0,SCN,2024-06-11_13h10.24.982,LearnStrategy,2023.2.3,Win32,60.24096386,4,1,13,-0.067708333,0.108072917,1,0,0,0.981,Peridotite_07,7,07,4,4,0.981,0.415364583,-0.25,1,0,0,4.1203,Gabbro_rect,4,4.12,0,12,0,12,0,1,,,,,,,,,,,,,
6658ad19f1e9209af5f899b0,SCN,2024-06-11_13h10.24.982,LearnStrategy,2023.2.3,Win32,60.24096386,4,1,14,0.078125,0.106770833,1,0,0,1.1456,Peridotite_04,7,04,4,5,1.146,-0.126302083,-0.401041667,1,0,0,1.5294,Pegmatite_rect,6,1.529,0,13,0,13,0,1,,,,,,,,,,,,,
6658ad19f1e9209af5f899b0,SCN,2024-06-11_13h10.24.982,LearnStrategy,2023.2.3,Win32,60.24096386,4,1,15,0.23828125,0.075520833,1,0,0,1.1137,Obsidian_10,5,10,4,6,1.114,-0.451822917,-0.384114583,1,0,0,1.5367,Obsidian_rect,5,1.537,1,14,0,14,0,1,,,,,,,,,,,,,
6658ad19f1e9209af5f899b0,SCN,2024-06-11_13h10.24.982,LearnStrategy,2023.2.3,Win32,60.24096386,4,1,16,0.424479167,0.08984375,1,0,0,1.2636,Pegmatite_06,6,06,4,7,1.264,-0.091145833,-0.3984375,1,0,0,3.5032,Pegmatite_rect,6,3.503,1,15,0,15,0,1,,,,,,,,,,,,,
6658ad19f1e9209af5f899b0,SCN,2024-06-11_13h10.24.982,LearnStrategy,2023.2.3,Win32,60.24096386,4,2,1,,,,,,,,7,05,,,,,,,,,,,4,4.289,0,,,,,,0.3828125,-0.240885417,1,0,0,4.2888,Gabbro_rect,0,0,0,0,1,
6658ad19f1e9209af5f899b0,SCN,2024-06-11_13h10.24.982,LearnStrategy,2023.2.3,Win32,60.24096386,4,2,2,,,,,,,,1,02,,,,,,,,,,,3,3.022,0,,,,,,0.15625,-0.260416667,1,0,0,3.0216,Diorite_rect,1,0,1,0,1,
6658ad19f1e9209af5f899b0,SCN,2024-06-11_13h10.24.982,LearnStrategy,2023.2.3,Win32,60.24096386,4,2,3,,,,,,,,3,10,,,,,,,,,,,3,5.172,1,,,,,,0.15625,-0.260416667,1,0,0,5.1719,Diorite_rect,2,0,2,0,1,
6658ad19f1e9209af5f899b0,SCN,2024-06-11_13h10.24.982,LearnStrategy,2023.2.3,Win32,60.24096386,4,2,4,,,,,,,,5,11,,,,,,,,,,,5,1.707,1,,,,,,-0.4140625,-0.408854167,1,0,0,1.7071,Obsidian_rect,3,0,3,0,1,
6658ad19f1e9209af5f899b0,SCN,2024-06-11_13h10.24.982,LearnStrategy,2023.2.3,Win32,60.24096386,4,2,5,,,,,,,,1,03,,,,,,,,,,,1,2.364,1,,,,,,-0.376302083,-0.247395833,1,0,0,2.3637,Andesite_rect,4,0,4,0,1,
6658ad19f1e9209af5f899b0,SCN,2024-06-11_13h10.24.982,LearnStrategy,2023.2.3,Win32,60.24096386,4,2,6,,,,,,,,4,01,,,,,,,,,,,1,3.321,0,,,,,,-0.380208333,-0.234375,1,0,0,3.3207,Andesite_rect,5,0,5,0,1,
6658ad19f1e9209af5f899b0,SCN,2024-06-11_13h10.24.982,LearnStrategy,2023.2.3,Win32,60.24096386,4,2,7,,,,,,,,6,15,,,,,,,,,,,6,1.804,1,,,,,,-0.131510417,-0.38671875,1,0,0,1.8042,Pegmatite_rect,6,0,6,0,1,
6658ad19f1e9209af5f899b0,SCN,2024-06-11_13h10.24.982,LearnStrategy,2023.2.3,Win32,60.24096386,4,2,8,,,,,,,,3,11,,,,,,,,,,,3,4.721,1,,,,,,0.145833333,-0.26171875,1,0,0,4.7206,Diorite_rect,7,0,7,0,1,
6658ad19f1e9209af5f899b0,SCN,2024-06-11_13h10.24.982,LearnStrategy,2023.2.3,Win32,60.24096386,4,2,9,,,,,,,,2,06,,,,,,,,,,,2,2.273,1,,,,,,-0.096354167,-0.259114583,1,0,0,2.2731,Basalt_rect,8,0,8,0,1,
6658ad19f1e9209af5f899b0,SCN,2024-06-11_13h10.24.982,LearnStrategy,2023.2.3,Win32,60.24096386,4,2,10,,,,,,,,6,07,,,,,,,,,,,6,1.839,1,,,,,,-0.106770833,-0.408854167,1,0,0,1.8394,Pegmatite_rect,9,0,9,0,1,
6658ad19f1e9209af5f899b0,SCN,2024-06-11_13h10.24.982,LearnStrategy,2023.2.3,Win32,60.24096386,4,2,11,,,,,,,,2,14,,,,,,,,,,,8,3.018,0,,,,,,0.40625,-0.401041667,1,0,0,3.0183,Pumice_rect,10,0,10,0,1,
6658ad19f1e9209af5f899b0,SCN,2024-06-11_13h10.24.982,LearnStrategy,2023.2.3,Win32,60.24096386,4,2,12,,,,,,,,7,10,,,,,,,,,,,7,2.384,1,,,,,,0.139322917,-0.412760417,1,0,0,2.3836,Peridotite_rect,11,0,11,0,1,
6658ad19f1e9209af5f899b0,SCN,2024-06-11_13h10.24.982,LearnStrategy,2023.2.3,Win32,60.24096386,4,2,13,,,,,,,,8,09,,,,,,,,,,,8,3.19,1,,,,,,0.346354167,-0.388020833,1,0,0,3.1896,Pumice_rect,12,0,12,0,1,
6658ad19f1e9209af5f899b0,SCN,2024-06-11_13h10.24.982,LearnStrategy,2023.2.3,Win32,60.24096386,4,2,14,,,,,,,,4,15,,,,,,,,,,,4,2.171,1,,,,,,0.388020833,-0.229166667,1,0,0,2.1713,Gabbro_rect,13,0,13,0,1,
6658ad19f1e9209af5f899b0,SCN,2024-06-11_13h10.24.982,LearnStrategy,2023.2.3,Win32,60.24096386,4,2,15,,,,,,,,5,08,,,,,,,,,,,5,1.921,1,,,,,,-0.38671875,-0.397135417,1,0,0,1.9213,Obsidian_rect,14,0,14,0,1,
6658ad19f1e9209af5f899b0,SCN,2024-06-11_13h10.24.982,LearnStrategy,2023.2.3,Win32,60.24096386,4,2,16,,,,,,,,8,13,,,,,,,,,,,2,9.755,0,,,,,,-0.145833333,-0.236979167,1,0,0,9.755,Basalt_rect,15,0,15,0,1,
6658ad19f1e9209af5f899b0,SCN,2024-06-11_13h10.24.982,LearnStrategy,2023.2.3,Win32,60.24096386,5,1,1,-0.557291667,-0.125,1,0,0,5.2371,Basalt_05,2,05,3,1,5.237,-0.151041667,-0.234375,1,0,0,1.4362,Basalt_rect,2,1.436,1,0,0,0,0,1,,,,,,,,,,,,,
6658ad19f1e9209af5f899b0,SCN,2024-06-11_13h10.24.982,LearnStrategy,2023.2.3,Win32,60.24096386,5,1,2,-0.3828125,-0.104166667,1,0,0,1.3634,Pumice_03,8,03,3,2,1.363,0.404947917,-0.40234375,1,0,0,2.1371,Pumice_rect,8,2.137,1,1,0,1,0,1,,,,,,,,,,,,,
6658ad19f1e9209af5f899b0,SCN,2024-06-11_13h10.24.982,LearnStrategy,2023.2.3,Win32,60.24096386,5,1,3,-0.233072917,-0.08984375,1,0,0,1.3133,Obsidian_07,5,07,3,3,1.313,-0.403645833,-0.401041667,1,0,0,1.6013,Obsidian_rect,5,1.601,1,2,0,2,0,1,,,,,,,,,,,,,
6658ad19f1e9209af5f899b0,SCN,2024-06-11_13h10.24.982,LearnStrategy,2023.2.3,Win32,60.24096386,5,1,4,-0.065104167,-0.102864583,1,0,0,1.3242,Obsidian_16,5,16,3,4,1.324,-0.39453125,-0.389322917,1,0,0,1.4251,Obsidian_rect,5,1.425,1,3,0,3,0,1,,,,,,,,,,,,,
6658ad19f1e9209af5f899b0,SCN,2024-06-11_13h10.24.982,LearnStrategy,2023.2.3,Win32,60.24096386,5,1,5,0.072916667,-0.09375,1,0,0,1.2305,Gabbro_14,4,14,3,5,1.231,0.416666667,-0.24609375,1,0,0,3.6032,Gabbro_rect,4,3.603,1,4,0,4,0,1,,,,,,,,,,,,,
6658ad19f1e9209af5f899b0,SCN,2024-06-11_13h10.24.982,LearnStrategy,2023.2.3,Win32,60.24096386,5,1,6,0.223958333,-0.083333333,1,0,0,1.2439,Gabbro_05,4,05,3,6,1.244,0.427083333,-0.248697917,1,0,0,2.5964,Gabbro_rect,4,2.596,1,5,0,5,0,1,,,,,,,,,,,,,
6658ad19f1e9209af5f899b0,SCN,2024-06-11_13h10.24.982,LearnStrategy,2023.2.3,Win32,60.24096386,5,1,7,0.416666667,-0.108072917,1,0,0,2.074,Andesite_11,1,11,3,7,2.074,-0.380208333,-0.251302083,1,0,0,2.9285,Andesite_rect,1,2.928,1,6,0,6,0,1,,,,,,,,,,,,,
6658ad19f1e9209af5f899b0,SCN,2024-06-11_13h10.24.982,LearnStrategy,2023.2.3,Win32,60.24096386,5,1,8,0.532552083,-0.118489583,1,0,0,0.9785,Diorite_09,3,09,3,8,0.978,0.130208333,-0.256510417,1,0,0,1.8764,Diorite_rect,3,1.876,1,7,0,7,0,1,,,,,,,,,,,,,
6658ad19f1e9209af5f899b0,SCN,2024-06-11_13h10.24.982,LearnStrategy,2023.2.3,Win32,60.24096386,5,1,9,-0.596354167,-0.260416667,1,0,0,1.1087,Pegmatite_05,6,05,2,1,1.109,-0.127604167,-0.39453125,1,0,0,2.1785,Pegmatite_rect,6,2.178,1,8,0,8,0,1,,,,,,,,,,,,,
6658ad19f1e9209af5f899b0,SCN,2024-06-11_13h10.24.982,LearnStrategy,2023.2.3,Win32,60.24096386,5,1,10,-0.376302083,-0.235677083,1,0,0,1.3419,Diorite_07,3,07,2,2,1.342,0.12109375,-0.240885417,1,0,0,1.7764,Diorite_rect,3,1.776,1,9,0,9,0,1,,,,,,,,,,,,,
6658ad19f1e9209af5f899b0,SCN,2024-06-11_13h10.24.982,LearnStrategy,2023.2.3,Win32,60.24096386,5,1,11,-0.251302083,-0.23828125,1,0,0,1.5643,Pumice_10,8,10,2,3,1.564,0.376302083,-0.3828125,1,0,0,2.5136,Pumice_rect,8,2.514,1,10,0,10,0,1,,,,,,,,,,,,,
6658ad19f1e9209af5f899b0,SCN,2024-06-11_13h10.24.982,LearnStrategy,2023.2.3,Win32,60.24096386,5,1,12,-0.0859375,-0.265625,1,0,0,1.4117,Andesite_01,1,01,2,4,1.412,0.119791667,-0.248697917,1,0,0,2.3361,Diorite_rect,3,2.336,0,11,0,11,0,1,,,,,,,,,,,,,
6658ad19f1e9209af5f899b0,SCN,2024-06-11_13h10.24.982,LearnStrategy,2023.2.3,Win32,60.24096386,5,1,13,0.0859375,-0.26171875,1,0,0,1.4298,Andesite_10,1,10,2,5,1.43,0.102864583,-0.233072917,1,0,0,2.9021,Diorite_rect,3,2.902,0,12,0,12,0,1,,,,,,,,,,,,,
6658ad19f1e9209af5f899b0,SCN,2024-06-11_13h10.24.982,LearnStrategy,2023.2.3,Win32,60.24096386,5,1,14,0.263020833,-0.252604167,1,0,0,1.1616,Diorite_13,3,13,2,6,1.162,0.130208333,-0.256510417,1,0,0,3.7447,Diorite_rect,3,3.745,1,13,0,13,0,1,,,,,,,,,,,,,
6658ad19f1e9209af5f899b0,SCN,2024-06-11_13h10.24.982,LearnStrategy,2023.2.3,Win32,60.24096386,5,1,15,0.404947917,-0.2421875,1,0,0,1.3791,Andesite_04,1,04,2,7,1.379,-0.399739583,-0.24609375,1,0,0,3.4446,Andesite_rect,1,3.445,1,14,0,14,0,1,,,,,,,,,,,,,
6658ad19f1e9209af5f899b0,SCN,2024-06-11_13h10.24.982,LearnStrategy,2023.2.3,Win32,60.24096386,5,1,16,0.553385417,-0.243489583,1,0,0,2.3781,Peridotite_13,7,13,2,8,2.378,0.119791667,-0.412760417,1,0,0,2.2814,Peridotite_rect,7,2.281,1,15,0,15,0,1,,,,,,,,,,,,,
6658ad19f1e9209af5f899b0,SCN,2024-06-11_13h10.24.982,LearnStrategy,2023.2.3,Win32,60.24096386,5,2,1,,,,,,,,8,02,,,,,,,,,,,8,2.409,1,,,,,,0.373697917,-0.395833333,1,0,0,2.4092,Pumice_rect,0,0,0,0,1,
6658ad19f1e9209af5f899b0,SCN,2024-06-11_13h10.24.982,LearnStrategy,2023.2.3,Win32,60.24096386,5,2,2,,,,,,,,2,01,,,,,,,,,,,2,1.641,1,,,,,,-0.111979167,-0.255208333,1,0,0,1.6412,Basalt_rect,1,0,1,0,1,
6658ad19f1e9209af5f899b0,SCN,2024-06-11_13h10.24.982,LearnStrategy,2023.2.3,Win32,60.24096386,5,2,3,,,,,,,,6,10,,,,,,,,,,,7,2.653,0,,,,,,0.096354167,-0.40625,1,0,0,2.6527,Peridotite_rect,2,0,2,0,1,
6658ad19f1e9209af5f899b0,SCN,2024-06-11_13h10.24.982,LearnStrategy,2023.2.3,Win32,60.24096386,5,2,4,,,,,,,,5,06,,,,,,,,,,,5,2.924,1,,,,,,-0.3828125,-0.391927083,1,0,0,2.9236,Obsidian_rect,3,0,3,0,1,
6658ad19f1e9209af5f899b0,SCN,2024-06-11_13h10.24.982,LearnStrategy,2023.2.3,Win32,60.24096386,5,2,5,,,,,,,,1,06,,,,,,,,,,,1,2.855,1,,,,,,-0.4296875,-0.2578125,1,0,0,2.8549,Andesite_rect,4,0,4,0,1,
6658ad19f1e9209af5f899b0,SCN,2024-06-11_13h10.24.982,LearnStrategy,2023.2.3,Win32,60.24096386,5,2,6,,,,,,,,8,06,,,,,,,,,,,8,1.927,1,,,,,,0.41796875,-0.393229167,1,0,0,1.9274,Pumice_rect,5,0,5,0,1,
6658ad19f1e9209af5f899b0,SCN,2024-06-11_13h10.24.982,LearnStrategy,2023.2.3,Win32,60.24096386,5,2,7,,,,,,,,6,03,,,,,,,,,,,6,2.392,1,,,,,,-0.12109375,-0.3984375,1,0,0,2.3919,Pegmatite_rect,6,0,6,0,1,
6658ad19f1e9209af5f899b0,SCN,2024-06-11_13h10.24.982,LearnStrategy,2023.2.3,Win32,60.24096386,5,2,8,,,,,,,,7,06,,,,,,,,,,,7,4.004,1,,,,,,0.157552083,-0.40625,1,0,0,4.0037,Peridotite_rect,7,0,7,0,1,
6658ad19f1e9209af5f899b0,SCN,2024-06-11_13h10.24.982,LearnStrategy,2023.2.3,Win32,60.24096386,5,2,9,,,,,,,,4,10,,,,,,,,,,,4,2.438,1,,,,,,0.3984375,-0.25,1,0,0,2.4384,Gabbro_rect,8,0,8,0,1,
6658ad19f1e9209af5f899b0,SCN,2024-06-11_13h10.24.982,LearnStrategy,2023.2.3,Win32,60.24096386,5,2,10,,,,,,,,1,07,,,,,,,,,,,3,3.983,0,,,,,,0.147135417,-0.2421875,1,0,0,3.9827,Diorite_rect,9,0,9,0,1,
6658ad19f1e9209af5f899b0,SCN,2024-06-11_13h10.24.982,LearnStrategy,2023.2.3,Win32,60.24096386,5,2,11,,,,,,,,3,16,,,,,,,,,,,3,1.481,1,,,,,,0.147135417,-0.2421875,1,0,0,1.4806,Diorite_rect,10,0,10,0,1,
6658ad19f1e9209af5f899b0,SCN,2024-06-11_13h10.24.982,LearnStrategy,2023.2.3,Win32,60.24096386,5,2,12,,,,,,,,5,12,,,,,,,,,,,5,2.271,1,,,,,,-0.369791667,-0.412760417,1,0,0,2.2709,Obsidian_rect,11,0,11,0,1,
6658ad19f1e9209af5f899b0,SCN,2024-06-11_13h10.24.982,LearnStrategy,2023.2.3,Win32,60.24096386,5,2,13,,,,,,,,7,14,,,,,,,,,,,7,6.65,1,,,,,,0.154947917,-0.408854167,1,0,0,6.6499,Peridotite_rect,12,0,12,0,1,
6658ad19f1e9209af5f899b0,SCN,2024-06-11_13h10.24.982,LearnStrategy,2023.2.3,Win32,60.24096386,5,2,14,,,,,,,,3,12,,,,,,,,,,,3,2.386,1,,,,,,0.134114583,-0.24609375,1,0,0,2.3855,Diorite_rect,13,0,13,0,1,
6658ad19f1e9209af5f899b0,SCN,2024-06-11_13h10.24.982,LearnStrategy,2023.2.3,Win32,60.24096386,5,2,15,,,,,,,,4,08,,,,,,,,,,,4,2.883,1,,,,,,0.397135417,-0.235677083,1,0,0,2.8828,Gabbro_rect,14,0,14,0,1,
6658ad19f1e9209af5f899b0,SCN,2024-06-11_13h10.24.982,LearnStrategy,2023.2.3,Win32,60.24096386,5,2,16,,,,,,,,2,02,,,,,,,,,,,2,1.836,1,,,,,,-0.115885417,-0.236979167,1,0,0,1.836,Basalt_rect,15,0,15,0,1,
6658ad19f1e9209af5f899b0,SCN,2024-06-11_13h10.24.982,LearnStrategy,2023.2.3,Win32,60.24096386,6,1,1,0.557291667,-0.451822917,1,0,0,3.0641,Obsidian_05,5,05,1,8,3.064,-0.3984375,-0.3984375,1,0,0,2.2142,Obsidian_rect,5,2.214,1,0,0,0,0,1,,,,,,,,,,,,,
6658ad19f1e9209af5f899b0,SCN,2024-06-11_13h10.24.982,LearnStrategy,2023.2.3,Win32,60.24096386,6,1,2,0.40234375,-0.423177083,1,0,0,1.583,Gabbro_11,4,11,1,7,1.583,-0.140625,-0.25390625,1,0,0,1.6449,Basalt_rect,2,1.645,0,1,0,1,0,1,,,,,,,,,,,,,
6658ad19f1e9209af5f899b0,SCN,2024-06-11_13h10.24.982,LearnStrategy,2023.2.3,Win32,60.24096386,6,1,3,0.229166667,-0.427083333,1,0,0,1.3316,Peridotite_15,7,15,1,6,1.332,0.09375,-0.415364583,1,0,0,2.2723,Peridotite_rect,7,2.272,1,2,0,2,0,1,,,,,,,,,,,,,
6658ad19f1e9209af5f899b0,SCN,2024-06-11_13h10.24.982,LearnStrategy,2023.2.3,Win32,60.24096386,6,1,4,0.084635417,-0.377604167,1,0,0,1.6307,Diorite_14,3,14,1,5,1.631,0.1328125,-0.25,1,0,0,4.4307,Diorite_rect,3,4.431,1,3,0,3,0,1,,,,,,,,,,,,,
6658ad19f1e9209af5f899b0,SCN,2024-06-11_13h10.24.982,LearnStrategy,2023.2.3,Win32,60.24096386,6,1,5,-0.06640625,-0.40234375,1,0,0,2.8492,Peridotite_12,7,12,1,4,2.849,0.1484375,-0.391927083,1,0,0,1.8612,Peridotite_rect,7,1.861,1,4,0,4,0,1,,,,,,,,,,,,,
6658ad19f1e9209af5f899b0,SCN,2024-06-11_13h10.24.982,LearnStrategy,2023.2.3,Win32,60.24096386,6,1,6,-0.259114583,-0.384114583,1,0,0,1.6287,Pegmatite_13,6,13,1,3,1.629,-0.108072917,-0.395833333,1,0,0,1.6868,Pegmatite_rect,6,1.687,1,5,0,5,0,1,,,,,,,,,,,,,
6658ad19f1e9209af5f899b0,SCN,2024-06-11_13h10.24.982,LearnStrategy,2023.2.3,Win32,60.24096386,6,1,7,-0.416666667,-0.408854167,1,0,0,1.293,Basalt_16,2,16,1,2,1.293,-0.161458333,-0.25390625,1,0,0,2.2464,Basalt_rect,2,2.246,1,6,0,6,0,1,,,,,,,,,,,,,
6658ad19f1e9209af5f899b0,SCN,2024-06-11_13h10.24.982,LearnStrategy,2023.2.3,Win32,60.24096386,6,1,8,-0.544270833,-0.43359375,1,0,0,1.6092,Diorite_08,3,08,1,1,1.609,0.125,-0.233072917,1,0,0,1.4312,Diorite_rect,3,1.431,1,7,0,7,0,1,,,,,,,,,,,,,
6658ad19f1e9209af5f899b0,SCN,2024-06-11_13h10.24.982,LearnStrategy,2023.2.3,Win32,60.24096386,6,1,9,0.360677083,-0.26171875,1,0,0,1.8419,Andesite_04,1,04,2,7,1.842,-0.388020833,-0.251302083,1,0,0,3.2821,Andesite_rect,1,3.282,1,8,0,8,0,1,,,,,,,,,,,,,
6658ad19f1e9209af5f899b0,SCN,2024-06-11_13h10.24.982,LearnStrategy,2023.2.3,Win32,60.24096386,6,1,10,0.2109375,-0.217447917,1,0,0,2.4325,Diorite_13,3,13,2,6,2.433,0.14453125,-0.251302083,1,0,0,0.96,Diorite_rect,3,0.96,1,9,0,9,0,1,,,,,,,,,,,,,
6658ad19f1e9209af5f899b0,SCN,2024-06-11_13h10.24.982,LearnStrategy,2023.2.3,Win32,60.24096386,6,1,11,0.08203125,-0.255208333,1,0,0,1.2637,Andesite_10,1,10,2,5,1.264,-0.372395833,-0.25390625,1,0,0,9.5036,Andesite_rect,1,9.504,1,10,0,10,0,1,,,,,,,,,,,,,
6658ad19f1e9209af5f899b0,SCN,2024-06-11_13h10.24.982,LearnStrategy,2023.2.3,Win32,60.24096386,6,1,12,-0.079427083,-0.243489583,1,0,0,1.4608,Andesite_01,1,01,2,4,1.461,0.12109375,-0.23828125,1,0,0,1.47,Diorite_rect,3,1.47,0,11,0,11,0,1,,,,,,,,,,,,,
6658ad19f1e9209af5f899b0,SCN,2024-06-11_13h10.24.982,LearnStrategy,2023.2.3,Win32,60.24096386,6,1,13,-0.236979167,-0.26953125,1,0,0,1.1644,Pumice_10,8,10,2,3,1.164,0.390625,-0.411458333,1,0,0,1.4604,Pumice_rect,8,1.46,1,12,0,12,0,1,,,,,,,,,,,,,
6658ad19f1e9209af5f899b0,SCN,2024-06-11_13h10.24.982,LearnStrategy,2023.2.3,Win32,60.24096386,6,1,14,-0.546875,0.399739583,1,0,0,1.4468,Basalt_11,2,11,6,1,1.447,-0.102864583,-0.248697917,1,0,0,2.6318,Basalt_rect,2,2.632,1,13,0,13,0,1,,,,,,,,,,,,,
6658ad19f1e9209af5f899b0,SCN,2024-06-11_13h10.24.982,LearnStrategy,2023.2.3,Win32,60.24096386,6,1,15,0.55078125,0.243489583,1,0,0,2.7415,Andesite_05,1,05,5,8,2.742,-0.373697917,-0.25390625,1,0,0,2.9021,Andesite_rect,1,2.902,1,14,0,14,0,1,,,,,,,,,,,,,
6658ad19f1e9209af5f899b0,SCN,2024-06-11_13h10.24.982,LearnStrategy,2023.2.3,Win32,60.24096386,6,1,16,0.40234375,0.248697917,1,0,0,1.3629,Andesite_16,1,16,5,7,1.363,-0.38671875,-0.239583333,1,0,0,2.7649,Andesite_rect,1,2.765,1,15,0,15,0,1,,,,,,,,,,,,,
6658ad19f1e9209af5f899b0,SCN,2024-06-11_13h10.24.982,LearnStrategy,2023.2.3,Win32,60.24096386,6,2,1,,,,,,,,8,14,,,,,,,,,,,8,1.669,1,,,,,,0.390625,-0.39453125,1,0,0,1.6692,Pumice_rect,0,0,0,0,1,
6658ad19f1e9209af5f899b0,SCN,2024-06-11_13h10.24.982,LearnStrategy,2023.2.3,Win32,60.24096386,6,2,2,,,,,,,,8,04,,,,,,,,,,,8,2.315,1,,,,,,0.390625,-0.39453125,1,0,0,2.315,Pumice_rect,1,0,1,0,1,
6658ad19f1e9209af5f899b0,SCN,2024-06-11_13h10.24.982,LearnStrategy,2023.2.3,Win32,60.24096386,6,2,3,,,,,,,,1,14,,,,,,,,,,,3,4.252,0,,,,,,0.11328125,-0.248697917,1,0,0,4.2522,Diorite_rect,2,0,2,0,1,
6658ad19f1e9209af5f899b0,SCN,2024-06-11_13h10.24.982,LearnStrategy,2023.2.3,Win32,60.24096386,6,2,4,,,,,,,,5,14,,,,,,,,,,,5,2.376,1,,,,,,-0.42578125,-0.393229167,1,0,0,2.3757,Obsidian_rect,3,0,3,0,1,
6658ad19f1e9209af5f899b0,SCN,2024-06-11_13h10.24.982,LearnStrategy,2023.2.3,Win32,60.24096386,6,2,5,,,,,,,,7,08,,,,,,,,,,,7,2.059,1,,,,,,0.165364583,-0.388020833,1,0,0,2.059,Peridotite_rect,4,0,4,0,1,
6658ad19f1e9209af5f899b0,SCN,2024-06-11_13h10.24.982,LearnStrategy,2023.2.3,Win32,60.24096386,6,2,6,,,,,,,,5,09,,,,,,,,,,,5,1.605,1,,,,,,-0.361979167,-0.416666667,1,0,0,1.6046,Obsidian_rect,5,0,5,0,1,
6658ad19f1e9209af5f899b0,SCN,2024-06-11_13h10.24.982,LearnStrategy,2023.2.3,Win32,60.24096386,6,2,7,,,,,,,,7,16,,,,,,,,,,,4,2.964,0,,,,,,0.393229167,-0.239583333,1,0,0,2.964,Gabbro_rect,6,0,6,0,1,
6658ad19f1e9209af5f899b0,SCN,2024-06-11_13h10.24.982,LearnStrategy,2023.2.3,Win32,60.24096386,6,2,8,,,,,,,,2,12,,,,,,,,,,,2,2.728,1,,,,,,-0.122395833,-0.23046875,1,0,0,2.7283,Basalt_rect,7,0,7,0,1,
6658ad19f1e9209af5f899b0,SCN,2024-06-11_13h10.24.982,LearnStrategy,2023.2.3,Win32,60.24096386,6,2,9,,,,,,,,3,02,,,,,,,,,,,3,3.454,1,,,,,,0.161458333,-0.239583333,1,0,0,3.454,Diorite_rect,8,0,8,0,1,
6658ad19f1e9209af5f899b0,SCN,2024-06-11_13h10.24.982,LearnStrategy,2023.2.3,Win32,60.24096386,6,2,10,,,,,,,,2,04,,,,,,,,,,,2,2.032,1,,,,,,-0.123697917,-0.243489583,1,0,0,2.0322,Basalt_rect,9,0,9,0,1,
6658ad19f1e9209af5f899b0,SCN,2024-06-11_13h10.24.982,LearnStrategy,2023.2.3,Win32,60.24096386,6,2,11,,,,,,,,3,15,,,,,,,,,,,3,3.758,1,,,,,,0.118489583,-0.263020833,1,0,0,3.7585,Diorite_rect,10,0,10,0,1,
6658ad19f1e9209af5f899b0,SCN,2024-06-11_13h10.24.982,LearnStrategy,2023.2.3,Win32,60.24096386,6,2,12,,,,,,,,6,08,,,,,,,,,,,6,2.25,1,,,,,,-0.110677083,-0.404947917,1,0,0,2.2498,Pegmatite_rect,11,0,11,0,1,
6658ad19f1e9209af5f899b0,SCN,2024-06-11_13h10.24.982,LearnStrategy,2023.2.3,Win32,60.24096386,6,2,13,,,,,,,,4,09,,,,,,,,,,,3,9.597,0,,,,,,0.149739583,-0.24609375,1,0,0,9.5968,Diorite_rect,12,0,12,0,1,
6658ad19f1e9209af5f899b0,SCN,2024-06-11_13h10.24.982,LearnStrategy,2023.2.3,Win32,60.24096386,6,2,14,,,,,,,,4,03,,,,,,,,,,,3,2.704,0,,,,,,0.149739583,-0.24609375,1,0,0,2.7041,Diorite_rect,13,0,13,0,1,
6658ad19f1e9209af5f899b0,SCN,2024-06-11_13h10.24.982,LearnStrategy,2023.2.3,Win32,60.24096386,6,2,15,,,,,,,,6,12,,,,,,,,,,,6,1.639,1,,,,,,-0.138020833,-0.389322917,1,0,0,1.6386,Pegmatite_rect,14,0,14,0,1,
6658ad19f1e9209af5f899b0,SCN,2024-06-11_13h10.24.982,LearnStrategy,2023.2.3,Win32,60.24096386,6,2,16,,,,,,,,1,09,,,,,,,,,,,1,3.113,1,,,,,,-0.348958333,-0.251302083,1,0,0,3.113,Andesite_rect,15,0,15,0,1,
6658ad19f1e9209af5f899b0,SCN,2024-06-11_13h10.24.982,LearnStrategy,2023.2.3,Win32,60.24096386,7,1,1,0.546875,0.102864583,1,0,0,2.1293,Pumice_15,8,15,4,8,2.129,0.368489583,-0.391927083,1,0,0,1.6986,Pumice_rect,8,1.699,1,0,0,0,0,1,,,,,,,,,,,,,
6658ad19f1e9209af5f899b0,SCN,2024-06-11_13h10.24.982,LearnStrategy,2023.2.3,Win32,60.24096386,7,1,2,0.403645833,0.087239583,1,0,0,1.0923,Pegmatite_06,6,06,4,7,1.092,-0.125,-0.399739583,1,0,0,1.6758,Pegmatite_rect,6,1.676,1,1,0,1,0,1,,,,,,,,,,,,,
6658ad19f1e9209af5f899b0,SCN,2024-06-11_13h10.24.982,LearnStrategy,2023.2.3,Win32,60.24096386,7,1,3,0.209635417,0.091145833,1,0,0,1.0225,Obsidian_10,5,10,4,6,1.022,-0.356770833,-0.419270833,1,0,0,1.2482,Obsidian_rect,5,1.248,1,2,0,2,0,1,,,,,,,,,,,,,
6658ad19f1e9209af5f899b0,SCN,2024-06-11_13h10.24.982,LearnStrategy,2023.2.3,Win32,60.24096386,7,1,4,0.078125,0.09765625,1,0,0,1.079,Peridotite_04,7,04,4,5,1.079,0.138020833,-0.419270833,1,0,0,2.2844,Peridotite_rect,7,2.284,1,3,0,3,0,1,,,,,,,,,,,,,
6658ad19f1e9209af5f899b0,SCN,2024-06-11_13h10.24.982,LearnStrategy,2023.2.3,Win32,60.24096386,7,1,5,-0.045572917,0.126302083,1,0,0,1.58,Peridotite_07,7,07,4,4,1.58,0.111979167,-0.39453125,1,0,0,10.9026,Peridotite_rect,7,10.903,1,4,0,4,0,1,,,,,,,,,,,,,
6658ad19f1e9209af5f899b0,SCN,2024-06-11_13h10.24.982,LearnStrategy,2023.2.3,Win32,60.24096386,7,1,6,-0.197916667,0.079427083,1,0,0,1.0461,Pumice_08,8,08,4,3,1.046,0.3671875,-0.390625,1,0,0,1.3941,Pumice_rect,8,1.394,1,5,0,5,0,1,,,,,,,,,,,,,
6658ad19f1e9209af5f899b0,SCN,2024-06-11_13h10.24.982,LearnStrategy,2023.2.3,Win32,60.24096386,7,1,7,-0.41015625,0.114583333,1,0,0,0.9975,Pegmatite_11,6,11,4,2,0.997,-0.13671875,-0.408854167,1,0,0,1.0365,Pegmatite_rect,6,1.037,1,6,0,6,0,1,,,,,,,,,,,,,
6658ad19f1e9209af5f899b0,SCN,2024-06-11_13h10.24.982,LearnStrategy,2023.2.3,Win32,60.24096386,7,1,8,-0.561197917,0.069010417,1,0,0,1.2627,Diorite_06,3,06,4,1,1.263,0.16796875,-0.247395833,1,0,0,1.3457,Diorite_rect,3,1.346,1,7,0,7,0,1,,,,,,,,,,,,,
6658ad19f1e9209af5f899b0,SCN,2024-06-11_13h10.24.982,LearnStrategy,2023.2.3,Win32,60.24096386,7,1,9,-0.381510417,0.274739583,1,0,0,2.8617,Gabbro_13,4,13,5,2,2.862,0.424479167,-0.229166667,1,0,0,1.4692,Gabbro_rect,4,1.469,1,8,0,8,0,1,,,,,,,,,,,,,
6658ad19f1e9209af5f899b0,SCN,2024-06-11_13h10.24.982,LearnStrategy,2023.2.3,Win32,60.24096386,7,1,10,-0.2578125,0.25390625,1,0,0,1.7249,Pumice_16,8,16,5,3,1.725,0.407552083,-0.39453125,1,0,0,6.2007,Pumice_rect,8,6.201,1,9,0,9,0,1,,,,,,,,,,,,,
6658ad19f1e9209af5f899b0,SCN,2024-06-11_13h10.24.982,LearnStrategy,2023.2.3,Win32,60.24096386,7,1,11,-0.063802083,0.24609375,1,0,0,1.727,Gabbro_12,4,12,5,4,1.727,-0.432291667,-0.233072917,1,0,0,3.1978,Andesite_rect,1,3.198,0,10,0,10,0,1,,,,,,,,,,,,,
6658ad19f1e9209af5f899b0,SCN,2024-06-11_13h10.24.982,LearnStrategy,2023.2.3,Win32,60.24096386,7,1,12,0.513020833,-0.110677083,1,0,0,2.9616,Diorite_09,3,09,3,8,2.962,0.13671875,-0.247395833,1,0,0,2.6263,Diorite_rect,3,2.626,1,11,0,11,0,1,,,,,,,,,,,,,
6658ad19f1e9209af5f899b0,SCN,2024-06-11_13h10.24.982,LearnStrategy,2023.2.3,Win32,60.24096386,7,1,13,0.220052083,-0.092447917,1,0,0,1.5261,Gabbro_05,4,05,3,6,1.526,0.446614583,-0.26171875,1,0,0,2.1375,Gabbro_rect,4,2.138,1,12,0,12,0,1,,,,,,,,,,,,,
6658ad19f1e9209af5f899b0,SCN,2024-06-11_13h10.24.982,LearnStrategy,2023.2.3,Win32,60.24096386,7,1,14,0.088541667,-0.1015625,1,0,0,1.9966,Gabbro_14,4,14,3,5,1.997,0.399739583,-0.243489583,1,0,0,2.4209,Gabbro_rect,4,2.421,1,13,0,13,0,1,,,,,,,,,,,,,
6658ad19f1e9209af5f899b0,SCN,2024-06-11_13h10.24.982,LearnStrategy,2023.2.3,Win32,60.24096386,7,1,15,-0.20703125,-0.098958333,1,0,0,1.7888,Obsidian_07,5,07,3,3,1.789,-0.365885417,-0.40234375,1,0,0,1.2407,Obsidian_rect,5,1.241,1,14,0,14,0,1,,,,,,,,,,,,,
6658ad19f1e9209af5f899b0,SCN,2024-06-11_13h10.24.982,LearnStrategy,2023.2.3,Win32,60.24096386,7,1,16,-0.110677083,-0.12109375,1,0,0,1.092,Obsidian_16,5,16,3,4,1.092,-0.401041667,-0.3984375,1,0,0,2.0699,Obsidian_rect,5,2.07,1,15,0,15,0,1,,,,,,,,,,,,,
6658ad19f1e9209af5f899b0,SCN,2024-06-11_13h10.24.982,LearnStrategy,2023.2.3,Win32,60.24096386,7,2,1,,,,,,,,5,06,,,,,,,,,,,5,2.605,1,,,,,,-0.391927083,-0.39453125,1,0,0,2.6047,Obsidian_rect,0,0,0,0,1,
6658ad19f1e9209af5f899b0,SCN,2024-06-11_13h10.24.982,LearnStrategy,2023.2.3,Win32,60.24096386,7,2,2,,,,,,,,7,05,,,,,,,,,,,4,3.162,0,,,,,,0.407552083,-0.235677083,1,0,0,3.1623,Gabbro_rect,1,0,1,0,1,
6658ad19f1e9209af5f899b0,SCN,2024-06-11_13h10.24.982,LearnStrategy,2023.2.3,Win32,60.24096386,7,2,3,,,,,,,,5,08,,,,,,,,,,,5,1.722,1,,,,,,-0.43359375,-0.40234375,1,0,0,1.7223,Obsidian_rect,2,0,2,0,1,
6658ad19f1e9209af5f899b0,SCN,2024-06-11_13h10.24.982,LearnStrategy,2023.2.3,Win32,60.24096386,7,2,4,,,,,,,,3,16,,,,,,,,,,,3,2.786,1,,,,,,0.13671875,-0.240885417,1,0,0,2.7857,Diorite_rect,3,0,3,0,1,
6658ad19f1e9209af5f899b0,SCN,2024-06-11_13h10.24.982,LearnStrategy,2023.2.3,Win32,60.24096386,7,2,5,,,,,,,,4,08,,,,,,,,,,,4,3.549,1,,,,,,0.381510417,-0.260416667,1,0,0,3.5494,Gabbro_rect,4,0,4,0,1,
6658ad19f1e9209af5f899b0,SCN,2024-06-11_13h10.24.982,LearnStrategy,2023.2.3,Win32,60.24096386,7,2,6,,,,,,,,3,12,,,,,,,,,,,3,2.344,1,,,,,,0.109375,-0.260416667,1,0,0,2.3442,Diorite_rect,5,0,5,0,1,
6658ad19f1e9209af5f899b0,SCN,2024-06-11_13h10.24.982,LearnStrategy,2023.2.3,Win32,60.24096386,7,2,7,,,,,,,,6,08,,,,,,,,,,,6,1.544,1,,,,,,-0.141927083,-0.41015625,1,0,0,1.5444,Pegmatite_rect,6,0,6,0,1,
6658ad19f1e9209af5f899b0,SCN,2024-06-11_13h10.24.982,LearnStrategy,2023.2.3,Win32,60.24096386,7,2,8,,,,,,,,2,06,,,,,,,,,,,2,1.663,1,,,,,,-0.115885417,-0.25,1,0,0,1.6625,Basalt_rect,7,0,7,0,1,
6658ad19f1e9209af5f899b0,SCN,2024-06-11_13h10.24.982,LearnStrategy,2023.2.3,Win32,60.24096386,7,2,9,,,,,,,,6,03,,,,,,,,,,,6,1.648,1,,,,,,-0.122395833,-0.4140625,1,0,0,1.6482,Pegmatite_rect,8,0,8,0,1,
6658ad19f1e9209af5f899b0,SCN,2024-06-11_13h10.24.982,LearnStrategy,2023.2.3,Win32,60.24096386,7,2,10,,,,,,,,1,14,,,,,,,,,,,3,4.689,0,,,,,,0.122395833,-0.255208333,1,0,0,4.6891,Diorite_rect,9,0,9,0,1,
6658ad19f1e9209af5f899b0,SCN,2024-06-11_13h10.24.982,LearnStrategy,2023.2.3,Win32,60.24096386,7,2,11,,,,,,,,2,04,,,,,,,,,,,2,1.449,1,,,,,,-0.15234375,-0.247395833,1,0,0,1.4486,Basalt_rect,10,0,10,0,1,
6658ad19f1e9209af5f899b0,SCN,2024-06-11_13h10.24.982,LearnStrategy,2023.2.3,Win32,60.24096386,7,2,12,,,,,,,,8,04,,,,,,,,,,,8,1.991,1,,,,,,0.380208333,-0.401041667,1,0,0,1.9906,Pumice_rect,11,0,11,0,1,
6658ad19f1e9209af5f899b0,SCN,2024-06-11_13h10.24.982,LearnStrategy,2023.2.3,Win32,60.24096386,7,2,13,,,,,,,,8,13,,,,,,,,,,,8,5.597,1,,,,,,0.380208333,-0.401041667,1,0,0,5.5973,Pumice_rect,12,0,12,0,1,
6658ad19f1e9209af5f899b0,SCN,2024-06-11_13h10.24.982,LearnStrategy,2023.2.3,Win32,60.24096386,7,2,14,,,,,,,,1,07,,,,,,,,,,,1,2.837,1,,,,,,-0.3828125,-0.233072917,1,0,0,2.8371,Andesite_rect,13,0,13,0,1,
6658ad19f1e9209af5f899b0,SCN,2024-06-11_13h10.24.982,LearnStrategy,2023.2.3,Win32,60.24096386,7,2,15,,,,,,,,7,16,,,,,,,,,,,4,4.232,0,,,,,,0.34375,-0.235677083,1,0,0,4.2319,Gabbro_rect,14,0,14,0,1,
6658ad19f1e9209af5f899b0,SCN,2024-06-11_13h10.24.982,LearnStrategy,2023.2.3,Win32,60.24096386,7,2,16,,,,,,,,4,10,,,,,,,,,,,3,5.334,0,,,,,,0.126302083,-0.259114583,1,0,0,5.334,Diorite_rect,15,0,15,0,1,
6658ad19f1e9209af5f899b0,SCN,2024-06-11_13h10.24.982,LearnStrategy,2023.2.3,Win32,60.24096386,8,1,1,-0.216145833,-0.248697917,1,0,0,2.2461,Pumice_10,8,10,2,3,2.246,0.39453125,-0.39453125,1,0,0,1.2685,Pumice_rect,8,1.269,1,0,0,0,0,1,,,,,,,,,,,,,
6658ad19f1e9209af5f899b0,SCN,2024-06-11_13h10.24.982,LearnStrategy,2023.2.3,Win32,60.24096386,8,1,2,0.049479167,-0.39453125,1,0,0,2.0959,Diorite_14,3,14,1,5,2.096,0.1171875,-0.235677083,1,0,0,1.247,Diorite_rect,3,1.247,1,1,0,1,0,1,,,,,,,,,,,,,
6658ad19f1e9209af5f899b0,SCN,2024-06-11_13h10.24.982,LearnStrategy,2023.2.3,Win32,60.24096386,8,1,3,0.368489583,-0.244791667,1,0,0,2.129,Andesite_04,1,04,2,7,2.129,-0.359375,-0.251302083,1,0,0,2.6444,Andesite_rect,1,2.644,1,2,0,2,0,1,,,,,,,,,,,,,
6658ad19f1e9209af5f899b0,SCN,2024-06-11_13h10.24.982,LearnStrategy,2023.2.3,Win32,60.24096386,8,1,4,0.048177083,-0.393229167,1,0,0,1.6298,Diorite_14,3,14,1,5,1.63,-0.3515625,-0.263020833,1,0,0,2.5441,Andesite_rect,1,2.544,0,3,0,3,0,1,,,,,,,,,,,,,
6658ad19f1e9209af5f899b0,SCN,2024-06-11_13h10.24.982,LearnStrategy,2023.2.3,Win32,60.24096386,8,1,5,-0.06640625,-0.420572917,1,0,0,1.3059,Peridotite_12,7,12,1,4,1.306,0.1328125,-0.4140625,1,0,0,1.8412,Peridotite_rect,7,1.841,1,4,0,4,0,1,,,,,,,,,,,,,
6658ad19f1e9209af5f899b0,SCN,2024-06-11_13h10.24.982,LearnStrategy,2023.2.3,Win32,60.24096386,8,1,6,-0.239583333,0.109375,1,0,0,6.2298,Pumice_08,8,08,4,3,6.23,0.372395833,-0.391927083,1,0,0,2.3356,Pumice_rect,8,2.336,1,5,0,5,0,1,,,,,,,,,,,,,
6658ad19f1e9209af5f899b0,SCN,2024-06-11_13h10.24.982,LearnStrategy,2023.2.3,Win32,60.24096386,8,1,7,0.1171875,-0.114583333,1,0,0,0.9466,Gabbro_14,4,14,3,5,0.947,0.143229167,-0.233072917,1,0,0,1.0023,Diorite_rect,3,1.002,0,6,0,6,0,1,,,,,,,,,,,,,
6658ad19f1e9209af5f899b0,SCN,2024-06-11_13h10.24.982,LearnStrategy,2023.2.3,Win32,60.24096386,8,1,8,0.399739583,-0.236979167,1,0,0,1.4302,Andesite_04,1,04,2,7,1.43,-0.377604167,-0.268229167,1,0,0,3.2132,Andesite_rect,1,3.213,1,7,0,7,0,1,,,,,,,,,,,,,
6658ad19f1e9209af5f899b0,SCN,2024-06-11_13h10.24.982,LearnStrategy,2023.2.3,Win32,60.24096386,8,1,9,0.111979167,-0.252604167,1,0,0,1.7615,Andesite_10,1,10,2,5,1.761,0.1640625,-0.264322917,1,0,0,3.6765,Diorite_rect,3,3.677,0,8,0,8,0,1,,,,,,,,,,,,,
6658ad19f1e9209af5f899b0,SCN,2024-06-11_13h10.24.982,LearnStrategy,2023.2.3,Win32,60.24096386,8,1,10,0.391927083,-0.296875,1,0,0,1.4373,Andesite_04,1,04,2,7,1.437,-0.333333333,-0.239583333,1,0,0,2.6104,Andesite_rect,1,2.61,1,9,0,9,0,1,,,,,,,,,,,,,
6658ad19f1e9209af5f899b0,SCN,2024-06-11_13h10.24.982,LearnStrategy,2023.2.3,Win32,60.24096386,8,1,11,-0.197916667,0.201822917,1,0,0,3.5889,Pumice_16,8,16,5,3,3.589,0.34765625,-0.403645833,1,0,0,2.8788,Pumice_rect,8,2.879,1,10,0,10,0,1,,,,,,,,,,,,,
6658ad19f1e9209af5f899b0,SCN,2024-06-11_13h10.24.982,LearnStrategy,2023.2.3,Win32,60.24096386,8,1,12,-0.239583333,-0.268229167,1,0,0,2.1286,Pumice_10,8,10,2,3,2.129,0.356770833,-0.389322917,1,0,0,1.3529,Pumice_rect,8,1.353,1,11,0,11,0,1,,,,,,,,,,,,,
6658ad19f1e9209af5f899b0,SCN,2024-06-11_13h10.24.982,LearnStrategy,2023.2.3,Win32,60.24096386,8,1,13,0.3984375,-0.251302083,1,0,0,1.981,Andesite_04,1,04,2,7,1.981,-0.36328125,-0.244791667,1,0,0,1.1889,Andesite_rect,1,1.189,1,12,0,12,0,1,,,,,,,,,,,,,
6658ad19f1e9209af5f899b0,SCN,2024-06-11_13h10.24.982,LearnStrategy,2023.2.3,Win32,60.24096386,8,1,14,0.216145833,0.248697917,1,0,0,1.3974,Pegmatite_09,6,09,5,6,1.397,-0.088541667,-0.412760417,1,0,0,3.0141,Pegmatite_rect,6,3.014,1,13,0,13,0,1,,,,,,,,,,,,,
6658ad19f1e9209af5f899b0,SCN,2024-06-11_13h10.24.982,LearnStrategy,2023.2.3,Win32,60.24096386,8,1,15,-0.404947917,0.274739583,1,0,0,1.8736,Gabbro_13,4,13,5,2,1.874,0.490885417,-0.24609375,1,0,0,1.2116,Gabbro_rect,4,1.212,1,14,0,14,0,1,,,,,,,,,,,,,
6658ad19f1e9209af5f899b0,SCN,2024-06-11_13h10.24.982,LearnStrategy,2023.2.3,Win32,60.24096386,8,1,16,0.06640625,0.108072917,1,0,0,0.9462,Peridotite_04,7,04,4,5,0.946,0.145833333,-0.404947917,1,0,0,1.1374,Peridotite_rect,7,1.137,1,15,0,15,0,1,,,,,,,,,,,,,
6658ad19f1e9209af5f899b0,SCN,2024-06-11_13h10.24.982,LearnStrategy,2023.2.3,Win32,60.24096386,8,2,1,,,,,,,,5,09,,,,,,,,,,,5,1.904,1,,,,,,-0.341145833,-0.39453125,1,0,0,1.904,Obsidian_rect,0,0,0,0,1,
6658ad19f1e9209af5f899b0,SCN,2024-06-11_13h10.24.982,LearnStrategy,2023.2.3,Win32,60.24096386,8,2,2,,,,,,,,4,01,,,,,,,,,,,3,3.956,0,,,,,,0.131510417,-0.23828125,1,0,0,3.956,Diorite_rect,1,0,1,0,1,
6658ad19f1e9209af5f899b0,SCN,2024-06-11_13h10.24.982,LearnStrategy,2023.2.3,Win32,60.24096386,8,2,3,,,,,,,,6,15,,,,,,,,,,,6,1.828,1,,,,,,-0.11328125,-0.40625,1,0,0,1.8282,Pegmatite_rect,2,0,2,0,1,
6658ad19f1e9209af5f899b0,SCN,2024-06-11_13h10.24.982,LearnStrategy,2023.2.3,Win32,60.24096386,8,2,4,,,,,,,,5,14,,,,,,,,,,,5,2.403,1,,,,,,-0.407552083,-0.415364583,1,0,0,2.4029,Obsidian_rect,3,0,3,0,1,
6658ad19f1e9209af5f899b0,SCN,2024-06-11_13h10.24.982,LearnStrategy,2023.2.3,Win32,60.24096386,8,2,5,,,,,,,,4,15,,,,,,,,,,,3,2.838,0,,,,,,0.126302083,-0.266927083,1,0,0,2.8379,Diorite_rect,4,0,4,0,1,
6658ad19f1e9209af5f899b0,SCN,2024-06-11_13h10.24.982,LearnStrategy,2023.2.3,Win32,60.24096386,8,2,6,,,,,,,,6,10,,,,,,,,,,,6,5.282,1,,,,,,-0.171875,-0.404947917,1,0,0,5.2823,Pegmatite_rect,5,0,5,0,1,
6658ad19f1e9209af5f899b0,SCN,2024-06-11_13h10.24.982,LearnStrategy,2023.2.3,Win32,60.24096386,8,2,7,,,,,,,,1,09,,,,,,,,,,,1,2.787,1,,,,,,-0.3828125,-0.265625,1,0,0,2.7868,Andesite_rect,6,0,6,0,1,
6658ad19f1e9209af5f899b0,SCN,2024-06-11_13h10.24.982,LearnStrategy,2023.2.3,Win32,60.24096386,8,2,8,,,,,,,,2,02,,,,,,,,,,,2,1.624,1,,,,,,-0.165364583,-0.229166667,1,0,0,1.6237,Basalt_rect,7,0,7,0,1,
6658ad19f1e9209af5f899b0,SCN,2024-06-11_13h10.24.982,LearnStrategy,2023.2.3,Win32,60.24096386,8,2,9,,,,,,,,8,09,,,,,,,,,,,8,1.867,1,,,,,,0.404947917,-0.40234375,1,0,0,1.8671,Pumice_rect,8,0,8,0,1,
6658ad19f1e9209af5f899b0,SCN,2024-06-11_13h10.24.982,LearnStrategy,2023.2.3,Win32,60.24096386,8,2,10,,,,,,,,2,14,,,,,,,,,,,4,2.747,0,,,,,,0.401041667,-0.244791667,1,0,0,2.7474,Gabbro_rect,9,0,9,0,1,
6658ad19f1e9209af5f899b0,SCN,2024-06-11_13h10.24.982,LearnStrategy,2023.2.3,Win32,60.24096386,8,2,11,,,,,,,,7,08,,,,,,,,,,,7,1.717,1,,,,,,0.14453125,-0.403645833,1,0,0,1.717,Peridotite_rect,10,0,10,0,1,
6658ad19f1e9209af5f899b0,SCN,2024-06-11_13h10.24.982,LearnStrategy,2023.2.3,Win32,60.24096386,8,2,12,,,,,,,,8,02,,,,,,,,,,,8,1.894,1,,,,,,0.3515625,-0.4140625,1,0,0,1.8943,Pumice_rect,11,0,11,0,1,
6658ad19f1e9209af5f899b0,SCN,2024-06-11_13h10.24.982,LearnStrategy,2023.2.3,Win32,60.24096386,8,2,13,,,,,,,,3,15,,,,,,,,,,,3,3.588,1,,,,,,0.131510417,-0.248697917,1,0,0,3.5879,Diorite_rect,12,0,12,0,1,
6658ad19f1e9209af5f899b0,SCN,2024-06-11_13h10.24.982,LearnStrategy,2023.2.3,Win32,60.24096386,8,2,14,,,,,,,,1,03,,,,,,,,,,,1,2.299,1,,,,,,-0.4140625,-0.25390625,1,0,0,2.2991,Andesite_rect,13,0,13,0,1,
6658ad19f1e9209af5f899b0,SCN,2024-06-11_13h10.24.982,LearnStrategy,2023.2.3,Win32,60.24096386,8,2,15,,,,,,,,7,10,,,,,,,,,,,7,1.963,1,,,,,,0.12109375,-0.41015625,1,0,0,1.9629,Peridotite_rect,14,0,14,0,1,
6658ad19f1e9209af5f899b0,SCN,2024-06-11_13h10.24.982,LearnStrategy,2023.2.3,Win32,60.24096386,8,2,16,,,,,,,,3,10,,,,,,,,,,,3,4.113,1,,,,,,0.169270833,-0.236979167,1,0,0,4.1133,Diorite_rect,15,0,15,0,1,
6658ad19f1e9209af5f899b0,SCN,2024-06-11_13h10.24.982,LearnStrategy,2023.2.3,Win32,60.24096386,9,1,1,-0.092447917,-0.12890625,1,0,0,0.7588,Obsidian_16,5,16,3,4,0.759,-0.359375,-0.408854167,1,0,0,0.8799,Obsidian_rect,5,0.88,1,0,0,0,0,1,,,,,,,,,,,,,
6658ad19f1e9209af5f899b0,SCN,2024-06-11_13h10.24.982,LearnStrategy,2023.2.3,Win32,60.24096386,9,1,2,0.34765625,-0.252604167,1,0,0,4.3254,Andesite_04,1,04,2,7,4.325,-0.376302083,-0.25,1,0,0,1.0119,Andesite_rect,1,1.012,1,1,0,1,0,1,,,,,,,,,,,,,
6658ad19f1e9209af5f899b0,SCN,2024-06-11_13h10.24.982,LearnStrategy,2023.2.3,Win32,60.24096386,9,1,3,-0.069010417,-0.388020833,1,0,0,1.2765,Peridotite_12,7,12,1,4,1.276,0.102864583,-0.41015625,1,0,0,1.6969,Peridotite_rect,7,1.697,1,2,0,2,0,1,,,,,,,,,,,,,
6658ad19f1e9209af5f899b0,SCN,2024-06-11_13h10.24.982,LearnStrategy,2023.2.3,Win32,60.24096386,9,1,4,-0.0859375,0.272135417,1,0,0,3.4943,Gabbro_12,4,12,5,4,3.494,-0.381510417,-0.248697917,1,0,0,1.2893,Andesite_rect,1,1.289,0,3,0,3,0,1,,,,,,,,,,,,,
6658ad19f1e9209af5f899b0,SCN,2024-06-11_13h10.24.982,LearnStrategy,2023.2.3,Win32,60.24096386,9,1,5,0.388020833,-0.384114583,1,0,0,3.5971,Gabbro_11,4,11,1,7,3.597,-0.354166667,-0.23828125,1,0,0,3.6132,Andesite_rect,1,3.613,0,4,0,4,0,1,,,,,,,,,,,,,
6658ad19f1e9209af5f899b0,SCN,2024-06-11_13h10.24.982,LearnStrategy,2023.2.3,Win32,60.24096386,9,1,6,0.067708333,-0.442708333,1,0,0,1.5129,Diorite_14,3,14,1,5,1.513,0.139322917,-0.270833333,1,0,0,2.0634,Diorite_rect,3,2.063,1,5,0,5,0,1,,,,,,,,,,,,,
6658ad19f1e9209af5f899b0,SCN,2024-06-11_13h10.24.982,LearnStrategy,2023.2.3,Win32,60.24096386,9,1,7,0.384114583,-0.09765625,1,0,0,1.5169,Andesite_11,1,11,3,7,1.517,-0.401041667,-0.244791667,1,0,0,1.5661,Andesite_rect,1,1.566,1,6,0,6,0,1,,,,,,,,,,,,,
6658ad19f1e9209af5f899b0,SCN,2024-06-11_13h10.24.982,LearnStrategy,2023.2.3,Win32,60.24096386,9,1,8,0.23046875,-0.2734375,1,0,0,1.2961,Diorite_13,3,13,2,6,1.296,0.126302083,-0.236979167,1,0,0,1.253,Diorite_rect,3,1.253,1,7,0,7,0,1,,,,,,,,,,,,,
6658ad19f1e9209af5f899b0,SCN,2024-06-11_13h10.24.982,LearnStrategy,2023.2.3,Win32,60.24096386,9,1,9,0.110677083,0.098958333,1,0,0,1.3139,Peridotite_04,7,04,4,5,1.314,0.145833333,-0.380208333,1,0,0,1.9568,Peridotite_rect,7,1.957,1,8,0,8,0,1,,,,,,,,,,,,,
6658ad19f1e9209af5f899b0,SCN,2024-06-11_13h10.24.982,LearnStrategy,2023.2.3,Win32,60.24096386,9,1,10,-0.225260417,0.119791667,1,0,0,1.0796,Pumice_08,8,08,4,3,1.08,0.415364583,-0.389322917,1,0,0,1.9959,Pumice_rect,8,1.996,1,9,0,9,0,1,,,,,,,,,,,,,
6658ad19f1e9209af5f899b0,SCN,2024-06-11_13h10.24.982,LearnStrategy,2023.2.3,Win32,60.24096386,9,1,11,-0.104166667,-0.229166667,1,0,0,3.2801,Andesite_01,1,01,2,4,3.28,0.186197917,-0.240885417,1,0,0,1.4691,Diorite_rect,3,1.469,0,10,0,10,0,1,,,,,,,,,,,,,
6658ad19f1e9209af5f899b0,SCN,2024-06-11_13h10.24.982,LearnStrategy,2023.2.3,Win32,60.24096386,9,1,12,-0.587239583,0.098958333,1,0,0,1.2894,Diorite_06,3,06,4,1,1.289,0.12109375,-0.252604167,1,0,0,1.9866,Diorite_rect,3,1.987,1,11,0,11,0,1,,,,,,,,,,,,,
6658ad19f1e9209af5f899b0,SCN,2024-06-11_13h10.24.982,LearnStrategy,2023.2.3,Win32,60.24096386,9,1,13,-0.41015625,0.06640625,1,0,0,1.1598,Pegmatite_11,6,11,4,2,1.16,-0.15234375,-0.39453125,1,0,0,1.1471,Pegmatite_rect,6,1.147,1,12,0,12,0,1,,,,,,,,,,,,,
6658ad19f1e9209af5f899b0,SCN,2024-06-11_13h10.24.982,LearnStrategy,2023.2.3,Win32,60.24096386,9,1,14,-0.048177083,0.079427083,1,0,0,0.9799,Peridotite_07,7,07,4,4,0.98,0.161458333,-0.39453125,1,0,0,1.403,Peridotite_rect,7,1.403,1,13,0,13,0,1,,,,,,,,,,,,,
6658ad19f1e9209af5f899b0,SCN,2024-06-11_13h10.24.982,LearnStrategy,2023.2.3,Win32,60.24096386,9,1,15,-0.221354167,0.231770833,1,0,0,1.3641,Pumice_16,8,16,5,3,1.364,0.358072917,-0.41796875,1,0,0,1.0672,Pumice_rect,8,1.067,1,14,0,14,0,1,,,,,,,,,,,,,
6658ad19f1e9209af5f899b0,SCN,2024-06-11_13h10.24.982,LearnStrategy,2023.2.3,Win32,60.24096386,9,1,16,-0.09765625,0.295572917,1,0,0,1.1503,Gabbro_12,4,12,5,4,1.15,0.384114583,-0.2421875,1,0,0,2.2509,Gabbro_rect,4,2.251,1,15,0,15,0,1,,,,,,,,,,,,,
6658ad19f1e9209af5f899b0,SCN,2024-06-11_13h10.24.982,LearnStrategy,2023.2.3,Win32,60.24096386,9,2,1,,,,,,,,1,06,,,,,,,,,,,1,2.07,1,,,,,,-0.40625,-0.234375,1,0,0,2.0697,Andesite_rect,0,0,0,0,1,
6658ad19f1e9209af5f899b0,SCN,2024-06-11_13h10.24.982,LearnStrategy,2023.2.3,Win32,60.24096386,9,2,2,,,,,,,,8,06,,,,,,,,,,,8,1.671,1,,,,,,0.345052083,-0.381510417,1,0,0,1.6706,Pumice_rect,1,0,1,0,1,
6658ad19f1e9209af5f899b0,SCN,2024-06-11_13h10.24.982,LearnStrategy,2023.2.3,Win32,60.24096386,9,2,3,,,,,,,,2,12,,,,,,,,,,,1,4.772,0,,,,,,-0.436197917,-0.239583333,1,0,0,4.7719,Andesite_rect,2,0,2,0,1,
6658ad19f1e9209af5f899b0,SCN,2024-06-11_13h10.24.982,LearnStrategy,2023.2.3,Win32,60.24096386,9,2,4,,,,,,,,8,14,,,,,,,,,,,8,1.938,1,,,,,,0.407552083,-0.401041667,1,0,0,1.9376,Pumice_rect,3,0,3,0,1,
6658ad19f1e9209af5f899b0,SCN,2024-06-11_13h10.24.982,LearnStrategy,2023.2.3,Win32,60.24096386,9,2,5,,,,,,,,6,12,,,,,,,,,,,6,1.765,1,,,,,,-0.1484375,-0.404947917,1,0,0,1.7646,Pegmatite_rect,4,0,4,0,1,
6658ad19f1e9209af5f899b0,SCN,2024-06-11_13h10.24.982,LearnStrategy,2023.2.3,Win32,60.24096386,9,2,6,,,,,,,,5,11,,,,,,,,,,,5,1.325,1,,,,,,-0.3984375,-0.3828125,1,0,0,1.325,Obsidian_rect,5,0,5,0,1,
6658ad19f1e9209af5f899b0,SCN,2024-06-11_13h10.24.982,LearnStrategy,2023.2.3,Win32,60.24096386,9,2,7,,,,,,,,3,02,,,,,,,,,,,3,1.573,1,,,,,,0.126302083,-0.229166667,1,0,0,1.5727,Diorite_rect,6,0,6,0,1,
6658ad19f1e9209af5f899b0,SCN,2024-06-11_13h10.24.982,LearnStrategy,2023.2.3,Win32,60.24096386,9,2,8,,,,,,,,6,07,,,,,,,,,,,6,1.471,1,,,,,,-0.125,-0.419270833,1,0,0,1.4707,Pegmatite_rect,7,0,7,0,1,
6658ad19f1e9209af5f899b0,SCN,2024-06-11_13h10.24.982,LearnStrategy,2023.2.3,Win32,60.24096386,9,2,9,,,,,,,,5,12,,,,,,,,,,,5,1.474,1,,,,,,-0.377604167,-0.407552083,1,0,0,1.4744,Obsidian_rect,8,0,8,0,1,
6658ad19f1e9209af5f899b0,SCN,2024-06-11_13h10.24.982,LearnStrategy,2023.2.3,Win32,60.24096386,9,2,10,,,,,,,,4,03,,,,,,,,,,,4,2.773,1,,,,,,0.408854167,-0.2578125,1,0,0,2.7734,Gabbro_rect,9,0,9,0,1,
6658ad19f1e9209af5f899b0,SCN,2024-06-11_13h10.24.982,LearnStrategy,2023.2.3,Win32,60.24096386,9,2,11,,,,,,,,2,01,,,,,,,,,,,2,1.541,1,,,,,,-0.119791667,-0.251302083,1,0,0,1.5405,Basalt_rect,10,0,10,0,1,
6658ad19f1e9209af5f899b0,SCN,2024-06-11_13h10.24.982,LearnStrategy,2023.2.3,Win32,60.24096386,9,2,12,,,,,,,,3,11,,,,,,,,,,,3,2.398,1,,,,,,0.125,-0.25390625,1,0,0,2.3978,Diorite_rect,11,0,11,0,1,
6658ad19f1e9209af5f899b0,SCN,2024-06-11_13h10.24.982,LearnStrategy,2023.2.3,Win32,60.24096386,9,2,13,,,,,,,,7,06,,,,,,,,,,,7,1.769,1,,,,,,0.134114583,-0.40625,1,0,0,1.7692,Peridotite_rect,12,0,12,0,1,
6658ad19f1e9209af5f899b0,SCN,2024-06-11_13h10.24.982,LearnStrategy,2023.2.3,Win32,60.24096386,9,2,14,,,,,,,,4,09,,,,,,,,,,,3,4.653,0,,,,,,0.165364583,-0.236979167,1,0,0,4.653,Diorite_rect,13,0,13,0,1,
6658ad19f1e9209af5f899b0,SCN,2024-06-11_13h10.24.982,LearnStrategy,2023.2.3,Win32,60.24096386,9,2,15,,,,,,,,1,02,,,,,,,,,,,1,5.287,1,,,,,,-0.399739583,-0.24609375,1,0,0,5.2871,Andesite_rect,14,0,14,0,1,
6658ad19f1e9209af5f899b0,SCN,2024-06-11_13h10.24.982,LearnStrategy,2023.2.3,Win32,60.24096386,9,2,16,,,,,,,,7,14,,,,,,,,,,,7,3.959,1,,,,,,0.158854167,-0.421875,1,0,0,3.9588,Peridotite_rect,15,0,15,0,1,
6658ad19f1e9209af5f899b0,SCN,2024-06-11_13h10.24.982,LearnStrategy,2023.2.3,Win32,60.24096386,,,,,,,,,,,,,,,,,,,,,,,,,,,,,,,,,,,,,,,,,,,1
6658ad19f1e9209af5f899b0,SCN,2024-06-11_13h10.24.982,LearnStrategy,2023.2.3,Win32,60.24096386,,,,,,,,,,,,,,,,,,,,,,,,,,,,,,,,,,,,,,,,,,,
6658ad19f1e9209af5f899b0,SCN,2024-06-11_13h10.24.982,LearnStrategy,2023.2.3,Win32,60.24096386,,,,,,,,,,,3,08,1,1,,,,,,,,,,,,,,,,,,,,,,,,,,,,,
6658ad19f1e9209af5f899b0,SCN,2024-06-11_13h10.24.982,LearnStrategy,2023.2.3,Win32,60.24096386,,,,,,,,,,,2,16,1,2,,,,,,,,,,,,,,,,,,,,,,,,,,,,,
6658ad19f1e9209af5f899b0,SCN,2024-06-11_13h10.24.982,LearnStrategy,2023.2.3,Win32,60.24096386,,,,,,,,,,,6,13,1,3,,,,,,,,,,,,,,,,,,,,,,,,,,,,,
6658ad19f1e9209af5f899b0,SCN,2024-06-11_13h10.24.982,LearnStrategy,2023.2.3,Win32,60.24096386,,,,,,,,,,,7,12,1,4,,,,,,,,,,,,,,,,,,,,,,,,,,,,,
6658ad19f1e9209af5f899b0,SCN,2024-06-11_13h10.24.982,LearnStrategy,2023.2.3,Win32,60.24096386,,,,,,,,,,,3,14,1,5,,,,,,,,,,,,,,,,,,,,,,,,,,,,,
6658ad19f1e9209af5f899b0,SCN,2024-06-11_13h10.24.982,LearnStrategy,2023.2.3,Win32,60.24096386,,,,,,,,,,,7,15,1,6,,,,,,,,,,,,,,,,,,,,,,,,,,,,,
6658ad19f1e9209af5f899b0,SCN,2024-06-11_13h10.24.982,LearnStrategy,2023.2.3,Win32,60.24096386,,,,,,,,,,,4,11,1,7,,,,,,,,,,,,,,,,,,,,,,,,,,,,,
6658ad19f1e9209af5f899b0,SCN,2024-06-11_13h10.24.982,LearnStrategy,2023.2.3,Win32,60.24096386,,,,,,,,,,,5,05,1,8,,,,,,,,,,,,,,,,,,,,,,,,,,,,,
6658ad19f1e9209af5f899b0,SCN,2024-06-11_13h10.24.982,LearnStrategy,2023.2.3,Win32,60.24096386,,,,,,,,,,,6,05,2,1,,,,,,,,,,,,,,,,,,,,,,,,,,,,,
6658ad19f1e9209af5f899b0,SCN,2024-06-11_13h10.24.982,LearnStrategy,2023.2.3,Win32,60.24096386,,,,,,,,,,,3,07,2,2,,,,,,,,,,,,,,,,,,,,,,,,,,,,,
6658ad19f1e9209af5f899b0,SCN,2024-06-11_13h10.24.982,LearnStrategy,2023.2.3,Win32,60.24096386,,,,,,,,,,,8,10,2,3,,,,,,,,,,,,,,,,,,,,,,,,,,,,,
6658ad19f1e9209af5f899b0,SCN,2024-06-11_13h10.24.982,LearnStrategy,2023.2.3,Win32,60.24096386,,,,,,,,,,,1,01,2,4,,,,,,,,,,,,,,,,,,,,,,,,,,,,,
6658ad19f1e9209af5f899b0,SCN,2024-06-11_13h10.24.982,LearnStrategy,2023.2.3,Win32,60.24096386,,,,,,,,,,,1,10,2,5,,,,,,,,,,,,,,,,,,,,,,,,,,,,,
6658ad19f1e9209af5f899b0,SCN,2024-06-11_13h10.24.982,LearnStrategy,2023.2.3,Win32,60.24096386,,,,,,,,,,,3,13,2,6,,,,,,,,,,,,,,,,,,,,,,,,,,,,,
6658ad19f1e9209af5f899b0,SCN,2024-06-11_13h10.24.982,LearnStrategy,2023.2.3,Win32,60.24096386,,,,,,,,,,,1,04,2,7,,,,,,,,,,,,,,,,,,,,,,,,,,,,,
6658ad19f1e9209af5f899b0,SCN,2024-06-11_13h10.24.982,LearnStrategy,2023.2.3,Win32,60.24096386,,,,,,,,,,,7,13,2,8,,,,,,,,,,,,,,,,,,,,,,,,,,,,,
6658ad19f1e9209af5f899b0,SCN,2024-06-11_13h10.24.982,LearnStrategy,2023.2.3,Win32,60.24096386,,,,,,,,,,,2,05,3,1,,,,,,,,,,,,,,,,,,,,,,,,,,,,,
6658ad19f1e9209af5f899b0,SCN,2024-06-11_13h10.24.982,LearnStrategy,2023.2.3,Win32,60.24096386,,,,,,,,,,,8,03,3,2,,,,,,,,,,,,,,,,,,,,,,,,,,,,,
6658ad19f1e9209af5f899b0,SCN,2024-06-11_13h10.24.982,LearnStrategy,2023.2.3,Win32,60.24096386,,,,,,,,,,,5,07,3,3,,,,,,,,,,,,,,,,,,,,,,,,,,,,,
6658ad19f1e9209af5f899b0,SCN,2024-06-11_13h10.24.982,LearnStrategy,2023.2.3,Win32,60.24096386,,,,,,,,,,,5,16,3,4,,,,,,,,,,,,,,,,,,,,,,,,,,,,,
6658ad19f1e9209af5f899b0,SCN,2024-06-11_13h10.24.982,LearnStrategy,2023.2.3,Win32,60.24096386,,,,,,,,,,,4,14,3,5,,,,,,,,,,,,,,,,,,,,,,,,,,,,,
6658ad19f1e9209af5f899b0,SCN,2024-06-11_13h10.24.982,LearnStrategy,2023.2.3,Win32,60.24096386,,,,,,,,,,,4,05,3,6,,,,,,,,,,,,,,,,,,,,,,,,,,,,,
6658ad19f1e9209af5f899b0,SCN,2024-06-11_13h10.24.982,LearnStrategy,2023.2.3,Win32,60.24096386,,,,,,,,,,,1,11,3,7,,,,,,,,,,,,,,,,,,,,,,,,,,,,,
6658ad19f1e9209af5f899b0,SCN,2024-06-11_13h10.24.982,LearnStrategy,2023.2.3,Win32,60.24096386,,,,,,,,,,,3,09,3,8,,,,,,,,,,,,,,,,,,,,,,,,,,,,,
6658ad19f1e9209af5f899b0,SCN,2024-06-11_13h10.24.982,LearnStrategy,2023.2.3,Win32,60.24096386,,,,,,,,,,,3,06,4,1,,,,,,,,,,,,,,,,,,,,,,,,,,,,,
6658ad19f1e9209af5f899b0,SCN,2024-06-11_13h10.24.982,LearnStrategy,2023.2.3,Win32,60.24096386,,,,,,,,,,,6,11,4,2,,,,,,,,,,,,,,,,,,,,,,,,,,,,,
6658ad19f1e9209af5f899b0,SCN,2024-06-11_13h10.24.982,LearnStrategy,2023.2.3,Win32,60.24096386,,,,,,,,,,,8,08,4,3,,,,,,,,,,,,,,,,,,,,,,,,,,,,,
6658ad19f1e9209af5f899b0,SCN,2024-06-11_13h10.24.982,LearnStrategy,2023.2.3,Win32,60.24096386,,,,,,,,,,,7,07,4,4,,,,,,,,,,,,,,,,,,,,,,,,,,,,,
6658ad19f1e9209af5f899b0,SCN,2024-06-11_13h10.24.982,LearnStrategy,2023.2.3,Win32,60.24096386,,,,,,,,,,,7,04,4,5,,,,,,,,,,,,,,,,,,,,,,,,,,,,,
6658ad19f1e9209af5f899b0,SCN,2024-06-11_13h10.24.982,LearnStrategy,2023.2.3,Win32,60.24096386,,,,,,,,,,,5,10,4,6,,,,,,,,,,,,,,,,,,,,,,,,,,,,,
6658ad19f1e9209af5f899b0,SCN,2024-06-11_13h10.24.982,LearnStrategy,2023.2.3,Win32,60.24096386,,,,,,,,,,,6,06,4,7,,,,,,,,,,,,,,,,,,,,,,,,,,,,,
6658ad19f1e9209af5f899b0,SCN,2024-06-11_13h10.24.982,LearnStrategy,2023.2.3,Win32,60.24096386,,,,,,,,,,,8,15,4,8,,,,,,,,,,,,,,,,,,,,,,,,,,,,,
6658ad19f1e9209af5f899b0,SCN,2024-06-11_13h10.24.982,LearnStrategy,2023.2.3,Win32,60.24096386,,,,,,,,,,,5,02,5,1,,,,,,,,,,,,,,,,,,,,,,,,,,,,,
6658ad19f1e9209af5f899b0,SCN,2024-06-11_13h10.24.982,LearnStrategy,2023.2.3,Win32,60.24096386,,,,,,,,,,,4,13,5,2,,,,,,,,,,,,,,,,,,,,,,,,,,,,,
6658ad19f1e9209af5f899b0,SCN,2024-06-11_13h10.24.982,LearnStrategy,2023.2.3,Win32,60.24096386,,,,,,,,,,,8,16,5,3,,,,,,,,,,,,,,,,,,,,,,,,,,,,,
6658ad19f1e9209af5f899b0,SCN,2024-06-11_13h10.24.982,LearnStrategy,2023.2.3,Win32,60.24096386,,,,,,,,,,,4,12,5,4,,,,,,,,,,,,,,,,,,,,,,,,,,,,,
6658ad19f1e9209af5f899b0,SCN,2024-06-11_13h10.24.982,LearnStrategy,2023.2.3,Win32,60.24096386,,,,,,,,,,,7,02,5,5,,,,,,,,,,,,,,,,,,,,,,,,,,,,,
6658ad19f1e9209af5f899b0,SCN,2024-06-11_13h10.24.982,LearnStrategy,2023.2.3,Win32,60.24096386,,,,,,,,,,,6,09,5,6,,,,,,,,,,,,,,,,,,,,,,,,,,,,,
6658ad19f1e9209af5f899b0,SCN,2024-06-11_13h10.24.982,LearnStrategy,2023.2.3,Win32,60.24096386,,,,,,,,,,,1,16,5,7,,,,,,,,,,,,,,,,,,,,,,,,,,,,,
6658ad19f1e9209af5f899b0,SCN,2024-06-11_13h10.24.982,LearnStrategy,2023.2.3,Win32,60.24096386,,,,,,,,,,,1,05,5,8,,,,,,,,,,,,,,,,,,,,,,,,,,,,,
6658ad19f1e9209af5f899b0,SCN,2024-06-11_13h10.24.982,LearnStrategy,2023.2.3,Win32,60.24096386,,,,,,,,,,,2,11,6,1,,,,,,,,,,,,,,,,,,,,,,,,,,,,,
6658ad19f1e9209af5f899b0,SCN,2024-06-11_13h10.24.982,LearnStrategy,2023.2.3,Win32,60.24096386,,,,,,,,,,,8,05,6,2,,,,,,,,,,,,,,,,,,,,,,,,,,,,,
6658ad19f1e9209af5f899b0,SCN,2024-06-11_13h10.24.982,LearnStrategy,2023.2.3,Win32,60.24096386,,,,,,,,,,,5,04,6,3,,,,,,,,,,,,,,,,,,,,,,,,,,,,,
6658ad19f1e9209af5f899b0,SCN,2024-06-11_13h10.24.982,LearnStrategy,2023.2.3,Win32,60.24096386,,,,,,,,,,,2,09,6,4,,,,,,,,,,,,,,,,,,,,,,,,,,,,,
6658ad19f1e9209af5f899b0,SCN,2024-06-11_13h10.24.982,LearnStrategy,2023.2.3,Win32,60.24096386,,,,,,,,,,,2,10,6,5,,,,,,,,,,,,,,,,,,,,,,,,,,,,,
6658ad19f1e9209af5f899b0,SCN,2024-06-11_13h10.24.982,LearnStrategy,2023.2.3,Win32,60.24096386,,,,,,,,,,,2,08,6,6,,,,,,,,,,,,,,,,,,,,,,,,,,,,,
6658ad19f1e9209af5f899b0,SCN,2024-06-11_13h10.24.982,LearnStrategy,2023.2.3,Win32,60.24096386,,,,,,,,,,,6,16,6,7,,,,,,,,,,,,,,,,,,,,,,,,,,,,,
6658ad19f1e9209af5f899b0,SCN,2024-06-11_13h10.24.982,LearnStrategy,2023.2.3,Win32,60.24096386,,,,,,,,,,,4,16,6,8,,,,,,,,,,,,,,,,,,,,,,,,,,,,,