participant,condition,date,expName,psychopyVersion,OS,frameRate,block,phase,trial,learn_mouse.x,learn_mouse.y,learn_mouse.leftButton,learn_mouse.midButton,learn_mouse.rightButton,learn_mouse.time,learn_mouse.clicked_name,cat,token,row,col,t_select,cat_rec,token_rec,cat_mouse_l.x,cat_mouse_l.y,cat_mouse_l.leftButton,cat_mouse_l.midButton,cat_mouse_l.rightButton,cat_mouse_l.time,cat_mouse_l.clicked_name,resp,t_resp,corr,train_trials.thisRepN,train_trials.thisTrialN,train_trials.thisN,train_trials.thisIndex,train_trials.ran,cat_mouse_t.x,cat_mouse_t.y,cat_mouse_t.leftButton,cat_mouse_t.midButton,cat_mouse_t.rightButton,cat_mouse_t.time,cat_mouse_t.clicked_name,test_trials.thisRepN,test_trials.thisTrialN,test_trials.thisN,test_trials.thisIndex,test_trials.ran,Bonus
665ca5c19424301a3658f79c,SCR,2024-06-24_11h45.45.667,LearnStrategy,2023.2.3,Win32,60.24096386,,,,,,,,,,,,,,,,,,,,,,,,,,,,,,,,,,,,,,,,,,,,,
665ca5c19424301a3658f79c,SCR,2024-06-24_11h45.45.667,LearnStrategy,2023.2.3,Win32,60.24096386,1,1,1,-0.540201813,0.376388885,1,0,0,9.5869,Peridotite_12,7,12,6,1,9.587,4,09,-0.062076807,-0.269444466,1,0,0,9.9978,Basalt_rect,2,9.998,0,0,0,0,0,1,,,,,,,,,,,,,
665ca5c19424301a3658f79c,SCR,2024-06-24_11h45.45.667,LearnStrategy,2023.2.3,Win32,60.24096386,1,1,2,-0.397840708,0.384374999,1,0,0,2.0707,Diorite_12,3,12,6,2,2.071,8,02,-0.357215703,-0.250694454,1,0,0,29.1944,Andesite_rect,1,29.194,0,1,0,1,0,1,,,,,,,,,,,,,
665ca5c19424301a3658f79c,SCR,2024-06-24_11h45.45.667,LearnStrategy,2023.2.3,Win32,60.24096386,1,1,3,-0.217285156,0.412847221,1,0,0,1.4158,Basalt_08,2,08,6,3,1.416,7,02,-0.306868494,-0.399652779,1,0,0,5.2191,Obsidian_rect,5,5.219,0,2,0,2,0,1,,,,,,,,,,,,,
665ca5c19424301a3658f79c,SCR,2024-06-24_11h45.45.667,LearnStrategy,2023.2.3,Win32,60.24096386,1,1,4,-0.038118482,0.405902773,1,0,0,3.6835,Andesite_05,1,05,6,4,3.683,6,06,0.421950936,-0.252777815,1,0,0,2.5348,Gabbro_rect,4,2.535,0,3,0,3,0,1,,,,,,,,,,,,,
665ca5c19424301a3658f79c,SCR,2024-06-24_11h45.45.667,LearnStrategy,2023.2.3,Win32,60.24096386,1,1,5,0.086534321,0.399305552,1,0,0,3.1655,Obsidian_05,5,05,6,5,3.165,5,05,0.188964844,-0.395138919,1,0,0,4.9071,Peridotite_rect,7,4.907,0,4,0,4,0,1,,,,,,,,,,,,,
665ca5c19424301a3658f79c,SCR,2024-06-24_11h45.45.667,LearnStrategy,2023.2.3,Win32,60.24096386,1,1,6,0.249728799,0.386805542,1,0,0,2.3152,Gabbro_11,4,11,6,6,2.315,5,09,0.399728775,-0.405208349,1,0,0,5.307,Pumice_rect,8,5.307,0,5,0,5,0,1,,,,,,,,,,,,,
665ca5c19424301a3658f79c,SCR,2024-06-24_11h45.45.667,LearnStrategy,2023.2.3,Win32,60.24096386,1,1,7,0.419173241,0.415624999,1,0,0,1.0637,Basalt_12,2,12,6,7,1.064,2,12,0.408409357,-0.419444442,1,0,0,2.0608,Pumice_rect,8,2.061,0,6,0,6,0,1,,,,,,,,,,,,,
665ca5c19424301a3658f79c,SCR,2024-06-24_11h45.45.667,LearnStrategy,2023.2.3,Win32,60.24096386,1,1,8,0.582020402,0.392708331,1,0,0,1.3476,Pegmatite_10,6,10,6,8,1.348,3,11,-0.104785144,-0.384027779,1,0,0,3.8616,Pegmatite_rect,6,3.862,1,7,0,7,0,1,,,,,,,,,,,,,
665ca5c19424301a3658f79c,SCR,2024-06-24_11h45.45.667,LearnStrategy,2023.2.3,Win32,60.24096386,1,1,9,-0.547493488,0.227430552,1,0,0,1.8977,Peridotite_02,7,02,5,1,1.898,8,03,0.086534321,-0.414583445,1,0,0,3.7376,Peridotite_rect,7,3.738,1,8,0,8,0,1,,,,,,,,,,,,,
665ca5c19424301a3658f79c,SCR,2024-06-24_11h45.45.667,LearnStrategy,2023.2.3,Win32,60.24096386,1,1,10,-0.393326819,0.237499982,1,0,0,1.9318,Gabbro_05,4,05,5,2,1.932,7,15,-0.357910156,-0.233333349,1,0,0,3.0258,Andesite_rect,1,3.026,0,9,0,9,0,1,,,,,,,,,,,,,
665ca5c19424301a3658f79c,SCR,2024-06-24_11h45.45.667,LearnStrategy,2023.2.3,Win32,60.24096386,1,1,11,-0.199924052,0.243055552,1,0,0,0.9315,Gabbro_12,4,12,5,3,0.931,6,03,-0.119715691,-0.242708325,1,0,0,1.6745,Basalt_rect,2,1.675,0,10,0,10,0,1,,,,,,,,,,,,,
665ca5c19424301a3658f79c,SCR,2024-06-24_11h45.45.667,LearnStrategy,2023.2.3,Win32,60.24096386,1,1,12,-0.057910144,0.236805558,1,0,0,1.1817,Pumice_05,8,05,5,4,1.182,4,15,0.438964844,-0.411458373,1,0,0,1.461,Pumice_rect,8,1.461,1,11,0,11,0,1,,,,,,,,,,,,,
665ca5c19424301a3658f79c,SCR,2024-06-24_11h45.45.667,LearnStrategy,2023.2.3,Win32,60.24096386,1,1,13,0.084103763,0.226736069,1,0,0,0.9308,Gabbro_09,4,09,5,5,0.931,3,13,-0.070410132,-0.252083361,1,0,0,4.3574,Basalt_rect,2,4.357,0,12,0,12,0,1,,,,,,,,,,,,,
665ca5c19424301a3658f79c,SCR,2024-06-24_11h45.45.667,LearnStrategy,2023.2.3,Win32,60.24096386,1,1,14,0.259103775,0.228472203,1,0,0,4.249,Basalt_11,2,11,5,6,4.249,2,05,0.398339868,-0.410069466,1,0,0,2.0861,Pumice_rect,8,2.086,0,13,0,13,0,1,,,,,,,,,,,,,
665ca5c19424301a3658f79c,SCR,2024-06-24_11h45.45.667,LearnStrategy,2023.2.3,Win32,60.24096386,1,1,15,0.444173217,0.247222215,1,0,0,0.8644,Obsidian_08,5,08,5,7,0.864,1,01,-0.346104562,-0.410763919,1,0,0,1.8248,Obsidian_rect,5,1.825,1,14,0,14,0,1,,,,,,,,,,,,,
665ca5c19424301a3658f79c,SCR,2024-06-24_11h45.45.667,LearnStrategy,2023.2.3,Win32,60.24096386,1,1,16,0.549034357,0.233333319,1,0,0,1.2987,Pegmatite_06,6,06,5,8,1.299,1,06,0.395909309,-0.268402815,1,0,0,3.3095,Gabbro_rect,4,3.31,0,15,0,15,0,1,,,,,,,,,,,,,
665ca5c19424301a3658f79c,SCR,2024-06-24_11h45.45.667,LearnStrategy,2023.2.3,Win32,60.24096386,1,2,1,,,,,,,,6,07,,,,,,,,,,,,,7,13.38,0,,,,,,0.178895473,-0.403819442,1,0,0,13.3805,Peridotite_rect,0,0,0,0,1,
665ca5c19424301a3658f79c,SCR,2024-06-24_11h45.45.667,LearnStrategy,2023.2.3,Win32,60.24096386,1,2,2,,,,,,,,1,10,,,,,,,,,,,,,4,5.079,0,,,,,,0.410839915,-0.259027779,1,0,0,5.0795,Gabbro_rect,1,0,1,0,1,
665ca5c19424301a3658f79c,SCR,2024-06-24_11h45.45.667,LearnStrategy,2023.2.3,Win32,60.24096386,1,2,3,,,,,,,,7,08,,,,,,,,,,,,,2,15.4,0,,,,,,-0.123535156,-0.247569442,1,0,0,15.3996,Basalt_rect,2,0,2,0,1,
665ca5c19424301a3658f79c,SCR,2024-06-24_11h45.45.667,LearnStrategy,2023.2.3,Win32,60.24096386,1,2,4,,,,,,,,1,14,,,,,,,,,,,,,1,8.097,1,,,,,,-0.39436847,-0.248263896,1,0,0,8.0973,Andesite_rect,3,0,3,0,1,
665ca5c19424301a3658f79c,SCR,2024-06-24_11h45.45.667,LearnStrategy,2023.2.3,Win32,60.24096386,1,2,5,,,,,,,,4,10,,,,,,,,,,,,,4,22.351,1,,,,,,0.38583982,-0.251388907,1,0,0,22.3509,Gabbro_rect,4,0,4,0,1,
665ca5c19424301a3658f79c,SCR,2024-06-24_11h45.45.667,LearnStrategy,2023.2.3,Win32,60.24096386,1,2,6,,,,,,,,6,08,,,,,,,,,,,,,6,4.74,1,,,,,,-0.094021261,-0.411458373,1,0,0,4.7401,Pegmatite_rect,5,0,5,0,1,
665ca5c19424301a3658f79c,SCR,2024-06-24_11h45.45.667,LearnStrategy,2023.2.3,Win32,60.24096386,1,2,7,,,,,,,,8,13,,,,,,,,,,,,,8,6.576,1,,,,,,0.435840011,-0.398958325,1,0,0,6.5759,Pumice_rect,6,0,6,0,1,
665ca5c19424301a3658f79c,SCR,2024-06-24_11h45.45.667,LearnStrategy,2023.2.3,Win32,60.24096386,1,2,8,,,,,,,,2,10,,,,,,,,,,,,,5,18,0,,,,,,-0.36311847,-0.398263931,1,0,0,18.0005,Obsidian_rect,7,0,7,0,1,
665ca5c19424301a3658f79c,SCR,2024-06-24_11h45.45.667,LearnStrategy,2023.2.3,Win32,60.24096386,1,2,9,,,,,,,,5,07,,,,,,,,,,,,,5,1.489,1,,,,,,-0.356174052,-0.389583349,1,0,0,1.4893,Obsidian_rect,8,0,8,0,1,
665ca5c19424301a3658f79c,SCR,2024-06-24_11h45.45.667,LearnStrategy,2023.2.3,Win32,60.24096386,1,2,10,,,,,,,,3,08,,,,,,,,,,,,,4,14.716,0,,,,,,0.391048193,-0.234722257,1,0,0,14.716,Gabbro_rect,9,0,9,0,1,
665ca5c19424301a3658f79c,SCR,2024-06-24_11h45.45.667,LearnStrategy,2023.2.3,Win32,60.24096386,1,2,11,,,,,,,,7,07,,,,,,,,,,,,,3,12.344,0,,,,,,0.114659309,-0.261458337,1,0,0,12.344,Diorite_rect,10,0,10,0,1,
665ca5c19424301a3658f79c,SCR,2024-06-24_11h45.45.667,LearnStrategy,2023.2.3,Win32,60.24096386,1,2,12,,,,,,,,5,16,,,,,,,,,,,,,5,1.178,1,,,,,,-0.382910073,-0.395833373,1,0,0,1.1785,Obsidian_rect,11,0,11,0,1,
665ca5c19424301a3658f79c,SCR,2024-06-24_11h45.45.667,LearnStrategy,2023.2.3,Win32,60.24096386,1,2,13,,,,,,,,8,06,,,,,,,,,,,,,8,2.613,1,,,,,,0.384103775,-0.412152886,1,0,0,2.6125,Pumice_rect,12,0,12,0,1,
665ca5c19424301a3658f79c,SCR,2024-06-24_11h45.45.667,LearnStrategy,2023.2.3,Win32,60.24096386,1,2,14,,,,,,,,2,09,,,,,,,,,,,,,2,1.712,1,,,,,,-0.097840607,-0.250694454,1,0,0,1.712,Basalt_rect,13,0,13,0,1,
665ca5c19424301a3658f79c,SCR,2024-06-24_11h45.45.667,LearnStrategy,2023.2.3,Win32,60.24096386,1,2,15,,,,,,,,3,10,,,,,,,,,,,,,3,2.307,1,,,,,,0.149728775,-0.245833337,1,0,0,2.3071,Diorite_rect,14,0,14,0,1,
665ca5c19424301a3658f79c,SCR,2024-06-24_11h45.45.667,LearnStrategy,2023.2.3,Win32,60.24096386,1,2,16,,,,,,,,4,13,,,,,,,,,,,,,3,6.613,0,,,,,,0.149728775,-0.245833337,1,0,0,6.6129,Diorite_rect,15,0,15,0,1,
665ca5c19424301a3658f79c,SCR,2024-06-24_11h45.45.667,LearnStrategy,2023.2.3,Win32,60.24096386,2,1,1,-0.571104586,0.380902775,1,0,0,8.9175,Peridotite_12,7,12,6,1,8.917,7,12,0.170215011,-0.411111116,1,0,0,6.6573,Peridotite_rect,7,6.657,1,0,0,0,0,1,,,,,,,,,,,,,
665ca5c19424301a3658f79c,SCR,2024-06-24_11h45.45.667,LearnStrategy,2023.2.3,Win32,60.24096386,2,1,2,-0.378396273,-0.434375107,1,0,0,3.4318,Obsidian_02,5,02,1,2,3.432,5,11,-0.369715691,-0.396875024,1,0,0,0.8548,Obsidian_rect,5,0.855,1,1,0,1,0,1,,,,,,,,,,,,,
665ca5c19424301a3658f79c,SCR,2024-06-24_11h45.45.667,LearnStrategy,2023.2.3,Win32,60.24096386,2,1,3,0.393478751,0.236805558,1,0,0,1.1655,Obsidian_08,5,08,5,7,1.166,4,05,-0.397840708,-0.398958325,1,0,0,0.9285,Obsidian_rect,5,0.928,1,2,0,2,0,1,,,,,,,,,,,,,
665ca5c19424301a3658f79c,SCR,2024-06-24_11h45.45.667,LearnStrategy,2023.2.3,Win32,60.24096386,2,1,4,-0.075965703,-0.276388884,1,0,0,4.0328,Pumice_04,8,04,2,4,4.033,6,06,0.399034262,-0.387500107,1,0,0,0.8624,Pumice_rect,8,0.862,1,3,0,3,0,1,,,,,,,,,,,,,
665ca5c19424301a3658f79c,SCR,2024-06-24_11h45.45.667,LearnStrategy,2023.2.3,Win32,60.24096386,2,1,5,0.250423193,-0.276041687,1,0,0,4.6347,Pegmatite_11,6,11,2,6,4.635,7,05,-0.115896225,-0.396875024,1,0,0,2.7826,Pegmatite_rect,6,2.783,1,4,0,4,0,1,,,,,,,,,,,,,
665ca5c19424301a3658f79c,SCR,2024-06-24_11h45.45.667,LearnStrategy,2023.2.3,Win32,60.24096386,2,1,6,0.232020378,-0.426388919,1,0,0,1.6815,Peridotite_15,7,15,1,6,1.682,3,02,0.097298205,-0.248958349,1,0,0,2.0943,Diorite_rect,3,2.094,0,5,0,5,0,1,,,,,,,,,,,,,
665ca5c19424301a3658f79c,SCR,2024-06-24_11h45.45.667,LearnStrategy,2023.2.3,Win32,60.24096386,2,1,7,-0.36416012,-0.268750012,1,0,0,3.4831,Basalt_02,2,02,2,2,3.483,7,02,-0.168326795,-0.23541677,1,0,0,0.933,Basalt_rect,2,0.933,1,6,0,6,0,1,,,,,,,,,,,,,
665ca5c19424301a3658f79c,SCR,2024-06-24_11h45.45.667,LearnStrategy,2023.2.3,Win32,60.24096386,2,1,8,-0.079785049,-0.130208373,1,0,0,2.0483,Gabbro_15,4,15,3,4,2.048,6,03,-0.351660073,-0.253472328,1,0,0,1.7437,Andesite_rect,1,1.744,0,7,0,7,0,1,,,,,,,,,,,,,
665ca5c19424301a3658f79c,SCR,2024-06-24_11h45.45.667,LearnStrategy,2023.2.3,Win32,60.24096386,2,1,9,0.21396482,-0.10381943,1,0,0,5.2664,Pegmatite_03,6,03,3,6,5.266,1,05,-0.111035049,-0.40729177,1,0,0,1.8995,Pegmatite_rect,6,1.899,1,8,0,8,0,1,,,,,,,,,,,,,
665ca5c19424301a3658f79c,SCR,2024-06-24_11h45.45.667,LearnStrategy,2023.2.3,Win32,60.24096386,2,1,10,-0.23916012,-0.436458349,1,0,0,2.4992,Diorite_16,3,16,1,3,2.499,4,09,0.124728799,-0.244097233,1,0,0,1.6452,Diorite_rect,3,1.645,1,9,0,9,0,1,,,,,,,,,,,,,
665ca5c19424301a3658f79c,SCR,2024-06-24_11h45.45.667,LearnStrategy,2023.2.3,Win32,60.24096386,2,1,11,0.387575984,0.114236116,1,0,0,2.7978,Peridotite_10,7,10,4,7,2.798,7,10,0.424034357,-0.257291675,1,0,0,1.0638,Gabbro_rect,4,1.064,0,10,0,10,0,1,,,,,,,,,,,,,
665ca5c19424301a3658f79c,SCR,2024-06-24_11h45.45.667,LearnStrategy,2023.2.3,Win32,60.24096386,2,1,12,0.071256518,0.085416615,1,0,0,2.0657,Diorite_02,3,02,4,5,2.066,1,16,0.109103739,-0.400000036,1,0,0,2.8122,Peridotite_rect,7,2.812,0,11,0,11,0,1,,,,,,,,,,,,,
665ca5c19424301a3658f79c,SCR,2024-06-24_11h45.45.667,LearnStrategy,2023.2.3,Win32,60.24096386,2,1,13,-0.224576831,-0.428125024,1,0,0,2.9314,Diorite_16,3,16,1,3,2.931,2,16,0.055284321,-0.254513919,1,0,0,0.9419,Diorite_rect,3,0.942,1,12,0,12,0,1,,,,,,,,,,,,,
665ca5c19424301a3658f79c,SCR,2024-06-24_11h45.45.667,LearnStrategy,2023.2.3,Win32,60.24096386,2,1,14,0.410145402,-0.269791663,1,0,0,1.4323,Diorite_11,3,11,2,7,1.432,3,16,0.184450984,-0.255902767,1,0,0,1.4757,Diorite_rect,3,1.476,1,13,0,13,0,1,,,,,,,,,,,,,
665ca5c19424301a3658f79c,SCR,2024-06-24_11h45.45.667,LearnStrategy,2023.2.3,Win32,60.24096386,2,1,15,-0.531868488,-0.258333325,1,0,0,2.5489,Diorite_09,3,09,2,1,2.549,2,05,0.078548193,-0.252083361,1,0,0,0.7762,Diorite_rect,3,0.776,1,14,0,14,0,1,,,,,,,,,,,,,
665ca5c19424301a3658f79c,SCR,2024-06-24_11h45.45.667,LearnStrategy,2023.2.3,Win32,60.24096386,2,1,16,-0.552701801,-0.096875012,1,0,0,1.8823,Pumice_14,8,14,3,1,1.882,3,09,0.390353799,-0.393750012,1,0,0,0.8784,Pumice_rect,8,0.878,1,15,0,15,0,1,,,,,,,,,,,,,
665ca5c19424301a3658f79c,SCR,2024-06-24_11h45.45.667,LearnStrategy,2023.2.3,Win32,60.24096386,2,2,1,,,,,,,,4,08,,,,,,,,,,,,,4,1.723,1,,,,,,0.41813159,-0.265625,1,0,0,1.7235,Gabbro_rect,0,0,0,0,1,
665ca5c19424301a3658f79c,SCR,2024-06-24_11h45.45.667,LearnStrategy,2023.2.3,Win32,60.24096386,2,2,2,,,,,,,,1,04,,,,,,,,,,,,,1,5.457,1,,,,,,-0.424576819,-0.25,1,0,0,5.4575,Andesite_rect,1,0,1,0,1,
665ca5c19424301a3658f79c,SCR,2024-06-24_11h45.45.667,LearnStrategy,2023.2.3,Win32,60.24096386,2,2,3,,,,,,,,3,14,,,,,,,,,,,,,3,1.012,1,,,,,,0.095909297,-0.268750012,1,0,0,1.0118,Diorite_rect,2,0,2,0,1,
665ca5c19424301a3658f79c,SCR,2024-06-24_11h45.45.667,LearnStrategy,2023.2.3,Win32,60.24096386,2,2,4,,,,,,,,7,16,,,,,,,,,,,,,7,2.123,1,,,,,,0.112228751,-0.409375012,1,0,0,2.1231,Peridotite_rect,3,0,3,0,1,
665ca5c19424301a3658f79c,SCR,2024-06-24_11h45.45.667,LearnStrategy,2023.2.3,Win32,60.24096386,2,2,5,,,,,,,,8,09,,,,,,,,,,,,,8,0.853,1,,,,,,0.374728799,-0.385763884,1,0,0,0.8526,Pumice_rect,4,0,4,0,1,
665ca5c19424301a3658f79c,SCR,2024-06-24_11h45.45.667,LearnStrategy,2023.2.3,Win32,60.24096386,2,2,6,,,,,,,,6,15,,,,,,,,,,,,,6,1.123,1,,,,,,-0.150618494,-0.404513896,1,0,0,1.1231,Pegmatite_rect,5,0,5,0,1,
665ca5c19424301a3658f79c,SCR,2024-06-24_11h45.45.667,LearnStrategy,2023.2.3,Win32,60.24096386,2,2,7,,,,,,,,4,16,,,,,,,,,,,,,2,2.946,0,,,,,,-0.134646237,-0.266319454,1,0,0,2.9461,Basalt_rect,6,0,6,0,1,
665ca5c19424301a3658f79c,SCR,2024-06-24_11h45.45.667,LearnStrategy,2023.2.3,Win32,60.24096386,2,2,8,,,,,,,,2,01,,,,,,,,,,,,,2,0.862,1,,,,,,-0.134646237,-0.266319454,1,0,0,0.8619,Basalt_rect,7,0,7,0,1,
665ca5c19424301a3658f79c,SCR,2024-06-24_11h45.45.667,LearnStrategy,2023.2.3,Win32,60.24096386,2,2,9,,,,,,,,5,04,,,,,,,,,,,,,5,0.912,1,,,,,,-0.403743476,-0.411458373,1,0,0,0.9117,Obsidian_rect,8,0,8,0,1,
665ca5c19424301a3658f79c,SCR,2024-06-24_11h45.45.667,LearnStrategy,2023.2.3,Win32,60.24096386,2,2,10,,,,,,,,3,07,,,,,,,,,,,,,3,1.691,1,,,,,,0.124034286,-0.253125012,1,0,0,1.6907,Diorite_rect,9,0,9,0,1,
665ca5c19424301a3658f79c,SCR,2024-06-24_11h45.45.667,LearnStrategy,2023.2.3,Win32,60.24096386,2,2,11,,,,,,,,2,04,,,,,,,,,,,,,5,2.046,0,,,,,,-0.392285138,-0.413541675,1,0,0,2.0456,Obsidian_rect,10,0,10,0,1,
665ca5c19424301a3658f79c,SCR,2024-06-24_11h45.45.667,LearnStrategy,2023.2.3,Win32,60.24096386,2,2,12,,,,,,,,1,09,,,,,,,,,,,,,4,2.54,0,,,,,,0.362228751,-0.242708325,1,0,0,2.54,Gabbro_rect,11,0,11,0,1,
665ca5c19424301a3658f79c,SCR,2024-06-24_11h45.45.667,LearnStrategy,2023.2.3,Win32,60.24096386,2,2,13,,,,,,,,8,08,,,,,,,,,,,,,8,0.962,1,,,,,,0.350423217,-0.387847245,1,0,0,0.9619,Pumice_rect,12,0,12,0,1,
665ca5c19424301a3658f79c,SCR,2024-06-24_11h45.45.667,LearnStrategy,2023.2.3,Win32,60.24096386,2,2,14,,,,,,,,7,04,,,,,,,,,,,,,7,3.142,1,,,,,,0.082714856,-0.390277803,1,0,0,3.142,Peridotite_rect,13,0,13,0,1,
665ca5c19424301a3658f79c,SCR,2024-06-24_11h45.45.667,LearnStrategy,2023.2.3,Win32,60.24096386,2,2,15,,,,,,,,5,10,,,,,,,,,,,,,5,1.395,1,,,,,,-0.430826813,-0.403819442,1,0,0,1.3954,Obsidian_rect,14,0,14,0,1,
665ca5c19424301a3658f79c,SCR,2024-06-24_11h45.45.667,LearnStrategy,2023.2.3,Win32,60.24096386,2,2,16,,,,,,,,6,12,,,,,,,,,,,,,3,2.987,0,,,,,,0.138965011,-0.242013931,1,0,0,2.9869,Diorite_rect,15,0,15,0,1,
665ca5c19424301a3658f79c,SCR,2024-06-24_11h45.45.667,LearnStrategy,2023.2.3,Win32,60.24096386,3,1,1,0.097298205,0.090624988,1,0,0,3.049,Diorite_02,3,02,4,5,3.049,2,11,0.105978727,-0.262500107,1,0,0,0.7482,Diorite_rect,3,0.748,1,0,0,0,0,1,,,,,,,,,,,,,
665ca5c19424301a3658f79c,SCR,2024-06-24_11h45.45.667,LearnStrategy,2023.2.3,Win32,60.24096386,3,1,2,-0.112076819,0.077430546,1,0,0,1.2162,Pegmatite_05,6,05,4,4,1.216,3,13,0.130284309,-0.413194478,1,0,0,2.0091,Peridotite_rect,7,2.009,0,1,0,1,0,1,,,,,,,,,,,,,
665ca5c19424301a3658f79c,SCR,2024-06-24_11h45.45.667,LearnStrategy,2023.2.3,Win32,60.24096386,3,1,3,-0.083951831,-0.444791675,1,0,0,4.2832,Andesite_01,1,01,1,4,4.283,1,06,0.171603799,-0.252083361,1,0,0,1.8024,Diorite_rect,3,1.802,0,2,0,2,0,1,,,,,,,,,,,,,
665ca5c19424301a3658f79c,SCR,2024-06-24_11h45.45.667,LearnStrategy,2023.2.3,Win32,60.24096386,3,1,4,0.575423241,-0.258333325,1,0,0,2.2988,Andesite_06,1,06,2,8,2.299,6,13,-0.359646261,-0.253472328,1,0,0,2.2912,Andesite_rect,1,2.291,1,3,0,3,0,1,,,,,,,,,,,,,
665ca5c19424301a3658f79c,SCR,2024-06-24_11h45.45.667,LearnStrategy,2023.2.3,Win32,60.24096386,3,1,5,0.400423169,-0.096527815,1,0,0,1.0817,Andesite_16,1,16,3,7,1.082,6,11,-0.33742404,-0.230208337,1,0,0,1.3856,Andesite_rect,1,1.386,1,4,0,4,0,1,,,,,,,,,,,,,
665ca5c19424301a3658f79c,SCR,2024-06-24_11h45.45.667,LearnStrategy,2023.2.3,Win32,60.24096386,3,1,6,-0.538118482,-0.426041663,1,0,0,1.2988,Peridotite_05,7,05,1,1,1.299,3,09,0.152853727,-0.417708337,1,0,0,1.7919,Peridotite_rect,7,1.792,1,5,0,5,0,1,,,,,,,,,,,,,
665ca5c19424301a3658f79c,SCR,2024-06-24_11h45.45.667,LearnStrategy,2023.2.3,Win32,60.24096386,3,1,7,-0.528048992,-0.276388884,1,0,0,2.0998,Diorite_09,3,09,2,1,2.1,6,11,0.159451008,-0.242708325,1,0,0,1.6424,Diorite_rect,3,1.642,1,6,0,6,0,1,,,,,,,,,,,,,
665ca5c19424301a3658f79c,SCR,2024-06-24_11h45.45.667,LearnStrategy,2023.2.3,Win32,60.24096386,3,1,8,-0.222840667,0.274305552,1,0,0,2.9169,Gabbro_12,4,12,5,3,2.917,5,09,-0.158951819,-0.269791663,1,0,0,0.9022,Basalt_rect,2,0.902,0,7,0,7,0,1,,,,,,,,,,,,,
665ca5c19424301a3658f79c,SCR,2024-06-24_11h45.45.667,LearnStrategy,2023.2.3,Win32,60.24096386,3,1,9,-0.059646249,0.405555554,1,0,0,3.0659,Andesite_05,1,05,6,4,3.066,2,08,-0.36867404,-0.262500107,1,0,0,2.4006,Andesite_rect,1,2.401,1,8,0,8,0,1,,,,,,,,,,,,,
665ca5c19424301a3658f79c,SCR,2024-06-24_11h45.45.667,LearnStrategy,2023.2.3,Win32,60.24096386,3,1,10,0.243826032,0.389236107,1,0,0,1.8312,Gabbro_11,4,11,6,6,1.831,4,11,0.426464915,-0.254166663,1,0,0,0.859,Gabbro_rect,4,0.859,1,9,0,9,0,1,,,,,,,,,,,,,
665ca5c19424301a3658f79c,SCR,2024-06-24_11h45.45.667,LearnStrategy,2023.2.3,Win32,60.24096386,3,1,11,-0.093326807,0.056597203,1,0,0,3.0504,Pegmatite_05,6,05,4,4,3.05,2,08,-0.087771237,-0.410069466,1,0,0,1.4087,Pegmatite_rect,6,1.409,1,10,0,10,0,1,,,,,,,,,,,,,
665ca5c19424301a3658f79c,SCR,2024-06-24_11h45.45.667,LearnStrategy,2023.2.3,Win32,60.24096386,3,1,12,0.105284393,-0.257638931,1,0,0,2.8161,Gabbro_01,4,01,2,5,2.816,1,02,0.124034286,-0.411458373,1,0,0,1.4762,Peridotite_rect,7,1.476,0,11,0,11,0,1,,,,,,,,,,,,,
665ca5c19424301a3658f79c,SCR,2024-06-24_11h45.45.667,LearnStrategy,2023.2.3,Win32,60.24096386,3,1,13,0.075770438,-0.09479171,1,0,0,1.2993,Andesite_11,1,11,3,5,1.299,4,11,-0.407910138,-0.267708361,1,0,0,1.1921,Andesite_rect,1,1.192,1,12,0,12,0,1,,,,,,,,,,,,,
665ca5c19424301a3658f79c,SCR,2024-06-24_11h45.45.667,LearnStrategy,2023.2.3,Win32,60.24096386,3,1,14,-0.21797961,-0.281597257,1,0,0,3.3334,Basalt_16,2,16,2,3,3.333,7,12,-0.138465703,-0.248263896,1,0,0,1.783,Basalt_rect,2,1.783,1,13,0,13,0,1,,,,,,,,,,,,,
665ca5c19424301a3658f79c,SCR,2024-06-24_11h45.45.667,LearnStrategy,2023.2.3,Win32,60.24096386,3,1,15,-0.078049004,-0.111458361,1,0,0,2.2004,Gabbro_15,4,15,3,4,2.2,7,02,-0.374576807,-0.261458337,1,0,0,2.3894,Andesite_rect,1,2.389,0,14,0,14,0,1,,,,,,,,,,,,,
665ca5c19424301a3658f79c,SCR,2024-06-24_11h45.45.667,LearnStrategy,2023.2.3,Win32,60.24096386,3,1,16,0.421950936,-0.110069454,1,0,0,1.2656,Andesite_16,1,16,3,7,1.266,4,15,-0.417285144,-0.251388907,1,0,0,1.5607,Andesite_rect,1,1.561,1,15,0,15,0,1,,,,,,,,,,,,,
665ca5c19424301a3658f79c,SCR,2024-06-24_11h45.45.667,LearnStrategy,2023.2.3,Win32,60.24096386,3,2,1,,,,,,,,8,16,,,,,,,,,,,,,8,2.861,1,,,,,,0.387923241,-0.407638907,1,0,0,2.8613,Pumice_rect,0,0,0,0,1,
665ca5c19424301a3658f79c,SCR,2024-06-24_11h45.45.667,LearnStrategy,2023.2.3,Win32,60.24096386,3,2,2,,,,,,,,6,09,,,,,,,,,,,,,6,1.322,1,,,,,,-0.116590679,-0.381250024,1,0,0,1.3224,Pegmatite_rect,1,0,1,0,1,
665ca5c19424301a3658f79c,SCR,2024-06-24_11h45.45.667,LearnStrategy,2023.2.3,Win32,60.24096386,3,2,3,,,,,,,,8,10,,,,,,,,,,,,,8,2.012,1,,,,,,0.446256518,-0.400347233,1,0,0,2.0124,Pumice_rect,2,0,2,0,1,
665ca5c19424301a3658f79c,SCR,2024-06-24_11h45.45.667,LearnStrategy,2023.2.3,Win32,60.24096386,3,2,4,,,,,,,,1,03,,,,,,,,,,,,,4,2.824,0,,,,,,0.374034286,-0.254166663,1,0,0,2.8245,Gabbro_rect,3,0,3,0,1,
665ca5c19424301a3658f79c,SCR,2024-06-24_11h45.45.667,LearnStrategy,2023.2.3,Win32,60.24096386,3,2,5,,,,,,,,6,16,,,,,,,,,,,,,6,5.209,1,,,,,,-0.139160156,-0.419791698,1,0,0,5.2088,Pegmatite_rect,4,0,4,0,1,
665ca5c19424301a3658f79c,SCR,2024-06-24_11h45.45.667,LearnStrategy,2023.2.3,Win32,60.24096386,3,2,6,,,,,,,,5,12,,,,,,,,,,,,,5,0.862,1,,,,,,-0.378049016,-0.410069466,1,0,0,0.8618,Obsidian_rect,5,0,5,0,1,
665ca5c19424301a3658f79c,SCR,2024-06-24_11h45.45.667,LearnStrategy,2023.2.3,Win32,60.24096386,3,2,7,,,,,,,,7,13,,,,,,,,,,,,,7,1.324,1,,,,,,0.084798217,-0.401041687,1,0,0,1.3243,Peridotite_rect,6,0,6,0,1,
665ca5c19424301a3658f79c,SCR,2024-06-24_11h45.45.667,LearnStrategy,2023.2.3,Win32,60.24096386,3,2,8,,,,,,,,7,06,,,,,,,,,,,,,7,2.012,1,,,,,,0.084798217,-0.401041687,1,0,0,2.0125,Peridotite_rect,7,0,7,0,1,
665ca5c19424301a3658f79c,SCR,2024-06-24_11h45.45.667,LearnStrategy,2023.2.3,Win32,60.24096386,3,2,9,,,,,,,,5,06,,,,,,,,,,,,,5,1.695,1,,,,,,-0.386035144,-0.408333361,1,0,0,1.6952,Obsidian_rect,8,0,8,0,1,
665ca5c19424301a3658f79c,SCR,2024-06-24_11h45.45.667,LearnStrategy,2023.2.3,Win32,60.24096386,3,2,10,,,,,,,,2,06,,,,,,,,,,,,,2,1.507,1,,,,,,-0.141590714,-0.242013931,1,0,0,1.507,Basalt_rect,9,0,9,0,1,
665ca5c19424301a3658f79c,SCR,2024-06-24_11h45.45.667,LearnStrategy,2023.2.3,Win32,60.24096386,3,2,11,,,,,,,,1,07,,,,,,,,,,,,,1,1.246,1,,,,,,-0.356521249,-0.238194466,1,0,0,1.2456,Andesite_rect,10,0,10,0,1,
665ca5c19424301a3658f79c,SCR,2024-06-24_11h45.45.667,LearnStrategy,2023.2.3,Win32,60.24096386,3,2,12,,,,,,,,4,03,,,,,,,,,,,,,4,1.658,1,,,,,,0.393131495,-0.228819549,1,0,0,1.6581,Gabbro_rect,11,0,11,0,1,
665ca5c19424301a3658f79c,SCR,2024-06-24_11h45.45.667,LearnStrategy,2023.2.3,Win32,60.24096386,3,2,13,,,,,,,,2,14,,,,,,,,,,,,,2,2.891,1,,,,,,-0.085340679,-0.267708361,1,0,0,2.8911,Basalt_rect,12,0,12,0,1,
665ca5c19424301a3658f79c,SCR,2024-06-24_11h45.45.667,LearnStrategy,2023.2.3,Win32,60.24096386,3,2,14,,,,,,,,3,15,,,,,,,,,,,,,3,2.529,1,,,,,,0.156325936,-0.269444466,1,0,0,2.529,Diorite_rect,13,0,13,0,1,
665ca5c19424301a3658f79c,SCR,2024-06-24_11h45.45.667,LearnStrategy,2023.2.3,Win32,60.24096386,3,2,15,,,,,,,,3,06,,,,,,,,,,,,,3,1.079,1,,,,,,0.156325936,-0.269444466,1,0,0,1.0787,Diorite_rect,14,0,14,0,1,
665ca5c19424301a3658f79c,SCR,2024-06-24_11h45.45.667,LearnStrategy,2023.2.3,Win32,60.24096386,3,2,16,,,,,,,,4,14,,,,,,,,,,,,,2,3.313,0,,,,,,-0.120410144,-0.251388907,1,0,0,3.3128,Basalt_rect,15,0,15,0,1,
665ca5c19424301a3658f79c,SCR,2024-06-24_11h45.45.667,LearnStrategy,2023.2.3,Win32,60.24096386,4,1,1,-0.208951831,0.234375,1,0,0,3.998,Gabbro_12,4,12,5,3,3.998,6,13,0.412923217,-0.248958349,1,0,0,1.3974,Gabbro_rect,4,1.397,1,0,0,0,0,1,,,,,,,,,,,,,
665ca5c19424301a3658f79c,SCR,2024-06-24_11h45.45.667,LearnStrategy,2023.2.3,Win32,60.24096386,4,1,2,0.572298169,0.223611116,1,0,0,1.9665,Pegmatite_06,6,06,5,8,1.966,1,02,0.144173145,-0.396875024,1,0,0,2.0923,Peridotite_rect,7,2.092,0,1,0,1,0,1,,,,,,,,,,,,,
665ca5c19424301a3658f79c,SCR,2024-06-24_11h45.45.667,LearnStrategy,2023.2.3,Win32,60.24096386,4,1,3,0.52646482,-0.088541687,1,0,0,2.0331,Pumice_02,8,02,3,8,2.033,3,09,0.415701032,-0.411458373,1,0,0,1.1181,Pumice_rect,8,1.118,1,2,0,2,0,1,,,,,,,,,,,,,
665ca5c19424301a3658f79c,SCR,2024-06-24_11h45.45.667,LearnStrategy,2023.2.3,Win32,60.24096386,4,1,4,0.234450936,-0.127083361,1,0,0,1.5827,Pegmatite_03,6,03,3,6,1.583,7,12,-0.086729586,-0.412500024,1,0,0,1.0276,Pegmatite_rect,6,1.028,1,3,0,3,0,1,,,,,,,,,,,,,
665ca5c19424301a3658f79c,SCR,2024-06-24_11h45.45.667,LearnStrategy,2023.2.3,Win32,60.24096386,4,1,5,-0.081521273,-0.442708373,1,0,0,3.35,Andesite_01,1,01,1,4,3.35,4,12,-0.36416012,-0.270138919,1,0,0,1.5575,Andesite_rect,1,1.558,1,4,0,4,0,1,,,,,,,,,,,,,
665ca5c19424301a3658f79c,SCR,2024-06-24_11h45.45.667,LearnStrategy,2023.2.3,Win32,60.24096386,4,1,6,0.378895402,-0.259375036,1,0,0,2.3165,Diorite_11,3,11,2,7,2.317,6,13,0.12577045,-0.239583373,1,0,0,1.2617,Diorite_rect,3,1.262,1,5,0,5,0,1,,,,,,,,,,,,,
665ca5c19424301a3658f79c,SCR,2024-06-24_11h45.45.667,LearnStrategy,2023.2.3,Win32,60.24096386,4,1,7,0.236534357,-0.441319466,1,0,0,2.5834,Peridotite_15,7,15,1,6,2.583,4,15,0.083409309,-0.389583349,1,0,0,1.2872,Peridotite_rect,7,1.287,1,6,0,6,0,1,,,,,,,,,,,,,
665ca5c19424301a3658f79c,SCR,2024-06-24_11h45.45.667,LearnStrategy,2023.2.3,Win32,60.24096386,4,1,8,0.57333982,-0.409722328,1,0,0,1.1493,Pegmatite_13,6,13,1,8,1.149,4,15,0.098339856,-0.405555665,1,0,0,2.5122,Peridotite_rect,7,2.512,0,7,0,7,0,1,,,,,,,,,,,,,
665ca5c19424301a3658f79c,SCR,2024-06-24_11h45.45.667,LearnStrategy,2023.2.3,Win32,60.24096386,4,1,9,-0.54610458,-0.387152791,1,0,0,3.3995,Peridotite_05,7,05,1,1,3.399,7,05,0.083409309,-0.385763884,1,0,0,1.2631,Peridotite_rect,7,1.263,1,8,0,8,0,1,,,,,,,,,,,,,
665ca5c19424301a3658f79c,SCR,2024-06-24_11h45.45.667,LearnStrategy,2023.2.3,Win32,60.24096386,4,1,10,-0.529785156,-0.243055582,1,0,0,2.0163,Diorite_09,3,09,2,1,2.016,4,11,0.172298193,-0.253819466,1,0,0,0.9616,Diorite_rect,3,0.962,1,9,0,9,0,1,,,,,,,,,,,,,
665ca5c19424301a3658f79c,SCR,2024-06-24_11h45.45.667,LearnStrategy,2023.2.3,Win32,60.24096386,4,1,11,0.227159262,0.264930546,1,0,0,5.8832,Basalt_11,2,11,5,6,5.883,1,01,0.418825984,-0.252777815,1,0,0,1.3789,Gabbro_rect,4,1.379,0,10,0,10,0,1,,,,,,,,,,,,,
665ca5c19424301a3658f79c,SCR,2024-06-24_11h45.45.667,LearnStrategy,2023.2.3,Win32,60.24096386,4,1,12,0.070214868,0.218055546,1,0,0,1.4163,Gabbro_09,4,09,5,5,1.416,2,08,-0.12978512,-0.267708361,1,0,0,1.4047,Basalt_rect,2,1.405,0,11,0,11,0,1,,,,,,,,,,,,,
665ca5c19424301a3658f79c,SCR,2024-06-24_11h45.45.667,LearnStrategy,2023.2.3,Win32,60.24096386,4,1,13,0.40146482,0.413541667,1,0,0,1.5669,Basalt_12,2,12,6,7,1.567,5,11,0.412923217,-0.250694454,1,0,0,1.6182,Gabbro_rect,4,1.618,0,12,0,12,0,1,,,,,,,,,,,,,
665ca5c19424301a3658f79c,SCR,2024-06-24_11h45.45.667,LearnStrategy,2023.2.3,Win32,60.24096386,4,1,14,-0.269715726,0.407638885,1,0,0,1.8996,Basalt_08,2,08,6,3,1.9,1,06,-0.148535132,-0.252083361,1,0,0,0.9117,Basalt_rect,2,0.912,1,13,0,13,0,1,,,,,,,,,,,,,
665ca5c19424301a3658f79c,SCR,2024-06-24_11h45.45.667,LearnStrategy,2023.2.3,Win32,60.24096386,4,1,15,-0.405826807,-0.100000083,1,0,0,2.233,Basalt_05,2,05,3,2,2.233,2,16,-0.090896249,-0.242361128,1,0,0,0.9451,Basalt_rect,2,0.945,1,14,0,14,0,1,,,,,,,,,,,,,
665ca5c19424301a3658f79c,SCR,2024-06-24_11h45.45.667,LearnStrategy,2023.2.3,Win32,60.24096386,4,1,16,-0.20686847,0.238541663,1,0,0,3.8836,Gabbro_12,4,12,5,3,3.884,8,03,0.424728751,-0.247569442,1,0,0,0.8888,Gabbro_rect,4,0.889,1,15,0,15,0,1,,,,,,,,,,,,,
665ca5c19424301a3658f79c,SCR,2024-06-24_11h45.45.667,LearnStrategy,2023.2.3,Win32,60.24096386,4,2,1,,,,,,,,2,04,,,,,,,,,,,,,2,2.111,1,,,,,,-0.186035156,-0.252083361,1,0,0,2.1114,Basalt_rect,0,0,0,0,1,
665ca5c19424301a3658f79c,SCR,2024-06-24_11h45.45.667,LearnStrategy,2023.2.3,Win32,60.24096386,4,2,2,,,,,,,,8,06,,,,,,,,,,,,,8,1.045,1,,,,,,0.395909309,-0.39618057,1,0,0,1.0453,Pumice_rect,1,0,1,0,1,
665ca5c19424301a3658f79c,SCR,2024-06-24_11h45.45.667,LearnStrategy,2023.2.3,Win32,60.24096386,4,2,3,,,,,,,,1,04,,,,,,,,,,,,,1,2.029,1,,,,,,-0.375618458,-0.261805594,1,0,0,2.0291,Andesite_rect,2,0,2,0,1,
665ca5c19424301a3658f79c,SCR,2024-06-24_11h45.45.667,LearnStrategy,2023.2.3,Win32,60.24096386,4,2,4,,,,,,,,7,06,,,,,,,,,,,,,6,4.021,0,,,,,,-0.150271237,-0.416319549,1,0,0,4.0207,Pegmatite_rect,3,0,3,0,1,
665ca5c19424301a3658f79c,SCR,2024-06-24_11h45.45.667,LearnStrategy,2023.2.3,Win32,60.24096386,4,2,5,,,,,,,,6,07,,,,,,,,,,,,,6,0.823,1,,,,,,-0.150271237,-0.416319549,1,0,0,0.8226,Pegmatite_rect,4,0,4,0,1,
665ca5c19424301a3658f79c,SCR,2024-06-24_11h45.45.667,LearnStrategy,2023.2.3,Win32,60.24096386,4,2,6,,,,,,,,5,06,,,,,,,,,,,,,5,0.812,1,,,,,,-0.367979586,-0.41180557,1,0,0,0.8122,Obsidian_rect,5,0,5,0,1,
665ca5c19424301a3658f79c,SCR,2024-06-24_11h45.45.667,LearnStrategy,2023.2.3,Win32,60.24096386,4,2,7,,,,,,,,3,06,,,,,,,,,,,,,3,1.623,1,,,,,,0.139659286,-0.26111114,1,0,0,1.6232,Diorite_rect,6,0,6,0,1,
665ca5c19424301a3658f79c,SCR,2024-06-24_11h45.45.667,LearnStrategy,2023.2.3,Win32,60.24096386,4,2,8,,,,,,,,6,12,,,,,,,,,,,,,7,3.145,0,,,,,,0.108409286,-0.403819442,1,0,0,3.1453,Peridotite_rect,7,0,7,0,1,
665ca5c19424301a3658f79c,SCR,2024-06-24_11h45.45.667,LearnStrategy,2023.2.3,Win32,60.24096386,4,2,9,,,,,,,,5,10,,,,,,,,,,,,,5,0.973,1,,,,,,-0.360340714,-0.412152886,1,0,0,0.9727,Obsidian_rect,8,0,8,0,1,
665ca5c19424301a3658f79c,SCR,2024-06-24_11h45.45.667,LearnStrategy,2023.2.3,Win32,60.24096386,4,2,10,,,,,,,,3,10,,,,,,,,,,,,,3,1.562,1,,,,,,0.130631566,-0.256944478,1,0,0,1.5623,Diorite_rect,9,0,9,0,1,
665ca5c19424301a3658f79c,SCR,2024-06-24_11h45.45.667,LearnStrategy,2023.2.3,Win32,60.24096386,4,2,11,,,,,,,,4,03,,,,,,,,,,,,,4,1.245,1,,,,,,0.381673217,-0.262500107,1,0,0,1.2455,Gabbro_rect,10,0,10,0,1,
665ca5c19424301a3658f79c,SCR,2024-06-24_11h45.45.667,LearnStrategy,2023.2.3,Win32,60.24096386,4,2,12,,,,,,,,8,08,,,,,,,,,,,,,8,1.046,1,,,,,,0.408409357,-0.413888931,1,0,0,1.0455,Pumice_rect,11,0,11,0,1,
665ca5c19424301a3658f79c,SCR,2024-06-24_11h45.45.667,LearnStrategy,2023.2.3,Win32,60.24096386,4,2,13,,,,,,,,7,13,,,,,,,,,,,,,7,1.094,1,,,,,,0.121603727,-0.398611128,1,0,0,1.0936,Peridotite_rect,12,0,12,0,1,
665ca5c19424301a3658f79c,SCR,2024-06-24_11h45.45.667,LearnStrategy,2023.2.3,Win32,60.24096386,4,2,14,,,,,,,,2,06,,,,,,,,,,,,,2,1.124,1,,,,,,-0.118326783,-0.250694454,1,0,0,1.1243,Basalt_rect,13,0,13,0,1,
665ca5c19424301a3658f79c,SCR,2024-06-24_11h45.45.667,LearnStrategy,2023.2.3,Win32,60.24096386,4,2,15,,,,,,,,1,14,,,,,,,,,,,,,1,1.874,1,,,,,,-0.346104562,-0.257986128,1,0,0,1.874,Andesite_rect,14,0,14,0,1,
665ca5c19424301a3658f79c,SCR,2024-06-24_11h45.45.667,LearnStrategy,2023.2.3,Win32,60.24096386,4,2,16,,,,,,,,4,14,,,,,,,,,,,,,4,1.679,1,,,,,,0.449034452,-0.248263896,1,0,0,1.679,Gabbro_rect,15,0,15,0,1,
665ca5c19424301a3658f79c,SCR,2024-06-24_11h45.45.667,LearnStrategy,2023.2.3,Win32,60.24096386,5,1,1,0.070214868,0.120138884,1,0,0,2.5481,Diorite_02,3,02,4,5,2.548,4,12,0.114659309,-0.256250024,1,0,0,1.2906,Diorite_rect,3,1.291,1,0,0,0,0,1,,,,,,,,,,,,,
665ca5c19424301a3658f79c,SCR,2024-06-24_11h45.45.667,LearnStrategy,2023.2.3,Win32,60.24096386,5,1,2,0.392089844,0.084374994,1,0,0,1.9834,Peridotite_10,7,10,4,7,1.983,1,11,0.192089915,-0.402083337,1,0,0,1.2727,Peridotite_rect,7,1.273,1,1,0,1,0,1,,,,,,,,,,,,,
665ca5c19424301a3658f79c,SCR,2024-06-24_11h45.45.667,LearnStrategy,2023.2.3,Win32,60.24096386,5,1,3,0.421603799,-0.113194466,1,0,0,1.9838,Andesite_16,1,16,3,7,1.984,7,12,-0.390201807,-0.248958349,1,0,0,1.6017,Andesite_rect,1,1.602,1,2,0,2,0,1,,,,,,,,,,,,,
665ca5c19424301a3658f79c,SCR,2024-06-24_11h45.45.667,LearnStrategy,2023.2.3,Win32,60.24096386,5,1,4,-0.56728515,-0.416319549,1,0,0,2.6161,Peridotite_05,7,05,1,1,2.616,8,14,0.185145378,-0.414236128,1,0,0,1.2327,Peridotite_rect,7,1.233,1,3,0,3,0,1,,,,,,,,,,,,,
665ca5c19424301a3658f79c,SCR,2024-06-24_11h45.45.667,LearnStrategy,2023.2.3,Win32,60.24096386,5,1,5,0.08445096,-0.40625,1,0,0,1.6653,Andesite_02,1,02,1,5,1.665,4,11,-0.407910138,-0.248958349,1,0,0,1.0413,Andesite_rect,1,1.041,1,4,0,4,0,1,,,,,,,,,,,,,
665ca5c19424301a3658f79c,SCR,2024-06-24_11h45.45.667,LearnStrategy,2023.2.3,Win32,60.24096386,5,1,6,-0.415201813,0.37951389,1,0,0,2.7173,Diorite_12,3,12,6,2,2.717,1,11,0.106673181,-0.238194466,1,0,0,1.4876,Diorite_rect,3,1.488,1,5,0,5,0,1,,,,,,,,,,,,,
665ca5c19424301a3658f79c,SCR,2024-06-24_11h45.45.667,LearnStrategy,2023.2.3,Win32,60.24096386,5,1,7,-0.371799052,0.231944442,1,0,0,2.6163,Gabbro_05,4,05,5,2,2.616,7,14,0.374034286,-0.271527767,1,0,0,1.4917,Gabbro_rect,4,1.492,1,6,0,6,0,1,,,,,,,,,,,,,
665ca5c19424301a3658f79c,SCR,2024-06-24_11h45.45.667,LearnStrategy,2023.2.3,Win32,60.24096386,5,1,8,0.054589868,0.249305546,1,0,0,2.8838,Gabbro_09,4,09,5,5,2.884,5,09,-0.115201831,-0.256944478,1,0,0,1.7742,Basalt_rect,2,1.774,0,7,0,7,0,1,,,,,,,,,,,,,
665ca5c19424301a3658f79c,SCR,2024-06-24_11h45.45.667,LearnStrategy,2023.2.3,Win32,60.24096386,5,1,9,0.405284286,0.071874946,1,0,0,2.0502,Peridotite_10,7,10,4,7,2.05,6,06,0.165006518,-0.421180665,1,0,0,1.023,Peridotite_rect,7,1.023,1,8,0,8,0,1,,,,,,,,,,,,,
665ca5c19424301a3658f79c,SCR,2024-06-24_11h45.45.667,LearnStrategy,2023.2.3,Win32,60.24096386,5,1,10,-0.399229586,-0.289583325,1,0,0,3.4007,Basalt_02,2,02,2,2,3.401,2,05,-0.154785156,-0.238194466,1,0,0,1.176,Basalt_rect,2,1.176,1,9,0,9,0,1,,,,,,,,,,,,,
665ca5c19424301a3658f79c,SCR,2024-06-24_11h45.45.667,LearnStrategy,2023.2.3,Win32,60.24096386,5,1,11,-0.404090703,-0.09930557,1,0,0,2.7501,Basalt_05,2,05,3,2,2.75,6,10,-0.087771237,-0.248958349,1,0,0,0.7847,Basalt_rect,2,0.785,1,10,0,10,0,1,,,,,,,,,,,,,
665ca5c19424301a3658f79c,SCR,2024-06-24_11h45.45.667,LearnStrategy,2023.2.3,Win32,60.24096386,5,1,12,-0.092285156,0.08263889,1,0,0,2.3995,Pegmatite_05,6,05,4,4,2.4,4,01,-0.104785144,-0.399305582,1,0,0,1.6232,Pegmatite_rect,6,1.623,1,11,0,11,0,1,,,,,,,,,,,,,
665ca5c19424301a3658f79c,SCR,2024-06-24_11h45.45.667,LearnStrategy,2023.2.3,Win32,60.24096386,5,1,13,0.115006566,-0.105208337,1,0,0,1.833,Andesite_11,1,11,3,5,1.833,6,13,-0.359299004,-0.234722257,1,0,0,0.6753,Andesite_rect,1,0.675,1,12,0,12,0,1,,,,,,,,,,,,,
665ca5c19424301a3658f79c,SCR,2024-06-24_11h45.45.667,LearnStrategy,2023.2.3,Win32,60.24096386,5,1,14,0.088270426,0.081944436,1,0,0,1.8833,Diorite_02,3,02,4,5,1.883,2,16,0.095909297,-0.25555557,1,0,0,1.0074,Diorite_rect,3,1.007,1,13,0,13,0,1,,,,,,,,,,,,,
665ca5c19424301a3658f79c,SCR,2024-06-24_11h45.45.667,LearnStrategy,2023.2.3,Win32,60.24096386,5,1,15,-0.06624347,0.086805552,1,0,0,2.3327,Pegmatite_05,6,05,4,4,2.333,7,12,-0.119021237,-0.399652779,1,0,0,0.6106,Pegmatite_rect,6,0.611,1,14,0,14,0,1,,,,,,,,,,,,,
665ca5c19424301a3658f79c,SCR,2024-06-24_11h45.45.667,LearnStrategy,2023.2.3,Win32,60.24096386,5,1,16,0.101464868,0.260069445,1,0,0,1.5326,Gabbro_09,4,09,5,5,1.533,3,02,0.435840011,-0.243402779,1,0,0,1.5278,Gabbro_rect,4,1.528,1,15,0,15,0,1,,,,,,,,,,,,,
665ca5c19424301a3658f79c,SCR,2024-06-24_11h45.45.667,LearnStrategy,2023.2.3,Win32,60.24096386,5,2,1,,,,,,,,3,08,,,,,,,,,,,,,3,2.062,1,,,,,,0.117089868,-0.265277803,1,0,0,2.0623,Diorite_rect,0,0,0,0,1,
665ca5c19424301a3658f79c,SCR,2024-06-24_11h45.45.667,LearnStrategy,2023.2.3,Win32,60.24096386,5,2,2,,,,,,,,1,07,,,,,,,,,,,,,1,0.995,1,,,,,,-0.389160156,-0.256250024,1,0,0,0.9947,Andesite_rect,1,0,1,0,1,
665ca5c19424301a3658f79c,SCR,2024-06-24_11h45.45.667,LearnStrategy,2023.2.3,Win32,60.24096386,5,2,3,,,,,,,,5,04,,,,,,,,,,,,,5,0.841,1,,,,,,-0.37874347,-0.420138896,1,0,0,0.8408,Obsidian_rect,2,0,2,0,1,
665ca5c19424301a3658f79c,SCR,2024-06-24_11h45.45.667,LearnStrategy,2023.2.3,Win32,60.24096386,5,2,4,,,,,,,,8,16,,,,,,,,,,,,,8,1.145,1,,,,,,0.37021482,-0.409027815,1,0,0,1.1454,Pumice_rect,3,0,3,0,1,
665ca5c19424301a3658f79c,SCR,2024-06-24_11h45.45.667,LearnStrategy,2023.2.3,Win32,60.24096386,5,2,5,,,,,,,,7,16,,,,,,,,,,,,,7,2.646,1,,,,,,0.145214915,-0.420138896,1,0,0,2.6459,Peridotite_rect,4,0,4,0,1,
665ca5c19424301a3658f79c,SCR,2024-06-24_11h45.45.667,LearnStrategy,2023.2.3,Win32,60.24096386,5,2,6,,,,,,,,3,14,,,,,,,,,,,,,3,3.227,1,,,,,,0.136534452,-0.263194442,1,0,0,3.2267,Diorite_rect,5,0,5,0,1,
665ca5c19424301a3658f79c,SCR,2024-06-24_11h45.45.667,LearnStrategy,2023.2.3,Win32,60.24096386,5,2,7,,,,,,,,8,13,,,,,,,,,,,,,8,1.878,1,,,,,,0.355978727,-0.398958325,1,0,0,1.8783,Pumice_rect,6,0,6,0,1,
665ca5c19424301a3658f79c,SCR,2024-06-24_11h45.45.667,LearnStrategy,2023.2.3,Win32,60.24096386,5,2,8,,,,,,,,6,08,,,,,,,,,,,,,6,1.412,1,,,,,,-0.112076819,-0.404513896,1,0,0,1.4121,Pegmatite_rect,7,0,7,0,1,
665ca5c19424301a3658f79c,SCR,2024-06-24_11h45.45.667,LearnStrategy,2023.2.3,Win32,60.24096386,5,2,9,,,,,,,,1,09,,,,,,,,,,,,,4,3.863,0,,,,,,0.399381518,-0.253472328,1,0,0,3.8627,Gabbro_rect,8,0,8,0,1,
665ca5c19424301a3658f79c,SCR,2024-06-24_11h45.45.667,LearnStrategy,2023.2.3,Win32,60.24096386,5,2,10,,,,,,,,7,08,,,,,,,,,,,,,7,0.939,1,,,,,,0.140006542,-0.408333361,1,0,0,0.9393,Peridotite_rect,9,0,9,0,1,
665ca5c19424301a3658f79c,SCR,2024-06-24_11h45.45.667,LearnStrategy,2023.2.3,Win32,60.24096386,5,2,11,,,,,,,,6,15,,,,,,,,,,,,,6,0.829,1,,,,,,-0.089160144,-0.401388884,1,0,0,0.8287,Pegmatite_rect,10,0,10,0,1,
665ca5c19424301a3658f79c,SCR,2024-06-24_11h45.45.667,LearnStrategy,2023.2.3,Win32,60.24096386,5,2,12,,,,,,,,5,12,,,,,,,,,,,,,5,0.795,1,,,,,,-0.346799016,-0.401388884,1,0,0,0.7954,Obsidian_rect,11,0,11,0,1,
665ca5c19424301a3658f79c,SCR,2024-06-24_11h45.45.667,LearnStrategy,2023.2.3,Win32,60.24096386,5,2,13,,,,,,,,4,16,,,,,,,,,,,,,4,2.712,1,,,,,,0.390353799,-0.25,1,0,0,2.7125,Gabbro_rect,12,0,12,0,1,
665ca5c19424301a3658f79c,SCR,2024-06-24_11h45.45.667,LearnStrategy,2023.2.3,Win32,60.24096386,5,2,14,,,,,,,,2,09,,,,,,,,,,,,,2,2.146,1,,,,,,-0.105826795,-0.254513919,1,0,0,2.1462,Basalt_rect,13,0,13,0,1,
665ca5c19424301a3658f79c,SCR,2024-06-24_11h45.45.667,LearnStrategy,2023.2.3,Win32,60.24096386,5,2,15,,,,,,,,4,08,,,,,,,,,,,,,4,1.639,1,,,,,,0.408409357,-0.252083361,1,0,0,1.6392,Gabbro_rect,14,0,14,0,1,
665ca5c19424301a3658f79c,SCR,2024-06-24_11h45.45.667,LearnStrategy,2023.2.3,Win32,60.24096386,5,2,16,,,,,,,,2,01,,,,,,,,,,,,,2,0.877,1,,,,,,-0.131174028,-0.268750012,1,0,0,0.8773,Basalt_rect,15,0,15,0,1,
665ca5c19424301a3658f79c,SCR,2024-06-24_11h45.45.667,LearnStrategy,2023.2.3,Win32,60.24096386,6,1,1,0.390700936,0.408680551,1,0,0,5.0844,Basalt_12,2,12,6,7,5.084,1,02,-0.105479598,-0.260069549,1,0,0,1.8691,Basalt_rect,2,1.869,1,0,0,0,0,1,,,,,,,,,,,,,
665ca5c19424301a3658f79c,SCR,2024-06-24_11h45.45.667,LearnStrategy,2023.2.3,Win32,60.24096386,6,1,2,0.552853942,0.271180555,1,0,0,2.383,Pegmatite_06,6,06,5,8,2.383,4,09,-0.14541012,-0.420138896,1,0,0,1.7119,Pegmatite_rect,6,1.712,1,1,0,1,0,1,,,,,,,,,,,,,
665ca5c19424301a3658f79c,SCR,2024-06-24_11h45.45.667,LearnStrategy,2023.2.3,Win32,60.24096386,6,1,3,0.077506542,-0.102430642,1,0,0,2.7,Andesite_11,1,11,3,5,2.7,1,16,-0.357910156,-0.235069454,1,0,0,1.9784,Andesite_rect,1,1.978,1,2,0,2,0,1,,,,,,,,,,,,,
665ca5c19424301a3658f79c,SCR,2024-06-24_11h45.45.667,LearnStrategy,2023.2.3,Win32,60.24096386,6,1,4,-0.226660073,-0.426388919,1,0,0,2.4822,Diorite_16,3,16,1,3,2.482,1,02,0.128548145,-0.254513919,1,0,0,1.1263,Diorite_rect,3,1.126,1,3,0,3,0,1,,,,,,,,,,,,,
665ca5c19424301a3658f79c,SCR,2024-06-24_11h45.45.667,LearnStrategy,2023.2.3,Win32,60.24096386,6,1,5,0.387923241,-0.240972221,1,0,0,0.966,Diorite_11,3,11,2,7,0.966,2,12,0.101464868,-0.236805558,1,0,0,0.7758,Diorite_rect,3,0.776,1,4,0,4,0,1,,,,,,,,,,,,,
665ca5c19424301a3658f79c,SCR,2024-06-24_11h45.45.667,LearnStrategy,2023.2.3,Win32,60.24096386,6,1,6,0.536534309,-0.257638931,1,0,0,0.8491,Andesite_06,1,06,2,8,0.849,1,01,0.12021482,-0.25,1,0,0,1.1277,Diorite_rect,3,1.128,0,5,0,5,0,1,,,,,,,,,,,,,
665ca5c19424301a3658f79c,SCR,2024-06-24_11h45.45.667,LearnStrategy,2023.2.3,Win32,60.24096386,6,1,7,0.10458988,-0.423958361,1,0,0,4.3003,Andesite_02,1,02,1,5,4.3,5,11,-0.391590714,-0.266319454,1,0,0,2.4665,Andesite_rect,1,2.466,1,6,0,6,0,1,,,,,,,,,,,,,
665ca5c19424301a3658f79c,SCR,2024-06-24_11h45.45.667,LearnStrategy,2023.2.3,Win32,60.24096386,6,1,8,0.582714915,-0.271875024,1,0,0,2.417,Andesite_06,1,06,2,8,2.417,8,03,-0.339160144,-0.257638931,1,0,0,1.221,Andesite_rect,1,1.221,1,7,0,7,0,1,,,,,,,,,,,,,
665ca5c19424301a3658f79c,SCR,2024-06-24_11h45.45.667,LearnStrategy,2023.2.3,Win32,60.24096386,6,1,9,-0.382215679,-0.138194442,1,0,0,37.8277,Basalt_05,2,05,3,2,37.828,6,03,-0.160340607,-0.249305546,1,0,0,0.7648,Basalt_rect,2,0.765,1,8,0,8,0,1,,,,,,,,,,,,,
665ca5c19424301a3658f79c,SCR,2024-06-24_11h45.45.667,LearnStrategy,2023.2.3,Win32,60.24096386,6,1,10,-0.209646225,-0.27118057,1,0,0,2.4827,Basalt_16,2,16,2,3,2.483,4,15,0.37021482,-0.257638931,1,0,0,0.7948,Gabbro_rect,4,0.795,0,9,0,9,0,1,,,,,,,,,,,,,
665ca5c19424301a3658f79c,SCR,2024-06-24_11h45.45.667,LearnStrategy,2023.2.3,Win32,60.24096386,6,1,11,0.244173169,-0.292708337,1,0,0,3.5188,Pegmatite_11,6,11,2,6,3.519,7,15,-0.105479598,-0.402083337,1,0,0,0.769,Pegmatite_rect,6,0.769,1,10,0,10,0,1,,,,,,,,,,,,,
665ca5c19424301a3658f79c,SCR,2024-06-24_11h45.45.667,LearnStrategy,2023.2.3,Win32,60.24096386,6,1,12,0.086534321,0.26840277,1,0,0,2.6164,Gabbro_09,4,09,5,5,2.616,6,06,0.367089868,-0.243750036,1,0,0,1.6286,Gabbro_rect,4,1.629,1,11,0,11,0,1,,,,,,,,,,,,,
665ca5c19424301a3658f79c,SCR,2024-06-24_11h45.45.667,LearnStrategy,2023.2.3,Win32,60.24096386,6,1,13,0.428548217,0.247222215,1,0,0,1.9832,Obsidian_08,5,08,5,7,1.983,2,05,-0.417979598,-0.415625036,1,0,0,0.7738,Obsidian_rect,5,0.774,1,12,0,12,0,1,,,,,,,,,,,,,
665ca5c19424301a3658f79c,SCR,2024-06-24_11h45.45.667,LearnStrategy,2023.2.3,Win32,60.24096386,6,1,14,-0.059993386,0.400347218,1,0,0,1.4498,Andesite_05,1,05,6,4,1.45,3,11,-0.399576813,-0.243402779,1,0,0,0.8072,Andesite_rect,1,0.807,1,13,0,13,0,1,,,,,,,,,,,,,
665ca5c19424301a3658f79c,SCR,2024-06-24_11h45.45.667,LearnStrategy,2023.2.3,Win32,60.24096386,6,1,15,-0.376660168,0.403124996,1,0,0,1.2161,Diorite_12,3,12,6,2,1.216,6,05,0.160839915,-0.246527791,1,0,0,0.6724,Diorite_rect,3,0.672,1,14,0,14,0,1,,,,,,,,,,,,,
665ca5c19424301a3658f79c,SCR,2024-06-24_11h45.45.667,LearnStrategy,2023.2.3,Win32,60.24096386,6,1,16,0.06882596,-0.269444466,1,0,0,2.5333,Gabbro_01,4,01,2,5,2.533,7,10,0.337923169,-0.260763884,1,0,0,2.0805,Gabbro_rect,4,2.081,1,15,0,15,0,1,,,,,,,,,,,,,
665ca5c19424301a3658f79c,SCR,2024-06-24_11h45.45.667,LearnStrategy,2023.2.3,Win32,60.24096386,6,2,1,,,,,,,,1,03,,,,,,,,,,,,,1,1.225,1,,,,,,-0.339854598,-0.244097233,1,0,0,1.2247,Andesite_rect,0,0,0,0,1,
665ca5c19424301a3658f79c,SCR,2024-06-24_11h45.45.667,LearnStrategy,2023.2.3,Win32,60.24096386,6,2,2,,,,,,,,5,07,,,,,,,,,,,,,5,0.928,1,,,,,,-0.370410144,-0.395833373,1,0,0,0.9279,Obsidian_rect,1,0,1,0,1,
665ca5c19424301a3658f79c,SCR,2024-06-24_11h45.45.667,LearnStrategy,2023.2.3,Win32,60.24096386,6,2,3,,,,,,,,2,14,,,,,,,,,,,,,2,4.58,1,,,,,,-0.112076819,-0.266319454,1,0,0,4.58,Basalt_rect,2,0,2,0,1,
665ca5c19424301a3658f79c,SCR,2024-06-24_11h45.45.667,LearnStrategy,2023.2.3,Win32,60.24096386,6,2,4,,,,,,,,4,10,,,,,,,,,,,,,4,1.279,1,,,,,,0.344173193,-0.257638931,1,0,0,1.2788,Gabbro_rect,3,0,3,0,1,
665ca5c19424301a3658f79c,SCR,2024-06-24_11h45.45.667,LearnStrategy,2023.2.3,Win32,60.24096386,6,2,5,,,,,,,,2,10,,,,,,,,,,,,,2,0.929,1,,,,,,-0.127354562,-0.260069549,1,0,0,0.9287,Basalt_rect,4,0,4,0,1,
665ca5c19424301a3658f79c,SCR,2024-06-24_11h45.45.667,LearnStrategy,2023.2.3,Win32,60.24096386,6,2,6,,,,,,,,1,10,,,,,,,,,,,,,1,1.87,1,,,,,,-0.388118505,-0.270138919,1,0,0,1.8695,Andesite_rect,5,0,5,0,1,
665ca5c19424301a3658f79c,SCR,2024-06-24_11h45.45.667,LearnStrategy,2023.2.3,Win32,60.24096386,6,2,7,,,,,,,,3,15,,,,,,,,,,,,,3,1.228,1,,,,,,0.153548241,-0.262500107,1,0,0,1.2278,Diorite_rect,6,0,6,0,1,
665ca5c19424301a3658f79c,SCR,2024-06-24_11h45.45.667,LearnStrategy,2023.2.3,Win32,60.24096386,6,2,8,,,,,,,,4,13,,,,,,,,,,,,,3,1.958,0,,,,,,0.153548241,-0.262500107,1,0,0,1.9576,Diorite_rect,7,0,7,0,1,
665ca5c19424301a3658f79c,SCR,2024-06-24_11h45.45.667,LearnStrategy,2023.2.3,Win32,60.24096386,6,2,9,,,,,,,,3,07,,,,,,,,,,,,,1,1.089,0,,,,,,-0.36867404,-0.268055558,1,0,0,1.089,Andesite_rect,8,0,8,0,1,
665ca5c19424301a3658f79c,SCR,2024-06-24_11h45.45.667,LearnStrategy,2023.2.3,Win32,60.24096386,6,2,10,,,,,,,,8,10,,,,,,,,,,,,,8,1.991,1,,,,,,0.377853751,-0.413888931,1,0,0,1.991,Pumice_rect,9,0,9,0,1,
665ca5c19424301a3658f79c,SCR,2024-06-24_11h45.45.667,LearnStrategy,2023.2.3,Win32,60.24096386,6,2,11,,,,,,,,6,16,,,,,,,,,,,,,6,0.962,1,,,,,,-0.12978512,-0.39618057,1,0,0,0.9621,Pegmatite_rect,10,0,10,0,1,
665ca5c19424301a3658f79c,SCR,2024-06-24_11h45.45.667,LearnStrategy,2023.2.3,Win32,60.24096386,6,2,12,,,,,,,,7,04,,,,,,,,,,,,,6,1.278,0,,,,,,-0.096799016,-0.403125107,1,0,0,1.2781,Pegmatite_rect,11,0,11,0,1,
665ca5c19424301a3658f79c,SCR,2024-06-24_11h45.45.667,LearnStrategy,2023.2.3,Win32,60.24096386,6,2,13,,,,,,,,7,07,,,,,,,,,,,,,7,0.84,1,,,,,,0.085839868,-0.401388884,1,0,0,0.8395,Peridotite_rect,12,0,12,0,1,
665ca5c19424301a3658f79c,SCR,2024-06-24_11h45.45.667,LearnStrategy,2023.2.3,Win32,60.24096386,6,2,14,,,,,,,,8,09,,,,,,,,,,,,,8,0.862,1,,,,,,0.371603727,-0.396875024,1,0,0,0.862,Pumice_rect,13,0,13,0,1,
665ca5c19424301a3658f79c,SCR,2024-06-24_11h45.45.667,LearnStrategy,2023.2.3,Win32,60.24096386,6,2,15,,,,,,,,6,09,,,,,,,,,,,,,6,1.024,1,,,,,,-0.119368494,-0.405555665,1,0,0,1.0242,Pegmatite_rect,14,0,14,0,1,
665ca5c19424301a3658f79c,SCR,2024-06-24_11h45.45.667,LearnStrategy,2023.2.3,Win32,60.24096386,6,2,16,,,,,,,,5,16,,,,,,,,,,,,,5,0.879,1,,,,,,-0.361035168,-0.391319454,1,0,0,0.8786,Obsidian_rect,15,0,15,0,1,
665ca5c19424301a3658f79c,SCR,2024-06-24_11h45.45.667,LearnStrategy,2023.2.3,Win32,60.24096386,7,1,1,-0.093674004,0.065624982,1,0,0,1.4003,Pegmatite_05,6,05,4,4,1.4,6,10,-0.107215703,-0.386458337,1,0,0,0.904,Pegmatite_rect,6,0.904,1,0,0,0,0,1,,,,,,,,,,,,,
665ca5c19424301a3658f79c,SCR,2024-06-24_11h45.45.667,LearnStrategy,2023.2.3,Win32,60.24096386,7,1,2,0.237228751,0.080555558,1,0,0,0.7319,Obsidian_09,5,09,4,6,0.732,3,13,-0.403743476,-0.410763919,1,0,0,0.7087,Obsidian_rect,5,0.709,1,1,0,1,0,1,,,,,,,,,,,,,
665ca5c19424301a3658f79c,SCR,2024-06-24_11h45.45.667,LearnStrategy,2023.2.3,Win32,60.24096386,7,1,3,0.396603823,0.116666615,1,0,0,0.8323,Peridotite_10,7,10,4,7,0.832,2,02,0.118131518,-0.397222221,1,0,0,1.0107,Peridotite_rect,7,1.011,1,2,0,2,0,1,,,,,,,,,,,,,
665ca5c19424301a3658f79c,SCR,2024-06-24_11h45.45.667,LearnStrategy,2023.2.3,Win32,60.24096386,7,1,4,0.534103751,0.100694448,1,0,0,0.7326,Pumice_03,8,03,4,8,0.733,6,06,0.368478775,-0.418750107,1,0,0,0.7783,Pumice_rect,8,0.778,1,3,0,3,0,1,,,,,,,,,,,,,
665ca5c19424301a3658f79c,SCR,2024-06-24_11h45.45.667,LearnStrategy,2023.2.3,Win32,60.24096386,7,1,5,0.358756542,0.389236107,1,0,0,1.4483,Basalt_12,2,12,6,7,1.448,3,16,-0.100618482,-0.228125036,1,0,0,1.0263,Basalt_rect,2,1.026,1,4,0,4,0,1,,,,,,,,,,,,,
665ca5c19424301a3658f79c,SCR,2024-06-24_11h45.45.667,LearnStrategy,2023.2.3,Win32,60.24096386,7,1,6,0.099381506,0.23993054,1,0,0,2.1495,Gabbro_09,4,09,5,5,2.149,4,01,0.365353703,-0.254513919,1,0,0,0.7448,Gabbro_rect,4,0.745,1,5,0,5,0,1,,,,,,,,,,,,,
665ca5c19424301a3658f79c,SCR,2024-06-24_11h45.45.667,LearnStrategy,2023.2.3,Win32,60.24096386,7,1,7,-0.382910073,0.402430557,1,0,0,1.2159,Diorite_12,3,12,6,2,1.216,1,11,0.137923241,-0.261458337,1,0,0,0.7935,Diorite_rect,3,0.794,1,6,0,6,0,1,,,,,,,,,,,,,
665ca5c19424301a3658f79c,SCR,2024-06-24_11h45.45.667,LearnStrategy,2023.2.3,Win32,60.24096386,7,1,8,0.412923217,-0.440625012,1,0,0,0.9491,Peridotite_14,7,14,1,7,0.949,4,12,0.155978799,-0.27118057,1,0,0,2.0286,Diorite_rect,3,2.029,0,7,0,7,0,1,,,,,,,,,,,,,
665ca5c19424301a3658f79c,SCR,2024-06-24_11h45.45.667,LearnStrategy,2023.2.3,Win32,60.24096386,7,1,9,0.098339856,-0.41180557,1,0,0,1.5328,Andesite_02,1,02,1,5,1.533,5,08,-0.382215679,-0.23993057,1,0,0,1.6571,Andesite_rect,1,1.657,1,8,0,8,0,1,,,,,,,,,,,,,
665ca5c19424301a3658f79c,SCR,2024-06-24_11h45.45.667,LearnStrategy,2023.2.3,Win32,60.24096386,7,1,10,-0.240549028,-0.445138931,1,0,0,0.9496,Diorite_16,3,16,1,3,0.95,7,15,0.112923145,-0.258680582,1,0,0,1.2081,Diorite_rect,3,1.208,1,9,0,9,0,1,,,,,,,,,,,,,
665ca5c19424301a3658f79c,SCR,2024-06-24_11h45.45.667,LearnStrategy,2023.2.3,Win32,60.24096386,7,1,11,-0.513118476,-0.431250036,1,0,0,1.0995,Peridotite_05,7,05,1,1,1.099,1,11,0.120909452,-0.392013907,1,0,0,1.0284,Peridotite_rect,7,1.028,1,10,0,10,0,1,,,,,,,,,,,,,
665ca5c19424301a3658f79c,SCR,2024-06-24_11h45.45.667,LearnStrategy,2023.2.3,Win32,60.24096386,7,1,12,0.561881542,-0.418055594,1,0,0,0.8977,Pegmatite_13,6,13,1,8,0.898,8,02,-0.107910156,-0.395138919,1,0,0,0.6594,Pegmatite_rect,6,0.659,1,11,0,11,0,1,,,,,,,,,,,,,
665ca5c19424301a3658f79c,SCR,2024-06-24_11h45.45.667,LearnStrategy,2023.2.3,Win32,60.24096386,7,1,13,-0.531174034,-0.248263896,1,0,0,1.5329,Diorite_09,3,09,2,1,1.533,7,10,0.106673181,-0.256597221,1,0,0,0.7275,Diorite_rect,3,0.727,1,12,0,12,0,1,,,,,,,,,,,,,
665ca5c19424301a3658f79c,SCR,2024-06-24_11h45.45.667,LearnStrategy,2023.2.3,Win32,60.24096386,7,1,14,0.559103727,-0.098263919,1,0,0,0.9655,Pumice_02,8,02,3,8,0.965,3,12,0.400423169,-0.410069466,1,0,0,0.9088,Pumice_rect,8,0.909,1,13,0,13,0,1,,,,,,,,,,,,,
665ca5c19424301a3658f79c,SCR,2024-06-24_11h45.45.667,LearnStrategy,2023.2.3,Win32,60.24096386,7,1,15,0.377159357,-0.098263919,1,0,0,1.1154,Andesite_16,1,16,3,7,1.115,4,12,-0.355826795,-0.260763884,1,0,0,2.0067,Andesite_rect,1,2.007,1,14,0,14,0,1,,,,,,,,,,,,,
665ca5c19424301a3658f79c,SCR,2024-06-24_11h45.45.667,LearnStrategy,2023.2.3,Win32,60.24096386,7,1,16,-0.23360461,0.107986093,1,0,0,1.5997,Diorite_13,3,13,4,3,1.6,7,14,-0.361035168,-0.243402779,1,0,0,0.9786,Andesite_rect,1,0.979,0,15,0,15,0,1,,,,,,,,,,,,,
665ca5c19424301a3658f79c,SCR,2024-06-24_11h45.45.667,LearnStrategy,2023.2.3,Win32,60.24096386,7,2,1,,,,,,,,3,06,,,,,,,,,,,,,3,1.361,1,,,,,,0.140353799,-0.245138884,1,0,0,1.3613,Diorite_rect,0,0,0,0,1,
665ca5c19424301a3658f79c,SCR,2024-06-24_11h45.45.667,LearnStrategy,2023.2.3,Win32,60.24096386,7,2,2,,,,,,,,4,10,,,,,,,,,,,,,4,1.346,1,,,,,,0.363964915,-0.243055582,1,0,0,1.3455,Gabbro_rect,1,0,1,0,1,
665ca5c19424301a3658f79c,SCR,2024-06-24_11h45.45.667,LearnStrategy,2023.2.3,Win32,60.24096386,7,2,3,,,,,,,,7,04,,,,,,,,,,,,,6,1.712,0,,,,,,-0.115896225,-0.417013884,1,0,0,1.7116,Pegmatite_rect,2,0,2,0,1,
665ca5c19424301a3658f79c,SCR,2024-06-24_11h45.45.667,LearnStrategy,2023.2.3,Win32,60.24096386,7,2,4,,,,,,,,2,10,,,,,,,,,,,,,2,1.058,1,,,,,,-0.100965679,-0.269444466,1,0,0,1.0577,Basalt_rect,3,0,3,0,1,
665ca5c19424301a3658f79c,SCR,2024-06-24_11h45.45.667,LearnStrategy,2023.2.3,Win32,60.24096386,7,2,5,,,,,,,,8,10,,,,,,,,,,,,,8,0.94,1,,,,,,0.415353775,-0.379513919,1,0,0,0.9402,Pumice_rect,4,0,4,0,1,
665ca5c19424301a3658f79c,SCR,2024-06-24_11h45.45.667,LearnStrategy,2023.2.3,Win32,60.24096386,7,2,6,,,,,,,,6,07,,,,,,,,,,,,,6,0.929,1,,,,,,-0.106868386,-0.387500107,1,0,0,0.9287,Pegmatite_rect,5,0,5,0,1,
665ca5c19424301a3658f79c,SCR,2024-06-24_11h45.45.667,LearnStrategy,2023.2.3,Win32,60.24096386,7,2,7,,,,,,,,5,06,,,,,,,,,,,,,5,0.853,1,,,,,,-0.35304904,-0.402777791,1,0,0,0.8531,Obsidian_rect,6,0,6,0,1,
665ca5c19424301a3658f79c,SCR,2024-06-24_11h45.45.667,LearnStrategy,2023.2.3,Win32,60.24096386,7,2,8,,,,,,,,1,10,,,,,,,,,,,,,1,0.995,1,,,,,,-0.374924004,-0.253819466,1,0,0,0.9953,Andesite_rect,7,0,7,0,1,
665ca5c19424301a3658f79c,SCR,2024-06-24_11h45.45.667,LearnStrategy,2023.2.3,Win32,60.24096386,7,2,9,,,,,,,,5,12,,,,,,,,,,,,,5,0.945,1,,,,,,-0.361035168,-0.394097328,1,0,0,0.9454,Obsidian_rect,8,0,8,0,1,
665ca5c19424301a3658f79c,SCR,2024-06-24_11h45.45.667,LearnStrategy,2023.2.3,Win32,60.24096386,7,2,10,,,,,,,,1,14,,,,,,,,,,,,,1,3.575,1,,,,,,-0.359646261,-0.264930546,1,0,0,3.5749,Andesite_rect,9,0,9,0,1,
665ca5c19424301a3658f79c,SCR,2024-06-24_11h45.45.667,LearnStrategy,2023.2.3,Win32,60.24096386,7,2,11,,,,,,,,2,04,,,,,,,,,,,,,2,0.958,1,,,,,,-0.150965691,-0.252430558,1,0,0,0.9582,Basalt_rect,10,0,10,0,1,
665ca5c19424301a3658f79c,SCR,2024-06-24_11h45.45.667,LearnStrategy,2023.2.3,Win32,60.24096386,7,2,12,,,,,,,,4,13,,,,,,,,,,,,,3,3.008,0,,,,,,0.161881566,-0.260763884,1,0,0,3.0076,Diorite_rect,11,0,11,0,1,
665ca5c19424301a3658f79c,SCR,2024-06-24_11h45.45.667,LearnStrategy,2023.2.3,Win32,60.24096386,7,2,13,,,,,,,,7,16,,,,,,,,,,,,,7,0.939,1,,,,,,0.156673193,-0.399652779,1,0,0,0.9394,Peridotite_rect,12,0,12,0,1,
665ca5c19424301a3658f79c,SCR,2024-06-24_11h45.45.667,LearnStrategy,2023.2.3,Win32,60.24096386,7,2,14,,,,,,,,8,13,,,,,,,,,,,,,8,0.945,1,,,,,,0.387228727,-0.406944454,1,0,0,0.9454,Pumice_rect,13,0,13,0,1,
665ca5c19424301a3658f79c,SCR,2024-06-24_11h45.45.667,LearnStrategy,2023.2.3,Win32,60.24096386,7,2,15,,,,,,,,3,15,,,,,,,,,,,,,3,1.262,1,,,,,,0.130284309,-0.268750012,1,0,0,1.262,Diorite_rect,14,0,14,0,1,
665ca5c19424301a3658f79c,SCR,2024-06-24_11h45.45.667,LearnStrategy,2023.2.3,Win32,60.24096386,7,2,16,,,,,,,,6,12,,,,,,,,,,,,,1,1.124,0,,,,,,-0.36311847,-0.269444466,1,0,0,1.1236,Andesite_rect,15,0,15,0,1,
665ca5c19424301a3658f79c,SCR,2024-06-24_11h45.45.667,LearnStrategy,2023.2.3,Win32,60.24096386,8,1,1,0.090353727,0.096874982,1,0,0,0.8658,Diorite_02,3,02,4,5,0.866,4,12,0.130284309,-0.257638931,1,0,0,1.5555,Diorite_rect,3,1.555,1,0,0,0,0,1,,,,,,,,,,,,,
665ca5c19424301a3658f79c,SCR,2024-06-24_11h45.45.667,LearnStrategy,2023.2.3,Win32,60.24096386,8,1,2,-0.073535144,0.103124946,1,0,0,0.7325,Pegmatite_05,6,05,4,4,0.732,3,16,-0.093674004,-0.395833373,1,0,0,0.7607,Pegmatite_rect,6,0.761,1,1,0,1,0,1,,,,,,,,,,,,,
665ca5c19424301a3658f79c,SCR,2024-06-24_11h45.45.667,LearnStrategy,2023.2.3,Win32,60.24096386,8,1,3,0.066048205,-0.25,1,0,0,0.9483,Gabbro_01,4,01,2,5,0.948,8,05,0.125423193,-0.398263931,1,0,0,2.0255,Peridotite_rect,7,2.026,0,2,0,2,0,1,,,,,,,,,,,,,
665ca5c19424301a3658f79c,SCR,2024-06-24_11h45.45.667,LearnStrategy,2023.2.3,Win32,60.24096386,8,1,4,-0.234299004,-0.272569478,1,0,0,2.0331,Basalt_16,2,16,2,3,2.033,7,15,-0.125271261,-0.258680582,1,0,0,1.1586,Basalt_rect,2,1.159,1,3,0,3,0,1,,,,,,,,,,,,,
665ca5c19424301a3658f79c,SCR,2024-06-24_11h45.45.667,LearnStrategy,2023.2.3,Win32,60.24096386,8,1,5,0.398339868,-0.269444466,1,0,0,1.266,Diorite_11,3,11,2,7,1.266,1,06,0.165353775,-0.25555557,1,0,0,1.5777,Diorite_rect,3,1.578,1,4,0,4,0,1,,,,,,,,,,,,,
665ca5c19424301a3658f79c,SCR,2024-06-24_11h45.45.667,LearnStrategy,2023.2.3,Win32,60.24096386,8,1,6,0.587576032,-0.282638907,1,0,0,1.0155,Andesite_06,1,06,2,8,1.016,5,02,-0.344368458,-0.263888896,1,0,0,1.1284,Andesite_rect,1,1.128,1,5,0,5,0,1,,,,,,,,,,,,,
665ca5c19424301a3658f79c,SCR,2024-06-24_11h45.45.667,LearnStrategy,2023.2.3,Win32,60.24096386,8,1,7,0.389659286,0.07256943,1,0,0,1.2316,Peridotite_10,7,10,4,7,1.232,4,11,0.138965011,-0.419444442,1,0,0,1.0938,Peridotite_rect,7,1.094,1,6,0,6,0,1,,,,,,,,,,,,,
665ca5c19424301a3658f79c,SCR,2024-06-24_11h45.45.667,LearnStrategy,2023.2.3,Win32,60.24096386,8,1,8,-0.250965714,0.238194436,1,0,0,1.7835,Gabbro_12,4,12,5,3,1.784,3,02,0.441395402,-0.271527767,1,0,0,1.2067,Gabbro_rect,4,1.207,1,7,0,7,0,1,,,,,,,,,,,,,
665ca5c19424301a3658f79c,SCR,2024-06-24_11h45.45.667,LearnStrategy,2023.2.3,Win32,60.24096386,8,1,9,-0.248535156,0.411805555,1,0,0,1.5501,Basalt_08,2,08,6,3,1.55,2,12,-0.14992404,-0.239583373,1,0,0,0.8069,Basalt_rect,2,0.807,1,8,0,8,0,1,,,,,,,,,,,,,
665ca5c19424301a3658f79c,SCR,2024-06-24_11h45.45.667,LearnStrategy,2023.2.3,Win32,60.24096386,8,1,10,0.227853775,-0.107638896,1,0,0,1.7666,Pegmatite_03,6,03,3,6,1.767,7,02,-0.09853512,-0.413194478,1,0,0,0.4573,Pegmatite_rect,6,0.457,1,9,0,9,0,1,,,,,,,,,,,,,
665ca5c19424301a3658f79c,SCR,2024-06-24_11h45.45.667,LearnStrategy,2023.2.3,Win32,60.24096386,8,1,11,0.22507596,-0.274305582,1,0,0,5.0172,Pegmatite_11,6,11,2,6,5.017,4,15,-0.104785144,-0.409375012,1,0,0,0.7054,Pegmatite_rect,6,0.705,1,10,0,10,0,1,,,,,,,,,,,,,
665ca5c19424301a3658f79c,SCR,2024-06-24_11h45.45.667,LearnStrategy,2023.2.3,Win32,60.24096386,8,1,12,0.10007596,-0.431250036,1,0,0,1.166,Andesite_02,1,02,1,5,1.166,1,05,-0.39541015,-0.253819466,1,0,0,0.945,Andesite_rect,1,0.945,1,11,0,11,0,1,,,,,,,,,,,,,
665ca5c19424301a3658f79c,SCR,2024-06-24_11h45.45.667,LearnStrategy,2023.2.3,Win32,60.24096386,8,1,13,-0.380826831,-0.25,1,0,0,1.366,Basalt_02,2,02,2,2,1.366,7,05,-0.122146249,-0.230902791,1,0,0,0.9452,Basalt_rect,2,0.945,1,12,0,12,0,1,,,,,,,,,,,,,
665ca5c19424301a3658f79c,SCR,2024-06-24_11h45.45.667,LearnStrategy,2023.2.3,Win32,60.24096386,8,1,14,-0.251660168,-0.123263896,1,0,0,1.2328,Obsidian_11,5,11,3,3,1.233,6,10,-0.378049016,-0.399305582,1,0,0,0.4608,Obsidian_rect,5,0.461,1,13,0,13,0,1,,,,,,,,,,,,,
665ca5c19424301a3658f79c,SCR,2024-06-24_11h45.45.667,LearnStrategy,2023.2.3,Win32,60.24096386,8,1,15,-0.059646249,-0.432638884,1,0,0,1.6,Andesite_01,1,01,1,4,1.6,6,05,0.169520378,-0.260069549,1,0,0,1.1415,Diorite_rect,3,1.141,0,14,0,14,0,1,,,,,,,,,,,,,
665ca5c19424301a3658f79c,SCR,2024-06-24_11h45.45.667,LearnStrategy,2023.2.3,Win32,60.24096386,8,1,16,0.094520509,-0.383333325,1,0,0,1.9822,Andesite_02,1,02,1,5,1.982,6,05,-0.340201795,-0.252083361,1,0,0,1.1275,Andesite_rect,1,1.128,1,15,0,15,0,1,,,,,,,,,,,,,
665ca5c19424301a3658f79c,SCR,2024-06-24_11h45.45.667,LearnStrategy,2023.2.3,Win32,60.24096386,8,2,1,,,,,,,,3,08,,,,,,,,,,,,,3,1.924,1,,,,,,0.124381542,-0.247222245,1,0,0,1.9238,Diorite_rect,0,0,0,0,1,
665ca5c19424301a3658f79c,SCR,2024-06-24_11h45.45.667,LearnStrategy,2023.2.3,Win32,60.24096386,8,2,2,,,,,,,,4,14,,,,,,,,,,,,,4,2.647,1,,,,,,0.384798169,-0.254513919,1,0,0,2.6465,Gabbro_rect,1,0,1,0,1,
665ca5c19424301a3658f79c,SCR,2024-06-24_11h45.45.667,LearnStrategy,2023.2.3,Win32,60.24096386,8,2,3,,,,,,,,8,08,,,,,,,,,,,,,8,0.979,1,,,,,,0.379589915,-0.407638907,1,0,0,0.9787,Pumice_rect,2,0,2,0,1,
665ca5c19424301a3658f79c,SCR,2024-06-24_11h45.45.667,LearnStrategy,2023.2.3,Win32,60.24096386,8,2,4,,,,,,,,7,06,,,,,,,,,,,,,7,3.137,1,,,,,,0.137575984,-0.419097245,1,0,0,3.1368,Peridotite_rect,3,0,3,0,1,
665ca5c19424301a3658f79c,SCR,2024-06-24_11h45.45.667,LearnStrategy,2023.2.3,Win32,60.24096386,8,2,5,,,,,,,,5,10,,,,,,,,,,,,,5,0.939,1,,,,,,-0.383951783,-0.418750107,1,0,0,0.9395,Obsidian_rect,4,0,4,0,1,
665ca5c19424301a3658f79c,SCR,2024-06-24_11h45.45.667,LearnStrategy,2023.2.3,Win32,60.24096386,8,2,6,,,,,,,,1,04,,,,,,,,,,,,,1,1.662,1,,,,,,-0.372840703,-0.237500012,1,0,0,1.6623,Andesite_rect,5,0,5,0,1,
665ca5c19424301a3658f79c,SCR,2024-06-24_11h45.45.667,LearnStrategy,2023.2.3,Win32,60.24096386,8,2,7,,,,,,,,8,09,,,,,,,,,,,,,8,0.912,1,,,,,,0.390353799,-0.404513896,1,0,0,0.9122,Pumice_rect,6,0,6,0,1,
665ca5c19424301a3658f79c,SCR,2024-06-24_11h45.45.667,LearnStrategy,2023.2.3,Win32,60.24096386,8,2,8,,,,,,,,4,16,,,,,,,,,,,,,4,2.563,1,,,,,,0.429589868,-0.241319478,1,0,0,2.5627,Gabbro_rect,7,0,7,0,1,
665ca5c19424301a3658f79c,SCR,2024-06-24_11h45.45.667,LearnStrategy,2023.2.3,Win32,60.24096386,8,2,9,,,,,,,,3,07,,,,,,,,,,,,,1,1.123,0,,,,,,-0.413465708,-0.235763907,1,0,0,1.1228,Andesite_rect,8,0,8,0,1,
665ca5c19424301a3658f79c,SCR,2024-06-24_11h45.45.667,LearnStrategy,2023.2.3,Win32,60.24096386,8,2,10,,,,,,,,2,01,,,,,,,,,,,,,2,1.262,1,,,,,,-0.091590703,-0.238888919,1,0,0,1.2622,Basalt_rect,9,0,9,0,1,
665ca5c19424301a3658f79c,SCR,2024-06-24_11h45.45.667,LearnStrategy,2023.2.3,Win32,60.24096386,8,2,11,,,,,,,,7,07,,,,,,,,,,,,,7,1.062,1,,,,,,0.15146482,-0.402777791,1,0,0,1.0623,Peridotite_rect,10,0,10,0,1,
665ca5c19424301a3658f79c,SCR,2024-06-24_11h45.45.667,LearnStrategy,2023.2.3,Win32,60.24096386,8,2,12,,,,,,,,5,07,,,,,,,,,,,,,5,0.841,1,,,,,,-0.412424028,-0.381944478,1,0,0,0.841,Obsidian_rect,11,0,11,0,1,
665ca5c19424301a3658f79c,SCR,2024-06-24_11h45.45.667,LearnStrategy,2023.2.3,Win32,60.24096386,8,2,13,,,,,,,,6,08,,,,,,,,,,,,,6,0.912,1,,,,,,-0.094021261,-0.404513896,1,0,0,0.912,Pegmatite_rect,12,0,12,0,1,
665ca5c19424301a3658f79c,SCR,2024-06-24_11h45.45.667,LearnStrategy,2023.2.3,Win32,60.24096386,8,2,14,,,,,,,,1,09,,,,,,,,,,,,,1,10.765,1,,,,,,-0.382215679,-0.263888896,1,0,0,10.7652,Andesite_rect,13,0,13,0,1,
665ca5c19424301a3658f79c,SCR,2024-06-24_11h45.45.667,LearnStrategy,2023.2.3,Win32,60.24096386,8,2,15,,,,,,,,2,09,,,,,,,,,,,,,2,0.822,1,,,,,,-0.117979586,-0.255902767,1,0,0,0.8223,Basalt_rect,14,0,14,0,1,
665ca5c19424301a3658f79c,SCR,2024-06-24_11h45.45.667,LearnStrategy,2023.2.3,Win32,60.24096386,8,2,16,,,,,,,,6,09,,,,,,,,,,,,,6,1.946,1,,,,,,-0.082215607,-0.400000036,1,0,0,1.9457,Pegmatite_rect,15,0,15,0,1,
665ca5c19424301a3658f79c,SCR,2024-06-24_11h45.45.667,LearnStrategy,2023.2.3,Win32,60.24096386,9,1,1,-0.10304904,0.079166651,1,0,0,2.5343,Pegmatite_05,6,05,4,4,2.534,8,03,-0.070410132,-0.418055594,1,0,0,0.853,Pegmatite_rect,6,0.853,1,0,0,0,0,1,,,,,,,,,,,,,
665ca5c19424301a3658f79c,SCR,2024-06-24_11h45.45.667,LearnStrategy,2023.2.3,Win32,60.24096386,9,1,2,-0.204785168,0.085069448,1,0,0,0.9161,Diorite_13,3,13,4,3,0.916,5,09,0.113964915,-0.266319454,1,0,0,0.9245,Diorite_rect,3,0.925,1,1,0,1,0,1,,,,,,,,,,,,,
665ca5c19424301a3658f79c,SCR,2024-06-24_11h45.45.667,LearnStrategy,2023.2.3,Win32,60.24096386,9,1,3,0.241048217,-0.278125107,1,0,0,1.0161,Pegmatite_11,6,11,2,6,1.016,7,02,-0.142285049,-0.405902803,1,0,0,0.4782,Pegmatite_rect,6,0.478,1,2,0,2,0,1,,,,,,,,,,,,,
665ca5c19424301a3658f79c,SCR,2024-06-24_11h45.45.667,LearnStrategy,2023.2.3,Win32,60.24096386,9,1,4,0.07438153,-0.249652803,1,0,0,0.8326,Gabbro_01,4,01,2,5,0.833,1,01,0.440353751,-0.253125012,1,0,0,1.2101,Gabbro_rect,4,1.21,1,3,0,3,0,1,,,,,,,,,,,,,
665ca5c19424301a3658f79c,SCR,2024-06-24_11h45.45.667,LearnStrategy,2023.2.3,Win32,60.24096386,9,1,5,-0.076660156,-0.118750036,1,0,0,1.1653,Gabbro_15,4,15,3,4,1.165,2,02,-0.347840726,-0.253472328,1,0,0,1.4582,Andesite_rect,1,1.458,0,4,0,4,0,1,,,,,,,,,,,,,
665ca5c19424301a3658f79c,SCR,2024-06-24_11h45.45.667,LearnStrategy,2023.2.3,Win32,60.24096386,9,1,6,-0.214160144,0.105555534,1,0,0,3.9501,Diorite_13,3,13,4,3,3.95,7,05,-0.386729598,-0.256250024,1,0,0,1.1669,Andesite_rect,1,1.167,0,5,0,5,0,1,,,,,,,,,,,,,
665ca5c19424301a3658f79c,SCR,2024-06-24_11h45.45.667,LearnStrategy,2023.2.3,Win32,60.24096386,9,1,7,-0.22353512,0.106944442,1,0,0,0.8327,Diorite_13,3,13,4,3,0.833,6,10,0.147298217,-0.258680582,1,0,0,0.6073,Diorite_rect,3,0.607,1,6,0,6,0,1,,,,,,,,,,,,,
665ca5c19424301a3658f79c,SCR,2024-06-24_11h45.45.667,LearnStrategy,2023.2.3,Win32,60.24096386,9,1,8,-0.386035144,0.236111104,1,0,0,1.682,Gabbro_05,4,05,5,2,1.682,3,16,0.429589868,-0.262152791,1,0,0,1.9212,Gabbro_rect,4,1.921,1,7,0,7,0,1,,,,,,,,,,,,,
665ca5c19424301a3658f79c,SCR,2024-06-24_11h45.45.667,LearnStrategy,2023.2.3,Win32,60.24096386,9,1,9,0.533409357,0.069444448,1,0,0,1.2994,Pumice_03,8,03,4,8,1.299,4,05,0.406325936,-0.402083337,1,0,0,1.0783,Pumice_rect,8,1.078,1,8,0,8,0,1,,,,,,,,,,,,,
665ca5c19424301a3658f79c,SCR,2024-06-24_11h45.45.667,LearnStrategy,2023.2.3,Win32,60.24096386,9,1,10,0.583756566,-0.080902815,1,0,0,1.1998,Pumice_02,8,02,3,8,1.2,1,16,0.389659286,-0.419097245,1,0,0,0.6898,Pumice_rect,8,0.69,1,9,0,9,0,1,,,,,,,,,,,,,
665ca5c19424301a3658f79c,SCR,2024-06-24_11h45.45.667,LearnStrategy,2023.2.3,Win32,60.24096386,9,1,11,0.39695096,-0.265277803,1,0,0,0.8326,Diorite_11,3,11,2,7,0.833,7,10,0.130978703,-0.244444549,1,0,0,1.9623,Diorite_rect,3,1.962,1,10,0,10,0,1,,,,,,,,,,,,,
665ca5c19424301a3658f79c,SCR,2024-06-24_11h45.45.667,LearnStrategy,2023.2.3,Win32,60.24096386,9,1,12,-0.343674004,0.403819442,1,0,0,1.3994,Diorite_12,3,12,6,2,1.399,6,06,0.126464844,-0.246875107,1,0,0,1.195,Diorite_rect,3,1.195,1,11,0,11,0,1,,,,,,,,,,,,,
665ca5c19424301a3658f79c,SCR,2024-06-24_11h45.45.667,LearnStrategy,2023.2.3,Win32,60.24096386,9,1,13,-0.558951825,0.431944445,1,0,0,0.9814,Peridotite_12,7,12,6,1,0.981,4,09,-0.38985458,-0.257638931,1,0,0,0.9437,Andesite_rect,1,0.944,0,12,0,12,0,1,,,,,,,,,,,,,
665ca5c19424301a3658f79c,SCR,2024-06-24_11h45.45.667,LearnStrategy,2023.2.3,Win32,60.24096386,9,1,14,-0.224229515,-0.281597257,1,0,0,1.883,Basalt_16,2,16,2,3,1.883,3,11,-0.095410049,-0.238194466,1,0,0,2.1592,Basalt_rect,2,2.159,1,13,0,13,0,1,,,,,,,,,,,,,
665ca5c19424301a3658f79c,SCR,2024-06-24_11h45.45.667,LearnStrategy,2023.2.3,Win32,60.24096386,9,1,15,-0.424576819,-0.267013907,1,0,0,1.2326,Basalt_02,2,02,2,2,1.233,3,12,-0.155826807,-0.253125012,1,0,0,0.9451,Basalt_rect,2,0.945,1,14,0,14,0,1,,,,,,,,,,,,,
665ca5c19424301a3658f79c,SCR,2024-06-24_11h45.45.667,LearnStrategy,2023.2.3,Win32,60.24096386,9,1,16,-0.222146273,-0.440625012,1,0,0,1.0825,Diorite_16,3,16,1,3,1.082,4,11,0.154590011,-0.247222245,1,0,0,2.4454,Diorite_rect,3,2.445,1,15,0,15,0,1,,,,,,,,,,,,,
665ca5c19424301a3658f79c,SCR,2024-06-24_11h45.45.667,LearnStrategy,2023.2.3,Win32,60.24096386,9,2,1,,,,,,,,6,16,,,,,,,,,,,,,6,1.729,1,,,,,,-0.089160144,-0.417013884,1,0,0,1.7289,Pegmatite_rect,0,0,0,0,1,
665ca5c19424301a3658f79c,SCR,2024-06-24_11h45.45.667,LearnStrategy,2023.2.3,Win32,60.24096386,9,2,2,,,,,,,,5,04,,,,,,,,,,,,,5,0.861,1,,,,,,-0.34749347,-0.391319454,1,0,0,0.8612,Obsidian_rect,1,0,1,0,1,
665ca5c19424301a3658f79c,SCR,2024-06-24_11h45.45.667,LearnStrategy,2023.2.3,Win32,60.24096386,9,2,3,,,,,,,,2,06,,,,,,,,,,,,,2,1.029,1,,,,,,-0.127701819,-0.257638931,1,0,0,1.0288,Basalt_rect,2,0,2,0,1,
665ca5c19424301a3658f79c,SCR,2024-06-24_11h45.45.667,LearnStrategy,2023.2.3,Win32,60.24096386,9,2,4,,,,,,,,5,16,,,,,,,,,,,,,5,1.079,1,,,,,,-0.357910156,-0.415277779,1,0,0,1.0787,Obsidian_rect,3,0,3,0,1,
665ca5c19424301a3658f79c,SCR,2024-06-24_11h45.45.667,LearnStrategy,2023.2.3,Win32,60.24096386,9,2,5,,,,,,,,1,03,,,,,,,,,,,,,1,3.275,1,,,,,,-0.354785144,-0.241319478,1,0,0,3.2746,Andesite_rect,4,0,4,0,1,
665ca5c19424301a3658f79c,SCR,2024-06-24_11h45.45.667,LearnStrategy,2023.2.3,Win32,60.24096386,9,2,6,,,,,,,,3,10,,,,,,,,,,,,,3,0.939,1,,,,,,0.165353775,-0.260763884,1,0,0,0.9392,Diorite_rect,5,0,5,0,1,
665ca5c19424301a3658f79c,SCR,2024-06-24_11h45.45.667,LearnStrategy,2023.2.3,Win32,60.24096386,9,2,7,,,,,,,,2,14,,,,,,,,,,,,,4,7.797,0,,,,,,0.397298217,-0.263194442,1,0,0,7.7975,Gabbro_rect,6,0,6,0,1,
665ca5c19424301a3658f79c,SCR,2024-06-24_11h45.45.667,LearnStrategy,2023.2.3,Win32,60.24096386,9,2,8,,,,,,,,1,07,,,,,,,,,,,,,1,1.389,1,,,,,,-0.329785168,-0.246180594,1,0,0,1.3889,Andesite_rect,7,0,7,0,1,
665ca5c19424301a3658f79c,SCR,2024-06-24_11h45.45.667,LearnStrategy,2023.2.3,Win32,60.24096386,9,2,9,,,,,,,,4,03,,,,,,,,,,,,,4,3.663,1,,,,,,0.407020569,-0.250694454,1,0,0,3.6625,Gabbro_rect,8,0,8,0,1,
665ca5c19424301a3658f79c,SCR,2024-06-24_11h45.45.667,LearnStrategy,2023.2.3,Win32,60.24096386,9,2,10,,,,,,,,4,08,,,,,,,,,,,,,4,1.006,1,,,,,,0.41708982,-0.235069454,1,0,0,1.006,Gabbro_rect,9,0,9,0,1,
665ca5c19424301a3658f79c,SCR,2024-06-24_11h45.45.667,LearnStrategy,2023.2.3,Win32,60.24096386,9,2,11,,,,,,,,3,14,,,,,,,,,,,,,3,3.279,1,,,,,,0.112228751,-0.260763884,1,0,0,3.2793,Diorite_rect,10,0,10,0,1,
665ca5c19424301a3658f79c,SCR,2024-06-24_11h45.45.667,LearnStrategy,2023.2.3,Win32,60.24096386,9,2,12,,,,,,,,8,16,,,,,,,,,,,,,8,2.306,1,,,,,,0.432020426,-0.395138919,1,0,0,2.3065,Pumice_rect,11,0,11,0,1,
665ca5c19424301a3658f79c,SCR,2024-06-24_11h45.45.667,LearnStrategy,2023.2.3,Win32,60.24096386,9,2,13,,,,,,,,6,15,,,,,,,,,,,,,6,1.065,1,,,,,,-0.12422961,-0.397569478,1,0,0,1.0653,Pegmatite_rect,12,0,12,0,1,
665ca5c19424301a3658f79c,SCR,2024-06-24_11h45.45.667,LearnStrategy,2023.2.3,Win32,60.24096386,9,2,14,,,,,,,,8,06,,,,,,,,,,,,,8,0.89,1,,,,,,0.427853823,-0.418055594,1,0,0,0.89,Pumice_rect,13,0,13,0,1,
665ca5c19424301a3658f79c,SCR,2024-06-24_11h45.45.667,LearnStrategy,2023.2.3,Win32,60.24096386,9,2,15,,,,,,,,7,08,,,,,,,,,,,,,7,0.895,1,,,,,,0.143131495,-0.410763919,1,0,0,0.8955,Peridotite_rect,14,0,14,0,1,
665ca5c19424301a3658f79c,SCR,2024-06-24_11h45.45.667,LearnStrategy,2023.2.3,Win32,60.24096386,9,2,16,,,,,,,,7,13,,,,,,,,,,,,,7,0.84,1,,,,,,0.143131495,-0.410763919,1,0,0,0.8403,Peridotite_rect,15,0,15,0,1,
665ca5c19424301a3658f79c,SCR,2024-06-24_11h45.45.667,LearnStrategy,2023.2.3,Win32,60.24096386,,,,,,,,,,,,,,,,,,,,,,,,,,,,,,,,,,,,,,,,,,,,,1
665ca5c19424301a3658f79c,SCR,2024-06-24_11h45.45.667,LearnStrategy,2023.2.3,Win32,60.24096386,,,,,,,,,,,,,,,,,,,,,,,,,,,,,,,,,,,,,,,,,,,,,
665ca5c19424301a3658f79c,SCR,2024-06-24_11h45.45.667,LearnStrategy,2023.2.3,Win32,60.24096386,,,,,,,,,,,7,05,1,1,,,,,,,,,,,,,,,,,,,,,,,,,,,,,,,
665ca5c19424301a3658f79c,SCR,2024-06-24_11h45.45.667,LearnStrategy,2023.2.3,Win32,60.24096386,,,,,,,,,,,5,02,1,2,,,,,,,,,,,,,,,,,,,,,,,,,,,,,,,
665ca5c19424301a3658f79c,SCR,2024-06-24_11h45.45.667,LearnStrategy,2023.2.3,Win32,60.24096386,,,,,,,,,,,3,16,1,3,,,,,,,,,,,,,,,,,,,,,,,,,,,,,,,
665ca5c19424301a3658f79c,SCR,2024-06-24_11h45.45.667,LearnStrategy,2023.2.3,Win32,60.24096386,,,,,,,,,,,1,01,1,4,,,,,,,,,,,,,,,,,,,,,,,,,,,,,,,
665ca5c19424301a3658f79c,SCR,2024-06-24_11h45.45.667,LearnStrategy,2023.2.3,Win32,60.24096386,,,,,,,,,,,1,02,1,5,,,,,,,,,,,,,,,,,,,,,,,,,,,,,,,
665ca5c19424301a3658f79c,SCR,2024-06-24_11h45.45.667,LearnStrategy,2023.2.3,Win32,60.24096386,,,,,,,,,,,7,15,1,6,,,,,,,,,,,,,,,,,,,,,,,,,,,,,,,
665ca5c19424301a3658f79c,SCR,2024-06-24_11h45.45.667,LearnStrategy,2023.2.3,Win32,60.24096386,,,,,,,,,,,7,14,1,7,,,,,,,,,,,,,,,,,,,,,,,,,,,,,,,
665ca5c19424301a3658f79c,SCR,2024-06-24_11h45.45.667,LearnStrategy,2023.2.3,Win32,60.24096386,,,,,,,,,,,6,13,1,8,,,,,,,,,,,,,,,,,,,,,,,,,,,,,,,
665ca5c19424301a3658f79c,SCR,2024-06-24_11h45.45.667,LearnStrategy,2023.2.3,Win32,60.24096386,,,,,,,,,,,3,09,2,1,,,,,,,,,,,,,,,,,,,,,,,,,,,,,,,
665ca5c19424301a3658f79c,SCR,2024-06-24_11h45.45.667,LearnStrategy,2023.2.3,Win32,60.24096386,,,,,,,,,,,2,02,2,2,,,,,,,,,,,,,,,,,,,,,,,,,,,,,,,
665ca5c19424301a3658f79c,SCR,2024-06-24_11h45.45.667,LearnStrategy,2023.2.3,Win32,60.24096386,,,,,,,,,,,2,16,2,3,,,,,,,,,,,,,,,,,,,,,,,,,,,,,,,
665ca5c19424301a3658f79c,SCR,2024-06-24_11h45.45.667,LearnStrategy,2023.2.3,Win32,60.24096386,,,,,,,,,,,8,04,2,4,,,,,,,,,,,,,,,,,,,,,,,,,,,,,,,
665ca5c19424301a3658f79c,SCR,2024-06-24_11h45.45.667,LearnStrategy,2023.2.3,Win32,60.24096386,,,,,,,,,,,4,01,2,5,,,,,,,,,,,,,,,,,,,,,,,,,,,,,,,
665ca5c19424301a3658f79c,SCR,2024-06-24_11h45.45.667,LearnStrategy,2023.2.3,Win32,60.24096386,,,,,,,,,,,6,11,2,6,,,,,,,,,,,,,,,,,,,,,,,,,,,,,,,
665ca5c19424301a3658f79c,SCR,2024-06-24_11h45.45.667,LearnStrategy,2023.2.3,Win32,60.24096386,,,,,,,,,,,3,11,2,7,,,,,,,,,,,,,,,,,,,,,,,,,,,,,,,
665ca5c19424301a3658f79c,SCR,2024-06-24_11h45.45.667,LearnStrategy,2023.2.3,Win32,60.24096386,,,,,,,,,,,1,06,2,8,,,,,,,,,,,,,,,,,,,,,,,,,,,,,,,
665ca5c19424301a3658f79c,SCR,2024-06-24_11h45.45.667,LearnStrategy,2023.2.3,Win32,60.24096386,,,,,,,,,,,8,14,3,1,,,,,,,,,,,,,,,,,,,,,,,,,,,,,,,
665ca5c19424301a3658f79c,SCR,2024-06-24_11h45.45.667,LearnStrategy,2023.2.3,Win32,60.24096386,,,,,,,,,,,2,05,3,2,,,,,,,,,,,,,,,,,,,,,,,,,,,,,,,
665ca5c19424301a3658f79c,SCR,2024-06-24_11h45.45.667,LearnStrategy,2023.2.3,Win32,60.24096386,,,,,,,,,,,5,11,3,3,,,,,,,,,,,,,,,,,,,,,,,,,,,,,,,
665ca5c19424301a3658f79c,SCR,2024-06-24_11h45.45.667,LearnStrategy,2023.2.3,Win32,60.24096386,,,,,,,,,,,4,15,3,4,,,,,,,,,,,,,,,,,,,,,,,,,,,,,,,
665ca5c19424301a3658f79c,SCR,2024-06-24_11h45.45.667,LearnStrategy,2023.2.3,Win32,60.24096386,,,,,,,,,,,1,11,3,5,,,,,,,,,,,,,,,,,,,,,,,,,,,,,,,
665ca5c19424301a3658f79c,SCR,2024-06-24_11h45.45.667,LearnStrategy,2023.2.3,Win32,60.24096386,,,,,,,,,,,6,03,3,6,,,,,,,,,,,,,,,,,,,,,,,,,,,,,,,
665ca5c19424301a3658f79c,SCR,2024-06-24_11h45.45.667,LearnStrategy,2023.2.3,Win32,60.24096386,,,,,,,,,,,1,16,3,7,,,,,,,,,,,,,,,,,,,,,,,,,,,,,,,
665ca5c19424301a3658f79c,SCR,2024-06-24_11h45.45.667,LearnStrategy,2023.2.3,Win32,60.24096386,,,,,,,,,,,8,02,3,8,,,,,,,,,,,,,,,,,,,,,,,,,,,,,,,
665ca5c19424301a3658f79c,SCR,2024-06-24_11h45.45.667,LearnStrategy,2023.2.3,Win32,60.24096386,,,,,,,,,,,5,14,4,1,,,,,,,,,,,,,,,,,,,,,,,,,,,,,,,
665ca5c19424301a3658f79c,SCR,2024-06-24_11h45.45.667,LearnStrategy,2023.2.3,Win32,60.24096386,,,,,,,,,,,8,15,4,2,,,,,,,,,,,,,,,,,,,,,,,,,,,,,,,
665ca5c19424301a3658f79c,SCR,2024-06-24_11h45.45.667,LearnStrategy,2023.2.3,Win32,60.24096386,,,,,,,,,,,3,13,4,3,,,,,,,,,,,,,,,,,,,,,,,,,,,,,,,
665ca5c19424301a3658f79c,SCR,2024-06-24_11h45.45.667,LearnStrategy,2023.2.3,Win32,60.24096386,,,,,,,,,,,6,05,4,4,,,,,,,,,,,,,,,,,,,,,,,,,,,,,,,
665ca5c19424301a3658f79c,SCR,2024-06-24_11h45.45.667,LearnStrategy,2023.2.3,Win32,60.24096386,,,,,,,,,,,3,02,4,5,,,,,,,,,,,,,,,,,,,,,,,,,,,,,,,
665ca5c19424301a3658f79c,SCR,2024-06-24_11h45.45.667,LearnStrategy,2023.2.3,Win32,60.24096386,,,,,,,,,,,5,09,4,6,,,,,,,,,,,,,,,,,,,,,,,,,,,,,,,
665ca5c19424301a3658f79c,SCR,2024-06-24_11h45.45.667,LearnStrategy,2023.2.3,Win32,60.24096386,,,,,,,,,,,7,10,4,7,,,,,,,,,,,,,,,,,,,,,,,,,,,,,,,
665ca5c19424301a3658f79c,SCR,2024-06-24_11h45.45.667,LearnStrategy,2023.2.3,Win32,60.24096386,,,,,,,,,,,8,03,4,8,,,,,,,,,,,,,,,,,,,,,,,,,,,,,,,
665ca5c19424301a3658f79c,SCR,2024-06-24_11h45.45.667,LearnStrategy,2023.2.3,Win32,60.24096386,,,,,,,,,,,7,02,5,1,,,,,,,,,,,,,,,,,,,,,,,,,,,,,,,
665ca5c19424301a3658f79c,SCR,2024-06-24_11h45.45.667,LearnStrategy,2023.2.3,Win32,60.24096386,,,,,,,,,,,4,05,5,2,,,,,,,,,,,,,,,,,,,,,,,,,,,,,,,
665ca5c19424301a3658f79c,SCR,2024-06-24_11h45.45.667,LearnStrategy,2023.2.3,Win32,60.24096386,,,,,,,,,,,4,12,5,3,,,,,,,,,,,,,,,,,,,,,,,,,,,,,,,
665ca5c19424301a3658f79c,SCR,2024-06-24_11h45.45.667,LearnStrategy,2023.2.3,Win32,60.24096386,,,,,,,,,,,8,05,5,4,,,,,,,,,,,,,,,,,,,,,,,,,,,,,,,
665ca5c19424301a3658f79c,SCR,2024-06-24_11h45.45.667,LearnStrategy,2023.2.3,Win32,60.24096386,,,,,,,,,,,4,09,5,5,,,,,,,,,,,,,,,,,,,,,,,,,,,,,,,
665ca5c19424301a3658f79c,SCR,2024-06-24_11h45.45.667,LearnStrategy,2023.2.3,Win32,60.24096386,,,,,,,,,,,2,11,5,6,,,,,,,,,,,,,,,,,,,,,,,,,,,,,,,
665ca5c19424301a3658f79c,SCR,2024-06-24_11h45.45.667,LearnStrategy,2023.2.3,Win32,60.24096386,,,,,,,,,,,5,08,5,7,,,,,,,,,,,,,,,,,,,,,,,,,,,,,,,
665ca5c19424301a3658f79c,SCR,2024-06-24_11h45.45.667,LearnStrategy,2023.2.3,Win32,60.24096386,,,,,,,,,,,6,06,5,8,,,,,,,,,,,,,,,,,,,,,,,,,,,,,,,
665ca5c19424301a3658f79c,SCR,2024-06-24_11h45.45.667,LearnStrategy,2023.2.3,Win32,60.24096386,,,,,,,,,,,7,12,6,1,,,,,,,,,,,,,,,,,,,,,,,,,,,,,,,
665ca5c19424301a3658f79c,SCR,2024-06-24_11h45.45.667,LearnStrategy,2023.2.3,Win32,60.24096386,,,,,,,,,,,3,12,6,2,,,,,,,,,,,,,,,,,,,,,,,,,,,,,,,
665ca5c19424301a3658f79c,SCR,2024-06-24_11h45.45.667,LearnStrategy,2023.2.3,Win32,60.24096386,,,,,,,,,,,2,08,6,3,,,,,,,,,,,,,,,,,,,,,,,,,,,,,,,
665ca5c19424301a3658f79c,SCR,2024-06-24_11h45.45.667,LearnStrategy,2023.2.3,Win32,60.24096386,,,,,,,,,,,1,05,6,4,,,,,,,,,,,,,,,,,,,,,,,,,,,,,,,
665ca5c19424301a3658f79c,SCR,2024-06-24_11h45.45.667,LearnStrategy,2023.2.3,Win32,60.24096386,,,,,,,,,,,5,05,6,5,,,,,,,,,,,,,,,,,,,,,,,,,,,,,,,
665ca5c19424301a3658f79c,SCR,2024-06-24_11h45.45.667,LearnStrategy,2023.2.3,Win32,60.24096386,,,,,,,,,,,4,11,6,6,,,,,,,,,,,,,,,,,,,,,,,,,,,,,,,
665ca5c19424301a3658f79c,SCR,2024-06-24_11h45.45.667,LearnStrategy,2023.2.3,Win32,60.24096386,,,,,,,,,,,2,12,6,7,,,,,,,,,,,,,,,,,,,,,,,,,,,,,,,
665ca5c19424301a3658f79c,SCR,2024-06-24_11h45.45.667,LearnStrategy,2023.2.3,Win32,60.24096386,,,,,,,,,,,6,10,6,8,,,,,,,,,,,,,,,,,,,,,,,,,,,,,,,