participant,condition,date,expName,psychopyVersion,OS,frameRate,block,phase,trial,learn_mouse_2.x,learn_mouse_2.y,learn_mouse_2.leftButton,learn_mouse_2.midButton,learn_mouse_2.rightButton,learn_mouse_2.time,learn_mouse_2.clicked_name,cat,token,row,col,t_select,cat_mouse_l.x,cat_mouse_l.y,cat_mouse_l.leftButton,cat_mouse_l.midButton,cat_mouse_l.rightButton,cat_mouse_l.time,cat_mouse_l.clicked_name,resp,t_resp,corr,train_trials.thisRepN,train_trials.thisTrialN,train_trials.thisN,train_trials.thisIndex,train_trials.ran,cat_mouse_t.x,cat_mouse_t.y,cat_mouse_t.leftButton,cat_mouse_t.midButton,cat_mouse_t.rightButton,cat_mouse_t.time,cat_mouse_t.clicked_name,test_trials.thisRepN,test_trials.thisTrialN,test_trials.thisN,test_trials.thisIndex,test_trials.ran,Bonus
6661c509d988597a6c057ecc,TCN,2024-06-11_18h13.51.999,LearnStrategy,2023.2.3,Win32,60.24096386,,,,,,,,,,,,,,,,,,,,,,,,,,,,,,,,,,,,,,,,,,,
6661c509d988597a6c057ecc,TCN,2024-06-11_18h13.51.999,LearnStrategy,2023.2.3,Win32,60.24096386,1,1,1,0.035185242,-0.001851866,1,0,0,4.5482,rock_grid_rect_2,7,16,-1,-1,4.548,-0.116666667,-0.388888889,1,0,0,7.5441,Pegmatite_rect,6,7.544,0,0,0,0,0,1,,,,,,,,,,,,,
6661c509d988597a6c057ecc,TCN,2024-06-11_18h13.51.999,LearnStrategy,2023.2.3,Win32,60.24096386,1,1,2,0.049074131,-0.003703732,1,0,0,2.8308,rock_grid_rect_2,4,03,-1,-1,2.831,-0.354629601,-0.378703732,1,0,0,5.2444,Obsidian_rect,5,5.244,0,1,0,1,0,1,,,,,,,,,,,,,
6661c509d988597a6c057ecc,TCN,2024-06-11_18h13.51.999,LearnStrategy,2023.2.3,Win32,60.24096386,1,1,3,0.153703732,-0.014814843,1,0,0,1.8985,rock_grid_rect_2,5,12,-1,-1,1.899,-0.37870369,-0.395370399,1,0,0,5.8733,Obsidian_rect,5,5.873,1,2,0,2,0,1,,,,,,,,,,,,,
6661c509d988597a6c057ecc,TCN,2024-06-11_18h13.51.999,LearnStrategy,2023.2.3,Win32,60.24096386,1,1,4,0.152777778,0.011111111,1,0,0,1.4338,rock_grid_rect_2,1,14,-1,-1,1.434,-0.089814758,-0.250925954,1,0,0,8.2803,Basalt_rect,2,8.28,0,3,0,3,0,1,,,,,,,,,,,,,
6661c509d988597a6c057ecc,TCN,2024-06-11_18h13.51.999,LearnStrategy,2023.2.3,Win32,60.24096386,1,1,5,0.087037065,-0.015740755,1,0,0,1.1662,rock_grid_rect_2,7,13,-1,-1,1.166,-0.177777778,-0.401851908,1,0,0,6.763,Pegmatite_rect,6,6.763,0,4,0,4,0,1,,,,,,,,,,,,,
6661c509d988597a6c057ecc,TCN,2024-06-11_18h13.51.999,LearnStrategy,2023.2.3,Win32,60.24096386,1,1,6,0.043518575,-0.012037065,1,0,0,1.93,rock_grid_rect_2,5,09,-1,-1,1.93,-0.39351849,-0.416666667,1,0,0,3.5406,Obsidian_rect,5,3.541,1,5,0,5,0,1,,,,,,,,,,,,,
6661c509d988597a6c057ecc,TCN,2024-06-11_18h13.51.999,LearnStrategy,2023.2.3,Win32,60.24096386,1,1,7,0.069444444,-0.008333333,1,0,0,1.2999,rock_grid_rect_2,3,15,-1,-1,1.3,0.401851908,-0.248148176,1,0,0,3.711,Gabbro_rect,4,3.711,0,6,0,6,0,1,,,,,,,,,,,,,
6661c509d988597a6c057ecc,TCN,2024-06-11_18h13.51.999,LearnStrategy,2023.2.3,Win32,60.24096386,1,1,8,0.089814843,0.010185157,1,0,0,1.7327,rock_grid_rect_2,1,10,-1,-1,1.733,0.171296353,-0.269444444,1,0,0,4.8991,Diorite_rect,3,4.899,0,7,0,7,0,1,,,,,,,,,,,,,
6661c509d988597a6c057ecc,TCN,2024-06-11_18h13.51.999,LearnStrategy,2023.2.3,Win32,60.24096386,1,1,9,0.125925954,-0.00648151,1,0,0,2.6688,rock_grid_rect_2,8,06,-1,-1,2.669,-0.367592578,-0.251851908,1,0,0,4.7843,Andesite_rect,1,4.784,0,8,0,8,0,1,,,,,,,,,,,,,
6661c509d988597a6c057ecc,TCN,2024-06-11_18h13.51.999,LearnStrategy,2023.2.3,Win32,60.24096386,1,1,10,0.109259288,0.00370369,1,0,0,1.6348,rock_grid_rect_2,6,13,-1,-1,1.635,-0.37870369,-0.244444444,1,0,0,4.9298,Andesite_rect,1,4.93,0,9,0,9,0,1,,,,,,,,,,,,,
6661c509d988597a6c057ecc,TCN,2024-06-11_18h13.51.999,LearnStrategy,2023.2.3,Win32,60.24096386,1,1,11,0.166666667,-0.005555556,1,0,0,1.4652,rock_grid_rect_2,3,16,-1,-1,1.465,-0.369444444,-0.248148176,1,0,0,3.9451,Andesite_rect,1,3.945,0,10,0,10,0,1,,,,,,,,,,,,,
6661c509d988597a6c057ecc,TCN,2024-06-11_18h13.51.999,LearnStrategy,2023.2.3,Win32,60.24096386,1,1,12,0.111111111,-0.00648151,1,0,0,2.5988,rock_grid_rect_2,8,02,-1,-1,2.599,0.132407464,-0.248148176,1,0,0,4.5003,Diorite_rect,3,4.5,0,11,0,11,0,1,,,,,,,,,,,,,
6661c509d988597a6c057ecc,TCN,2024-06-11_18h13.51.999,LearnStrategy,2023.2.3,Win32,60.24096386,1,1,13,0.075,0.015740712,1,0,0,1.2497,rock_grid_rect_2,6,12,-1,-1,1.25,-0.351851824,-0.243518575,1,0,0,2.1937,Andesite_rect,1,2.194,0,12,0,12,0,1,,,,,,,,,,,,,
6661c509d988597a6c057ecc,TCN,2024-06-11_18h13.51.999,LearnStrategy,2023.2.3,Win32,60.24096386,1,1,14,0.063888889,0.000925912,1,0,0,0.8343,rock_grid_rect_2,2,11,-1,-1,0.834,0.168518575,-0.240740797,1,0,0,1.6967,Diorite_rect,3,1.697,0,13,0,13,0,1,,,,,,,,,,,,,
6661c509d988597a6c057ecc,TCN,2024-06-11_18h13.51.999,LearnStrategy,2023.2.3,Win32,60.24096386,1,1,15,0.150925954,0.012037023,1,0,0,0.819,rock_grid_rect_2,4,13,-1,-1,0.819,0.109259288,-0.240740797,1,0,0,2.9641,Diorite_rect,3,2.964,0,14,0,14,0,1,,,,,,,,,,,,,
6661c509d988597a6c057ecc,TCN,2024-06-11_18h13.51.999,LearnStrategy,2023.2.3,Win32,60.24096386,1,1,16,0.146296353,-0.003703732,1,0,0,1.2337,rock_grid_rect_2,2,02,-1,-1,1.234,0.140740797,-0.239814843,1,0,0,2.1827,Diorite_rect,3,2.183,0,15,0,15,0,1,,,,,,,,,,,,,
6661c509d988597a6c057ecc,TCN,2024-06-11_18h13.51.999,LearnStrategy,2023.2.3,Win32,60.24096386,1,2,1,,,,,,,,2,16,,,,,,,,,,,3,7.422,0,,,,,,0.212037065,-0.241666667,1,0,0,7.4218,Diorite_rect,0,0,0,0,1,
6661c509d988597a6c057ecc,TCN,2024-06-11_18h13.51.999,LearnStrategy,2023.2.3,Win32,60.24096386,1,2,2,,,,,,,,3,13,,,,,,,,,,,3,2.296,1,,,,,,0.180555556,-0.239814843,1,0,0,2.2958,Diorite_rect,1,0,1,0,1,
6661c509d988597a6c057ecc,TCN,2024-06-11_18h13.51.999,LearnStrategy,2023.2.3,Win32,60.24096386,1,2,3,,,,,,,,2,08,,,,,,,,,,,5,2.189,0,,,,,,-0.362962935,-0.384259288,1,0,0,2.1888,Obsidian_rect,2,0,2,0,1,
6661c509d988597a6c057ecc,TCN,2024-06-11_18h13.51.999,LearnStrategy,2023.2.3,Win32,60.24096386,1,2,4,,,,,,,,5,16,,,,,,,,,,,5,1.001,1,,,,,,-0.347222222,-0.392592621,1,0,0,1.0014,Obsidian_rect,3,0,3,0,1,
6661c509d988597a6c057ecc,TCN,2024-06-11_18h13.51.999,LearnStrategy,2023.2.3,Win32,60.24096386,1,2,5,,,,,,,,7,04,,,,,,,,,,,1,3.148,0,,,,,,-0.35,-0.265740797,1,0,0,3.148,Andesite_rect,4,0,4,0,1,
6661c509d988597a6c057ecc,TCN,2024-06-11_18h13.51.999,LearnStrategy,2023.2.3,Win32,60.24096386,1,2,6,,,,,,,,4,05,,,,,,,,,,,6,4.274,0,,,,,,-0.121296268,-0.410185242,1,0,0,4.2736,Pegmatite_rect,5,0,5,0,1,
6661c509d988597a6c057ecc,TCN,2024-06-11_18h13.51.999,LearnStrategy,2023.2.3,Win32,60.24096386,1,2,7,,,,,,,,1,05,,,,,,,,,,,7,4.056,0,,,,,,0.143518575,-0.411111111,1,0,0,4.0559,Peridotite_rect,6,0,6,0,1,
6661c509d988597a6c057ecc,TCN,2024-06-11_18h13.51.999,LearnStrategy,2023.2.3,Win32,60.24096386,1,2,8,,,,,,,,3,09,,,,,,,,,,,2,5.793,0,,,,,,-0.137962935,-0.244444444,1,0,0,5.7927,Basalt_rect,7,0,7,0,1,
6661c509d988597a6c057ecc,TCN,2024-06-11_18h13.51.999,LearnStrategy,2023.2.3,Win32,60.24096386,1,2,9,,,,,,,,4,12,,,,,,,,,,,4,6.233,1,,,,,,0.395370399,-0.237963019,1,0,0,6.2335,Gabbro_rect,8,0,8,0,1,
6661c509d988597a6c057ecc,TCN,2024-06-11_18h13.51.999,LearnStrategy,2023.2.3,Win32,60.24096386,1,2,10,,,,,,,,7,15,,,,,,,,,,,5,2.032,0,,,,,,-0.384259245,-0.382407464,1,0,0,2.0325,Obsidian_rect,9,0,9,0,1,
6661c509d988597a6c057ecc,TCN,2024-06-11_18h13.51.999,LearnStrategy,2023.2.3,Win32,60.24096386,1,2,11,,,,,,,,8,04,,,,,,,,,,,1,1.664,0,,,,,,-0.356481467,-0.233333333,1,0,0,1.6645,Andesite_rect,10,0,10,0,1,
6661c509d988597a6c057ecc,TCN,2024-06-11_18h13.51.999,LearnStrategy,2023.2.3,Win32,60.24096386,1,2,12,,,,,,,,5,05,,,,,,,,,,,5,1.224,1,,,,,,-0.369444444,-0.378703732,1,0,0,1.2243,Obsidian_rect,11,0,11,0,1,
6661c509d988597a6c057ecc,TCN,2024-06-11_18h13.51.999,LearnStrategy,2023.2.3,Win32,60.24096386,1,2,13,,,,,,,,6,07,,,,,,,,,,,3,1.607,0,,,,,,0.113888889,-0.258333333,1,0,0,1.6075,Diorite_rect,12,0,12,0,1,
6661c509d988597a6c057ecc,TCN,2024-06-11_18h13.51.999,LearnStrategy,2023.2.3,Win32,60.24096386,1,2,14,,,,,,,,6,03,,,,,,,,,,,3,1.371,0,,,,,,0.130555556,-0.243518575,1,0,0,1.3709,Diorite_rect,13,0,13,0,1,
6661c509d988597a6c057ecc,TCN,2024-06-11_18h13.51.999,LearnStrategy,2023.2.3,Win32,60.24096386,1,2,15,,,,,,,,1,06,,,,,,,,,,,2,1.097,0,,,,,,-0.119444444,-0.236111111,1,0,0,1.0971,Basalt_rect,14,0,14,0,1,
6661c509d988597a6c057ecc,TCN,2024-06-11_18h13.51.999,LearnStrategy,2023.2.3,Win32,60.24096386,1,2,16,,,,,,,,8,14,,,,,,,,,,,6,2.555,0,,,,,,-0.082407379,-0.400925954,1,0,0,2.5554,Pegmatite_rect,15,0,15,0,1,
6661c509d988597a6c057ecc,TCN,2024-06-11_18h13.51.999,LearnStrategy,2023.2.3,Win32,60.24096386,2,1,1,0.017592621,0.023148134,1,0,0,1.7539,rock_grid_rect_2,5,06,-1,-1,1.754,-0.404629601,-0.414814843,1,0,0,1.4042,Obsidian_rect,5,1.404,1,0,0,0,0,1,,,,,,,,,,,,,
6661c509d988597a6c057ecc,TCN,2024-06-11_18h13.51.999,LearnStrategy,2023.2.3,Win32,60.24096386,2,1,2,0.058333333,-0.003703732,1,0,0,1.067,rock_grid_rect_2,5,10,-1,-1,1.067,-0.35370369,-0.411111111,1,0,0,1.3514,Obsidian_rect,5,1.351,1,1,0,1,0,1,,,,,,,,,,,,,
6661c509d988597a6c057ecc,TCN,2024-06-11_18h13.51.999,LearnStrategy,2023.2.3,Win32,60.24096386,2,1,3,0.045370399,0.019444444,1,0,0,0.8339,rock_grid_rect_2,3,11,-1,-1,0.834,0.149074131,-0.251851908,1,0,0,1.1959,Diorite_rect,3,1.196,1,2,0,2,0,1,,,,,,,,,,,,,
6661c509d988597a6c057ecc,TCN,2024-06-11_18h13.51.999,LearnStrategy,2023.2.3,Win32,60.24096386,2,1,4,0.095370399,-0.001851866,1,0,0,0.8512,rock_grid_rect_2,6,06,-1,-1,0.851,0.113888889,-0.238888889,1,0,0,1.7402,Diorite_rect,3,1.74,0,3,0,3,0,1,,,,,,,,,,,,,
6661c509d988597a6c057ecc,TCN,2024-06-11_18h13.51.999,LearnStrategy,2023.2.3,Win32,60.24096386,2,1,5,0.071296353,-0.00648151,1,0,0,0.9365,rock_grid_rect_2,4,08,-1,-1,0.937,0.132407464,-0.241666667,1,0,0,1.2424,Diorite_rect,3,1.242,0,4,0,4,0,1,,,,,,,,,,,,,
6661c509d988597a6c057ecc,TCN,2024-06-11_18h13.51.999,LearnStrategy,2023.2.3,Win32,60.24096386,2,1,6,0.074074131,-0.00648151,1,0,0,0.8833,rock_grid_rect_2,1,09,-1,-1,0.883,0.101851908,-0.247222222,1,0,0,1.2114,Diorite_rect,3,1.211,0,5,0,5,0,1,,,,,,,,,,,,,
6661c509d988597a6c057ecc,TCN,2024-06-11_18h13.51.999,LearnStrategy,2023.2.3,Win32,60.24096386,2,1,7,0.05,0.00370369,1,0,0,0.8703,rock_grid_rect_2,4,15,-1,-1,0.87,-0.121296268,-0.392592621,1,0,0,1.7915,Pegmatite_rect,6,1.791,0,6,0,6,0,1,,,,,,,,,,,,,
6661c509d988597a6c057ecc,TCN,2024-06-11_18h13.51.999,LearnStrategy,2023.2.3,Win32,60.24096386,2,1,8,0.113888889,0.023148134,1,0,0,0.8008,rock_grid_rect_2,3,10,-1,-1,0.801,0.134259288,-0.242592621,1,0,0,1.6044,Diorite_rect,3,1.604,1,7,0,7,0,1,,,,,,,,,,,,,
6661c509d988597a6c057ecc,TCN,2024-06-11_18h13.51.999,LearnStrategy,2023.2.3,Win32,60.24096386,2,1,9,0.119444444,-0.010185199,1,0,0,0.9701,rock_grid_rect_2,2,06,-1,-1,0.97,0.149074131,-0.394444444,1,0,0,2.5267,Peridotite_rect,7,2.527,0,8,0,8,0,1,,,,,,,,,,,,,
6661c509d988597a6c057ecc,TCN,2024-06-11_18h13.51.999,LearnStrategy,2023.2.3,Win32,60.24096386,2,1,10,0.043518575,0.008333333,1,0,0,0.8792,rock_grid_rect_2,8,13,-1,-1,0.879,-0.442592578,-0.262037065,1,0,0,7.4776,Andesite_rect,1,7.478,0,9,0,9,0,1,,,,,,,,,,,,,
6661c509d988597a6c057ecc,TCN,2024-06-11_18h13.51.999,LearnStrategy,2023.2.3,Win32,60.24096386,2,1,11,0.039814843,0.022222222,1,0,0,0.8044,rock_grid_rect_2,1,11,-1,-1,0.804,0.136111111,-0.261111111,1,0,0,1.7392,Diorite_rect,3,1.739,0,10,0,10,0,1,,,,,,,,,,,,,
6661c509d988597a6c057ecc,TCN,2024-06-11_18h13.51.999,LearnStrategy,2023.2.3,Win32,60.24096386,2,1,12,0.076851908,-0.007407422,1,0,0,0.9177,rock_grid_rect_2,7,14,-1,-1,0.918,-0.091666667,-0.248148176,1,0,0,5.7521,Basalt_rect,2,5.752,0,11,0,11,0,1,,,,,,,,,,,,,
6661c509d988597a6c057ecc,TCN,2024-06-11_18h13.51.999,LearnStrategy,2023.2.3,Win32,60.24096386,2,1,13,0.069444444,0.015740712,1,0,0,1.0039,rock_grid_rect_2,2,09,-1,-1,1.004,0.138888889,-0.261111111,1,0,0,1.5167,Diorite_rect,3,1.517,0,12,0,12,0,1,,,,,,,,,,,,,
6661c509d988597a6c057ecc,TCN,2024-06-11_18h13.51.999,LearnStrategy,2023.2.3,Win32,60.24096386,2,1,14,0.090740797,0.014814801,1,0,0,0.838,rock_grid_rect_2,6,09,-1,-1,0.838,-0.359259245,-0.410185242,1,0,0,2.0481,Obsidian_rect,5,2.048,0,13,0,13,0,1,,,,,,,,,,,,,
6661c509d988597a6c057ecc,TCN,2024-06-11_18h13.51.999,LearnStrategy,2023.2.3,Win32,60.24096386,2,1,15,0.068518575,-0.001851866,1,0,0,0.9044,rock_grid_rect_2,7,07,-1,-1,0.904,0.141666667,-0.25,1,0,0,2.0062,Diorite_rect,3,2.006,0,14,0,14,0,1,,,,,,,,,,,,,
6661c509d988597a6c057ecc,TCN,2024-06-11_18h13.51.999,LearnStrategy,2023.2.3,Win32,60.24096386,2,1,16,0.100925954,0.019444444,1,0,0,0.8671,rock_grid_rect_2,8,10,-1,-1,0.867,-0.083333333,-0.25648151,1,0,0,3.7118,Basalt_rect,2,3.712,0,15,0,15,0,1,,,,,,,,,,,,,
6661c509d988597a6c057ecc,TCN,2024-06-11_18h13.51.999,LearnStrategy,2023.2.3,Win32,60.24096386,2,2,1,,,,,,,,3,02,,,,,,,,,,,3,4.344,1,,,,,,0.153703732,-0.235185242,1,0,0,4.3443,Diorite_rect,0,0,0,0,1,
6661c509d988597a6c057ecc,TCN,2024-06-11_18h13.51.999,LearnStrategy,2023.2.3,Win32,60.24096386,2,2,2,,,,,,,,7,12,,,,,,,,,,,2,2.389,0,,,,,,-0.110185157,-0.254629686,1,0,0,2.3885,Basalt_rect,1,0,1,0,1,
6661c509d988597a6c057ecc,TCN,2024-06-11_18h13.51.999,LearnStrategy,2023.2.3,Win32,60.24096386,2,2,3,,,,,,,,2,10,,,,,,,,,,,7,1.549,0,,,,,,0.170370399,-0.418518575,1,0,0,1.5491,Peridotite_rect,2,0,2,0,1,
6661c509d988597a6c057ecc,TCN,2024-06-11_18h13.51.999,LearnStrategy,2023.2.3,Win32,60.24096386,2,2,4,,,,,,,,1,16,,,,,,,,,,,7,1.173,0,,,,,,0.150925954,-0.395370399,1,0,0,1.1732,Peridotite_rect,3,0,3,0,1,
6661c509d988597a6c057ecc,TCN,2024-06-11_18h13.51.999,LearnStrategy,2023.2.3,Win32,60.24096386,2,2,5,,,,,,,,6,10,,,,,,,,,,,6,2.823,1,,,,,,-0.083333333,-0.420370399,1,0,0,2.8232,Pegmatite_rect,4,0,4,0,1,
6661c509d988597a6c057ecc,TCN,2024-06-11_18h13.51.999,LearnStrategy,2023.2.3,Win32,60.24096386,2,2,6,,,,,,,,4,14,,,,,,,,,,,3,2.709,0,,,,,,0.105555556,-0.260185242,1,0,0,2.7094,Diorite_rect,5,0,5,0,1,
6661c509d988597a6c057ecc,TCN,2024-06-11_18h13.51.999,LearnStrategy,2023.2.3,Win32,60.24096386,2,2,7,,,,,,,,8,08,,,,,,,,,,,1,1.739,0,,,,,,-0.34351849,-0.245370399,1,0,0,1.7394,Andesite_rect,6,0,6,0,1,
6661c509d988597a6c057ecc,TCN,2024-06-11_18h13.51.999,LearnStrategy,2023.2.3,Win32,60.24096386,2,2,8,,,,,,,,2,05,,,,,,,,,,,2,4.114,1,,,,,,-0.112036981,-0.246296353,1,0,0,4.1136,Basalt_rect,7,0,7,0,1,
6661c509d988597a6c057ecc,TCN,2024-06-11_18h13.51.999,LearnStrategy,2023.2.3,Win32,60.24096386,2,2,9,,,,,,,,3,12,,,,,,,,,,,4,27.233,0,,,,,,0.392592621,-0.248148176,1,0,0,27.2326,Gabbro_rect,8,0,8,0,1,
6661c509d988597a6c057ecc,TCN,2024-06-11_18h13.51.999,LearnStrategy,2023.2.3,Win32,60.24096386,2,2,10,,,,,,,,8,03,,,,,,,,,,,4,1.006,0,,,,,,0.385185242,-0.258333333,1,0,0,1.0065,Gabbro_rect,9,0,9,0,1,
6661c509d988597a6c057ecc,TCN,2024-06-11_18h13.51.999,LearnStrategy,2023.2.3,Win32,60.24096386,2,2,11,,,,,,,,6,16,,,,,,,,,,,6,4.414,1,,,,,,-0.099074046,-0.4,1,0,0,4.4141,Pegmatite_rect,10,0,10,0,1,
6661c509d988597a6c057ecc,TCN,2024-06-11_18h13.51.999,LearnStrategy,2023.2.3,Win32,60.24096386,2,2,12,,,,,,,,5,04,,,,,,,,,,,5,0.958,1,,,,,,-0.350925912,-0.388888889,1,0,0,0.9583,Obsidian_rect,11,0,11,0,1,
6661c509d988597a6c057ecc,TCN,2024-06-11_18h13.51.999,LearnStrategy,2023.2.3,Win32,60.24096386,2,2,13,,,,,,,,5,11,,,,,,,,,,,5,0.782,1,,,,,,-0.412962935,-0.386111111,1,0,0,0.7823,Obsidian_rect,12,0,12,0,1,
6661c509d988597a6c057ecc,TCN,2024-06-11_18h13.51.999,LearnStrategy,2023.2.3,Win32,60.24096386,2,2,14,,,,,,,,4,16,,,,,,,,,,,3,1.346,0,,,,,,0.08148151,-0.230555556,1,0,0,1.346,Diorite_rect,13,0,13,0,1,
6661c509d988597a6c057ecc,TCN,2024-06-11_18h13.51.999,LearnStrategy,2023.2.3,Win32,60.24096386,2,2,15,,,,,,,,1,04,,,,,,,,,,,2,0.86,0,,,,,,-0.14351849,-0.255555556,1,0,0,0.8597,Basalt_rect,14,0,14,0,1,
6661c509d988597a6c057ecc,TCN,2024-06-11_18h13.51.999,LearnStrategy,2023.2.3,Win32,60.24096386,2,2,16,,,,,,,,7,08,,,,,,,,,,,6,1.696,0,,,,,,-0.137036981,-0.407407464,1,0,0,1.6963,Pegmatite_rect,15,0,15,0,1,
6661c509d988597a6c057ecc,TCN,2024-06-11_18h13.51.999,LearnStrategy,2023.2.3,Win32,60.24096386,3,1,1,0.132407464,0.010185157,1,0,0,2.7089,rock_grid_rect_2,5,14,-1,-1,2.709,-0.344444444,-0.385185242,1,0,0,1.1579,Obsidian_rect,5,1.158,1,0,0,0,0,1,,,,,,,,,,,,,
6661c509d988597a6c057ecc,TCN,2024-06-11_18h13.51.999,LearnStrategy,2023.2.3,Win32,60.24096386,3,1,2,0.137037065,0.012962935,1,0,0,1.063,rock_grid_rect_2,2,12,-1,-1,1.063,0.142592621,-0.388888889,1,0,0,1.8249,Peridotite_rect,7,1.825,0,1,0,1,0,1,,,,,,,,,,,,,
6661c509d988597a6c057ecc,TCN,2024-06-11_18h13.51.999,LearnStrategy,2023.2.3,Win32,60.24096386,3,1,3,0.196296353,0.008333333,1,0,0,1.017,rock_grid_rect_2,3,08,-1,-1,1.017,0.104629686,-0.229629686,1,0,0,1.2081,Diorite_rect,3,1.208,1,2,0,2,0,1,,,,,,,,,,,,,
6661c509d988597a6c057ecc,TCN,2024-06-11_18h13.51.999,LearnStrategy,2023.2.3,Win32,60.24096386,3,1,4,0.141666667,-0.008333333,1,0,0,1.0372,rock_grid_rect_2,7,05,-1,-1,1.037,-0.083333333,-0.387963019,1,0,0,1.2385,Pegmatite_rect,6,1.238,0,3,0,3,0,1,,,,,,,,,,,,,
6661c509d988597a6c057ecc,TCN,2024-06-11_18h13.51.999,LearnStrategy,2023.2.3,Win32,60.24096386,3,1,5,0.142592621,0.008333333,1,0,0,0.8342,rock_grid_rect_2,2,14,-1,-1,0.834,0.13148151,-0.236111111,1,0,0,1.7539,Diorite_rect,3,1.754,0,4,0,4,0,1,,,,,,,,,,,,,
6661c509d988597a6c057ecc,TCN,2024-06-11_18h13.51.999,LearnStrategy,2023.2.3,Win32,60.24096386,3,1,6,0.133333333,0.007407379,1,0,0,0.8262,rock_grid_rect_2,1,01,-1,-1,0.826,0.102777778,-0.235185242,1,0,0,2.0729,Diorite_rect,3,2.073,0,5,0,5,0,1,,,,,,,,,,,,,
6661c509d988597a6c057ecc,TCN,2024-06-11_18h13.51.999,LearnStrategy,2023.2.3,Win32,60.24096386,3,1,7,0.180555556,-0.00648151,1,0,0,0.8016,rock_grid_rect_2,3,06,-1,-1,0.802,0.161111111,-0.246296353,1,0,0,0.9645,Diorite_rect,3,0.965,1,6,0,6,0,1,,,,,,,,,,,,,
6661c509d988597a6c057ecc,TCN,2024-06-11_18h13.51.999,LearnStrategy,2023.2.3,Win32,60.24096386,3,1,8,0.177777778,0.005555556,1,0,0,0.7876,rock_grid_rect_2,5,08,-1,-1,0.788,-0.345370356,-0.395370399,1,0,0,2.3227,Obsidian_rect,5,2.323,1,7,0,7,0,1,,,,,,,,,,,,,
6661c509d988597a6c057ecc,TCN,2024-06-11_18h13.51.999,LearnStrategy,2023.2.3,Win32,60.24096386,3,1,9,0.149074131,-0.004629644,1,0,0,0.7338,rock_grid_rect_2,4,11,-1,-1,0.734,0.175925954,-0.233333333,1,0,0,1.0504,Diorite_rect,3,1.05,0,8,0,8,0,1,,,,,,,,,,,,,
6661c509d988597a6c057ecc,TCN,2024-06-11_18h13.51.999,LearnStrategy,2023.2.3,Win32,60.24096386,3,1,10,0.132407464,0,1,0,0,0.718,rock_grid_rect_2,4,10,-1,-1,0.718,0.107407464,-0.402777778,1,0,0,1.7898,Peridotite_rect,7,1.79,0,9,0,9,0,1,,,,,,,,,,,,,
6661c509d988597a6c057ecc,TCN,2024-06-11_18h13.51.999,LearnStrategy,2023.2.3,Win32,60.24096386,3,1,11,0.13148151,-0.007407422,1,0,0,0.6672,rock_grid_rect_2,8,15,-1,-1,0.667,0.136111111,-0.261111111,1,0,0,1.1246,Diorite_rect,3,1.125,0,10,0,10,0,1,,,,,,,,,,,,,
6661c509d988597a6c057ecc,TCN,2024-06-11_18h13.51.999,LearnStrategy,2023.2.3,Win32,60.24096386,3,1,12,0.153703732,-0.007407422,1,0,0,0.667,rock_grid_rect_2,6,15,-1,-1,0.667,-0.355555556,-0.385185242,1,0,0,1.1231,Obsidian_rect,5,1.123,0,11,0,11,0,1,,,,,,,,,,,,,
6661c509d988597a6c057ecc,TCN,2024-06-11_18h13.51.999,LearnStrategy,2023.2.3,Win32,60.24096386,3,1,13,0.151851908,-0.001851866,1,0,0,0.7668,rock_grid_rect_2,7,10,-1,-1,0.767,0.15648151,-0.249074131,1,0,0,3.1401,Diorite_rect,3,3.14,0,12,0,12,0,1,,,,,,,,,,,,,
6661c509d988597a6c057ecc,TCN,2024-06-11_18h13.51.999,LearnStrategy,2023.2.3,Win32,60.24096386,3,1,14,0.155555556,-0.012037065,1,0,0,0.7697,rock_grid_rect_2,1,07,-1,-1,0.77,0.160185242,-0.246296353,1,0,0,2.3755,Diorite_rect,3,2.375,0,13,0,13,0,1,,,,,,,,,,,,,
6661c509d988597a6c057ecc,TCN,2024-06-11_18h13.51.999,LearnStrategy,2023.2.3,Win32,60.24096386,3,1,15,0.193518575,-0.018518533,1,0,0,0.5849,rock_grid_rect_2,8,16,-1,-1,0.585,0.40648151,-0.395370399,1,0,0,2.4132,Pumice_rect,8,2.413,1,14,0,14,0,1,,,,,,,,,,,,,
6661c509d988597a6c057ecc,TCN,2024-06-11_18h13.51.999,LearnStrategy,2023.2.3,Win32,60.24096386,3,1,16,0.18148151,0.013888889,1,0,0,0.7674,rock_grid_rect_2,6,05,-1,-1,0.767,0.110185242,-0.400925954,1,0,0,2.9916,Peridotite_rect,7,2.992,0,15,0,15,0,1,,,,,,,,,,,,,
6661c509d988597a6c057ecc,TCN,2024-06-11_18h13.51.999,LearnStrategy,2023.2.3,Win32,60.24096386,3,2,1,,,,,,,,7,02,,,,,,,,,,,3,2.219,0,,,,,,0.150925954,-0.25,1,0,0,2.2187,Diorite_rect,0,0,0,0,1,
6661c509d988597a6c057ecc,TCN,2024-06-11_18h13.51.999,LearnStrategy,2023.2.3,Win32,60.24096386,3,2,2,,,,,,,,8,09,,,,,,,,,,,8,1.481,1,,,,,,0.412963019,-0.415740797,1,0,0,1.4811,Pumice_rect,1,0,1,0,1,
6661c509d988597a6c057ecc,TCN,2024-06-11_18h13.51.999,LearnStrategy,2023.2.3,Win32,60.24096386,3,2,3,,,,,,,,4,01,,,,,,,,,,,6,2.581,0,,,,,,-0.102777778,-0.390740797,1,0,0,2.5815,Pegmatite_rect,2,0,2,0,1,
6661c509d988597a6c057ecc,TCN,2024-06-11_18h13.51.999,LearnStrategy,2023.2.3,Win32,60.24096386,3,2,4,,,,,,,,1,02,,,,,,,,,,,2,2.242,0,,,,,,-0.151851824,-0.244444444,1,0,0,2.2416,Basalt_rect,3,0,3,0,1,
6661c509d988597a6c057ecc,TCN,2024-06-11_18h13.51.999,LearnStrategy,2023.2.3,Win32,60.24096386,3,2,5,,,,,,,,5,07,,,,,,,,,,,5,1.016,1,,,,,,-0.329629601,-0.386111111,1,0,0,1.0157,Obsidian_rect,4,0,4,0,1,
6661c509d988597a6c057ecc,TCN,2024-06-11_18h13.51.999,LearnStrategy,2023.2.3,Win32,60.24096386,3,2,6,,,,,,,,4,09,,,,,,,,,,,6,1.491,0,,,,,,-0.104629601,-0.395370399,1,0,0,1.4906,Pegmatite_rect,5,0,5,0,1,
6661c509d988597a6c057ecc,TCN,2024-06-11_18h13.51.999,LearnStrategy,2023.2.3,Win32,60.24096386,3,2,7,,,,,,,,2,01,,,,,,,,,,,4,2.781,0,,,,,,0.352777778,-0.252777778,1,0,0,2.7807,Gabbro_rect,6,0,6,0,1,
6661c509d988597a6c057ecc,TCN,2024-06-11_18h13.51.999,LearnStrategy,2023.2.3,Win32,60.24096386,3,2,8,,,,,,,,7,06,,,,,,,,,,,6,2.059,0,,,,,,-0.11851849,-0.395370399,1,0,0,2.0592,Pegmatite_rect,7,0,7,0,1,
6661c509d988597a6c057ecc,TCN,2024-06-11_18h13.51.999,LearnStrategy,2023.2.3,Win32,60.24096386,3,2,9,,,,,,,,3,14,,,,,,,,,,,6,1.802,0,,,,,,-0.116666667,-0.388888889,1,0,0,1.8024,Pegmatite_rect,8,0,8,0,1,
6661c509d988597a6c057ecc,TCN,2024-06-11_18h13.51.999,LearnStrategy,2023.2.3,Win32,60.24096386,3,2,10,,,,,,,,5,02,,,,,,,,,,,5,0.997,1,,,,,,-0.339814801,-0.380555556,1,0,0,0.9969,Obsidian_rect,9,0,9,0,1,
6661c509d988597a6c057ecc,TCN,2024-06-11_18h13.51.999,LearnStrategy,2023.2.3,Win32,60.24096386,3,2,11,,,,,,,,6,08,,,,,,,,,,,6,2.935,1,,,,,,-0.173148092,-0.394444444,1,0,0,2.9349,Pegmatite_rect,10,0,10,0,1,
6661c509d988597a6c057ecc,TCN,2024-06-11_18h13.51.999,LearnStrategy,2023.2.3,Win32,60.24096386,3,2,12,,,,,,,,8,05,,,,,,,,,,,8,1.423,1,,,,,,0.461111111,-0.385185242,1,0,0,1.4227,Pumice_rect,11,0,11,0,1,
6661c509d988597a6c057ecc,TCN,2024-06-11_18h13.51.999,LearnStrategy,2023.2.3,Win32,60.24096386,3,2,13,,,,,,,,3,07,,,,,,,,,,,6,1.371,0,,,,,,-0.119444444,-0.391666667,1,0,0,1.3706,Pegmatite_rect,12,0,12,0,1,
6661c509d988597a6c057ecc,TCN,2024-06-11_18h13.51.999,LearnStrategy,2023.2.3,Win32,60.24096386,3,2,14,,,,,,,,1,03,,,,,,,,,,,4,2.2,0,,,,,,0.361111111,-0.25648151,1,0,0,2.1997,Gabbro_rect,13,0,13,0,1,
6661c509d988597a6c057ecc,TCN,2024-06-11_18h13.51.999,LearnStrategy,2023.2.3,Win32,60.24096386,3,2,15,,,,,,,,2,04,,,,,,,,,,,3,1.501,0,,,,,,0.090740797,-0.246296353,1,0,0,1.5006,Diorite_rect,14,0,14,0,1,
6661c509d988597a6c057ecc,TCN,2024-06-11_18h13.51.999,LearnStrategy,2023.2.3,Win32,60.24096386,3,2,16,,,,,,,,6,11,,,,,,,,,,,6,1.517,1,,,,,,-0.133333333,-0.382407464,1,0,0,1.5173,Pegmatite_rect,15,0,15,0,1,
6661c509d988597a6c057ecc,TCN,2024-06-11_18h13.51.999,LearnStrategy,2023.2.3,Win32,60.24096386,4,1,1,0.03148151,0.017592578,1,0,0,1.2807,rock_grid_rect_2,1,01,-1,-1,1.281,0.425925954,-0.268518575,1,0,0,1.8401,Gabbro_rect,4,1.84,0,0,0,0,0,1,,,,,,,,,,,,,
6661c509d988597a6c057ecc,TCN,2024-06-11_18h13.51.999,LearnStrategy,2023.2.3,Win32,60.24096386,4,1,2,0.169444444,-0.023148176,1,0,0,0.877,rock_grid_rect_2,8,06,-1,-1,0.877,0.367592621,-0.394444444,1,0,0,1.131,Pumice_rect,8,1.131,1,1,0,1,0,1,,,,,,,,,,,,,
6661c509d988597a6c057ecc,TCN,2024-06-11_18h13.51.999,LearnStrategy,2023.2.3,Win32,60.24096386,4,1,3,0.13148151,0.014814801,1,0,0,0.8041,rock_grid_rect_2,1,10,-1,-1,0.804,0.370370399,-0.387963019,1,0,0,1.1548,Pumice_rect,8,1.155,0,2,0,2,0,1,,,,,,,,,,,,,
6661c509d988597a6c057ecc,TCN,2024-06-11_18h13.51.999,LearnStrategy,2023.2.3,Win32,60.24096386,4,1,4,0.146296353,-0.001851866,1,0,0,1.848,rock_grid_rect_2,6,06,-1,-1,1.848,-0.091666667,-0.378703732,1,0,0,1.1919,Pegmatite_rect,6,1.192,1,3,0,3,0,1,,,,,,,,,,,,,
6661c509d988597a6c057ecc,TCN,2024-06-11_18h13.51.999,LearnStrategy,2023.2.3,Win32,60.24096386,4,1,5,0.127777778,-0.002777778,1,0,0,0.7699,rock_grid_rect_2,2,11,-1,-1,0.77,0.339814843,-0.390740797,1,0,0,2.0017,Pumice_rect,8,2.002,0,4,0,4,0,1,,,,,,,,,,,,,
6661c509d988597a6c057ecc,TCN,2024-06-11_18h13.51.999,LearnStrategy,2023.2.3,Win32,60.24096386,4,1,6,0.126851908,-0.007407422,1,0,0,0.6503,rock_grid_rect_2,4,10,-1,-1,0.65,0.115740797,-0.251851908,1,0,0,1.2412,Diorite_rect,3,1.241,0,5,0,5,0,1,,,,,,,,,,,,,
6661c509d988597a6c057ecc,TCN,2024-06-11_18h13.51.999,LearnStrategy,2023.2.3,Win32,60.24096386,4,1,7,0.134259288,0.017592578,1,0,0,0.6172,rock_grid_rect_2,3,10,-1,-1,0.617,-0.137962935,-0.4,1,0,0,1.4801,Pegmatite_rect,6,1.48,0,6,0,6,0,1,,,,,,,,,,,,,
6661c509d988597a6c057ecc,TCN,2024-06-11_18h13.51.999,LearnStrategy,2023.2.3,Win32,60.24096386,4,1,8,0.144444444,-0.003703732,1,0,0,0.7487,rock_grid_rect_2,5,14,-1,-1,0.749,-0.357407379,-0.397222222,1,0,0,1.3736,Obsidian_rect,5,1.374,1,7,0,7,0,1,,,,,,,,,,,,,
6661c509d988597a6c057ecc,TCN,2024-06-11_18h13.51.999,LearnStrategy,2023.2.3,Win32,60.24096386,4,1,9,0.110185242,0.006481467,1,0,0,0.7052,rock_grid_rect_2,7,10,-1,-1,0.705,0.133333333,-0.236111111,1,0,0,2.4649,Diorite_rect,3,2.465,0,8,0,8,0,1,,,,,,,,,,,,,
6661c509d988597a6c057ecc,TCN,2024-06-11_18h13.51.999,LearnStrategy,2023.2.3,Win32,60.24096386,4,1,10,0.110185242,-0.008333333,1,0,0,0.6695,rock_grid_rect_2,6,15,-1,-1,0.669,-0.133333333,-0.392592621,1,0,0,1.316,Pegmatite_rect,6,1.316,1,9,0,9,0,1,,,,,,,,,,,,,
6661c509d988597a6c057ecc,TCN,2024-06-11_18h13.51.999,LearnStrategy,2023.2.3,Win32,60.24096386,4,1,11,0.128703732,0.010185157,1,0,0,0.6674,rock_grid_rect_2,4,15,-1,-1,0.667,0.395370399,-0.418518575,1,0,0,1.3049,Pumice_rect,8,1.305,0,10,0,10,0,1,,,,,,,,,,,,,
6661c509d988597a6c057ecc,TCN,2024-06-11_18h13.51.999,LearnStrategy,2023.2.3,Win32,60.24096386,4,1,12,0.127777778,-0.002777778,1,0,0,0.7263,rock_grid_rect_2,2,02,-1,-1,0.726,0.171296353,-0.238888889,1,0,0,1.3311,Diorite_rect,3,1.331,0,11,0,11,0,1,,,,,,,,,,,,,
6661c509d988597a6c057ecc,TCN,2024-06-11_18h13.51.999,LearnStrategy,2023.2.3,Win32,60.24096386,4,1,13,0.143518575,-0.000925954,1,0,0,0.884,rock_grid_rect_2,7,05,-1,-1,0.884,-0.375925912,-0.239814843,1,0,0,4.2191,Andesite_rect,1,4.219,0,12,0,12,0,1,,,,,,,,,,,,,
6661c509d988597a6c057ecc,TCN,2024-06-11_18h13.51.999,LearnStrategy,2023.2.3,Win32,60.24096386,4,1,14,0.114814843,-0.008333333,1,0,0,0.8211,rock_grid_rect_2,3,16,-1,-1,0.821,0.162963019,-0.250925954,1,0,0,2.1553,Diorite_rect,3,2.155,1,13,0,13,0,1,,,,,,,,,,,,,
6661c509d988597a6c057ecc,TCN,2024-06-11_18h13.51.999,LearnStrategy,2023.2.3,Win32,60.24096386,4,1,15,0.137037065,-0.00648151,1,0,0,0.851,rock_grid_rect_2,8,02,-1,-1,0.851,0.375,-0.395370399,1,0,0,1.8554,Pumice_rect,8,1.855,1,14,0,14,0,1,,,,,,,,,,,,,
6661c509d988597a6c057ecc,TCN,2024-06-11_18h13.51.999,LearnStrategy,2023.2.3,Win32,60.24096386,4,1,16,0.128703732,0.004629601,1,0,0,0.9877,rock_grid_rect_2,5,12,-1,-1,0.988,-0.375925912,-0.399074131,1,0,0,1.1687,Obsidian_rect,5,1.169,1,15,0,15,0,1,,,,,,,,,,,,,
6661c509d988597a6c057ecc,TCN,2024-06-11_18h13.51.999,LearnStrategy,2023.2.3,Win32,60.24096386,4,2,1,,,,,,,,2,04,,,,,,,,,,,3,3.872,0,,,,,,0.124074131,-0.249074131,1,0,0,3.872,Diorite_rect,0,0,0,0,1,
6661c509d988597a6c057ecc,TCN,2024-06-11_18h13.51.999,LearnStrategy,2023.2.3,Win32,60.24096386,4,2,2,,,,,,,,2,08,,,,,,,,,,,3,1.281,0,,,,,,0.154629686,-0.270370399,1,0,0,1.2807,Diorite_rect,1,0,1,0,1,
6661c509d988597a6c057ecc,TCN,2024-06-11_18h13.51.999,LearnStrategy,2023.2.3,Win32,60.24096386,4,2,3,,,,,,,,5,16,,,,,,,,,,,5,1.147,1,,,,,,-0.347222222,-0.390740797,1,0,0,1.1469,Obsidian_rect,2,0,2,0,1,
6661c509d988597a6c057ecc,TCN,2024-06-11_18h13.51.999,LearnStrategy,2023.2.3,Win32,60.24096386,4,2,4,,,,,,,,3,14,,,,,,,,,,,6,1.422,0,,,,,,-0.146296268,-0.396296353,1,0,0,1.4216,Pegmatite_rect,3,0,3,0,1,
6661c509d988597a6c057ecc,TCN,2024-06-11_18h13.51.999,LearnStrategy,2023.2.3,Win32,60.24096386,4,2,5,,,,,,,,3,13,,,,,,,,,,,6,0.976,0,,,,,,-0.146296268,-0.385185242,1,0,0,0.976,Pegmatite_rect,4,0,4,0,1,
6661c509d988597a6c057ecc,TCN,2024-06-11_18h13.51.999,LearnStrategy,2023.2.3,Win32,60.24096386,4,2,6,,,,,,,,7,06,,,,,,,,,,,6,0.914,0,,,,,,-0.150925869,-0.380555556,1,0,0,0.9142,Pegmatite_rect,5,0,5,0,1,
6661c509d988597a6c057ecc,TCN,2024-06-11_18h13.51.999,LearnStrategy,2023.2.3,Win32,60.24096386,4,2,7,,,,,,,,1,04,,,,,,,,,,,4,1.787,0,,,,,,0.342592621,-0.246296353,1,0,0,1.7868,Gabbro_rect,6,0,6,0,1,
6661c509d988597a6c057ecc,TCN,2024-06-11_18h13.51.999,LearnStrategy,2023.2.3,Win32,60.24096386,4,2,8,,,,,,,,4,05,,,,,,,,,,,6,1.424,0,,,,,,-0.127777778,-0.38148151,1,0,0,1.4244,Pegmatite_rect,7,0,7,0,1,
6661c509d988597a6c057ecc,TCN,2024-06-11_18h13.51.999,LearnStrategy,2023.2.3,Win32,60.24096386,4,2,9,,,,,,,,6,10,,,,,,,,,,,6,1.12,1,,,,,,-0.125925869,-0.386111111,1,0,0,1.1201,Pegmatite_rect,8,0,8,0,1,
6661c509d988597a6c057ecc,TCN,2024-06-11_18h13.51.999,LearnStrategy,2023.2.3,Win32,60.24096386,4,2,10,,,,,,,,1,03,,,,,,,,,,,7,1.521,0,,,,,,0.114814843,-0.384259288,1,0,0,1.5212,Peridotite_rect,9,0,9,0,1,
6661c509d988597a6c057ecc,TCN,2024-06-11_18h13.51.999,LearnStrategy,2023.2.3,Win32,60.24096386,4,2,11,,,,,,,,6,08,,,,,,,,,,,6,2.03,1,,,,,,-0.162036981,-0.387037065,1,0,0,2.0298,Pegmatite_rect,10,0,10,0,1,
6661c509d988597a6c057ecc,TCN,2024-06-11_18h13.51.999,LearnStrategy,2023.2.3,Win32,60.24096386,4,2,12,,,,,,,,8,05,,,,,,,,,,,8,1.863,1,,,,,,0.361111111,-0.384259288,1,0,0,1.8629,Pumice_rect,11,0,11,0,1,
6661c509d988597a6c057ecc,TCN,2024-06-11_18h13.51.999,LearnStrategy,2023.2.3,Win32,60.24096386,4,2,13,,,,,,,,8,14,,,,,,,,,,,8,0.891,1,,,,,,0.33148151,-0.383333333,1,0,0,0.8908,Pumice_rect,12,0,12,0,1,
6661c509d988597a6c057ecc,TCN,2024-06-11_18h13.51.999,LearnStrategy,2023.2.3,Win32,60.24096386,4,2,14,,,,,,,,5,05,,,,,,,,,,,5,1.106,1,,,,,,-0.371296268,-0.403703732,1,0,0,1.1063,Obsidian_rect,13,0,13,0,1,
6661c509d988597a6c057ecc,TCN,2024-06-11_18h13.51.999,LearnStrategy,2023.2.3,Win32,60.24096386,4,2,15,,,,,,,,7,12,,,,,,,,,,,6,1.028,0,,,,,,-0.125,-0.402777778,1,0,0,1.0281,Pegmatite_rect,14,0,14,0,1,
6661c509d988597a6c057ecc,TCN,2024-06-11_18h13.51.999,LearnStrategy,2023.2.3,Win32,60.24096386,4,2,16,,,,,,,,4,16,,,,,,,,,,,1,2.797,0,,,,,,-0.32870369,-0.25,1,0,0,2.7969,Andesite_rect,15,0,15,0,1,
6661c509d988597a6c057ecc,TCN,2024-06-11_18h13.51.999,LearnStrategy,2023.2.3,Win32,60.24096386,5,1,1,-0.041666667,0.014814801,1,0,0,3.6865,rock_grid_rect_2,7,16,-1,-1,3.687,-0.153703647,-0.416666667,1,0,0,24.4816,Pegmatite_rect,6,24.482,0,0,0,0,0,1,,,,,,,,,,,,,
6661c509d988597a6c057ecc,TCN,2024-06-11_18h13.51.999,LearnStrategy,2023.2.3,Win32,60.24096386,5,1,2,0.128703732,0.023148134,1,0,0,1.1536,rock_grid_rect_2,4,08,-1,-1,1.154,-0.125,-0.247222222,1,0,0,5.9191,Basalt_rect,2,5.919,0,1,0,1,0,1,,,,,,,,,,,,,
6661c509d988597a6c057ecc,TCN,2024-06-11_18h13.51.999,LearnStrategy,2023.2.3,Win32,60.24096386,5,1,3,0.118518575,0.015740712,1,0,0,0.716,rock_grid_rect_2,1,09,-1,-1,0.716,0.399074131,-0.229629686,1,0,0,10.4052,Gabbro_rect,4,10.405,0,2,0,2,0,1,,,,,,,,,,,,,
6661c509d988597a6c057ecc,TCN,2024-06-11_18h13.51.999,LearnStrategy,2023.2.3,Win32,60.24096386,5,1,4,0.058333333,0.017592578,1,0,0,0.795,rock_grid_rect_2,6,12,-1,-1,0.795,-0.103703647,-0.398148176,1,0,0,1.3016,Pegmatite_rect,6,1.302,1,3,0,3,0,1,,,,,,,,,,,,,
6661c509d988597a6c057ecc,TCN,2024-06-11_18h13.51.999,LearnStrategy,2023.2.3,Win32,60.24096386,5,1,5,0.112963019,-0.010185199,1,0,0,0.801,rock_grid_rect_2,7,07,-1,-1,0.801,0.402777778,-0.399074131,1,0,0,1.3574,Pumice_rect,8,1.357,0,4,0,4,0,1,,,,,,,,,,,,,
6661c509d988597a6c057ecc,TCN,2024-06-11_18h13.51.999,LearnStrategy,2023.2.3,Win32,60.24096386,5,1,6,0.062963019,-0.005555556,1,0,0,1.1178,rock_grid_rect_2,8,16,-1,-1,1.118,0.367592621,-0.413888889,1,0,0,1.0814,Pumice_rect,8,1.081,1,5,0,5,0,1,,,,,,,,,,,,,
6661c509d988597a6c057ecc,TCN,2024-06-11_18h13.51.999,LearnStrategy,2023.2.3,Win32,60.24096386,5,1,7,0.086111111,0.005555556,1,0,0,1.5372,rock_grid_rect_2,5,10,-1,-1,1.537,-0.361111111,-0.394444444,1,0,0,1.3822,Obsidian_rect,5,1.382,1,6,0,6,0,1,,,,,,,,,,,,,
6661c509d988597a6c057ecc,TCN,2024-06-11_18h13.51.999,LearnStrategy,2023.2.3,Win32,60.24096386,5,1,8,0.114814843,0.015740712,1,0,0,0.9304,rock_grid_rect_2,4,11,-1,-1,0.93,0.159259288,-0.246296353,1,0,0,2.8828,Diorite_rect,3,2.883,0,7,0,7,0,1,,,,,,,,,,,,,
6661c509d988597a6c057ecc,TCN,2024-06-11_18h13.51.999,LearnStrategy,2023.2.3,Win32,60.24096386,5,1,9,0.144444444,0.020370356,1,0,0,0.7176,rock_grid_rect_2,5,08,-1,-1,0.718,-0.396296268,-0.395370399,1,0,0,0.9927,Obsidian_rect,5,0.993,1,8,0,8,0,1,,,,,,,,,,,,,
6661c509d988597a6c057ecc,TCN,2024-06-11_18h13.51.999,LearnStrategy,2023.2.3,Win32,60.24096386,5,1,10,0.082407464,0.000925912,1,0,0,0.8505,rock_grid_rect_2,2,06,-1,-1,0.851,0.154629686,-0.263888889,1,0,0,2.0584,Diorite_rect,3,2.058,0,9,0,9,0,1,,,,,,,,,,,,,
6661c509d988597a6c057ecc,TCN,2024-06-11_18h13.51.999,LearnStrategy,2023.2.3,Win32,60.24096386,5,1,11,0.129629686,0.009259245,1,0,0,0.8172,rock_grid_rect_2,2,12,-1,-1,0.817,0.377777778,-0.420370399,1,0,0,1.2294,Pumice_rect,8,1.229,0,10,0,10,0,1,,,,,,,,,,,,,
6661c509d988597a6c057ecc,TCN,2024-06-11_18h13.51.999,LearnStrategy,2023.2.3,Win32,60.24096386,5,1,12,0.142592621,0.014814801,1,0,0,0.7346,rock_grid_rect_2,1,11,-1,-1,0.735,-0.092592536,-0.250925954,1,0,0,2.7322,Basalt_rect,2,2.732,0,11,0,11,0,1,,,,,,,,,,,,,
6661c509d988597a6c057ecc,TCN,2024-06-11_18h13.51.999,LearnStrategy,2023.2.3,Win32,60.24096386,5,1,13,0.110185242,0.014814801,1,0,0,0.787,rock_grid_rect_2,6,05,-1,-1,0.787,-0.363888889,-0.260185242,1,0,0,1.467,Andesite_rect,1,1.467,0,12,0,12,0,1,,,,,,,,,,,,,
6661c509d988597a6c057ecc,TCN,2024-06-11_18h13.51.999,LearnStrategy,2023.2.3,Win32,60.24096386,5,1,14,0.05648151,0.024074046,1,0,0,0.6681,rock_grid_rect_2,8,10,-1,-1,0.668,0.387037065,-0.40648151,1,0,0,1.5673,Pumice_rect,8,1.567,1,13,0,13,0,1,,,,,,,,,,,,,
6661c509d988597a6c057ecc,TCN,2024-06-11_18h13.51.999,LearnStrategy,2023.2.3,Win32,60.24096386,5,1,15,0.136111111,-0.001851866,1,0,0,0.8004,rock_grid_rect_2,3,11,-1,-1,0.8,0.351851908,-0.239814843,1,0,0,3.3189,Gabbro_rect,4,3.319,0,14,0,14,0,1,,,,,,,,,,,,,
6661c509d988597a6c057ecc,TCN,2024-06-11_18h13.51.999,LearnStrategy,2023.2.3,Win32,60.24096386,5,1,16,0.097222222,0,1,0,0,0.7538,rock_grid_rect_2,3,15,-1,-1,0.754,-0.083333333,-0.255555556,1,0,0,2.7575,Basalt_rect,2,2.758,0,15,0,15,0,1,,,,,,,,,,,,,
6661c509d988597a6c057ecc,TCN,2024-06-11_18h13.51.999,LearnStrategy,2023.2.3,Win32,60.24096386,5,2,1,,,,,,,,4,01,,,,,,,,,,,6,10.429,0,,,,,,-0.096296268,-0.412037065,1,0,0,10.4292,Pegmatite_rect,0,0,0,0,1,
6661c509d988597a6c057ecc,TCN,2024-06-11_18h13.51.999,LearnStrategy,2023.2.3,Win32,60.24096386,5,2,2,,,,,,,,3,02,,,,,,,,,,,2,5.471,0,,,,,,-0.101851824,-0.252777778,1,0,0,5.4711,Basalt_rect,1,0,1,0,1,
6661c509d988597a6c057ecc,TCN,2024-06-11_18h13.51.999,LearnStrategy,2023.2.3,Win32,60.24096386,5,2,3,,,,,,,,2,01,,,,,,,,,,,3,1.498,0,,,,,,0.162037065,-0.255555556,1,0,0,1.4979,Diorite_rect,2,0,2,0,1,
6661c509d988597a6c057ecc,TCN,2024-06-11_18h13.51.999,LearnStrategy,2023.2.3,Win32,60.24096386,5,2,4,,,,,,,,6,07,,,,,,,,,,,6,1.114,1,,,,,,-0.097222222,-0.4,1,0,0,1.114,Pegmatite_rect,3,0,3,0,1,
6661c509d988597a6c057ecc,TCN,2024-06-11_18h13.51.999,LearnStrategy,2023.2.3,Win32,60.24096386,5,2,5,,,,,,,,4,09,,,,,,,,,,,6,1.439,0,,,,,,-0.056481425,-0.400925954,1,0,0,1.4394,Pegmatite_rect,4,0,4,0,1,
6661c509d988597a6c057ecc,TCN,2024-06-11_18h13.51.999,LearnStrategy,2023.2.3,Win32,60.24096386,5,2,6,,,,,,,,3,07,,,,,,,,,,,1,1.861,0,,,,,,-0.342592578,-0.254629686,1,0,0,1.8605,Andesite_rect,5,0,5,0,1,
6661c509d988597a6c057ecc,TCN,2024-06-11_18h13.51.999,LearnStrategy,2023.2.3,Win32,60.24096386,5,2,7,,,,,,,,1,05,,,,,,,,,,,1,1.134,1,,,,,,-0.361111111,-0.237037065,1,0,0,1.1344,Andesite_rect,6,0,6,0,1,
6661c509d988597a6c057ecc,TCN,2024-06-11_18h13.51.999,LearnStrategy,2023.2.3,Win32,60.24096386,5,2,8,,,,,,,,7,04,,,,,,,,,,,7,2.755,1,,,,,,0.189814843,-0.412963019,1,0,0,2.7549,Peridotite_rect,7,0,7,0,1,
6661c509d988597a6c057ecc,TCN,2024-06-11_18h13.51.999,LearnStrategy,2023.2.3,Win32,60.24096386,5,2,9,,,,,,,,5,07,,,,,,,,,,,5,1.179,1,,,,,,-0.373148134,-0.391666667,1,0,0,1.1792,Obsidian_rect,8,0,8,0,1,
6661c509d988597a6c057ecc,TCN,2024-06-11_18h13.51.999,LearnStrategy,2023.2.3,Win32,60.24096386,5,2,10,,,,,,,,1,16,,,,,,,,,,,1,1.71,1,,,,,,-0.366666667,-0.254629686,1,0,0,1.7104,Andesite_rect,9,0,9,0,1,
6661c509d988597a6c057ecc,TCN,2024-06-11_18h13.51.999,LearnStrategy,2023.2.3,Win32,60.24096386,5,2,11,,,,,,,,6,16,,,,,,,,,,,3,5.903,0,,,,,,0.141666667,-0.251851908,1,0,0,5.9034,Diorite_rect,10,0,10,0,1,
6661c509d988597a6c057ecc,TCN,2024-06-11_18h13.51.999,LearnStrategy,2023.2.3,Win32,60.24096386,5,2,12,,,,,,,,8,04,,,,,,,,,,,8,1.175,1,,,,,,0.359259288,-0.393518575,1,0,0,1.1747,Pumice_rect,11,0,11,0,1,
6661c509d988597a6c057ecc,TCN,2024-06-11_18h13.51.999,LearnStrategy,2023.2.3,Win32,60.24096386,5,2,13,,,,,,,,2,10,,,,,,,,,,,4,1.721,0,,,,,,0.368518575,-0.261111111,1,0,0,1.7208,Gabbro_rect,12,0,12,0,1,
6661c509d988597a6c057ecc,TCN,2024-06-11_18h13.51.999,LearnStrategy,2023.2.3,Win32,60.24096386,5,2,14,,,,,,,,8,09,,,,,,,,,,,8,1.691,1,,,,,,0.361111111,-0.388888889,1,0,0,1.6906,Pumice_rect,13,0,13,0,1,
6661c509d988597a6c057ecc,TCN,2024-06-11_18h13.51.999,LearnStrategy,2023.2.3,Win32,60.24096386,5,2,15,,,,,,,,5,02,,,,,,,,,,,5,1.115,1,,,,,,-0.383333333,-0.382407464,1,0,0,1.1153,Obsidian_rect,14,0,14,0,1,
6661c509d988597a6c057ecc,TCN,2024-06-11_18h13.51.999,LearnStrategy,2023.2.3,Win32,60.24096386,5,2,16,,,,,,,,7,02,,,,,,,,,,,6,1.092,0,,,,,,-0.14351849,-0.410185242,1,0,0,1.0919,Pegmatite_rect,15,0,15,0,1,
6661c509d988597a6c057ecc,TCN,2024-06-11_18h13.51.999,LearnStrategy,2023.2.3,Win32,60.24096386,6,1,1,0.145370399,-0.001851866,1,0,0,0.9958,rock_grid_rect_2,1,14,-1,-1,0.996,-0.344444444,-0.232407464,1,0,0,2.164,Andesite_rect,1,2.164,1,0,0,0,0,1,,,,,,,,,,,,,
6661c509d988597a6c057ecc,TCN,2024-06-11_18h13.51.999,LearnStrategy,2023.2.3,Win32,60.24096386,6,1,2,0.101851908,0.012962935,1,0,0,0.9669,rock_grid_rect_2,7,14,-1,-1,0.967,-0.136111111,-0.395370399,1,0,0,2.3434,Pegmatite_rect,6,2.343,0,1,0,1,0,1,,,,,,,,,,,,,
6661c509d988597a6c057ecc,TCN,2024-06-11_18h13.51.999,LearnStrategy,2023.2.3,Win32,60.24096386,6,1,3,0.064814843,0.005555556,1,0,0,0.9043,rock_grid_rect_2,8,13,-1,-1,0.904,-0.357407379,-0.228703732,1,0,0,3.5839,Andesite_rect,1,3.584,0,2,0,2,0,1,,,,,,,,,,,,,
6661c509d988597a6c057ecc,TCN,2024-06-11_18h13.51.999,LearnStrategy,2023.2.3,Win32,60.24096386,6,1,4,0.084259288,0.006481467,1,0,0,0.7167,rock_grid_rect_2,1,07,-1,-1,0.717,0.180555556,-0.237963019,1,0,0,3.6402,Diorite_rect,3,3.64,0,3,0,3,0,1,,,,,,,,,,,,,
6661c509d988597a6c057ecc,TCN,2024-06-11_18h13.51.999,LearnStrategy,2023.2.3,Win32,60.24096386,6,1,5,0.114814843,0.005555556,1,0,0,0.7876,rock_grid_rect_2,3,08,-1,-1,0.788,-0.362962935,-0.259259288,1,0,0,3.3642,Andesite_rect,1,3.364,0,4,0,4,0,1,,,,,,,,,,,,,
6661c509d988597a6c057ecc,TCN,2024-06-11_18h13.51.999,LearnStrategy,2023.2.3,Win32,60.24096386,6,1,6,0.103703732,-0.00648151,1,0,0,0.7016,rock_grid_rect_2,4,03,-1,-1,0.702,0.150925954,-0.239814843,1,0,0,1.13,Diorite_rect,3,1.13,0,5,0,5,0,1,,,,,,,,,,,,,
6661c509d988597a6c057ecc,TCN,2024-06-11_18h13.51.999,LearnStrategy,2023.2.3,Win32,60.24096386,6,1,7,0.084259288,0.021296268,1,0,0,0.6504,rock_grid_rect_2,2,14,-1,-1,0.65,-0.361111111,-0.263888889,1,0,0,3.1126,Andesite_rect,1,3.113,0,6,0,6,0,1,,,,,,,,,,,,,
6661c509d988597a6c057ecc,TCN,2024-06-11_18h13.51.999,LearnStrategy,2023.2.3,Win32,60.24096386,6,1,8,0.095370399,0.004629601,1,0,0,0.7207,rock_grid_rect_2,5,09,-1,-1,0.721,-0.340740712,-0.387037065,1,0,0,1.3804,Obsidian_rect,5,1.38,1,7,0,7,0,1,,,,,,,,,,,,,
6661c509d988597a6c057ecc,TCN,2024-06-11_18h13.51.999,LearnStrategy,2023.2.3,Win32,60.24096386,6,1,9,0.130555556,0.015740712,1,0,0,0.9177,rock_grid_rect_2,5,06,-1,-1,0.918,-0.35370369,-0.386111111,1,0,0,1.1598,Obsidian_rect,5,1.16,1,8,0,8,0,1,,,,,,,,,,,,,
6661c509d988597a6c057ecc,TCN,2024-06-11_18h13.51.999,LearnStrategy,2023.2.3,Win32,60.24096386,6,1,10,0.047222222,0.008333333,1,0,0,0.767,rock_grid_rect_2,2,09,-1,-1,0.767,0.188888889,-0.233333333,1,0,0,3.5814,Diorite_rect,3,3.581,0,9,0,9,0,1,,,,,,,,,,,,,
6661c509d988597a6c057ecc,TCN,2024-06-11_18h13.51.999,LearnStrategy,2023.2.3,Win32,60.24096386,6,1,11,0.044444444,-0.005555556,1,0,0,0.7211,rock_grid_rect_2,4,13,-1,-1,0.721,0.151851908,-0.243518575,1,0,0,4.7702,Diorite_rect,3,4.77,0,10,0,10,0,1,,,,,,,,,,,,,
6661c509d988597a6c057ecc,TCN,2024-06-11_18h13.51.999,LearnStrategy,2023.2.3,Win32,60.24096386,6,1,12,0.135185242,0.012037023,1,0,0,0.7035,rock_grid_rect_2,6,13,-1,-1,0.703,0.137963019,-0.398148176,1,0,0,2.4964,Peridotite_rect,7,2.496,0,11,0,11,0,1,,,,,,,,,,,,,
6661c509d988597a6c057ecc,TCN,2024-06-11_18h13.51.999,LearnStrategy,2023.2.3,Win32,60.24096386,6,1,13,0.126851908,0.004629601,1,0,0,1.2193,rock_grid_rect_2,7,13,-1,-1,1.219,0.155555556,-0.410185242,1,0,0,4.1807,Peridotite_rect,7,4.181,1,12,0,12,0,1,,,,,,,,,,,,,
6661c509d988597a6c057ecc,TCN,2024-06-11_18h13.51.999,LearnStrategy,2023.2.3,Win32,60.24096386,6,1,14,0.105555556,-0.00648151,1,0,0,0.8377,rock_grid_rect_2,6,09,-1,-1,0.838,-0.091666667,-0.391666667,1,0,0,8.1402,Pegmatite_rect,6,8.14,1,13,0,13,0,1,,,,,,,,,,,,,
6661c509d988597a6c057ecc,TCN,2024-06-11_18h13.51.999,LearnStrategy,2023.2.3,Win32,60.24096386,6,1,15,0.074074131,0.023148134,1,0,0,0.7336,rock_grid_rect_2,3,06,-1,-1,0.734,-0.107407379,-0.410185242,1,0,0,1.4312,Pegmatite_rect,6,1.431,0,14,0,14,0,1,,,,,,,,,,,,,
6661c509d988597a6c057ecc,TCN,2024-06-11_18h13.51.999,LearnStrategy,2023.2.3,Win32,60.24096386,6,1,16,0.080555556,-0.014814843,1,0,0,1.2703,rock_grid_rect_2,8,15,-1,-1,1.27,0.394444444,-0.4,1,0,0,1.5386,Pumice_rect,8,1.539,1,15,0,15,0,1,,,,,,,,,,,,,
6661c509d988597a6c057ecc,TCN,2024-06-11_18h13.51.999,LearnStrategy,2023.2.3,Win32,60.24096386,6,2,1,,,,,,,,8,03,,,,,,,,,,,8,1.273,1,,,,,,0.378703732,-0.380555556,1,0,0,1.2728,Pumice_rect,0,0,0,0,1,
6661c509d988597a6c057ecc,TCN,2024-06-11_18h13.51.999,LearnStrategy,2023.2.3,Win32,60.24096386,6,2,2,,,,,,,,5,04,,,,,,,,,,,5,1.04,1,,,,,,-0.372222222,-0.409259288,1,0,0,1.0403,Obsidian_rect,1,0,1,0,1,
6661c509d988597a6c057ecc,TCN,2024-06-11_18h13.51.999,LearnStrategy,2023.2.3,Win32,60.24096386,6,2,3,,,,,,,,4,12,,,,,,,,,,,3,2.045,0,,,,,,0.135185242,-0.237963019,1,0,0,2.0449,Diorite_rect,2,0,2,0,1,
6661c509d988597a6c057ecc,TCN,2024-06-11_18h13.51.999,LearnStrategy,2023.2.3,Win32,60.24096386,6,2,4,,,,,,,,2,05,,,,,,,,,,,3,1.068,0,,,,,,0.134259288,-0.261111111,1,0,0,1.0678,Diorite_rect,3,0,3,0,1,
6661c509d988597a6c057ecc,TCN,2024-06-11_18h13.51.999,LearnStrategy,2023.2.3,Win32,60.24096386,6,2,5,,,,,,,,1,02,,,,,,,,,,,4,2.745,0,,,,,,0.362963019,-0.242592621,1,0,0,2.7446,Gabbro_rect,4,0,4,0,1,
6661c509d988597a6c057ecc,TCN,2024-06-11_18h13.51.999,LearnStrategy,2023.2.3,Win32,60.24096386,6,2,6,,,,,,,,6,03,,,,,,,,,,,6,1.21,1,,,,,,-0.114814758,-0.4,1,0,0,1.21,Pegmatite_rect,5,0,5,0,1,
6661c509d988597a6c057ecc,TCN,2024-06-11_18h13.51.999,LearnStrategy,2023.2.3,Win32,60.24096386,6,2,7,,,,,,,,7,08,,,,,,,,,,,6,1.935,0,,,,,,-0.126851824,-0.396296353,1,0,0,1.9354,Pegmatite_rect,6,0,6,0,1,
6661c509d988597a6c057ecc,TCN,2024-06-11_18h13.51.999,LearnStrategy,2023.2.3,Win32,60.24096386,6,2,8,,,,,,,,7,15,,,,,,,,,,,6,0.86,0,,,,,,-0.11851849,-0.413888889,1,0,0,0.8601,Pegmatite_rect,7,0,7,0,1,
6661c509d988597a6c057ecc,TCN,2024-06-11_18h13.51.999,LearnStrategy,2023.2.3,Win32,60.24096386,6,2,9,,,,,,,,4,14,,,,,,,,,,,1,1.477,0,,,,,,-0.37870369,-0.236111111,1,0,0,1.4769,Andesite_rect,8,0,8,0,1,
6661c509d988597a6c057ecc,TCN,2024-06-11_18h13.51.999,LearnStrategy,2023.2.3,Win32,60.24096386,6,2,10,,,,,,,,5,11,,,,,,,,,,,5,0.89,1,,,,,,-0.402777778,-0.386111111,1,0,0,0.8896,Obsidian_rect,9,0,9,0,1,
6661c509d988597a6c057ecc,TCN,2024-06-11_18h13.51.999,LearnStrategy,2023.2.3,Win32,60.24096386,6,2,11,,,,,,,,6,11,,,,,,,,,,,6,1.236,1,,,,,,-0.120370314,-0.397222222,1,0,0,1.2359,Pegmatite_rect,10,0,10,0,1,
6661c509d988597a6c057ecc,TCN,2024-06-11_18h13.51.999,LearnStrategy,2023.2.3,Win32,60.24096386,6,2,12,,,,,,,,3,12,,,,,,,,,,,1,1.346,0,,,,,,-0.375,-0.252777778,1,0,0,1.3457,Andesite_rect,11,0,11,0,1,
6661c509d988597a6c057ecc,TCN,2024-06-11_18h13.51.999,LearnStrategy,2023.2.3,Win32,60.24096386,6,2,13,,,,,,,,1,06,,,,,,,,,,,3,1.187,0,,,,,,0.171296353,-0.25,1,0,0,1.1872,Diorite_rect,12,0,12,0,1,
6661c509d988597a6c057ecc,TCN,2024-06-11_18h13.51.999,LearnStrategy,2023.2.3,Win32,60.24096386,6,2,14,,,,,,,,2,16,,,,,,,,,,,2,2.138,1,,,,,,-0.136111111,-0.25648151,1,0,0,2.1384,Basalt_rect,13,0,13,0,1,
6661c509d988597a6c057ecc,TCN,2024-06-11_18h13.51.999,LearnStrategy,2023.2.3,Win32,60.24096386,6,2,15,,,,,,,,3,09,,,,,,,,,,,4,2.219,0,,,,,,0.409259288,-0.265740797,1,0,0,2.2193,Gabbro_rect,14,0,14,0,1,
6661c509d988597a6c057ecc,TCN,2024-06-11_18h13.51.999,LearnStrategy,2023.2.3,Win32,60.24096386,6,2,16,,,,,,,,8,08,,,,,,,,,,,8,1.643,1,,,,,,0.420370399,-0.395370399,1,0,0,1.6431,Pumice_rect,15,0,15,0,1,
6661c509d988597a6c057ecc,TCN,2024-06-11_18h13.51.999,LearnStrategy,2023.2.3,Win32,60.24096386,7,1,1,0.138888889,-0.003703732,1,0,0,1.3841,rock_grid_rect_2,1,07,-1,-1,1.384,0.140740797,-0.238888889,1,0,0,7.587,Diorite_rect,3,7.587,0,0,0,0,0,1,,,,,,,,,,,,,
6661c509d988597a6c057ecc,TCN,2024-06-11_18h13.51.999,LearnStrategy,2023.2.3,Win32,60.24096386,7,1,2,0.073148176,0.006481467,1,0,0,0.7752,rock_grid_rect_2,6,15,-1,-1,0.775,-0.114814758,-0.390740797,1,0,0,1.8291,Pegmatite_rect,6,1.829,1,1,0,1,0,1,,,,,,,,,,,,,
6661c509d988597a6c057ecc,TCN,2024-06-11_18h13.51.999,LearnStrategy,2023.2.3,Win32,60.24096386,7,1,3,0.051851908,0.010185157,1,0,0,0.6502,rock_grid_rect_2,2,12,-1,-1,0.65,0.437037065,-0.380555556,1,0,0,1.0393,Pumice_rect,8,1.039,0,2,0,2,0,1,,,,,,,,,,,,,
6661c509d988597a6c057ecc,TCN,2024-06-11_18h13.51.999,LearnStrategy,2023.2.3,Win32,60.24096386,7,1,4,0.114814843,-0.00648151,1,0,0,1.1023,rock_grid_rect_2,2,11,-1,-1,1.102,0.405555556,-0.400925954,1,0,0,1.1484,Pumice_rect,8,1.148,0,3,0,3,0,1,,,,,,,,,,,,,
6661c509d988597a6c057ecc,TCN,2024-06-11_18h13.51.999,LearnStrategy,2023.2.3,Win32,60.24096386,7,1,5,0.138888889,-0.008333333,1,0,0,1.1667,rock_grid_rect_2,5,09,-1,-1,1.167,-0.369444444,-0.416666667,1,0,0,1.6234,Obsidian_rect,5,1.623,1,4,0,4,0,1,,,,,,,,,,,,,
6661c509d988597a6c057ecc,TCN,2024-06-11_18h13.51.999,LearnStrategy,2023.2.3,Win32,60.24096386,7,1,6,0.069444444,0.01851849,1,0,0,0.6881,rock_grid_rect_2,7,07,-1,-1,0.688,-0.103703647,-0.261111111,1,0,0,2.1146,Basalt_rect,2,2.115,0,5,0,5,0,1,,,,,,,,,,,,,
6661c509d988597a6c057ecc,TCN,2024-06-11_18h13.51.999,LearnStrategy,2023.2.3,Win32,60.24096386,7,1,7,0.13148151,-0.004629644,1,0,0,0.6833,rock_grid_rect_2,8,13,-1,-1,0.683,0.436111111,-0.405555556,1,0,0,1.0158,Pumice_rect,8,1.016,1,6,0,6,0,1,,,,,,,,,,,,,
6661c509d988597a6c057ecc,TCN,2024-06-11_18h13.51.999,LearnStrategy,2023.2.3,Win32,60.24096386,7,1,8,0.112037065,-0.003703732,1,0,0,0.6499,rock_grid_rect_2,4,13,-1,-1,0.65,0.18148151,-0.253703732,1,0,0,1.4961,Diorite_rect,3,1.496,0,7,0,7,0,1,,,,,,,,,,,,,
6661c509d988597a6c057ecc,TCN,2024-06-11_18h13.51.999,LearnStrategy,2023.2.3,Win32,60.24096386,7,1,9,0.132407464,0.000925912,1,0,0,0.5363,rock_grid_rect_2,3,15,-1,-1,0.536,-0.122222222,-0.237037065,1,0,0,3.3371,Basalt_rect,2,3.337,0,8,0,8,0,1,,,,,,,,,,,,,
6661c509d988597a6c057ecc,TCN,2024-06-11_18h13.51.999,LearnStrategy,2023.2.3,Win32,60.24096386,7,1,10,0.145370399,-0.011111111,1,0,0,0.5359,rock_grid_rect_2,5,14,-1,-1,0.536,-0.361111111,-0.394444444,1,0,0,1.1594,Obsidian_rect,5,1.159,1,9,0,9,0,1,,,,,,,,,,,,,
6661c509d988597a6c057ecc,TCN,2024-06-11_18h13.51.999,LearnStrategy,2023.2.3,Win32,60.24096386,7,1,11,0.146296353,-0.001851866,1,0,0,1.4834,rock_grid_rect_2,1,14,-1,-1,1.483,0.123148176,-0.40648151,1,0,0,1.7595,Peridotite_rect,7,1.759,0,10,0,10,0,1,,,,,,,,,,,,,
6661c509d988597a6c057ecc,TCN,2024-06-11_18h13.51.999,LearnStrategy,2023.2.3,Win32,60.24096386,7,1,12,0.124074131,-0.005555556,1,0,0,0.5176,rock_grid_rect_2,4,10,-1,-1,0.518,0.138888889,-0.248148176,1,0,0,2.6576,Diorite_rect,3,2.658,0,11,0,11,0,1,,,,,,,,,,,,,
6661c509d988597a6c057ecc,TCN,2024-06-11_18h13.51.999,LearnStrategy,2023.2.3,Win32,60.24096386,7,1,13,0.143518575,-0.000925954,1,0,0,0.4776,rock_grid_rect_2,8,16,-1,-1,0.478,0.402777778,-0.418518575,1,0,0,0.8937,Pumice_rect,8,0.894,1,12,0,12,0,1,,,,,,,,,,,,,
6661c509d988597a6c057ecc,TCN,2024-06-11_18h13.51.999,LearnStrategy,2023.2.3,Win32,60.24096386,7,1,14,0.113888889,0.022222222,1,0,0,0.7338,rock_grid_rect_2,6,12,-1,-1,0.734,-0.112036981,-0.389814843,1,0,0,1.2441,Pegmatite_rect,6,1.244,1,13,0,13,0,1,,,,,,,,,,,,,
6661c509d988597a6c057ecc,TCN,2024-06-11_18h13.51.999,LearnStrategy,2023.2.3,Win32,60.24096386,7,1,15,0.105555556,-0.015740755,1,0,0,0.518,rock_grid_rect_2,7,05,-1,-1,0.518,0.389814843,-0.234259288,1,0,0,1.7438,Gabbro_rect,4,1.744,0,14,0,14,0,1,,,,,,,,,,,,,
6661c509d988597a6c057ecc,TCN,2024-06-11_18h13.51.999,LearnStrategy,2023.2.3,Win32,60.24096386,7,1,16,0.132407464,0.019444444,1,0,0,0.5831,rock_grid_rect_2,3,08,-1,-1,0.583,0.147222222,-0.414814843,1,0,0,1.5549,Peridotite_rect,7,1.555,0,15,0,15,0,1,,,,,,,,,,,,,
6661c509d988597a6c057ecc,TCN,2024-06-11_18h13.51.999,LearnStrategy,2023.2.3,Win32,60.24096386,7,2,1,,,,,,,,6,10,,,,,,,,,,,6,3.439,1,,,,,,-0.11851849,-0.412037065,1,0,0,3.4393,Pegmatite_rect,0,0,0,0,1,
6661c509d988597a6c057ecc,TCN,2024-06-11_18h13.51.999,LearnStrategy,2023.2.3,Win32,60.24096386,7,2,2,,,,,,,,6,16,,,,,,,,,,,3,2.646,0,,,,,,0.157407464,-0.244444444,1,0,0,2.6464,Diorite_rect,1,0,1,0,1,
6661c509d988597a6c057ecc,TCN,2024-06-11_18h13.51.999,LearnStrategy,2023.2.3,Win32,60.24096386,7,2,3,,,,,,,,4,16,,,,,,,,,,,4,1.628,1,,,,,,0.389814843,-0.243518575,1,0,0,1.6281,Gabbro_rect,2,0,2,0,1,
6661c509d988597a6c057ecc,TCN,2024-06-11_18h13.51.999,LearnStrategy,2023.2.3,Win32,60.24096386,7,2,4,,,,,,,,8,08,,,,,,,,,,,8,0.923,1,,,,,,0.375925954,-0.380555556,1,0,0,0.9228,Pumice_rect,3,0,3,0,1,
6661c509d988597a6c057ecc,TCN,2024-06-11_18h13.51.999,LearnStrategy,2023.2.3,Win32,60.24096386,7,2,5,,,,,,,,3,07,,,,,,,,,,,1,1.243,0,,,,,,-0.362962935,-0.246296353,1,0,0,1.243,Andesite_rect,4,0,4,0,1,
6661c509d988597a6c057ecc,TCN,2024-06-11_18h13.51.999,LearnStrategy,2023.2.3,Win32,60.24096386,7,2,6,,,,,,,,2,05,,,,,,,,,,,3,0.8,0,,,,,,0.168518575,-0.246296353,1,0,0,0.8003,Diorite_rect,5,0,5,0,1,
6661c509d988597a6c057ecc,TCN,2024-06-11_18h13.51.999,LearnStrategy,2023.2.3,Win32,60.24096386,7,2,7,,,,,,,,8,14,,,,,,,,,,,8,1.03,1,,,,,,0.38148151,-0.382407464,1,0,0,1.0304,Pumice_rect,6,0,6,0,1,
6661c509d988597a6c057ecc,TCN,2024-06-11_18h13.51.999,LearnStrategy,2023.2.3,Win32,60.24096386,7,2,8,,,,,,,,7,04,,,,,,,,,,,7,1.084,1,,,,,,0.140740797,-0.392592621,1,0,0,1.0836,Peridotite_rect,7,0,7,0,1,
6661c509d988597a6c057ecc,TCN,2024-06-11_18h13.51.999,LearnStrategy,2023.2.3,Win32,60.24096386,7,2,9,,,,,,,,7,08,,,,,,,,,,,6,1.73,0,,,,,,-0.153703647,-0.382407464,1,0,0,1.7303,Pegmatite_rect,8,0,8,0,1,
6661c509d988597a6c057ecc,TCN,2024-06-11_18h13.51.999,LearnStrategy,2023.2.3,Win32,60.24096386,7,2,10,,,,,,,,1,04,,,,,,,,,,,1,1.523,1,,,,,,-0.363888889,-0.245370399,1,0,0,1.5234,Andesite_rect,9,0,9,0,1,
6661c509d988597a6c057ecc,TCN,2024-06-11_18h13.51.999,LearnStrategy,2023.2.3,Win32,60.24096386,7,2,11,,,,,,,,2,08,,,,,,,,,,,3,1.377,0,,,,,,0.175,-0.262963019,1,0,0,1.3772,Diorite_rect,10,0,10,0,1,
6661c509d988597a6c057ecc,TCN,2024-06-11_18h13.51.999,LearnStrategy,2023.2.3,Win32,60.24096386,7,2,12,,,,,,,,4,05,,,,,,,,,,,6,0.903,0,,,,,,-0.129629601,-0.390740797,1,0,0,0.9029,Pegmatite_rect,11,0,11,0,1,
6661c509d988597a6c057ecc,TCN,2024-06-11_18h13.51.999,LearnStrategy,2023.2.3,Win32,60.24096386,7,2,13,,,,,,,,5,02,,,,,,,,,,,5,0.952,1,,,,,,-0.369444444,-0.410185242,1,0,0,0.9521,Obsidian_rect,12,0,12,0,1,
6661c509d988597a6c057ecc,TCN,2024-06-11_18h13.51.999,LearnStrategy,2023.2.3,Win32,60.24096386,7,2,14,,,,,,,,5,16,,,,,,,,,,,5,0.964,1,,,,,,-0.381481467,-0.390740797,1,0,0,0.9636,Obsidian_rect,13,0,13,0,1,
6661c509d988597a6c057ecc,TCN,2024-06-11_18h13.51.999,LearnStrategy,2023.2.3,Win32,60.24096386,7,2,15,,,,,,,,1,06,,,,,,,,,,,3,1.166,0,,,,,,0.150925954,-0.238888889,1,0,0,1.1656,Diorite_rect,14,0,14,0,1,
6661c509d988597a6c057ecc,TCN,2024-06-11_18h13.51.999,LearnStrategy,2023.2.3,Win32,60.24096386,7,2,16,,,,,,,,3,14,,,,,,,,,,,2,1.294,0,,,,,,-0.090740712,-0.242592621,1,0,0,1.2943,Basalt_rect,15,0,15,0,1,
6661c509d988597a6c057ecc,TCN,2024-06-11_18h13.51.999,LearnStrategy,2023.2.3,Win32,60.24096386,8,1,1,0.112963019,0.000925912,1,0,0,0.9144,rock_grid_rect_2,1,11,-1,-1,0.914,0.157407464,-0.239814843,1,0,0,1.648,Diorite_rect,3,1.648,0,0,0,0,0,1,,,,,,,,,,,,,
6661c509d988597a6c057ecc,TCN,2024-06-11_18h13.51.999,LearnStrategy,2023.2.3,Win32,60.24096386,8,1,2,0.150925954,0.002777778,1,0,0,0.7504,rock_grid_rect_2,8,02,-1,-1,0.75,0.369444444,-0.407407464,1,0,0,0.9757,Pumice_rect,8,0.976,1,1,0,1,0,1,,,,,,,,,,,,,
6661c509d988597a6c057ecc,TCN,2024-06-11_18h13.51.999,LearnStrategy,2023.2.3,Win32,60.24096386,8,1,3,0.166666667,-0.005555556,1,0,0,1.1174,rock_grid_rect_2,1,01,-1,-1,1.117,-0.122222222,-0.261111111,1,0,0,1.372,Basalt_rect,2,1.372,0,2,0,2,0,1,,,,,,,,,,,,,
6661c509d988597a6c057ecc,TCN,2024-06-11_18h13.51.999,LearnStrategy,2023.2.3,Win32,60.24096386,8,1,4,0.186111111,0.016666667,1,0,0,0.5348,rock_grid_rect_2,7,10,-1,-1,0.535,0.109259288,-0.389814843,1,0,0,1.2888,Peridotite_rect,7,1.289,1,3,0,3,0,1,,,,,,,,,,,,,
6661c509d988597a6c057ecc,TCN,2024-06-11_18h13.51.999,LearnStrategy,2023.2.3,Win32,60.24096386,8,1,5,0.140740797,0.012037023,1,0,0,0.6038,rock_grid_rect_2,4,15,-1,-1,0.604,0.177777778,-0.243518575,1,0,0,1.1036,Diorite_rect,3,1.104,0,4,0,4,0,1,,,,,,,,,,,,,
6661c509d988597a6c057ecc,TCN,2024-06-11_18h13.51.999,LearnStrategy,2023.2.3,Win32,60.24096386,8,1,6,0.154629686,-0.008333333,1,0,0,0.5517,rock_grid_rect_2,3,16,-1,-1,0.552,0.170370399,-0.235185242,1,0,0,1.842,Diorite_rect,3,1.842,1,5,0,5,0,1,,,,,,,,,,,,,
6661c509d988597a6c057ecc,TCN,2024-06-11_18h13.51.999,LearnStrategy,2023.2.3,Win32,60.24096386,8,1,7,0.168518575,-0.004629644,1,0,0,0.5213,rock_grid_rect_2,2,14,-1,-1,0.521,-0.387962935,-0.248148176,1,0,0,1.6932,Andesite_rect,1,1.693,0,6,0,6,0,1,,,,,,,,,,,,,
6661c509d988597a6c057ecc,TCN,2024-06-11_18h13.51.999,LearnStrategy,2023.2.3,Win32,60.24096386,8,1,8,0.083333333,0.00370369,1,0,0,0.6512,rock_grid_rect_2,3,10,-1,-1,0.651,-0.364814801,-0.233333333,1,0,0,1.2076,Andesite_rect,1,1.208,0,7,0,7,0,1,,,,,,,,,,,,,
6661c509d988597a6c057ecc,TCN,2024-06-11_18h13.51.999,LearnStrategy,2023.2.3,Win32,60.24096386,8,1,9,0.133333333,-0.023148176,1,0,0,0.4844,rock_grid_rect_2,5,08,-1,-1,0.484,-0.36851849,-0.398148176,1,0,0,1.0425,Obsidian_rect,5,1.043,1,8,0,8,0,1,,,,,,,,,,,,,
6661c509d988597a6c057ecc,TCN,2024-06-11_18h13.51.999,LearnStrategy,2023.2.3,Win32,60.24096386,8,1,10,0.099074131,-0.008333333,1,0,0,0.7706,rock_grid_rect_2,2,09,-1,-1,0.771,0.151851908,-0.249074131,1,0,0,2.2603,Diorite_rect,3,2.26,0,9,0,9,0,1,,,,,,,,,,,,,
6661c509d988597a6c057ecc,TCN,2024-06-11_18h13.51.999,LearnStrategy,2023.2.3,Win32,60.24096386,8,1,11,0.138888889,0.002777778,1,0,0,0.5865,rock_grid_rect_2,8,06,-1,-1,0.587,0.383333333,-0.410185242,1,0,0,1.7799,Pumice_rect,8,1.78,1,10,0,10,0,1,,,,,,,,,,,,,
6661c509d988597a6c057ecc,TCN,2024-06-11_18h13.51.999,LearnStrategy,2023.2.3,Win32,60.24096386,8,1,12,0.111111111,0.014814801,1,0,0,0.6839,rock_grid_rect_2,7,14,-1,-1,0.684,-0.162036981,-0.387037065,1,0,0,1.0894,Pegmatite_rect,6,1.089,0,11,0,11,0,1,,,,,,,,,,,,,
6661c509d988597a6c057ecc,TCN,2024-06-11_18h13.51.999,LearnStrategy,2023.2.3,Win32,60.24096386,8,1,13,0.13148151,0.00370369,1,0,0,0.5047,rock_grid_rect_2,6,13,-1,-1,0.505,0.08148151,-0.393518575,1,0,0,1.7714,Peridotite_rect,7,1.771,0,12,0,12,0,1,,,,,,,,,,,,,
6661c509d988597a6c057ecc,TCN,2024-06-11_18h13.51.999,LearnStrategy,2023.2.3,Win32,60.24096386,8,1,14,0.041666667,-0.00648151,1,0,0,0.7164,rock_grid_rect_2,6,06,-1,-1,0.716,-0.079629601,-0.399074131,1,0,0,1.1512,Pegmatite_rect,6,1.151,1,13,0,13,0,1,,,,,,,,,,,,,
6661c509d988597a6c057ecc,TCN,2024-06-11_18h13.51.999,LearnStrategy,2023.2.3,Win32,60.24096386,8,1,15,0.069444444,-0.000925954,1,0,0,1.0945,rock_grid_rect_2,4,03,-1,-1,1.094,0.111111111,-0.400925954,1,0,0,1.8534,Peridotite_rect,7,1.853,0,14,0,14,0,1,,,,,,,,,,,,,
6661c509d988597a6c057ecc,TCN,2024-06-11_18h13.51.999,LearnStrategy,2023.2.3,Win32,60.24096386,8,1,16,0.128703732,-0.016666667,1,0,0,0.9508,rock_grid_rect_2,5,06,-1,-1,0.951,-0.347222222,-0.398148176,1,0,0,0.9785,Obsidian_rect,5,0.979,1,15,0,15,0,1,,,,,,,,,,,,,
6661c509d988597a6c057ecc,TCN,2024-06-11_18h13.51.999,LearnStrategy,2023.2.3,Win32,60.24096386,8,2,1,,,,,,,,8,03,,,,,,,,,,,8,1.043,1,,,,,,0.402777778,-0.410185242,1,0,0,1.0435,Pumice_rect,0,0,0,0,1,
6661c509d988597a6c057ecc,TCN,2024-06-11_18h13.51.999,LearnStrategy,2023.2.3,Win32,60.24096386,8,2,2,,,,,,,,1,16,,,,,,,,,,,1,1.533,1,,,,,,-0.352777778,-0.240740797,1,0,0,1.5326,Andesite_rect,1,0,1,0,1,
6661c509d988597a6c057ecc,TCN,2024-06-11_18h13.51.999,LearnStrategy,2023.2.3,Win32,60.24096386,8,2,3,,,,,,,,2,10,,,,,,,,,,,4,1.658,0,,,,,,0.367592621,-0.240740797,1,0,0,1.6577,Gabbro_rect,2,0,2,0,1,
6661c509d988597a6c057ecc,TCN,2024-06-11_18h13.51.999,LearnStrategy,2023.2.3,Win32,60.24096386,8,2,4,,,,,,,,7,15,,,,,,,,,,,6,1.669,0,,,,,,-0.097222222,-0.402777778,1,0,0,1.6688,Pegmatite_rect,3,0,3,0,1,
6661c509d988597a6c057ecc,TCN,2024-06-11_18h13.51.999,LearnStrategy,2023.2.3,Win32,60.24096386,8,2,5,,,,,,,,8,05,,,,,,,,,,,8,1.035,1,,,,,,0.346296353,-0.378703732,1,0,0,1.0349,Pumice_rect,4,0,4,0,1,
6661c509d988597a6c057ecc,TCN,2024-06-11_18h13.51.999,LearnStrategy,2023.2.3,Win32,60.24096386,8,2,6,,,,,,,,2,04,,,,,,,,,,,2,1.538,1,,,,,,-0.098148092,-0.246296353,1,0,0,1.5377,Basalt_rect,5,0,5,0,1,
6661c509d988597a6c057ecc,TCN,2024-06-11_18h13.51.999,LearnStrategy,2023.2.3,Win32,60.24096386,8,2,7,,,,,,,,1,03,,,,,,,,,,,1,1.294,1,,,,,,-0.333333333,-0.251851908,1,0,0,1.2937,Andesite_rect,6,0,6,0,1,
6661c509d988597a6c057ecc,TCN,2024-06-11_18h13.51.999,LearnStrategy,2023.2.3,Win32,60.24096386,8,2,8,,,,,,,,3,09,,,,,,,,,,,7,1.786,0,,,,,,0.167592621,-0.403703732,1,0,0,1.7859,Peridotite_rect,7,0,7,0,1,
6661c509d988597a6c057ecc,TCN,2024-06-11_18h13.51.999,LearnStrategy,2023.2.3,Win32,60.24096386,8,2,9,,,,,,,,6,03,,,,,,,,,,,6,1.047,1,,,,,,-0.127777778,-0.416666667,1,0,0,1.0468,Pegmatite_rect,8,0,8,0,1,
6661c509d988597a6c057ecc,TCN,2024-06-11_18h13.51.999,LearnStrategy,2023.2.3,Win32,60.24096386,8,2,10,,,,,,,,5,04,,,,,,,,,,,5,0.965,1,,,,,,-0.36851849,-0.409259288,1,0,0,0.9647,Obsidian_rect,9,0,9,0,1,
6661c509d988597a6c057ecc,TCN,2024-06-11_18h13.51.999,LearnStrategy,2023.2.3,Win32,60.24096386,8,2,11,,,,,,,,4,09,,,,,,,,,,,4,2.627,1,,,,,,0.384259288,-0.264814843,1,0,0,2.6271,Gabbro_rect,10,0,10,0,1,
6661c509d988597a6c057ecc,TCN,2024-06-11_18h13.51.999,LearnStrategy,2023.2.3,Win32,60.24096386,8,2,12,,,,,,,,6,08,,,,,,,,,,,6,1.283,1,,,,,,-0.11851849,-0.409259288,1,0,0,1.2834,Pegmatite_rect,11,0,11,0,1,
6661c509d988597a6c057ecc,TCN,2024-06-11_18h13.51.999,LearnStrategy,2023.2.3,Win32,60.24096386,8,2,13,,,,,,,,4,14,,,,,,,,,,,2,1.877,0,,,,,,-0.090740712,-0.25648151,1,0,0,1.8768,Basalt_rect,12,0,12,0,1,
6661c509d988597a6c057ecc,TCN,2024-06-11_18h13.51.999,LearnStrategy,2023.2.3,Win32,60.24096386,8,2,14,,,,,,,,7,12,,,,,,,,,,,6,2.263,0,,,,,,-0.11851849,-0.404629686,1,0,0,2.2626,Pegmatite_rect,13,0,13,0,1,
6661c509d988597a6c057ecc,TCN,2024-06-11_18h13.51.999,LearnStrategy,2023.2.3,Win32,60.24096386,8,2,15,,,,,,,,3,13,,,,,,,,,,,4,2.276,0,,,,,,0.386111111,-0.263888889,1,0,0,2.2761,Gabbro_rect,14,0,14,0,1,
6661c509d988597a6c057ecc,TCN,2024-06-11_18h13.51.999,LearnStrategy,2023.2.3,Win32,60.24096386,8,2,16,,,,,,,,5,11,,,,,,,,,,,5,1.143,1,,,,,,-0.361111111,-0.390740797,1,0,0,1.1432,Obsidian_rect,15,0,15,0,1,
6661c509d988597a6c057ecc,TCN,2024-06-11_18h13.51.999,LearnStrategy,2023.2.3,Win32,60.24096386,9,1,1,0.079629686,-0.007407422,1,0,0,1.1272,rock_grid_rect_2,4,08,-1,-1,1.127,0.166666667,-0.389814843,1,0,0,2.7154,Peridotite_rect,7,2.715,0,0,0,0,0,1,,,,,,,,,,,,,
6661c509d988597a6c057ecc,TCN,2024-06-11_18h13.51.999,LearnStrategy,2023.2.3,Win32,60.24096386,9,1,2,0.137037065,0.020370356,1,0,0,0.8006,rock_grid_rect_2,7,13,-1,-1,0.801,0.133333333,-0.387963019,1,0,0,1.7802,Peridotite_rect,7,1.78,1,1,0,1,0,1,,,,,,,,,,,,,
6661c509d988597a6c057ecc,TCN,2024-06-11_18h13.51.999,LearnStrategy,2023.2.3,Win32,60.24096386,9,1,3,0.112963019,0.012962935,1,0,0,0.6375,rock_grid_rect_2,7,16,-1,-1,0.638,0.377777778,-0.241666667,1,0,0,1.2873,Gabbro_rect,4,1.287,0,2,0,2,0,1,,,,,,,,,,,,,
6661c509d988597a6c057ecc,TCN,2024-06-11_18h13.51.999,LearnStrategy,2023.2.3,Win32,60.24096386,9,1,4,0.099074131,-0.003703732,1,0,0,0.7673,rock_grid_rect_2,1,10,-1,-1,0.767,0.170370399,-0.382407464,1,0,0,1.7844,Peridotite_rect,7,1.784,0,3,0,3,0,1,,,,,,,,,,,,,
6661c509d988597a6c057ecc,TCN,2024-06-11_18h13.51.999,LearnStrategy,2023.2.3,Win32,60.24096386,9,1,5,0.119444444,-0.001851866,1,0,0,0.6999,rock_grid_rect_2,8,10,-1,-1,0.7,0.361111111,-0.391666667,1,0,0,1.0947,Pumice_rect,8,1.095,1,4,0,4,0,1,,,,,,,,,,,,,
6661c509d988597a6c057ecc,TCN,2024-06-11_18h13.51.999,LearnStrategy,2023.2.3,Win32,60.24096386,9,1,6,0.118518575,0.014814801,1,0,0,0.7006,rock_grid_rect_2,4,11,-1,-1,0.701,-0.091666667,-0.240740797,1,0,0,1.9674,Basalt_rect,2,1.967,0,5,0,5,0,1,,,,,,,,,,,,,
6661c509d988597a6c057ecc,TCN,2024-06-11_18h13.51.999,LearnStrategy,2023.2.3,Win32,60.24096386,9,1,7,0.125925954,0.001851824,1,0,0,0.5687,rock_grid_rect_2,5,12,-1,-1,0.569,-0.375,-0.394444444,1,0,0,1.0377,Obsidian_rect,5,1.038,1,6,0,6,0,1,,,,,,,,,,,,,
6661c509d988597a6c057ecc,TCN,2024-06-11_18h13.51.999,LearnStrategy,2023.2.3,Win32,60.24096386,9,1,8,0.112963019,0.000925912,1,0,0,0.7666,rock_grid_rect_2,3,11,-1,-1,0.767,0.394444444,-0.228703732,1,0,0,1.7448,Gabbro_rect,4,1.745,0,7,0,7,0,1,,,,,,,,,,,,,
6661c509d988597a6c057ecc,TCN,2024-06-11_18h13.51.999,LearnStrategy,2023.2.3,Win32,60.24096386,9,1,9,0.121296353,0.013888889,1,0,0,0.583,rock_grid_rect_2,8,15,-1,-1,0.583,0.389814843,-0.417592621,1,0,0,0.9638,Pumice_rect,8,0.964,1,8,0,8,0,1,,,,,,,,,,,,,
6661c509d988597a6c057ecc,TCN,2024-06-11_18h13.51.999,LearnStrategy,2023.2.3,Win32,60.24096386,9,1,10,0.110185242,0.022222222,1,0,0,0.6841,rock_grid_rect_2,2,02,-1,-1,0.684,0.161111111,-0.252777778,1,0,0,2.4462,Diorite_rect,3,2.446,0,9,0,9,0,1,,,,,,,,,,,,,
6661c509d988597a6c057ecc,TCN,2024-06-11_18h13.51.999,LearnStrategy,2023.2.3,Win32,60.24096386,9,1,11,0.117592621,-0.014814843,1,0,0,0.5678,rock_grid_rect_2,6,09,-1,-1,0.568,-0.106481425,-0.388888889,1,0,0,1.6529,Pegmatite_rect,6,1.653,1,10,0,10,0,1,,,,,,,,,,,,,
6661c509d988597a6c057ecc,TCN,2024-06-11_18h13.51.999,LearnStrategy,2023.2.3,Win32,60.24096386,9,1,12,0.080555556,0.000925912,1,0,0,0.6015,rock_grid_rect_2,1,09,-1,-1,0.601,0.387037065,-0.244444444,1,0,0,1.6907,Gabbro_rect,4,1.691,0,11,0,11,0,1,,,,,,,,,,,,,
6661c509d988597a6c057ecc,TCN,2024-06-11_18h13.51.999,LearnStrategy,2023.2.3,Win32,60.24096386,9,1,13,0.115740797,-0.00648151,1,0,0,0.4684,rock_grid_rect_2,3,06,-1,-1,0.468,-0.101851824,-0.399074131,1,0,0,1.844,Pegmatite_rect,6,1.844,0,12,0,12,0,1,,,,,,,,,,,,,
6661c509d988597a6c057ecc,TCN,2024-06-11_18h13.51.999,LearnStrategy,2023.2.3,Win32,60.24096386,9,1,14,0.107407464,-0.000925954,1,0,0,0.5176,rock_grid_rect_2,5,10,-1,-1,0.518,-0.347222222,-0.379629686,1,0,0,2.6491,Obsidian_rect,5,2.649,1,13,0,13,0,1,,,,,,,,,,,,,
6661c509d988597a6c057ecc,TCN,2024-06-11_18h13.51.999,LearnStrategy,2023.2.3,Win32,60.24096386,9,1,15,0.090740797,-0.003703732,1,0,0,0.7334,rock_grid_rect_2,6,05,-1,-1,0.733,-0.371296268,-0.255555556,1,0,0,1.442,Andesite_rect,1,1.442,0,14,0,14,0,1,,,,,,,,,,,,,
6661c509d988597a6c057ecc,TCN,2024-06-11_18h13.51.999,LearnStrategy,2023.2.3,Win32,60.24096386,9,1,16,0.100925954,0.012037023,1,0,0,0.5182,rock_grid_rect_2,2,06,-1,-1,0.518,0.149074131,-0.247222222,1,0,0,2.1941,Diorite_rect,3,2.194,0,15,0,15,0,1,,,,,,,,,,,,,
6661c509d988597a6c057ecc,TCN,2024-06-11_18h13.51.999,LearnStrategy,2023.2.3,Win32,60.24096386,9,2,1,,,,,,,,1,05,,,,,,,,,,,1,1.18,1,,,,,,-0.361111111,-0.236111111,1,0,0,1.18,Andesite_rect,0,0,0,0,1,
6661c509d988597a6c057ecc,TCN,2024-06-11_18h13.51.999,LearnStrategy,2023.2.3,Win32,60.24096386,9,2,2,,,,,,,,3,12,,,,,,,,,,,7,2.259,0,,,,,,0.155555556,-0.388888889,1,0,0,2.2592,Peridotite_rect,1,0,1,0,1,
6661c509d988597a6c057ecc,TCN,2024-06-11_18h13.51.999,LearnStrategy,2023.2.3,Win32,60.24096386,9,2,3,,,,,,,,4,12,,,,,,,,,,,3,2.059,0,,,,,,0.175,-0.25648151,1,0,0,2.0589,Diorite_rect,2,0,2,0,1,
6661c509d988597a6c057ecc,TCN,2024-06-11_18h13.51.999,LearnStrategy,2023.2.3,Win32,60.24096386,9,2,4,,,,,,,,8,04,,,,,,,,,,,8,0.987,1,,,,,,0.35648151,-0.4,1,0,0,0.9867,Pumice_rect,3,0,3,0,1,
6661c509d988597a6c057ecc,TCN,2024-06-11_18h13.51.999,LearnStrategy,2023.2.3,Win32,60.24096386,9,2,5,,,,,,,,1,02,,,,,,,,,,,4,1.411,0,,,,,,0.372222222,-0.243518575,1,0,0,1.4106,Gabbro_rect,4,0,4,0,1,
6661c509d988597a6c057ecc,TCN,2024-06-11_18h13.51.999,LearnStrategy,2023.2.3,Win32,60.24096386,9,2,6,,,,,,,,2,01,,,,,,,,,,,4,2.062,0,,,,,,0.388888889,-0.230555556,1,0,0,2.0617,Gabbro_rect,5,0,5,0,1,
6661c509d988597a6c057ecc,TCN,2024-06-11_18h13.51.999,LearnStrategy,2023.2.3,Win32,60.24096386,9,2,7,,,,,,,,7,06,,,,,,,,,,,6,1.016,0,,,,,,-0.166666667,-0.401851908,1,0,0,1.0157,Pegmatite_rect,6,0,6,0,1,
6661c509d988597a6c057ecc,TCN,2024-06-11_18h13.51.999,LearnStrategy,2023.2.3,Win32,60.24096386,9,2,8,,,,,,,,6,07,,,,,,,,,,,6,1.068,1,,,,,,-0.104629601,-0.411111111,1,0,0,1.0677,Pegmatite_rect,7,0,7,0,1,
6661c509d988597a6c057ecc,TCN,2024-06-11_18h13.51.999,LearnStrategy,2023.2.3,Win32,60.24096386,9,2,9,,,,,,,,3,02,,,,,,,,,,,7,2.079,0,,,,,,0.173148176,-0.401851908,1,0,0,2.0794,Peridotite_rect,8,0,8,0,1,
6661c509d988597a6c057ecc,TCN,2024-06-11_18h13.51.999,LearnStrategy,2023.2.3,Win32,60.24096386,9,2,10,,,,,,,,5,07,,,,,,,,,,,5,1.113,1,,,,,,-0.40370369,-0.409259288,1,0,0,1.1133,Obsidian_rect,9,0,9,0,1,
6661c509d988597a6c057ecc,TCN,2024-06-11_18h13.51.999,LearnStrategy,2023.2.3,Win32,60.24096386,9,2,11,,,,,,,,8,09,,,,,,,,,,,8,1.544,1,,,,,,0.396296353,-0.386111111,1,0,0,1.5436,Pumice_rect,10,0,10,0,1,
6661c509d988597a6c057ecc,TCN,2024-06-11_18h13.51.999,LearnStrategy,2023.2.3,Win32,60.24096386,9,2,12,,,,,,,,5,05,,,,,,,,,,,5,1.076,1,,,,,,-0.397222222,-0.402777778,1,0,0,1.0765,Obsidian_rect,11,0,11,0,1,
6661c509d988597a6c057ecc,TCN,2024-06-11_18h13.51.999,LearnStrategy,2023.2.3,Win32,60.24096386,9,2,13,,,,,,,,4,01,,,,,,,,,,,1,1.79,0,,,,,,-0.35370369,-0.252777778,1,0,0,1.7898,Andesite_rect,12,0,12,0,1,
6661c509d988597a6c057ecc,TCN,2024-06-11_18h13.51.999,LearnStrategy,2023.2.3,Win32,60.24096386,9,2,14,,,,,,,,6,11,,,,,,,,,,,6,1.797,1,,,,,,-0.14351849,-0.4,1,0,0,1.7975,Pegmatite_rect,13,0,13,0,1,
6661c509d988597a6c057ecc,TCN,2024-06-11_18h13.51.999,LearnStrategy,2023.2.3,Win32,60.24096386,9,2,15,,,,,,,,2,16,,,,,,,,,,,3,1.257,0,,,,,,0.141666667,-0.25,1,0,0,1.2572,Diorite_rect,14,0,14,0,1,
6661c509d988597a6c057ecc,TCN,2024-06-11_18h13.51.999,LearnStrategy,2023.2.3,Win32,60.24096386,9,2,16,,,,,,,,7,02,,,,,,,,,,,6,0.96,0,,,,,,-0.147222222,-0.4,1,0,0,0.9596,Pegmatite_rect,15,0,15,0,1,
6661c509d988597a6c057ecc,TCN,2024-06-11_18h13.51.999,LearnStrategy,2023.2.3,Win32,60.24096386,,,,,,,,,,,,,,,,,,,,,,,,,,,,,,,,,,,,,,,,,,,0
6661c509d988597a6c057ecc,TCN,2024-06-11_18h13.51.999,LearnStrategy,2023.2.3,Win32,60.24096386,,,,,,,,,,,,,,,,,,,,,,,,,,,,,,,,,,,,,,,,,,,
6661c509d988597a6c057ecc,TCN,2024-06-11_18h13.51.999,LearnStrategy,2023.2.3,Win32,60.24096386,,,,,,,,,,,4,10,1,1,,,,,,,,,,,,,,,,,,,,,,,,,,,,,
6661c509d988597a6c057ecc,TCN,2024-06-11_18h13.51.999,LearnStrategy,2023.2.3,Win32,60.24096386,,,,,,,,,,,8,16,1,2,,,,,,,,,,,,,,,,,,,,,,,,,,,,,
6661c509d988597a6c057ecc,TCN,2024-06-11_18h13.51.999,LearnStrategy,2023.2.3,Win32,60.24096386,,,,,,,,,,,8,13,1,3,,,,,,,,,,,,,,,,,,,,,,,,,,,,,
6661c509d988597a6c057ecc,TCN,2024-06-11_18h13.51.999,LearnStrategy,2023.2.3,Win32,60.24096386,,,,,,,,,,,2,12,1,4,,,,,,,,,,,,,,,,,,,,,,,,,,,,,
6661c509d988597a6c057ecc,TCN,2024-06-11_18h13.51.999,LearnStrategy,2023.2.3,Win32,60.24096386,,,,,,,,,,,2,06,1,5,,,,,,,,,,,,,,,,,,,,,,,,,,,,,
6661c509d988597a6c057ecc,TCN,2024-06-11_18h13.51.999,LearnStrategy,2023.2.3,Win32,60.24096386,,,,,,,,,,,8,10,1,6,,,,,,,,,,,,,,,,,,,,,,,,,,,,,
6661c509d988597a6c057ecc,TCN,2024-06-11_18h13.51.999,LearnStrategy,2023.2.3,Win32,60.24096386,,,,,,,,,,,2,11,1,7,,,,,,,,,,,,,,,,,,,,,,,,,,,,,
6661c509d988597a6c057ecc,TCN,2024-06-11_18h13.51.999,LearnStrategy,2023.2.3,Win32,60.24096386,,,,,,,,,,,3,06,1,8,,,,,,,,,,,,,,,,,,,,,,,,,,,,,
6661c509d988597a6c057ecc,TCN,2024-06-11_18h13.51.999,LearnStrategy,2023.2.3,Win32,60.24096386,,,,,,,,,,,4,13,2,1,,,,,,,,,,,,,,,,,,,,,,,,,,,,,
6661c509d988597a6c057ecc,TCN,2024-06-11_18h13.51.999,LearnStrategy,2023.2.3,Win32,60.24096386,,,,,,,,,,,5,14,2,2,,,,,,,,,,,,,,,,,,,,,,,,,,,,,
6661c509d988597a6c057ecc,TCN,2024-06-11_18h13.51.999,LearnStrategy,2023.2.3,Win32,60.24096386,,,,,,,,,,,1,10,2,3,,,,,,,,,,,,,,,,,,,,,,,,,,,,,
6661c509d988597a6c057ecc,TCN,2024-06-11_18h13.51.999,LearnStrategy,2023.2.3,Win32,60.24096386,,,,,,,,,,,4,03,2,4,,,,,,,,,,,,,,,,,,,,,,,,,,,,,
6661c509d988597a6c057ecc,TCN,2024-06-11_18h13.51.999,LearnStrategy,2023.2.3,Win32,60.24096386,,,,,,,,,,,1,11,2,5,,,,,,,,,,,,,,,,,,,,,,,,,,,,,
6661c509d988597a6c057ecc,TCN,2024-06-11_18h13.51.999,LearnStrategy,2023.2.3,Win32,60.24096386,,,,,,,,,,,1,09,2,6,,,,,,,,,,,,,,,,,,,,,,,,,,,,,
6661c509d988597a6c057ecc,TCN,2024-06-11_18h13.51.999,LearnStrategy,2023.2.3,Win32,60.24096386,,,,,,,,,,,8,02,2,7,,,,,,,,,,,,,,,,,,,,,,,,,,,,,
6661c509d988597a6c057ecc,TCN,2024-06-11_18h13.51.999,LearnStrategy,2023.2.3,Win32,60.24096386,,,,,,,,,,,3,08,2,8,,,,,,,,,,,,,,,,,,,,,,,,,,,,,
6661c509d988597a6c057ecc,TCN,2024-06-11_18h13.51.999,LearnStrategy,2023.2.3,Win32,60.24096386,,,,,,,,,,,5,12,3,1,,,,,,,,,,,,,,,,,,,,,,,,,,,,,
6661c509d988597a6c057ecc,TCN,2024-06-11_18h13.51.999,LearnStrategy,2023.2.3,Win32,60.24096386,,,,,,,,,,,1,14,3,2,,,,,,,,,,,,,,,,,,,,,,,,,,,,,
6661c509d988597a6c057ecc,TCN,2024-06-11_18h13.51.999,LearnStrategy,2023.2.3,Win32,60.24096386,,,,,,,,,,,8,06,3,3,,,,,,,,,,,,,,,,,,,,,,,,,,,,,
6661c509d988597a6c057ecc,TCN,2024-06-11_18h13.51.999,LearnStrategy,2023.2.3,Win32,60.24096386,,,,,,,,,,,3,16,3,4,,,,,,,,,,,,,,,,,,,,,,,,,,,,,
6661c509d988597a6c057ecc,TCN,2024-06-11_18h13.51.999,LearnStrategy,2023.2.3,Win32,60.24096386,,,,,,,,,,,7,05,3,5,,,,,,,,,,,,,,,,,,,,,,,,,,,,,
6661c509d988597a6c057ecc,TCN,2024-06-11_18h13.51.999,LearnStrategy,2023.2.3,Win32,60.24096386,,,,,,,,,,,5,10,3,6,,,,,,,,,,,,,,,,,,,,,,,,,,,,,
6661c509d988597a6c057ecc,TCN,2024-06-11_18h13.51.999,LearnStrategy,2023.2.3,Win32,60.24096386,,,,,,,,,,,6,06,3,7,,,,,,,,,,,,,,,,,,,,,,,,,,,,,
6661c509d988597a6c057ecc,TCN,2024-06-11_18h13.51.999,LearnStrategy,2023.2.3,Win32,60.24096386,,,,,,,,,,,6,12,3,8,,,,,,,,,,,,,,,,,,,,,,,,,,,,,
6661c509d988597a6c057ecc,TCN,2024-06-11_18h13.51.999,LearnStrategy,2023.2.3,Win32,60.24096386,,,,,,,,,,,6,13,4,1,,,,,,,,,,,,,,,,,,,,,,,,,,,,,
6661c509d988597a6c057ecc,TCN,2024-06-11_18h13.51.999,LearnStrategy,2023.2.3,Win32,60.24096386,,,,,,,,,,,4,08,4,2,,,,,,,,,,,,,,,,,,,,,,,,,,,,,
6661c509d988597a6c057ecc,TCN,2024-06-11_18h13.51.999,LearnStrategy,2023.2.3,Win32,60.24096386,,,,,,,,,,,2,09,4,3,,,,,,,,,,,,,,,,,,,,,,,,,,,,,
6661c509d988597a6c057ecc,TCN,2024-06-11_18h13.51.999,LearnStrategy,2023.2.3,Win32,60.24096386,,,,,,,,,,,3,11,4,4,,,,,,,,,,,,,,,,,,,,,,,,,,,,,
6661c509d988597a6c057ecc,TCN,2024-06-11_18h13.51.999,LearnStrategy,2023.2.3,Win32,60.24096386,,,,,,,,,,,4,11,4,5,,,,,,,,,,,,,,,,,,,,,,,,,,,,,
6661c509d988597a6c057ecc,TCN,2024-06-11_18h13.51.999,LearnStrategy,2023.2.3,Win32,60.24096386,,,,,,,,,,,2,02,4,6,,,,,,,,,,,,,,,,,,,,,,,,,,,,,
6661c509d988597a6c057ecc,TCN,2024-06-11_18h13.51.999,LearnStrategy,2023.2.3,Win32,60.24096386,,,,,,,,,,,6,15,4,7,,,,,,,,,,,,,,,,,,,,,,,,,,,,,
6661c509d988597a6c057ecc,TCN,2024-06-11_18h13.51.999,LearnStrategy,2023.2.3,Win32,60.24096386,,,,,,,,,,,7,07,4,8,,,,,,,,,,,,,,,,,,,,,,,,,,,,,
6661c509d988597a6c057ecc,TCN,2024-06-11_18h13.51.999,LearnStrategy,2023.2.3,Win32,60.24096386,,,,,,,,,,,7,13,5,1,,,,,,,,,,,,,,,,,,,,,,,,,,,,,
6661c509d988597a6c057ecc,TCN,2024-06-11_18h13.51.999,LearnStrategy,2023.2.3,Win32,60.24096386,,,,,,,,,,,5,08,5,2,,,,,,,,,,,,,,,,,,,,,,,,,,,,,
6661c509d988597a6c057ecc,TCN,2024-06-11_18h13.51.999,LearnStrategy,2023.2.3,Win32,60.24096386,,,,,,,,,,,1,07,5,3,,,,,,,,,,,,,,,,,,,,,,,,,,,,,
6661c509d988597a6c057ecc,TCN,2024-06-11_18h13.51.999,LearnStrategy,2023.2.3,Win32,60.24096386,,,,,,,,,,,3,10,5,4,,,,,,,,,,,,,,,,,,,,,,,,,,,,,
6661c509d988597a6c057ecc,TCN,2024-06-11_18h13.51.999,LearnStrategy,2023.2.3,Win32,60.24096386,,,,,,,,,,,5,09,5,5,,,,,,,,,,,,,,,,,,,,,,,,,,,,,
6661c509d988597a6c057ecc,TCN,2024-06-11_18h13.51.999,LearnStrategy,2023.2.3,Win32,60.24096386,,,,,,,,,,,7,14,5,6,,,,,,,,,,,,,,,,,,,,,,,,,,,,,
6661c509d988597a6c057ecc,TCN,2024-06-11_18h13.51.999,LearnStrategy,2023.2.3,Win32,60.24096386,,,,,,,,,,,8,15,5,7,,,,,,,,,,,,,,,,,,,,,,,,,,,,,
6661c509d988597a6c057ecc,TCN,2024-06-11_18h13.51.999,LearnStrategy,2023.2.3,Win32,60.24096386,,,,,,,,,,,6,05,5,8,,,,,,,,,,,,,,,,,,,,,,,,,,,,,
6661c509d988597a6c057ecc,TCN,2024-06-11_18h13.51.999,LearnStrategy,2023.2.3,Win32,60.24096386,,,,,,,,,,,7,16,6,1,,,,,,,,,,,,,,,,,,,,,,,,,,,,,
6661c509d988597a6c057ecc,TCN,2024-06-11_18h13.51.999,LearnStrategy,2023.2.3,Win32,60.24096386,,,,,,,,,,,5,06,6,2,,,,,,,,,,,,,,,,,,,,,,,,,,,,,
6661c509d988597a6c057ecc,TCN,2024-06-11_18h13.51.999,LearnStrategy,2023.2.3,Win32,60.24096386,,,,,,,,,,,7,10,6,3,,,,,,,,,,,,,,,,,,,,,,,,,,,,,
6661c509d988597a6c057ecc,TCN,2024-06-11_18h13.51.999,LearnStrategy,2023.2.3,Win32,60.24096386,,,,,,,,,,,6,09,6,4,,,,,,,,,,,,,,,,,,,,,,,,,,,,,
6661c509d988597a6c057ecc,TCN,2024-06-11_18h13.51.999,LearnStrategy,2023.2.3,Win32,60.24096386,,,,,,,,,,,2,14,6,5,,,,,,,,,,,,,,,,,,,,,,,,,,,,,
6661c509d988597a6c057ecc,TCN,2024-06-11_18h13.51.999,LearnStrategy,2023.2.3,Win32,60.24096386,,,,,,,,,,,4,15,6,6,,,,,,,,,,,,,,,,,,,,,,,,,,,,,
6661c509d988597a6c057ecc,TCN,2024-06-11_18h13.51.999,LearnStrategy,2023.2.3,Win32,60.24096386,,,,,,,,,,,1,01,6,7,,,,,,,,,,,,,,,,,,,,,,,,,,,,,
6661c509d988597a6c057ecc,TCN,2024-06-11_18h13.51.999,LearnStrategy,2023.2.3,Win32,60.24096386,,,,,,,,,,,3,15,6,8,,,,,,,,,,,,,,,,,,,,,,,,,,,,,