participant,condition,date,expName,psychopyVersion,OS,frameRate,block,phase,trial,learn_mouse_2.x,learn_mouse_2.y,learn_mouse_2.leftButton,learn_mouse_2.midButton,learn_mouse_2.rightButton,learn_mouse_2.time,learn_mouse_2.clicked_name,cat,token,row,col,t_select,cat_mouse_l.x,cat_mouse_l.y,cat_mouse_l.leftButton,cat_mouse_l.midButton,cat_mouse_l.rightButton,cat_mouse_l.time,cat_mouse_l.clicked_name,resp,t_resp,corr,train_trials.thisRepN,train_trials.thisTrialN,train_trials.thisN,train_trials.thisIndex,train_trials.ran,cat_mouse_t.x,cat_mouse_t.y,cat_mouse_t.leftButton,cat_mouse_t.midButton,cat_mouse_t.rightButton,cat_mouse_t.time,cat_mouse_t.clicked_name,test_trials.thisRepN,test_trials.thisTrialN,test_trials.thisN,test_trials.thisIndex,test_trials.ran,Bonus
66621cff8f102c018ed8ad60,TCR,2024-06-25_10h40.02.960,LearnStrategy,2023.2.3,MacIntel,57.47126437,,,,,,,,,,,,,,,,,,,,,,,,,,,,,,,,,,,,,,,,,,,
66621cff8f102c018ed8ad60,TCR,2024-06-25_10h40.02.960,LearnStrategy,2023.2.3,MacIntel,57.47126437,1,1,1,-0.066954685,0.008453471,1,0,0,4.0102,rock_grid_rect_2,3,13,-1,-1,4.01,0.106604275,-0.241872762,1,0,0,9.4956,Diorite_rect,3,9.496,1,0,0,0,0,1,,,,,,,,,,,,,
66621cff8f102c018ed8ad60,TCR,2024-06-25_10h40.02.960,LearnStrategy,2023.2.3,MacIntel,57.47126437,1,1,2,-0.023290405,-0.021315274,1,0,0,1.0804,rock_grid_rect_2,8,04,-1,-1,1.08,0.355745307,-0.401863742,1,0,0,4.0759,Pumice_rect,8,4.076,1,1,0,1,0,1,,,,,,,,,,,,,
66621cff8f102c018ed8ad60,TCR,2024-06-25_10h40.02.960,LearnStrategy,2023.2.3,MacIntel,57.47126437,1,1,3,-0.084252862,-0.024914551,1,0,0,1.0131,rock_grid_rect_2,4,08,-1,-1,1.013,-0.424176229,-0.255994331,1,0,0,7.3062,Andesite_rect,1,7.306,0,2,0,2,0,1,,,,,,,,,,,,,
66621cff8f102c018ed8ad60,TCR,2024-06-25_10h40.02.960,LearnStrategy,2023.2.3,MacIntel,57.47126437,1,1,4,-0.053028564,-0.006131761,1,0,0,1.6925,rock_grid_rect_2,5,05,-1,-1,1.693,-0.38049079,-0.385926514,1,0,0,4.3775,Obsidian_rect,5,4.377,1,3,0,3,0,1,,,,,,,,,,,,,
66621cff8f102c018ed8ad60,TCR,2024-06-25_10h40.02.960,LearnStrategy,2023.2.3,MacIntel,57.47126437,1,1,5,0.00333252,-0.009217292,1,0,0,1.0761,rock_grid_rect_2,1,14,-1,-1,1.076,-0.371528795,-0.256281942,1,0,0,9.9104,Andesite_rect,1,9.91,1,4,0,4,0,1,,,,,,,,,,,,,
66621cff8f102c018ed8ad60,TCR,2024-06-25_10h40.02.960,LearnStrategy,2023.2.3,MacIntel,57.47126437,1,1,6,-0.044358724,0.000975986,1,0,0,1.4636,rock_grid_rect_2,4,05,-1,-1,1.464,-0.126926744,-0.409972534,1,0,0,4.0088,Pegmatite_rect,6,4.009,0,5,0,5,0,1,,,,,,,,,,,,,
66621cff8f102c018ed8ad60,TCR,2024-06-25_10h40.02.960,LearnStrategy,2023.2.3,MacIntel,57.47126437,1,1,7,-0.005411174,-0.008528815,1,0,0,1.0806,rock_grid_rect_2,2,08,-1,-1,1.081,-0.110080227,-0.251723429,1,0,0,8.3609,Basalt_rect,2,8.361,1,6,0,6,0,1,,,,,,,,,,,,,
66621cff8f102c018ed8ad60,TCR,2024-06-25_10h40.02.960,LearnStrategy,2023.2.3,MacIntel,57.47126437,1,1,8,-0.036475288,0.010997891,1,0,0,0.8714,rock_grid_rect_2,7,08,-1,-1,0.871,0.116658325,-0.398244832,1,0,0,4.6409,Peridotite_rect,7,4.641,1,7,0,7,0,1,,,,,,,,,,,,,
66621cff8f102c018ed8ad60,TCR,2024-06-25_10h40.02.960,LearnStrategy,2023.2.3,MacIntel,57.47126437,1,1,9,-0.074215427,-0.004146559,1,0,0,1.3968,rock_grid_rect_2,3,09,-1,-1,1.397,0.10834337,-0.256055433,1,0,0,3.3527,Diorite_rect,3,3.353,1,8,0,8,0,1,,,,,,,,,,,,,
66621cff8f102c018ed8ad60,TCR,2024-06-25_10h40.02.960,LearnStrategy,2023.2.3,MacIntel,57.47126437,1,1,10,-0.048934326,-0.012077603,1,0,0,1.1463,rock_grid_rect_2,6,08,-1,-1,1.146,-0.148891805,-0.416851196,1,0,0,24.6904,Pegmatite_rect,6,24.69,1,9,0,9,0,1,,,,,,,,,,,,,
66621cff8f102c018ed8ad60,TCR,2024-06-25_10h40.02.960,LearnStrategy,2023.2.3,MacIntel,57.47126437,1,1,11,-0.095561795,-0.007453885,1,0,0,0.9814,rock_grid_rect_2,5,02,-1,-1,0.981,-0.450268216,-0.384229262,1,0,0,2.6547,Obsidian_rect,5,2.655,1,10,0,10,0,1,,,,,,,,,,,,,
66621cff8f102c018ed8ad60,TCR,2024-06-25_10h40.02.960,LearnStrategy,2023.2.3,MacIntel,57.47126437,1,1,12,-0.062146403,-0.007640347,1,0,0,0.8281,rock_grid_rect_2,6,11,-1,-1,0.828,-0.15335456,-0.402970581,1,0,0,4.1139,Pegmatite_rect,6,4.114,1,11,0,11,0,1,,,,,,,,,,,,,
66621cff8f102c018ed8ad60,TCR,2024-06-25_10h40.02.960,LearnStrategy,2023.2.3,MacIntel,57.47126437,1,1,13,-0.048684557,0.009558682,1,0,0,0.9403,rock_grid_rect_2,2,14,-1,-1,0.94,0.356040717,-0.404983927,1,0,0,6.8191,Pumice_rect,8,6.819,0,12,0,12,0,1,,,,,,,,,,,,,
66621cff8f102c018ed8ad60,TCR,2024-06-25_10h40.02.960,LearnStrategy,2023.2.3,MacIntel,57.47126437,1,1,14,-0.023515082,-0.001020711,1,0,0,0.8647,rock_grid_rect_2,7,12,-1,-1,0.865,0.143694119,-0.393826769,1,0,0,2.0873,Peridotite_rect,7,2.087,1,13,0,13,0,1,,,,,,,,,,,,,
66621cff8f102c018ed8ad60,TCR,2024-06-25_10h40.02.960,LearnStrategy,2023.2.3,MacIntel,57.47126437,1,1,15,-0.003950738,0.007323439,1,0,0,1.0137,rock_grid_rect_2,8,16,-1,-1,1.014,0.36779975,-0.393205566,1,0,0,1.7659,Pumice_rect,8,1.766,1,14,0,14,0,1,,,,,,,,,,,,,
66621cff8f102c018ed8ad60,TCR,2024-06-25_10h40.02.960,LearnStrategy,2023.2.3,MacIntel,57.47126437,1,1,16,-0.108482123,-0.008651055,1,0,0,0.9464,rock_grid_rect_2,1,09,-1,-1,0.946,-0.448349813,-0.235609741,1,0,0,2.4736,Andesite_rect,1,2.474,1,15,0,15,0,1,,,,,,,,,,,,,
66621cff8f102c018ed8ad60,TCR,2024-06-25_10h40.02.960,LearnStrategy,2023.2.3,MacIntel,57.47126437,1,2,1,,,,,,,,6,05,,,,,,,,,,,6,5.373,1,,,,,,-0.163949788,-0.400625136,1,0,0,5.3726,Pegmatite_rect,0,0,0,0,1,
66621cff8f102c018ed8ad60,TCR,2024-06-25_10h40.02.960,LearnStrategy,2023.2.3,MacIntel,57.47126437,1,2,2,,,,,,,,7,10,,,,,,,,,,,7,1.551,1,,,,,,0.116087714,-0.390372382,1,0,0,1.5515,Peridotite_rect,1,0,1,0,1,
66621cff8f102c018ed8ad60,TCR,2024-06-25_10h40.02.960,LearnStrategy,2023.2.3,MacIntel,57.47126437,1,2,3,,,,,,,,3,11,,,,,,,,,,,3,4.471,1,,,,,,0.124077691,-0.245694038,1,0,0,4.4714,Diorite_rect,2,0,2,0,1,
66621cff8f102c018ed8ad60,TCR,2024-06-25_10h40.02.960,LearnStrategy,2023.2.3,MacIntel,57.47126437,1,2,4,,,,,,,,2,16,,,,,,,,,,,2,16.536,1,,,,,,-0.095874023,-0.249132894,1,0,0,16.5361,Basalt_rect,3,0,3,0,1,
66621cff8f102c018ed8ad60,TCR,2024-06-25_10h40.02.960,LearnStrategy,2023.2.3,MacIntel,57.47126437,1,2,5,,,,,,,,5,09,,,,,,,,,,,5,2.141,1,,,,,,-0.397676629,-0.398125678,1,0,0,2.141,Obsidian_rect,4,0,4,0,1,
66621cff8f102c018ed8ad60,TCR,2024-06-25_10h40.02.960,LearnStrategy,2023.2.3,MacIntel,57.47126437,1,2,6,,,,,,,,3,16,,,,,,,,,,,1,2.438,0,,,,,,-0.387473314,-0.24540134,1,0,0,2.4375,Andesite_rect,5,0,5,0,1,
66621cff8f102c018ed8ad60,TCR,2024-06-25_10h40.02.960,LearnStrategy,2023.2.3,MacIntel,57.47126437,1,2,7,,,,,,,,6,15,,,,,,,,,,,6,2.588,1,,,,,,-0.141122911,-0.402681139,1,0,0,2.5882,Pegmatite_rect,6,0,6,0,1,
66621cff8f102c018ed8ad60,TCR,2024-06-25_10h40.02.960,LearnStrategy,2023.2.3,MacIntel,57.47126437,1,2,8,,,,,,,,1,01,,,,,,,,,,,4,9.305,0,,,,,,0.396884766,-0.248027005,1,0,0,9.305,Gabbro_rect,7,0,7,0,1,
66621cff8f102c018ed8ad60,TCR,2024-06-25_10h40.02.960,LearnStrategy,2023.2.3,MacIntel,57.47126437,1,2,9,,,,,,,,5,04,,,,,,,,,,,5,2.712,1,,,,,,-0.418452115,-0.405720554,1,0,0,2.7118,Obsidian_rect,8,0,8,0,1,
66621cff8f102c018ed8ad60,TCR,2024-06-25_10h40.02.960,LearnStrategy,2023.2.3,MacIntel,57.47126437,1,2,10,,,,,,,,1,16,,,,,,,,,,,1,5.801,1,,,,,,-0.379259237,-0.245451864,1,0,0,5.801,Andesite_rect,9,0,9,0,1,
66621cff8f102c018ed8ad60,TCR,2024-06-25_10h40.02.960,LearnStrategy,2023.2.3,MacIntel,57.47126437,1,2,11,,,,,,,,2,10,,,,,,,,,,,2,16.151,1,,,,,,-0.15138699,-0.263177897,1,0,0,16.1506,Basalt_rect,10,0,10,0,1,
66621cff8f102c018ed8ad60,TCR,2024-06-25_10h40.02.960,LearnStrategy,2023.2.3,MacIntel,57.47126437,1,2,12,,,,,,,,7,06,,,,,,,,,,,7,1.441,1,,,,,,0.146616007,-0.416164212,1,0,0,1.4407,Peridotite_rect,11,0,11,0,1,
66621cff8f102c018ed8ad60,TCR,2024-06-25_10h40.02.960,LearnStrategy,2023.2.3,MacIntel,57.47126437,1,2,13,,,,,,,,8,03,,,,,,,,,,,8,1.834,1,,,,,,0.408418376,-0.410527276,1,0,0,1.8337,Pumice_rect,12,0,12,0,1,
66621cff8f102c018ed8ad60,TCR,2024-06-25_10h40.02.960,LearnStrategy,2023.2.3,MacIntel,57.47126437,1,2,14,,,,,,,,4,14,,,,,,,,,,,2,19.782,0,,,,,,-0.147161797,-0.241128608,1,0,0,19.7821,Basalt_rect,13,0,13,0,1,
66621cff8f102c018ed8ad60,TCR,2024-06-25_10h40.02.960,LearnStrategy,2023.2.3,MacIntel,57.47126437,1,2,15,,,,,,,,8,14,,,,,,,,,,,8,2.169,1,,,,,,0.401625705,-0.408231472,1,0,0,2.1691,Pumice_rect,14,0,14,0,1,
66621cff8f102c018ed8ad60,TCR,2024-06-25_10h40.02.960,LearnStrategy,2023.2.3,MacIntel,57.47126437,1,2,16,,,,,,,,4,09,,,,,,,,,,,2,7,0,,,,,,-0.169270223,-0.252442152,1,0,0,7.0003,Basalt_rect,15,0,15,0,1,
66621cff8f102c018ed8ad60,TCR,2024-06-25_10h40.02.960,LearnStrategy,2023.2.3,MacIntel,57.47126437,2,1,1,-0.047237481,0.011117689,1,0,0,2.6989,rock_grid_rect_2,1,09,-1,-1,2.699,-0.389214511,-0.240820855,1,0,0,4.5262,Andesite_rect,1,4.526,1,0,0,0,0,1,,,,,,,,,,,,,
66621cff8f102c018ed8ad60,TCR,2024-06-25_10h40.02.960,LearnStrategy,2023.2.3,MacIntel,57.47126437,2,1,2,-0.064093221,-0.005036214,1,0,0,1.663,rock_grid_rect_2,1,05,-1,-1,1.663,0.355119222,-0.241845974,1,0,0,10.4396,Gabbro_rect,4,10.44,0,1,0,1,0,1,,,,,,,,,,,,,
66621cff8f102c018ed8ad60,TCR,2024-06-25_10h40.02.960,LearnStrategy,2023.2.3,MacIntel,57.47126437,2,1,3,-0.023751289,0.006898092,1,0,0,0.9478,rock_grid_rect_2,7,08,-1,-1,0.948,0.112155897,-0.408049588,1,0,0,1.7725,Peridotite_rect,7,1.772,1,2,0,2,0,1,,,,,,,,,,,,,
66621cff8f102c018ed8ad60,TCR,2024-06-25_10h40.02.960,LearnStrategy,2023.2.3,MacIntel,57.47126437,2,1,4,-0.016924303,0.016468065,1,0,0,1.0769,rock_grid_rect_2,4,01,-1,-1,1.077,-0.411561754,-0.247734714,1,0,0,1.601,Andesite_rect,1,1.601,0,3,0,3,0,1,,,,,,,,,,,,,
66621cff8f102c018ed8ad60,TCR,2024-06-25_10h40.02.960,LearnStrategy,2023.2.3,MacIntel,57.47126437,2,1,5,-0.052942098,-0.003480428,1,0,0,1.0767,rock_grid_rect_2,5,11,-1,-1,1.077,-0.41309333,-0.418853624,1,0,0,1.5165,Obsidian_rect,5,1.517,1,4,0,4,0,1,,,,,,,,,,,,,
66621cff8f102c018ed8ad60,TCR,2024-06-25_10h40.02.960,LearnStrategy,2023.2.3,MacIntel,57.47126437,2,1,6,0.0259198,0.008702053,1,0,0,1.2334,rock_grid_rect_2,3,09,-1,-1,1.233,0.095751139,-0.255844523,1,0,0,1.9723,Diorite_rect,3,1.972,1,5,0,5,0,1,,,,,,,,,,,,,
66621cff8f102c018ed8ad60,TCR,2024-06-25_10h40.02.960,LearnStrategy,2023.2.3,MacIntel,57.47126437,2,1,7,-0.028067084,-0.001929287,1,0,0,0.8182,rock_grid_rect_2,4,01,-1,-1,0.818,0.385373806,-0.244555122,1,0,0,4.4146,Gabbro_rect,4,4.415,1,6,0,6,0,1,,,,,,,,,,,,,
66621cff8f102c018ed8ad60,TCR,2024-06-25_10h40.02.960,LearnStrategy,2023.2.3,MacIntel,57.47126437,2,1,8,-0.059321086,-0.018549737,1,0,0,0.7905,rock_grid_rect_2,6,10,-1,-1,0.791,0.155982869,-0.407033081,1,0,0,1.7763,Peridotite_rect,7,1.776,0,7,0,7,0,1,,,,,,,,,,,,,
66621cff8f102c018ed8ad60,TCR,2024-06-25_10h40.02.960,LearnStrategy,2023.2.3,MacIntel,57.47126437,2,1,9,-0.086612549,0.002557848,1,0,0,0.947,rock_grid_rect_2,1,14,-1,-1,0.947,-0.414059143,-0.264475098,1,0,0,5.0604,Andesite_rect,1,5.06,1,8,0,8,0,1,,,,,,,,,,,,,
66621cff8f102c018ed8ad60,TCR,2024-06-25_10h40.02.960,LearnStrategy,2023.2.3,MacIntel,57.47126437,2,1,10,-0.057976481,0.007083232,1,0,0,0.9785,rock_grid_rect_2,3,06,-1,-1,0.978,0.132813789,-0.24268826,1,0,0,1.5638,Diorite_rect,3,1.564,1,9,0,9,0,1,,,,,,,,,,,,,
66621cff8f102c018ed8ad60,TCR,2024-06-25_10h40.02.960,LearnStrategy,2023.2.3,MacIntel,57.47126437,2,1,11,-0.010837538,-0.00643575,1,0,0,0.8808,rock_grid_rect_2,3,08,-1,-1,0.881,0.111584337,-0.268868679,1,0,0,1.4946,Diorite_rect,3,1.495,1,10,0,10,0,1,,,,,,,,,,,,,
66621cff8f102c018ed8ad60,TCR,2024-06-25_10h40.02.960,LearnStrategy,2023.2.3,MacIntel,57.47126437,2,1,12,-0.030856527,-0.010382894,1,0,0,1.2093,rock_grid_rect_2,2,06,-1,-1,1.209,-0.118090956,-0.240630493,1,0,0,2.209,Basalt_rect,2,2.209,1,11,0,11,0,1,,,,,,,,,,,,,
66621cff8f102c018ed8ad60,TCR,2024-06-25_10h40.02.960,LearnStrategy,2023.2.3,MacIntel,57.47126437,2,1,13,-0.039000515,-0.001542562,1,0,0,0.9439,rock_grid_rect_2,4,15,-1,-1,0.944,0.370066732,-0.261288723,1,0,0,4.231,Gabbro_rect,4,4.231,1,12,0,12,0,1,,,,,,,,,,,,,
66621cff8f102c018ed8ad60,TCR,2024-06-25_10h40.02.960,LearnStrategy,2023.2.3,MacIntel,57.47126437,2,1,14,-0.000857137,-0.01168986,1,0,0,0.9311,rock_grid_rect_2,4,12,-1,-1,0.931,-0.372253825,-0.262918294,1,0,0,3.4561,Andesite_rect,1,3.456,0,13,0,13,0,1,,,,,,,,,,,,,
66621cff8f102c018ed8ad60,TCR,2024-06-25_10h40.02.960,LearnStrategy,2023.2.3,MacIntel,57.47126437,2,1,15,-0.087408583,-0.017438795,1,0,0,2.0296,rock_grid_rect_2,4,12,-1,-1,2.03,0.394947103,-0.254756673,1,0,0,3.4585,Gabbro_rect,4,3.459,1,14,0,14,0,1,,,,,,,,,,,,,
66621cff8f102c018ed8ad60,TCR,2024-06-25_10h40.02.960,LearnStrategy,2023.2.3,MacIntel,57.47126437,2,1,16,-0.015806003,0.012698127,1,0,0,0.9649,rock_grid_rect_2,4,01,-1,-1,0.965,0.389248996,-0.233700358,1,0,0,2.1901,Gabbro_rect,4,2.19,1,15,0,15,0,1,,,,,,,,,,,,,
66621cff8f102c018ed8ad60,TCR,2024-06-25_10h40.02.960,LearnStrategy,2023.2.3,MacIntel,57.47126437,2,2,1,,,,,,,,4,03,,,,,,,,,,,4,5.53,1,,,,,,0.401732449,-0.260584649,1,0,0,5.5304,Gabbro_rect,0,0,0,0,1,
66621cff8f102c018ed8ad60,TCR,2024-06-25_10h40.02.960,LearnStrategy,2023.2.3,MacIntel,57.47126437,2,2,2,,,,,,,,3,02,,,,,,,,,,,3,4.401,1,,,,,,0.162614543,-0.248501858,1,0,0,4.4006,Diorite_rect,1,0,1,0,1,
66621cff8f102c018ed8ad60,TCR,2024-06-25_10h40.02.960,LearnStrategy,2023.2.3,MacIntel,57.47126437,2,2,3,,,,,,,,5,16,,,,,,,,,,,5,1.192,1,,,,,,-0.408507012,-0.405787557,1,0,0,1.1922,Obsidian_rect,2,0,2,0,1,
66621cff8f102c018ed8ad60,TCR,2024-06-25_10h40.02.960,LearnStrategy,2023.2.3,MacIntel,57.47126437,2,2,4,,,,,,,,3,12,,,,,,,,,,,3,1.607,1,,,,,,0.14406684,-0.247802734,1,0,0,1.6073,Diorite_rect,3,0,3,0,1,
66621cff8f102c018ed8ad60,TCR,2024-06-25_10h40.02.960,LearnStrategy,2023.2.3,MacIntel,57.47126437,2,2,5,,,,,,,,2,04,,,,,,,,,,,2,1.595,1,,,,,,-0.145803358,-0.253291423,1,0,0,1.5953,Basalt_rect,4,0,4,0,1,
66621cff8f102c018ed8ad60,TCR,2024-06-25_10h40.02.960,LearnStrategy,2023.2.3,MacIntel,57.47126437,2,2,6,,,,,,,,1,02,,,,,,,,,,,6,9.887,0,,,,,,-0.17075453,-0.410376451,1,0,0,9.8873,Pegmatite_rect,5,0,5,0,1,
66621cff8f102c018ed8ad60,TCR,2024-06-25_10h40.02.960,LearnStrategy,2023.2.3,MacIntel,57.47126437,2,2,7,,,,,,,,2,09,,,,,,,,,,,2,1.979,1,,,,,,-0.095911323,-0.267118259,1,0,0,1.9794,Basalt_rect,6,0,6,0,1,
66621cff8f102c018ed8ad60,TCR,2024-06-25_10h40.02.960,LearnStrategy,2023.2.3,MacIntel,57.47126437,2,2,8,,,,,,,,4,10,,,,,,,,,,,4,3.6,1,,,,,,0.412900526,-0.257610813,1,0,0,3.5996,Gabbro_rect,7,0,7,0,1,
66621cff8f102c018ed8ad60,TCR,2024-06-25_10h40.02.960,LearnStrategy,2023.2.3,MacIntel,57.47126437,2,2,9,,,,,,,,8,15,,,,,,,,,,,8,1.333,1,,,,,,0.365354004,-0.405015666,1,0,0,1.3331,Pumice_rect,8,0,8,0,1,
66621cff8f102c018ed8ad60,TCR,2024-06-25_10h40.02.960,LearnStrategy,2023.2.3,MacIntel,57.47126437,2,2,10,,,,,,,,7,15,,,,,,,,,,,7,2.479,1,,,,,,0.115361057,-0.418256565,1,0,0,2.4787,Peridotite_rect,9,0,9,0,1,
66621cff8f102c018ed8ad60,TCR,2024-06-25_10h40.02.960,LearnStrategy,2023.2.3,MacIntel,57.47126437,2,2,11,,,,,,,,1,06,,,,,,,,,,,1,3.863,1,,,,,,-0.352093811,-0.251127523,1,0,0,3.8628,Andesite_rect,10,0,10,0,1,
66621cff8f102c018ed8ad60,TCR,2024-06-25_10h40.02.960,LearnStrategy,2023.2.3,MacIntel,57.47126437,2,2,12,,,,,,,,8,13,,,,,,,,,,,8,1.29,1,,,,,,0.405197076,-0.389429321,1,0,0,1.2904,Pumice_rect,11,0,11,0,1,
66621cff8f102c018ed8ad60,TCR,2024-06-25_10h40.02.960,LearnStrategy,2023.2.3,MacIntel,57.47126437,2,2,13,,,,,,,,6,09,,,,,,,,,,,6,4.576,1,,,,,,-0.126447279,-0.399360419,1,0,0,4.5762,Pegmatite_rect,12,0,12,0,1,
66621cff8f102c018ed8ad60,TCR,2024-06-25_10h40.02.960,LearnStrategy,2023.2.3,MacIntel,57.47126437,2,2,14,,,,,,,,6,03,,,,,,,,,,,6,1.87,1,,,,,,-0.161557617,-0.405682644,1,0,0,1.8705,Pegmatite_rect,13,0,13,0,1,
66621cff8f102c018ed8ad60,TCR,2024-06-25_10h40.02.960,LearnStrategy,2023.2.3,MacIntel,57.47126437,2,2,15,,,,,,,,5,07,,,,,,,,,,,5,4.01,1,,,,,,-0.425502998,-0.416517131,1,0,0,4.0099,Obsidian_rect,14,0,14,0,1,
66621cff8f102c018ed8ad60,TCR,2024-06-25_10h40.02.960,LearnStrategy,2023.2.3,MacIntel,57.47126437,2,2,16,,,,,,,,7,04,,,,,,,,,,,7,15.348,1,,,,,,0.131280111,-0.418821615,1,0,0,15.3476,Peridotite_rect,15,0,15,0,1,
66621cff8f102c018ed8ad60,TCR,2024-06-25_10h40.02.960,LearnStrategy,2023.2.3,MacIntel,57.47126437,3,1,1,-0.095970866,-0.008670688,1,0,0,1.3463,rock_grid_rect_2,3,06,-1,-1,1.346,0.103981866,-0.266744249,1,0,0,13.8271,Diorite_rect,3,13.827,1,0,0,0,0,1,,,,,,,,,,,,,
66621cff8f102c018ed8ad60,TCR,2024-06-25_10h40.02.960,LearnStrategy,2023.2.3,MacIntel,57.47126437,3,1,2,-0.00666626,-0.011287062,1,0,0,1.1784,rock_grid_rect_2,1,09,-1,-1,1.178,-0.376530151,-0.260776978,1,0,0,1.7398,Andesite_rect,1,1.74,1,1,0,1,0,1,,,,,,,,,,,,,
66621cff8f102c018ed8ad60,TCR,2024-06-25_10h40.02.960,LearnStrategy,2023.2.3,MacIntel,57.47126437,3,1,3,-0.085967746,-0.013658176,1,0,0,0.8514,rock_grid_rect_2,3,14,-1,-1,0.851,0.166072659,-0.246619805,1,0,0,1.315,Diorite_rect,3,1.315,1,2,0,2,0,1,,,,,,,,,,,,,
66621cff8f102c018ed8ad60,TCR,2024-06-25_10h40.02.960,LearnStrategy,2023.2.3,MacIntel,57.47126437,3,1,4,-0.051753269,-0.012414212,1,0,0,1.5555,rock_grid_rect_2,5,05,-1,-1,1.556,-0.376953261,-0.413090752,1,0,0,1.7788,Obsidian_rect,5,1.779,1,3,0,3,0,1,,,,,,,,,,,,,
66621cff8f102c018ed8ad60,TCR,2024-06-25_10h40.02.960,LearnStrategy,2023.2.3,MacIntel,57.47126437,3,1,5,-0.033293389,-0.003604329,1,0,0,1.2503,rock_grid_rect_2,7,16,-1,-1,1.25,0.400424262,-0.256697591,1,0,0,7.552,Gabbro_rect,4,7.552,0,4,0,4,0,1,,,,,,,,,,,,,
66621cff8f102c018ed8ad60,TCR,2024-06-25_10h40.02.960,LearnStrategy,2023.2.3,MacIntel,57.47126437,3,1,6,0.004886203,-0.0131525,1,0,0,0.9451,rock_grid_rect_2,1,05,-1,-1,0.945,-0.375308499,-0.232061903,1,0,0,3.9789,Andesite_rect,1,3.979,1,5,0,5,0,1,,,,,,,,,,,,,
66621cff8f102c018ed8ad60,TCR,2024-06-25_10h40.02.960,LearnStrategy,2023.2.3,MacIntel,57.47126437,3,1,7,-0.025540093,-0.001813185,1,0,0,0.9069,rock_grid_rect_2,1,04,-1,-1,0.907,0.382522922,-0.239788411,1,0,0,6.2409,Gabbro_rect,4,6.241,0,6,0,6,0,1,,,,,,,,,,,,,
66621cff8f102c018ed8ad60,TCR,2024-06-25_10h40.02.960,LearnStrategy,2023.2.3,MacIntel,57.47126437,3,1,8,-0.044083591,-0.012426351,1,0,0,0.7961,rock_grid_rect_2,4,16,-1,-1,0.796,-0.144616157,-0.239624837,1,0,0,2.2122,Basalt_rect,2,2.212,0,7,0,7,0,1,,,,,,,,,,,,,
66621cff8f102c018ed8ad60,TCR,2024-06-25_10h40.02.960,LearnStrategy,2023.2.3,MacIntel,57.47126437,3,1,9,0.032380846,-0.003903944,1,0,0,1.6878,rock_grid_rect_2,8,08,-1,-1,1.688,0.380450846,-0.390400662,1,0,0,2.3586,Pumice_rect,8,2.359,1,8,0,8,0,1,,,,,,,,,,,,,
66621cff8f102c018ed8ad60,TCR,2024-06-25_10h40.02.960,LearnStrategy,2023.2.3,MacIntel,57.47126437,3,1,10,-0.062202555,-0.011214193,1,0,0,1.0481,rock_grid_rect_2,6,06,-1,-1,1.048,-0.16685574,-0.401299913,1,0,0,15.2954,Pegmatite_rect,6,15.295,1,9,0,9,0,1,,,,,,,,,,,,,
66621cff8f102c018ed8ad60,TCR,2024-06-25_10h40.02.960,LearnStrategy,2023.2.3,MacIntel,57.47126437,3,1,11,0.010356852,-0.016325039,1,0,0,1.0125,rock_grid_rect_2,4,12,-1,-1,1.013,0.415396457,-0.250219998,1,0,0,5.183,Gabbro_rect,4,5.183,1,10,0,10,0,1,,,,,,,,,,,,,
66621cff8f102c018ed8ad60,TCR,2024-06-25_10h40.02.960,LearnStrategy,2023.2.3,MacIntel,57.47126437,3,1,12,-0.046020304,0.004405246,1,0,0,0.7819,rock_grid_rect_2,4,05,-1,-1,0.782,0.417219238,-0.265840997,1,0,0,2.309,Gabbro_rect,4,2.309,1,11,0,11,0,1,,,,,,,,,,,,,
66621cff8f102c018ed8ad60,TCR,2024-06-25_10h40.02.960,LearnStrategy,2023.2.3,MacIntel,57.47126437,3,1,13,-0.03720364,0.004131707,1,0,0,0.8786,rock_grid_rect_2,2,01,-1,-1,0.879,-0.137940335,-0.238324314,1,0,0,4.3651,Basalt_rect,2,4.365,1,12,0,12,0,1,,,,,,,,,,,,,
66621cff8f102c018ed8ad60,TCR,2024-06-25_10h40.02.960,LearnStrategy,2023.2.3,MacIntel,57.47126437,3,1,14,-0.064812486,-0.016149835,1,0,0,0.7791,rock_grid_rect_2,1,11,-1,-1,0.779,-0.376888224,-0.245951877,1,0,0,2.5906,Andesite_rect,1,2.591,1,13,0,13,0,1,,,,,,,,,,,,,
66621cff8f102c018ed8ad60,TCR,2024-06-25_10h40.02.960,LearnStrategy,2023.2.3,MacIntel,57.47126437,3,1,15,-0.056838311,0.001177402,1,0,0,0.8917,rock_grid_rect_2,4,01,-1,-1,0.892,0.387370063,-0.259195353,1,0,0,3.8475,Gabbro_rect,4,3.847,1,14,0,14,0,1,,,,,,,,,,,,,
66621cff8f102c018ed8ad60,TCR,2024-06-25_10h40.02.960,LearnStrategy,2023.2.3,MacIntel,57.47126437,3,1,16,-0.012432319,0.006640998,1,0,0,0.8703,rock_grid_rect_2,1,07,-1,-1,0.87,-0.134099325,-0.395806207,1,0,0,5.1636,Pegmatite_rect,6,5.164,0,15,0,15,0,1,,,,,,,,,,,,,
66621cff8f102c018ed8ad60,TCR,2024-06-25_10h40.02.960,LearnStrategy,2023.2.3,MacIntel,57.47126437,3,2,1,,,,,,,,1,03,,,,,,,,,,,2,3.913,0,,,,,,-0.140066596,-0.245588311,1,0,0,3.9134,Basalt_rect,0,0,0,0,1,
66621cff8f102c018ed8ad60,TCR,2024-06-25_10h40.02.960,LearnStrategy,2023.2.3,MacIntel,57.47126437,3,2,2,,,,,,,,8,10,,,,,,,,,,,8,1.283,1,,,,,,0.347822266,-0.402057088,1,0,0,1.2831,Pumice_rect,1,0,1,0,1,
66621cff8f102c018ed8ad60,TCR,2024-06-25_10h40.02.960,LearnStrategy,2023.2.3,MacIntel,57.47126437,3,2,3,,,,,,,,7,14,,,,,,,,,,,7,1.804,1,,,,,,0.140483263,-0.406385159,1,0,0,1.8039,Peridotite_rect,2,0,2,0,1,
66621cff8f102c018ed8ad60,TCR,2024-06-25_10h40.02.960,LearnStrategy,2023.2.3,MacIntel,57.47126437,3,2,4,,,,,,,,8,09,,,,,,,,,,,8,1.103,1,,,,,,0.409528944,-0.404706014,1,0,0,1.1026,Pumice_rect,3,0,3,0,1,
66621cff8f102c018ed8ad60,TCR,2024-06-25_10h40.02.960,LearnStrategy,2023.2.3,MacIntel,57.47126437,3,2,5,,,,,,,,5,10,,,,,,,,,,,5,1.733,1,,,,,,-0.383602464,-0.417105849,1,0,0,1.733,Obsidian_rect,4,0,4,0,1,
66621cff8f102c018ed8ad60,TCR,2024-06-25_10h40.02.960,LearnStrategy,2023.2.3,MacIntel,57.47126437,3,2,6,,,,,,,,6,07,,,,,,,,,,,6,2.512,1,,,,,,-0.15518826,-0.407540826,1,0,0,2.5123,Pegmatite_rect,5,0,5,0,1,
66621cff8f102c018ed8ad60,TCR,2024-06-25_10h40.02.960,LearnStrategy,2023.2.3,MacIntel,57.47126437,3,2,7,,,,,,,,3,15,,,,,,,,,,,3,3.231,1,,,,,,0.121457113,-0.264001736,1,0,0,3.2315,Diorite_rect,6,0,6,0,1,
66621cff8f102c018ed8ad60,TCR,2024-06-25_10h40.02.960,LearnStrategy,2023.2.3,MacIntel,57.47126437,3,2,8,,,,,,,,6,16,,,,,,,,,,,6,1.604,1,,,,,,-0.154304199,-0.396078423,1,0,0,1.6035,Pegmatite_rect,7,0,7,0,1,
66621cff8f102c018ed8ad60,TCR,2024-06-25_10h40.02.960,LearnStrategy,2023.2.3,MacIntel,57.47126437,3,2,9,,,,,,,,5,08,,,,,,,,,,,5,1.476,1,,,,,,-0.381690335,-0.407574259,1,0,0,1.4757,Obsidian_rect,8,0,8,0,1,
66621cff8f102c018ed8ad60,TCR,2024-06-25_10h40.02.960,LearnStrategy,2023.2.3,MacIntel,57.47126437,3,2,10,,,,,,,,2,02,,,,,,,,,,,2,6.694,1,,,,,,-0.086952311,-0.238948636,1,0,0,6.694,Basalt_rect,9,0,9,0,1,
66621cff8f102c018ed8ad60,TCR,2024-06-25_10h40.02.960,LearnStrategy,2023.2.3,MacIntel,57.47126437,3,2,11,,,,,,,,7,05,,,,,,,,,,,7,2.331,1,,,,,,0.138917982,-0.412087335,1,0,0,2.3308,Peridotite_rect,10,0,10,0,1,
66621cff8f102c018ed8ad60,TCR,2024-06-25_10h40.02.960,LearnStrategy,2023.2.3,MacIntel,57.47126437,3,2,12,,,,,,,,4,13,,,,,,,,,,,4,3.475,1,,,,,,0.392483453,-0.248978204,1,0,0,3.4752,Gabbro_rect,11,0,11,0,1,
66621cff8f102c018ed8ad60,TCR,2024-06-25_10h40.02.960,LearnStrategy,2023.2.3,MacIntel,57.47126437,3,2,13,,,,,,,,1,10,,,,,,,,,,,1,4.327,1,,,,,,-0.324124315,-0.248736708,1,0,0,4.3273,Andesite_rect,12,0,12,0,1,
66621cff8f102c018ed8ad60,TCR,2024-06-25_10h40.02.960,LearnStrategy,2023.2.3,MacIntel,57.47126437,3,2,14,,,,,,,,4,11,,,,,,,,,,,2,5.982,0,,,,,,-0.091623128,-0.243155382,1,0,0,5.9817,Basalt_rect,13,0,13,0,1,
66621cff8f102c018ed8ad60,TCR,2024-06-25_10h40.02.960,LearnStrategy,2023.2.3,MacIntel,57.47126437,3,2,15,,,,,,,,2,11,,,,,,,,,,,8,1.814,0,,,,,,0.376456977,-0.406200968,1,0,0,1.8144,Pumice_rect,14,0,14,0,1,
66621cff8f102c018ed8ad60,TCR,2024-06-25_10h40.02.960,LearnStrategy,2023.2.3,MacIntel,57.47126437,3,2,16,,,,,,,,3,10,,,,,,,,,,,3,1.725,1,,,,,,0.141752794,-0.244605577,1,0,0,1.7253,Diorite_rect,15,0,15,0,1,
66621cff8f102c018ed8ad60,TCR,2024-06-25_10h40.02.960,LearnStrategy,2023.2.3,MacIntel,57.47126437,4,1,1,-0.047427504,0.005061849,1,0,0,1.777,rock_grid_rect_2,3,13,-1,-1,1.777,0.112822876,-0.248296984,1,0,0,1.3126,Diorite_rect,3,1.313,1,0,0,0,0,1,,,,,,,,,,,,,
66621cff8f102c018ed8ad60,TCR,2024-06-25_10h40.02.960,LearnStrategy,2023.2.3,MacIntel,57.47126437,4,1,2,0.002712538,0.007976244,1,0,0,0.8274,rock_grid_rect_2,2,06,-1,-1,0.827,-0.124472249,-0.231453722,1,0,0,2.6033,Basalt_rect,2,2.603,1,1,0,1,0,1,,,,,,,,,,,,,
66621cff8f102c018ed8ad60,TCR,2024-06-25_10h40.02.960,LearnStrategy,2023.2.3,MacIntel,57.47126437,4,1,3,0.026286757,0.016706611,1,0,0,1.0525,rock_grid_rect_2,4,16,-1,-1,1.053,0.366043837,-0.247384237,1,0,0,2.9947,Gabbro_rect,4,2.995,1,2,0,2,0,1,,,,,,,,,,,,,
66621cff8f102c018ed8ad60,TCR,2024-06-25_10h40.02.960,LearnStrategy,2023.2.3,MacIntel,57.47126437,4,1,4,0.071489868,0.010043403,1,0,0,1.5489,rock_grid_rect_2,4,05,-1,-1,1.549,0.367989773,-0.252011854,1,0,0,2.635,Gabbro_rect,4,2.635,1,3,0,3,0,1,,,,,,,,,,,,,
66621cff8f102c018ed8ad60,TCR,2024-06-25_10h40.02.960,LearnStrategy,2023.2.3,MacIntel,57.47126437,4,1,5,-0.02474216,-0.001229485,1,0,0,0.9592,rock_grid_rect_2,7,02,-1,-1,0.959,0.118607449,-0.414811198,1,0,0,2.1654,Peridotite_rect,7,2.165,1,4,0,4,0,1,,,,,,,,,,,,,
66621cff8f102c018ed8ad60,TCR,2024-06-25_10h40.02.960,LearnStrategy,2023.2.3,MacIntel,57.47126437,4,1,6,0.035100911,-0.010720011,1,0,0,0.8988,rock_grid_rect_2,1,09,-1,-1,0.899,-0.392404683,-0.270213759,1,0,0,1.3319,Andesite_rect,1,1.332,1,5,0,5,0,1,,,,,,,,,,,,,
66621cff8f102c018ed8ad60,TCR,2024-06-25_10h40.02.960,LearnStrategy,2023.2.3,MacIntel,57.47126437,4,1,7,-0.039745619,-0.014981452,1,0,0,0.881,rock_grid_rect_2,1,05,-1,-1,0.881,-0.33120992,-0.249310167,1,0,0,3.5077,Andesite_rect,1,3.508,1,6,0,6,0,1,,,,,,,,,,,,,
66621cff8f102c018ed8ad60,TCR,2024-06-25_10h40.02.960,LearnStrategy,2023.2.3,MacIntel,57.47126437,4,1,8,0.076612006,-0.000709296,1,0,0,0.9242,rock_grid_rect_2,1,14,-1,-1,0.924,-0.391659139,-0.240686103,1,0,0,2.5414,Andesite_rect,1,2.541,1,7,0,7,0,1,,,,,,,,,,,,,
66621cff8f102c018ed8ad60,TCR,2024-06-25_10h40.02.960,LearnStrategy,2023.2.3,MacIntel,57.47126437,4,1,9,-0.034365709,-0.006964586,1,0,0,0.983,rock_grid_rect_2,2,12,-1,-1,0.983,0.374245605,-0.41037557,1,0,0,1.3067,Pumice_rect,8,1.307,0,8,0,8,0,1,,,,,,,,,,,,,
66621cff8f102c018ed8ad60,TCR,2024-06-25_10h40.02.960,LearnStrategy,2023.2.3,MacIntel,57.47126437,4,1,10,0.011013794,-0.005810852,1,0,0,1.1511,rock_grid_rect_2,6,13,-1,-1,1.151,-0.140773044,-0.397940674,1,0,0,3.7764,Pegmatite_rect,6,3.776,1,9,0,9,0,1,,,,,,,,,,,,,
66621cff8f102c018ed8ad60,TCR,2024-06-25_10h40.02.960,LearnStrategy,2023.2.3,MacIntel,57.47126437,4,1,11,-0.006148343,0.009439155,1,0,0,1.3824,rock_grid_rect_2,4,16,-1,-1,1.382,0.380508219,-0.266249932,1,0,0,1.4477,Gabbro_rect,4,1.448,1,10,0,10,0,1,,,,,,,,,,,,,
66621cff8f102c018ed8ad60,TCR,2024-06-25_10h40.02.960,LearnStrategy,2023.2.3,MacIntel,57.47126437,4,1,12,-0.018520237,0.004531928,1,0,0,0.9185,rock_grid_rect_2,8,06,-1,-1,0.918,0.348386366,-0.394498562,1,0,0,1.4008,Pumice_rect,8,1.401,1,11,0,11,0,1,,,,,,,,,,,,,
66621cff8f102c018ed8ad60,TCR,2024-06-25_10h40.02.960,LearnStrategy,2023.2.3,MacIntel,57.47126437,4,1,13,-0.000838691,0.01476376,1,0,0,0.8067,rock_grid_rect_2,5,06,-1,-1,0.807,-0.447082248,-0.391580471,1,0,0,1.3023,Obsidian_rect,5,1.302,1,12,0,12,0,1,,,,,,,,,,,,,
66621cff8f102c018ed8ad60,TCR,2024-06-25_10h40.02.960,LearnStrategy,2023.2.3,MacIntel,57.47126437,4,1,14,0.04118259,0.009778748,1,0,0,1.8456,rock_grid_rect_2,4,12,-1,-1,1.846,0.427410753,-0.24841607,1,0,0,3.9977,Gabbro_rect,4,3.998,1,13,0,13,0,1,,,,,,,,,,,,,
66621cff8f102c018ed8ad60,TCR,2024-06-25_10h40.02.960,LearnStrategy,2023.2.3,MacIntel,57.47126437,4,1,15,-0.065663859,-0.009997525,1,0,0,1.0137,rock_grid_rect_2,1,14,-1,-1,1.014,-0.394270325,-0.248810832,1,0,0,2.4315,Andesite_rect,1,2.432,1,14,0,14,0,1,,,,,,,,,,,,,
66621cff8f102c018ed8ad60,TCR,2024-06-25_10h40.02.960,LearnStrategy,2023.2.3,MacIntel,57.47126437,4,1,16,-0.031034207,0.01807702,1,0,0,0.8294,rock_grid_rect_2,2,05,-1,-1,0.829,-0.141749946,-0.23936225,1,0,0,2.1487,Basalt_rect,2,2.149,1,15,0,15,0,1,,,,,,,,,,,,,
66621cff8f102c018ed8ad60,TCR,2024-06-25_10h40.02.960,LearnStrategy,2023.2.3,MacIntel,57.47126437,4,2,1,,,,,,,,1,02,,,,,,,,,,,1,8.659,1,,,,,,-0.37611318,-0.247275594,1,0,0,8.6594,Andesite_rect,0,0,0,0,1,
66621cff8f102c018ed8ad60,TCR,2024-06-25_10h40.02.960,LearnStrategy,2023.2.3,MacIntel,57.47126437,4,2,2,,,,,,,,8,03,,,,,,,,,,,8,3.307,1,,,,,,0.398831651,-0.397214762,1,0,0,3.3071,Pumice_rect,1,0,1,0,1,
66621cff8f102c018ed8ad60,TCR,2024-06-25_10h40.02.960,LearnStrategy,2023.2.3,MacIntel,57.47126437,4,2,3,,,,,,,,4,10,,,,,,,,,,,4,2.847,1,,,,,,0.377412652,-0.237212185,1,0,0,2.8468,Gabbro_rect,2,0,2,0,1,
66621cff8f102c018ed8ad60,TCR,2024-06-25_10h40.02.960,LearnStrategy,2023.2.3,MacIntel,57.47126437,4,2,4,,,,,,,,5,16,,,,,,,,,,,5,1.15,1,,,,,,-0.431807319,-0.409327121,1,0,0,1.1503,Obsidian_rect,3,0,3,0,1,
66621cff8f102c018ed8ad60,TCR,2024-06-25_10h40.02.960,LearnStrategy,2023.2.3,MacIntel,57.47126437,4,2,5,,,,,,,,7,05,,,,,,,,,,,7,2.042,1,,,,,,0.110045573,-0.398564792,1,0,0,2.0415,Peridotite_rect,4,0,4,0,1,
66621cff8f102c018ed8ad60,TCR,2024-06-25_10h40.02.960,LearnStrategy,2023.2.3,MacIntel,57.47126437,4,2,6,,,,,,,,5,07,,,,,,,,,,,5,1.206,1,,,,,,-0.432770894,-0.410333388,1,0,0,1.2055,Obsidian_rect,5,0,5,0,1,
66621cff8f102c018ed8ad60,TCR,2024-06-25_10h40.02.960,LearnStrategy,2023.2.3,MacIntel,57.47126437,4,2,7,,,,,,,,7,06,,,,,,,,,,,7,1.413,1,,,,,,0.163170912,-0.399186198,1,0,0,1.4126,Peridotite_rect,6,0,6,0,1,
66621cff8f102c018ed8ad60,TCR,2024-06-25_10h40.02.960,LearnStrategy,2023.2.3,MacIntel,57.47126437,4,2,8,,,,,,,,6,15,,,,,,,,,,,6,1.302,1,,,,,,-0.145333727,-0.403945923,1,0,0,1.3018,Pegmatite_rect,7,0,7,0,1,
66621cff8f102c018ed8ad60,TCR,2024-06-25_10h40.02.960,LearnStrategy,2023.2.3,MacIntel,57.47126437,4,2,9,,,,,,,,3,10,,,,,,,,,,,3,5.46,1,,,,,,0.132666151,-0.259007975,1,0,0,5.4599,Diorite_rect,8,0,8,0,1,
66621cff8f102c018ed8ad60,TCR,2024-06-25_10h40.02.960,LearnStrategy,2023.2.3,MacIntel,57.47126437,4,2,10,,,,,,,,2,09,,,,,,,,,,,2,2.063,1,,,,,,-0.140229899,-0.250010851,1,0,0,2.0631,Basalt_rect,9,0,9,0,1,
66621cff8f102c018ed8ad60,TCR,2024-06-25_10h40.02.960,LearnStrategy,2023.2.3,MacIntel,57.47126437,4,2,11,,,,,,,,3,11,,,,,,,,,,,3,1.501,1,,,,,,0.136036716,-0.247138604,1,0,0,1.5008,Diorite_rect,10,0,10,0,1,
66621cff8f102c018ed8ad60,TCR,2024-06-25_10h40.02.960,LearnStrategy,2023.2.3,MacIntel,57.47126437,4,2,12,,,,,,,,2,02,,,,,,,,,,,2,2.122,1,,,,,,-0.141778158,-0.262436456,1,0,0,2.1216,Basalt_rect,11,0,11,0,1,
66621cff8f102c018ed8ad60,TCR,2024-06-25_10h40.02.960,LearnStrategy,2023.2.3,MacIntel,57.47126437,4,2,13,,,,,,,,6,05,,,,,,,,,,,6,1.623,1,,,,,,-0.155494317,-0.410659722,1,0,0,1.6234,Pegmatite_rect,12,0,12,0,1,
66621cff8f102c018ed8ad60,TCR,2024-06-25_10h40.02.960,LearnStrategy,2023.2.3,MacIntel,57.47126437,4,2,14,,,,,,,,4,09,,,,,,,,,,,4,3.009,1,,,,,,0.367770318,-0.256619398,1,0,0,3.0093,Gabbro_rect,13,0,13,0,1,
66621cff8f102c018ed8ad60,TCR,2024-06-25_10h40.02.960,LearnStrategy,2023.2.3,MacIntel,57.47126437,4,2,15,,,,,,,,8,10,,,,,,,,,,,8,1.199,1,,,,,,0.386660699,-0.412468736,1,0,0,1.1991,Pumice_rect,14,0,14,0,1,
66621cff8f102c018ed8ad60,TCR,2024-06-25_10h40.02.960,LearnStrategy,2023.2.3,MacIntel,57.47126437,4,2,16,,,,,,,,1,06,,,,,,,,,,,1,2.64,1,,,,,,-0.361665649,-0.233504232,1,0,0,2.6401,Andesite_rect,15,0,15,0,1,
66621cff8f102c018ed8ad60,TCR,2024-06-25_10h40.02.960,LearnStrategy,2023.2.3,MacIntel,57.47126437,5,1,1,-0.025581936,0.011952989,1,0,0,1.9331,rock_grid_rect_2,3,06,-1,-1,1.933,0.107781236,-0.240777588,1,0,0,1.1418,Diorite_rect,3,1.142,1,0,0,0,0,1,,,,,,,,,,,,,
66621cff8f102c018ed8ad60,TCR,2024-06-25_10h40.02.960,LearnStrategy,2023.2.3,MacIntel,57.47126437,5,1,2,0.03343316,-0.011190932,1,0,0,0.9307,rock_grid_rect_2,5,02,-1,-1,0.931,-0.374720934,-0.395392999,1,0,0,1.2395,Obsidian_rect,5,1.24,1,1,0,1,0,1,,,,,,,,,,,,,
66621cff8f102c018ed8ad60,TCR,2024-06-25_10h40.02.960,LearnStrategy,2023.2.3,MacIntel,57.47126437,5,1,3,0.012058784,0.004814724,1,0,0,1.1301,rock_grid_rect_2,2,12,-1,-1,1.13,-0.129460653,-0.240107558,1,0,0,4.6883,Basalt_rect,2,4.688,1,2,0,2,0,1,,,,,,,,,,,,,
66621cff8f102c018ed8ad60,TCR,2024-06-25_10h40.02.960,LearnStrategy,2023.2.3,MacIntel,57.47126437,5,1,4,0.041907145,-0.008465847,1,0,0,1.1631,rock_grid_rect_2,3,09,-1,-1,1.163,0.132912598,-0.253101332,1,0,0,1.1887,Diorite_rect,3,1.189,1,3,0,3,0,1,,,,,,,,,,,,,
66621cff8f102c018ed8ad60,TCR,2024-06-25_10h40.02.960,LearnStrategy,2023.2.3,MacIntel,57.47126437,5,1,5,-0.011420966,-0.014237128,1,0,0,0.7252,rock_grid_rect_2,1,09,-1,-1,0.725,-0.393606635,-0.26532057,1,0,0,1.5698,Andesite_rect,1,1.57,1,4,0,4,0,1,,,,,,,,,,,,,
66621cff8f102c018ed8ad60,TCR,2024-06-25_10h40.02.960,LearnStrategy,2023.2.3,MacIntel,57.47126437,5,1,6,0.000891113,-0.016305237,1,0,0,0.7082,rock_grid_rect_2,2,01,-1,-1,0.708,-0.112569309,-0.2560043,1,0,0,1.7499,Basalt_rect,2,1.75,1,5,0,5,0,1,,,,,,,,,,,,,
66621cff8f102c018ed8ad60,TCR,2024-06-25_10h40.02.960,LearnStrategy,2023.2.3,MacIntel,57.47126437,5,1,7,-0.020218913,0.018373684,1,0,0,0.6821,rock_grid_rect_2,2,06,-1,-1,0.682,-0.138507826,-0.269416504,1,0,0,1.3781,Basalt_rect,2,1.378,1,6,0,6,0,1,,,,,,,,,,,,,
66621cff8f102c018ed8ad60,TCR,2024-06-25_10h40.02.960,LearnStrategy,2023.2.3,MacIntel,57.47126437,5,1,8,-0.010407986,-0.007276306,1,0,0,0.7302,rock_grid_rect_2,4,15,-1,-1,0.73,0.416788737,-0.271279704,1,0,0,1.5062,Gabbro_rect,4,1.506,1,7,0,7,0,1,,,,,,,,,,,,,
66621cff8f102c018ed8ad60,TCR,2024-06-25_10h40.02.960,LearnStrategy,2023.2.3,MacIntel,57.47126437,5,1,9,-0.017575819,-0.017666016,1,0,0,0.8231,rock_grid_rect_2,4,08,-1,-1,0.823,0.381616347,-0.240410156,1,0,0,1.5495,Gabbro_rect,4,1.549,1,8,0,8,0,1,,,,,,,,,,,,,
66621cff8f102c018ed8ad60,TCR,2024-06-25_10h40.02.960,LearnStrategy,2023.2.3,MacIntel,57.47126437,5,1,10,-0.089309692,0.007056071,1,0,0,1.0593,rock_grid_rect_2,7,07,-1,-1,1.059,0.147799479,-0.412498101,1,0,0,1.3786,Peridotite_rect,7,1.379,1,9,0,9,0,1,,,,,,,,,,,,,
66621cff8f102c018ed8ad60,TCR,2024-06-25_10h40.02.960,LearnStrategy,2023.2.3,MacIntel,57.47126437,5,1,11,-0.037808702,-0.018010796,1,0,0,0.7836,rock_grid_rect_2,1,14,-1,-1,0.784,-0.399659288,-0.255152656,1,0,0,3.2142,Andesite_rect,1,3.214,1,10,0,10,0,1,,,,,,,,,,,,,
66621cff8f102c018ed8ad60,TCR,2024-06-25_10h40.02.960,LearnStrategy,2023.2.3,MacIntel,57.47126437,5,1,12,-0.041426324,-0.002292311,1,0,0,0.698,rock_grid_rect_2,6,13,-1,-1,0.698,-0.120993924,-0.403135715,1,0,0,4.2094,Pegmatite_rect,6,4.209,1,11,0,11,0,1,,,,,,,,,,,,,
66621cff8f102c018ed8ad60,TCR,2024-06-25_10h40.02.960,LearnStrategy,2023.2.3,MacIntel,57.47126437,5,1,13,-0.063892958,-0.002252435,1,0,0,0.7557,rock_grid_rect_2,4,05,-1,-1,0.756,0.385170898,-0.231097751,1,0,0,1.4594,Gabbro_rect,4,1.459,1,12,0,12,0,1,,,,,,,,,,,,,
66621cff8f102c018ed8ad60,TCR,2024-06-25_10h40.02.960,LearnStrategy,2023.2.3,MacIntel,57.47126437,5,1,14,-0.089618191,0.010234002,1,0,0,0.8321,rock_grid_rect_2,1,07,-1,-1,0.832,-0.372443237,-0.248799438,1,0,0,1.698,Andesite_rect,1,1.698,1,13,0,13,0,1,,,,,,,,,,,,,
66621cff8f102c018ed8ad60,TCR,2024-06-25_10h40.02.960,LearnStrategy,2023.2.3,MacIntel,57.47126437,5,1,15,0.013632338,-0.018584866,1,0,0,0.7837,rock_grid_rect_2,1,05,-1,-1,0.784,-0.433100586,-0.23653734,1,0,0,1.3227,Andesite_rect,1,1.323,1,14,0,14,0,1,,,,,,,,,,,,,
66621cff8f102c018ed8ad60,TCR,2024-06-25_10h40.02.960,LearnStrategy,2023.2.3,MacIntel,57.47126437,5,1,16,-0.045250176,-0.004688687,1,0,0,0.9438,rock_grid_rect_2,8,02,-1,-1,0.944,0.429445936,-0.412913818,1,0,0,1.2885,Pumice_rect,8,1.288,1,15,0,15,0,1,,,,,,,,,,,,,
66621cff8f102c018ed8ad60,TCR,2024-06-25_10h40.02.960,LearnStrategy,2023.2.3,MacIntel,57.47126437,5,2,1,,,,,,,,4,13,,,,,,,,,,,4,1.878,1,,,,,,0.448590766,-0.265366753,1,0,0,1.8781,Gabbro_rect,0,0,0,0,1,
66621cff8f102c018ed8ad60,TCR,2024-06-25_10h40.02.960,LearnStrategy,2023.2.3,MacIntel,57.47126437,5,2,2,,,,,,,,3,02,,,,,,,,,,,3,2.489,1,,,,,,0.130094537,-0.257247789,1,0,0,2.4892,Diorite_rect,1,0,1,0,1,
66621cff8f102c018ed8ad60,TCR,2024-06-25_10h40.02.960,LearnStrategy,2023.2.3,MacIntel,57.47126437,5,2,3,,,,,,,,7,15,,,,,,,,,,,7,3.045,1,,,,,,0.10673645,-0.409175822,1,0,0,3.0451,Peridotite_rect,2,0,2,0,1,
66621cff8f102c018ed8ad60,TCR,2024-06-25_10h40.02.960,LearnStrategy,2023.2.3,MacIntel,57.47126437,5,2,4,,,,,,,,1,03,,,,,,,,,,,1,2.358,1,,,,,,-0.360167745,-0.245112847,1,0,0,2.3582,Andesite_rect,3,0,3,0,1,
66621cff8f102c018ed8ad60,TCR,2024-06-25_10h40.02.960,LearnStrategy,2023.2.3,MacIntel,57.47126437,5,2,5,,,,,,,,8,14,,,,,,,,,,,8,1.367,1,,,,,,0.34767334,-0.405296021,1,0,0,1.3666,Pumice_rect,4,0,4,0,1,
66621cff8f102c018ed8ad60,TCR,2024-06-25_10h40.02.960,LearnStrategy,2023.2.3,MacIntel,57.47126437,5,2,6,,,,,,,,7,04,,,,,,,,,,,7,3.119,1,,,,,,0.104167413,-0.395554403,1,0,0,3.1193,Peridotite_rect,5,0,5,0,1,
66621cff8f102c018ed8ad60,TCR,2024-06-25_10h40.02.960,LearnStrategy,2023.2.3,MacIntel,57.47126437,5,2,7,,,,,,,,2,11,,,,,,,,,,,2,4.11,1,,,,,,-0.159686211,-0.239947238,1,0,0,4.1104,Basalt_rect,6,0,6,0,1,
66621cff8f102c018ed8ad60,TCR,2024-06-25_10h40.02.960,LearnStrategy,2023.2.3,MacIntel,57.47126437,5,2,8,,,,,,,,2,16,,,,,,,,,,,4,2.644,0,,,,,,0.371003825,-0.255162489,1,0,0,2.6443,Gabbro_rect,7,0,7,0,1,
66621cff8f102c018ed8ad60,TCR,2024-06-25_10h40.02.960,LearnStrategy,2023.2.3,MacIntel,57.47126437,5,2,9,,,,,,,,3,12,,,,,,,,,,,3,1.914,1,,,,,,0.109335327,-0.250737915,1,0,0,1.9139,Diorite_rect,8,0,8,0,1,
66621cff8f102c018ed8ad60,TCR,2024-06-25_10h40.02.960,LearnStrategy,2023.2.3,MacIntel,57.47126437,5,2,10,,,,,,,,8,13,,,,,,,,,,,8,2.618,1,,,,,,0.389468316,-0.417805176,1,0,0,2.6176,Pumice_rect,9,0,9,0,1,
66621cff8f102c018ed8ad60,TCR,2024-06-25_10h40.02.960,LearnStrategy,2023.2.3,MacIntel,57.47126437,5,2,11,,,,,,,,5,10,,,,,,,,,,,5,1.352,1,,,,,,-0.375609402,-0.407328491,1,0,0,1.3522,Obsidian_rect,10,0,10,0,1,
66621cff8f102c018ed8ad60,TCR,2024-06-25_10h40.02.960,LearnStrategy,2023.2.3,MacIntel,57.47126437,5,2,12,,,,,,,,1,16,,,,,,,,,,,1,1.716,1,,,,,,-0.372537503,-0.230617879,1,0,0,1.7161,Andesite_rect,11,0,11,0,1,
66621cff8f102c018ed8ad60,TCR,2024-06-25_10h40.02.960,LearnStrategy,2023.2.3,MacIntel,57.47126437,5,2,13,,,,,,,,6,16,,,,,,,,,,,6,1.322,1,,,,,,-0.141882867,-0.418508911,1,0,0,1.3216,Pegmatite_rect,12,0,12,0,1,
66621cff8f102c018ed8ad60,TCR,2024-06-25_10h40.02.960,LearnStrategy,2023.2.3,MacIntel,57.47126437,5,2,14,,,,,,,,6,07,,,,,,,,,,,6,1.401,1,,,,,,-0.162650689,-0.419960327,1,0,0,1.4009,Pegmatite_rect,13,0,13,0,1,
66621cff8f102c018ed8ad60,TCR,2024-06-25_10h40.02.960,LearnStrategy,2023.2.3,MacIntel,57.47126437,5,2,15,,,,,,,,4,11,,,,,,,,,,,1,12.727,0,,,,,,-0.427502509,-0.264024726,1,0,0,12.7267,Andesite_rect,14,0,14,0,1,
66621cff8f102c018ed8ad60,TCR,2024-06-25_10h40.02.960,LearnStrategy,2023.2.3,MacIntel,57.47126437,5,2,16,,,,,,,,5,08,,,,,,,,,,,5,1.154,1,,,,,,-0.345418701,-0.41599745,1,0,0,1.1542,Obsidian_rect,15,0,15,0,1,
66621cff8f102c018ed8ad60,TCR,2024-06-25_10h40.02.960,LearnStrategy,2023.2.3,MacIntel,57.47126437,6,1,1,0.055663588,0.001902907,1,0,0,1.0496,rock_grid_rect_2,2,14,-1,-1,1.05,-0.124406331,-0.251760186,1,0,0,7.7615,Basalt_rect,2,7.761,1,0,0,0,0,1,,,,,,,,,,,,,
66621cff8f102c018ed8ad60,TCR,2024-06-25_10h40.02.960,LearnStrategy,2023.2.3,MacIntel,57.47126437,6,1,2,0.059632433,0.000494249,1,0,0,1.1602,rock_grid_rect_2,7,02,-1,-1,1.16,0.106550971,-0.412471992,1,0,0,1.6514,Peridotite_rect,7,1.651,1,1,0,1,0,1,,,,,,,,,,,,,
66621cff8f102c018ed8ad60,TCR,2024-06-25_10h40.02.960,LearnStrategy,2023.2.3,MacIntel,57.47126437,6,1,3,0.025618354,-0.008604363,1,0,0,0.8804,rock_grid_rect_2,4,12,-1,-1,0.88,-0.372264099,-0.233260634,1,0,0,2.7602,Andesite_rect,1,2.76,0,2,0,2,0,1,,,,,,,,,,,,,
66621cff8f102c018ed8ad60,TCR,2024-06-25_10h40.02.960,LearnStrategy,2023.2.3,MacIntel,57.47126437,6,1,4,-0.014388089,-0.010631477,1,0,0,1.0292,rock_grid_rect_2,4,05,-1,-1,1.029,0.366564263,-0.254761285,1,0,0,1.2191,Gabbro_rect,4,1.219,1,3,0,3,0,1,,,,,,,,,,,,,
66621cff8f102c018ed8ad60,TCR,2024-06-25_10h40.02.960,LearnStrategy,2023.2.3,MacIntel,57.47126437,6,1,5,-0.04900038,-1.98025E-05,1,0,0,0.7462,rock_grid_rect_2,4,05,-1,-1,0.746,0.4045067,-0.261958618,1,0,0,1.1441,Gabbro_rect,4,1.144,1,4,0,4,0,1,,,,,,,,,,,,,
66621cff8f102c018ed8ad60,TCR,2024-06-25_10h40.02.960,LearnStrategy,2023.2.3,MacIntel,57.47126437,6,1,6,-0.038076308,0.010841098,1,0,0,0.8285,rock_grid_rect_2,1,11,-1,-1,0.829,-0.361801147,-0.246984117,1,0,0,1.5279,Andesite_rect,1,1.528,1,5,0,5,0,1,,,,,,,,,,,,,
66621cff8f102c018ed8ad60,TCR,2024-06-25_10h40.02.960,LearnStrategy,2023.2.3,MacIntel,57.47126437,6,1,7,-0.022219442,0.011977234,1,0,0,0.7614,rock_grid_rect_2,5,05,-1,-1,0.761,-0.375174967,-0.410416802,1,0,0,1.1712,Obsidian_rect,5,1.171,1,6,0,6,0,1,,,,,,,,,,,,,
66621cff8f102c018ed8ad60,TCR,2024-06-25_10h40.02.960,LearnStrategy,2023.2.3,MacIntel,57.47126437,6,1,8,-0.018754205,0.017118496,1,0,0,0.8472,rock_grid_rect_2,3,06,-1,-1,0.847,0.120682102,-0.249752062,1,0,0,1.693,Diorite_rect,3,1.693,1,7,0,7,0,1,,,,,,,,,,,,,
66621cff8f102c018ed8ad60,TCR,2024-06-25_10h40.02.960,LearnStrategy,2023.2.3,MacIntel,57.47126437,6,1,9,-0.033253038,0.000620999,1,0,0,0.7479,rock_grid_rect_2,1,11,-1,-1,0.748,-0.370779182,-0.260285645,1,0,0,1.4686,Andesite_rect,1,1.469,1,8,0,8,0,1,,,,,,,,,,,,,
66621cff8f102c018ed8ad60,TCR,2024-06-25_10h40.02.960,LearnStrategy,2023.2.3,MacIntel,57.47126437,6,1,10,-0.050500217,0.003656921,1,0,0,0.6642,rock_grid_rect_2,4,15,-1,-1,0.664,0.37910319,-0.250929837,1,0,0,1.1763,Gabbro_rect,4,1.176,1,9,0,9,0,1,,,,,,,,,,,,,
66621cff8f102c018ed8ad60,TCR,2024-06-25_10h40.02.960,LearnStrategy,2023.2.3,MacIntel,57.47126437,6,1,11,-0.022289293,0.014608595,1,0,0,0.6955,rock_grid_rect_2,2,08,-1,-1,0.695,-0.15867825,-0.266415473,1,0,0,1.4901,Basalt_rect,2,1.49,1,10,0,10,0,1,,,,,,,,,,,,,
66621cff8f102c018ed8ad60,TCR,2024-06-25_10h40.02.960,LearnStrategy,2023.2.3,MacIntel,57.47126437,6,1,12,-0.017864448,-0.005456679,1,0,0,0.7137,rock_grid_rect_2,1,07,-1,-1,0.714,-0.37558648,-0.232649672,1,0,0,1.5568,Andesite_rect,1,1.557,1,11,0,11,0,1,,,,,,,,,,,,,
66621cff8f102c018ed8ad60,TCR,2024-06-25_10h40.02.960,LearnStrategy,2023.2.3,MacIntel,57.47126437,6,1,13,-0.051912096,0.014126383,1,0,0,0.6335,rock_grid_rect_2,2,12,-1,-1,0.634,-0.138591444,-0.258282132,1,0,0,4.4235,Basalt_rect,2,4.423,1,12,0,12,0,1,,,,,,,,,,,,,
66621cff8f102c018ed8ad60,TCR,2024-06-25_10h40.02.960,LearnStrategy,2023.2.3,MacIntel,57.47126437,6,1,14,-0.064625515,-0.008235643,1,0,0,0.6625,rock_grid_rect_2,8,02,-1,-1,0.663,0.389859755,-0.419483507,1,0,0,1.2232,Pumice_rect,8,1.223,1,13,0,13,0,1,,,,,,,,,,,,,
66621cff8f102c018ed8ad60,TCR,2024-06-25_10h40.02.960,LearnStrategy,2023.2.3,MacIntel,57.47126437,6,1,15,-0.047222222,0.004606934,1,0,0,0.798,rock_grid_rect_2,2,12,-1,-1,0.798,-0.135958727,-0.24362793,1,0,0,1.9019,Basalt_rect,2,1.902,1,14,0,14,0,1,,,,,,,,,,,,,
66621cff8f102c018ed8ad60,TCR,2024-06-25_10h40.02.960,LearnStrategy,2023.2.3,MacIntel,57.47126437,6,1,16,0.019923842,-0.000771586,1,0,0,0.682,rock_grid_rect_2,6,08,-1,-1,0.682,-0.154813165,-0.400976902,1,0,0,1.2969,Pegmatite_rect,6,1.297,1,15,0,15,0,1,,,,,,,,,,,,,
66621cff8f102c018ed8ad60,TCR,2024-06-25_10h40.02.960,LearnStrategy,2023.2.3,MacIntel,57.47126437,6,2,1,,,,,,,,3,15,,,,,,,,,,,3,3.642,1,,,,,,0.156383464,-0.24690016,1,0,0,3.6423,Diorite_rect,0,0,0,0,1,
66621cff8f102c018ed8ad60,TCR,2024-06-25_10h40.02.960,LearnStrategy,2023.2.3,MacIntel,57.47126437,6,2,2,,,,,,,,4,03,,,,,,,,,,,4,3.778,1,,,,,,0.451006131,-0.249664578,1,0,0,3.7775,Gabbro_rect,1,0,1,0,1,
66621cff8f102c018ed8ad60,TCR,2024-06-25_10h40.02.960,LearnStrategy,2023.2.3,MacIntel,57.47126437,6,2,3,,,,,,,,2,10,,,,,,,,,,,2,7.932,1,,,,,,-0.120286458,-0.253034397,1,0,0,7.9324,Basalt_rect,2,0,2,0,1,
66621cff8f102c018ed8ad60,TCR,2024-06-25_10h40.02.960,LearnStrategy,2023.2.3,MacIntel,57.47126437,6,2,4,,,,,,,,3,16,,,,,,,,,,,1,6.542,0,,,,,,-0.398180576,-0.248899672,1,0,0,6.5423,Andesite_rect,3,0,3,0,1,
66621cff8f102c018ed8ad60,TCR,2024-06-25_10h40.02.960,LearnStrategy,2023.2.3,MacIntel,57.47126437,6,2,5,,,,,,,,2,04,,,,,,,,,,,2,3.625,1,,,,,,-0.13816881,-0.238681573,1,0,0,3.625,Basalt_rect,4,0,4,0,1,
66621cff8f102c018ed8ad60,TCR,2024-06-25_10h40.02.960,LearnStrategy,2023.2.3,MacIntel,57.47126437,6,2,6,,,,,,,,4,14,,,,,,,,,,,4,2.125,1,,,,,,0.377466227,-0.250154961,1,0,0,2.1249,Gabbro_rect,5,0,5,0,1,
66621cff8f102c018ed8ad60,TCR,2024-06-25_10h40.02.960,LearnStrategy,2023.2.3,MacIntel,57.47126437,6,2,7,,,,,,,,1,01,,,,,,,,,,,4,5.127,0,,,,,,0.387531331,-0.235187581,1,0,0,5.1268,Gabbro_rect,6,0,6,0,1,
66621cff8f102c018ed8ad60,TCR,2024-06-25_10h40.02.960,LearnStrategy,2023.2.3,MacIntel,57.47126437,6,2,8,,,,,,,,8,09,,,,,,,,,,,8,1.435,1,,,,,,0.357414822,-0.402947388,1,0,0,1.4347,Pumice_rect,7,0,7,0,1,
66621cff8f102c018ed8ad60,TCR,2024-06-25_10h40.02.960,LearnStrategy,2023.2.3,MacIntel,57.47126437,6,2,9,,,,,,,,5,09,,,,,,,,,,,5,1.87,1,,,,,,-0.427011176,-0.406384277,1,0,0,1.8705,Obsidian_rect,8,0,8,0,1,
66621cff8f102c018ed8ad60,TCR,2024-06-25_10h40.02.960,LearnStrategy,2023.2.3,MacIntel,57.47126437,6,2,10,,,,,,,,6,09,,,,,,,,,,,6,2.305,1,,,,,,-0.134400703,-0.410224202,1,0,0,2.3049,Pegmatite_rect,9,0,9,0,1,
66621cff8f102c018ed8ad60,TCR,2024-06-25_10h40.02.960,LearnStrategy,2023.2.3,MacIntel,57.47126437,6,2,11,,,,,,,,6,03,,,,,,,,,,,6,2.517,1,,,,,,-0.150520766,-0.40161872,1,0,0,2.5168,Pegmatite_rect,10,0,10,0,1,
66621cff8f102c018ed8ad60,TCR,2024-06-25_10h40.02.960,LearnStrategy,2023.2.3,MacIntel,57.47126437,6,2,12,,,,,,,,5,04,,,,,,,,,,,5,1.361,1,,,,,,-0.383645698,-0.396350708,1,0,0,1.3606,Obsidian_rect,11,0,11,0,1,
66621cff8f102c018ed8ad60,TCR,2024-06-25_10h40.02.960,LearnStrategy,2023.2.3,MacIntel,57.47126437,6,2,13,,,,,,,,7,14,,,,,,,,,,,7,1.964,1,,,,,,0.118968641,-0.420657145,1,0,0,1.964,Peridotite_rect,12,0,12,0,1,
66621cff8f102c018ed8ad60,TCR,2024-06-25_10h40.02.960,LearnStrategy,2023.2.3,MacIntel,57.47126437,6,2,14,,,,,,,,8,15,,,,,,,,,,,8,1.407,1,,,,,,0.390821669,-0.412847222,1,0,0,1.4066,Pumice_rect,13,0,13,0,1,
66621cff8f102c018ed8ad60,TCR,2024-06-25_10h40.02.960,LearnStrategy,2023.2.3,MacIntel,57.47126437,6,2,15,,,,,,,,1,10,,,,,,,,,,,1,2.812,1,,,,,,-0.436777954,-0.232339884,1,0,0,2.8116,Andesite_rect,14,0,14,0,1,
66621cff8f102c018ed8ad60,TCR,2024-06-25_10h40.02.960,LearnStrategy,2023.2.3,MacIntel,57.47126437,6,2,16,,,,,,,,7,10,,,,,,,,,,,7,1.268,1,,,,,,0.186181098,-0.419423896,1,0,0,1.2682,Peridotite_rect,15,0,15,0,1,
66621cff8f102c018ed8ad60,TCR,2024-06-25_10h40.02.960,LearnStrategy,2023.2.3,MacIntel,57.47126437,7,1,1,-0.007660319,-0.01373013,1,0,0,4.2847,rock_grid_rect_2,3,13,-1,-1,4.285,0.116489665,-0.235031535,1,0,0,1.5824,Diorite_rect,3,1.582,1,0,0,0,0,1,,,,,,,,,,,,,
66621cff8f102c018ed8ad60,TCR,2024-06-25_10h40.02.960,LearnStrategy,2023.2.3,MacIntel,57.47126437,7,1,2,-0.047398546,-0.010659044,1,0,0,0.9932,rock_grid_rect_2,4,08,-1,-1,0.993,-0.355509169,-0.269992065,1,0,0,2.8463,Andesite_rect,1,2.846,0,1,0,1,0,1,,,,,,,,,,,,,
66621cff8f102c018ed8ad60,TCR,2024-06-25_10h40.02.960,LearnStrategy,2023.2.3,MacIntel,57.47126437,7,1,3,-0.073243001,0.008969625,1,0,0,1.1954,rock_grid_rect_2,5,06,-1,-1,1.195,-0.347283834,-0.388359646,1,0,0,1.1391,Obsidian_rect,5,1.139,1,2,0,2,0,1,,,,,,,,,,,,,
66621cff8f102c018ed8ad60,TCR,2024-06-25_10h40.02.960,LearnStrategy,2023.2.3,MacIntel,57.47126437,7,1,4,0.048321737,-0.012056512,1,0,0,1.5336,rock_grid_rect_2,8,05,-1,-1,1.534,0.385392388,-0.407059055,1,0,0,3.6163,Pumice_rect,8,3.616,1,3,0,3,0,1,,,,,,,,,,,,,
66621cff8f102c018ed8ad60,TCR,2024-06-25_10h40.02.960,LearnStrategy,2023.2.3,MacIntel,57.47126437,7,1,5,-0.042558187,0.007328118,1,0,0,0.8979,rock_grid_rect_2,1,07,-1,-1,0.898,-0.419162632,-0.253449029,1,0,0,1.9324,Andesite_rect,1,1.932,1,4,0,4,0,1,,,,,,,,,,,,,
66621cff8f102c018ed8ad60,TCR,2024-06-25_10h40.02.960,LearnStrategy,2023.2.3,MacIntel,57.47126437,7,1,6,-0.016223958,0.006556261,1,0,0,0.8659,rock_grid_rect_2,1,05,-1,-1,0.866,-0.368013238,-0.234567396,1,0,0,3.0737,Andesite_rect,1,3.074,1,5,0,5,0,1,,,,,,,,,,,,,
66621cff8f102c018ed8ad60,TCR,2024-06-25_10h40.02.960,LearnStrategy,2023.2.3,MacIntel,57.47126437,7,1,7,-0.041117486,-0.005252414,1,0,0,0.6265,rock_grid_rect_2,4,12,-1,-1,0.626,0.369854194,-0.247785509,1,0,0,2.479,Gabbro_rect,4,2.479,1,6,0,6,0,1,,,,,,,,,,,,,
66621cff8f102c018ed8ad60,TCR,2024-06-25_10h40.02.960,LearnStrategy,2023.2.3,MacIntel,57.47126437,7,1,8,-0.086493734,-0.011094428,1,0,0,0.9294,rock_grid_rect_2,7,12,-1,-1,0.929,0.129642334,-0.41600118,1,0,0,1.3364,Peridotite_rect,7,1.336,1,7,0,7,0,1,,,,,,,,,,,,,
66621cff8f102c018ed8ad60,TCR,2024-06-25_10h40.02.960,LearnStrategy,2023.2.3,MacIntel,57.47126437,7,1,9,-0.096209717,0.011166246,1,0,0,0.7337,rock_grid_rect_2,4,12,-1,-1,0.734,0.389255371,-0.234854465,1,0,0,1.4705,Gabbro_rect,4,1.471,1,8,0,8,0,1,,,,,,,,,,,,,
66621cff8f102c018ed8ad60,TCR,2024-06-25_10h40.02.960,LearnStrategy,2023.2.3,MacIntel,57.47126437,7,1,10,-0.018458659,-0.005336304,1,0,0,0.6959,rock_grid_rect_2,1,04,-1,-1,0.696,-0.379756266,-0.240022447,1,0,0,1.5627,Andesite_rect,1,1.563,1,9,0,9,0,1,,,,,,,,,,,,,
66621cff8f102c018ed8ad60,TCR,2024-06-25_10h40.02.960,LearnStrategy,2023.2.3,MacIntel,57.47126437,7,1,11,-0.011502143,0.017867906,1,0,0,1.4343,rock_grid_rect_2,2,05,-1,-1,1.434,-0.123104248,-0.245511678,1,0,0,1.4955,Basalt_rect,2,1.495,1,10,0,10,0,1,,,,,,,,,,,,,
66621cff8f102c018ed8ad60,TCR,2024-06-25_10h40.02.960,LearnStrategy,2023.2.3,MacIntel,57.47126437,7,1,12,-0.037429742,-0.016452535,1,0,0,0.5579,rock_grid_rect_2,6,10,-1,-1,0.558,-0.140750054,-0.407807549,1,0,0,1.6642,Pegmatite_rect,6,1.664,1,11,0,11,0,1,,,,,,,,,,,,,
66621cff8f102c018ed8ad60,TCR,2024-06-25_10h40.02.960,LearnStrategy,2023.2.3,MacIntel,57.47126437,7,1,13,-0.102321845,-0.017901476,1,0,0,0.8832,rock_grid_rect_2,3,08,-1,-1,0.883,0.134855754,-0.254942491,1,0,0,1.2777,Diorite_rect,3,1.278,1,12,0,12,0,1,,,,,,,,,,,,,
66621cff8f102c018ed8ad60,TCR,2024-06-25_10h40.02.960,LearnStrategy,2023.2.3,MacIntel,57.47126437,7,1,14,-0.052690294,-0.015076735,1,0,0,0.6316,rock_grid_rect_2,2,05,-1,-1,0.632,-0.135332235,-0.260595364,1,0,0,2.9577,Basalt_rect,2,2.958,1,13,0,13,0,1,,,,,,,,,,,,,
66621cff8f102c018ed8ad60,TCR,2024-06-25_10h40.02.960,LearnStrategy,2023.2.3,MacIntel,57.47126437,7,1,15,-0.101582099,0.000274251,1,0,0,0.5564,rock_grid_rect_2,1,07,-1,-1,0.556,-0.354210239,-0.239551459,1,0,0,1.4221,Andesite_rect,1,1.422,1,14,0,14,0,1,,,,,,,,,,,,,
66621cff8f102c018ed8ad60,TCR,2024-06-25_10h40.02.960,LearnStrategy,2023.2.3,MacIntel,57.47126437,7,1,16,-0.046148817,-0.011566976,1,0,0,0.9979,rock_grid_rect_2,3,08,-1,-1,0.998,0.141221178,-0.239925198,1,0,0,1.2091,Diorite_rect,3,1.209,1,15,0,15,0,1,,,,,,,,,,,,,
66621cff8f102c018ed8ad60,TCR,2024-06-25_10h40.02.960,LearnStrategy,2023.2.3,MacIntel,57.47126437,7,2,1,,,,,,,,6,07,,,,,,,,,,,6,2.296,1,,,,,,-0.128217706,-0.388808255,1,0,0,2.2959,Pegmatite_rect,0,0,0,0,1,
66621cff8f102c018ed8ad60,TCR,2024-06-25_10h40.02.960,LearnStrategy,2023.2.3,MacIntel,57.47126437,7,2,2,,,,,,,,1,16,,,,,,,,,,,1,1.918,1,,,,,,-0.354921604,-0.265876465,1,0,0,1.918,Andesite_rect,1,0,1,0,1,
66621cff8f102c018ed8ad60,TCR,2024-06-25_10h40.02.960,LearnStrategy,2023.2.3,MacIntel,57.47126437,7,2,3,,,,,,,,7,05,,,,,,,,,,,7,1.624,1,,,,,,0.129180162,-0.415187446,1,0,0,1.6245,Peridotite_rect,2,0,2,0,1,
66621cff8f102c018ed8ad60,TCR,2024-06-25_10h40.02.960,LearnStrategy,2023.2.3,MacIntel,57.47126437,7,2,4,,,,,,,,4,09,,,,,,,,,,,4,4.657,1,,,,,,0.367416721,-0.252383762,1,0,0,4.6574,Gabbro_rect,3,0,3,0,1,
66621cff8f102c018ed8ad60,TCR,2024-06-25_10h40.02.960,LearnStrategy,2023.2.3,MacIntel,57.47126437,7,2,5,,,,,,,,6,15,,,,,,,,,,,6,1.589,1,,,,,,-0.172549506,-0.405284966,1,0,0,1.5889,Pegmatite_rect,4,0,4,0,1,
66621cff8f102c018ed8ad60,TCR,2024-06-25_10h40.02.960,LearnStrategy,2023.2.3,MacIntel,57.47126437,7,2,6,,,,,,,,5,09,,,,,,,,,,,5,1.607,1,,,,,,-0.379515177,-0.40477417,1,0,0,1.6072,Obsidian_rect,5,0,5,0,1,
66621cff8f102c018ed8ad60,TCR,2024-06-25_10h40.02.960,LearnStrategy,2023.2.3,MacIntel,57.47126437,7,2,7,,,,,,,,2,16,,,,,,,,,,,2,17.09,1,,,,,,-0.129640435,-0.258491007,1,0,0,17.0899,Basalt_rect,6,0,6,0,1,
66621cff8f102c018ed8ad60,TCR,2024-06-25_10h40.02.960,LearnStrategy,2023.2.3,MacIntel,57.47126437,7,2,8,,,,,,,,1,10,,,,,,,,,,,1,2.807,1,,,,,,-0.394817098,-0.244141914,1,0,0,2.8072,Andesite_rect,7,0,7,0,1,
66621cff8f102c018ed8ad60,TCR,2024-06-25_10h40.02.960,LearnStrategy,2023.2.3,MacIntel,57.47126437,7,2,9,,,,,,,,4,13,,,,,,,,,,,4,2.77,1,,,,,,0.397175836,-0.261750149,1,0,0,2.7698,Gabbro_rect,8,0,8,0,1,
66621cff8f102c018ed8ad60,TCR,2024-06-25_10h40.02.960,LearnStrategy,2023.2.3,MacIntel,57.47126437,7,2,10,,,,,,,,8,13,,,,,,,,,,,8,1.797,1,,,,,,0.388136258,-0.411778022,1,0,0,1.7974,Pumice_rect,9,0,9,0,1,
66621cff8f102c018ed8ad60,TCR,2024-06-25_10h40.02.960,LearnStrategy,2023.2.3,MacIntel,57.47126437,7,2,11,,,,,,,,8,09,,,,,,,,,,,8,2.479,1,,,,,,0.405758735,-0.40458842,1,0,0,2.4787,Pumice_rect,10,0,10,0,1,
66621cff8f102c018ed8ad60,TCR,2024-06-25_10h40.02.960,LearnStrategy,2023.2.3,MacIntel,57.47126437,7,2,12,,,,,,,,3,12,,,,,,,,,,,3,1.278,1,,,,,,0.119419217,-0.242553168,1,0,0,1.2783,Diorite_rect,11,0,11,0,1,
66621cff8f102c018ed8ad60,TCR,2024-06-25_10h40.02.960,LearnStrategy,2023.2.3,MacIntel,57.47126437,7,2,13,,,,,,,,7,14,,,,,,,,,,,7,1.221,1,,,,,,0.124903293,-0.407398003,1,0,0,1.2214,Peridotite_rect,12,0,12,0,1,
66621cff8f102c018ed8ad60,TCR,2024-06-25_10h40.02.960,LearnStrategy,2023.2.3,MacIntel,57.47126437,7,2,14,,,,,,,,3,11,,,,,,,,,,,3,1.708,1,,,,,,0.107019179,-0.23621738,1,0,0,1.708,Diorite_rect,13,0,13,0,1,
66621cff8f102c018ed8ad60,TCR,2024-06-25_10h40.02.960,LearnStrategy,2023.2.3,MacIntel,57.47126437,7,2,15,,,,,,,,5,07,,,,,,,,,,,5,1.293,1,,,,,,-0.425854051,-0.384939846,1,0,0,1.2933,Obsidian_rect,14,0,14,0,1,
66621cff8f102c018ed8ad60,TCR,2024-06-25_10h40.02.960,LearnStrategy,2023.2.3,MacIntel,57.47126437,7,2,16,,,,,,,,2,09,,,,,,,,,,,2,3.149,1,,,,,,-0.12184611,-0.251610379,1,0,0,3.1488,Basalt_rect,15,0,15,0,1,
66621cff8f102c018ed8ad60,TCR,2024-06-25_10h40.02.960,LearnStrategy,2023.2.3,MacIntel,57.47126437,8,1,1,-0.058940972,-0.009605238,1,0,0,1.2258,rock_grid_rect_2,1,09,-1,-1,1.226,-0.363750949,-0.256100396,1,0,0,1.9453,Andesite_rect,1,1.945,1,0,0,0,0,1,,,,,,,,,,,,,
66621cff8f102c018ed8ad60,TCR,2024-06-25_10h40.02.960,LearnStrategy,2023.2.3,MacIntel,57.47126437,8,1,2,-0.03807407,0.008401218,1,0,0,1.0288,rock_grid_rect_2,3,08,-1,-1,1.029,0.100016954,-0.268502469,1,0,0,1.0183,Diorite_rect,3,1.018,1,1,0,1,0,1,,,,,,,,,,,,,
66621cff8f102c018ed8ad60,TCR,2024-06-25_10h40.02.960,LearnStrategy,2023.2.3,MacIntel,57.47126437,8,1,3,-0.067522176,0.018924357,1,0,0,0.66,rock_grid_rect_2,3,13,-1,-1,0.66,0.121789008,-0.255907593,1,0,0,1.1918,Diorite_rect,3,1.192,1,2,0,2,0,1,,,,,,,,,,,,,
66621cff8f102c018ed8ad60,TCR,2024-06-25_10h40.02.960,LearnStrategy,2023.2.3,MacIntel,57.47126437,8,1,4,-0.026490207,-0.007815179,1,0,0,0.7389,rock_grid_rect_2,4,08,-1,-1,0.739,-0.413998345,-0.265226373,1,0,0,1.5529,Andesite_rect,1,1.553,0,3,0,3,0,1,,,,,,,,,,,,,
66621cff8f102c018ed8ad60,TCR,2024-06-25_10h40.02.960,LearnStrategy,2023.2.3,MacIntel,57.47126437,8,1,5,-0.000440674,0.009488017,1,0,0,0.7477,rock_grid_rect_2,2,08,-1,-1,0.748,-0.109358927,-0.240800035,1,0,0,1.2919,Basalt_rect,2,1.292,1,4,0,4,0,1,,,,,,,,,,,,,
66621cff8f102c018ed8ad60,TCR,2024-06-25_10h40.02.960,LearnStrategy,2023.2.3,MacIntel,57.47126437,8,1,6,-0.036013726,-0.019192505,1,0,0,0.7281,rock_grid_rect_2,5,06,-1,-1,0.728,-0.389914483,-0.417332153,1,0,0,1.1506,Obsidian_rect,5,1.151,1,5,0,5,0,1,,,,,,,,,,,,,
66621cff8f102c018ed8ad60,TCR,2024-06-25_10h40.02.960,LearnStrategy,2023.2.3,MacIntel,57.47126437,8,1,7,-0.073872206,0.004942491,1,0,0,1.3785,rock_grid_rect_2,6,11,-1,-1,1.379,-0.100581123,-0.398208957,1,0,0,1.2116,Pegmatite_rect,6,1.212,1,6,0,6,0,1,,,,,,,,,,,,,
66621cff8f102c018ed8ad60,TCR,2024-06-25_10h40.02.960,LearnStrategy,2023.2.3,MacIntel,57.47126437,8,1,8,-0.048102553,-0.003909064,1,0,0,0.8968,rock_grid_rect_2,7,07,-1,-1,0.897,0.155455865,-0.421412286,1,0,0,1.2621,Peridotite_rect,7,1.262,1,7,0,7,0,1,,,,,,,,,,,,,
66621cff8f102c018ed8ad60,TCR,2024-06-25_10h40.02.960,LearnStrategy,2023.2.3,MacIntel,57.47126437,8,1,9,-0.019453396,0.01678694,1,0,0,0.7185,rock_grid_rect_2,1,14,-1,-1,0.718,-0.378221503,-0.255002374,1,0,0,3.0966,Andesite_rect,1,3.097,1,8,0,8,0,1,,,,,,,,,,,,,
66621cff8f102c018ed8ad60,TCR,2024-06-25_10h40.02.960,LearnStrategy,2023.2.3,MacIntel,57.47126437,8,1,10,-0.050754869,0.002514581,1,0,0,0.6437,rock_grid_rect_2,2,05,-1,-1,0.644,-0.137281359,-0.243675876,1,0,0,1.4279,Basalt_rect,2,1.428,1,9,0,9,0,1,,,,,,,,,,,,,
66621cff8f102c018ed8ad60,TCR,2024-06-25_10h40.02.960,LearnStrategy,2023.2.3,MacIntel,57.47126437,8,1,11,-0.048413493,0.002551473,1,0,0,0.6639,rock_grid_rect_2,8,05,-1,-1,0.664,0.378844265,-0.389721002,1,0,0,1.0962,Pumice_rect,8,1.096,1,10,0,10,0,1,,,,,,,,,,,,,
66621cff8f102c018ed8ad60,TCR,2024-06-25_10h40.02.960,LearnStrategy,2023.2.3,MacIntel,57.47126437,8,1,12,-0.079776069,0.0043593,1,0,0,0.6338,rock_grid_rect_2,1,11,-1,-1,0.634,-0.425173781,-0.270884738,1,0,0,1.4749,Andesite_rect,1,1.475,1,11,0,11,0,1,,,,,,,,,,,,,
66621cff8f102c018ed8ad60,TCR,2024-06-25_10h40.02.960,LearnStrategy,2023.2.3,MacIntel,57.47126437,8,1,13,-5.14052E-05,-0.005619236,1,0,0,0.7423,rock_grid_rect_2,3,07,-1,-1,0.742,0.159223022,-0.237256741,1,0,0,1.1695,Diorite_rect,3,1.169,1,12,0,12,0,1,,,,,,,,,,,,,
66621cff8f102c018ed8ad60,TCR,2024-06-25_10h40.02.960,LearnStrategy,2023.2.3,MacIntel,57.47126437,8,1,14,-0.080254042,0.006732992,1,0,0,0.7817,rock_grid_rect_2,4,08,-1,-1,0.782,0.362132026,-0.233237373,1,0,0,2.4845,Gabbro_rect,4,2.485,1,13,0,13,0,1,,,,,,,,,,,,,
66621cff8f102c018ed8ad60,TCR,2024-06-25_10h40.02.960,LearnStrategy,2023.2.3,MacIntel,57.47126437,8,1,15,-0.069644368,0.012316115,1,0,0,0.6341,rock_grid_rect_2,2,12,-1,-1,0.634,-0.138154704,-0.258851725,1,0,0,2.3647,Basalt_rect,2,2.365,1,14,0,14,0,1,,,,,,,,,,,,,
66621cff8f102c018ed8ad60,TCR,2024-06-25_10h40.02.960,LearnStrategy,2023.2.3,MacIntel,57.47126437,8,1,16,-0.005798001,0.010730218,1,0,0,0.8154,rock_grid_rect_2,4,05,-1,-1,0.815,0.397051459,-0.248679877,1,0,0,1.394,Gabbro_rect,4,1.394,1,15,0,15,0,1,,,,,,,,,,,,,
66621cff8f102c018ed8ad60,TCR,2024-06-25_10h40.02.960,LearnStrategy,2023.2.3,MacIntel,57.47126437,8,2,1,,,,,,,,6,16,,,,,,,,,,,6,1.869,1,,,,,,-0.148593072,-0.402685004,1,0,0,1.8687,Pegmatite_rect,0,0,0,0,1,
66621cff8f102c018ed8ad60,TCR,2024-06-25_10h40.02.960,LearnStrategy,2023.2.3,MacIntel,57.47126437,8,2,2,,,,,,,,1,06,,,,,,,,,,,1,1.383,1,,,,,,-0.435872735,-0.228565063,1,0,0,1.3828,Andesite_rect,1,0,1,0,1,
66621cff8f102c018ed8ad60,TCR,2024-06-25_10h40.02.960,LearnStrategy,2023.2.3,MacIntel,57.47126437,8,2,3,,,,,,,,8,03,,,,,,,,,,,8,1.209,1,,,,,,0.408035482,-0.418046129,1,0,0,1.2085,Pumice_rect,2,0,2,0,1,
66621cff8f102c018ed8ad60,TCR,2024-06-25_10h40.02.960,LearnStrategy,2023.2.3,MacIntel,57.47126437,8,2,4,,,,,,,,6,05,,,,,,,,,,,6,2.386,1,,,,,,-0.130733982,-0.397965834,1,0,0,2.3863,Pegmatite_rect,3,0,3,0,1,
66621cff8f102c018ed8ad60,TCR,2024-06-25_10h40.02.960,LearnStrategy,2023.2.3,MacIntel,57.47126437,8,2,5,,,,,,,,5,04,,,,,,,,,,,5,1.195,1,,,,,,-0.421886292,-0.414905599,1,0,0,1.1946,Obsidian_rect,4,0,4,0,1,
66621cff8f102c018ed8ad60,TCR,2024-06-25_10h40.02.960,LearnStrategy,2023.2.3,MacIntel,57.47126437,8,2,6,,,,,,,,8,10,,,,,,,,,,,8,1.179,1,,,,,,0.440046522,-0.40759535,1,0,0,1.1788,Pumice_rect,5,0,5,0,1,
66621cff8f102c018ed8ad60,TCR,2024-06-25_10h40.02.960,LearnStrategy,2023.2.3,MacIntel,57.47126437,8,2,7,,,,,,,,2,10,,,,,,,,,,,5,1.776,0,,,,,,-0.39400533,-0.406613227,1,0,0,1.7756,Obsidian_rect,6,0,6,0,1,
66621cff8f102c018ed8ad60,TCR,2024-06-25_10h40.02.960,LearnStrategy,2023.2.3,MacIntel,57.47126437,8,2,8,,,,,,,,7,15,,,,,,,,,,,7,3.847,1,,,,,,0.129494086,-0.399438273,1,0,0,3.8467,Peridotite_rect,7,0,7,0,1,
66621cff8f102c018ed8ad60,TCR,2024-06-25_10h40.02.960,LearnStrategy,2023.2.3,MacIntel,57.47126437,8,2,9,,,,,,,,4,10,,,,,,,,,,,4,3.08,1,,,,,,0.384745416,-0.246329414,1,0,0,3.0802,Gabbro_rect,8,0,8,0,1,
66621cff8f102c018ed8ad60,TCR,2024-06-25_10h40.02.960,LearnStrategy,2023.2.3,MacIntel,57.47126437,8,2,10,,,,,,,,4,03,,,,,,,,,,,4,7.119,1,,,,,,0.384219021,-0.241932441,1,0,0,7.119,Gabbro_rect,9,0,9,0,1,
66621cff8f102c018ed8ad60,TCR,2024-06-25_10h40.02.960,LearnStrategy,2023.2.3,MacIntel,57.47126437,8,2,11,,,,,,,,7,04,,,,,,,,,,,7,1.764,1,,,,,,0.116293064,-0.404858466,1,0,0,1.7644,Peridotite_rect,10,0,10,0,1,
66621cff8f102c018ed8ad60,TCR,2024-06-25_10h40.02.960,LearnStrategy,2023.2.3,MacIntel,57.47126437,8,2,12,,,,,,,,5,10,,,,,,,,,,,5,1.268,1,,,,,,-0.4246973,-0.407628988,1,0,0,1.2678,Obsidian_rect,11,0,11,0,1,
66621cff8f102c018ed8ad60,TCR,2024-06-25_10h40.02.960,LearnStrategy,2023.2.3,MacIntel,57.47126437,8,2,13,,,,,,,,1,02,,,,,,,,,,,1,1.912,1,,,,,,-0.382048679,-0.252883911,1,0,0,1.912,Andesite_rect,12,0,12,0,1,
66621cff8f102c018ed8ad60,TCR,2024-06-25_10h40.02.960,LearnStrategy,2023.2.3,MacIntel,57.47126437,8,2,14,,,,,,,,2,04,,,,,,,,,,,2,3.573,1,,,,,,-0.159155273,-0.256732246,1,0,0,3.5734,Basalt_rect,13,0,13,0,1,
66621cff8f102c018ed8ad60,TCR,2024-06-25_10h40.02.960,LearnStrategy,2023.2.3,MacIntel,57.47126437,8,2,15,,,,,,,,3,16,,,,,,,,,,,3,3.178,1,,,,,,0.114315321,-0.25323622,1,0,0,3.1777,Diorite_rect,14,0,14,0,1,
66621cff8f102c018ed8ad60,TCR,2024-06-25_10h40.02.960,LearnStrategy,2023.2.3,MacIntel,57.47126437,8,2,16,,,,,,,,3,15,,,,,,,,,,,3,1.425,1,,,,,,0.102488336,-0.255694038,1,0,0,1.4249,Diorite_rect,15,0,15,0,1,
66621cff8f102c018ed8ad60,TCR,2024-06-25_10h40.02.960,LearnStrategy,2023.2.3,MacIntel,57.47126437,9,1,1,-0.00025906,0.007374437,1,0,0,1.2319,rock_grid_rect_2,3,14,-1,-1,1.232,0.151807658,-0.239078708,1,0,0,2.661,Diorite_rect,3,2.661,1,0,0,0,0,1,,,,,,,,,,,,,
66621cff8f102c018ed8ad60,TCR,2024-06-25_10h40.02.960,LearnStrategy,2023.2.3,MacIntel,57.47126437,9,1,2,0.040051405,-0.006994663,1,0,0,0.8627,rock_grid_rect_2,6,11,-1,-1,0.863,-0.173012153,-0.391048177,1,0,0,1.12,Pegmatite_rect,6,1.12,1,1,0,1,0,1,,,,,,,,,,,,,
66621cff8f102c018ed8ad60,TCR,2024-06-25_10h40.02.960,LearnStrategy,2023.2.3,MacIntel,57.47126437,9,1,3,-0.040787625,-0.01444102,1,0,0,0.697,rock_grid_rect_2,2,08,-1,-1,0.697,-0.15615804,-0.242568224,1,0,0,1.8957,Basalt_rect,2,1.896,1,2,0,2,0,1,,,,,,,,,,,,,
66621cff8f102c018ed8ad60,TCR,2024-06-25_10h40.02.960,LearnStrategy,2023.2.3,MacIntel,57.47126437,9,1,4,-0.010142144,-0.020010647,1,0,0,0.7015,rock_grid_rect_2,7,07,-1,-1,0.702,0.119749281,-0.402275933,1,0,0,1.023,Peridotite_rect,7,1.023,1,3,0,3,0,1,,,,,,,,,,,,,
66621cff8f102c018ed8ad60,TCR,2024-06-25_10h40.02.960,LearnStrategy,2023.2.3,MacIntel,57.47126437,9,1,5,-0.067030843,0.003826396,1,0,0,0.6675,rock_grid_rect_2,4,08,-1,-1,0.668,0.438872342,-0.265550401,1,0,0,3.6315,Gabbro_rect,4,3.631,1,4,0,4,0,1,,,,,,,,,,,,,
66621cff8f102c018ed8ad60,TCR,2024-06-25_10h40.02.960,LearnStrategy,2023.2.3,MacIntel,57.47126437,9,1,6,-0.006867269,-0.012173326,1,0,0,0.6624,rock_grid_rect_2,4,15,-1,-1,0.662,0.384660509,-0.251619195,1,0,0,1.3656,Gabbro_rect,4,1.366,1,5,0,5,0,1,,,,,,,,,,,,,
66621cff8f102c018ed8ad60,TCR,2024-06-25_10h40.02.960,LearnStrategy,2023.2.3,MacIntel,57.47126437,9,1,7,-0.033573608,0.007508138,1,0,0,0.6519,rock_grid_rect_2,2,08,-1,-1,0.652,-0.139223294,-0.238860474,1,0,0,1.1259,Basalt_rect,2,1.126,1,6,0,6,0,1,,,,,,,,,,,,,
66621cff8f102c018ed8ad60,TCR,2024-06-25_10h40.02.960,LearnStrategy,2023.2.3,MacIntel,57.47126437,9,1,8,0.00482293,-0.013634881,1,0,0,0.6787,rock_grid_rect_2,2,06,-1,-1,0.679,-0.093388604,-0.251175266,1,0,0,1.9302,Basalt_rect,2,1.93,1,7,0,7,0,1,,,,,,,,,,,,,
66621cff8f102c018ed8ad60,TCR,2024-06-25_10h40.02.960,LearnStrategy,2023.2.3,MacIntel,57.47126437,9,1,9,-0.027839898,0.002190382,1,0,0,0.7998,rock_grid_rect_2,5,02,-1,-1,0.8,-0.379625414,-0.39451572,1,0,0,1.1361,Obsidian_rect,5,1.136,1,8,0,8,0,1,,,,,,,,,,,,,
66621cff8f102c018ed8ad60,TCR,2024-06-25_10h40.02.960,LearnStrategy,2023.2.3,MacIntel,57.47126437,9,1,10,-0.014932048,-0.004559292,1,0,0,0.8143,rock_grid_rect_2,3,08,-1,-1,0.814,0.170131632,-0.241668294,1,0,0,1.1792,Diorite_rect,3,1.179,1,9,0,9,0,1,,,,,,,,,,,,,
66621cff8f102c018ed8ad60,TCR,2024-06-25_10h40.02.960,LearnStrategy,2023.2.3,MacIntel,57.47126437,9,1,11,-0.049687907,0.018178372,1,0,0,0.7314,rock_grid_rect_2,2,14,-1,-1,0.731,-0.128574626,-0.247455309,1,0,0,3.5507,Basalt_rect,2,3.551,1,10,0,10,0,1,,,,,,,,,,,,,
66621cff8f102c018ed8ad60,TCR,2024-06-25_10h40.02.960,LearnStrategy,2023.2.3,MacIntel,57.47126437,9,1,12,-0.033017985,-0.003679301,1,0,0,0.7129,rock_grid_rect_2,5,14,-1,-1,0.713,-0.393404677,-0.39970147,1,0,0,1.4407,Obsidian_rect,5,1.441,1,11,0,11,0,1,,,,,,,,,,,,,
66621cff8f102c018ed8ad60,TCR,2024-06-25_10h40.02.960,LearnStrategy,2023.2.3,MacIntel,57.47126437,9,1,13,0.011114705,0.00416531,1,0,0,0.7349,rock_grid_rect_2,1,04,-1,-1,0.735,-0.421864895,-0.256970893,1,0,0,1.6919,Andesite_rect,1,1.692,1,12,0,12,0,1,,,,,,,,,,,,,
66621cff8f102c018ed8ad60,TCR,2024-06-25_10h40.02.960,LearnStrategy,2023.2.3,MacIntel,57.47126437,9,1,14,0.017484673,-0.000782878,1,0,0,0.7338,rock_grid_rect_2,1,07,-1,-1,0.734,-0.338613892,-0.23561971,1,0,0,1.356,Andesite_rect,1,1.356,1,13,0,13,0,1,,,,,,,,,,,,,
66621cff8f102c018ed8ad60,TCR,2024-06-25_10h40.02.960,LearnStrategy,2023.2.3,MacIntel,57.47126437,9,1,15,-0.036397841,-0.012946879,1,0,0,0.6477,rock_grid_rect_2,1,07,-1,-1,0.648,-0.373145413,-0.249908447,1,0,0,1.0094,Andesite_rect,1,1.009,1,14,0,14,0,1,,,,,,,,,,,,,
66621cff8f102c018ed8ad60,TCR,2024-06-25_10h40.02.960,LearnStrategy,2023.2.3,MacIntel,57.47126437,9,1,16,-0.05174235,0.000594109,1,0,0,0.7663,rock_grid_rect_2,8,06,-1,-1,0.766,0.395825195,-0.403372871,1,0,0,1.1814,Pumice_rect,8,1.181,1,15,0,15,0,1,,,,,,,,,,,,,
66621cff8f102c018ed8ad60,TCR,2024-06-25_10h40.02.960,LearnStrategy,2023.2.3,MacIntel,57.47126437,9,2,1,,,,,,,,6,09,,,,,,,,,,,6,2.077,1,,,,,,-0.145644463,-0.400804511,1,0,0,2.0768,Pegmatite_rect,0,0,0,0,1,
66621cff8f102c018ed8ad60,TCR,2024-06-25_10h40.02.960,LearnStrategy,2023.2.3,MacIntel,57.47126437,9,2,2,,,,,,,,4,11,,,,,,,,,,,1,2.212,0,,,,,,-0.387396478,-0.241294963,1,0,0,2.2115,Andesite_rect,1,0,1,0,1,
66621cff8f102c018ed8ad60,TCR,2024-06-25_10h40.02.960,LearnStrategy,2023.2.3,MacIntel,57.47126437,9,2,3,,,,,,,,4,14,,,,,,,,,,,4,2.205,1,,,,,,0.399380425,-0.241110026,1,0,0,2.2045,Gabbro_rect,2,0,2,0,1,
66621cff8f102c018ed8ad60,TCR,2024-06-25_10h40.02.960,LearnStrategy,2023.2.3,MacIntel,57.47126437,9,2,4,,,,,,,,5,16,,,,,,,,,,,5,1.206,1,,,,,,-0.40320204,-0.398292982,1,0,0,1.2059,Obsidian_rect,3,0,3,0,1,
66621cff8f102c018ed8ad60,TCR,2024-06-25_10h40.02.960,LearnStrategy,2023.2.3,MacIntel,57.47126437,9,2,5,,,,,,,,8,14,,,,,,,,,,,8,1.181,1,,,,,,0.362257216,-0.399781223,1,0,0,1.181,Pumice_rect,4,0,4,0,1,
66621cff8f102c018ed8ad60,TCR,2024-06-25_10h40.02.960,LearnStrategy,2023.2.3,MacIntel,57.47126437,9,2,6,,,,,,,,8,15,,,,,,,,,,,8,1.146,1,,,,,,0.361916233,-0.399126044,1,0,0,1.1456,Pumice_rect,5,0,5,0,1,
66621cff8f102c018ed8ad60,TCR,2024-06-25_10h40.02.960,LearnStrategy,2023.2.3,MacIntel,57.47126437,9,2,7,,,,,,,,3,02,,,,,,,,,,,3,5.686,1,,,,,,0.127369656,-0.25710144,1,0,0,5.6858,Diorite_rect,6,0,6,0,1,
66621cff8f102c018ed8ad60,TCR,2024-06-25_10h40.02.960,LearnStrategy,2023.2.3,MacIntel,57.47126437,9,2,8,,,,,,,,5,08,,,,,,,,,,,5,2.082,1,,,,,,-0.45211697,-0.406291911,1,0,0,2.0816,Obsidian_rect,7,0,7,0,1,
66621cff8f102c018ed8ad60,TCR,2024-06-25_10h40.02.960,LearnStrategy,2023.2.3,MacIntel,57.47126437,9,2,9,,,,,,,,1,01,,,,,,,,,,,4,4.377,0,,,,,,0.446220296,-0.245401747,1,0,0,4.3774,Gabbro_rect,8,0,8,0,1,
66621cff8f102c018ed8ad60,TCR,2024-06-25_10h40.02.960,LearnStrategy,2023.2.3,MacIntel,57.47126437,9,2,10,,,,,,,,6,03,,,,,,,,,,,6,1.791,1,,,,,,-0.175917833,-0.407027384,1,0,0,1.7908,Pegmatite_rect,9,0,9,0,1,
66621cff8f102c018ed8ad60,TCR,2024-06-25_10h40.02.960,LearnStrategy,2023.2.3,MacIntel,57.47126437,9,2,11,,,,,,,,2,11,,,,,,,,,,,2,7.742,1,,,,,,-0.159437527,-0.245687934,1,0,0,7.7421,Basalt_rect,10,0,10,0,1,
66621cff8f102c018ed8ad60,TCR,2024-06-25_10h40.02.960,LearnStrategy,2023.2.3,MacIntel,57.47126437,9,2,12,,,,,,,,2,02,,,,,,,,,,,2,3.148,1,,,,,,-0.12325826,-0.238559435,1,0,0,3.1476,Basalt_rect,11,0,11,0,1,
66621cff8f102c018ed8ad60,TCR,2024-06-25_10h40.02.960,LearnStrategy,2023.2.3,MacIntel,57.47126437,9,2,13,,,,,,,,1,03,,,,,,,,,,,1,3.351,1,,,,,,-0.393847961,-0.251727159,1,0,0,3.3509,Andesite_rect,12,0,12,0,1,
66621cff8f102c018ed8ad60,TCR,2024-06-25_10h40.02.960,LearnStrategy,2023.2.3,MacIntel,57.47126437,9,2,14,,,,,,,,3,10,,,,,,,,,,,3,1.386,1,,,,,,0.153567437,-0.241304728,1,0,0,1.3863,Diorite_rect,13,0,13,0,1,
66621cff8f102c018ed8ad60,TCR,2024-06-25_10h40.02.960,LearnStrategy,2023.2.3,MacIntel,57.47126437,9,2,15,,,,,,,,7,10,,,,,,,,,,,7,1.573,1,,,,,,0.110136651,-0.40820204,1,0,0,1.5729,Peridotite_rect,14,0,14,0,1,
66621cff8f102c018ed8ad60,TCR,2024-06-25_10h40.02.960,LearnStrategy,2023.2.3,MacIntel,57.47126437,9,2,16,,,,,,,,7,06,,,,,,,,,,,7,2.67,1,,,,,,0.105500217,-0.408874376,1,0,0,2.6704,Peridotite_rect,15,0,15,0,1,
66621cff8f102c018ed8ad60,TCR,2024-06-25_10h40.02.960,LearnStrategy,2023.2.3,MacIntel,57.47126437,,,,,,,,,,,,,,,,,,,,,,,,,,,,,,,,,,,,,,,,,,,1
66621cff8f102c018ed8ad60,TCR,2024-06-25_10h40.02.960,LearnStrategy,2023.2.3,MacIntel,57.47126437,,,,,,,,,,,,,,,,,,,,,,,,,,,,,,,,,,,,,,,,,,,
66621cff8f102c018ed8ad60,TCR,2024-06-25_10h40.02.960,LearnStrategy,2023.2.3,MacIntel,57.47126437,,,,,,,,,,,1,14,1,1,,,,,,,,,,,,,,,,,,,,,,,,,,,,,
66621cff8f102c018ed8ad60,TCR,2024-06-25_10h40.02.960,LearnStrategy,2023.2.3,MacIntel,57.47126437,,,,,,,,,,,8,05,1,2,,,,,,,,,,,,,,,,,,,,,,,,,,,,,
66621cff8f102c018ed8ad60,TCR,2024-06-25_10h40.02.960,LearnStrategy,2023.2.3,MacIntel,57.47126437,,,,,,,,,,,7,02,1,3,,,,,,,,,,,,,,,,,,,,,,,,,,,,,
66621cff8f102c018ed8ad60,TCR,2024-06-25_10h40.02.960,LearnStrategy,2023.2.3,MacIntel,57.47126437,,,,,,,,,,,7,13,1,4,,,,,,,,,,,,,,,,,,,,,,,,,,,,,
66621cff8f102c018ed8ad60,TCR,2024-06-25_10h40.02.960,LearnStrategy,2023.2.3,MacIntel,57.47126437,,,,,,,,,,,8,04,1,5,,,,,,,,,,,,,,,,,,,,,,,,,,,,,
66621cff8f102c018ed8ad60,TCR,2024-06-25_10h40.02.960,LearnStrategy,2023.2.3,MacIntel,57.47126437,,,,,,,,,,,8,08,1,6,,,,,,,,,,,,,,,,,,,,,,,,,,,,,
66621cff8f102c018ed8ad60,TCR,2024-06-25_10h40.02.960,LearnStrategy,2023.2.3,MacIntel,57.47126437,,,,,,,,,,,5,11,1,7,,,,,,,,,,,,,,,,,,,,,,,,,,,,,
66621cff8f102c018ed8ad60,TCR,2024-06-25_10h40.02.960,LearnStrategy,2023.2.3,MacIntel,57.47126437,,,,,,,,,,,5,05,1,8,,,,,,,,,,,,,,,,,,,,,,,,,,,,,
66621cff8f102c018ed8ad60,TCR,2024-06-25_10h40.02.960,LearnStrategy,2023.2.3,MacIntel,57.47126437,,,,,,,,,,,6,06,2,1,,,,,,,,,,,,,,,,,,,,,,,,,,,,,
66621cff8f102c018ed8ad60,TCR,2024-06-25_10h40.02.960,LearnStrategy,2023.2.3,MacIntel,57.47126437,,,,,,,,,,,6,10,2,2,,,,,,,,,,,,,,,,,,,,,,,,,,,,,
66621cff8f102c018ed8ad60,TCR,2024-06-25_10h40.02.960,LearnStrategy,2023.2.3,MacIntel,57.47126437,,,,,,,,,,,7,12,2,3,,,,,,,,,,,,,,,,,,,,,,,,,,,,,
66621cff8f102c018ed8ad60,TCR,2024-06-25_10h40.02.960,LearnStrategy,2023.2.3,MacIntel,57.47126437,,,,,,,,,,,1,04,2,4,,,,,,,,,,,,,,,,,,,,,,,,,,,,,
66621cff8f102c018ed8ad60,TCR,2024-06-25_10h40.02.960,LearnStrategy,2023.2.3,MacIntel,57.47126437,,,,,,,,,,,3,09,2,5,,,,,,,,,,,,,,,,,,,,,,,,,,,,,
66621cff8f102c018ed8ad60,TCR,2024-06-25_10h40.02.960,LearnStrategy,2023.2.3,MacIntel,57.47126437,,,,,,,,,,,5,14,2,6,,,,,,,,,,,,,,,,,,,,,,,,,,,,,
66621cff8f102c018ed8ad60,TCR,2024-06-25_10h40.02.960,LearnStrategy,2023.2.3,MacIntel,57.47126437,,,,,,,,,,,2,01,2,7,,,,,,,,,,,,,,,,,,,,,,,,,,,,,
66621cff8f102c018ed8ad60,TCR,2024-06-25_10h40.02.960,LearnStrategy,2023.2.3,MacIntel,57.47126437,,,,,,,,,,,7,07,2,8,,,,,,,,,,,,,,,,,,,,,,,,,,,,,
66621cff8f102c018ed8ad60,TCR,2024-06-25_10h40.02.960,LearnStrategy,2023.2.3,MacIntel,57.47126437,,,,,,,,,,,1,09,3,1,,,,,,,,,,,,,,,,,,,,,,,,,,,,,
66621cff8f102c018ed8ad60,TCR,2024-06-25_10h40.02.960,LearnStrategy,2023.2.3,MacIntel,57.47126437,,,,,,,,,,,5,12,3,2,,,,,,,,,,,,,,,,,,,,,,,,,,,,,
66621cff8f102c018ed8ad60,TCR,2024-06-25_10h40.02.960,LearnStrategy,2023.2.3,MacIntel,57.47126437,,,,,,,,,,,3,13,3,3,,,,,,,,,,,,,,,,,,,,,,,,,,,,,
66621cff8f102c018ed8ad60,TCR,2024-06-25_10h40.02.960,LearnStrategy,2023.2.3,MacIntel,57.47126437,,,,,,,,,,,2,05,3,4,,,,,,,,,,,,,,,,,,,,,,,,,,,,,
66621cff8f102c018ed8ad60,TCR,2024-06-25_10h40.02.960,LearnStrategy,2023.2.3,MacIntel,57.47126437,,,,,,,,,,,7,08,3,5,,,,,,,,,,,,,,,,,,,,,,,,,,,,,
66621cff8f102c018ed8ad60,TCR,2024-06-25_10h40.02.960,LearnStrategy,2023.2.3,MacIntel,57.47126437,,,,,,,,,,,5,02,3,6,,,,,,,,,,,,,,,,,,,,,,,,,,,,,
66621cff8f102c018ed8ad60,TCR,2024-06-25_10h40.02.960,LearnStrategy,2023.2.3,MacIntel,57.47126437,,,,,,,,,,,8,06,3,7,,,,,,,,,,,,,,,,,,,,,,,,,,,,,
66621cff8f102c018ed8ad60,TCR,2024-06-25_10h40.02.960,LearnStrategy,2023.2.3,MacIntel,57.47126437,,,,,,,,,,,3,14,3,8,,,,,,,,,,,,,,,,,,,,,,,,,,,,,
66621cff8f102c018ed8ad60,TCR,2024-06-25_10h40.02.960,LearnStrategy,2023.2.3,MacIntel,57.47126437,,,,,,,,,,,7,16,4,1,,,,,,,,,,,,,,,,,,,,,,,,,,,,,
66621cff8f102c018ed8ad60,TCR,2024-06-25_10h40.02.960,LearnStrategy,2023.2.3,MacIntel,57.47126437,,,,,,,,,,,2,12,4,2,,,,,,,,,,,,,,,,,,,,,,,,,,,,,
66621cff8f102c018ed8ad60,TCR,2024-06-25_10h40.02.960,LearnStrategy,2023.2.3,MacIntel,57.47126437,,,,,,,,,,,6,11,4,3,,,,,,,,,,,,,,,,,,,,,,,,,,,,,
66621cff8f102c018ed8ad60,TCR,2024-06-25_10h40.02.960,LearnStrategy,2023.2.3,MacIntel,57.47126437,,,,,,,,,,,3,08,4,4,,,,,,,,,,,,,,,,,,,,,,,,,,,,,
66621cff8f102c018ed8ad60,TCR,2024-06-25_10h40.02.960,LearnStrategy,2023.2.3,MacIntel,57.47126437,,,,,,,,,,,2,14,4,5,,,,,,,,,,,,,,,,,,,,,,,,,,,,,
66621cff8f102c018ed8ad60,TCR,2024-06-25_10h40.02.960,LearnStrategy,2023.2.3,MacIntel,57.47126437,,,,,,,,,,,2,08,4,6,,,,,,,,,,,,,,,,,,,,,,,,,,,,,
66621cff8f102c018ed8ad60,TCR,2024-06-25_10h40.02.960,LearnStrategy,2023.2.3,MacIntel,57.47126437,,,,,,,,,,,4,16,4,7,,,,,,,,,,,,,,,,,,,,,,,,,,,,,
66621cff8f102c018ed8ad60,TCR,2024-06-25_10h40.02.960,LearnStrategy,2023.2.3,MacIntel,57.47126437,,,,,,,,,,,2,06,4,8,,,,,,,,,,,,,,,,,,,,,,,,,,,,,
66621cff8f102c018ed8ad60,TCR,2024-06-25_10h40.02.960,LearnStrategy,2023.2.3,MacIntel,57.47126437,,,,,,,,,,,1,05,5,1,,,,,,,,,,,,,,,,,,,,,,,,,,,,,
66621cff8f102c018ed8ad60,TCR,2024-06-25_10h40.02.960,LearnStrategy,2023.2.3,MacIntel,57.47126437,,,,,,,,,,,8,16,5,2,,,,,,,,,,,,,,,,,,,,,,,,,,,,,
66621cff8f102c018ed8ad60,TCR,2024-06-25_10h40.02.960,LearnStrategy,2023.2.3,MacIntel,57.47126437,,,,,,,,,,,5,06,5,3,,,,,,,,,,,,,,,,,,,,,,,,,,,,,
66621cff8f102c018ed8ad60,TCR,2024-06-25_10h40.02.960,LearnStrategy,2023.2.3,MacIntel,57.47126437,,,,,,,,,,,6,13,5,4,,,,,,,,,,,,,,,,,,,,,,,,,,,,,
66621cff8f102c018ed8ad60,TCR,2024-06-25_10h40.02.960,LearnStrategy,2023.2.3,MacIntel,57.47126437,,,,,,,,,,,1,07,5,5,,,,,,,,,,,,,,,,,,,,,,,,,,,,,
66621cff8f102c018ed8ad60,TCR,2024-06-25_10h40.02.960,LearnStrategy,2023.2.3,MacIntel,57.47126437,,,,,,,,,,,3,07,5,6,,,,,,,,,,,,,,,,,,,,,,,,,,,,,
66621cff8f102c018ed8ad60,TCR,2024-06-25_10h40.02.960,LearnStrategy,2023.2.3,MacIntel,57.47126437,,,,,,,,,,,1,11,5,7,,,,,,,,,,,,,,,,,,,,,,,,,,,,,
66621cff8f102c018ed8ad60,TCR,2024-06-25_10h40.02.960,LearnStrategy,2023.2.3,MacIntel,57.47126437,,,,,,,,,,,6,08,5,8,,,,,,,,,,,,,,,,,,,,,,,,,,,,,
66621cff8f102c018ed8ad60,TCR,2024-06-25_10h40.02.960,LearnStrategy,2023.2.3,MacIntel,57.47126437,,,,,,,,,,,3,06,6,1,,,,,,,,,,,,,,,,,,,,,,,,,,,,,
66621cff8f102c018ed8ad60,TCR,2024-06-25_10h40.02.960,LearnStrategy,2023.2.3,MacIntel,57.47126437,,,,,,,,,,,4,05,6,2,,,,,,,,,,,,,,,,,,,,,,,,,,,,,
66621cff8f102c018ed8ad60,TCR,2024-06-25_10h40.02.960,LearnStrategy,2023.2.3,MacIntel,57.47126437,,,,,,,,,,,4,15,6,3,,,,,,,,,,,,,,,,,,,,,,,,,,,,,
66621cff8f102c018ed8ad60,TCR,2024-06-25_10h40.02.960,LearnStrategy,2023.2.3,MacIntel,57.47126437,,,,,,,,,,,4,12,6,4,,,,,,,,,,,,,,,,,,,,,,,,,,,,,
66621cff8f102c018ed8ad60,TCR,2024-06-25_10h40.02.960,LearnStrategy,2023.2.3,MacIntel,57.47126437,,,,,,,,,,,8,02,6,5,,,,,,,,,,,,,,,,,,,,,,,,,,,,,
66621cff8f102c018ed8ad60,TCR,2024-06-25_10h40.02.960,LearnStrategy,2023.2.3,MacIntel,57.47126437,,,,,,,,,,,4,08,6,6,,,,,,,,,,,,,,,,,,,,,,,,,,,,,
66621cff8f102c018ed8ad60,TCR,2024-06-25_10h40.02.960,LearnStrategy,2023.2.3,MacIntel,57.47126437,,,,,,,,,,,6,12,6,7,,,,,,,,,,,,,,,,,,,,,,,,,,,,,
66621cff8f102c018ed8ad60,TCR,2024-06-25_10h40.02.960,LearnStrategy,2023.2.3,MacIntel,57.47126437,,,,,,,,,,,4,01,6,8,,,,,,,,,,,,,,,,,,,,,,,,,,,,,