participant,condition,date,expName,psychopyVersion,OS,frameRate,block,phase,trial,learn_mouse_2.x,learn_mouse_2.y,learn_mouse_2.leftButton,learn_mouse_2.midButton,learn_mouse_2.rightButton,learn_mouse_2.time,learn_mouse_2.clicked_name,cat,token,row,col,t_select,cat_mouse_l.x,cat_mouse_l.y,cat_mouse_l.leftButton,cat_mouse_l.midButton,cat_mouse_l.rightButton,cat_mouse_l.time,cat_mouse_l.clicked_name,resp,t_resp,corr,train_trials.thisRepN,train_trials.thisTrialN,train_trials.thisN,train_trials.thisIndex,train_trials.ran,cat_mouse_t.x,cat_mouse_t.y,cat_mouse_t.leftButton,cat_mouse_t.midButton,cat_mouse_t.rightButton,cat_mouse_t.time,cat_mouse_t.clicked_name,test_trials.thisRepN,test_trials.thisTrialN,test_trials.thisN,test_trials.thisIndex,test_trials.ran,Bonus
6663c09d3fc84cb36dba1139,TCR,2024-06-25_12h40.10.989,LearnStrategy,2023.2.3,Win32,59.88023952,,,,,,,,,,,,,,,,,,,,,,,,,,,,,,,,,,,,,,,,,,,
6663c09d3fc84cb36dba1139,TCR,2024-06-25_12h40.10.989,LearnStrategy,2023.2.3,Win32,59.88023952,1,1,1,0.074999986,-0.012962977,1,0,0,12.8446,rock_grid_rect_2,5,08,-1,-1,12.845,0.390740712,-0.267592607,1,0,0,7.9366,Gabbro_rect,4,7.937,0,0,0,0,0,1,,,,,,,,,,,,,
6663c09d3fc84cb36dba1139,TCR,2024-06-25_12h40.10.989,LearnStrategy,2023.2.3,Win32,59.88023952,1,1,2,-0.023148148,-0.0074074,1,0,0,3.021,rock_grid_rect_2,3,11,-1,-1,3.021,0.388888889,-0.417592578,1,0,0,8.2413,Pumice_rect,8,8.241,0,1,0,1,0,1,,,,,,,,,,,,,
6663c09d3fc84cb36dba1139,TCR,2024-06-25_12h40.10.989,LearnStrategy,2023.2.3,Win32,59.88023952,1,1,3,0.045370384,-0.015740748,1,0,0,1.4521,rock_grid_rect_2,3,02,-1,-1,1.452,0.103703746,-0.407407407,1,0,0,2.1577,Peridotite_rect,7,2.158,0,2,0,2,0,1,,,,,,,,,,,,,
6663c09d3fc84cb36dba1139,TCR,2024-06-25_12h40.10.989,LearnStrategy,2023.2.3,Win32,59.88023952,1,1,4,0.080555598,-0.017592607,1,0,0,1.1409,rock_grid_rect_2,1,09,-1,-1,1.141,0.368518547,-0.397222236,1,0,0,2.9143,Pumice_rect,8,2.914,0,3,0,3,0,1,,,,,,,,,,,,,
6663c09d3fc84cb36dba1139,TCR,2024-06-25_12h40.10.989,LearnStrategy,2023.2.3,Win32,59.88023952,1,1,5,0.032407407,-0.006481489,1,0,0,1.4252,rock_grid_rect_2,6,03,-1,-1,1.425,-0.085185157,-0.406481496,1,0,0,5.312,Pegmatite_rect,6,5.312,1,4,0,4,0,1,,,,,,,,,,,,,
6663c09d3fc84cb36dba1139,TCR,2024-06-25_12h40.10.989,LearnStrategy,2023.2.3,Win32,59.88023952,1,1,6,0.011111153,-0.013888889,1,0,0,1.2358,rock_grid_rect_2,6,09,-1,-1,1.236,-0.060185185,-0.259259259,1,0,0,4.097,Basalt_rect,2,4.097,0,5,0,5,0,1,,,,,,,,,,,,,
6663c09d3fc84cb36dba1139,TCR,2024-06-25_12h40.10.989,LearnStrategy,2023.2.3,Win32,59.88023952,1,1,7,0.074999986,-0.006481489,1,0,0,0.8292,rock_grid_rect_2,2,06,-1,-1,0.829,0.361111111,-0.384259259,1,0,0,4.0457,Pumice_rect,8,4.046,0,6,0,6,0,1,,,,,,,,,,,,,
6663c09d3fc84cb36dba1139,TCR,2024-06-25_12h40.10.989,LearnStrategy,2023.2.3,Win32,59.88023952,1,1,8,0.009259259,-0.008333347,1,0,0,1.1545,rock_grid_rect_2,4,15,-1,-1,1.155,-0.344444452,-0.256481524,1,0,0,3.2236,Andesite_rect,1,3.224,0,7,0,7,0,1,,,,,,,,,,,,,
6663c09d3fc84cb36dba1139,TCR,2024-06-25_12h40.10.989,LearnStrategy,2023.2.3,Win32,59.88023952,1,1,9,0.036111125,0.006481489,1,0,0,0.896,rock_grid_rect_2,8,04,-1,-1,0.896,0.399074131,-0.383333347,1,0,0,2.2532,Pumice_rect,8,2.253,1,8,0,8,0,1,,,,,,,,,,,,,
6663c09d3fc84cb36dba1139,TCR,2024-06-25_12h40.10.989,LearnStrategy,2023.2.3,Win32,59.88023952,1,1,10,0.023148148,-0.011111118,1,0,0,1.0867,rock_grid_rect_2,2,14,-1,-1,1.087,-0.135185171,-0.406481496,1,0,0,3.8889,Pegmatite_rect,6,3.889,0,9,0,9,0,1,,,,,,,,,,,,,
6663c09d3fc84cb36dba1139,TCR,2024-06-25_12h40.10.989,LearnStrategy,2023.2.3,Win32,59.88023952,1,1,11,0.061111097,-0.010185206,1,0,0,1.203,rock_grid_rect_2,5,16,-1,-1,1.203,-0.335185192,-0.415740755,1,0,0,1.6356,Obsidian_rect,5,1.636,1,10,0,10,0,1,,,,,,,,,,,,,
6663c09d3fc84cb36dba1139,TCR,2024-06-25_12h40.10.989,LearnStrategy,2023.2.3,Win32,59.88023952,1,1,12,0.036111125,0.01944443,1,0,0,1.065,rock_grid_rect_2,7,12,-1,-1,1.065,0.138888889,-0.252777806,1,0,0,5.025,Diorite_rect,3,5.025,0,11,0,11,0,1,,,,,,,,,,,,,
6663c09d3fc84cb36dba1139,TCR,2024-06-25_12h40.10.989,LearnStrategy,2023.2.3,Win32,59.88023952,1,1,13,0.049074102,-0.006481489,1,0,0,1.0686,rock_grid_rect_2,4,13,-1,-1,1.069,-0.101851852,-0.253703718,1,0,0,2.5581,Basalt_rect,2,2.558,0,12,0,12,0,1,,,,,,,,,,,,,
6663c09d3fc84cb36dba1139,TCR,2024-06-25_12h40.10.989,LearnStrategy,2023.2.3,Win32,59.88023952,1,1,14,0.066666709,-0.001851859,1,0,0,1.0128,rock_grid_rect_2,1,05,-1,-1,1.013,0.122222265,-0.410185213,1,0,0,5.5397,Peridotite_rect,7,5.54,0,13,0,13,0,1,,,,,,,,,,,,,
6663c09d3fc84cb36dba1139,TCR,2024-06-25_12h40.10.989,LearnStrategy,2023.2.3,Win32,59.88023952,1,1,15,0.040740755,-0.020370377,1,0,0,0.9814,rock_grid_rect_2,7,10,-1,-1,0.981,0.199074074,-0.410185213,1,0,0,9.2544,Peridotite_rect,7,9.254,1,14,0,14,0,1,,,,,,,,,,,,,
6663c09d3fc84cb36dba1139,TCR,2024-06-25_12h40.10.989,LearnStrategy,2023.2.3,Win32,59.88023952,1,1,16,0.035185213,-0.001851859,1,0,0,0.9303,rock_grid_rect_2,8,15,-1,-1,0.93,0.45648151,-0.408333319,1,0,0,4.8003,Pumice_rect,8,4.8,1,15,0,15,0,1,,,,,,,,,,,,,
6663c09d3fc84cb36dba1139,TCR,2024-06-25_12h40.10.989,LearnStrategy,2023.2.3,Win32,59.88023952,1,2,1,,,,,,,,5,12,,,,,,,,,,,5,2.554,1,,,,,,-0.335185192,-0.390740783,1,0,0,2.5543,Obsidian_rect,0,0,0,0,1,
6663c09d3fc84cb36dba1139,TCR,2024-06-25_12h40.10.989,LearnStrategy,2023.2.3,Win32,59.88023952,1,2,2,,,,,,,,3,16,,,,,,,,,,,4,60.21,0,,,,,,0.433333362,-0.228703746,1,0,0,60.2105,Gabbro_rect,1,0,1,0,1,
6663c09d3fc84cb36dba1139,TCR,2024-06-25_12h40.10.989,LearnStrategy,2023.2.3,Win32,59.88023952,1,2,3,,,,,,,,1,01,,,,,,,,,,,7,44.557,0,,,,,,0.211111139,-0.37962963,1,0,0,44.5568,Peridotite_rect,2,0,2,0,1,
6663c09d3fc84cb36dba1139,TCR,2024-06-25_12h40.10.989,LearnStrategy,2023.2.3,Win32,59.88023952,1,2,4,,,,,,,,6,15,,,,,,,,,,,6,95.587,1,,,,,,-0.099074046,-0.390740783,1,0,0,95.5872,Pegmatite_rect,3,0,3,0,1,
6663c09d3fc84cb36dba1139,TCR,2024-06-25_12h40.10.989,LearnStrategy,2023.2.3,Win32,59.88023952,1,2,5,,,,,,,,1,07,,,,,,,,,,,3,10.883,0,,,,,,0.07685188,-0.256481524,1,0,0,10.8833,Diorite_rect,4,0,4,0,1,
6663c09d3fc84cb36dba1139,TCR,2024-06-25_12h40.10.989,LearnStrategy,2023.2.3,Win32,59.88023952,1,2,6,,,,,,,,4,05,,,,,,,,,,,7,91.975,0,,,,,,0.136111153,-0.404629672,1,0,0,91.9747,Peridotite_rect,5,0,5,0,1,
6663c09d3fc84cb36dba1139,TCR,2024-06-25_12h40.10.989,LearnStrategy,2023.2.3,Win32,59.88023952,1,2,7,,,,,,,,3,12,,,,,,,,,,,3,30.147,1,,,,,,0.183333362,-0.251851894,1,0,0,30.147,Diorite_rect,6,0,6,0,1,
6663c09d3fc84cb36dba1139,TCR,2024-06-25_12h40.10.989,LearnStrategy,2023.2.3,Win32,59.88023952,1,2,8,,,,,,,,8,08,,,,,,,,,,,8,23.004,1,,,,,,0.49537037,-0.384259259,1,0,0,23.0036,Pumice_rect,7,0,7,0,1,
6663c09d3fc84cb36dba1139,TCR,2024-06-25_12h40.10.989,LearnStrategy,2023.2.3,Win32,59.88023952,1,2,9,,,,,,,,8,16,,,,,,,,,,,2,43.13,0,,,,,,-0.154629601,-0.25,1,0,0,43.1304,Basalt_rect,8,0,8,0,1,
6663c09d3fc84cb36dba1139,TCR,2024-06-25_12h40.10.989,LearnStrategy,2023.2.3,Win32,59.88023952,1,2,10,,,,,,,,2,02,,,,,,,,,,,4,12.387,0,,,,,,0.486111111,-0.257407436,1,0,0,12.3874,Gabbro_rect,9,0,9,0,1,
6663c09d3fc84cb36dba1139,TCR,2024-06-25_12h40.10.989,LearnStrategy,2023.2.3,Win32,59.88023952,1,2,11,,,,,,,,5,10,,,,,,,,,,,5,8.478,1,,,,,,-0.424999979,-0.416666667,1,0,0,8.4777,Obsidian_rect,10,0,10,0,1,
6663c09d3fc84cb36dba1139,TCR,2024-06-25_12h40.10.989,LearnStrategy,2023.2.3,Win32,59.88023952,1,2,12,,,,,,,,4,03,,,,,,,,,,,4,18.596,1,,,,,,0.372222194,-0.249074088,1,0,0,18.5961,Gabbro_rect,11,0,11,0,1,
6663c09d3fc84cb36dba1139,TCR,2024-06-25_12h40.10.989,LearnStrategy,2023.2.3,Win32,59.88023952,1,2,13,,,,,,,,6,10,,,,,,,,,,,6,18.34,1,,,,,,-0.10555557,-0.391666695,1,0,0,18.34,Pegmatite_rect,12,0,12,0,1,
6663c09d3fc84cb36dba1139,TCR,2024-06-25_12h40.10.989,LearnStrategy,2023.2.3,Win32,59.88023952,1,2,14,,,,,,,,7,05,,,,,,,,,,,7,4.053,1,,,,,,0.183333362,-0.39907406,1,0,0,4.0527,Peridotite_rect,13,0,13,0,1,
6663c09d3fc84cb36dba1139,TCR,2024-06-25_12h40.10.989,LearnStrategy,2023.2.3,Win32,59.88023952,1,2,15,,,,,,,,2,08,,,,,,,,,,,2,15.213,1,,,,,,-0.069444444,-0.243518547,1,0,0,15.2132,Basalt_rect,14,0,14,0,1,
6663c09d3fc84cb36dba1139,TCR,2024-06-25_12h40.10.989,LearnStrategy,2023.2.3,Win32,59.88023952,1,2,16,,,,,,,,7,08,,,,,,,,,,,7,20.325,1,,,,,,0.131481524,-0.395370413,1,0,0,20.3248,Peridotite_rect,15,0,15,0,1,
6663c09d3fc84cb36dba1139,TCR,2024-06-25_12h40.10.989,LearnStrategy,2023.2.3,Win32,59.88023952,2,1,1,0.126851894,-0.009259259,1,0,0,1.9365,rock_grid_rect_2,3,06,-1,-1,1.937,0.104629658,-0.237037023,1,0,0,10.5855,Diorite_rect,3,10.585,1,0,0,0,0,1,,,,,,,,,,,,,
6663c09d3fc84cb36dba1139,TCR,2024-06-25_12h40.10.989,LearnStrategy,2023.2.3,Win32,59.88023952,2,1,2,0.092592593,-0.009259259,1,0,0,0.8381,rock_grid_rect_2,3,11,-1,-1,0.838,0.368518547,-0.243518547,1,0,0,6.7072,Gabbro_rect,4,6.707,0,1,0,1,0,1,,,,,,,,,,,,,
6663c09d3fc84cb36dba1139,TCR,2024-06-25_12h40.10.989,LearnStrategy,2023.2.3,Win32,59.88023952,2,1,3,-0.030555513,-0.012962977,1,0,0,0.9637,rock_grid_rect_2,1,09,-1,-1,0.964,0.486111111,-0.259259259,1,0,0,5.9893,Gabbro_rect,4,5.989,0,2,0,2,0,1,,,,,,,,,,,,,
6663c09d3fc84cb36dba1139,TCR,2024-06-25_12h40.10.989,LearnStrategy,2023.2.3,Win32,59.88023952,2,1,4,0.043518561,-0.01666666,1,0,0,0.986,rock_grid_rect_2,4,15,-1,-1,0.986,-0.090740698,-0.256481524,1,0,0,1.8027,Basalt_rect,2,1.803,0,3,0,3,0,1,,,,,,,,,,,,,
6663c09d3fc84cb36dba1139,TCR,2024-06-25_12h40.10.989,LearnStrategy,2023.2.3,Win32,59.88023952,2,1,5,0.022222236,-0.014814836,1,0,0,0.8155,rock_grid_rect_2,8,10,-1,-1,0.815,0.369444529,-0.39444443,1,0,0,2.1238,Pumice_rect,8,2.124,1,4,0,4,0,1,,,,,,,,,,,,,
6663c09d3fc84cb36dba1139,TCR,2024-06-25_12h40.10.989,LearnStrategy,2023.2.3,Win32,59.88023952,2,1,6,0.068518533,-0.022222236,1,0,0,1.0159,rock_grid_rect_2,7,12,-1,-1,1.016,0.137962977,-0.387037065,1,0,0,2.5094,Peridotite_rect,7,2.509,1,5,0,5,0,1,,,,,,,,,,,,,
6663c09d3fc84cb36dba1139,TCR,2024-06-25_12h40.10.989,LearnStrategy,2023.2.3,Win32,59.88023952,2,1,7,0.051851838,0.009259259,1,0,0,1.0701,rock_grid_rect_2,2,09,-1,-1,1.07,-0.137036995,-0.256481524,1,0,0,2.6876,Basalt_rect,2,2.688,1,6,0,6,0,1,,,,,,,,,,,,,
6663c09d3fc84cb36dba1139,TCR,2024-06-25_12h40.10.989,LearnStrategy,2023.2.3,Win32,59.88023952,2,1,8,0.037037037,-0.022222236,1,0,0,0.8192,rock_grid_rect_2,1,05,-1,-1,0.819,-0.119444459,-0.412962949,1,0,0,1.8546,Pegmatite_rect,6,1.855,0,7,0,7,0,1,,,,,,,,,,,,,
6663c09d3fc84cb36dba1139,TCR,2024-06-25_12h40.10.989,LearnStrategy,2023.2.3,Win32,59.88023952,2,1,9,-0.030555513,-0.003703718,1,0,0,0.7903,rock_grid_rect_2,8,04,-1,-1,0.79,0.407407407,-0.413888931,1,0,0,1.1562,Pumice_rect,8,1.156,1,8,0,8,0,1,,,,,,,,,,,,,
6663c09d3fc84cb36dba1139,TCR,2024-06-25_12h40.10.989,LearnStrategy,2023.2.3,Win32,59.88023952,2,1,10,-0.057407379,-0.003703718,1,0,0,0.8636,rock_grid_rect_2,1,11,-1,-1,0.864,0.162037037,-0.235185199,1,0,0,5.2138,Diorite_rect,3,5.214,0,9,0,9,0,1,,,,,,,,,,,,,
6663c09d3fc84cb36dba1139,TCR,2024-06-25_12h40.10.989,LearnStrategy,2023.2.3,Win32,59.88023952,2,1,11,0.005555541,-0.01203703,1,0,0,0.7473,rock_grid_rect_2,4,01,-1,-1,0.747,0.091666681,-0.412962949,1,0,0,2.1961,Peridotite_rect,7,2.196,0,10,0,10,0,1,,,,,,,,,,,,,
6663c09d3fc84cb36dba1139,TCR,2024-06-25_12h40.10.989,LearnStrategy,2023.2.3,Win32,59.88023952,2,1,12,0.032407407,-0.023148148,1,0,0,0.6077,rock_grid_rect_2,3,06,-1,-1,0.608,0.106481481,-0.407407407,1,0,0,1.1277,Peridotite_rect,7,1.128,0,11,0,11,0,1,,,,,,,,,,,,,
6663c09d3fc84cb36dba1139,TCR,2024-06-25_12h40.10.989,LearnStrategy,2023.2.3,Win32,59.88023952,2,1,13,0.040740755,-0.018518519,1,0,0,0.5866,rock_grid_rect_2,4,01,-1,-1,0.587,0.118518547,-0.421296296,1,0,0,1.1214,Peridotite_rect,7,1.121,0,12,0,12,0,1,,,,,,,,,,,,,
6663c09d3fc84cb36dba1139,TCR,2024-06-25_12h40.10.989,LearnStrategy,2023.2.3,Win32,59.88023952,2,1,14,0.034259302,-0.019444466,1,0,0,0.9688,rock_grid_rect_2,1,05,-1,-1,0.969,-0.366666653,-0.396296325,1,0,0,1.7749,Obsidian_rect,5,1.775,0,13,0,13,0,1,,,,,,,,,,,,,
6663c09d3fc84cb36dba1139,TCR,2024-06-25_12h40.10.989,LearnStrategy,2023.2.3,Win32,59.88023952,2,1,15,0.048148191,0.009259259,1,0,0,0.5831,rock_grid_rect_2,2,14,-1,-1,0.583,-0.093518504,-0.25,1,0,0,1.4972,Basalt_rect,2,1.497,1,14,0,14,0,1,,,,,,,,,,,,,
6663c09d3fc84cb36dba1139,TCR,2024-06-25_12h40.10.989,LearnStrategy,2023.2.3,Win32,59.88023952,2,1,16,0.043518561,-0.022222236,1,0,0,0.6987,rock_grid_rect_2,2,14,-1,-1,0.699,-0.087037051,-0.267592607,1,0,0,1.1866,Basalt_rect,2,1.187,1,15,0,15,0,1,,,,,,,,,,,,,
6663c09d3fc84cb36dba1139,TCR,2024-06-25_12h40.10.989,LearnStrategy,2023.2.3,Win32,59.88023952,2,2,1,,,,,,,,4,11,,,,,,,,,,,7,16.17,0,,,,,,0.101851852,-0.392592607,1,0,0,16.1703,Peridotite_rect,0,0,0,0,1,
6663c09d3fc84cb36dba1139,TCR,2024-06-25_12h40.10.989,LearnStrategy,2023.2.3,Win32,59.88023952,2,2,2,,,,,,,,7,14,,,,,,,,,,,7,24.611,1,,,,,,0.124074088,-0.40370369,1,0,0,24.6108,Peridotite_rect,1,0,1,0,1,
6663c09d3fc84cb36dba1139,TCR,2024-06-25_12h40.10.989,LearnStrategy,2023.2.3,Win32,59.88023952,2,2,3,,,,,,,,2,16,,,,,,,,,,,2,1.248,1,,,,,,-0.172222208,-0.253703718,1,0,0,1.2481,Basalt_rect,2,0,2,0,1,
6663c09d3fc84cb36dba1139,TCR,2024-06-25_12h40.10.989,LearnStrategy,2023.2.3,Win32,59.88023952,2,2,4,,,,,,,,5,06,,,,,,,,,,,5,1.015,1,,,,,,-0.37037037,-0.398148148,1,0,0,1.0151,Obsidian_rect,3,0,3,0,1,
6663c09d3fc84cb36dba1139,TCR,2024-06-25_12h40.10.989,LearnStrategy,2023.2.3,Win32,59.88023952,2,2,5,,,,,,,,8,06,,,,,,,,,,,8,1.136,1,,,,,,0.421296296,-0.419444473,1,0,0,1.1357,Pumice_rect,4,0,4,0,1,
6663c09d3fc84cb36dba1139,TCR,2024-06-25_12h40.10.989,LearnStrategy,2023.2.3,Win32,59.88023952,2,2,6,,,,,,,,3,09,,,,,,,,,,,6,20.951,0,,,,,,-0.103703675,-0.412962949,1,0,0,20.9509,Pegmatite_rect,5,0,5,0,1,
6663c09d3fc84cb36dba1139,TCR,2024-06-25_12h40.10.989,LearnStrategy,2023.2.3,Win32,59.88023952,2,2,7,,,,,,,,6,12,,,,,,,,,,,4,17.19,0,,,,,,0.48518527,-0.271296325,1,0,0,17.1902,Gabbro_rect,6,0,6,0,1,
6663c09d3fc84cb36dba1139,TCR,2024-06-25_12h40.10.989,LearnStrategy,2023.2.3,Win32,59.88023952,2,2,8,,,,,,,,1,10,,,,,,,,,,,3,10.948,0,,,,,,0.155555584,-0.247222265,1,0,0,10.9484,Diorite_rect,7,0,7,0,1,
6663c09d3fc84cb36dba1139,TCR,2024-06-25_12h40.10.989,LearnStrategy,2023.2.3,Win32,59.88023952,2,2,9,,,,,,,,5,11,,,,,,,,,,,5,4.578,1,,,,,,-0.462962963,-0.407407407,1,0,0,4.5783,Obsidian_rect,8,0,8,0,1,
6663c09d3fc84cb36dba1139,TCR,2024-06-25_12h40.10.989,LearnStrategy,2023.2.3,Win32,59.88023952,2,2,10,,,,,,,,4,08,,,,,,,,,,,4,18.736,1,,,,,,0.361111111,-0.253703718,1,0,0,18.7356,Gabbro_rect,9,0,9,0,1,
6663c09d3fc84cb36dba1139,TCR,2024-06-25_12h40.10.989,LearnStrategy,2023.2.3,Win32,59.88023952,2,2,11,,,,,,,,2,05,,,,,,,,,,,2,2.246,1,,,,,,-0.139814801,-0.262962977,1,0,0,2.246,Basalt_rect,10,0,10,0,1,
6663c09d3fc84cb36dba1139,TCR,2024-06-25_12h40.10.989,LearnStrategy,2023.2.3,Win32,59.88023952,2,2,12,,,,,,,,1,03,,,,,,,,,,,1,13.287,1,,,,,,-0.428703697,-0.26944443,1,0,0,13.2872,Andesite_rect,11,0,11,0,1,
6663c09d3fc84cb36dba1139,TCR,2024-06-25_12h40.10.989,LearnStrategy,2023.2.3,Win32,59.88023952,2,2,13,,,,,,,,7,04,,,,,,,,,,,1,44.383,0,,,,,,-0.321296303,-0.264814801,1,0,0,44.383,Andesite_rect,12,0,12,0,1,
6663c09d3fc84cb36dba1139,TCR,2024-06-25_12h40.10.989,LearnStrategy,2023.2.3,Win32,59.88023952,2,2,14,,,,,,,,3,08,,,,,,,,,,,3,24.704,1,,,,,,0.133333347,-0.257407436,1,0,0,24.7039,Diorite_rect,13,0,13,0,1,
6663c09d3fc84cb36dba1139,TCR,2024-06-25_12h40.10.989,LearnStrategy,2023.2.3,Win32,59.88023952,2,2,15,,,,,,,,6,08,,,,,,,,,,,5,1.596,0,,,,,,-0.40370369,-0.400000042,1,0,0,1.5959,Obsidian_rect,14,0,14,0,1,
6663c09d3fc84cb36dba1139,TCR,2024-06-25_12h40.10.989,LearnStrategy,2023.2.3,Win32,59.88023952,2,2,16,,,,,,,,8,09,,,,,,,,,,,8,1.415,1,,,,,,0.458333333,-0.390740783,1,0,0,1.4149,Pumice_rect,15,0,15,0,1,
6663c09d3fc84cb36dba1139,TCR,2024-06-25_12h40.10.989,LearnStrategy,2023.2.3,Win32,59.88023952,3,1,1,0.051851838,-0.012962977,1,0,0,1.5221,rock_grid_rect_2,4,09,-1,-1,1.522,-0.084259245,-0.246296282,1,0,0,6.3283,Basalt_rect,2,6.328,0,0,0,0,0,1,,,,,,,,,,,,,
6663c09d3fc84cb36dba1139,TCR,2024-06-25_12h40.10.989,LearnStrategy,2023.2.3,Win32,59.88023952,3,1,2,0.010185171,0.0074074,1,0,0,0.8519,rock_grid_rect_2,3,07,-1,-1,0.852,0.186111097,-0.389814801,1,0,0,1.9532,Peridotite_rect,7,1.953,0,1,0,1,0,1,,,,,,,,,,,,,
6663c09d3fc84cb36dba1139,TCR,2024-06-25_12h40.10.989,LearnStrategy,2023.2.3,Win32,59.88023952,3,1,3,0.017592607,-0.012962977,1,0,0,0.7529,rock_grid_rect_2,4,15,-1,-1,0.753,-0.091666681,-0.247222265,1,0,0,1.0235,Basalt_rect,2,1.024,0,2,0,2,0,1,,,,,,,,,,,,,
6663c09d3fc84cb36dba1139,TCR,2024-06-25_12h40.10.989,LearnStrategy,2023.2.3,Win32,59.88023952,3,1,4,0.041666667,-0.012962977,1,0,0,0.7481,rock_grid_rect_2,6,03,-1,-1,0.748,0.122222265,-0.250925912,1,0,0,1.1413,Diorite_rect,3,1.141,0,3,0,3,0,1,,,,,,,,,,,,,
6663c09d3fc84cb36dba1139,TCR,2024-06-25_12h40.10.989,LearnStrategy,2023.2.3,Win32,59.88023952,3,1,5,0.015740783,-0.01666666,1,0,0,0.6552,rock_grid_rect_2,7,16,-1,-1,0.655,-0.387962942,-0.262962977,1,0,0,1.6355,Andesite_rect,1,1.636,0,4,0,4,0,1,,,,,,,,,,,,,
6663c09d3fc84cb36dba1139,TCR,2024-06-25_12h40.10.989,LearnStrategy,2023.2.3,Win32,59.88023952,3,1,6,0.034259302,0.003703683,1,0,0,0.6216,rock_grid_rect_2,8,14,-1,-1,0.622,0.393518519,-0.400925954,1,0,0,0.9083,Pumice_rect,8,0.908,1,5,0,5,0,1,,,,,,,,,,,,,
6663c09d3fc84cb36dba1139,TCR,2024-06-25_12h40.10.989,LearnStrategy,2023.2.3,Win32,59.88023952,3,1,7,0.061111097,-0.011111118,1,0,0,0.7814,rock_grid_rect_2,7,16,-1,-1,0.781,0.385185242,-0.255555541,1,0,0,2.5616,Gabbro_rect,4,2.562,0,6,0,6,0,1,,,,,,,,,,,,,
6663c09d3fc84cb36dba1139,TCR,2024-06-25_12h40.10.989,LearnStrategy,2023.2.3,Win32,59.88023952,3,1,8,0.021296325,-0.005555577,1,0,0,0.7054,rock_grid_rect_2,4,13,-1,-1,0.705,-0.112962935,-0.261111153,1,0,0,1.1337,Basalt_rect,2,1.134,0,7,0,7,0,1,,,,,,,,,,,,,
6663c09d3fc84cb36dba1139,TCR,2024-06-25_12h40.10.989,LearnStrategy,2023.2.3,Win32,59.88023952,3,1,9,0.064814815,-0.006481489,1,0,0,0.5985,rock_grid_rect_2,1,05,-1,-1,0.598,0.134259259,-0.400000042,1,0,0,1.1481,Peridotite_rect,7,1.148,0,8,0,8,0,1,,,,,,,,,,,,,
6663c09d3fc84cb36dba1139,TCR,2024-06-25_12h40.10.989,LearnStrategy,2023.2.3,Win32,59.88023952,3,1,10,0.016666695,0.005555541,1,0,0,0.5851,rock_grid_rect_2,6,13,-1,-1,0.585,-0.098148134,-0.251851894,1,0,0,1.0673,Basalt_rect,2,1.067,0,9,0,9,0,1,,,,,,,,,,,,,
6663c09d3fc84cb36dba1139,TCR,2024-06-25_12h40.10.989,LearnStrategy,2023.2.3,Win32,59.88023952,3,1,11,0.063888903,-0.014814836,1,0,0,0.8149,rock_grid_rect_2,1,11,-1,-1,0.815,-0.312037044,-0.393518519,1,0,0,1.2236,Obsidian_rect,5,1.224,0,10,0,10,0,1,,,,,,,,,,,,,
6663c09d3fc84cb36dba1139,TCR,2024-06-25_12h40.10.989,LearnStrategy,2023.2.3,Win32,59.88023952,3,1,12,0.049074102,0.000925912,1,0,0,0.5642,rock_grid_rect_2,6,11,-1,-1,0.564,-0.366666653,-0.402777778,1,0,0,1.7345,Obsidian_rect,5,1.735,0,11,0,11,0,1,,,,,,,,,,,,,
6663c09d3fc84cb36dba1139,TCR,2024-06-25_12h40.10.989,LearnStrategy,2023.2.3,Win32,59.88023952,3,1,13,0.051851838,-0.012962977,1,0,0,0.6634,rock_grid_rect_2,1,09,-1,-1,0.663,0.343518575,-0.397222236,1,0,0,1.1352,Pumice_rect,8,1.135,0,12,0,12,0,1,,,,,,,,,,,,,
6663c09d3fc84cb36dba1139,TCR,2024-06-25_12h40.10.989,LearnStrategy,2023.2.3,Win32,59.88023952,3,1,14,-0.012036995,-0.011111118,1,0,0,0.6812,rock_grid_rect_2,5,05,-1,-1,0.681,-0.38703703,-0.409259302,1,0,0,1.1752,Obsidian_rect,5,1.175,1,13,0,13,0,1,,,,,,,,,,,,,
6663c09d3fc84cb36dba1139,TCR,2024-06-25_12h40.10.989,LearnStrategy,2023.2.3,Win32,59.88023952,3,1,15,0.070370356,-0.001851859,1,0,0,0.6812,rock_grid_rect_2,3,11,-1,-1,0.681,0.107407393,-0.237963005,1,0,0,1.3595,Diorite_rect,3,1.36,1,14,0,14,0,1,,,,,,,,,,,,,
6663c09d3fc84cb36dba1139,TCR,2024-06-25_12h40.10.989,LearnStrategy,2023.2.3,Win32,59.88023952,3,1,16,0.013888889,-0.008333347,1,0,0,0.8884,rock_grid_rect_2,2,09,-1,-1,0.888,-0.051851838,-0.240740741,1,0,0,2.0669,Basalt_rect,2,2.067,1,15,0,15,0,1,,,,,,,,,,,,,
6663c09d3fc84cb36dba1139,TCR,2024-06-25_12h40.10.989,LearnStrategy,2023.2.3,Win32,59.88023952,3,2,1,,,,,,,,6,07,,,,,,,,,,,6,5.714,1,,,,,,-0.099074046,-0.392592607,1,0,0,5.7141,Pegmatite_rect,0,0,0,0,1,
6663c09d3fc84cb36dba1139,TCR,2024-06-25_12h40.10.989,LearnStrategy,2023.2.3,Win32,59.88023952,3,2,2,,,,,,,,8,02,,,,,,,,,,,8,1.044,1,,,,,,0.400925954,-0.381481524,1,0,0,1.0438,Pumice_rect,1,0,1,0,1,
6663c09d3fc84cb36dba1139,TCR,2024-06-25_12h40.10.989,LearnStrategy,2023.2.3,Win32,59.88023952,3,2,3,,,,,,,,3,14,,,,,,,,,,,3,12.111,1,,,,,,0.125,-0.239814829,1,0,0,12.1115,Diorite_rect,2,0,2,0,1,
6663c09d3fc84cb36dba1139,TCR,2024-06-25_12h40.10.989,LearnStrategy,2023.2.3,Win32,59.88023952,3,2,4,,,,,,,,4,16,,,,,,,,,,,2,2.039,0,,,,,,-0.123148106,-0.267592607,1,0,0,2.0394,Basalt_rect,3,0,3,0,1,
6663c09d3fc84cb36dba1139,TCR,2024-06-25_12h40.10.989,LearnStrategy,2023.2.3,Win32,59.88023952,3,2,5,,,,,,,,7,13,,,,,,,,,,,7,4.889,1,,,,,,0.134259259,-0.410185213,1,0,0,4.8888,Peridotite_rect,4,0,4,0,1,
6663c09d3fc84cb36dba1139,TCR,2024-06-25_12h40.10.989,LearnStrategy,2023.2.3,Win32,59.88023952,3,2,6,,,,,,,,5,14,,,,,,,,,,,5,1.197,1,,,,,,-0.369444423,-0.39444443,1,0,0,1.1974,Obsidian_rect,5,0,5,0,1,
6663c09d3fc84cb36dba1139,TCR,2024-06-25_12h40.10.989,LearnStrategy,2023.2.3,Win32,59.88023952,3,2,7,,,,,,,,1,04,,,,,,,,,,,6,35.181,0,,,,,,-0.112037023,-0.408333319,1,0,0,35.1806,Pegmatite_rect,6,0,6,0,1,
6663c09d3fc84cb36dba1139,TCR,2024-06-25_12h40.10.989,LearnStrategy,2023.2.3,Win32,59.88023952,3,2,8,,,,,,,,4,14,,,,,,,,,,,2,36.966,0,,,,,,-0.163888861,-0.236111111,1,0,0,36.9659,Basalt_rect,7,0,7,0,1,
6663c09d3fc84cb36dba1139,TCR,2024-06-25_12h40.10.989,LearnStrategy,2023.2.3,Win32,59.88023952,3,2,9,,,,,,,,5,07,,,,,,,,,,,5,0.901,1,,,,,,-0.385185171,-0.382407436,1,0,0,0.9013,Obsidian_rect,8,0,8,0,1,
6663c09d3fc84cb36dba1139,TCR,2024-06-25_12h40.10.989,LearnStrategy,2023.2.3,Win32,59.88023952,3,2,10,,,,,,,,3,13,,,,,,,,,,,4,4.678,0,,,,,,0.401851937,-0.258333347,1,0,0,4.6778,Gabbro_rect,9,0,9,0,1,
6663c09d3fc84cb36dba1139,TCR,2024-06-25_12h40.10.989,LearnStrategy,2023.2.3,Win32,59.88023952,3,2,11,,,,,,,,2,04,,,,,,,,,,,2,2.355,1,,,,,,-0.136111083,-0.246296282,1,0,0,2.3553,Basalt_rect,10,0,10,0,1,
6663c09d3fc84cb36dba1139,TCR,2024-06-25_12h40.10.989,LearnStrategy,2023.2.3,Win32,59.88023952,3,2,12,,,,,,,,6,05,,,,,,,,,,,6,2.74,1,,,,,,-0.138888889,-0.408333319,1,0,0,2.7404,Pegmatite_rect,11,0,11,0,1,
6663c09d3fc84cb36dba1139,TCR,2024-06-25_12h40.10.989,LearnStrategy,2023.2.3,Win32,59.88023952,3,2,13,,,,,,,,2,10,,,,,,,,,,,1,1.585,0,,,,,,-0.423148155,-0.246296282,1,0,0,1.5853,Andesite_rect,12,0,12,0,1,
6663c09d3fc84cb36dba1139,TCR,2024-06-25_12h40.10.989,LearnStrategy,2023.2.3,Win32,59.88023952,3,2,14,,,,,,,,8,05,,,,,,,,,,,8,1.095,1,,,,,,0.387963048,-0.416666667,1,0,0,1.0949,Pumice_rect,13,0,13,0,1,
6663c09d3fc84cb36dba1139,TCR,2024-06-25_12h40.10.989,LearnStrategy,2023.2.3,Win32,59.88023952,3,2,15,,,,,,,,1,06,,,,,,,,,,,3,2.271,0,,,,,,0.063888903,-0.234259288,1,0,0,2.2712,Diorite_rect,14,0,14,0,1,
6663c09d3fc84cb36dba1139,TCR,2024-06-25_12h40.10.989,LearnStrategy,2023.2.3,Win32,59.88023952,3,2,16,,,,,,,,7,02,,,,,,,,,,,7,1.687,1,,,,,,0.087037051,-0.381481524,1,0,0,1.6872,Peridotite_rect,15,0,15,0,1,
6663c09d3fc84cb36dba1139,TCR,2024-06-25_12h40.10.989,LearnStrategy,2023.2.3,Win32,59.88023952,4,1,1,0.069444444,-0.018518519,1,0,0,2.6878,rock_grid_rect_2,4,12,-1,-1,2.688,-0.143518519,-0.391666695,1,0,0,10.7909,Pegmatite_rect,6,10.791,0,0,0,0,0,1,,,,,,,,,,,,,
6663c09d3fc84cb36dba1139,TCR,2024-06-25_12h40.10.989,LearnStrategy,2023.2.3,Win32,59.88023952,4,1,2,0.075925968,-0.018518519,1,0,0,1.1469,rock_grid_rect_2,6,06,-1,-1,1.147,-0.073148162,-0.420370384,1,0,0,1.2821,Pegmatite_rect,6,1.282,1,1,0,1,0,1,,,,,,,,,,,,,
6663c09d3fc84cb36dba1139,TCR,2024-06-25_12h40.10.989,LearnStrategy,2023.2.3,Win32,59.88023952,4,1,3,0.110185199,-0.009259259,1,0,0,0.9977,rock_grid_rect_2,7,10,-1,-1,0.998,0.138888889,-0.381481524,1,0,0,13.829,Peridotite_rect,7,13.829,1,2,0,2,0,1,,,,,,,,,,,,,
6663c09d3fc84cb36dba1139,TCR,2024-06-25_12h40.10.989,LearnStrategy,2023.2.3,Win32,59.88023952,4,1,4,0.053703732,-0.010185206,1,0,0,0.9459,rock_grid_rect_2,8,14,-1,-1,0.946,0.416666667,-0.384259259,1,0,0,1.312,Pumice_rect,8,1.312,1,3,0,3,0,1,,,,,,,,,,,,,
6663c09d3fc84cb36dba1139,TCR,2024-06-25_12h40.10.989,LearnStrategy,2023.2.3,Win32,59.88023952,4,1,5,0.048148191,-0.000925947,1,0,0,0.982,rock_grid_rect_2,3,02,-1,-1,0.982,-0.12962963,-0.387962977,1,0,0,1.459,Pegmatite_rect,6,1.459,0,4,0,4,0,1,,,,,,,,,,,,,
6663c09d3fc84cb36dba1139,TCR,2024-06-25_12h40.10.989,LearnStrategy,2023.2.3,Win32,59.88023952,4,1,6,0.038888931,-0.006481489,1,0,0,0.7231,rock_grid_rect_2,1,09,-1,-1,0.723,-0.38703703,-0.235185199,1,0,0,1.65,Andesite_rect,1,1.65,1,5,0,5,0,1,,,,,,,,,,,,,
6663c09d3fc84cb36dba1139,TCR,2024-06-25_12h40.10.989,LearnStrategy,2023.2.3,Win32,59.88023952,4,1,7,-0.005555541,-0.011111118,1,0,0,0.9474,rock_grid_rect_2,1,02,-1,-1,0.947,0.406481566,-0.402777778,1,0,0,2.3238,Pumice_rect,8,2.324,0,6,0,6,0,1,,,,,,,,,,,,,
6663c09d3fc84cb36dba1139,TCR,2024-06-25_12h40.10.989,LearnStrategy,2023.2.3,Win32,59.88023952,4,1,8,0.034259302,-0.00462963,1,0,0,0.8191,rock_grid_rect_2,2,14,-1,-1,0.819,-0.119444459,-0.253703718,1,0,0,0.895,Basalt_rect,2,0.895,1,7,0,7,0,1,,,,,,,,,,,,,
6663c09d3fc84cb36dba1139,TCR,2024-06-25_12h40.10.989,LearnStrategy,2023.2.3,Win32,59.88023952,4,1,9,0.029629672,-0.00462963,1,0,0,0.6976,rock_grid_rect_2,4,15,-1,-1,0.698,-0.361111111,-0.248148176,1,0,0,3.3644,Andesite_rect,1,3.364,0,8,0,8,0,1,,,,,,,,,,,,,
6663c09d3fc84cb36dba1139,TCR,2024-06-25_12h40.10.989,LearnStrategy,2023.2.3,Win32,59.88023952,4,1,10,0.050925926,-0.01666666,1,0,0,0.7522,rock_grid_rect_2,5,04,-1,-1,0.752,-0.380555541,-0.39907406,1,0,0,1.1541,Obsidian_rect,5,1.154,1,9,0,9,0,1,,,,,,,,,,,,,
6663c09d3fc84cb36dba1139,TCR,2024-06-25_12h40.10.989,LearnStrategy,2023.2.3,Win32,59.88023952,4,1,11,0.039814843,0.014814801,1,0,0,0.6121,rock_grid_rect_2,2,12,-1,-1,0.612,-0.354629623,-0.238888917,1,0,0,2.4103,Andesite_rect,1,2.41,0,10,0,10,0,1,,,,,,,,,,,,,
6663c09d3fc84cb36dba1139,TCR,2024-06-25_12h40.10.989,LearnStrategy,2023.2.3,Win32,59.88023952,4,1,12,0.027777778,-0.01203703,1,0,0,0.5966,rock_grid_rect_2,1,16,-1,-1,0.597,-0.37037037,-0.241666653,1,0,0,1.0006,Andesite_rect,1,1.001,1,11,0,11,0,1,,,,,,,,,,,,,
6663c09d3fc84cb36dba1139,TCR,2024-06-25_12h40.10.989,LearnStrategy,2023.2.3,Win32,59.88023952,4,1,13,-0.006481453,-0.012962977,1,0,0,0.6139,rock_grid_rect_2,3,10,-1,-1,0.614,0.399074131,-0.256481524,1,0,0,2.0304,Gabbro_rect,4,2.03,0,12,0,12,0,1,,,,,,,,,,,,,
6663c09d3fc84cb36dba1139,TCR,2024-06-25_12h40.10.989,LearnStrategy,2023.2.3,Win32,59.88023952,4,1,14,-0.006481453,-0.015740748,1,0,0,0.5476,rock_grid_rect_2,4,13,-1,-1,0.548,0.223148134,-0.265740783,1,0,0,2.187,Diorite_rect,3,2.187,0,13,0,13,0,1,,,,,,,,,,,,,
6663c09d3fc84cb36dba1139,TCR,2024-06-25_12h40.10.989,LearnStrategy,2023.2.3,Win32,59.88023952,4,1,15,0.037037037,-0.013888889,1,0,0,0.5704,rock_grid_rect_2,1,05,-1,-1,0.57,0.049074102,-0.264814801,1,0,0,1.3029,Diorite_rect,3,1.303,0,14,0,14,0,1,,,,,,,,,,,,,
6663c09d3fc84cb36dba1139,TCR,2024-06-25_12h40.10.989,LearnStrategy,2023.2.3,Win32,59.88023952,4,1,16,0.026851866,-0.010185206,1,0,0,0.5569,rock_grid_rect_2,6,03,-1,-1,0.557,0.187962991,-0.382407436,1,0,0,3.438,Peridotite_rect,7,3.438,0,15,0,15,0,1,,,,,,,,,,,,,
6663c09d3fc84cb36dba1139,TCR,2024-06-25_12h40.10.989,LearnStrategy,2023.2.3,Win32,59.88023952,4,2,1,,,,,,,,5,12,,,,,,,,,,,5,1.141,1,,,,,,-0.39166666,-0.380555541,1,0,0,1.141,Obsidian_rect,0,0,0,0,1,
6663c09d3fc84cb36dba1139,TCR,2024-06-25_12h40.10.989,LearnStrategy,2023.2.3,Win32,59.88023952,4,2,2,,,,,,,,5,10,,,,,,,,,,,5,0.878,1,,,,,,-0.39166666,-0.380555541,1,0,0,0.8778,Obsidian_rect,1,0,1,0,1,
6663c09d3fc84cb36dba1139,TCR,2024-06-25_12h40.10.989,LearnStrategy,2023.2.3,Win32,59.88023952,4,2,3,,,,,,,,3,09,,,,,,,,,,,3,6.056,1,,,,,,0.135185171,-0.258333347,1,0,0,6.0557,Diorite_rect,2,0,2,0,1,
6663c09d3fc84cb36dba1139,TCR,2024-06-25_12h40.10.989,LearnStrategy,2023.2.3,Win32,59.88023952,4,2,4,,,,,,,,6,15,,,,,,,,,,,6,2.502,1,,,,,,-0.107407393,-0.395370413,1,0,0,2.502,Pegmatite_rect,3,0,3,0,1,
6663c09d3fc84cb36dba1139,TCR,2024-06-25_12h40.10.989,LearnStrategy,2023.2.3,Win32,59.88023952,4,2,5,,,,,,,,2,10,,,,,,,,,,,2,1.583,1,,,,,,-0.114814829,-0.237963005,1,0,0,1.5833,Basalt_rect,4,0,4,0,1,
6663c09d3fc84cb36dba1139,TCR,2024-06-25_12h40.10.989,LearnStrategy,2023.2.3,Win32,59.88023952,4,2,6,,,,,,,,8,08,,,,,,,,,,,8,1.127,1,,,,,,0.457407492,-0.406481496,1,0,0,1.1271,Pumice_rect,5,0,5,0,1,
6663c09d3fc84cb36dba1139,TCR,2024-06-25_12h40.10.989,LearnStrategy,2023.2.3,Win32,59.88023952,4,2,7,,,,,,,,3,08,,,,,,,,,,,3,2.885,1,,,,,,0.169444473,-0.246296282,1,0,0,2.8851,Diorite_rect,6,0,6,0,1,
6663c09d3fc84cb36dba1139,TCR,2024-06-25_12h40.10.989,LearnStrategy,2023.2.3,Win32,59.88023952,4,2,8,,,,,,,,6,07,,,,,,,,,,,7,3.383,0,,,,,,0.164814843,-0.381481524,1,0,0,3.3826,Peridotite_rect,7,0,7,0,1,
6663c09d3fc84cb36dba1139,TCR,2024-06-25_12h40.10.989,LearnStrategy,2023.2.3,Win32,59.88023952,4,2,9,,,,,,,,7,14,,,,,,,,,,,1,3.267,0,,,,,,-0.353703711,-0.240740741,1,0,0,3.2672,Andesite_rect,8,0,8,0,1,
6663c09d3fc84cb36dba1139,TCR,2024-06-25_12h40.10.989,LearnStrategy,2023.2.3,Win32,59.88023952,4,2,10,,,,,,,,4,08,,,,,,,,,,,6,3.364,0,,,,,,-0.172222208,-0.404629672,1,0,0,3.3642,Pegmatite_rect,9,0,9,0,1,
6663c09d3fc84cb36dba1139,TCR,2024-06-25_12h40.10.989,LearnStrategy,2023.2.3,Win32,59.88023952,4,2,11,,,,,,,,2,02,,,,,,,,,,,1,1.38,0,,,,,,-0.380555541,-0.243518547,1,0,0,1.3797,Andesite_rect,10,0,10,0,1,
6663c09d3fc84cb36dba1139,TCR,2024-06-25_12h40.10.989,LearnStrategy,2023.2.3,Win32,59.88023952,4,2,12,,,,,,,,1,10,,,,,,,,,,,4,1.42,0,,,,,,0.459259316,-0.25,1,0,0,1.42,Gabbro_rect,11,0,11,0,1,
6663c09d3fc84cb36dba1139,TCR,2024-06-25_12h40.10.989,LearnStrategy,2023.2.3,Win32,59.88023952,4,2,13,,,,,,,,1,04,,,,,,,,,,,7,1.797,0,,,,,,0.164814843,-0.39444443,1,0,0,1.7969,Peridotite_rect,12,0,12,0,1,
6663c09d3fc84cb36dba1139,TCR,2024-06-25_12h40.10.989,LearnStrategy,2023.2.3,Win32,59.88023952,4,2,14,,,,,,,,8,02,,,,,,,,,,,8,0.902,1,,,,,,0.42777775,-0.397222236,1,0,0,0.9016,Pumice_rect,13,0,13,0,1,
6663c09d3fc84cb36dba1139,TCR,2024-06-25_12h40.10.989,LearnStrategy,2023.2.3,Win32,59.88023952,4,2,15,,,,,,,,7,08,,,,,,,,,,,7,1.813,1,,,,,,0.185185185,-0.39444443,1,0,0,1.8125,Peridotite_rect,14,0,14,0,1,
6663c09d3fc84cb36dba1139,TCR,2024-06-25_12h40.10.989,LearnStrategy,2023.2.3,Win32,59.88023952,4,2,16,,,,,,,,4,03,,,,,,,,,,,6,1.461,0,,,,,,-0.086111069,-0.388888889,1,0,0,1.4609,Pegmatite_rect,15,0,15,0,1,
6663c09d3fc84cb36dba1139,TCR,2024-06-25_12h40.10.989,LearnStrategy,2023.2.3,Win32,59.88023952,5,1,1,0.134259259,0.002777771,1,0,0,1.4357,rock_grid_rect_2,4,15,-1,-1,1.436,-0.385185171,-0.24537037,1,0,0,2.4392,Andesite_rect,1,2.439,0,0,0,0,0,1,,,,,,,,,,,,,
6663c09d3fc84cb36dba1139,TCR,2024-06-25_12h40.10.989,LearnStrategy,2023.2.3,Win32,59.88023952,5,1,2,0.016666695,-0.003703718,1,0,0,0.731,rock_grid_rect_2,1,09,-1,-1,0.731,-0.398148148,-0.237037023,1,0,0,1.179,Andesite_rect,1,1.179,1,1,0,1,0,1,,,,,,,,,,,,,
6663c09d3fc84cb36dba1139,TCR,2024-06-25_12h40.10.989,LearnStrategy,2023.2.3,Win32,59.88023952,5,1,3,-0.003703718,0.005555541,1,0,0,0.7137,rock_grid_rect_2,6,09,-1,-1,0.714,0.117592635,-0.404629672,1,0,0,2.4793,Peridotite_rect,7,2.479,0,2,0,2,0,1,,,,,,,,,,,,,
6663c09d3fc84cb36dba1139,TCR,2024-06-25_12h40.10.989,LearnStrategy,2023.2.3,Win32,59.88023952,5,1,4,0.037962949,-0.021296289,1,0,0,0.9519,rock_grid_rect_2,4,10,-1,-1,0.952,-0.174074032,-0.391666695,1,0,0,3.2852,Pegmatite_rect,6,3.285,0,3,0,3,0,1,,,,,,,,,,,,,
6663c09d3fc84cb36dba1139,TCR,2024-06-25_12h40.10.989,LearnStrategy,2023.2.3,Win32,59.88023952,5,1,5,-0.017592607,0,1,0,0,0.8013,rock_grid_rect_2,3,07,-1,-1,0.801,0.135185171,-0.24537037,1,0,0,1.2559,Diorite_rect,3,1.256,1,4,0,4,0,1,,,,,,,,,,,,,
6663c09d3fc84cb36dba1139,TCR,2024-06-25_12h40.10.989,LearnStrategy,2023.2.3,Win32,59.88023952,5,1,6,0.001851894,0.012962942,1,0,0,0.798,rock_grid_rect_2,1,16,-1,-1,0.798,-0.435185185,-0.263888889,1,0,0,1.6109,Andesite_rect,1,1.611,1,5,0,5,0,1,,,,,,,,,,,,,
6663c09d3fc84cb36dba1139,TCR,2024-06-25_12h40.10.989,LearnStrategy,2023.2.3,Win32,59.88023952,5,1,7,-0.015740712,0.023148148,1,0,0,0.6195,rock_grid_rect_2,1,05,-1,-1,0.62,-0.421296296,-0.258333347,1,0,0,0.9862,Andesite_rect,1,0.986,1,6,0,6,0,1,,,,,,,,,,,,,
6663c09d3fc84cb36dba1139,TCR,2024-06-25_12h40.10.989,LearnStrategy,2023.2.3,Win32,59.88023952,5,1,8,0.012962977,0.001851859,1,0,0,0.6609,rock_grid_rect_2,2,09,-1,-1,0.661,-0.380555541,-0.252777806,1,0,0,1.4697,Andesite_rect,1,1.47,0,7,0,7,0,1,,,,,,,,,,,,,
6663c09d3fc84cb36dba1139,TCR,2024-06-25_12h40.10.989,LearnStrategy,2023.2.3,Win32,59.88023952,5,1,9,0.01944443,0.002777771,1,0,0,0.5982,rock_grid_rect_2,1,11,-1,-1,0.598,0.087962963,-0.39907406,1,0,0,1.5888,Peridotite_rect,7,1.589,0,8,0,8,0,1,,,,,,,,,,,,,
6663c09d3fc84cb36dba1139,TCR,2024-06-25_12h40.10.989,LearnStrategy,2023.2.3,Win32,59.88023952,5,1,10,0.036111125,0.018518519,1,0,0,0.5596,rock_grid_rect_2,8,10,-1,-1,0.56,0.412037037,-0.39444443,1,0,0,1.033,Pumice_rect,8,1.033,1,9,0,9,0,1,,,,,,,,,,,,,
6663c09d3fc84cb36dba1139,TCR,2024-06-25_12h40.10.989,LearnStrategy,2023.2.3,Win32,59.88023952,5,1,11,-0.016666624,-0.009259259,1,0,0,0.8314,rock_grid_rect_2,4,01,-1,-1,0.831,-0.402777778,-0.271296325,1,0,0,1.5723,Andesite_rect,1,1.572,0,10,0,10,0,1,,,,,,,,,,,,,
6663c09d3fc84cb36dba1139,TCR,2024-06-25_12h40.10.989,LearnStrategy,2023.2.3,Win32,59.88023952,5,1,12,0.050925926,-0.002777771,1,0,0,0.5571,rock_grid_rect_2,7,12,-1,-1,0.557,0.086111139,-0.417592578,1,0,0,1.8759,Peridotite_rect,7,1.876,1,11,0,11,0,1,,,,,,,,,,,,,
6663c09d3fc84cb36dba1139,TCR,2024-06-25_12h40.10.989,LearnStrategy,2023.2.3,Win32,59.88023952,5,1,13,0.025000042,-0.003703718,1,0,0,0.6883,rock_grid_rect_2,7,07,-1,-1,0.688,0.077777792,-0.391666695,1,0,0,1.0909,Peridotite_rect,7,1.091,1,12,0,12,0,1,,,,,,,,,,,,,
6663c09d3fc84cb36dba1139,TCR,2024-06-25_12h40.10.989,LearnStrategy,2023.2.3,Win32,59.88023952,5,1,14,0.075925968,-0.0074074,1,0,0,0.7144,rock_grid_rect_2,4,01,-1,-1,0.714,0.125925912,-0.396296325,1,0,0,1.3486,Peridotite_rect,7,1.349,0,13,0,13,0,1,,,,,,,,,,,,,
6663c09d3fc84cb36dba1139,TCR,2024-06-25_12h40.10.989,LearnStrategy,2023.2.3,Win32,59.88023952,5,1,15,0.048148191,-0.009259259,1,0,0,0.6976,rock_grid_rect_2,2,01,-1,-1,0.698,-0.101851852,-0.242592635,1,0,0,0.9315,Basalt_rect,2,0.931,1,14,0,14,0,1,,,,,,,,,,,,,
6663c09d3fc84cb36dba1139,TCR,2024-06-25_12h40.10.989,LearnStrategy,2023.2.3,Win32,59.88023952,5,1,16,0.059259273,-0.010185206,1,0,0,0.6364,rock_grid_rect_2,6,11,-1,-1,0.636,0.173148191,-0.401851866,1,0,0,2.0069,Peridotite_rect,7,2.007,0,15,0,15,0,1,,,,,,,,,,,,,
6663c09d3fc84cb36dba1139,TCR,2024-06-25_12h40.10.989,LearnStrategy,2023.2.3,Win32,59.88023952,5,2,1,,,,,,,,7,04,,,,,,,,,,,6,1.621,0,,,,,,-0.071296268,-0.388888889,1,0,0,1.6214,Pegmatite_rect,0,0,0,0,1,
6663c09d3fc84cb36dba1139,TCR,2024-06-25_12h40.10.989,LearnStrategy,2023.2.3,Win32,59.88023952,5,2,2,,,,,,,,2,04,,,,,,,,,,,2,2.909,1,,,,,,-0.106481481,-0.237963005,1,0,0,2.9089,Basalt_rect,1,0,1,0,1,
6663c09d3fc84cb36dba1139,TCR,2024-06-25_12h40.10.989,LearnStrategy,2023.2.3,Win32,59.88023952,5,2,3,,,,,,,,3,12,,,,,,,,,,,3,1.377,1,,,,,,0.133333347,-0.246296282,1,0,0,1.3774,Diorite_rect,2,0,2,0,1,
6663c09d3fc84cb36dba1139,TCR,2024-06-25_12h40.10.989,LearnStrategy,2023.2.3,Win32,59.88023952,5,2,4,,,,,,,,7,13,,,,,,,,,,,7,1.246,1,,,,,,0.15370369,-0.410185213,1,0,0,1.2462,Peridotite_rect,3,0,3,0,1,
6663c09d3fc84cb36dba1139,TCR,2024-06-25_12h40.10.989,LearnStrategy,2023.2.3,Win32,59.88023952,5,2,5,,,,,,,,4,16,,,,,,,,,,,4,4.568,1,,,,,,0.395370342,-0.247222265,1,0,0,4.5675,Gabbro_rect,4,0,4,0,1,
6663c09d3fc84cb36dba1139,TCR,2024-06-25_12h40.10.989,LearnStrategy,2023.2.3,Win32,59.88023952,5,2,6,,,,,,,,3,16,,,,,,,,,,,3,2.316,1,,,,,,0.173148191,-0.242592635,1,0,0,2.3157,Diorite_rect,5,0,5,0,1,
6663c09d3fc84cb36dba1139,TCR,2024-06-25_12h40.10.989,LearnStrategy,2023.2.3,Win32,59.88023952,5,2,7,,,,,,,,1,03,,,,,,,,,,,1,1.118,1,,,,,,-0.422222208,-0.262962977,1,0,0,1.1181,Andesite_rect,6,0,6,0,1,
6663c09d3fc84cb36dba1139,TCR,2024-06-25_12h40.10.989,LearnStrategy,2023.2.3,Win32,59.88023952,5,2,8,,,,,,,,6,05,,,,,,,,,,,6,1.987,1,,,,,,-0.141666624,-0.390740783,1,0,0,1.9872,Pegmatite_rect,7,0,7,0,1,
6663c09d3fc84cb36dba1139,TCR,2024-06-25_12h40.10.989,LearnStrategy,2023.2.3,Win32,59.88023952,5,2,9,,,,,,,,8,06,,,,,,,,,,,8,0.957,1,,,,,,0.438888974,-0.395370413,1,0,0,0.9573,Pumice_rect,8,0,8,0,1,
6663c09d3fc84cb36dba1139,TCR,2024-06-25_12h40.10.989,LearnStrategy,2023.2.3,Win32,59.88023952,5,2,10,,,,,,,,5,07,,,,,,,,,,,5,1.049,1,,,,,,-0.438888868,-0.410185213,1,0,0,1.0495,Obsidian_rect,9,0,9,0,1,
6663c09d3fc84cb36dba1139,TCR,2024-06-25_12h40.10.989,LearnStrategy,2023.2.3,Win32,59.88023952,5,2,11,,,,,,,,2,08,,,,,,,,,,,4,3.928,0,,,,,,0.376851824,-0.24537037,1,0,0,3.9275,Gabbro_rect,10,0,10,0,1,
6663c09d3fc84cb36dba1139,TCR,2024-06-25_12h40.10.989,LearnStrategy,2023.2.3,Win32,59.88023952,5,2,12,,,,,,,,8,05,,,,,,,,,,,8,1.097,1,,,,,,0.382407436,-0.400000042,1,0,0,1.0972,Pumice_rect,11,0,11,0,1,
6663c09d3fc84cb36dba1139,TCR,2024-06-25_12h40.10.989,LearnStrategy,2023.2.3,Win32,59.88023952,5,2,13,,,,,,,,6,08,,,,,,,,,,,6,4.368,1,,,,,,-0.071296268,-0.39907406,1,0,0,4.3683,Pegmatite_rect,12,0,12,0,1,
6663c09d3fc84cb36dba1139,TCR,2024-06-25_12h40.10.989,LearnStrategy,2023.2.3,Win32,59.88023952,5,2,14,,,,,,,,5,11,,,,,,,,,,,5,0.853,1,,,,,,-0.323148127,-0.391666695,1,0,0,0.8534,Obsidian_rect,13,0,13,0,1,
6663c09d3fc84cb36dba1139,TCR,2024-06-25_12h40.10.989,LearnStrategy,2023.2.3,Win32,59.88023952,5,2,15,,,,,,,,4,11,,,,,,,,,,,1,1.567,0,,,,,,-0.35833334,-0.265740783,1,0,0,1.5665,Andesite_rect,14,0,14,0,1,
6663c09d3fc84cb36dba1139,TCR,2024-06-25_12h40.10.989,LearnStrategy,2023.2.3,Win32,59.88023952,5,2,16,,,,,,,,1,07,,,,,,,,,,,3,1.13,0,,,,,,0.160185213,-0.249074088,1,0,0,1.13,Diorite_rect,15,0,15,0,1,
6663c09d3fc84cb36dba1139,TCR,2024-06-25_12h40.10.989,LearnStrategy,2023.2.3,Win32,59.88023952,6,1,1,-0.046296296,-0.022222236,1,0,0,1.0508,rock_grid_rect_2,6,13,-1,-1,1.051,0.085185228,-0.420370384,1,0,0,1.4608,Peridotite_rect,7,1.461,0,0,0,0,0,1,,,,,,,,,,,,,
6663c09d3fc84cb36dba1139,TCR,2024-06-25_12h40.10.989,LearnStrategy,2023.2.3,Win32,59.88023952,6,1,2,0.046296296,-0.008333347,1,0,0,0.8564,rock_grid_rect_2,2,01,-1,-1,0.856,-0.429629608,-0.26944443,1,0,0,1.2588,Andesite_rect,1,1.259,0,1,0,1,0,1,,,,,,,,,,,,,
6663c09d3fc84cb36dba1139,TCR,2024-06-25_12h40.10.989,LearnStrategy,2023.2.3,Win32,59.88023952,6,1,3,0.038888931,0.006481489,1,0,0,0.8711,rock_grid_rect_2,4,15,-1,-1,0.871,0.376851824,-0.241666653,1,0,0,2.4674,Gabbro_rect,4,2.467,1,2,0,2,0,1,,,,,,,,,,,,,
6663c09d3fc84cb36dba1139,TCR,2024-06-25_12h40.10.989,LearnStrategy,2023.2.3,Win32,59.88023952,6,1,4,-0.02870369,0.015740748,1,0,0,0.6977,rock_grid_rect_2,8,04,-1,-1,0.698,0.412963019,-0.37962963,1,0,0,1.1113,Pumice_rect,8,1.111,1,3,0,3,0,1,,,,,,,,,,,,,
6663c09d3fc84cb36dba1139,TCR,2024-06-25_12h40.10.989,LearnStrategy,2023.2.3,Win32,59.88023952,6,1,5,0.038888931,-0.003703718,1,0,0,0.5375,rock_grid_rect_2,1,16,-1,-1,0.537,-0.334259245,-0.253703718,1,0,0,0.9788,Andesite_rect,1,0.979,1,4,0,4,0,1,,,,,,,,,,,,,
6663c09d3fc84cb36dba1139,TCR,2024-06-25_12h40.10.989,LearnStrategy,2023.2.3,Win32,59.88023952,6,1,6,0.061111097,-0.00462963,1,0,0,0.6305,rock_grid_rect_2,4,13,-1,-1,0.63,0.387963048,-0.237963005,1,0,0,1.1898,Gabbro_rect,4,1.19,1,5,0,5,0,1,,,,,,,,,,,,,
6663c09d3fc84cb36dba1139,TCR,2024-06-25_12h40.10.989,LearnStrategy,2023.2.3,Win32,59.88023952,6,1,7,0.050000014,0,1,0,0,1.0914,rock_grid_rect_2,6,03,-1,-1,1.091,0.143518519,-0.406481496,1,0,0,1.2762,Peridotite_rect,7,1.276,0,6,0,6,0,1,,,,,,,,,,,,,
6663c09d3fc84cb36dba1139,TCR,2024-06-25_12h40.10.989,LearnStrategy,2023.2.3,Win32,59.88023952,6,1,8,0.030555584,-0.000925947,1,0,0,0.7469,rock_grid_rect_2,1,05,-1,-1,0.747,-0.29351849,-0.251851894,1,0,0,2.9306,Andesite_rect,1,2.931,1,7,0,7,0,1,,,,,,,,,,,,,
6663c09d3fc84cb36dba1139,TCR,2024-06-25_12h40.10.989,LearnStrategy,2023.2.3,Win32,59.88023952,6,1,9,0.050000014,-0.022222236,1,0,0,0.897,rock_grid_rect_2,2,12,-1,-1,0.897,-0.092592593,-0.235185199,1,0,0,2.026,Basalt_rect,2,2.026,1,8,0,8,0,1,,,,,,,,,,,,,
6663c09d3fc84cb36dba1139,TCR,2024-06-25_12h40.10.989,LearnStrategy,2023.2.3,Win32,59.88023952,6,1,10,0.047222208,-0.009259259,1,0,0,0.6691,rock_grid_rect_2,1,14,-1,-1,0.669,-0.390740748,-0.252777806,1,0,0,1.0113,Andesite_rect,1,1.011,1,9,0,9,0,1,,,,,,,,,,,,,
6663c09d3fc84cb36dba1139,TCR,2024-06-25_12h40.10.989,LearnStrategy,2023.2.3,Win32,59.88023952,6,1,11,0.055555556,-0.021296289,1,0,0,0.5879,rock_grid_rect_2,1,16,-1,-1,0.588,-0.426851838,-0.240740741,1,0,0,0.8899,Andesite_rect,1,0.89,1,10,0,10,0,1,,,,,,,,,,,,,
6663c09d3fc84cb36dba1139,TCR,2024-06-25_12h40.10.989,LearnStrategy,2023.2.3,Win32,59.88023952,6,1,12,0.083333333,0.009259259,1,0,0,0.6144,rock_grid_rect_2,4,09,-1,-1,0.614,0.461111139,-0.261111153,1,0,0,1.6309,Gabbro_rect,4,1.631,1,11,0,11,0,1,,,,,,,,,,,,,
6663c09d3fc84cb36dba1139,TCR,2024-06-25_12h40.10.989,LearnStrategy,2023.2.3,Win32,59.88023952,6,1,13,0.056481467,-0.015740748,1,0,0,0.8091,rock_grid_rect_2,7,10,-1,-1,0.809,-0.107407393,-0.398148148,1,0,0,1.6566,Pegmatite_rect,6,1.657,0,12,0,12,0,1,,,,,,,,,,,,,
6663c09d3fc84cb36dba1139,TCR,2024-06-25_12h40.10.989,LearnStrategy,2023.2.3,Win32,59.88023952,6,1,14,0.036111125,-0.023148148,1,0,0,0.7148,rock_grid_rect_2,4,12,-1,-1,0.715,-0.419444437,-0.235185199,1,0,0,1.0924,Andesite_rect,1,1.092,0,13,0,13,0,1,,,,,,,,,,,,,
6663c09d3fc84cb36dba1139,TCR,2024-06-25_12h40.10.989,LearnStrategy,2023.2.3,Win32,59.88023952,6,1,15,0.07222225,-0.020370377,1,0,0,3.2027,rock_grid_rect_2,3,02,-1,-1,3.203,0.165740755,-0.258333347,1,0,0,1.3897,Diorite_rect,3,1.39,1,14,0,14,0,1,,,,,,,,,,,,,
6663c09d3fc84cb36dba1139,TCR,2024-06-25_12h40.10.989,LearnStrategy,2023.2.3,Win32,59.88023952,6,1,16,0.046296296,-0.0074074,1,0,0,0.8142,rock_grid_rect_2,7,06,-1,-1,0.814,0.097222222,-0.416666667,1,0,0,1.326,Peridotite_rect,7,1.326,1,15,0,15,0,1,,,,,,,,,,,,,
6663c09d3fc84cb36dba1139,TCR,2024-06-25_12h40.10.989,LearnStrategy,2023.2.3,Win32,59.88023952,6,2,1,,,,,,,,2,05,,,,,,,,,,,2,4.314,1,,,,,,-0.077777792,-0.260185171,1,0,0,4.3143,Basalt_rect,0,0,0,0,1,
6663c09d3fc84cb36dba1139,TCR,2024-06-25_12h40.10.989,LearnStrategy,2023.2.3,Win32,59.88023952,6,2,2,,,,,,,,3,13,,,,,,,,,,,3,1.7,1,,,,,,0.136111153,-0.265740783,1,0,0,1.7001,Diorite_rect,1,0,1,0,1,
6663c09d3fc84cb36dba1139,TCR,2024-06-25_12h40.10.989,LearnStrategy,2023.2.3,Win32,59.88023952,6,2,3,,,,,,,,7,02,,,,,,,,,,,7,10.296,1,,,,,,0.152777778,-0.396296325,1,0,0,10.2965,Peridotite_rect,2,0,2,0,1,
6663c09d3fc84cb36dba1139,TCR,2024-06-25_12h40.10.989,LearnStrategy,2023.2.3,Win32,59.88023952,6,2,4,,,,,,,,5,06,,,,,,,,,,,5,1.141,1,,,,,,-0.375,-0.412037037,1,0,0,1.1408,Obsidian_rect,3,0,3,0,1,
6663c09d3fc84cb36dba1139,TCR,2024-06-25_12h40.10.989,LearnStrategy,2023.2.3,Win32,59.88023952,6,2,5,,,,,,,,4,14,,,,,,,,,,,4,2.462,1,,,,,,0.374074159,-0.260185171,1,0,0,2.4619,Gabbro_rect,4,0,4,0,1,
6663c09d3fc84cb36dba1139,TCR,2024-06-25_12h40.10.989,LearnStrategy,2023.2.3,Win32,59.88023952,6,2,6,,,,,,,,1,01,,,,,,,,,,,3,3.814,0,,,,,,0.184259273,-0.261111153,1,0,0,3.8138,Diorite_rect,5,0,5,0,1,
6663c09d3fc84cb36dba1139,TCR,2024-06-25_12h40.10.989,LearnStrategy,2023.2.3,Win32,59.88023952,6,2,7,,,,,,,,2,16,,,,,,,,,,,2,2.181,1,,,,,,-0.125,-0.255555541,1,0,0,2.1807,Basalt_rect,6,0,6,0,1,
6663c09d3fc84cb36dba1139,TCR,2024-06-25_12h40.10.989,LearnStrategy,2023.2.3,Win32,59.88023952,6,2,8,,,,,,,,8,09,,,,,,,,,,,8,2.035,1,,,,,,0.411111196,-0.410185213,1,0,0,2.0346,Pumice_rect,7,0,7,0,1,
6663c09d3fc84cb36dba1139,TCR,2024-06-25_12h40.10.989,LearnStrategy,2023.2.3,Win32,59.88023952,6,2,9,,,,,,,,4,05,,,,,,,,,,,6,1.981,0,,,,,,-0.157407407,-0.412037037,1,0,0,1.9813,Pegmatite_rect,8,0,8,0,1,
6663c09d3fc84cb36dba1139,TCR,2024-06-25_12h40.10.989,LearnStrategy,2023.2.3,Win32,59.88023952,6,2,10,,,,,,,,5,14,,,,,,,,,,,5,4.264,1,,,,,,-0.371296282,-0.401851866,1,0,0,4.2639,Obsidian_rect,9,0,9,0,1,
6663c09d3fc84cb36dba1139,TCR,2024-06-25_12h40.10.989,LearnStrategy,2023.2.3,Win32,59.88023952,6,2,11,,,,,,,,1,06,,,,,,,,,,,1,3.253,1,,,,,,-0.392592571,-0.252777806,1,0,0,3.2534,Andesite_rect,10,0,10,0,1,
6663c09d3fc84cb36dba1139,TCR,2024-06-25_12h40.10.989,LearnStrategy,2023.2.3,Win32,59.88023952,6,2,12,,,,,,,,6,10,,,,,,,,,,,7,1.909,0,,,,,,0.127777806,-0.401851866,1,0,0,1.9092,Peridotite_rect,11,0,11,0,1,
6663c09d3fc84cb36dba1139,TCR,2024-06-25_12h40.10.989,LearnStrategy,2023.2.3,Win32,59.88023952,6,2,13,,,,,,,,7,05,,,,,,,,,,,6,1.628,0,,,,,,-0.115740741,-0.416666667,1,0,0,1.6282,Pegmatite_rect,12,0,12,0,1,
6663c09d3fc84cb36dba1139,TCR,2024-06-25_12h40.10.989,LearnStrategy,2023.2.3,Win32,59.88023952,6,2,14,,,,,,,,8,16,,,,,,,,,,,2,2.36,0,,,,,,-0.080555527,-0.250925912,1,0,0,2.3603,Basalt_rect,13,0,13,0,1,
6663c09d3fc84cb36dba1139,TCR,2024-06-25_12h40.10.989,LearnStrategy,2023.2.3,Win32,59.88023952,6,2,15,,,,,,,,3,14,,,,,,,,,,,3,3.666,1,,,,,,0.173148191,-0.256481524,1,0,0,3.6662,Diorite_rect,14,0,14,0,1,
6663c09d3fc84cb36dba1139,TCR,2024-06-25_12h40.10.989,LearnStrategy,2023.2.3,Win32,59.88023952,6,2,16,,,,,,,,6,12,,,,,,,,,,,3,1.597,0,,,,,,0.139814801,-0.239814829,1,0,0,1.5967,Diorite_rect,15,0,15,0,1,
6663c09d3fc84cb36dba1139,TCR,2024-06-25_12h40.10.989,LearnStrategy,2023.2.3,Win32,59.88023952,7,1,1,0.116666653,-0.014814836,1,0,0,1.9203,rock_grid_rect_2,6,03,-1,-1,1.92,-0.119444459,-0.410185213,1,0,0,1.5042,Pegmatite_rect,6,1.504,1,0,0,0,0,1,,,,,,,,,,,,,
6663c09d3fc84cb36dba1139,TCR,2024-06-25_12h40.10.989,LearnStrategy,2023.2.3,Win32,59.88023952,7,1,2,0.061111097,0.006481489,1,0,0,0.8266,rock_grid_rect_2,1,02,-1,-1,0.827,-0.481481481,-0.258333347,1,0,0,1.1125,Andesite_rect,1,1.112,1,1,0,1,0,1,,,,,,,,,,,,,
6663c09d3fc84cb36dba1139,TCR,2024-06-25_12h40.10.989,LearnStrategy,2023.2.3,Win32,59.88023952,7,1,3,-0.020370342,-0.013888889,1,0,0,4.5746,rock_grid_rect_2,7,10,-1,-1,4.575,0.133333347,-0.404629672,1,0,0,2.0928,Peridotite_rect,7,2.093,1,2,0,2,0,1,,,,,,,,,,,,,
6663c09d3fc84cb36dba1139,TCR,2024-06-25_12h40.10.989,LearnStrategy,2023.2.3,Win32,59.88023952,7,1,4,0.025000042,0.002777771,1,0,0,0.8313,rock_grid_rect_2,1,11,-1,-1,0.831,-0.385185171,-0.261111153,1,0,0,1.1581,Andesite_rect,1,1.158,1,3,0,3,0,1,,,,,,,,,,,,,
6663c09d3fc84cb36dba1139,TCR,2024-06-25_12h40.10.989,LearnStrategy,2023.2.3,Win32,59.88023952,7,1,5,0.010185171,0.000925912,1,0,0,0.9895,rock_grid_rect_2,6,16,-1,-1,0.99,0.112037023,-0.263888889,1,0,0,1.1675,Diorite_rect,3,1.168,0,4,0,4,0,1,,,,,,,,,,,,,
6663c09d3fc84cb36dba1139,TCR,2024-06-25_12h40.10.989,LearnStrategy,2023.2.3,Win32,59.88023952,7,1,6,-0.030555513,0.021296289,1,0,0,0.5975,rock_grid_rect_2,8,04,-1,-1,0.597,0.390740712,-0.404629672,1,0,0,1.0486,Pumice_rect,8,1.049,1,5,0,5,0,1,,,,,,,,,,,,,
6663c09d3fc84cb36dba1139,TCR,2024-06-25_12h40.10.989,LearnStrategy,2023.2.3,Win32,59.88023952,7,1,7,-0.024999972,0.005555541,1,0,0,1.1143,rock_grid_rect_2,2,06,-1,-1,1.114,0.406481566,-0.253703718,1,0,0,1.6911,Gabbro_rect,4,1.691,0,6,0,6,0,1,,,,,,,,,,,,,
6663c09d3fc84cb36dba1139,TCR,2024-06-25_12h40.10.989,LearnStrategy,2023.2.3,Win32,59.88023952,7,1,8,0.063888903,-0.005555577,1,0,0,0.6819,rock_grid_rect_2,3,10,-1,-1,0.682,0.337037122,-0.246296282,1,0,0,1.5186,Gabbro_rect,4,1.519,0,7,0,7,0,1,,,,,,,,,,,,,
6663c09d3fc84cb36dba1139,TCR,2024-06-25_12h40.10.989,LearnStrategy,2023.2.3,Win32,59.88023952,7,1,9,0.018518519,0.013888889,1,0,0,0.7065,rock_grid_rect_2,2,14,-1,-1,0.707,-0.09629631,-0.25462963,1,0,0,1.4629,Basalt_rect,2,1.463,1,8,0,8,0,1,,,,,,,,,,,,,
6663c09d3fc84cb36dba1139,TCR,2024-06-25_12h40.10.989,LearnStrategy,2023.2.3,Win32,59.88023952,7,1,10,0.086111139,-0.000925947,1,0,0,0.5807,rock_grid_rect_2,4,13,-1,-1,0.581,0.40833339,-0.234259288,1,0,0,1.1188,Gabbro_rect,4,1.119,1,9,0,9,0,1,,,,,,,,,,,,,
6663c09d3fc84cb36dba1139,TCR,2024-06-25_12h40.10.989,LearnStrategy,2023.2.3,Win32,59.88023952,7,1,11,-0.005555541,-0.011111118,1,0,0,0.5973,rock_grid_rect_2,5,08,-1,-1,0.597,-0.350925905,-0.389814801,1,0,0,1.1583,Obsidian_rect,5,1.158,1,10,0,10,0,1,,,,,,,,,,,,,
6663c09d3fc84cb36dba1139,TCR,2024-06-25_12h40.10.989,LearnStrategy,2023.2.3,Win32,59.88023952,7,1,12,0.038888931,-0.018518519,1,0,0,0.7524,rock_grid_rect_2,4,12,-1,-1,0.752,-0.393518519,-0.262037065,1,0,0,10.9473,Andesite_rect,1,10.947,0,11,0,11,0,1,,,,,,,,,,,,,
6663c09d3fc84cb36dba1139,TCR,2024-06-25_12h40.10.989,LearnStrategy,2023.2.3,Win32,59.88023952,7,1,13,0.053703732,-0.020370377,1,0,0,0.9473,rock_grid_rect_2,4,01,-1,-1,0.947,0.12962963,-0.408333319,1,0,0,1.5651,Peridotite_rect,7,1.565,0,12,0,12,0,1,,,,,,,,,,,,,
6663c09d3fc84cb36dba1139,TCR,2024-06-25_12h40.10.989,LearnStrategy,2023.2.3,Win32,59.88023952,7,1,14,0.077777792,-0.011111118,1,0,0,0.8644,rock_grid_rect_2,6,09,-1,-1,0.864,0.185185185,-0.391666695,1,0,0,1.0672,Peridotite_rect,7,1.067,0,13,0,13,0,1,,,,,,,,,,,,,
6663c09d3fc84cb36dba1139,TCR,2024-06-25_12h40.10.989,LearnStrategy,2023.2.3,Win32,59.88023952,7,1,15,0.062962991,-0.012962977,1,0,0,0.6703,rock_grid_rect_2,7,15,-1,-1,0.67,0.171296296,-0.382407436,1,0,0,0.9652,Peridotite_rect,7,0.965,1,14,0,14,0,1,,,,,,,,,,,,,
6663c09d3fc84cb36dba1139,TCR,2024-06-25_12h40.10.989,LearnStrategy,2023.2.3,Win32,59.88023952,7,1,16,0.014814801,-0.014814836,1,0,0,0.8651,rock_grid_rect_2,1,16,-1,-1,0.865,-0.336111104,-0.235185199,1,0,0,1.3773,Andesite_rect,1,1.377,1,15,0,15,0,1,,,,,,,,,,,,,
6663c09d3fc84cb36dba1139,TCR,2024-06-25_12h40.10.989,LearnStrategy,2023.2.3,Win32,59.88023952,7,2,1,,,,,,,,3,08,,,,,,,,,,,3,3.305,1,,,,,,0.088888875,-0.242592635,1,0,0,3.3053,Diorite_rect,0,0,0,0,1,
6663c09d3fc84cb36dba1139,TCR,2024-06-25_12h40.10.989,LearnStrategy,2023.2.3,Win32,59.88023952,7,2,2,,,,,,,,1,06,,,,,,,,,,,1,0.879,1,,,,,,-0.393518519,-0.251851894,1,0,0,0.8789,Andesite_rect,1,0,1,0,1,
6663c09d3fc84cb36dba1139,TCR,2024-06-25_12h40.10.989,LearnStrategy,2023.2.3,Win32,59.88023952,7,2,3,,,,,,,,2,08,,,,,,,,,,,2,1.524,1,,,,,,-0.088888875,-0.24537037,1,0,0,1.5235,Basalt_rect,2,0,2,0,1,
6663c09d3fc84cb36dba1139,TCR,2024-06-25_12h40.10.989,LearnStrategy,2023.2.3,Win32,59.88023952,7,2,4,,,,,,,,3,16,,,,,,,,,,,3,1.2,1,,,,,,0.135185171,-0.233333376,1,0,0,1.1999,Diorite_rect,3,0,3,0,1,
6663c09d3fc84cb36dba1139,TCR,2024-06-25_12h40.10.989,LearnStrategy,2023.2.3,Win32,59.88023952,7,2,5,,,,,,,,8,02,,,,,,,,,,,8,0.981,1,,,,,,0.381481453,-0.383333347,1,0,0,0.9806,Pumice_rect,4,0,4,0,1,
6663c09d3fc84cb36dba1139,TCR,2024-06-25_12h40.10.989,LearnStrategy,2023.2.3,Win32,59.88023952,7,2,6,,,,,,,,7,13,,,,,,,,,,,6,1.653,0,,,,,,-0.05277775,-0.411111125,1,0,0,1.653,Pegmatite_rect,5,0,5,0,1,
6663c09d3fc84cb36dba1139,TCR,2024-06-25_12h40.10.989,LearnStrategy,2023.2.3,Win32,59.88023952,7,2,7,,,,,,,,1,07,,,,,,,,,,,3,0.849,0,,,,,,0.161111125,-0.249074088,1,0,0,0.8487,Diorite_rect,6,0,6,0,1,
6663c09d3fc84cb36dba1139,TCR,2024-06-25_12h40.10.989,LearnStrategy,2023.2.3,Win32,59.88023952,7,2,8,,,,,,,,4,14,,,,,,,,,,,4,1.296,1,,,,,,0.35555564,-0.255555541,1,0,0,1.2959,Gabbro_rect,7,0,7,0,1,
6663c09d3fc84cb36dba1139,TCR,2024-06-25_12h40.10.989,LearnStrategy,2023.2.3,Win32,59.88023952,7,2,9,,,,,,,,6,10,,,,,,,,,,,7,0.966,0,,,,,,0.130555541,-0.380555541,1,0,0,0.9661,Peridotite_rect,8,0,8,0,1,
6663c09d3fc84cb36dba1139,TCR,2024-06-25_12h40.10.989,LearnStrategy,2023.2.3,Win32,59.88023952,7,2,10,,,,,,,,7,04,,,,,,,,,,,7,0.917,1,,,,,,0.134259259,-0.39907406,1,0,0,0.9174,Peridotite_rect,9,0,9,0,1,
6663c09d3fc84cb36dba1139,TCR,2024-06-25_12h40.10.989,LearnStrategy,2023.2.3,Win32,59.88023952,7,2,11,,,,,,,,6,08,,,,,,,,,,,6,1.652,1,,,,,,-0.138888889,-0.402777778,1,0,0,1.6525,Pegmatite_rect,10,0,10,0,1,
6663c09d3fc84cb36dba1139,TCR,2024-06-25_12h40.10.989,LearnStrategy,2023.2.3,Win32,59.88023952,7,2,12,,,,,,,,5,10,,,,,,,,,,,5,0.796,1,,,,,,-0.400925919,-0.412037037,1,0,0,0.7964,Obsidian_rect,11,0,11,0,1,
6663c09d3fc84cb36dba1139,TCR,2024-06-25_12h40.10.989,LearnStrategy,2023.2.3,Win32,59.88023952,7,2,13,,,,,,,,8,16,,,,,,,,,,,8,1.796,1,,,,,,0.409259231,-0.388888889,1,0,0,1.7963,Pumice_rect,12,0,12,0,1,
6663c09d3fc84cb36dba1139,TCR,2024-06-25_12h40.10.989,LearnStrategy,2023.2.3,Win32,59.88023952,7,2,14,,,,,,,,2,02,,,,,,,,,,,1,0.965,0,,,,,,-0.355555534,-0.270370413,1,0,0,0.9646,Andesite_rect,13,0,13,0,1,
6663c09d3fc84cb36dba1139,TCR,2024-06-25_12h40.10.989,LearnStrategy,2023.2.3,Win32,59.88023952,7,2,15,,,,,,,,5,06,,,,,,,,,,,5,0.877,1,,,,,,-0.361111111,-0.392592607,1,0,0,0.8768,Obsidian_rect,14,0,14,0,1,
6663c09d3fc84cb36dba1139,TCR,2024-06-25_12h40.10.989,LearnStrategy,2023.2.3,Win32,59.88023952,7,2,16,,,,,,,,4,03,,,,,,,,,,,1,1.997,0,,,,,,-0.372222229,-0.252777806,1,0,0,1.9971,Andesite_rect,15,0,15,0,1,
6663c09d3fc84cb36dba1139,TCR,2024-06-25_12h40.10.989,LearnStrategy,2023.2.3,Win32,59.88023952,8,1,1,-0.02870369,-0.021296289,1,0,0,3.9658,rock_grid_rect_2,6,16,-1,-1,3.966,0.121296282,-0.25,1,0,0,11.8368,Diorite_rect,3,11.837,0,0,0,0,0,1,,,,,,,,,,,,,
6663c09d3fc84cb36dba1139,TCR,2024-06-25_12h40.10.989,LearnStrategy,2023.2.3,Win32,59.88023952,8,1,2,0.009259259,0.00462963,1,0,0,1.0474,rock_grid_rect_2,4,10,-1,-1,1.047,-0.423148155,-0.253703718,1,0,0,1.4096,Andesite_rect,1,1.41,0,1,0,1,0,1,,,,,,,,,,,,,
6663c09d3fc84cb36dba1139,TCR,2024-06-25_12h40.10.989,LearnStrategy,2023.2.3,Win32,59.88023952,8,1,3,-0.006481453,-0.01203703,1,0,0,0.5902,rock_grid_rect_2,2,12,-1,-1,0.59,-0.389814801,-0.271296325,1,0,0,0.9653,Andesite_rect,1,0.965,0,2,0,2,0,1,,,,,,,,,,,,,
6663c09d3fc84cb36dba1139,TCR,2024-06-25_12h40.10.989,LearnStrategy,2023.2.3,Win32,59.88023952,8,1,4,0.027777778,-0.020370377,1,0,0,0.4706,rock_grid_rect_2,6,03,-1,-1,0.471,-0.119444459,-0.396296325,1,0,0,1.4899,Pegmatite_rect,6,1.49,1,3,0,3,0,1,,,,,,,,,,,,,
6663c09d3fc84cb36dba1139,TCR,2024-06-25_12h40.10.989,LearnStrategy,2023.2.3,Win32,59.88023952,8,1,5,0.016666695,-0.00462963,1,0,0,0.9642,rock_grid_rect_2,2,11,-1,-1,0.964,-0.386111118,-0.250925912,1,0,0,2.0623,Andesite_rect,1,2.062,0,4,0,4,0,1,,,,,,,,,,,,,
6663c09d3fc84cb36dba1139,TCR,2024-06-25_12h40.10.989,LearnStrategy,2023.2.3,Win32,59.88023952,8,1,6,0.042592578,-0.001851859,1,0,0,0.5678,rock_grid_rect_2,3,15,-1,-1,0.568,0.419444473,-0.266666695,1,0,0,1.0877,Gabbro_rect,4,1.088,0,5,0,5,0,1,,,,,,,,,,,,,
6663c09d3fc84cb36dba1139,TCR,2024-06-25_12h40.10.989,LearnStrategy,2023.2.3,Win32,59.88023952,8,1,7,-0.003703718,-0.010185206,1,0,0,0.6401,rock_grid_rect_2,4,13,-1,-1,0.64,0.431481538,-0.23055557,1,0,0,1.0948,Gabbro_rect,4,1.095,1,6,0,6,0,1,,,,,,,,,,,,,
6663c09d3fc84cb36dba1139,TCR,2024-06-25_12h40.10.989,LearnStrategy,2023.2.3,Win32,59.88023952,8,1,8,-0.021296254,-0.006481489,1,0,0,0.6309,rock_grid_rect_2,7,06,-1,-1,0.631,-0.094444416,-0.404629672,1,0,0,1.497,Pegmatite_rect,6,1.497,0,7,0,7,0,1,,,,,,,,,,,,,
6663c09d3fc84cb36dba1139,TCR,2024-06-25_12h40.10.989,LearnStrategy,2023.2.3,Win32,59.88023952,8,1,9,0.05740745,-0.011111118,1,0,0,0.7314,rock_grid_rect_2,1,05,-1,-1,0.731,-0.375,-0.252777806,1,0,0,0.8989,Andesite_rect,1,0.899,1,8,0,8,0,1,,,,,,,,,,,,,
6663c09d3fc84cb36dba1139,TCR,2024-06-25_12h40.10.989,LearnStrategy,2023.2.3,Win32,59.88023952,8,1,10,0.065740727,0.017592571,1,0,0,8.4215,rock_grid_rect_2,7,16,-1,-1,8.421,0.367592564,-0.256481524,1,0,0,6.4827,Gabbro_rect,4,6.483,0,9,0,9,0,1,,,,,,,,,,,,,
6663c09d3fc84cb36dba1139,TCR,2024-06-25_12h40.10.989,LearnStrategy,2023.2.3,Win32,59.88023952,8,1,11,0.050925926,-0.000925947,1,0,0,6.4494,rock_grid_rect_2,7,06,-1,-1,6.449,0.103703746,-0.390740783,1,0,0,2.5433,Peridotite_rect,7,2.543,1,10,0,10,0,1,,,,,,,,,,,,,
6663c09d3fc84cb36dba1139,TCR,2024-06-25_12h40.10.989,LearnStrategy,2023.2.3,Win32,59.88023952,8,1,12,0.02870369,0.006481489,1,0,0,1.365,rock_grid_rect_2,6,13,-1,-1,1.365,-0.369444423,-0.251851894,1,0,0,2.6742,Andesite_rect,1,2.674,0,11,0,11,0,1,,,,,,,,,,,,,
6663c09d3fc84cb36dba1139,TCR,2024-06-25_12h40.10.989,LearnStrategy,2023.2.3,Win32,59.88023952,8,1,13,0.026851866,-0.017592607,1,0,0,3.6736,rock_grid_rect_2,8,15,-1,-1,3.674,0.380555612,-0.400925954,1,0,0,1.0119,Pumice_rect,8,1.012,1,12,0,12,0,1,,,,,,,,,,,,,
6663c09d3fc84cb36dba1139,TCR,2024-06-25_12h40.10.989,LearnStrategy,2023.2.3,Win32,59.88023952,8,1,14,0.046296296,-0.011111118,1,0,0,1.5092,rock_grid_rect_2,1,11,-1,-1,1.509,-0.38703703,-0.239814829,1,0,0,0.9502,Andesite_rect,1,0.95,1,13,0,13,0,1,,,,,,,,,,,,,
6663c09d3fc84cb36dba1139,TCR,2024-06-25_12h40.10.989,LearnStrategy,2023.2.3,Win32,59.88023952,8,1,15,0.043518561,-0.003703718,1,0,0,0.9031,rock_grid_rect_2,1,11,-1,-1,0.903,-0.366666653,-0.24537037,1,0,0,8.9752,Andesite_rect,1,8.975,1,14,0,14,0,1,,,,,,,,,,,,,
6663c09d3fc84cb36dba1139,TCR,2024-06-25_12h40.10.989,LearnStrategy,2023.2.3,Win32,59.88023952,8,1,16,0.060185185,-0.010185206,1,0,0,1.0472,rock_grid_rect_2,4,01,-1,-1,1.047,0.148148148,-0.400000042,1,0,0,2.1422,Peridotite_rect,7,2.142,0,15,0,15,0,1,,,,,,,,,,,,,
6663c09d3fc84cb36dba1139,TCR,2024-06-25_12h40.10.989,LearnStrategy,2023.2.3,Win32,59.88023952,8,2,1,,,,,,,,1,10,,,,,,,,,,,7,3.47,0,,,,,,0.145370413,-0.391666695,1,0,0,3.4701,Peridotite_rect,0,0,0,0,1,
6663c09d3fc84cb36dba1139,TCR,2024-06-25_12h40.10.989,LearnStrategy,2023.2.3,Win32,59.88023952,8,2,2,,,,,,,,8,08,,,,,,,,,,,8,0.996,1,,,,,,0.413888861,-0.401851866,1,0,0,0.9959,Pumice_rect,1,0,1,0,1,
6663c09d3fc84cb36dba1139,TCR,2024-06-25_12h40.10.989,LearnStrategy,2023.2.3,Win32,59.88023952,8,2,3,,,,,,,,6,07,,,,,,,,,,,6,1.133,1,,,,,,-0.158333319,-0.400925954,1,0,0,1.1334,Pegmatite_rect,2,0,2,0,1,
6663c09d3fc84cb36dba1139,TCR,2024-06-25_12h40.10.989,LearnStrategy,2023.2.3,Win32,59.88023952,8,2,4,,,,,,,,5,12,,,,,,,,,,,5,0.789,1,,,,,,-0.405555548,-0.415740755,1,0,0,0.7891,Obsidian_rect,3,0,3,0,1,
6663c09d3fc84cb36dba1139,TCR,2024-06-25_12h40.10.989,LearnStrategy,2023.2.3,Win32,59.88023952,8,2,5,,,,,,,,5,07,,,,,,,,,,,5,1.002,1,,,,,,-0.366666653,-0.381481524,1,0,0,1.0017,Obsidian_rect,4,0,4,0,1,
6663c09d3fc84cb36dba1139,TCR,2024-06-25_12h40.10.989,LearnStrategy,2023.2.3,Win32,59.88023952,8,2,6,,,,,,,,7,14,,,,,,,,,,,7,2.136,1,,,,,,0.139814801,-0.389814801,1,0,0,2.1355,Peridotite_rect,5,0,5,0,1,
6663c09d3fc84cb36dba1139,TCR,2024-06-25_12h40.10.989,LearnStrategy,2023.2.3,Win32,59.88023952,8,2,7,,,,,,,,6,12,,,,,,,,,,,1,10.786,0,,,,,,-0.419444437,-0.261111153,1,0,0,10.7857,Andesite_rect,6,0,6,0,1,
6663c09d3fc84cb36dba1139,TCR,2024-06-25_12h40.10.989,LearnStrategy,2023.2.3,Win32,59.88023952,8,2,8,,,,,,,,1,01,,,,,,,,,,,4,1.37,0,,,,,,0.351851852,-0.266666695,1,0,0,1.3701,Gabbro_rect,7,0,7,0,1,
6663c09d3fc84cb36dba1139,TCR,2024-06-25_12h40.10.989,LearnStrategy,2023.2.3,Win32,59.88023952,8,2,9,,,,,,,,7,05,,,,,,,,,,,7,1.303,1,,,,,,0.156481496,-0.407407407,1,0,0,1.3027,Peridotite_rect,8,0,8,0,1,
6663c09d3fc84cb36dba1139,TCR,2024-06-25_12h40.10.989,LearnStrategy,2023.2.3,Win32,59.88023952,8,2,10,,,,,,,,4,11,,,,,,,,,,,1,1.069,0,,,,,,-0.421296296,-0.25,1,0,0,1.0691,Andesite_rect,9,0,9,0,1,
6663c09d3fc84cb36dba1139,TCR,2024-06-25_12h40.10.989,LearnStrategy,2023.2.3,Win32,59.88023952,8,2,11,,,,,,,,8,09,,,,,,,,,,,8,1.378,1,,,,,,0.419444473,-0.404629672,1,0,0,1.3775,Pumice_rect,10,0,10,0,1,
6663c09d3fc84cb36dba1139,TCR,2024-06-25_12h40.10.989,LearnStrategy,2023.2.3,Win32,59.88023952,8,2,12,,,,,,,,3,09,,,,,,,,,,,3,0.915,1,,,,,,0.161111125,-0.241666653,1,0,0,0.9147,Diorite_rect,11,0,11,0,1,
6663c09d3fc84cb36dba1139,TCR,2024-06-25_12h40.10.989,LearnStrategy,2023.2.3,Win32,59.88023952,8,2,13,,,,,,,,2,10,,,,,,,,,,,2,1.867,1,,,,,,-0.092592593,-0.262037065,1,0,0,1.8672,Basalt_rect,12,0,12,0,1,
6663c09d3fc84cb36dba1139,TCR,2024-06-25_12h40.10.989,LearnStrategy,2023.2.3,Win32,59.88023952,8,2,14,,,,,,,,4,08,,,,,,,,,,,7,1.86,0,,,,,,0.054629644,-0.406481496,1,0,0,1.8602,Peridotite_rect,13,0,13,0,1,
6663c09d3fc84cb36dba1139,TCR,2024-06-25_12h40.10.989,LearnStrategy,2023.2.3,Win32,59.88023952,8,2,15,,,,,,,,3,12,,,,,,,,,,,3,0.849,1,,,,,,0.09629631,-0.262962977,1,0,0,0.8493,Diorite_rect,14,0,14,0,1,
6663c09d3fc84cb36dba1139,TCR,2024-06-25_12h40.10.989,LearnStrategy,2023.2.3,Win32,59.88023952,8,2,16,,,,,,,,2,05,,,,,,,,,,,2,2.804,1,,,,,,-0.157407407,-0.255555541,1,0,0,2.8042,Basalt_rect,15,0,15,0,1,
6663c09d3fc84cb36dba1139,TCR,2024-06-25_12h40.10.989,LearnStrategy,2023.2.3,Win32,59.88023952,9,1,1,0.042592578,-0.006481489,1,0,0,1.0319,rock_grid_rect_2,7,16,-1,-1,1.032,0.130555541,-0.402777778,1,0,0,1.8657,Peridotite_rect,7,1.866,1,0,0,0,0,1,,,,,,,,,,,,,
6663c09d3fc84cb36dba1139,TCR,2024-06-25_12h40.10.989,LearnStrategy,2023.2.3,Win32,59.88023952,9,1,2,0.045370384,-0.015740748,1,0,0,0.9873,rock_grid_rect_2,8,04,-1,-1,0.987,0.409259231,-0.415740755,1,0,0,1.0152,Pumice_rect,8,1.015,1,1,0,1,0,1,,,,,,,,,,,,,
6663c09d3fc84cb36dba1139,TCR,2024-06-25_12h40.10.989,LearnStrategy,2023.2.3,Win32,59.88023952,9,1,3,0.031481496,-0.023148148,1,0,0,0.7142,rock_grid_rect_2,6,13,-1,-1,0.714,-0.095370328,-0.39907406,1,0,0,2.6998,Pegmatite_rect,6,2.7,1,2,0,2,0,1,,,,,,,,,,,,,
6663c09d3fc84cb36dba1139,TCR,2024-06-25_12h40.10.989,LearnStrategy,2023.2.3,Win32,59.88023952,9,1,4,0.006481524,0,1,0,0,0.6839,rock_grid_rect_2,1,05,-1,-1,0.684,-0.389814801,-0.252777806,1,0,0,0.9935,Andesite_rect,1,0.994,1,3,0,3,0,1,,,,,,,,,,,,,
6663c09d3fc84cb36dba1139,TCR,2024-06-25_12h40.10.989,LearnStrategy,2023.2.3,Win32,59.88023952,9,1,5,0.018518519,-0.01203703,1,0,0,0.7481,rock_grid_rect_2,6,09,-1,-1,0.748,-0.110185199,-0.408333319,1,0,0,1.4519,Pegmatite_rect,6,1.452,1,4,0,4,0,1,,,,,,,,,,,,,
6663c09d3fc84cb36dba1139,TCR,2024-06-25_12h40.10.989,LearnStrategy,2023.2.3,Win32,59.88023952,9,1,6,0.041666667,-0.011111118,1,0,0,0.6247,rock_grid_rect_2,3,10,-1,-1,0.625,0.142592607,-0.259259259,1,0,0,2.6974,Diorite_rect,3,2.697,1,5,0,5,0,1,,,,,,,,,,,,,
6663c09d3fc84cb36dba1139,TCR,2024-06-25_12h40.10.989,LearnStrategy,2023.2.3,Win32,59.88023952,9,1,7,0.075925968,0,1,0,0,0.6989,rock_grid_rect_2,6,11,-1,-1,0.699,-0.137962977,-0.400000042,1,0,0,1.2181,Pegmatite_rect,6,1.218,1,6,0,6,0,1,,,,,,,,,,,,,
6663c09d3fc84cb36dba1139,TCR,2024-06-25_12h40.10.989,LearnStrategy,2023.2.3,Win32,59.88023952,9,1,8,0.078703704,0.013888889,1,0,0,0.6365,rock_grid_rect_2,1,16,-1,-1,0.636,-0.388888889,-0.231481481,1,0,0,1.0395,Andesite_rect,1,1.039,1,7,0,7,0,1,,,,,,,,,,,,,
6663c09d3fc84cb36dba1139,TCR,2024-06-25_12h40.10.989,LearnStrategy,2023.2.3,Win32,59.88023952,9,1,9,0.074999986,-0.023148148,1,0,0,0.5064,rock_grid_rect_2,4,15,-1,-1,0.506,0.375925982,-0.241666653,1,0,0,1.1262,Gabbro_rect,4,1.126,1,8,0,8,0,1,,,,,,,,,,,,,
6663c09d3fc84cb36dba1139,TCR,2024-06-25_12h40.10.989,LearnStrategy,2023.2.3,Win32,59.88023952,9,1,10,0.05277782,-0.0074074,1,0,0,0.6309,rock_grid_rect_2,1,14,-1,-1,0.631,-0.400925919,-0.237963005,1,0,0,1.0623,Andesite_rect,1,1.062,1,9,0,9,0,1,,,,,,,,,,,,,
6663c09d3fc84cb36dba1139,TCR,2024-06-25_12h40.10.989,LearnStrategy,2023.2.3,Win32,59.88023952,9,1,11,0.018518519,-0.017592607,1,0,0,0.8472,rock_grid_rect_2,4,09,-1,-1,0.847,0.388888889,-0.241666653,1,0,0,2.4125,Gabbro_rect,4,2.413,1,10,0,10,0,1,,,,,,,,,,,,,
6663c09d3fc84cb36dba1139,TCR,2024-06-25_12h40.10.989,LearnStrategy,2023.2.3,Win32,59.88023952,9,1,12,0.064814815,-0.024074095,1,0,0,0.7124,rock_grid_rect_2,4,12,-1,-1,0.712,0.3648149,-0.239814829,1,0,0,2.7489,Gabbro_rect,4,2.749,1,11,0,11,0,1,,,,,,,,,,,,,
6663c09d3fc84cb36dba1139,TCR,2024-06-25_12h40.10.989,LearnStrategy,2023.2.3,Win32,59.88023952,9,1,13,0.026851866,0.005555541,1,0,0,0.7695,rock_grid_rect_2,7,12,-1,-1,0.77,0.095370399,-0.397222236,1,0,0,1.3933,Peridotite_rect,7,1.393,1,12,0,12,0,1,,,,,,,,,,,,,
6663c09d3fc84cb36dba1139,TCR,2024-06-25_12h40.10.989,LearnStrategy,2023.2.3,Win32,59.88023952,9,1,14,0.084259245,0.000925912,1,0,0,0.8477,rock_grid_rect_2,1,09,-1,-1,0.848,-0.372222229,-0.237963005,1,0,0,1.1183,Andesite_rect,1,1.118,1,13,0,13,0,1,,,,,,,,,,,,,
6663c09d3fc84cb36dba1139,TCR,2024-06-25_12h40.10.989,LearnStrategy,2023.2.3,Win32,59.88023952,9,1,15,0.069444444,-0.000925947,1,0,0,0.7474,rock_grid_rect_2,4,01,-1,-1,0.747,0.150000042,-0.392592607,1,0,0,10.996,Peridotite_rect,7,10.996,0,14,0,14,0,1,,,,,,,,,,,,,
6663c09d3fc84cb36dba1139,TCR,2024-06-25_12h40.10.989,LearnStrategy,2023.2.3,Win32,59.88023952,9,1,16,0.009259259,-0.019444466,1,0,0,0.8644,rock_grid_rect_2,2,12,-1,-1,0.864,-0.356481481,-0.241666653,1,0,0,0.9164,Andesite_rect,1,0.916,0,15,0,15,0,1,,,,,,,,,,,,,
6663c09d3fc84cb36dba1139,TCR,2024-06-25_12h40.10.989,LearnStrategy,2023.2.3,Win32,59.88023952,9,2,1,,,,,,,,3,14,,,,,,,,,,,3,1.334,1,,,,,,0.137962977,-0.252777806,1,0,0,1.3338,Diorite_rect,0,0,0,0,1,
6663c09d3fc84cb36dba1139,TCR,2024-06-25_12h40.10.989,LearnStrategy,2023.2.3,Win32,59.88023952,9,2,2,,,,,,,,2,04,,,,,,,,,,,2,2.888,1,,,,,,-0.131481453,-0.252777806,1,0,0,2.8882,Basalt_rect,1,0,1,0,1,
6663c09d3fc84cb36dba1139,TCR,2024-06-25_12h40.10.989,LearnStrategy,2023.2.3,Win32,59.88023952,9,2,3,,,,,,,,4,05,,,,,,,,,,,7,2.748,0,,,,,,0.143518519,-0.410185213,1,0,0,2.7483,Peridotite_rect,2,0,2,0,1,
6663c09d3fc84cb36dba1139,TCR,2024-06-25_12h40.10.989,LearnStrategy,2023.2.3,Win32,59.88023952,9,2,4,,,,,,,,8,06,,,,,,,,,,,8,0.94,1,,,,,,0.409259231,-0.409259302,1,0,0,0.94,Pumice_rect,3,0,3,0,1,
6663c09d3fc84cb36dba1139,TCR,2024-06-25_12h40.10.989,LearnStrategy,2023.2.3,Win32,59.88023952,9,2,5,,,,,,,,2,16,,,,,,,,,,,4,1.972,0,,,,,,0.417592649,-0.260185171,1,0,0,1.9716,Gabbro_rect,4,0,4,0,1,
6663c09d3fc84cb36dba1139,TCR,2024-06-25_12h40.10.989,LearnStrategy,2023.2.3,Win32,59.88023952,9,2,6,,,,,,,,8,05,,,,,,,,,,,8,0.951,1,,,,,,0.401851937,-0.381481524,1,0,0,0.9507,Pumice_rect,5,0,5,0,1,
6663c09d3fc84cb36dba1139,TCR,2024-06-25_12h40.10.989,LearnStrategy,2023.2.3,Win32,59.88023952,9,2,7,,,,,,,,1,04,,,,,,,,,,,1,0.889,1,,,,,,-0.393518519,-0.264814801,1,0,0,0.8893,Andesite_rect,6,0,6,0,1,
6663c09d3fc84cb36dba1139,TCR,2024-06-25_12h40.10.989,LearnStrategy,2023.2.3,Win32,59.88023952,9,2,8,,,,,,,,3,13,,,,,,,,,,,3,1.005,1,,,,,,0.173148191,-0.266666695,1,0,0,1.0049,Diorite_rect,7,0,7,0,1,
6663c09d3fc84cb36dba1139,TCR,2024-06-25_12h40.10.989,LearnStrategy,2023.2.3,Win32,59.88023952,9,2,9,,,,,,,,1,03,,,,,,,,,,,1,1.106,1,,,,,,-0.340740734,-0.265740783,1,0,0,1.1065,Andesite_rect,8,0,8,0,1,
6663c09d3fc84cb36dba1139,TCR,2024-06-25_12h40.10.989,LearnStrategy,2023.2.3,Win32,59.88023952,9,2,10,,,,,,,,7,08,,,,,,,,,,,7,0.833,1,,,,,,0.205555598,-0.383333347,1,0,0,0.8335,Peridotite_rect,9,0,9,0,1,
6663c09d3fc84cb36dba1139,TCR,2024-06-25_12h40.10.989,LearnStrategy,2023.2.3,Win32,59.88023952,9,2,11,,,,,,,,4,16,,,,,,,,,,,4,2.29,1,,,,,,0.345370399,-0.262962977,1,0,0,2.2903,Gabbro_rect,10,0,10,0,1,
6663c09d3fc84cb36dba1139,TCR,2024-06-25_12h40.10.989,LearnStrategy,2023.2.3,Win32,59.88023952,9,2,12,,,,,,,,6,15,,,,,,,,,,,6,1.531,1,,,,,,-0.113888847,-0.389814801,1,0,0,1.5309,Pegmatite_rect,11,0,11,0,1,
6663c09d3fc84cb36dba1139,TCR,2024-06-25_12h40.10.989,LearnStrategy,2023.2.3,Win32,59.88023952,9,2,13,,,,,,,,5,11,,,,,,,,,,,5,1.065,1,,,,,,-0.368518511,-0.386111153,1,0,0,1.0654,Obsidian_rect,12,0,12,0,1,
6663c09d3fc84cb36dba1139,TCR,2024-06-25_12h40.10.989,LearnStrategy,2023.2.3,Win32,59.88023952,9,2,14,,,,,,,,6,05,,,,,,,,,,,3,1.654,0,,,,,,0.148148148,-0.244444459,1,0,0,1.6535,Diorite_rect,13,0,13,0,1,
6663c09d3fc84cb36dba1139,TCR,2024-06-25_12h40.10.989,LearnStrategy,2023.2.3,Win32,59.88023952,9,2,15,,,,,,,,7,02,,,,,,,,,,,7,0.921,1,,,,,,0.160185213,-0.390740783,1,0,0,0.9207,Peridotite_rect,14,0,14,0,1,
6663c09d3fc84cb36dba1139,TCR,2024-06-25_12h40.10.989,LearnStrategy,2023.2.3,Win32,59.88023952,9,2,16,,,,,,,,5,14,,,,,,,,,,,5,1.267,1,,,,,,-0.375,-0.406481496,1,0,0,1.2665,Obsidian_rect,15,0,15,0,1,
6663c09d3fc84cb36dba1139,TCR,2024-06-25_12h40.10.989,LearnStrategy,2023.2.3,Win32,59.88023952,,,,,,,,,,,,,,,,,,,,,,,,,,,,,,,,,,,,,,,,,,,1
6663c09d3fc84cb36dba1139,TCR,2024-06-25_12h40.10.989,LearnStrategy,2023.2.3,Win32,59.88023952,,,,,,,,,,,,,,,,,,,,,,,,,,,,,,,,,,,,,,,,,,,
6663c09d3fc84cb36dba1139,TCR,2024-06-25_12h40.10.989,LearnStrategy,2023.2.3,Win32,59.88023952,,,,,,,,,,,1,02,1,1,,,,,,,,,,,,,,,,,,,,,,,,,,,,,
6663c09d3fc84cb36dba1139,TCR,2024-06-25_12h40.10.989,LearnStrategy,2023.2.3,Win32,59.88023952,,,,,,,,,,,8,13,1,2,,,,,,,,,,,,,,,,,,,,,,,,,,,,,
6663c09d3fc84cb36dba1139,TCR,2024-06-25_12h40.10.989,LearnStrategy,2023.2.3,Win32,59.88023952,,,,,,,,,,,6,06,1,3,,,,,,,,,,,,,,,,,,,,,,,,,,,,,
6663c09d3fc84cb36dba1139,TCR,2024-06-25_12h40.10.989,LearnStrategy,2023.2.3,Win32,59.88023952,,,,,,,,,,,7,10,1,4,,,,,,,,,,,,,,,,,,,,,,,,,,,,,
6663c09d3fc84cb36dba1139,TCR,2024-06-25_12h40.10.989,LearnStrategy,2023.2.3,Win32,59.88023952,,,,,,,,,,,3,02,1,5,,,,,,,,,,,,,,,,,,,,,,,,,,,,,
6663c09d3fc84cb36dba1139,TCR,2024-06-25_12h40.10.989,LearnStrategy,2023.2.3,Win32,59.88023952,,,,,,,,,,,1,16,1,6,,,,,,,,,,,,,,,,,,,,,,,,,,,,,
6663c09d3fc84cb36dba1139,TCR,2024-06-25_12h40.10.989,LearnStrategy,2023.2.3,Win32,59.88023952,,,,,,,,,,,4,12,1,7,,,,,,,,,,,,,,,,,,,,,,,,,,,,,
6663c09d3fc84cb36dba1139,TCR,2024-06-25_12h40.10.989,LearnStrategy,2023.2.3,Win32,59.88023952,,,,,,,,,,,7,16,1,8,,,,,,,,,,,,,,,,,,,,,,,,,,,,,
6663c09d3fc84cb36dba1139,TCR,2024-06-25_12h40.10.989,LearnStrategy,2023.2.3,Win32,59.88023952,,,,,,,,,,,5,04,2,1,,,,,,,,,,,,,,,,,,,,,,,,,,,,,
6663c09d3fc84cb36dba1139,TCR,2024-06-25_12h40.10.989,LearnStrategy,2023.2.3,Win32,59.88023952,,,,,,,,,,,5,09,2,2,,,,,,,,,,,,,,,,,,,,,,,,,,,,,
6663c09d3fc84cb36dba1139,TCR,2024-06-25_12h40.10.989,LearnStrategy,2023.2.3,Win32,59.88023952,,,,,,,,,,,6,11,2,3,,,,,,,,,,,,,,,,,,,,,,,,,,,,,
6663c09d3fc84cb36dba1139,TCR,2024-06-25_12h40.10.989,LearnStrategy,2023.2.3,Win32,59.88023952,,,,,,,,,,,8,03,2,4,,,,,,,,,,,,,,,,,,,,,,,,,,,,,
6663c09d3fc84cb36dba1139,TCR,2024-06-25_12h40.10.989,LearnStrategy,2023.2.3,Win32,59.88023952,,,,,,,,,,,8,04,2,5,,,,,,,,,,,,,,,,,,,,,,,,,,,,,
6663c09d3fc84cb36dba1139,TCR,2024-06-25_12h40.10.989,LearnStrategy,2023.2.3,Win32,59.88023952,,,,,,,,,,,1,05,2,6,,,,,,,,,,,,,,,,,,,,,,,,,,,,,
6663c09d3fc84cb36dba1139,TCR,2024-06-25_12h40.10.989,LearnStrategy,2023.2.3,Win32,59.88023952,,,,,,,,,,,7,07,2,7,,,,,,,,,,,,,,,,,,,,,,,,,,,,,
6663c09d3fc84cb36dba1139,TCR,2024-06-25_12h40.10.989,LearnStrategy,2023.2.3,Win32,59.88023952,,,,,,,,,,,2,14,2,8,,,,,,,,,,,,,,,,,,,,,,,,,,,,,
6663c09d3fc84cb36dba1139,TCR,2024-06-25_12h40.10.989,LearnStrategy,2023.2.3,Win32,59.88023952,,,,,,,,,,,7,12,3,1,,,,,,,,,,,,,,,,,,,,,,,,,,,,,
6663c09d3fc84cb36dba1139,TCR,2024-06-25_12h40.10.989,LearnStrategy,2023.2.3,Win32,59.88023952,,,,,,,,,,,7,15,3,2,,,,,,,,,,,,,,,,,,,,,,,,,,,,,
6663c09d3fc84cb36dba1139,TCR,2024-06-25_12h40.10.989,LearnStrategy,2023.2.3,Win32,59.88023952,,,,,,,,,,,4,13,3,3,,,,,,,,,,,,,,,,,,,,,,,,,,,,,
6663c09d3fc84cb36dba1139,TCR,2024-06-25_12h40.10.989,LearnStrategy,2023.2.3,Win32,59.88023952,,,,,,,,,,,5,16,3,4,,,,,,,,,,,,,,,,,,,,,,,,,,,,,
6663c09d3fc84cb36dba1139,TCR,2024-06-25_12h40.10.989,LearnStrategy,2023.2.3,Win32,59.88023952,,,,,,,,,,,3,06,3,5,,,,,,,,,,,,,,,,,,,,,,,,,,,,,
6663c09d3fc84cb36dba1139,TCR,2024-06-25_12h40.10.989,LearnStrategy,2023.2.3,Win32,59.88023952,,,,,,,,,,,1,11,3,6,,,,,,,,,,,,,,,,,,,,,,,,,,,,,
6663c09d3fc84cb36dba1139,TCR,2024-06-25_12h40.10.989,LearnStrategy,2023.2.3,Win32,59.88023952,,,,,,,,,,,3,15,3,7,,,,,,,,,,,,,,,,,,,,,,,,,,,,,
6663c09d3fc84cb36dba1139,TCR,2024-06-25_12h40.10.989,LearnStrategy,2023.2.3,Win32,59.88023952,,,,,,,,,,,5,02,3,8,,,,,,,,,,,,,,,,,,,,,,,,,,,,,
6663c09d3fc84cb36dba1139,TCR,2024-06-25_12h40.10.989,LearnStrategy,2023.2.3,Win32,59.88023952,,,,,,,,,,,6,13,4,1,,,,,,,,,,,,,,,,,,,,,,,,,,,,,
6663c09d3fc84cb36dba1139,TCR,2024-06-25_12h40.10.989,LearnStrategy,2023.2.3,Win32,59.88023952,,,,,,,,,,,1,14,4,2,,,,,,,,,,,,,,,,,,,,,,,,,,,,,
6663c09d3fc84cb36dba1139,TCR,2024-06-25_12h40.10.989,LearnStrategy,2023.2.3,Win32,59.88023952,,,,,,,,,,,8,15,4,3,,,,,,,,,,,,,,,,,,,,,,,,,,,,,
6663c09d3fc84cb36dba1139,TCR,2024-06-25_12h40.10.989,LearnStrategy,2023.2.3,Win32,59.88023952,,,,,,,,,,,4,10,4,4,,,,,,,,,,,,,,,,,,,,,,,,,,,,,
6663c09d3fc84cb36dba1139,TCR,2024-06-25_12h40.10.989,LearnStrategy,2023.2.3,Win32,59.88023952,,,,,,,,,,,4,01,4,5,,,,,,,,,,,,,,,,,,,,,,,,,,,,,
6663c09d3fc84cb36dba1139,TCR,2024-06-25_12h40.10.989,LearnStrategy,2023.2.3,Win32,59.88023952,,,,,,,,,,,7,06,4,6,,,,,,,,,,,,,,,,,,,,,,,,,,,,,
6663c09d3fc84cb36dba1139,TCR,2024-06-25_12h40.10.989,LearnStrategy,2023.2.3,Win32,59.88023952,,,,,,,,,,,4,09,4,7,,,,,,,,,,,,,,,,,,,,,,,,,,,,,
6663c09d3fc84cb36dba1139,TCR,2024-06-25_12h40.10.989,LearnStrategy,2023.2.3,Win32,59.88023952,,,,,,,,,,,4,15,4,8,,,,,,,,,,,,,,,,,,,,,,,,,,,,,
6663c09d3fc84cb36dba1139,TCR,2024-06-25_12h40.10.989,LearnStrategy,2023.2.3,Win32,59.88023952,,,,,,,,,,,6,09,5,1,,,,,,,,,,,,,,,,,,,,,,,,,,,,,
6663c09d3fc84cb36dba1139,TCR,2024-06-25_12h40.10.989,LearnStrategy,2023.2.3,Win32,59.88023952,,,,,,,,,,,5,08,5,2,,,,,,,,,,,,,,,,,,,,,,,,,,,,,
6663c09d3fc84cb36dba1139,TCR,2024-06-25_12h40.10.989,LearnStrategy,2023.2.3,Win32,59.88023952,,,,,,,,,,,5,05,5,3,,,,,,,,,,,,,,,,,,,,,,,,,,,,,
6663c09d3fc84cb36dba1139,TCR,2024-06-25_12h40.10.989,LearnStrategy,2023.2.3,Win32,59.88023952,,,,,,,,,,,2,12,5,4,,,,,,,,,,,,,,,,,,,,,,,,,,,,,
6663c09d3fc84cb36dba1139,TCR,2024-06-25_12h40.10.989,LearnStrategy,2023.2.3,Win32,59.88023952,,,,,,,,,,,2,01,5,5,,,,,,,,,,,,,,,,,,,,,,,,,,,,,
6663c09d3fc84cb36dba1139,TCR,2024-06-25_12h40.10.989,LearnStrategy,2023.2.3,Win32,59.88023952,,,,,,,,,,,6,16,5,6,,,,,,,,,,,,,,,,,,,,,,,,,,,,,
6663c09d3fc84cb36dba1139,TCR,2024-06-25_12h40.10.989,LearnStrategy,2023.2.3,Win32,59.88023952,,,,,,,,,,,3,10,5,7,,,,,,,,,,,,,,,,,,,,,,,,,,,,,
6663c09d3fc84cb36dba1139,TCR,2024-06-25_12h40.10.989,LearnStrategy,2023.2.3,Win32,59.88023952,,,,,,,,,,,3,11,5,8,,,,,,,,,,,,,,,,,,,,,,,,,,,,,
6663c09d3fc84cb36dba1139,TCR,2024-06-25_12h40.10.989,LearnStrategy,2023.2.3,Win32,59.88023952,,,,,,,,,,,3,07,6,1,,,,,,,,,,,,,,,,,,,,,,,,,,,,,
6663c09d3fc84cb36dba1139,TCR,2024-06-25_12h40.10.989,LearnStrategy,2023.2.3,Win32,59.88023952,,,,,,,,,,,1,09,6,2,,,,,,,,,,,,,,,,,,,,,,,,,,,,,
6663c09d3fc84cb36dba1139,TCR,2024-06-25_12h40.10.989,LearnStrategy,2023.2.3,Win32,59.88023952,,,,,,,,,,,8,10,6,3,,,,,,,,,,,,,,,,,,,,,,,,,,,,,
6663c09d3fc84cb36dba1139,TCR,2024-06-25_12h40.10.989,LearnStrategy,2023.2.3,Win32,59.88023952,,,,,,,,,,,8,14,6,4,,,,,,,,,,,,,,,,,,,,,,,,,,,,,
6663c09d3fc84cb36dba1139,TCR,2024-06-25_12h40.10.989,LearnStrategy,2023.2.3,Win32,59.88023952,,,,,,,,,,,2,11,6,5,,,,,,,,,,,,,,,,,,,,,,,,,,,,,
6663c09d3fc84cb36dba1139,TCR,2024-06-25_12h40.10.989,LearnStrategy,2023.2.3,Win32,59.88023952,,,,,,,,,,,6,03,6,6,,,,,,,,,,,,,,,,,,,,,,,,,,,,,
6663c09d3fc84cb36dba1139,TCR,2024-06-25_12h40.10.989,LearnStrategy,2023.2.3,Win32,59.88023952,,,,,,,,,,,2,06,6,7,,,,,,,,,,,,,,,,,,,,,,,,,,,,,
6663c09d3fc84cb36dba1139,TCR,2024-06-25_12h40.10.989,LearnStrategy,2023.2.3,Win32,59.88023952,,,,,,,,,,,2,09,6,8,,,,,,,,,,,,,,,,,,,,,,,,,,,,,