participant,condition,date,expName,psychopyVersion,OS,frameRate,block,phase,trial,learn_mouse_2.x,learn_mouse_2.y,learn_mouse_2.leftButton,learn_mouse_2.midButton,learn_mouse_2.rightButton,learn_mouse_2.time,learn_mouse_2.clicked_name,cat,token,row,col,t_select,cat_mouse_l.x,cat_mouse_l.y,cat_mouse_l.leftButton,cat_mouse_l.midButton,cat_mouse_l.rightButton,cat_mouse_l.time,cat_mouse_l.clicked_name,resp,t_resp,corr,train_trials.thisRepN,train_trials.thisTrialN,train_trials.thisN,train_trials.thisIndex,train_trials.ran,cat_mouse_t.x,cat_mouse_t.y,cat_mouse_t.leftButton,cat_mouse_t.midButton,cat_mouse_t.rightButton,cat_mouse_t.time,cat_mouse_t.clicked_name,test_trials.thisRepN,test_trials.thisTrialN,test_trials.thisN,test_trials.thisIndex,test_trials.ran,Bonus
6663a65e175959c44bdd744f,TCN,2024-06-24_14h47.36.894,LearnStrategy,2023.2.3,MacIntel,57.47126437,,,,,,,,,,,,,,,,,,,,,,,,,,,,,,,,,,,,,,,,,,,
6663a65e175959c44bdd744f,TCN,2024-06-24_14h47.36.894,LearnStrategy,2023.2.3,MacIntel,57.47126437,1,1,1,-0.013733792,0.005407952,1,0,0,2.0632,rock_grid_rect_2,7,04,-1,-1,2.063,-0.070563965,-0.269028456,1,0,0,5.8643,Basalt_rect,2,5.864,0,0,0,0,0,1,,,,,,,,,,,,,
6663a65e175959c44bdd744f,TCN,2024-06-24_14h47.36.894,LearnStrategy,2023.2.3,MacIntel,57.47126437,1,1,2,0.048399183,-0.020512492,1,0,0,1.3024,rock_grid_rect_2,2,02,-1,-1,1.302,-0.106462809,-0.253451606,1,0,0,3.8591,Basalt_rect,2,3.859,1,1,0,1,0,1,,,,,,,,,,,,,
6663a65e175959c44bdd744f,TCN,2024-06-24_14h47.36.894,LearnStrategy,2023.2.3,MacIntel,57.47126437,1,1,3,0.10953932,0.015334032,1,0,0,1.2299,rock_grid_rect_2,4,03,-1,-1,1.23,0.36880127,-0.399223768,1,0,0,3.9842,Pumice_rect,8,3.984,0,2,0,2,0,1,,,,,,,,,,,,,
6663a65e175959c44bdd744f,TCN,2024-06-24_14h47.36.894,LearnStrategy,2023.2.3,MacIntel,57.47126437,1,1,4,0.113275486,-0.002205811,1,0,0,1.3175,rock_grid_rect_2,7,13,-1,-1,1.318,0.14618103,-0.403232286,1,0,0,3.9083,Peridotite_rect,7,3.908,1,3,0,3,0,1,,,,,,,,,,,,,
6663a65e175959c44bdd744f,TCN,2024-06-24_14h47.36.894,LearnStrategy,2023.2.3,MacIntel,57.47126437,1,1,5,0.123339301,-0.010173475,1,0,0,1.1692,rock_grid_rect_2,8,06,-1,-1,1.169,-0.322965156,-0.240458306,1,0,0,8.608,Andesite_rect,1,8.608,0,4,0,4,0,1,,,,,,,,,,,,,
6663a65e175959c44bdd744f,TCN,2024-06-24_14h47.36.894,LearnStrategy,2023.2.3,MacIntel,57.47126437,1,1,6,0.048499959,-0.017852512,1,0,0,0.9291,rock_grid_rect_2,4,10,-1,-1,0.929,-0.342678562,-0.399599338,1,0,0,1.578,Obsidian_rect,5,1.578,0,5,0,5,0,1,,,,,,,,,,,,,
6663a65e175959c44bdd744f,TCN,2024-06-24_14h47.36.894,LearnStrategy,2023.2.3,MacIntel,57.47126437,1,1,7,0.096164483,0.001083476,1,0,0,0.9953,rock_grid_rect_2,6,15,-1,-1,0.995,0.362717828,-0.40326572,1,0,0,3.7081,Pumice_rect,8,3.708,0,6,0,6,0,1,,,,,,,,,,,,,
6663a65e175959c44bdd744f,TCN,2024-06-24_14h47.36.894,LearnStrategy,2023.2.3,MacIntel,57.47126437,1,1,8,0.1447779,-0.000409953,1,0,0,1.6808,rock_grid_rect_2,1,16,-1,-1,1.681,-0.056723226,-0.250789456,1,0,0,3.3744,Basalt_rect,2,3.374,0,7,0,7,0,1,,,,,,,,,,,,,
6663a65e175959c44bdd744f,TCN,2024-06-24_14h47.36.894,LearnStrategy,2023.2.3,MacIntel,57.47126437,1,1,9,0.029970771,0.005469632,1,0,0,0.8782,rock_grid_rect_2,3,12,-1,-1,0.878,0.328083971,-0.237485148,1,0,0,6.7873,Gabbro_rect,4,6.787,0,8,0,8,0,1,,,,,,,,,,,,,
6663a65e175959c44bdd744f,TCN,2024-06-24_14h47.36.894,LearnStrategy,2023.2.3,MacIntel,57.47126437,1,1,10,0.117399835,-0.013585815,1,0,0,0.9634,rock_grid_rect_2,5,07,-1,-1,0.963,0.164830933,-0.249777289,1,0,0,6.9597,Diorite_rect,3,6.96,0,9,0,9,0,1,,,,,,,,,,,,,
6663a65e175959c44bdd744f,TCN,2024-06-24_14h47.36.894,LearnStrategy,2023.2.3,MacIntel,57.47126437,1,1,11,0.105076701,-0.00422187,1,0,0,0.9625,rock_grid_rect_2,5,04,-1,-1,0.962,-0.329925605,-0.258517795,1,0,0,7.5527,Andesite_rect,1,7.553,0,10,0,10,0,1,,,,,,,,,,,,,
6663a65e175959c44bdd744f,TCN,2024-06-24_14h47.36.894,LearnStrategy,2023.2.3,MacIntel,57.47126437,1,1,12,0.147730442,-0.007798699,1,0,0,1.1143,rock_grid_rect_2,1,09,-1,-1,1.114,-0.113638509,-0.25242981,1,0,0,1.3952,Basalt_rect,2,1.395,0,11,0,11,0,1,,,,,,,,,,,,,
6663a65e175959c44bdd744f,TCN,2024-06-24_14h47.36.894,LearnStrategy,2023.2.3,MacIntel,57.47126437,1,1,13,0.035414497,0.016641812,1,0,0,0.8993,rock_grid_rect_2,6,06,-1,-1,0.899,-0.320580851,-0.269454074,1,0,0,5.3952,Andesite_rect,1,5.395,0,12,0,12,0,1,,,,,,,,,,,,,
6663a65e175959c44bdd744f,TCN,2024-06-24_14h47.36.894,LearnStrategy,2023.2.3,MacIntel,57.47126437,1,1,14,0.128908624,-0.017122125,1,0,0,0.9149,rock_grid_rect_2,2,10,-1,-1,0.915,-0.336609531,-0.378236694,1,0,0,2.7389,Obsidian_rect,5,2.739,0,13,0,13,0,1,,,,,,,,,,,,,
6663a65e175959c44bdd744f,TCN,2024-06-24_14h47.36.894,LearnStrategy,2023.2.3,MacIntel,57.47126437,1,1,15,0.048443536,0.004767761,1,0,0,0.7747,rock_grid_rect_2,8,08,-1,-1,0.775,0.324581367,-0.39750902,1,0,0,2.8636,Pumice_rect,8,2.864,1,14,0,14,0,1,,,,,,,,,,,,,
6663a65e175959c44bdd744f,TCN,2024-06-24_14h47.36.894,LearnStrategy,2023.2.3,MacIntel,57.47126437,1,1,16,0.102594333,0.022110053,1,0,0,0.8917,rock_grid_rect_2,3,02,-1,-1,0.892,0.188767632,-0.251634725,1,0,0,3.8623,Diorite_rect,3,3.862,1,15,0,15,0,1,,,,,,,,,,,,,
6663a65e175959c44bdd744f,TCN,2024-06-24_14h47.36.894,LearnStrategy,2023.2.3,MacIntel,57.47126437,1,2,1,,,,,,,,7,14,,,,,,,,,,,3,5.108,0,,,,,,0.132192993,-0.269511719,1,0,0,5.1085,Diorite_rect,0,0,0,0,1,
6663a65e175959c44bdd744f,TCN,2024-06-24_14h47.36.894,LearnStrategy,2023.2.3,MacIntel,57.47126437,1,2,2,,,,,,,,2,16,,,,,,,,,,,2,4.905,1,,,,,,-0.104112481,-0.264037204,1,0,0,4.9048,Basalt_rect,1,0,1,0,1,
6663a65e175959c44bdd744f,TCN,2024-06-24_14h47.36.894,LearnStrategy,2023.2.3,MacIntel,57.47126437,1,2,3,,,,,,,,5,09,,,,,,,,,,,5,86.383,1,,,,,,-0.353998854,-0.379042697,1,0,0,86.3831,Obsidian_rect,2,0,2,0,1,
6663a65e175959c44bdd744f,TCN,2024-06-24_14h47.36.894,LearnStrategy,2023.2.3,MacIntel,57.47126437,1,2,4,,,,,,,,8,04,,,,,,,,,,,1,49.788,0,,,,,,-0.397650045,-0.255850694,1,0,0,49.7884,Andesite_rect,3,0,3,0,1,
6663a65e175959c44bdd744f,TCN,2024-06-24_14h47.36.894,LearnStrategy,2023.2.3,MacIntel,57.47126437,1,2,5,,,,,,,,5,11,,,,,,,,,,,5,11.339,1,,,,,,-0.347958849,-0.418811917,1,0,0,11.3392,Obsidian_rect,4,0,4,0,1,
6663a65e175959c44bdd744f,TCN,2024-06-24_14h47.36.894,LearnStrategy,2023.2.3,MacIntel,57.47126437,1,2,6,,,,,,,,6,11,,,,,,,,,,,1,21.476,0,,,,,,-0.360507846,-0.268716227,1,0,0,21.4764,Andesite_rect,5,0,5,0,1,
6663a65e175959c44bdd744f,TCN,2024-06-24_14h47.36.894,LearnStrategy,2023.2.3,MacIntel,57.47126437,1,2,7,,,,,,,,6,08,,,,,,,,,,,3,15.457,0,,,,,,0.155000136,-0.258229845,1,0,0,15.4565,Diorite_rect,6,0,6,0,1,
6663a65e175959c44bdd744f,TCN,2024-06-24_14h47.36.894,LearnStrategy,2023.2.3,MacIntel,57.47126437,1,2,8,,,,,,,,4,01,,,,,,,,,,,2,4.987,0,,,,,,-0.153728638,-0.254310574,1,0,0,4.9869,Basalt_rect,7,0,7,0,1,
6663a65e175959c44bdd744f,TCN,2024-06-24_14h47.36.894,LearnStrategy,2023.2.3,MacIntel,57.47126437,1,2,9,,,,,,,,8,16,,,,,,,,,,,8,2.731,1,,,,,,0.369158122,-0.397348904,1,0,0,2.7313,Pumice_rect,8,0,8,0,1,
6663a65e175959c44bdd744f,TCN,2024-06-24_14h47.36.894,LearnStrategy,2023.2.3,MacIntel,57.47126437,1,2,10,,,,,,,,1,03,,,,,,,,,,,4,14.134,0,,,,,,0.362789307,-0.255608995,1,0,0,14.1341,Gabbro_rect,9,0,9,0,1,
6663a65e175959c44bdd744f,TCN,2024-06-24_14h47.36.894,LearnStrategy,2023.2.3,MacIntel,57.47126437,1,2,11,,,,,,,,3,10,,,,,,,,,,,7,18.54,0,,,,,,0.170916748,-0.403261922,1,0,0,18.5403,Peridotite_rect,10,0,10,0,1,
6663a65e175959c44bdd744f,TCN,2024-06-24_14h47.36.894,LearnStrategy,2023.2.3,MacIntel,57.47126437,1,2,12,,,,,,,,2,05,,,,,,,,,,,2,1.379,1,,,,,,-0.153530816,-0.247454563,1,0,0,1.379,Basalt_rect,11,0,11,0,1,
6663a65e175959c44bdd744f,TCN,2024-06-24_14h47.36.894,LearnStrategy,2023.2.3,MacIntel,57.47126437,1,2,13,,,,,,,,3,11,,,,,,,,,,,7,3.805,0,,,,,,0.087337443,-0.385825331,1,0,0,3.8052,Peridotite_rect,12,0,12,0,1,
6663a65e175959c44bdd744f,TCN,2024-06-24_14h47.36.894,LearnStrategy,2023.2.3,MacIntel,57.47126437,1,2,14,,,,,,,,4,13,,,,,,,,,,,4,22.694,1,,,,,,0.374389377,-0.263022732,1,0,0,22.6938,Gabbro_rect,13,0,13,0,1,
6663a65e175959c44bdd744f,TCN,2024-06-24_14h47.36.894,LearnStrategy,2023.2.3,MacIntel,57.47126437,1,2,15,,,,,,,,7,06,,,,,,,,,,,7,15.372,1,,,,,,0.114827338,-0.402370877,1,0,0,15.3721,Peridotite_rect,14,0,14,0,1,
6663a65e175959c44bdd744f,TCN,2024-06-24_14h47.36.894,LearnStrategy,2023.2.3,MacIntel,57.47126437,1,2,16,,,,,,,,1,05,,,,,,,,,,,1,16.399,1,,,,,,-0.453080173,-0.256528592,1,0,0,16.3987,Andesite_rect,15,0,15,0,1,
6663a65e175959c44bdd744f,TCN,2024-06-24_14h47.36.894,LearnStrategy,2023.2.3,MacIntel,57.47126437,2,1,1,0.136012099,-0.005421482,1,0,0,1.8669,rock_grid_rect_2,8,05,-1,-1,1.867,0.35772054,-0.396977743,1,0,0,3.7823,Pumice_rect,8,3.782,1,0,0,0,0,1,,,,,,,,,,,,,
6663a65e175959c44bdd744f,TCN,2024-06-24_14h47.36.894,LearnStrategy,2023.2.3,MacIntel,57.47126437,2,1,2,0.078280301,-0.002830166,1,0,0,1.5793,rock_grid_rect_2,3,09,-1,-1,1.579,-0.362543505,-0.265409749,1,0,0,5.1208,Andesite_rect,1,5.121,0,1,0,1,0,1,,,,,,,,,,,,,
6663a65e175959c44bdd744f,TCN,2024-06-24_14h47.36.894,LearnStrategy,2023.2.3,MacIntel,57.47126437,2,1,3,0.098510742,-0.010626967,1,0,0,1.0469,rock_grid_rect_2,7,05,-1,-1,1.047,0.055402289,-0.395062527,1,0,0,6.495,Peridotite_rect,7,6.495,1,2,0,2,0,1,,,,,,,,,,,,,
6663a65e175959c44bdd744f,TCN,2024-06-24_14h47.36.894,LearnStrategy,2023.2.3,MacIntel,57.47126437,2,1,4,0.023917847,-0.016826375,1,0,0,0.8273,rock_grid_rect_2,8,02,-1,-1,0.827,0.455482585,-0.397275391,1,0,0,1.6673,Pumice_rect,8,1.667,1,3,0,3,0,1,,,,,,,,,,,,,
6663a65e175959c44bdd744f,TCN,2024-06-24_14h47.36.894,LearnStrategy,2023.2.3,MacIntel,57.47126437,2,1,5,0.086983982,-0.014556003,1,0,0,0.9136,rock_grid_rect_2,6,07,-1,-1,0.914,-0.393449504,-0.245195923,1,0,0,1.5697,Andesite_rect,1,1.57,0,4,0,4,0,1,,,,,,,,,,,,,
6663a65e175959c44bdd744f,TCN,2024-06-24_14h47.36.894,LearnStrategy,2023.2.3,MacIntel,57.47126437,2,1,6,0.106609701,-0.008533291,1,0,0,1.5486,rock_grid_rect_2,2,04,-1,-1,1.549,-0.100734049,-0.250729777,1,0,0,1.244,Basalt_rect,2,1.244,1,5,0,5,0,1,,,,,,,,,,,,,
6663a65e175959c44bdd744f,TCN,2024-06-24_14h47.36.894,LearnStrategy,2023.2.3,MacIntel,57.47126437,2,1,7,0.086236708,-0.008224589,1,0,0,0.7761,rock_grid_rect_2,5,16,-1,-1,0.776,-0.358568115,-0.398434177,1,0,0,1.1511,Obsidian_rect,5,1.151,1,6,0,6,0,1,,,,,,,,,,,,,
6663a65e175959c44bdd744f,TCN,2024-06-24_14h47.36.894,LearnStrategy,2023.2.3,MacIntel,57.47126437,2,1,8,-0.007023587,-0.008373277,1,0,0,0.7471,rock_grid_rect_2,7,15,-1,-1,0.747,0.171118096,-0.390037028,1,0,0,1.1321,Peridotite_rect,7,1.132,1,7,0,7,0,1,,,,,,,,,,,,,
6663a65e175959c44bdd744f,TCN,2024-06-24_14h47.36.894,LearnStrategy,2023.2.3,MacIntel,57.47126437,2,1,9,0.111746419,-0.017018873,1,0,0,0.7501,rock_grid_rect_2,5,05,-1,-1,0.75,-0.380698005,-0.397268473,1,0,0,1.3551,Obsidian_rect,5,1.355,1,8,0,8,0,1,,,,,,,,,,,,,
6663a65e175959c44bdd744f,TCN,2024-06-24_14h47.36.894,LearnStrategy,2023.2.3,MacIntel,57.47126437,2,1,10,-0.004978977,0.001284349,1,0,0,0.8333,rock_grid_rect_2,1,02,-1,-1,0.833,-0.075346002,-0.413865085,1,0,0,3.8925,Pegmatite_rect,6,3.893,0,9,0,9,0,1,,,,,,,,,,,,,
6663a65e175959c44bdd744f,TCN,2024-06-24_14h47.36.894,LearnStrategy,2023.2.3,MacIntel,57.47126437,2,1,11,0.102938707,0.006236403,1,0,0,0.8367,rock_grid_rect_2,4,11,-1,-1,0.837,-0.138799574,-0.26763265,1,0,0,4.2344,Basalt_rect,2,4.234,0,10,0,10,0,1,,,,,,,,,,,,,
6663a65e175959c44bdd744f,TCN,2024-06-24_14h47.36.894,LearnStrategy,2023.2.3,MacIntel,57.47126437,2,1,12,0.154235704,-0.007695177,1,0,0,6.5153,rock_grid_rect_2,1,10,-1,-1,6.515,0.332420586,-0.2495617,1,0,0,1.6729,Gabbro_rect,4,1.673,0,11,0,11,0,1,,,,,,,,,,,,,
6663a65e175959c44bdd744f,TCN,2024-06-24_14h47.36.894,LearnStrategy,2023.2.3,MacIntel,57.47126437,2,1,13,0.08533454,-0.003136529,1,0,0,1.6797,rock_grid_rect_2,4,14,-1,-1,1.68,0.380553114,-0.246046143,1,0,0,2.1836,Gabbro_rect,4,2.184,1,12,0,12,0,1,,,,,,,,,,,,,
6663a65e175959c44bdd744f,TCN,2024-06-24_14h47.36.894,LearnStrategy,2023.2.3,MacIntel,57.47126437,2,1,14,0.06270501,-0.014375983,1,0,0,0.8665,rock_grid_rect_2,2,14,-1,-1,0.866,0.125303277,-0.260460273,1,0,0,4.9058,Diorite_rect,3,4.906,0,13,0,13,0,1,,,,,,,,,,,,,
6663a65e175959c44bdd744f,TCN,2024-06-24_14h47.36.894,LearnStrategy,2023.2.3,MacIntel,57.47126437,2,1,15,0.072999471,-0.004357435,1,0,0,0.7586,rock_grid_rect_2,3,06,-1,-1,0.759,-0.379875454,-0.24311537,1,0,0,1.8161,Andesite_rect,1,1.816,0,14,0,14,0,1,,,,,,,,,,,,,
6663a65e175959c44bdd744f,TCN,2024-06-24_14h47.36.894,LearnStrategy,2023.2.3,MacIntel,57.47126437,2,1,16,0.079078844,0.020120714,1,0,0,0.7481,rock_grid_rect_2,6,09,-1,-1,0.748,0.141714817,-0.403794759,1,0,0,1.8505,Peridotite_rect,7,1.85,0,15,0,15,0,1,,,,,,,,,,,,,
6663a65e175959c44bdd744f,TCN,2024-06-24_14h47.36.894,LearnStrategy,2023.2.3,MacIntel,57.47126437,2,2,1,,,,,,,,7,08,,,,,,,,,,,7,7.307,1,,,,,,0.148581746,-0.406700711,1,0,0,7.3073,Peridotite_rect,0,0,0,0,1,
6663a65e175959c44bdd744f,TCN,2024-06-24_14h47.36.894,LearnStrategy,2023.2.3,MacIntel,57.47126437,2,2,2,,,,,,,,2,01,,,,,,,,,,,2,1.965,1,,,,,,-0.1440684,-0.253145277,1,0,0,1.9652,Basalt_rect,1,0,1,0,1,
6663a65e175959c44bdd744f,TCN,2024-06-24_14h47.36.894,LearnStrategy,2023.2.3,MacIntel,57.47126437,2,2,3,,,,,,,,3,15,,,,,,,,,,,3,2.576,1,,,,,,0.156535441,-0.259695638,1,0,0,2.5757,Diorite_rect,2,0,2,0,1,
6663a65e175959c44bdd744f,TCN,2024-06-24_14h47.36.894,LearnStrategy,2023.2.3,MacIntel,57.47126437,2,2,4,,,,,,,,8,13,,,,,,,,,,,8,1.203,1,,,,,,0.404066433,-0.386498074,1,0,0,1.2029,Pumice_rect,3,0,3,0,1,
6663a65e175959c44bdd744f,TCN,2024-06-24_14h47.36.894,LearnStrategy,2023.2.3,MacIntel,57.47126437,2,2,5,,,,,,,,4,15,,,,,,,,,,,4,2.411,1,,,,,,0.311367933,-0.244483032,1,0,0,2.4107,Gabbro_rect,4,0,4,0,1,
6663a65e175959c44bdd744f,TCN,2024-06-24_14h47.36.894,LearnStrategy,2023.2.3,MacIntel,57.47126437,2,2,6,,,,,,,,6,12,,,,,,,,,,,6,2.85,1,,,,,,-0.157408719,-0.407151082,1,0,0,2.8503,Pegmatite_rect,5,0,5,0,1,
6663a65e175959c44bdd744f,TCN,2024-06-24_14h47.36.894,LearnStrategy,2023.2.3,MacIntel,57.47126437,2,2,7,,,,,,,,4,12,,,,,,,,,,,2,1.526,0,,,,,,-0.120746935,-0.270134956,1,0,0,1.5261,Basalt_rect,6,0,6,0,1,
6663a65e175959c44bdd744f,TCN,2024-06-24_14h47.36.894,LearnStrategy,2023.2.3,MacIntel,57.47126437,2,2,8,,,,,,,,1,14,,,,,,,,,,,1,1.489,1,,,,,,-0.330887722,-0.263473511,1,0,0,1.4891,Andesite_rect,7,0,7,0,1,
6663a65e175959c44bdd744f,TCN,2024-06-24_14h47.36.894,LearnStrategy,2023.2.3,MacIntel,57.47126437,2,2,9,,,,,,,,5,06,,,,,,,,,,,5,1.042,1,,,,,,-0.32829244,-0.41829522,1,0,0,1.0418,Obsidian_rect,8,0,8,0,1,
6663a65e175959c44bdd744f,TCN,2024-06-24_14h47.36.894,LearnStrategy,2023.2.3,MacIntel,57.47126437,2,2,10,,,,,,,,3,14,,,,,,,,,,,1,1.491,0,,,,,,-0.311135729,-0.259542372,1,0,0,1.4908,Andesite_rect,9,0,9,0,1,
6663a65e175959c44bdd744f,TCN,2024-06-24_14h47.36.894,LearnStrategy,2023.2.3,MacIntel,57.47126437,2,2,11,,,,,,,,7,07,,,,,,,,,,,7,2.183,1,,,,,,0.164524265,-0.401192424,1,0,0,2.183,Peridotite_rect,10,0,10,0,1,
6663a65e175959c44bdd744f,TCN,2024-06-24_14h47.36.894,LearnStrategy,2023.2.3,MacIntel,57.47126437,2,2,12,,,,,,,,8,09,,,,,,,,,,,8,1.301,1,,,,,,0.405117187,-0.395090129,1,0,0,1.3012,Pumice_rect,11,0,11,0,1,
6663a65e175959c44bdd744f,TCN,2024-06-24_14h47.36.894,LearnStrategy,2023.2.3,MacIntel,57.47126437,2,2,13,,,,,,,,2,06,,,,,,,,,,,2,1.826,1,,,,,,-0.131700982,-0.235603095,1,0,0,1.8256,Basalt_rect,12,0,12,0,1,
6663a65e175959c44bdd744f,TCN,2024-06-24_14h47.36.894,LearnStrategy,2023.2.3,MacIntel,57.47126437,2,2,14,,,,,,,,6,10,,,,,,,,,,,7,1.429,0,,,,,,0.104590251,-0.392286106,1,0,0,1.429,Peridotite_rect,13,0,13,0,1,
6663a65e175959c44bdd744f,TCN,2024-06-24_14h47.36.894,LearnStrategy,2023.2.3,MacIntel,57.47126437,2,2,15,,,,,,,,5,10,,,,,,,,,,,5,1.149,1,,,,,,-0.36379147,-0.400160319,1,0,0,1.1493,Obsidian_rect,14,0,14,0,1,
6663a65e175959c44bdd744f,TCN,2024-06-24_14h47.36.894,LearnStrategy,2023.2.3,MacIntel,57.47126437,2,2,16,,,,,,,,1,11,,,,,,,,,,,4,2.408,0,,,,,,0.366696099,-0.264504327,1,0,0,2.4076,Gabbro_rect,15,0,15,0,1,
6663a65e175959c44bdd744f,TCN,2024-06-24_14h47.36.894,LearnStrategy,2023.2.3,MacIntel,57.47126437,3,1,1,0.005023193,-0.001171875,1,0,0,0.948,rock_grid_rect_2,4,09,-1,-1,0.948,0.298793471,-0.242010498,1,0,0,4.8904,Gabbro_rect,4,4.89,1,0,0,0,0,1,,,,,,,,,,,,,
6663a65e175959c44bdd744f,TCN,2024-06-24_14h47.36.894,LearnStrategy,2023.2.3,MacIntel,57.47126437,3,1,2,0.095290188,-0.005586446,1,0,0,0.8948,rock_grid_rect_2,6,05,-1,-1,0.895,0.153286743,-0.236568197,1,0,0,2.6391,Diorite_rect,3,2.639,0,1,0,1,0,1,,,,,,,,,,,,,
6663a65e175959c44bdd744f,TCN,2024-06-24_14h47.36.894,LearnStrategy,2023.2.3,MacIntel,57.47126437,3,1,3,0.13382175,-0.000418701,1,0,0,7.5313,rock_grid_rect_2,5,08,-1,-1,7.531,-0.370704515,-0.397336765,1,0,0,1.148,Obsidian_rect,5,1.148,1,2,0,2,0,1,,,,,,,,,,,,,
6663a65e175959c44bdd744f,TCN,2024-06-24_14h47.36.894,LearnStrategy,2023.2.3,MacIntel,57.47126437,3,1,4,0.02848409,-0.005177884,1,0,0,1.6197,rock_grid_rect_2,2,09,-1,-1,1.62,-0.173409288,-0.247648722,1,0,0,1.0588,Basalt_rect,2,1.059,1,3,0,3,0,1,,,,,,,,,,,,,
6663a65e175959c44bdd744f,TCN,2024-06-24_14h47.36.894,LearnStrategy,2023.2.3,MacIntel,57.47126437,3,1,5,-0.034145033,-0.016734348,1,0,0,0.8147,rock_grid_rect_2,3,16,-1,-1,0.815,0.098495755,-0.253391113,1,0,0,4.6759,Diorite_rect,3,4.676,1,4,0,4,0,1,,,,,,,,,,,,,
6663a65e175959c44bdd744f,TCN,2024-06-24_14h47.36.894,LearnStrategy,2023.2.3,MacIntel,57.47126437,3,1,6,0.09851732,-0.006549174,1,0,0,1.1615,rock_grid_rect_2,2,11,-1,-1,1.162,-0.334792447,-0.256068793,1,0,0,2.0656,Andesite_rect,1,2.066,0,5,0,5,0,1,,,,,,,,,,,,,
6663a65e175959c44bdd744f,TCN,2024-06-24_14h47.36.894,LearnStrategy,2023.2.3,MacIntel,57.47126437,3,1,7,0.028640476,-0.022931959,1,0,0,0.783,rock_grid_rect_2,7,02,-1,-1,0.783,0.19693217,-0.399462077,1,0,0,1.1418,Peridotite_rect,7,1.142,1,6,0,6,0,1,,,,,,,,,,,,,
6663a65e175959c44bdd744f,TCN,2024-06-24_14h47.36.894,LearnStrategy,2023.2.3,MacIntel,57.47126437,3,1,8,0.062024604,-0.005721842,1,0,0,0.7628,rock_grid_rect_2,8,03,-1,-1,0.763,0.378010932,-0.395777249,1,0,0,1.1338,Pumice_rect,8,1.134,1,7,0,7,0,1,,,,,,,,,,,,,
6663a65e175959c44bdd744f,TCN,2024-06-24_14h47.36.894,LearnStrategy,2023.2.3,MacIntel,57.47126437,3,1,9,0.1001631,-0.021028578,1,0,0,0.8142,rock_grid_rect_2,3,07,-1,-1,0.814,-0.354695129,-0.239763455,1,0,0,1.7394,Andesite_rect,1,1.739,0,8,0,8,0,1,,,,,,,,,,,,,
6663a65e175959c44bdd744f,TCN,2024-06-24_14h47.36.894,LearnStrategy,2023.2.3,MacIntel,57.47126437,3,1,10,0.088814087,0.003144565,1,0,0,0.845,rock_grid_rect_2,4,08,-1,-1,0.845,-0.120232544,-0.257432454,1,0,0,13.3758,Basalt_rect,2,13.376,0,9,0,9,0,1,,,,,,,,,,,,,
6663a65e175959c44bdd744f,TCN,2024-06-24_14h47.36.894,LearnStrategy,2023.2.3,MacIntel,57.47126437,3,1,11,0.132297295,-9.53505E-05,1,0,0,0.9127,rock_grid_rect_2,7,12,-1,-1,0.913,0.169758165,-0.39703064,1,0,0,1.3627,Peridotite_rect,7,1.363,1,10,0,10,0,1,,,,,,,,,,,,,
6663a65e175959c44bdd744f,TCN,2024-06-24_14h47.36.894,LearnStrategy,2023.2.3,MacIntel,57.47126437,3,1,12,0.066827935,0.015171916,1,0,0,0.7982,rock_grid_rect_2,6,03,-1,-1,0.798,0.104058228,-0.407232191,1,0,0,1.3896,Peridotite_rect,7,1.39,0,11,0,11,0,1,,,,,,,,,,,,,
6663a65e175959c44bdd744f,TCN,2024-06-24_14h47.36.894,LearnStrategy,2023.2.3,MacIntel,57.47126437,3,1,13,0.13972229,0.001119792,1,0,0,0.8468,rock_grid_rect_2,1,06,-1,-1,0.847,0.183879801,-0.260133938,1,0,0,2.3657,Diorite_rect,3,2.366,0,12,0,12,0,1,,,,,,,,,,,,,
6663a65e175959c44bdd744f,TCN,2024-06-24_14h47.36.894,LearnStrategy,2023.2.3,MacIntel,57.47126437,3,1,14,0.082209066,0.009770237,1,0,0,0.7477,rock_grid_rect_2,5,14,-1,-1,0.748,-0.359587402,-0.410005764,1,0,0,1.2229,Obsidian_rect,5,1.223,1,13,0,13,0,1,,,,,,,,,,,,,
6663a65e175959c44bdd744f,TCN,2024-06-24_14h47.36.894,LearnStrategy,2023.2.3,MacIntel,57.47126437,3,1,15,-0.066458672,-0.017228597,1,0,0,0.763,rock_grid_rect_2,1,07,-1,-1,0.763,-0.116289266,-0.257070719,1,0,0,1.6091,Basalt_rect,2,1.609,0,14,0,14,0,1,,,,,,,,,,,,,
6663a65e175959c44bdd744f,TCN,2024-06-24_14h47.36.894,LearnStrategy,2023.2.3,MacIntel,57.47126437,3,1,16,0.065470717,-0.013873155,1,0,0,0.6984,rock_grid_rect_2,8,10,-1,-1,0.698,0.327235311,-0.37914761,1,0,0,3.3775,Pumice_rect,8,3.378,1,15,0,15,0,1,,,,,,,,,,,,,
6663a65e175959c44bdd744f,TCN,2024-06-24_14h47.36.894,LearnStrategy,2023.2.3,MacIntel,57.47126437,3,2,1,,,,,,,,7,10,,,,,,,,,,,7,2.876,1,,,,,,0.126239285,-0.399916517,1,0,0,2.8756,Peridotite_rect,0,0,0,0,1,
6663a65e175959c44bdd744f,TCN,2024-06-24_14h47.36.894,LearnStrategy,2023.2.3,MacIntel,57.47126437,3,2,2,,,,,,,,2,12,,,,,,,,,,,1,27.654,0,,,,,,-0.343277147,-0.236565552,1,0,0,27.6539,Andesite_rect,1,0,1,0,1,
6663a65e175959c44bdd744f,TCN,2024-06-24_14h47.36.894,LearnStrategy,2023.2.3,MacIntel,57.47126437,3,2,3,,,,,,,,2,08,,,,,,,,,,,2,1.79,1,,,,,,-0.125196465,-0.267744276,1,0,0,1.7901,Basalt_rect,2,0,2,0,1,
6663a65e175959c44bdd744f,TCN,2024-06-24_14h47.36.894,LearnStrategy,2023.2.3,MacIntel,57.47126437,3,2,4,,,,,,,,5,12,,,,,,,,,,,5,1.112,1,,,,,,-0.328611247,-0.387500678,1,0,0,1.1124,Obsidian_rect,3,0,3,0,1,
6663a65e175959c44bdd744f,TCN,2024-06-24_14h47.36.894,LearnStrategy,2023.2.3,MacIntel,57.47126437,3,2,5,,,,,,,,1,01,,,,,,,,,,,2,4.898,0,,,,,,-0.038560588,-0.254716051,1,0,0,4.8976,Basalt_rect,4,0,4,0,1,
6663a65e175959c44bdd744f,TCN,2024-06-24_14h47.36.894,LearnStrategy,2023.2.3,MacIntel,57.47126437,3,2,6,,,,,,,,6,16,,,,,,,,,,,6,9.074,1,,,,,,-0.06066664,-0.394686144,1,0,0,9.0742,Pegmatite_rect,5,0,5,0,1,
6663a65e175959c44bdd744f,TCN,2024-06-24_14h47.36.894,LearnStrategy,2023.2.3,MacIntel,57.47126437,3,2,7,,,,,,,,8,14,,,,,,,,,,,8,1.163,1,,,,,,0.447429064,-0.402287259,1,0,0,1.1626,Pumice_rect,6,0,6,0,1,
6663a65e175959c44bdd744f,TCN,2024-06-24_14h47.36.894,LearnStrategy,2023.2.3,MacIntel,57.47126437,3,2,8,,,,,,,,1,04,,,,,,,,,,,1,16.794,1,,,,,,-0.449433933,-0.251462131,1,0,0,16.7939,Andesite_rect,7,0,7,0,1,
6663a65e175959c44bdd744f,TCN,2024-06-24_14h47.36.894,LearnStrategy,2023.2.3,MacIntel,57.47126437,3,2,9,,,,,,,,8,15,,,,,,,,,,,8,1.194,1,,,,,,0.415031467,-0.421342773,1,0,0,1.1938,Pumice_rect,8,0,8,0,1,
6663a65e175959c44bdd744f,TCN,2024-06-24_14h47.36.894,LearnStrategy,2023.2.3,MacIntel,57.47126437,3,2,10,,,,,,,,5,02,,,,,,,,,,,5,1.046,1,,,,,,-0.352321981,-0.412063531,1,0,0,1.0461,Obsidian_rect,9,0,9,0,1,
6663a65e175959c44bdd744f,TCN,2024-06-24_14h47.36.894,LearnStrategy,2023.2.3,MacIntel,57.47126437,3,2,11,,,,,,,,7,16,,,,,,,,,,,7,1.393,1,,,,,,0.125584513,-0.406855876,1,0,0,1.3934,Peridotite_rect,10,0,10,0,1,
6663a65e175959c44bdd744f,TCN,2024-06-24_14h47.36.894,LearnStrategy,2023.2.3,MacIntel,57.47126437,3,2,12,,,,,,,,4,16,,,,,,,,,,,4,12.427,1,,,,,,0.366475694,-0.235652398,1,0,0,12.4266,Gabbro_rect,11,0,11,0,1,
6663a65e175959c44bdd744f,TCN,2024-06-24_14h47.36.894,LearnStrategy,2023.2.3,MacIntel,57.47126437,3,2,13,,,,,,,,4,05,,,,,,,,,,,7,1.339,0,,,,,,0.088382975,-0.397154744,1,0,0,1.339,Peridotite_rect,12,0,12,0,1,
6663a65e175959c44bdd744f,TCN,2024-06-24_14h47.36.894,LearnStrategy,2023.2.3,MacIntel,57.47126437,3,2,14,,,,,,,,3,13,,,,,,,,,,,6,15.483,0,,,,,,-0.134874674,-0.409414402,1,0,0,15.4827,Pegmatite_rect,13,0,13,0,1,
6663a65e175959c44bdd744f,TCN,2024-06-24_14h47.36.894,LearnStrategy,2023.2.3,MacIntel,57.47126437,3,2,15,,,,,,,,6,13,,,,,,,,,,,6,1.195,1,,,,,,-0.145376655,-0.385064426,1,0,0,1.1951,Pegmatite_rect,14,0,14,0,1,
6663a65e175959c44bdd744f,TCN,2024-06-24_14h47.36.894,LearnStrategy,2023.2.3,MacIntel,57.47126437,3,2,16,,,,,,,,3,08,,,,,,,,,,,3,3.264,1,,,,,,0.166542697,-0.249522434,1,0,0,3.2636,Diorite_rect,15,0,15,0,1,
6663a65e175959c44bdd744f,TCN,2024-06-24_14h47.36.894,LearnStrategy,2023.2.3,MacIntel,57.47126437,4,1,1,0.048721178,0.004251065,1,0,0,1.7657,rock_grid_rect_2,1,09,-1,-1,1.766,0.412509494,-0.251833835,1,0,0,2.115,Gabbro_rect,4,2.115,0,0,0,0,0,1,,,,,,,,,,,,,
6663a65e175959c44bdd744f,TCN,2024-06-24_14h47.36.894,LearnStrategy,2023.2.3,MacIntel,57.47126437,4,1,2,-0.000992499,-0.01684984,1,0,0,1.0666,rock_grid_rect_2,2,02,-1,-1,1.067,-0.136768324,-0.242746107,1,0,0,1.1792,Basalt_rect,2,1.179,1,1,0,1,0,1,,,,,,,,,,,,,
6663a65e175959c44bdd744f,TCN,2024-06-24_14h47.36.894,LearnStrategy,2023.2.3,MacIntel,57.47126437,4,1,3,0.036212497,0.020773722,1,0,0,1.0476,rock_grid_rect_2,7,05,-1,-1,1.048,0.116741536,-0.410234239,1,0,0,1.6252,Peridotite_rect,7,1.625,1,2,0,2,0,1,,,,,,,,,,,,,
6663a65e175959c44bdd744f,TCN,2024-06-24_14h47.36.894,LearnStrategy,2023.2.3,MacIntel,57.47126437,4,1,4,0.12668179,-0.017608846,1,0,0,1.2804,rock_grid_rect_2,4,11,-1,-1,1.28,-0.381291775,-0.248227132,1,0,0,2.2262,Andesite_rect,1,2.226,0,3,0,3,0,1,,,,,,,,,,,,,
6663a65e175959c44bdd744f,TCN,2024-06-24_14h47.36.894,LearnStrategy,2023.2.3,MacIntel,57.47126437,4,1,5,0.075336372,-0.003875699,1,0,0,0.8989,rock_grid_rect_2,5,04,-1,-1,0.899,-0.383070984,-0.400292562,1,0,0,1.0524,Obsidian_rect,5,1.052,1,4,0,4,0,1,,,,,,,,,,,,,
6663a65e175959c44bdd744f,TCN,2024-06-24_14h47.36.894,LearnStrategy,2023.2.3,MacIntel,57.47126437,4,1,6,0.050128649,-0.019994982,1,0,0,0.7351,rock_grid_rect_2,1,10,-1,-1,0.735,0.360320231,-0.267558322,1,0,0,3.8067,Gabbro_rect,4,3.807,0,5,0,5,0,1,,,,,,,,,,,,,
6663a65e175959c44bdd744f,TCN,2024-06-24_14h47.36.894,LearnStrategy,2023.2.3,MacIntel,57.47126437,4,1,7,0.092341987,0.001907383,1,0,0,0.7159,rock_grid_rect_2,4,08,-1,-1,0.716,0.402373454,-0.250884535,1,0,0,2.1703,Gabbro_rect,4,2.17,1,6,0,6,0,1,,,,,,,,,,,,,
6663a65e175959c44bdd744f,TCN,2024-06-24_14h47.36.894,LearnStrategy,2023.2.3,MacIntel,57.47126437,4,1,8,0.060431451,0.023868408,1,0,0,1.0655,rock_grid_rect_2,6,07,-1,-1,1.065,-0.084130113,-0.413826904,1,0,0,1.9067,Pegmatite_rect,6,1.907,1,7,0,7,0,1,,,,,,,,,,,,,
6663a65e175959c44bdd744f,TCN,2024-06-24_14h47.36.894,LearnStrategy,2023.2.3,MacIntel,57.47126437,4,1,9,0.040959066,-0.006453925,1,0,0,0.8976,rock_grid_rect_2,5,07,-1,-1,0.898,-0.385231798,-0.399507378,1,0,0,1.1114,Obsidian_rect,5,1.111,1,8,0,8,0,1,,,,,,,,,,,,,
6663a65e175959c44bdd744f,TCN,2024-06-24_14h47.36.894,LearnStrategy,2023.2.3,MacIntel,57.47126437,4,1,10,-0.031425713,0.001271532,1,0,0,0.8801,rock_grid_rect_2,7,13,-1,-1,0.88,0.140652466,-0.404735447,1,0,0,1.0498,Peridotite_rect,7,1.05,1,9,0,9,0,1,,,,,,,,,,,,,
6663a65e175959c44bdd744f,TCN,2024-06-24_14h47.36.894,LearnStrategy,2023.2.3,MacIntel,57.47126437,4,1,11,0.069032728,0.005944146,1,0,0,0.8836,rock_grid_rect_2,3,02,-1,-1,0.884,0.186139865,-0.257586127,1,0,0,2.643,Diorite_rect,3,2.643,1,10,0,10,0,1,,,,,,,,,,,,,
6663a65e175959c44bdd744f,TCN,2024-06-24_14h47.36.894,LearnStrategy,2023.2.3,MacIntel,57.47126437,4,1,12,0.09127143,0.019436713,1,0,0,0.7814,rock_grid_rect_2,3,16,-1,-1,0.781,-0.176841431,-0.268551771,1,0,0,2.871,Basalt_rect,2,2.871,0,11,0,11,0,1,,,,,,,,,,,,,
6663a65e175959c44bdd744f,TCN,2024-06-24_14h47.36.894,LearnStrategy,2023.2.3,MacIntel,57.47126437,4,1,13,0.136558431,0.018121033,1,0,0,0.7126,rock_grid_rect_2,8,10,-1,-1,0.713,0.381133219,-0.404220717,1,0,0,2.6113,Pumice_rect,8,2.611,1,12,0,12,0,1,,,,,,,,,,,,,
6663a65e175959c44bdd744f,TCN,2024-06-24_14h47.36.894,LearnStrategy,2023.2.3,MacIntel,57.47126437,4,1,14,0.060826145,0.012502238,1,0,0,0.8315,rock_grid_rect_2,2,14,-1,-1,0.832,0.331510484,-0.246225247,1,0,0,2.4267,Gabbro_rect,4,2.427,0,13,0,13,0,1,,,,,,,,,,,,,
6663a65e175959c44bdd744f,TCN,2024-06-24_14h47.36.894,LearnStrategy,2023.2.3,MacIntel,57.47126437,4,1,15,0.109956733,-0.024394158,1,0,0,1.781,rock_grid_rect_2,8,06,-1,-1,1.781,0.37571384,-0.399225735,1,0,0,1.1274,Pumice_rect,8,1.127,1,14,0,14,0,1,,,,,,,,,,,,,
6663a65e175959c44bdd744f,TCN,2024-06-24_14h47.36.894,LearnStrategy,2023.2.3,MacIntel,57.47126437,4,1,16,0.143922662,-0.018618978,1,0,0,0.7817,rock_grid_rect_2,6,15,-1,-1,0.782,-0.119290975,-0.412978787,1,0,0,1.3438,Pegmatite_rect,6,1.344,1,15,0,15,0,1,,,,,,,,,,,,,
6663a65e175959c44bdd744f,TCN,2024-06-24_14h47.36.894,LearnStrategy,2023.2.3,MacIntel,57.47126437,4,2,1,,,,,,,,8,13,,,,,,,,,,,8,1.296,1,,,,,,0.356491428,-0.37989841,1,0,0,1.2964,Pumice_rect,0,0,0,0,1,
6663a65e175959c44bdd744f,TCN,2024-06-24_14h47.36.894,LearnStrategy,2023.2.3,MacIntel,57.47126437,4,2,2,,,,,,,,8,16,,,,,,,,,,,8,2.445,1,,,,,,0.376018473,-0.39700175,1,0,0,2.445,Pumice_rect,1,0,1,0,1,
6663a65e175959c44bdd744f,TCN,2024-06-24_14h47.36.894,LearnStrategy,2023.2.3,MacIntel,57.47126437,4,2,3,,,,,,,,7,07,,,,,,,,,,,7,1.158,1,,,,,,0.111025526,-0.391257528,1,0,0,1.1583,Peridotite_rect,2,0,2,0,1,
6663a65e175959c44bdd744f,TCN,2024-06-24_14h47.36.894,LearnStrategy,2023.2.3,MacIntel,57.47126437,4,2,4,,,,,,,,4,15,,,,,,,,,,,4,3.889,1,,,,,,0.335340915,-0.244998508,1,0,0,3.8892,Gabbro_rect,3,0,3,0,1,
6663a65e175959c44bdd744f,TCN,2024-06-24_14h47.36.894,LearnStrategy,2023.2.3,MacIntel,57.47126437,4,2,5,,,,,,,,2,01,,,,,,,,,,,2,1.146,1,,,,,,-0.123208483,-0.254648505,1,0,0,1.1457,Basalt_rect,4,0,4,0,1,
6663a65e175959c44bdd744f,TCN,2024-06-24_14h47.36.894,LearnStrategy,2023.2.3,MacIntel,57.47126437,4,2,6,,,,,,,,2,06,,,,,,,,,,,2,3.58,1,,,,,,-0.169994642,-0.263364326,1,0,0,3.5798,Basalt_rect,5,0,5,0,1,
6663a65e175959c44bdd744f,TCN,2024-06-24_14h47.36.894,LearnStrategy,2023.2.3,MacIntel,57.47126437,4,2,7,,,,,,,,3,11,,,,,,,,,,,6,3.208,0,,,,,,-0.069784614,-0.397481622,1,0,0,3.2078,Pegmatite_rect,6,0,6,0,1,
6663a65e175959c44bdd744f,TCN,2024-06-24_14h47.36.894,LearnStrategy,2023.2.3,MacIntel,57.47126437,4,2,8,,,,,,,,1,05,,,,,,,,,,,6,5.498,0,,,,,,-0.171959703,-0.402595215,1,0,0,5.4977,Pegmatite_rect,7,0,7,0,1,
6663a65e175959c44bdd744f,TCN,2024-06-24_14h47.36.894,LearnStrategy,2023.2.3,MacIntel,57.47126437,4,2,9,,,,,,,,6,16,,,,,,,,,,,6,1.131,1,,,,,,-0.129861315,-0.398261651,1,0,0,1.1309,Pegmatite_rect,8,0,8,0,1,
6663a65e175959c44bdd744f,TCN,2024-06-24_14h47.36.894,LearnStrategy,2023.2.3,MacIntel,57.47126437,4,2,10,,,,,,,,5,06,,,,,,,,,,,5,1.024,1,,,,,,-0.33503028,-0.401095513,1,0,0,1.0235,Obsidian_rect,9,0,9,0,1,
6663a65e175959c44bdd744f,TCN,2024-06-24_14h47.36.894,LearnStrategy,2023.2.3,MacIntel,57.47126437,4,2,11,,,,,,,,5,09,,,,,,,,,,,5,3.222,1,,,,,,-0.369136488,-0.394392836,1,0,0,3.2219,Obsidian_rect,10,0,10,0,1,
6663a65e175959c44bdd744f,TCN,2024-06-24_14h47.36.894,LearnStrategy,2023.2.3,MacIntel,57.47126437,4,2,12,,,,,,,,3,13,,,,,,,,,,,6,6.032,0,,,,,,-0.092344903,-0.397777642,1,0,0,6.0323,Pegmatite_rect,11,0,11,0,1,
6663a65e175959c44bdd744f,TCN,2024-06-24_14h47.36.894,LearnStrategy,2023.2.3,MacIntel,57.47126437,4,2,13,,,,,,,,7,14,,,,,,,,,,,7,1.914,1,,,,,,0.167555474,-0.392985026,1,0,0,1.9138,Peridotite_rect,12,0,12,0,1,
6663a65e175959c44bdd744f,TCN,2024-06-24_14h47.36.894,LearnStrategy,2023.2.3,MacIntel,57.47126437,4,2,14,,,,,,,,6,13,,,,,,,,,,,6,1.078,1,,,,,,-0.165383165,-0.38276123,1,0,0,1.0784,Pegmatite_rect,13,0,13,0,1,
6663a65e175959c44bdd744f,TCN,2024-06-24_14h47.36.894,LearnStrategy,2023.2.3,MacIntel,57.47126437,4,2,15,,,,,,,,1,04,,,,,,,,,,,4,1.558,0,,,,,,0.322802124,-0.245973714,1,0,0,1.5581,Gabbro_rect,14,0,14,0,1,
6663a65e175959c44bdd744f,TCN,2024-06-24_14h47.36.894,LearnStrategy,2023.2.3,MacIntel,57.47126437,4,2,16,,,,,,,,4,13,,,,,,,,,,,1,3.98,0,,,,,,-0.415138448,-0.264214342,1,0,0,3.9798,Andesite_rect,15,0,15,0,1,
6663a65e175959c44bdd744f,TCN,2024-06-24_14h47.36.894,LearnStrategy,2023.2.3,MacIntel,57.47126437,5,1,1,0.113925307,-0.013257853,1,0,0,1.331,rock_grid_rect_2,4,14,-1,-1,1.331,-0.390067512,-0.245502591,1,0,0,2.5635,Andesite_rect,1,2.563,0,0,0,0,0,1,,,,,,,,,,,,,
6663a65e175959c44bdd744f,TCN,2024-06-24_14h47.36.894,LearnStrategy,2023.2.3,MacIntel,57.47126437,5,1,2,0.107296346,-0.01489563,1,0,0,0.9136,rock_grid_rect_2,5,05,-1,-1,0.914,-0.39881724,-0.395980632,1,0,0,1.1132,Obsidian_rect,5,1.113,1,1,0,1,0,1,,,,,,,,,,,,,
6663a65e175959c44bdd744f,TCN,2024-06-24_14h47.36.894,LearnStrategy,2023.2.3,MacIntel,57.47126437,5,1,3,-0.009873115,0.00187144,1,0,0,2.981,rock_grid_rect_2,8,05,-1,-1,2.981,0.356589084,-0.400089789,1,0,0,1.4485,Pumice_rect,8,1.448,1,2,0,2,0,1,,,,,,,,,,,,,
6663a65e175959c44bdd744f,TCN,2024-06-24_14h47.36.894,LearnStrategy,2023.2.3,MacIntel,57.47126437,5,1,4,0.089696248,0.002284003,1,0,0,1.3636,rock_grid_rect_2,6,03,-1,-1,1.364,-0.102003377,-0.389852431,1,0,0,1.0935,Pegmatite_rect,6,1.094,1,3,0,3,0,1,,,,,,,,,,,,,
6663a65e175959c44bdd744f,TCN,2024-06-24_14h47.36.894,LearnStrategy,2023.2.3,MacIntel,57.47126437,5,1,5,0.076255629,0.022568427,1,0,0,0.8141,rock_grid_rect_2,2,10,-1,-1,0.814,-0.097245009,-0.26194085,1,0,0,2.0168,Basalt_rect,2,2.017,1,4,0,4,0,1,,,,,,,,,,,,,
6663a65e175959c44bdd744f,TCN,2024-06-24_14h47.36.894,LearnStrategy,2023.2.3,MacIntel,57.47126437,5,1,6,0.057100627,-0.015725505,1,0,0,0.7964,rock_grid_rect_2,7,04,-1,-1,0.796,0.399729275,-0.229320068,1,0,0,1.4207,Gabbro_rect,4,1.421,0,5,0,5,0,1,,,,,,,,,,,,,
6663a65e175959c44bdd744f,TCN,2024-06-24_14h47.36.894,LearnStrategy,2023.2.3,MacIntel,57.47126437,5,1,7,0.170543145,-0.019812351,1,0,0,0.8135,rock_grid_rect_2,3,09,-1,-1,0.813,0.185167101,-0.251196832,1,0,0,1.783,Diorite_rect,3,1.783,1,6,0,6,0,1,,,,,,,,,,,,,
6663a65e175959c44bdd744f,TCN,2024-06-24_14h47.36.894,LearnStrategy,2023.2.3,MacIntel,57.47126437,5,1,8,0.109289483,-0.001131219,1,0,0,0.7279,rock_grid_rect_2,1,06,-1,-1,0.728,-0.417186686,-0.24410848,1,0,0,0.993,Andesite_rect,1,0.993,1,7,0,7,0,1,,,,,,,,,,,,,
6663a65e175959c44bdd744f,TCN,2024-06-24_14h47.36.894,LearnStrategy,2023.2.3,MacIntel,57.47126437,5,1,9,0.058653022,-0.011054281,1,0,0,0.7983,rock_grid_rect_2,5,16,-1,-1,0.798,-0.365578749,-0.398839789,1,0,0,1.4789,Obsidian_rect,5,1.479,1,8,0,8,0,1,,,,,,,,,,,,,
6663a65e175959c44bdd744f,TCN,2024-06-24_14h47.36.894,LearnStrategy,2023.2.3,MacIntel,57.47126437,5,1,10,0.063697984,-0.007033963,1,0,0,0.8984,rock_grid_rect_2,2,11,-1,-1,0.898,0.383305122,-0.241878255,1,0,0,1.3638,Gabbro_rect,4,1.364,0,9,0,9,0,1,,,,,,,,,,,,,
6663a65e175959c44bdd744f,TCN,2024-06-24_14h47.36.894,LearnStrategy,2023.2.3,MacIntel,57.47126437,5,1,11,0.081357218,-0.014366862,1,0,0,1.2145,rock_grid_rect_2,7,02,-1,-1,1.214,0.173341539,-0.391847466,1,0,0,1.1174,Peridotite_rect,7,1.117,1,10,0,10,0,1,,,,,,,,,,,,,
6663a65e175959c44bdd744f,TCN,2024-06-24_14h47.36.894,LearnStrategy,2023.2.3,MacIntel,57.47126437,5,1,12,0.053278266,-0.002361518,1,0,0,0.7637,rock_grid_rect_2,6,06,-1,-1,0.764,-0.119157783,-0.3932567,1,0,0,1.7589,Pegmatite_rect,6,1.759,1,11,0,11,0,1,,,,,,,,,,,,,
6663a65e175959c44bdd744f,TCN,2024-06-24_14h47.36.894,LearnStrategy,2023.2.3,MacIntel,57.47126437,5,1,13,0.075777045,-0.007847493,1,0,0,0.7491,rock_grid_rect_2,4,09,-1,-1,0.749,0.331142171,-0.248921373,1,0,0,3.4932,Gabbro_rect,4,3.493,1,12,0,12,0,1,,,,,,,,,,,,,
6663a65e175959c44bdd744f,TCN,2024-06-24_14h47.36.894,LearnStrategy,2023.2.3,MacIntel,57.47126437,5,1,14,0.072734375,0.013988207,1,0,0,0.8476,rock_grid_rect_2,1,16,-1,-1,0.848,-0.361612549,-0.265112033,1,0,0,2.7507,Andesite_rect,1,2.751,1,13,0,13,0,1,,,,,,,,,,,,,
6663a65e175959c44bdd744f,TCN,2024-06-24_14h47.36.894,LearnStrategy,2023.2.3,MacIntel,57.47126437,5,1,15,0.0418396,0.005153266,1,0,0,0.7488,rock_grid_rect_2,3,12,-1,-1,0.749,0.37227634,-0.246770833,1,0,0,1.0088,Gabbro_rect,4,1.009,0,14,0,14,0,1,,,,,,,,,,,,,
6663a65e175959c44bdd744f,TCN,2024-06-24_14h47.36.894,LearnStrategy,2023.2.3,MacIntel,57.47126437,5,1,16,0.096417643,-0.011195747,1,0,0,0.8451,rock_grid_rect_2,8,02,-1,-1,0.845,0.373437364,-0.391752794,1,0,0,1.2987,Pumice_rect,8,1.299,1,15,0,15,0,1,,,,,,,,,,,,,
6663a65e175959c44bdd744f,TCN,2024-06-24_14h47.36.894,LearnStrategy,2023.2.3,MacIntel,57.47126437,5,2,1,,,,,,,,3,08,,,,,,,,,,,3,2.627,1,,,,,,0.18922404,-0.25460083,1,0,0,2.6273,Diorite_rect,0,0,0,0,1,
6663a65e175959c44bdd744f,TCN,2024-06-24_14h47.36.894,LearnStrategy,2023.2.3,MacIntel,57.47126437,5,2,2,,,,,,,,2,16,,,,,,,,,,,2,1.874,1,,,,,,-0.120345798,-0.262145386,1,0,0,1.8739,Basalt_rect,1,0,1,0,1,
6663a65e175959c44bdd744f,TCN,2024-06-24_14h47.36.894,LearnStrategy,2023.2.3,MacIntel,57.47126437,5,2,3,,,,,,,,2,12,,,,,,,,,,,1,2.901,0,,,,,,-0.346625705,-0.253178033,1,0,0,2.9005,Andesite_rect,2,0,2,0,1,
6663a65e175959c44bdd744f,TCN,2024-06-24_14h47.36.894,LearnStrategy,2023.2.3,MacIntel,57.47126437,5,2,4,,,,,,,,4,01,,,,,,,,,,,4,2.847,1,,,,,,0.405790337,-0.262030436,1,0,0,2.8473,Gabbro_rect,3,0,3,0,1,
6663a65e175959c44bdd744f,TCN,2024-06-24_14h47.36.894,LearnStrategy,2023.2.3,MacIntel,57.47126437,5,2,5,,,,,,,,3,14,,,,,,,,,,,3,1.428,1,,,,,,0.096564263,-0.260740356,1,0,0,1.4285,Diorite_rect,4,0,4,0,1,
6663a65e175959c44bdd744f,TCN,2024-06-24_14h47.36.894,LearnStrategy,2023.2.3,MacIntel,57.47126437,5,2,6,,,,,,,,7,08,,,,,,,,,,,7,0.928,1,,,,,,0.104877726,-0.408065389,1,0,0,0.9275,Peridotite_rect,5,0,5,0,1,
6663a65e175959c44bdd744f,TCN,2024-06-24_14h47.36.894,LearnStrategy,2023.2.3,MacIntel,57.47126437,5,2,7,,,,,,,,7,06,,,,,,,,,,,7,1.704,1,,,,,,0.100696547,-0.397553507,1,0,0,1.7035,Peridotite_rect,6,0,6,0,1,
6663a65e175959c44bdd744f,TCN,2024-06-24_14h47.36.894,LearnStrategy,2023.2.3,MacIntel,57.47126437,5,2,8,,,,,,,,1,11,,,,,,,,,,,2,2.866,0,,,,,,-0.079157579,-0.265721571,1,0,0,2.8656,Basalt_rect,7,0,7,0,1,
6663a65e175959c44bdd744f,TCN,2024-06-24_14h47.36.894,LearnStrategy,2023.2.3,MacIntel,57.47126437,5,2,9,,,,,,,,8,04,,,,,,,,,,,8,1.01,1,,,,,,0.414895698,-0.382113444,1,0,0,1.0098,Pumice_rect,8,0,8,0,1,
6663a65e175959c44bdd744f,TCN,2024-06-24_14h47.36.894,LearnStrategy,2023.2.3,MacIntel,57.47126437,5,2,10,,,,,,,,6,10,,,,,,,,,,,6,1.706,1,,,,,,-0.110357802,-0.409745483,1,0,0,1.7063,Pegmatite_rect,9,0,9,0,1,
6663a65e175959c44bdd744f,TCN,2024-06-24_14h47.36.894,LearnStrategy,2023.2.3,MacIntel,57.47126437,5,2,11,,,,,,,,1,03,,,,,,,,,,,1,3.823,1,,,,,,-0.409779934,-0.265247803,1,0,0,3.8226,Andesite_rect,10,0,10,0,1,
6663a65e175959c44bdd744f,TCN,2024-06-24_14h47.36.894,LearnStrategy,2023.2.3,MacIntel,57.47126437,5,2,12,,,,,,,,4,05,,,,,,,,,,,4,2.199,1,,,,,,0.414778781,-0.245850288,1,0,0,2.1993,Gabbro_rect,11,0,11,0,1,
6663a65e175959c44bdd744f,TCN,2024-06-24_14h47.36.894,LearnStrategy,2023.2.3,MacIntel,57.47126437,5,2,13,,,,,,,,8,14,,,,,,,,,,,8,1.68,1,,,,,,0.386025119,-0.403421699,1,0,0,1.6799,Pumice_rect,12,0,12,0,1,
6663a65e175959c44bdd744f,TCN,2024-06-24_14h47.36.894,LearnStrategy,2023.2.3,MacIntel,57.47126437,5,2,14,,,,,,,,6,11,,,,,,,,,,,5,1.552,0,,,,,,-0.338673842,-0.397228868,1,0,0,1.5518,Obsidian_rect,13,0,13,0,1,
6663a65e175959c44bdd744f,TCN,2024-06-24_14h47.36.894,LearnStrategy,2023.2.3,MacIntel,57.47126437,5,2,15,,,,,,,,5,11,,,,,,,,,,,5,1.595,1,,,,,,-0.377761705,-0.398205024,1,0,0,1.5946,Obsidian_rect,14,0,14,0,1,
6663a65e175959c44bdd744f,TCN,2024-06-24_14h47.36.894,LearnStrategy,2023.2.3,MacIntel,57.47126437,5,2,16,,,,,,,,5,10,,,,,,,,,,,5,0.691,1,,,,,,-0.377761705,-0.398205024,1,0,0,0.6908,Obsidian_rect,15,0,15,0,1,
6663a65e175959c44bdd744f,TCN,2024-06-24_14h47.36.894,LearnStrategy,2023.2.3,MacIntel,57.47126437,6,1,1,0.045768026,0.001655986,1,0,0,1.0647,rock_grid_rect_2,3,06,-1,-1,1.065,0.164193997,-0.264717272,1,0,0,2.8738,Diorite_rect,3,2.874,1,0,0,0,0,1,,,,,,,,,,,,,
6663a65e175959c44bdd744f,TCN,2024-06-24_14h47.36.894,LearnStrategy,2023.2.3,MacIntel,57.47126437,6,1,2,0.059132555,-0.009982368,1,0,0,0.8788,rock_grid_rect_2,2,04,-1,-1,0.879,-0.145348579,-0.259000109,1,0,0,1.6241,Basalt_rect,2,1.624,1,1,0,1,0,1,,,,,,,,,,,,,
6663a65e175959c44bdd744f,TCN,2024-06-24_14h47.36.894,LearnStrategy,2023.2.3,MacIntel,57.47126437,6,1,3,-0.040679525,0.010783725,1,0,0,0.9481,rock_grid_rect_2,6,09,-1,-1,0.948,-0.085293715,-0.385076972,1,0,0,1.1785,Pegmatite_rect,6,1.178,1,2,0,2,0,1,,,,,,,,,,,,,
6663a65e175959c44bdd744f,TCN,2024-06-24_14h47.36.894,LearnStrategy,2023.2.3,MacIntel,57.47126437,6,1,4,0.080447523,-0.021724718,1,0,0,1.0638,rock_grid_rect_2,4,03,-1,-1,1.064,0.140115153,-0.25790663,1,0,0,1.6188,Diorite_rect,3,1.619,0,3,0,3,0,1,,,,,,,,,,,,,
6663a65e175959c44bdd744f,TCN,2024-06-24_14h47.36.894,LearnStrategy,2023.2.3,MacIntel,57.47126437,6,1,5,0.154669189,-0.009811537,1,0,0,0.8952,rock_grid_rect_2,3,07,-1,-1,0.895,0.195786811,-0.25001709,1,0,0,0.8778,Diorite_rect,3,0.878,1,4,0,4,0,1,,,,,,,,,,,,,
6663a65e175959c44bdd744f,TCN,2024-06-24_14h47.36.894,LearnStrategy,2023.2.3,MacIntel,57.47126437,6,1,6,0.134830119,-0.004424676,1,0,0,0.764,rock_grid_rect_2,5,08,-1,-1,0.764,-0.36348209,-0.391468981,1,0,0,1.2486,Obsidian_rect,5,1.249,1,5,0,5,0,1,,,,,,,,,,,,,
6663a65e175959c44bdd744f,TCN,2024-06-24_14h47.36.894,LearnStrategy,2023.2.3,MacIntel,57.47126437,6,1,7,0.00144694,-0.000552639,1,0,0,0.8475,rock_grid_rect_2,8,08,-1,-1,0.848,0.440238444,-0.404721815,1,0,0,1.4211,Pumice_rect,8,1.421,1,6,0,6,0,1,,,,,,,,,,,,,
6663a65e175959c44bdd744f,TCN,2024-06-24_14h47.36.894,LearnStrategy,2023.2.3,MacIntel,57.47126437,6,1,8,0.13841078,0.015665012,1,0,0,0.7961,rock_grid_rect_2,8,03,-1,-1,0.796,0.403993734,-0.41744968,1,0,0,1.163,Pumice_rect,8,1.163,1,7,0,7,0,1,,,,,,,,,,,,,
6663a65e175959c44bdd744f,TCN,2024-06-24_14h47.36.894,LearnStrategy,2023.2.3,MacIntel,57.47126437,6,1,9,0.102703654,0.014925232,1,0,0,0.7815,rock_grid_rect_2,2,09,-1,-1,0.782,-0.064741618,-0.2539249,1,0,0,1.0632,Basalt_rect,2,1.063,1,8,0,8,0,1,,,,,,,,,,,,,
6663a65e175959c44bdd744f,TCN,2024-06-24_14h47.36.894,LearnStrategy,2023.2.3,MacIntel,57.47126437,6,1,10,0.095244954,0.014613749,1,0,0,0.6297,rock_grid_rect_2,6,05,-1,-1,0.63,0.170545247,-0.263607992,1,0,0,2.9512,Diorite_rect,3,2.951,0,9,0,9,0,1,,,,,,,,,,,,,
6663a65e175959c44bdd744f,TCN,2024-06-24_14h47.36.894,LearnStrategy,2023.2.3,MacIntel,57.47126437,6,1,11,0.096722616,0.016016846,1,0,0,0.7797,rock_grid_rect_2,1,02,-1,-1,0.78,-0.350063883,-0.248643799,1,0,0,2.001,Andesite_rect,1,2.001,1,10,0,10,0,1,,,,,,,,,,,,,
6663a65e175959c44bdd744f,TCN,2024-06-24_14h47.36.894,LearnStrategy,2023.2.3,MacIntel,57.47126437,6,1,12,0.119359741,0.012786424,1,0,0,0.8144,rock_grid_rect_2,5,14,-1,-1,0.814,-0.31963128,-0.397165527,1,0,0,0.9906,Obsidian_rect,5,0.991,1,11,0,11,0,1,,,,,,,,,,,,,
6663a65e175959c44bdd744f,TCN,2024-06-24_14h47.36.894,LearnStrategy,2023.2.3,MacIntel,57.47126437,6,1,13,0.062260064,0.018585273,1,0,0,0.6463,rock_grid_rect_2,1,07,-1,-1,0.646,0.185347765,-0.268582153,1,0,0,1.4562,Diorite_rect,3,1.456,0,12,0,12,0,1,,,,,,,,,,,,,
6663a65e175959c44bdd744f,TCN,2024-06-24_14h47.36.894,LearnStrategy,2023.2.3,MacIntel,57.47126437,6,1,14,0.064433865,-0.006952854,1,0,0,1.548,rock_grid_rect_2,7,12,-1,-1,1.548,0.149668918,-0.414052463,1,0,0,1.6436,Peridotite_rect,7,1.644,1,13,0,13,0,1,,,,,,,,,,,,,
6663a65e175959c44bdd744f,TCN,2024-06-24_14h47.36.894,LearnStrategy,2023.2.3,MacIntel,57.47126437,6,1,15,0.108112047,0.012616509,1,0,0,0.7618,rock_grid_rect_2,4,10,-1,-1,0.762,-0.317945353,-0.264191895,1,0,0,4.0061,Andesite_rect,1,4.006,0,14,0,14,0,1,,,,,,,,,,,,,
6663a65e175959c44bdd744f,TCN,2024-06-24_14h47.36.894,LearnStrategy,2023.2.3,MacIntel,57.47126437,6,1,16,0.084964939,-0.00780565,1,0,0,0.7648,rock_grid_rect_2,7,15,-1,-1,0.765,0.105254652,-0.394636841,1,0,0,2.3008,Peridotite_rect,7,2.301,1,15,0,15,0,1,,,,,,,,,,,,,
6663a65e175959c44bdd744f,TCN,2024-06-24_14h47.36.894,LearnStrategy,2023.2.3,MacIntel,57.47126437,6,2,1,,,,,,,,1,01,,,,,,,,,,,4,5.043,0,,,,,,0.398516168,-0.245722453,1,0,0,5.0432,Gabbro_rect,0,0,0,0,1,
6663a65e175959c44bdd744f,TCN,2024-06-24_14h47.36.894,LearnStrategy,2023.2.3,MacIntel,57.47126437,6,2,2,,,,,,,,5,12,,,,,,,,,,,5,0.955,1,,,,,,-0.361865913,-0.395908678,1,0,0,0.9554,Obsidian_rect,1,0,1,0,1,
6663a65e175959c44bdd744f,TCN,2024-06-24_14h47.36.894,LearnStrategy,2023.2.3,MacIntel,57.47126437,6,2,3,,,,,,,,5,02,,,,,,,,,,,5,0.594,1,,,,,,-0.362421468,-0.3981309,1,0,0,0.5943,Obsidian_rect,2,0,2,0,1,
6663a65e175959c44bdd744f,TCN,2024-06-24_14h47.36.894,LearnStrategy,2023.2.3,MacIntel,57.47126437,6,2,4,,,,,,,,2,08,,,,,,,,,,,2,1.686,1,,,,,,-0.083135919,-0.27097385,1,0,0,1.6864,Basalt_rect,3,0,3,0,1,
6663a65e175959c44bdd744f,TCN,2024-06-24_14h47.36.894,LearnStrategy,2023.2.3,MacIntel,57.47126437,6,2,5,,,,,,,,4,16,,,,,,,,,,,4,2.616,1,,,,,,0.473564996,-0.270637275,1,0,0,2.6163,Gabbro_rect,4,0,4,0,1,
6663a65e175959c44bdd744f,TCN,2024-06-24_14h47.36.894,LearnStrategy,2023.2.3,MacIntel,57.47126437,6,2,6,,,,,,,,1,14,,,,,,,,,,,1,2.489,1,,,,,,-0.334344211,-0.265021769,1,0,0,2.4888,Andesite_rect,5,0,5,0,1,
6663a65e175959c44bdd744f,TCN,2024-06-24_14h47.36.894,LearnStrategy,2023.2.3,MacIntel,57.47126437,6,2,7,,,,,,,,2,05,,,,,,,,,,,2,3.651,1,,,,,,-0.179533217,-0.25329149,1,0,0,3.651,Basalt_rect,6,0,6,0,1,
6663a65e175959c44bdd744f,TCN,2024-06-24_14h47.36.894,LearnStrategy,2023.2.3,MacIntel,57.47126437,6,2,8,,,,,,,,6,08,,,,,,,,,,,6,2.161,1,,,,,,-0.094179348,-0.396037055,1,0,0,2.1614,Pegmatite_rect,7,0,7,0,1,
6663a65e175959c44bdd744f,TCN,2024-06-24_14h47.36.894,LearnStrategy,2023.2.3,MacIntel,57.47126437,6,2,9,,,,,,,,7,16,,,,,,,,,,,6,0.774,0,,,,,,-0.09862576,-0.401726345,1,0,0,0.7743,Pegmatite_rect,8,0,8,0,1,
6663a65e175959c44bdd744f,TCN,2024-06-24_14h47.36.894,LearnStrategy,2023.2.3,MacIntel,57.47126437,6,2,10,,,,,,,,7,10,,,,,,,,,,,7,1.218,1,,,,,,0.108034193,-0.416570367,1,0,0,1.2178,Peridotite_rect,9,0,9,0,1,
6663a65e175959c44bdd744f,TCN,2024-06-24_14h47.36.894,LearnStrategy,2023.2.3,MacIntel,57.47126437,6,2,11,,,,,,,,4,12,,,,,,,,,,,4,2.288,1,,,,,,0.366738417,-0.251821899,1,0,0,2.2883,Gabbro_rect,10,0,10,0,1,
6663a65e175959c44bdd744f,TCN,2024-06-24_14h47.36.894,LearnStrategy,2023.2.3,MacIntel,57.47126437,6,2,12,,,,,,,,6,12,,,,,,,,,,,3,1.783,0,,,,,,0.181443346,-0.251957872,1,0,0,1.7833,Diorite_rect,11,0,11,0,1,
6663a65e175959c44bdd744f,TCN,2024-06-24_14h47.36.894,LearnStrategy,2023.2.3,MacIntel,57.47126437,6,2,13,,,,,,,,3,15,,,,,,,,,,,3,0.957,1,,,,,,0.157845934,-0.264378255,1,0,0,0.9573,Diorite_rect,12,0,12,0,1,
6663a65e175959c44bdd744f,TCN,2024-06-24_14h47.36.894,LearnStrategy,2023.2.3,MacIntel,57.47126437,6,2,14,,,,,,,,8,15,,,,,,,,,,,8,1.141,1,,,,,,0.425504015,-0.410291748,1,0,0,1.141,Pumice_rect,13,0,13,0,1,
6663a65e175959c44bdd744f,TCN,2024-06-24_14h47.36.894,LearnStrategy,2023.2.3,MacIntel,57.47126437,6,2,15,,,,,,,,3,10,,,,,,,,,,,3,1.626,1,,,,,,0.145944078,-0.262181532,1,0,0,1.6258,Diorite_rect,14,0,14,0,1,
6663a65e175959c44bdd744f,TCN,2024-06-24_14h47.36.894,LearnStrategy,2023.2.3,MacIntel,57.47126437,6,2,16,,,,,,,,8,09,,,,,,,,,,,8,1.87,1,,,,,,0.381279975,-0.405919596,1,0,0,1.8698,Pumice_rect,15,0,15,0,1,
6663a65e175959c44bdd744f,TCN,2024-06-24_14h47.36.894,LearnStrategy,2023.2.3,MacIntel,57.47126437,7,1,1,0.110244615,-0.005372586,1,0,0,1.05,rock_grid_rect_2,6,09,-1,-1,1.05,-0.068015137,-0.411046346,1,0,0,2.5335,Pegmatite_rect,6,2.534,1,0,0,0,0,1,,,,,,,,,,,,,
6663a65e175959c44bdd744f,TCN,2024-06-24_14h47.36.894,LearnStrategy,2023.2.3,MacIntel,57.47126437,7,1,2,0.074933879,-0.009333191,1,0,0,1.0674,rock_grid_rect_2,5,05,-1,-1,1.067,-0.401639642,-0.41703125,1,0,0,1.1448,Obsidian_rect,5,1.145,1,1,0,1,0,1,,,,,,,,,,,,,
6663a65e175959c44bdd744f,TCN,2024-06-24_14h47.36.894,LearnStrategy,2023.2.3,MacIntel,57.47126437,7,1,3,0.018990546,0.019136319,1,0,0,0.7002,rock_grid_rect_2,8,03,-1,-1,0.7,0.367096354,-0.411826647,1,0,0,1.0007,Pumice_rect,8,1.001,1,2,0,2,0,1,,,,,,,,,,,,,
6663a65e175959c44bdd744f,TCN,2024-06-24_14h47.36.894,LearnStrategy,2023.2.3,MacIntel,57.47126437,7,1,4,0.126874457,-0.007104797,1,0,0,0.8327,rock_grid_rect_2,6,03,-1,-1,0.833,-0.078236898,-0.408158502,1,0,0,1.663,Pegmatite_rect,6,1.663,1,3,0,3,0,1,,,,,,,,,,,,,
6663a65e175959c44bdd744f,TCN,2024-06-24_14h47.36.894,LearnStrategy,2023.2.3,MacIntel,57.47126437,7,1,5,0.076213989,-0.00770579,1,0,0,0.7339,rock_grid_rect_2,1,16,-1,-1,0.734,0.107070177,-0.243144667,1,0,0,0.8645,Diorite_rect,3,0.865,0,4,0,4,0,1,,,,,,,,,,,,,
6663a65e175959c44bdd744f,TCN,2024-06-24_14h47.36.894,LearnStrategy,2023.2.3,MacIntel,57.47126437,7,1,6,0.119238213,0.006624349,1,0,0,0.6534,rock_grid_rect_2,4,08,-1,-1,0.653,0.32359592,-0.228138021,1,0,0,1.3741,Gabbro_rect,4,1.374,1,5,0,5,0,1,,,,,,,,,,,,,
6663a65e175959c44bdd744f,TCN,2024-06-24_14h47.36.894,LearnStrategy,2023.2.3,MacIntel,57.47126437,7,1,7,0.031940036,-0.001977336,1,0,0,0.7989,rock_grid_rect_2,1,09,-1,-1,0.799,-0.100419651,-0.239799805,1,0,0,0.9694,Basalt_rect,2,0.969,0,6,0,6,0,1,,,,,,,,,,,,,
6663a65e175959c44bdd744f,TCN,2024-06-24_14h47.36.894,LearnStrategy,2023.2.3,MacIntel,57.47126437,7,1,8,0.042438151,0.0044143,1,0,0,0.7311,rock_grid_rect_2,7,13,-1,-1,0.731,0.129409926,-0.401103041,1,0,0,1.1322,Peridotite_rect,7,1.132,1,7,0,7,0,1,,,,,,,,,,,,,
6663a65e175959c44bdd744f,TCN,2024-06-24_14h47.36.894,LearnStrategy,2023.2.3,MacIntel,57.47126437,7,1,9,0.036622654,-0.015337219,1,0,0,0.6823,rock_grid_rect_2,3,09,-1,-1,0.682,0.171008775,-0.267348768,1,0,0,1.5238,Diorite_rect,3,1.524,1,8,0,8,0,1,,,,,,,,,,,,,
6663a65e175959c44bdd744f,TCN,2024-06-24_14h47.36.894,LearnStrategy,2023.2.3,MacIntel,57.47126437,7,1,10,0.102259725,-0.017668016,1,0,0,0.6853,rock_grid_rect_2,7,05,-1,-1,0.685,-0.344578925,-0.238402981,1,0,0,1.9173,Andesite_rect,1,1.917,0,9,0,9,0,1,,,,,,,,,,,,,
6663a65e175959c44bdd744f,TCN,2024-06-24_14h47.36.894,LearnStrategy,2023.2.3,MacIntel,57.47126437,7,1,11,0.072159288,0.005649143,1,0,0,0.7311,rock_grid_rect_2,4,11,-1,-1,0.731,-0.366712986,-0.250520426,1,0,0,1.6967,Andesite_rect,1,1.697,0,10,0,10,0,1,,,,,,,,,,,,,
6663a65e175959c44bdd744f,TCN,2024-06-24_14h47.36.894,LearnStrategy,2023.2.3,MacIntel,57.47126437,7,1,12,0.12179362,-0.018722568,1,0,0,0.9434,rock_grid_rect_2,8,05,-1,-1,0.943,0.382381592,-0.39189799,1,0,0,1.1736,Pumice_rect,8,1.174,1,11,0,11,0,1,,,,,,,,,,,,,
6663a65e175959c44bdd744f,TCN,2024-06-24_14h47.36.894,LearnStrategy,2023.2.3,MacIntel,57.47126437,7,1,13,0.148012899,-0.002090318,1,0,0,0.8482,rock_grid_rect_2,2,10,-1,-1,0.848,-0.135683051,-0.249275106,1,0,0,1.3279,Basalt_rect,2,1.328,1,12,0,12,0,1,,,,,,,,,,,,,
6663a65e175959c44bdd744f,TCN,2024-06-24_14h47.36.894,LearnStrategy,2023.2.3,MacIntel,57.47126437,7,1,14,0.038959215,-0.011616652,1,0,0,0.815,rock_grid_rect_2,3,06,-1,-1,0.815,0.172558255,-0.252303263,1,0,0,1.0791,Diorite_rect,3,1.079,1,13,0,13,0,1,,,,,,,,,,,,,
6663a65e175959c44bdd744f,TCN,2024-06-24_14h47.36.894,LearnStrategy,2023.2.3,MacIntel,57.47126437,7,1,15,0.132788561,-0.008047655,1,0,0,0.7499,rock_grid_rect_2,2,14,-1,-1,0.75,-0.351824883,-0.246572266,1,0,0,1.472,Andesite_rect,1,1.472,0,14,0,14,0,1,,,,,,,,,,,,,
6663a65e175959c44bdd744f,TCN,2024-06-24_14h47.36.894,LearnStrategy,2023.2.3,MacIntel,57.47126437,7,1,16,-0.019188436,2.00399E-05,1,0,0,0.7477,rock_grid_rect_2,5,16,-1,-1,0.748,-0.359709981,-0.393027005,1,0,0,0.9453,Obsidian_rect,5,0.945,1,15,0,15,0,1,,,,,,,,,,,,,
6663a65e175959c44bdd744f,TCN,2024-06-24_14h47.36.894,LearnStrategy,2023.2.3,MacIntel,57.47126437,7,2,1,,,,,,,,8,15,,,,,,,,,,,8,1.551,1,,,,,,0.404064128,-0.397070177,1,0,0,1.5512,Pumice_rect,0,0,0,0,1,
6663a65e175959c44bdd744f,TCN,2024-06-24_14h47.36.894,LearnStrategy,2023.2.3,MacIntel,57.47126437,7,2,2,,,,,,,,5,10,,,,,,,,,,,5,1.14,1,,,,,,-0.392112528,-0.420540297,1,0,0,1.1404,Obsidian_rect,1,0,1,0,1,
6663a65e175959c44bdd744f,TCN,2024-06-24_14h47.36.894,LearnStrategy,2023.2.3,MacIntel,57.47126437,7,2,3,,,,,,,,4,12,,,,,,,,,,,1,1.851,0,,,,,,-0.374751587,-0.262462633,1,0,0,1.8508,Andesite_rect,2,0,2,0,1,
6663a65e175959c44bdd744f,TCN,2024-06-24_14h47.36.894,LearnStrategy,2023.2.3,MacIntel,57.47126437,7,2,4,,,,,,,,7,08,,,,,,,,,,,7,1.653,1,,,,,,0.174313558,-0.4017905,1,0,0,1.6527,Peridotite_rect,3,0,3,0,1,
6663a65e175959c44bdd744f,TCN,2024-06-24_14h47.36.894,LearnStrategy,2023.2.3,MacIntel,57.47126437,7,2,5,,,,,,,,2,12,,,,,,,,,,,4,0.894,0,,,,,,0.352872721,-0.258339505,1,0,0,0.8939,Gabbro_rect,4,0,4,0,1,
6663a65e175959c44bdd744f,TCN,2024-06-24_14h47.36.894,LearnStrategy,2023.2.3,MacIntel,57.47126437,7,2,6,,,,,,,,4,15,,,,,,,,,,,3,2.059,0,,,,,,0.175566542,-0.267297092,1,0,0,2.0592,Diorite_rect,5,0,5,0,1,
6663a65e175959c44bdd744f,TCN,2024-06-24_14h47.36.894,LearnStrategy,2023.2.3,MacIntel,57.47126437,7,2,7,,,,,,,,3,10,,,,,,,,,,,4,2.502,0,,,,,,0.425820177,-0.234025811,1,0,0,2.5017,Gabbro_rect,6,0,6,0,1,
6663a65e175959c44bdd744f,TCN,2024-06-24_14h47.36.894,LearnStrategy,2023.2.3,MacIntel,57.47126437,7,2,8,,,,,,,,5,12,,,,,,,,,,,5,0.963,1,,,,,,-0.391793009,-0.41000902,1,0,0,0.9634,Obsidian_rect,7,0,7,0,1,
6663a65e175959c44bdd744f,TCN,2024-06-24_14h47.36.894,LearnStrategy,2023.2.3,MacIntel,57.47126437,7,2,9,,,,,,,,1,14,,,,,,,,,,,4,1.732,0,,,,,,0.379301758,-0.246746555,1,0,0,1.7315,Gabbro_rect,8,0,8,0,1,
6663a65e175959c44bdd744f,TCN,2024-06-24_14h47.36.894,LearnStrategy,2023.2.3,MacIntel,57.47126437,7,2,10,,,,,,,,6,12,,,,,,,,,,,6,4.997,1,,,,,,-0.087705485,-0.4205405,1,0,0,4.9968,Pegmatite_rect,9,0,9,0,1,
6663a65e175959c44bdd744f,TCN,2024-06-24_14h47.36.894,LearnStrategy,2023.2.3,MacIntel,57.47126437,7,2,11,,,,,,,,2,08,,,,,,,,,,,2,0.903,1,,,,,,-0.069773899,-0.25248881,1,0,0,0.9028,Basalt_rect,10,0,10,0,1,
6663a65e175959c44bdd744f,TCN,2024-06-24_14h47.36.894,LearnStrategy,2023.2.3,MacIntel,57.47126437,7,2,12,,,,,,,,7,06,,,,,,,,,,,7,1.963,1,,,,,,0.088302544,-0.381551175,1,0,0,1.9635,Peridotite_rect,11,0,11,0,1,
6663a65e175959c44bdd744f,TCN,2024-06-24_14h47.36.894,LearnStrategy,2023.2.3,MacIntel,57.47126437,7,2,13,,,,,,,,3,11,,,,,,,,,,,3,0.961,1,,,,,,0.123683404,-0.264143338,1,0,0,0.9608,Diorite_rect,12,0,12,0,1,
6663a65e175959c44bdd744f,TCN,2024-06-24_14h47.36.894,LearnStrategy,2023.2.3,MacIntel,57.47126437,7,2,14,,,,,,,,1,03,,,,,,,,,,,1,1.96,1,,,,,,-0.361531643,-0.260712755,1,0,0,1.9605,Andesite_rect,13,0,13,0,1,
6663a65e175959c44bdd744f,TCN,2024-06-24_14h47.36.894,LearnStrategy,2023.2.3,MacIntel,57.47126437,7,2,15,,,,,,,,8,16,,,,,,,,,,,2,0.748,0,,,,,,-0.120262383,-0.264808689,1,0,0,0.7483,Basalt_rect,14,0,14,0,1,
6663a65e175959c44bdd744f,TCN,2024-06-24_14h47.36.894,LearnStrategy,2023.2.3,MacIntel,57.47126437,7,2,16,,,,,,,,6,10,,,,,,,,,,,6,1.43,1,,,,,,-0.070421753,-0.404971585,1,0,0,1.4303,Pegmatite_rect,15,0,15,0,1,
6663a65e175959c44bdd744f,TCN,2024-06-24_14h47.36.894,LearnStrategy,2023.2.3,MacIntel,57.47126437,8,1,1,0.096123386,-0.024810384,1,0,0,0.9663,rock_grid_rect_2,2,11,-1,-1,0.966,-0.359825779,-0.254164836,1,0,0,1.1213,Andesite_rect,1,1.121,0,0,0,0,0,1,,,,,,,,,,,,,
6663a65e175959c44bdd744f,TCN,2024-06-24_14h47.36.894,LearnStrategy,2023.2.3,MacIntel,57.47126437,8,1,2,-0.036530219,0.006259494,1,0,0,0.7663,rock_grid_rect_2,5,08,-1,-1,0.766,-0.354838867,-0.393843113,1,0,0,1.3352,Obsidian_rect,5,1.335,1,1,0,1,0,1,,,,,,,,,,,,,
6663a65e175959c44bdd744f,TCN,2024-06-24_14h47.36.894,LearnStrategy,2023.2.3,MacIntel,57.47126437,8,1,3,0.054194607,-0.00585083,1,0,0,1.0968,rock_grid_rect_2,4,03,-1,-1,1.097,0.405139025,-0.238746609,1,0,0,3.0504,Gabbro_rect,4,3.05,1,2,0,2,0,1,,,,,,,,,,,,,
6663a65e175959c44bdd744f,TCN,2024-06-24_14h47.36.894,LearnStrategy,2023.2.3,MacIntel,57.47126437,8,1,4,0.090087823,-0.024998474,1,0,0,0.8627,rock_grid_rect_2,2,04,-1,-1,0.863,-0.103640815,-0.248909912,1,0,0,1.3422,Basalt_rect,2,1.342,1,3,0,3,0,1,,,,,,,,,,,,,
6663a65e175959c44bdd744f,TCN,2024-06-24_14h47.36.894,LearnStrategy,2023.2.3,MacIntel,57.47126437,8,1,5,-0.000993313,-0.011711833,1,0,0,0.6521,rock_grid_rect_2,1,07,-1,-1,0.652,0.109582113,-0.238850776,1,0,0,1.2773,Diorite_rect,3,1.277,0,4,0,4,0,1,,,,,,,,,,,,,
6663a65e175959c44bdd744f,TCN,2024-06-24_14h47.36.894,LearnStrategy,2023.2.3,MacIntel,57.47126437,8,1,6,0.11321323,-0.00773112,1,0,0,0.7636,rock_grid_rect_2,3,16,-1,-1,0.764,0.109898614,-0.245356174,1,0,0,0.6171,Diorite_rect,3,0.617,1,5,0,5,0,1,,,,,,,,,,,,,
6663a65e175959c44bdd744f,TCN,2024-06-24_14h47.36.894,LearnStrategy,2023.2.3,MacIntel,57.47126437,8,1,7,0.122004395,0.012653944,1,0,0,0.6005,rock_grid_rect_2,3,07,-1,-1,0.601,0.128720228,-0.255427789,1,0,0,1.1352,Diorite_rect,3,1.135,1,6,0,6,0,1,,,,,,,,,,,,,
6663a65e175959c44bdd744f,TCN,2024-06-24_14h47.36.894,LearnStrategy,2023.2.3,MacIntel,57.47126437,8,1,8,0.129048462,-0.015934991,1,0,0,0.753,rock_grid_rect_2,4,10,-1,-1,0.753,-0.149874403,-0.266997884,1,0,0,1.705,Basalt_rect,2,1.705,0,7,0,7,0,1,,,,,,,,,,,,,
6663a65e175959c44bdd744f,TCN,2024-06-24_14h47.36.894,LearnStrategy,2023.2.3,MacIntel,57.47126437,8,1,9,0.127665473,-0.02179067,1,0,0,0.7492,rock_grid_rect_2,7,12,-1,-1,0.749,0.147069906,-0.420728828,1,0,0,1.0872,Peridotite_rect,7,1.087,1,8,0,8,0,1,,,,,,,,,,,,,
6663a65e175959c44bdd744f,TCN,2024-06-24_14h47.36.894,LearnStrategy,2023.2.3,MacIntel,57.47126437,8,1,10,0.140015666,-0.00963033,1,0,0,1.1334,rock_grid_rect_2,8,06,-1,-1,1.133,0.402378065,-0.40904541,1,0,0,1.0963,Pumice_rect,8,1.096,1,9,0,9,0,1,,,,,,,,,,,,,
6663a65e175959c44bdd744f,TCN,2024-06-24_14h47.36.894,LearnStrategy,2023.2.3,MacIntel,57.47126437,8,1,11,0.179752604,-0.011081577,1,0,0,0.7188,rock_grid_rect_2,5,07,-1,-1,0.719,-0.373383959,-0.412043254,1,0,0,1.0718,Obsidian_rect,5,1.072,1,10,0,10,0,1,,,,,,,,,,,,,
6663a65e175959c44bdd744f,TCN,2024-06-24_14h47.36.894,LearnStrategy,2023.2.3,MacIntel,57.47126437,8,1,12,0.019960802,-0.012144741,1,0,0,0.77,rock_grid_rect_2,7,04,-1,-1,0.77,0.18537184,-0.408138292,1,0,0,1.0971,Peridotite_rect,7,1.097,1,11,0,11,0,1,,,,,,,,,,,,,
6663a65e175959c44bdd744f,TCN,2024-06-24_14h47.36.894,LearnStrategy,2023.2.3,MacIntel,57.47126437,8,1,13,0.184809028,0.01876709,1,0,0,0.7214,rock_grid_rect_2,6,15,-1,-1,0.721,-0.106058011,-0.399112752,1,0,0,1.2181,Pegmatite_rect,6,1.218,1,12,0,12,0,1,,,,,,,,,,,,,
6663a65e175959c44bdd744f,TCN,2024-06-24_14h47.36.894,LearnStrategy,2023.2.3,MacIntel,57.47126437,8,1,14,0.052122803,0.001335958,1,0,0,0.7806,rock_grid_rect_2,1,02,-1,-1,0.781,-0.347525262,-0.246265869,1,0,0,3.2447,Andesite_rect,1,3.245,1,13,0,13,0,1,,,,,,,,,,,,,
6663a65e175959c44bdd744f,TCN,2024-06-24_14h47.36.894,LearnStrategy,2023.2.3,MacIntel,57.47126437,8,1,15,0.111266819,-0.013164469,1,0,0,0.7681,rock_grid_rect_2,8,10,-1,-1,0.768,0.368576253,-0.387114597,1,0,0,1.5418,Pumice_rect,8,1.542,1,14,0,14,0,1,,,,,,,,,,,,,
6663a65e175959c44bdd744f,TCN,2024-06-24_14h47.36.894,LearnStrategy,2023.2.3,MacIntel,57.47126437,8,1,16,0.152943522,-0.006826884,1,0,0,0.7357,rock_grid_rect_2,6,07,-1,-1,0.736,-0.161913791,-0.403588596,1,0,0,2.5752,Pegmatite_rect,6,2.575,1,15,0,15,0,1,,,,,,,,,,,,,
6663a65e175959c44bdd744f,TCN,2024-06-24_14h47.36.894,LearnStrategy,2023.2.3,MacIntel,57.47126437,8,2,1,,,,,,,,8,04,,,,,,,,,,,8,1.273,1,,,,,,0.378247748,-0.399245945,1,0,0,1.2731,Pumice_rect,0,0,0,0,1,
6663a65e175959c44bdd744f,TCN,2024-06-24_14h47.36.894,LearnStrategy,2023.2.3,MacIntel,57.47126437,8,2,2,,,,,,,,5,02,,,,,,,,,,,5,0.929,1,,,,,,-0.415973443,-0.401331719,1,0,0,0.929,Obsidian_rect,1,0,1,0,1,
6663a65e175959c44bdd744f,TCN,2024-06-24_14h47.36.894,LearnStrategy,2023.2.3,MacIntel,57.47126437,8,2,3,,,,,,,,4,16,,,,,,,,,,,4,3.289,1,,,,,,0.411755778,-0.250457628,1,0,0,3.2891,Gabbro_rect,2,0,2,0,1,
6663a65e175959c44bdd744f,TCN,2024-06-24_14h47.36.894,LearnStrategy,2023.2.3,MacIntel,57.47126437,8,2,4,,,,,,,,2,05,,,,,,,,,,,2,1.291,1,,,,,,-0.129707235,-0.24563151,1,0,0,1.2909,Basalt_rect,3,0,3,0,1,
6663a65e175959c44bdd744f,TCN,2024-06-24_14h47.36.894,LearnStrategy,2023.2.3,MacIntel,57.47126437,8,2,5,,,,,,,,6,16,,,,,,,,,,,6,2.313,1,,,,,,-0.105491536,-0.413826769,1,0,0,2.3131,Pegmatite_rect,4,0,4,0,1,
6663a65e175959c44bdd744f,TCN,2024-06-24_14h47.36.894,LearnStrategy,2023.2.3,MacIntel,57.47126437,8,2,6,,,,,,,,4,01,,,,,,,,,,,1,2.624,0,,,,,,-0.353086344,-0.263536784,1,0,0,2.6245,Andesite_rect,5,0,5,0,1,
6663a65e175959c44bdd744f,TCN,2024-06-24_14h47.36.894,LearnStrategy,2023.2.3,MacIntel,57.47126437,8,2,7,,,,,,,,5,11,,,,,,,,,,,5,0.973,1,,,,,,-0.39815328,-0.393302477,1,0,0,0.9728,Obsidian_rect,6,0,6,0,1,
6663a65e175959c44bdd744f,TCN,2024-06-24_14h47.36.894,LearnStrategy,2023.2.3,MacIntel,57.47126437,8,2,8,,,,,,,,7,14,,,,,,,,,,,7,2.258,1,,,,,,0.14331977,-0.411014404,1,0,0,2.258,Peridotite_rect,7,0,7,0,1,
6663a65e175959c44bdd744f,TCN,2024-06-24_14h47.36.894,LearnStrategy,2023.2.3,MacIntel,57.47126437,8,2,9,,,,,,,,2,01,,,,,,,,,,,2,0.95,1,,,,,,-0.098905165,-0.229987454,1,0,0,0.9498,Basalt_rect,8,0,8,0,1,
6663a65e175959c44bdd744f,TCN,2024-06-24_14h47.36.894,LearnStrategy,2023.2.3,MacIntel,57.47126437,8,2,10,,,,,,,,8,14,,,,,,,,,,,8,1.794,1,,,,,,0.414152425,-0.412205132,1,0,0,1.7944,Pumice_rect,9,0,9,0,1,
6663a65e175959c44bdd744f,TCN,2024-06-24_14h47.36.894,LearnStrategy,2023.2.3,MacIntel,57.47126437,8,2,11,,,,,,,,1,04,,,,,,,,,,,1,4.95,1,,,,,,-0.307472636,-0.264182739,1,0,0,4.9503,Andesite_rect,10,0,10,0,1,
6663a65e175959c44bdd744f,TCN,2024-06-24_14h47.36.894,LearnStrategy,2023.2.3,MacIntel,57.47126437,8,2,12,,,,,,,,3,14,,,,,,,,,,,3,1.028,1,,,,,,0.170648193,-0.266714952,1,0,0,1.0276,Diorite_rect,11,0,11,0,1,
6663a65e175959c44bdd744f,TCN,2024-06-24_14h47.36.894,LearnStrategy,2023.2.3,MacIntel,57.47126437,8,2,13,,,,,,,,6,08,,,,,,,,,,,6,1.049,1,,,,,,-0.151876153,-0.414666816,1,0,0,1.0494,Pegmatite_rect,12,0,12,0,1,
6663a65e175959c44bdd744f,TCN,2024-06-24_14h47.36.894,LearnStrategy,2023.2.3,MacIntel,57.47126437,8,2,14,,,,,,,,1,01,,,,,,,,,,,4,5.176,0,,,,,,0.384853244,-0.246737671,1,0,0,5.1762,Gabbro_rect,13,0,13,0,1,
6663a65e175959c44bdd744f,TCN,2024-06-24_14h47.36.894,LearnStrategy,2023.2.3,MacIntel,57.47126437,8,2,15,,,,,,,,3,08,,,,,,,,,,,3,1.054,1,,,,,,0.112646145,-0.252550727,1,0,0,1.0537,Diorite_rect,14,0,14,0,1,
6663a65e175959c44bdd744f,TCN,2024-06-24_14h47.36.894,LearnStrategy,2023.2.3,MacIntel,57.47126437,8,2,16,,,,,,,,7,10,,,,,,,,,,,7,1.45,1,,,,,,0.105200873,-0.388737793,1,0,0,1.4504,Peridotite_rect,15,0,15,0,1,
6663a65e175959c44bdd744f,TCN,2024-06-24_14h47.36.894,LearnStrategy,2023.2.3,MacIntel,57.47126437,9,1,1,0.088392944,0.022508341,1,0,0,1.1314,rock_grid_rect_2,5,14,-1,-1,1.131,-0.374421997,-0.410654636,1,0,0,1.4493,Obsidian_rect,5,1.449,1,0,0,0,0,1,,,,,,,,,,,,,
6663a65e175959c44bdd744f,TCN,2024-06-24_14h47.36.894,LearnStrategy,2023.2.3,MacIntel,57.47126437,9,1,2,0.113071967,-0.017973599,1,0,0,1.0876,rock_grid_rect_2,5,04,-1,-1,1.088,-0.359041104,-0.40249939,1,0,0,0.8437,Obsidian_rect,5,0.844,1,1,0,1,0,1,,,,,,,,,,,,,
6663a65e175959c44bdd744f,TCN,2024-06-24_14h47.36.894,LearnStrategy,2023.2.3,MacIntel,57.47126437,9,1,3,0.023524712,-0.003617384,1,0,0,0.7803,rock_grid_rect_2,4,09,-1,-1,0.78,-0.135547011,-0.251021729,1,0,0,1.0199,Basalt_rect,2,1.02,0,2,0,2,0,1,,,,,,,,,,,,,
6663a65e175959c44bdd744f,TCN,2024-06-24_14h47.36.894,LearnStrategy,2023.2.3,MacIntel,57.47126437,9,1,4,0.103784993,0.008017239,1,0,0,0.8698,rock_grid_rect_2,1,06,-1,-1,0.87,-0.343739319,-0.262047187,1,0,0,1.2868,Andesite_rect,1,1.287,1,3,0,3,0,1,,,,,,,,,,,,,
6663a65e175959c44bdd744f,TCN,2024-06-24_14h47.36.894,LearnStrategy,2023.2.3,MacIntel,57.47126437,9,1,5,0.093387722,0.007416517,1,0,0,0.6653,rock_grid_rect_2,4,14,-1,-1,0.665,0.328471748,-0.245335829,1,0,0,1.5672,Gabbro_rect,4,1.567,1,4,0,4,0,1,,,,,,,,,,,,,
6663a65e175959c44bdd744f,TCN,2024-06-24_14h47.36.894,LearnStrategy,2023.2.3,MacIntel,57.47126437,9,1,6,0.101936578,0.014957072,1,0,0,0.6535,rock_grid_rect_2,7,15,-1,-1,0.653,0.136818169,-0.409206068,1,0,0,1.0108,Peridotite_rect,7,1.011,1,5,0,5,0,1,,,,,,,,,,,,,
6663a65e175959c44bdd744f,TCN,2024-06-24_14h47.36.894,LearnStrategy,2023.2.3,MacIntel,57.47126437,9,1,7,0.150902846,-0.003531087,1,0,0,0.6313,rock_grid_rect_2,7,02,-1,-1,0.631,0.111686198,-0.408209229,1,0,0,1.3132,Peridotite_rect,7,1.313,1,6,0,6,0,1,,,,,,,,,,,,,
6663a65e175959c44bdd744f,TCN,2024-06-24_14h47.36.894,LearnStrategy,2023.2.3,MacIntel,57.47126437,9,1,8,0.110215047,-0.022779575,1,0,0,0.7383,rock_grid_rect_2,2,09,-1,-1,0.738,-0.066172418,-0.260984226,1,0,0,1.6565,Basalt_rect,2,1.657,1,7,0,7,0,1,,,,,,,,,,,,,
6663a65e175959c44bdd744f,TCN,2024-06-24_14h47.36.894,LearnStrategy,2023.2.3,MacIntel,57.47126437,9,1,9,0.05143358,-0.010384555,1,0,0,1.1165,rock_grid_rect_2,8,02,-1,-1,1.117,0.372515462,-0.391276449,1,0,0,1.0305,Pumice_rect,8,1.031,1,8,0,8,0,1,,,,,,,,,,,,,
6663a65e175959c44bdd744f,TCN,2024-06-24_14h47.36.894,LearnStrategy,2023.2.3,MacIntel,57.47126437,9,1,10,0.126349555,0.009549289,1,0,0,0.7699,rock_grid_rect_2,3,02,-1,-1,0.77,0.082354329,-0.264483507,1,0,0,0.9798,Diorite_rect,3,0.98,1,9,0,9,0,1,,,,,,,,,,,,,
6663a65e175959c44bdd744f,TCN,2024-06-24_14h47.36.894,LearnStrategy,2023.2.3,MacIntel,57.47126437,9,1,11,0.114854262,-0.008511793,1,0,0,1.2997,rock_grid_rect_2,8,08,-1,-1,1.3,0.396723226,-0.396386176,1,0,0,1.0622,Pumice_rect,8,1.062,1,10,0,10,0,1,,,,,,,,,,,,,
6663a65e175959c44bdd744f,TCN,2024-06-24_14h47.36.894,LearnStrategy,2023.2.3,MacIntel,57.47126437,9,1,12,0.158130086,0.010029602,1,0,0,0.8164,rock_grid_rect_2,6,06,-1,-1,0.816,-0.161547987,-0.411795451,1,0,0,1.6108,Pegmatite_rect,6,1.611,1,11,0,11,0,1,,,,,,,,,,,,,
6663a65e175959c44bdd744f,TCN,2024-06-24_14h47.36.894,LearnStrategy,2023.2.3,MacIntel,57.47126437,9,1,13,0.048963284,-0.018594225,1,0,0,0.6508,rock_grid_rect_2,2,02,-1,-1,0.651,-0.056208089,-0.251332126,1,0,0,0.9131,Basalt_rect,2,0.913,1,12,0,12,0,1,,,,,,,,,,,,,
6663a65e175959c44bdd744f,TCN,2024-06-24_14h47.36.894,LearnStrategy,2023.2.3,MacIntel,57.47126437,9,1,14,0.051531236,0.00496521,1,0,0,1.1018,rock_grid_rect_2,1,10,-1,-1,1.102,0.313451742,-0.382137248,1,0,0,1.1078,Pumice_rect,8,1.108,0,13,0,13,0,1,,,,,,,,,,,,,
6663a65e175959c44bdd744f,TCN,2024-06-24_14h47.36.894,LearnStrategy,2023.2.3,MacIntel,57.47126437,9,1,15,0.099700656,0.024793735,1,0,0,0.8865,rock_grid_rect_2,6,05,-1,-1,0.887,-0.154659356,-0.409597168,1,0,0,1.6231,Pegmatite_rect,6,1.623,1,14,0,14,0,1,,,,,,,,,,,,,
6663a65e175959c44bdd744f,TCN,2024-06-24_14h47.36.894,LearnStrategy,2023.2.3,MacIntel,57.47126437,9,1,16,0.077712674,-0.008856371,1,0,0,1.0998,rock_grid_rect_2,3,12,-1,-1,1.1,0.15534729,-0.262578125,1,0,0,1.4113,Diorite_rect,3,1.411,1,15,0,15,0,1,,,,,,,,,,,,,
6663a65e175959c44bdd744f,TCN,2024-06-24_14h47.36.894,LearnStrategy,2023.2.3,MacIntel,57.47126437,9,2,1,,,,,,,,7,16,,,,,,,,,,,7,2.782,1,,,,,,0.113950602,-0.403198581,1,0,0,2.7816,Peridotite_rect,0,0,0,0,1,
6663a65e175959c44bdd744f,TCN,2024-06-24_14h47.36.894,LearnStrategy,2023.2.3,MacIntel,57.47126437,9,2,2,,,,,,,,7,07,,,,,,,,,,,7,2.572,1,,,,,,0.124995999,-0.400379232,1,0,0,2.5715,Peridotite_rect,1,0,1,0,1,
6663a65e175959c44bdd744f,TCN,2024-06-24_14h47.36.894,LearnStrategy,2023.2.3,MacIntel,57.47126437,9,2,3,,,,,,,,8,13,,,,,,,,,,,8,1.22,1,,,,,,0.381742079,-0.3819104,1,0,0,1.2203,Pumice_rect,2,0,2,0,1,
6663a65e175959c44bdd744f,TCN,2024-06-24_14h47.36.894,LearnStrategy,2023.2.3,MacIntel,57.47126437,9,2,4,,,,,,,,5,06,,,,,,,,,,,5,0.981,1,,,,,,-0.378405762,-0.400285238,1,0,0,0.9808,Obsidian_rect,3,0,3,0,1,
6663a65e175959c44bdd744f,TCN,2024-06-24_14h47.36.894,LearnStrategy,2023.2.3,MacIntel,57.47126437,9,2,5,,,,,,,,6,13,,,,,,,,,,,6,1.49,1,,,,,,-0.087174072,-0.417200521,1,0,0,1.4899,Pegmatite_rect,4,0,4,0,1,
6663a65e175959c44bdd744f,TCN,2024-06-24_14h47.36.894,LearnStrategy,2023.2.3,MacIntel,57.47126437,9,2,6,,,,,,,,5,09,,,,,,,,,,,5,1.02,1,,,,,,-0.352399801,-0.41125373,1,0,0,1.02,Obsidian_rect,5,0,5,0,1,
6663a65e175959c44bdd744f,TCN,2024-06-24_14h47.36.894,LearnStrategy,2023.2.3,MacIntel,57.47126437,9,2,7,,,,,,,,4,13,,,,,,,,,,,4,1.723,1,,,,,,0.373680962,-0.239354858,1,0,0,1.7233,Gabbro_rect,6,0,6,0,1,
6663a65e175959c44bdd744f,TCN,2024-06-24_14h47.36.894,LearnStrategy,2023.2.3,MacIntel,57.47126437,9,2,8,,,,,,,,2,06,,,,,,,,,,,2,1.827,1,,,,,,-0.117143351,-0.263406508,1,0,0,1.8274,Basalt_rect,7,0,7,0,1,
6663a65e175959c44bdd744f,TCN,2024-06-24_14h47.36.894,LearnStrategy,2023.2.3,MacIntel,57.47126437,9,2,9,,,,,,,,3,13,,,,,,,,,,,3,1.755,1,,,,,,0.130392388,-0.249817301,1,0,0,1.7547,Diorite_rect,8,0,8,0,1,
6663a65e175959c44bdd744f,TCN,2024-06-24_14h47.36.894,LearnStrategy,2023.2.3,MacIntel,57.47126437,9,2,10,,,,,,,,6,11,,,,,,,,,,,6,1.011,1,,,,,,-0.107522719,-0.404891629,1,0,0,1.0107,Pegmatite_rect,9,0,9,0,1,
6663a65e175959c44bdd744f,TCN,2024-06-24_14h47.36.894,LearnStrategy,2023.2.3,MacIntel,57.47126437,9,2,11,,,,,,,,4,05,,,,,,,,,,,7,3.153,0,,,,,,0.11762146,-0.397770521,1,0,0,3.1526,Peridotite_rect,10,0,10,0,1,
6663a65e175959c44bdd744f,TCN,2024-06-24_14h47.36.894,LearnStrategy,2023.2.3,MacIntel,57.47126437,9,2,12,,,,,,,,1,11,,,,,,,,,,,1,1.752,1,,,,,,-0.3425393,-0.259344211,1,0,0,1.7518,Andesite_rect,11,0,11,0,1,
6663a65e175959c44bdd744f,TCN,2024-06-24_14h47.36.894,LearnStrategy,2023.2.3,MacIntel,57.47126437,9,2,13,,,,,,,,8,09,,,,,,,,,,,8,0.984,1,,,,,,0.367631565,-0.379238349,1,0,0,0.9837,Pumice_rect,12,0,12,0,1,
6663a65e175959c44bdd744f,TCN,2024-06-24_14h47.36.894,LearnStrategy,2023.2.3,MacIntel,57.47126437,9,2,14,,,,,,,,1,05,,,,,,,,,,,1,3.73,1,,,,,,-0.343310818,-0.25330641,1,0,0,3.7299,Andesite_rect,13,0,13,0,1,
6663a65e175959c44bdd744f,TCN,2024-06-24_14h47.36.894,LearnStrategy,2023.2.3,MacIntel,57.47126437,9,2,15,,,,,,,,2,16,,,,,,,,,,,4,2.05,0,,,,,,0.367387424,-0.260497369,1,0,0,2.0496,Gabbro_rect,14,0,14,0,1,
6663a65e175959c44bdd744f,TCN,2024-06-24_14h47.36.894,LearnStrategy,2023.2.3,MacIntel,57.47126437,9,2,16,,,,,,,,3,15,,,,,,,,,,,3,1.365,1,,,,,,0.161752319,-0.260106337,1,0,0,1.3652,Diorite_rect,15,0,15,0,1,
6663a65e175959c44bdd744f,TCN,2024-06-24_14h47.36.894,LearnStrategy,2023.2.3,MacIntel,57.47126437,,,,,,,,,,,,,,,,,,,,,,,,,,,,,,,,,,,,,,,,,,,1
6663a65e175959c44bdd744f,TCN,2024-06-24_14h47.36.894,LearnStrategy,2023.2.3,MacIntel,57.47126437,,,,,,,,,,,,,,,,,,,,,,,,,,,,,,,,,,,,,,,,,,,
6663a65e175959c44bdd744f,TCN,2024-06-24_14h47.36.894,LearnStrategy,2023.2.3,MacIntel,57.47126437,,,,,,,,,,,7,04,1,1,,,,,,,,,,,,,,,,,,,,,,,,,,,,,
6663a65e175959c44bdd744f,TCN,2024-06-24_14h47.36.894,LearnStrategy,2023.2.3,MacIntel,57.47126437,,,,,,,,,,,7,02,1,2,,,,,,,,,,,,,,,,,,,,,,,,,,,,,
6663a65e175959c44bdd744f,TCN,2024-06-24_14h47.36.894,LearnStrategy,2023.2.3,MacIntel,57.47126437,,,,,,,,,,,6,09,1,3,,,,,,,,,,,,,,,,,,,,,,,,,,,,,
6663a65e175959c44bdd744f,TCN,2024-06-24_14h47.36.894,LearnStrategy,2023.2.3,MacIntel,57.47126437,,,,,,,,,,,6,07,1,4,,,,,,,,,,,,,,,,,,,,,,,,,,,,,
6663a65e175959c44bdd744f,TCN,2024-06-24_14h47.36.894,LearnStrategy,2023.2.3,MacIntel,57.47126437,,,,,,,,,,,8,10,1,5,,,,,,,,,,,,,,,,,,,,,,,,,,,,,
6663a65e175959c44bdd744f,TCN,2024-06-24_14h47.36.894,LearnStrategy,2023.2.3,MacIntel,57.47126437,,,,,,,,,,,3,02,1,6,,,,,,,,,,,,,,,,,,,,,,,,,,,,,
6663a65e175959c44bdd744f,TCN,2024-06-24_14h47.36.894,LearnStrategy,2023.2.3,MacIntel,57.47126437,,,,,,,,,,,5,16,1,7,,,,,,,,,,,,,,,,,,,,,,,,,,,,,
6663a65e175959c44bdd744f,TCN,2024-06-24_14h47.36.894,LearnStrategy,2023.2.3,MacIntel,57.47126437,,,,,,,,,,,4,09,1,8,,,,,,,,,,,,,,,,,,,,,,,,,,,,,
6663a65e175959c44bdd744f,TCN,2024-06-24_14h47.36.894,LearnStrategy,2023.2.3,MacIntel,57.47126437,,,,,,,,,,,8,05,2,1,,,,,,,,,,,,,,,,,,,,,,,,,,,,,
6663a65e175959c44bdd744f,TCN,2024-06-24_14h47.36.894,LearnStrategy,2023.2.3,MacIntel,57.47126437,,,,,,,,,,,2,02,2,2,,,,,,,,,,,,,,,,,,,,,,,,,,,,,
6663a65e175959c44bdd744f,TCN,2024-06-24_14h47.36.894,LearnStrategy,2023.2.3,MacIntel,57.47126437,,,,,,,,,,,7,13,2,3,,,,,,,,,,,,,,,,,,,,,,,,,,,,,
6663a65e175959c44bdd744f,TCN,2024-06-24_14h47.36.894,LearnStrategy,2023.2.3,MacIntel,57.47126437,,,,,,,,,,,6,03,2,4,,,,,,,,,,,,,,,,,,,,,,,,,,,,,
6663a65e175959c44bdd744f,TCN,2024-06-24_14h47.36.894,LearnStrategy,2023.2.3,MacIntel,57.47126437,,,,,,,,,,,3,12,2,5,,,,,,,,,,,,,,,,,,,,,,,,,,,,,
6663a65e175959c44bdd744f,TCN,2024-06-24_14h47.36.894,LearnStrategy,2023.2.3,MacIntel,57.47126437,,,,,,,,,,,7,15,2,6,,,,,,,,,,,,,,,,,,,,,,,,,,,,,
6663a65e175959c44bdd744f,TCN,2024-06-24_14h47.36.894,LearnStrategy,2023.2.3,MacIntel,57.47126437,,,,,,,,,,,7,12,2,7,,,,,,,,,,,,,,,,,,,,,,,,,,,,,
6663a65e175959c44bdd744f,TCN,2024-06-24_14h47.36.894,LearnStrategy,2023.2.3,MacIntel,57.47126437,,,,,,,,,,,3,16,2,8,,,,,,,,,,,,,,,,,,,,,,,,,,,,,
6663a65e175959c44bdd744f,TCN,2024-06-24_14h47.36.894,LearnStrategy,2023.2.3,MacIntel,57.47126437,,,,,,,,,,,1,02,3,1,,,,,,,,,,,,,,,,,,,,,,,,,,,,,
6663a65e175959c44bdd744f,TCN,2024-06-24_14h47.36.894,LearnStrategy,2023.2.3,MacIntel,57.47126437,,,,,,,,,,,8,08,3,2,,,,,,,,,,,,,,,,,,,,,,,,,,,,,
6663a65e175959c44bdd744f,TCN,2024-06-24_14h47.36.894,LearnStrategy,2023.2.3,MacIntel,57.47126437,,,,,,,,,,,1,09,3,3,,,,,,,,,,,,,,,,,,,,,,,,,,,,,
6663a65e175959c44bdd744f,TCN,2024-06-24_14h47.36.894,LearnStrategy,2023.2.3,MacIntel,57.47126437,,,,,,,,,,,5,05,3,4,,,,,,,,,,,,,,,,,,,,,,,,,,,,,
6663a65e175959c44bdd744f,TCN,2024-06-24_14h47.36.894,LearnStrategy,2023.2.3,MacIntel,57.47126437,,,,,,,,,,,6,15,3,5,,,,,,,,,,,,,,,,,,,,,,,,,,,,,
6663a65e175959c44bdd744f,TCN,2024-06-24_14h47.36.894,LearnStrategy,2023.2.3,MacIntel,57.47126437,,,,,,,,,,,4,10,3,6,,,,,,,,,,,,,,,,,,,,,,,,,,,,,
6663a65e175959c44bdd744f,TCN,2024-06-24_14h47.36.894,LearnStrategy,2023.2.3,MacIntel,57.47126437,,,,,,,,,,,8,02,3,7,,,,,,,,,,,,,,,,,,,,,,,,,,,,,
6663a65e175959c44bdd744f,TCN,2024-06-24_14h47.36.894,LearnStrategy,2023.2.3,MacIntel,57.47126437,,,,,,,,,,,2,14,3,8,,,,,,,,,,,,,,,,,,,,,,,,,,,,,
6663a65e175959c44bdd744f,TCN,2024-06-24_14h47.36.894,LearnStrategy,2023.2.3,MacIntel,57.47126437,,,,,,,,,,,2,11,4,1,,,,,,,,,,,,,,,,,,,,,,,,,,,,,
6663a65e175959c44bdd744f,TCN,2024-06-24_14h47.36.894,LearnStrategy,2023.2.3,MacIntel,57.47126437,,,,,,,,,,,2,10,4,2,,,,,,,,,,,,,,,,,,,,,,,,,,,,,
6663a65e175959c44bdd744f,TCN,2024-06-24_14h47.36.894,LearnStrategy,2023.2.3,MacIntel,57.47126437,,,,,,,,,,,6,06,4,3,,,,,,,,,,,,,,,,,,,,,,,,,,,,,
6663a65e175959c44bdd744f,TCN,2024-06-24_14h47.36.894,LearnStrategy,2023.2.3,MacIntel,57.47126437,,,,,,,,,,,4,14,4,4,,,,,,,,,,,,,,,,,,,,,,,,,,,,,
6663a65e175959c44bdd744f,TCN,2024-06-24_14h47.36.894,LearnStrategy,2023.2.3,MacIntel,57.47126437,,,,,,,,,,,5,08,4,5,,,,,,,,,,,,,,,,,,,,,,,,,,,,,
6663a65e175959c44bdd744f,TCN,2024-06-24_14h47.36.894,LearnStrategy,2023.2.3,MacIntel,57.47126437,,,,,,,,,,,2,04,4,6,,,,,,,,,,,,,,,,,,,,,,,,,,,,,
6663a65e175959c44bdd744f,TCN,2024-06-24_14h47.36.894,LearnStrategy,2023.2.3,MacIntel,57.47126437,,,,,,,,,,,3,09,4,7,,,,,,,,,,,,,,,,,,,,,,,,,,,,,
6663a65e175959c44bdd744f,TCN,2024-06-24_14h47.36.894,LearnStrategy,2023.2.3,MacIntel,57.47126437,,,,,,,,,,,1,07,4,8,,,,,,,,,,,,,,,,,,,,,,,,,,,,,
6663a65e175959c44bdd744f,TCN,2024-06-24_14h47.36.894,LearnStrategy,2023.2.3,MacIntel,57.47126437,,,,,,,,,,,4,11,5,1,,,,,,,,,,,,,,,,,,,,,,,,,,,,,
6663a65e175959c44bdd744f,TCN,2024-06-24_14h47.36.894,LearnStrategy,2023.2.3,MacIntel,57.47126437,,,,,,,,,,,4,03,5,2,,,,,,,,,,,,,,,,,,,,,,,,,,,,,
6663a65e175959c44bdd744f,TCN,2024-06-24_14h47.36.894,LearnStrategy,2023.2.3,MacIntel,57.47126437,,,,,,,,,,,1,06,5,3,,,,,,,,,,,,,,,,,,,,,,,,,,,,,
6663a65e175959c44bdd744f,TCN,2024-06-24_14h47.36.894,LearnStrategy,2023.2.3,MacIntel,57.47126437,,,,,,,,,,,6,05,5,4,,,,,,,,,,,,,,,,,,,,,,,,,,,,,
6663a65e175959c44bdd744f,TCN,2024-06-24_14h47.36.894,LearnStrategy,2023.2.3,MacIntel,57.47126437,,,,,,,,,,,3,06,5,5,,,,,,,,,,,,,,,,,,,,,,,,,,,,,
6663a65e175959c44bdd744f,TCN,2024-06-24_14h47.36.894,LearnStrategy,2023.2.3,MacIntel,57.47126437,,,,,,,,,,,2,09,5,6,,,,,,,,,,,,,,,,,,,,,,,,,,,,,
6663a65e175959c44bdd744f,TCN,2024-06-24_14h47.36.894,LearnStrategy,2023.2.3,MacIntel,57.47126437,,,,,,,,,,,4,08,5,7,,,,,,,,,,,,,,,,,,,,,,,,,,,,,
6663a65e175959c44bdd744f,TCN,2024-06-24_14h47.36.894,LearnStrategy,2023.2.3,MacIntel,57.47126437,,,,,,,,,,,1,10,5,8,,,,,,,,,,,,,,,,,,,,,,,,,,,,,
6663a65e175959c44bdd744f,TCN,2024-06-24_14h47.36.894,LearnStrategy,2023.2.3,MacIntel,57.47126437,,,,,,,,,,,1,16,6,1,,,,,,,,,,,,,,,,,,,,,,,,,,,,,
6663a65e175959c44bdd744f,TCN,2024-06-24_14h47.36.894,LearnStrategy,2023.2.3,MacIntel,57.47126437,,,,,,,,,,,7,05,6,2,,,,,,,,,,,,,,,,,,,,,,,,,,,,,
6663a65e175959c44bdd744f,TCN,2024-06-24_14h47.36.894,LearnStrategy,2023.2.3,MacIntel,57.47126437,,,,,,,,,,,5,04,6,3,,,,,,,,,,,,,,,,,,,,,,,,,,,,,
6663a65e175959c44bdd744f,TCN,2024-06-24_14h47.36.894,LearnStrategy,2023.2.3,MacIntel,57.47126437,,,,,,,,,,,5,07,6,4,,,,,,,,,,,,,,,,,,,,,,,,,,,,,
6663a65e175959c44bdd744f,TCN,2024-06-24_14h47.36.894,LearnStrategy,2023.2.3,MacIntel,57.47126437,,,,,,,,,,,8,06,6,5,,,,,,,,,,,,,,,,,,,,,,,,,,,,,
6663a65e175959c44bdd744f,TCN,2024-06-24_14h47.36.894,LearnStrategy,2023.2.3,MacIntel,57.47126437,,,,,,,,,,,8,03,6,6,,,,,,,,,,,,,,,,,,,,,,,,,,,,,
6663a65e175959c44bdd744f,TCN,2024-06-24_14h47.36.894,LearnStrategy,2023.2.3,MacIntel,57.47126437,,,,,,,,,,,5,14,6,7,,,,,,,,,,,,,,,,,,,,,,,,,,,,,
6663a65e175959c44bdd744f,TCN,2024-06-24_14h47.36.894,LearnStrategy,2023.2.3,MacIntel,57.47126437,,,,,,,,,,,3,07,6,8,,,,,,,,,,,,,,,,,,,,,,,,,,,,,