participant,condition,date,expName,psychopyVersion,OS,frameRate,block,phase,trial,learn_mouse.x,learn_mouse.y,learn_mouse.leftButton,learn_mouse.midButton,learn_mouse.rightButton,learn_mouse.time,learn_mouse.clicked_name,cat,token,row,col,t_select,cat_mouse_l.x,cat_mouse_l.y,cat_mouse_l.leftButton,cat_mouse_l.midButton,cat_mouse_l.rightButton,cat_mouse_l.time,cat_mouse_l.clicked_name,resp,t_resp,corr,train_trials.thisRepN,train_trials.thisTrialN,train_trials.thisN,train_trials.thisIndex,train_trials.ran,cat_mouse_t.x,cat_mouse_t.y,cat_mouse_t.leftButton,cat_mouse_t.midButton,cat_mouse_t.rightButton,cat_mouse_t.time,cat_mouse_t.clicked_name,test_trials.thisRepN,test_trials.thisTrialN,test_trials.thisN,test_trials.thisIndex,test_trials.ran
66646a115e9d93996c78ee02,SCN,2024-06-10_15h14.09.604,LearnStrategy,2023.2.3,MacIntel,62.5,,,,,,,,,,,,,,,,,,,,,,,,,,,,,,,,,,,,,,,,,,
66646a115e9d93996c78ee02,SCN,2024-06-10_15h14.09.604,LearnStrategy,2023.2.3,MacIntel,62.5,1,1,1,-0.548101266,0.402531646,1,0,0,14.715,Obsidian_08,5,08,6,1,14.715,-0.346835443,-0.392405063,1,0,0,9.565,Obsidian_rect,5,9.565,1,0,0,0,0,1,,,,,,,,,,,,
66646a115e9d93996c78ee02,SCN,2024-06-10_15h14.09.604,LearnStrategy,2023.2.3,MacIntel,62.5,1,1,2,0.248101266,-0.088607595,1,0,0,1.391,Diorite_06,3,06,3,6,1.391,-0.062025316,-0.251898734,1,0,0,10.636,Basalt_rect,2,10.636,0,1,0,1,0,1,,,,,,,,,,,,
66646a115e9d93996c78ee02,SCN,2024-06-10_15h14.09.604,LearnStrategy,2023.2.3,MacIntel,62.5,1,1,3,-0.040506329,0.240506329,1,0,0,7.278,Peridotite_04,7,04,5,4,7.278,0.496202532,-0.25443038,1,0,0,3.68,Gabbro_rect,4,3.68,0,2,0,2,0,1,,,,,,,,,,,,
66646a115e9d93996c78ee02,SCN,2024-06-10_15h14.09.604,LearnStrategy,2023.2.3,MacIntel,62.5,1,1,4,0.117721519,0.239240506,1,0,0,3.97,Pegmatite_16,6,16,5,5,3.97,0.437974684,-0.407594937,1,0,0,7.903,Pumice_rect,8,7.903,0,3,0,3,0,1,,,,,,,,,,,,
66646a115e9d93996c78ee02,SCN,2024-06-10_15h14.09.604,LearnStrategy,2023.2.3,MacIntel,62.5,1,1,5,0.092405063,0.411392405,1,0,0,8.786,Pumice_10,8,10,6,5,8.786,0.478481013,-0.250632911,1,0,0,5.339,Gabbro_rect,4,5.339,0,4,0,4,0,1,,,,,,,,,,,,
66646a115e9d93996c78ee02,SCN,2024-06-10_15h14.09.604,LearnStrategy,2023.2.3,MacIntel,62.5,1,1,6,0.403797468,-0.429113924,1,0,0,12.279,Pumice_16,8,16,1,7,12.279,0.186075949,-0.246835443,1,0,0,2.875,Diorite_rect,3,2.875,0,5,0,5,0,1,,,,,,,,,,,,
66646a115e9d93996c78ee02,SCN,2024-06-10_15h14.09.604,LearnStrategy,2023.2.3,MacIntel,62.5,1,1,7,0.069620253,-0.216455696,1,0,0,5.096,Pumice_09,8,09,2,5,5.096,0.418987342,-0.410126582,1,0,0,2.132,Pumice_rect,8,2.132,1,6,0,6,0,1,,,,,,,,,,,,
66646a115e9d93996c78ee02,SCN,2024-06-10_15h14.09.604,LearnStrategy,2023.2.3,MacIntel,62.5,1,1,8,-0.241772152,-0.256962025,1,0,0,5.702,Obsidian_10,5,10,2,3,5.702,-0.348101266,-0.408860759,1,0,0,3.626,Obsidian_rect,5,3.626,1,7,0,7,0,1,,,,,,,,,,,,
66646a115e9d93996c78ee02,SCN,2024-06-10_15h14.09.604,LearnStrategy,2023.2.3,MacIntel,62.5,1,1,9,0.243037975,0.239240506,1,0,0,5.037,Gabbro_03,4,03,5,6,5.037,0.194936709,-0.415189873,1,0,0,5.807,Peridotite_rect,7,5.807,0,8,0,8,0,1,,,,,,,,,,,,
66646a115e9d93996c78ee02,SCN,2024-06-10_15h14.09.604,LearnStrategy,2023.2.3,MacIntel,62.5,1,1,10,-0.051898734,0.103797468,1,0,0,2.364,Obsidian_07,5,07,4,4,2.364,-0.332911392,-0.411392405,1,0,0,1.357,Obsidian_rect,5,1.357,1,9,0,9,0,1,,,,,,,,,,,,
66646a115e9d93996c78ee02,SCN,2024-06-10_15h14.09.604,LearnStrategy,2023.2.3,MacIntel,62.5,1,1,11,0.403797468,0.388607595,1,0,0,10.577,Peridotite_16,7,16,6,7,10.577,-0.075949367,-0.397468354,1,0,0,2.83,Pegmatite_rect,6,2.83,0,10,0,10,0,1,,,,,,,,,,,,
66646a115e9d93996c78ee02,SCN,2024-06-10_15h14.09.604,LearnStrategy,2023.2.3,MacIntel,62.5,1,1,12,0.517721519,-0.111392405,1,0,0,7.159,Pumice_08,8,08,3,8,7.159,0.440506329,-0.420253165,1,0,0,1.725,Pumice_rect,8,1.725,1,11,0,11,0,1,,,,,,,,,,,,
66646a115e9d93996c78ee02,SCN,2024-06-10_15h14.09.604,LearnStrategy,2023.2.3,MacIntel,62.5,1,1,13,-0.375949367,0.279746835,1,0,0,16.888,Pegmatite_07,6,07,5,2,16.888,-0.1,-0.398734177,1,0,0,1.507,Pegmatite_rect,6,1.507,1,12,0,12,0,1,,,,,,,,,,,,
66646a115e9d93996c78ee02,SCN,2024-06-10_15h14.09.604,LearnStrategy,2023.2.3,MacIntel,62.5,1,1,14,0.239240506,0.406329114,1,0,0,9.181,Pegmatite_13,6,13,6,6,9.181,-0.098734177,-0.410126582,1,0,0,1.614,Pegmatite_rect,6,1.614,1,13,0,13,0,1,,,,,,,,,,,,
66646a115e9d93996c78ee02,SCN,2024-06-10_15h14.09.604,LearnStrategy,2023.2.3,MacIntel,62.5,1,1,15,-0.389873418,-0.424050633,1,0,0,6.082,Basalt_10,2,10,1,2,6.082,-0.105063291,-0.230379747,1,0,0,4.603,Basalt_rect,2,4.603,1,14,0,14,0,1,,,,,,,,,,,,
66646a115e9d93996c78ee02,SCN,2024-06-10_15h14.09.604,LearnStrategy,2023.2.3,MacIntel,62.5,1,1,16,0.525316456,0.249367089,1,0,0,4.017,Andesite_05,1,05,5,8,4.017,0.440506329,-0.379746835,1,0,0,2.833,Pumice_rect,8,2.833,0,15,0,15,0,1,,,,,,,,,,,,
66646a115e9d93996c78ee02,SCN,2024-06-10_15h14.09.604,LearnStrategy,2023.2.3,MacIntel,62.5,1,2,1,,,,,,,,1,11,,,,,,,,,,,7,13.879,0,,,,,,0.206329114,-0.406329114,1,0,0,13.879,Peridotite_rect,0,0,0,0,1
66646a115e9d93996c78ee02,SCN,2024-06-10_15h14.09.604,LearnStrategy,2023.2.3,MacIntel,62.5,1,2,2,,,,,,,,6,15,,,,,,,,,,,5,2.27,0,,,,,,-0.379746835,-0.405063291,1,0,0,2.27,Obsidian_rect,1,0,1,0,1
66646a115e9d93996c78ee02,SCN,2024-06-10_15h14.09.604,LearnStrategy,2023.2.3,MacIntel,62.5,1,2,3,,,,,,,,8,05,,,,,,,,,,,7,4.389,0,,,,,,0.169620253,-0.398734177,1,0,0,4.389,Peridotite_rect,2,0,2,0,1
66646a115e9d93996c78ee02,SCN,2024-06-10_15h14.09.604,LearnStrategy,2023.2.3,MacIntel,62.5,1,2,4,,,,,,,,2,01,,,,,,,,,,,2,5.959,1,,,,,,-0.107594937,-0.250632911,1,0,0,5.959,Basalt_rect,3,0,3,0,1
66646a115e9d93996c78ee02,SCN,2024-06-10_15h14.09.604,LearnStrategy,2023.2.3,MacIntel,62.5,1,2,5,,,,,,,,3,16,,,,,,,,,,,2,8.773,0,,,,,,-0.089873418,-0.246835443,1,0,0,8.773,Basalt_rect,4,0,4,0,1
66646a115e9d93996c78ee02,SCN,2024-06-10_15h14.09.604,LearnStrategy,2023.2.3,MacIntel,62.5,1,2,6,,,,,,,,8,13,,,,,,,,,,,7,2.659,0,,,,,,0.165822785,-0.401265823,1,0,0,2.659,Peridotite_rect,5,0,5,0,1
66646a115e9d93996c78ee02,SCN,2024-06-10_15h14.09.604,LearnStrategy,2023.2.3,MacIntel,62.5,1,2,7,,,,,,,,5,14,,,,,,,,,,,5,1.142,1,,,,,,-0.348101266,-0.4,1,0,0,1.142,Obsidian_rect,6,0,6,0,1
66646a115e9d93996c78ee02,SCN,2024-06-10_15h14.09.604,LearnStrategy,2023.2.3,MacIntel,62.5,1,2,8,,,,,,,,5,09,,,,,,,,,,,5,0.924,1,,,,,,-0.375949367,-0.415189873,1,0,0,0.924,Obsidian_rect,7,0,7,0,1
66646a115e9d93996c78ee02,SCN,2024-06-10_15h14.09.604,LearnStrategy,2023.2.3,MacIntel,62.5,1,2,9,,,,,,,,3,12,,,,,,,,,,,4,4.389,0,,,,,,0.464556962,-0.248101266,1,0,0,4.389,Gabbro_rect,8,0,8,0,1
66646a115e9d93996c78ee02,SCN,2024-06-10_15h14.09.604,LearnStrategy,2023.2.3,MacIntel,62.5,1,2,10,,,,,,,,4,08,,,,,,,,,,,8,5.095,0,,,,,,0.426582278,-0.417721519,1,0,0,5.095,Pumice_rect,9,0,9,0,1
66646a115e9d93996c78ee02,SCN,2024-06-10_15h14.09.604,LearnStrategy,2023.2.3,MacIntel,62.5,1,2,11,,,,,,,,1,07,,,,,,,,,,,1,3.839,1,,,,,,-0.353164557,-0.256962025,1,0,0,3.839,Andesite_rect,10,0,10,0,1
66646a115e9d93996c78ee02,SCN,2024-06-10_15h14.09.604,LearnStrategy,2023.2.3,MacIntel,62.5,1,2,12,,,,,,,,2,16,,,,,,,,,,,7,1.587,0,,,,,,0.117721519,-0.397468354,1,0,0,1.587,Peridotite_rect,11,0,11,0,1
66646a115e9d93996c78ee02,SCN,2024-06-10_15h14.09.604,LearnStrategy,2023.2.3,MacIntel,62.5,1,2,13,,,,,,,,6,03,,,,,,,,,,,6,3.129,1,,,,,,-0.1,-0.396202532,1,0,0,3.129,Pegmatite_rect,12,0,12,0,1
66646a115e9d93996c78ee02,SCN,2024-06-10_15h14.09.604,LearnStrategy,2023.2.3,MacIntel,62.5,1,2,14,,,,,,,,7,13,,,,,,,,,,,8,5.977,0,,,,,,0.421518987,-0.382278481,1,0,0,5.977,Pumice_rect,13,0,13,0,1
66646a115e9d93996c78ee02,SCN,2024-06-10_15h14.09.604,LearnStrategy,2023.2.3,MacIntel,62.5,1,2,15,,,,,,,,7,10,,,,,,,,,,,4,3.973,0,,,,,,0.473417722,-0.253164557,1,0,0,3.973,Gabbro_rect,14,0,14,0,1
66646a115e9d93996c78ee02,SCN,2024-06-10_15h14.09.604,LearnStrategy,2023.2.3,MacIntel,62.5,1,2,16,,,,,,,,4,13,,,,,,,,,,,3,7.055,0,,,,,,0.192405063,-0.253164557,1,0,0,7.055,Diorite_rect,15,0,15,0,1
66646a115e9d93996c78ee02,SCN,2024-06-10_15h14.09.604,LearnStrategy,2023.2.3,MacIntel,62.5,2,1,1,-0.251898734,0.089873418,1,0,0,8.678,Basalt_08,2,08,4,3,8.678,-0.081012658,-0.241772152,1,0,0,50.435,Basalt_rect,2,50.435,1,0,0,0,0,1,,,,,,,,,,,,
66646a115e9d93996c78ee02,SCN,2024-06-10_15h14.09.604,LearnStrategy,2023.2.3,MacIntel,62.5,2,1,2,-0.574683544,0.103797468,1,0,0,10.636,Peridotite_06,7,06,4,1,10.636,-0.081012658,-0.398734177,1,0,0,1.72,Pegmatite_rect,6,1.72,0,1,0,1,0,1,,,,,,,,,,,,
66646a115e9d93996c78ee02,SCN,2024-06-10_15h14.09.604,LearnStrategy,2023.2.3,MacIntel,62.5,2,1,3,0.405063291,0.264556962,1,0,0,5.116,Pegmatite_09,6,09,5,7,5.116,-0.379746835,-0.408860759,1,0,0,2.089,Obsidian_rect,5,2.089,0,2,0,2,0,1,,,,,,,,,,,,
66646a115e9d93996c78ee02,SCN,2024-06-10_15h14.09.604,LearnStrategy,2023.2.3,MacIntel,62.5,2,1,4,-0.232911392,0.102531646,1,0,0,3.828,Basalt_08,2,08,4,3,3.828,-0.053164557,-0.244303797,1,0,0,6.683,Basalt_rect,2,6.683,1,3,0,3,0,1,,,,,,,,,,,,
66646a115e9d93996c78ee02,SCN,2024-06-10_15h14.09.604,LearnStrategy,2023.2.3,MacIntel,62.5,2,1,5,-0.529113924,-0.278481013,1,0,0,8.126,Diorite_10,3,10,2,1,8.126,0.37721519,-0.384810127,1,0,0,4.996,Pumice_rect,8,4.996,0,4,0,4,0,1,,,,,,,,,,,,
66646a115e9d93996c78ee02,SCN,2024-06-10_15h14.09.604,LearnStrategy,2023.2.3,MacIntel,62.5,2,1,6,0.555696203,0.416455696,1,0,0,4.778,Peridotite_08,7,08,6,8,4.778,0.184810127,-0.255696203,1,0,0,4.36,Diorite_rect,3,4.36,0,5,0,5,0,1,,,,,,,,,,,,
66646a115e9d93996c78ee02,SCN,2024-06-10_15h14.09.604,LearnStrategy,2023.2.3,MacIntel,62.5,2,1,7,0.539240506,-0.427848101,1,0,0,25.276,Andesite_14,1,14,1,8,25.276,-0.353164557,-0.24556962,1,0,0,4.734,Andesite_rect,1,4.734,1,6,0,6,0,1,,,,,,,,,,,,
66646a115e9d93996c78ee02,SCN,2024-06-10_15h14.09.604,LearnStrategy,2023.2.3,MacIntel,62.5,2,1,8,-0.215189873,0.410126582,1,0,0,6.711,Diorite_14,3,14,6,3,6.711,0.186075949,-0.240506329,1,0,0,2.056,Diorite_rect,3,2.056,1,7,0,7,0,1,,,,,,,,,,,,
66646a115e9d93996c78ee02,SCN,2024-06-10_15h14.09.604,LearnStrategy,2023.2.3,MacIntel,62.5,2,1,9,0.415189873,0.255696203,1,0,0,2.907,Pegmatite_09,6,09,5,7,2.907,-0.353164557,-0.407594937,1,0,0,4.43,Obsidian_rect,5,4.43,0,8,0,8,0,1,,,,,,,,,,,,
66646a115e9d93996c78ee02,SCN,2024-06-10_15h14.09.604,LearnStrategy,2023.2.3,MacIntel,62.5,2,1,10,0.273417722,0.24556962,1,0,0,23.839,Gabbro_03,4,03,5,6,23.839,0.436708861,-0.244303797,1,0,0,2.41,Gabbro_rect,4,2.41,1,9,0,9,0,1,,,,,,,,,,,,
66646a115e9d93996c78ee02,SCN,2024-06-10_15h14.09.604,LearnStrategy,2023.2.3,MacIntel,62.5,2,1,11,0.103797468,-0.403797468,1,0,0,18.643,Diorite_07,3,07,1,5,18.643,0.175949367,-0.251898734,1,0,0,9.987,Diorite_rect,3,9.987,1,10,0,10,0,1,,,,,,,,,,,,
66646a115e9d93996c78ee02,SCN,2024-06-10_15h14.09.604,LearnStrategy,2023.2.3,MacIntel,62.5,2,1,12,-0.046835443,0.42278481,1,0,0,21.22,Andesite_09,1,09,6,4,21.22,-0.32278481,-0.25443038,1,0,0,12.827,Andesite_rect,1,12.827,1,11,0,11,0,1,,,,,,,,,,,,
66646a115e9d93996c78ee02,SCN,2024-06-10_15h14.09.604,LearnStrategy,2023.2.3,MacIntel,62.5,2,1,13,0.24556962,0.406329114,1,0,0,23.24,Pegmatite_13,6,13,6,6,23.24,-0.105063291,-0.397468354,1,0,0,7.457,Pegmatite_rect,6,7.457,1,12,0,12,0,1,,,,,,,,,,,,
66646a115e9d93996c78ee02,SCN,2024-06-10_15h14.09.604,LearnStrategy,2023.2.3,MacIntel,62.5,2,1,14,0.416455696,0.082278481,1,0,0,9.494,Obsidian_05,5,05,4,7,9.494,-0.358227848,-0.396202532,1,0,0,1.589,Obsidian_rect,5,1.589,1,13,0,13,0,1,,,,,,,,,,,,
66646a115e9d93996c78ee02,SCN,2024-06-10_15h14.09.604,LearnStrategy,2023.2.3,MacIntel,62.5,2,1,15,0.056962025,-0.417721519,1,0,0,9.56,Diorite_07,3,07,1,5,9.56,-0.313924051,-0.248101266,1,0,0,8.884,Andesite_rect,1,8.884,0,14,0,14,0,1,,,,,,,,,,,,
66646a115e9d93996c78ee02,SCN,2024-06-10_15h14.09.604,LearnStrategy,2023.2.3,MacIntel,62.5,2,1,16,-0.567088608,0.240506329,1,0,0,7.72,Peridotite_12,7,12,5,1,7.72,-0.055696203,-0.415189873,1,0,0,6.657,Pegmatite_rect,6,6.657,0,15,0,15,0,1,,,,,,,,,,,,
66646a115e9d93996c78ee02,SCN,2024-06-10_15h14.09.604,LearnStrategy,2023.2.3,MacIntel,62.5,2,2,1,,,,,,,,1,01,,,,,,,,,,,4,33.454,0,,,,,,0.465822785,-0.229113924,1,0,0,33.454,Gabbro_rect,0,0,0,0,1
66646a115e9d93996c78ee02,SCN,2024-06-10_15h14.09.604,LearnStrategy,2023.2.3,MacIntel,62.5,2,2,2,,,,,,,,6,11,,,,,,,,,,,5,1.687,0,,,,,,-0.372151899,-0.418987342,1,0,0,1.687,Obsidian_rect,1,0,1,0,1
66646a115e9d93996c78ee02,SCN,2024-06-10_15h14.09.604,LearnStrategy,2023.2.3,MacIntel,62.5,2,2,3,,,,,,,,8,03,,,,,,,,,,,7,8.795,0,,,,,,0.189873418,-0.411392405,1,0,0,8.795,Peridotite_rect,2,0,2,0,1
66646a115e9d93996c78ee02,SCN,2024-06-10_15h14.09.604,LearnStrategy,2023.2.3,MacIntel,62.5,2,2,4,,,,,,,,5,12,,,,,,,,,,,5,1.159,1,,,,,,-0.337974684,-0.402531646,1,0,0,1.159,Obsidian_rect,3,0,3,0,1
66646a115e9d93996c78ee02,SCN,2024-06-10_15h14.09.604,LearnStrategy,2023.2.3,MacIntel,62.5,2,2,5,,,,,,,,5,11,,,,,,,,,,,5,1.404,1,,,,,,-0.364556962,-0.394936709,1,0,0,1.404,Obsidian_rect,4,0,4,0,1
66646a115e9d93996c78ee02,SCN,2024-06-10_15h14.09.604,LearnStrategy,2023.2.3,MacIntel,62.5,2,2,6,,,,,,,,1,03,,,,,,,,,,,4,19.963,0,,,,,,0.437974684,-0.246835443,1,0,0,19.963,Gabbro_rect,5,0,5,0,1
66646a115e9d93996c78ee02,SCN,2024-06-10_15h14.09.604,LearnStrategy,2023.2.3,MacIntel,62.5,2,2,7,,,,,,,,8,02,,,,,,,,,,,7,1.207,0,,,,,,0.173417722,-0.387341772,1,0,0,1.207,Peridotite_rect,6,0,6,0,1
66646a115e9d93996c78ee02,SCN,2024-06-10_15h14.09.604,LearnStrategy,2023.2.3,MacIntel,62.5,2,2,8,,,,,,,,7,14,,,,,,,,,,,7,33.103,1,,,,,,0.203797468,-0.388607595,1,0,0,33.103,Peridotite_rect,7,0,7,0,1
66646a115e9d93996c78ee02,SCN,2024-06-10_15h14.09.604,LearnStrategy,2023.2.3,MacIntel,62.5,2,2,9,,,,,,,,4,14,,,,,,,,,,,1,18.263,0,,,,,,-0.353164557,-0.265822785,1,0,0,18.263,Andesite_rect,8,0,8,0,1
66646a115e9d93996c78ee02,SCN,2024-06-10_15h14.09.604,LearnStrategy,2023.2.3,MacIntel,62.5,2,2,10,,,,,,,,3,11,,,,,,,,,,,3,6.059,1,,,,,,0.17721519,-0.230379747,1,0,0,6.059,Diorite_rect,9,0,9,0,1
66646a115e9d93996c78ee02,SCN,2024-06-10_15h14.09.604,LearnStrategy,2023.2.3,MacIntel,62.5,2,2,11,,,,,,,,3,08,,,,,,,,,,,7,2.993,0,,,,,,0.134177215,-0.386075949,1,0,0,2.993,Peridotite_rect,10,0,10,0,1
66646a115e9d93996c78ee02,SCN,2024-06-10_15h14.09.604,LearnStrategy,2023.2.3,MacIntel,62.5,2,2,12,,,,,,,,7,05,,,,,,,,,,,3,8.79,0,,,,,,0.197468354,-0.249367089,1,0,0,8.79,Diorite_rect,11,0,11,0,1
66646a115e9d93996c78ee02,SCN,2024-06-10_15h14.09.604,LearnStrategy,2023.2.3,MacIntel,62.5,2,2,13,,,,,,,,2,09,,,,,,,,,,,1,6.312,0,,,,,,-0.343037975,-0.250632911,1,0,0,6.312,Andesite_rect,12,0,12,0,1
66646a115e9d93996c78ee02,SCN,2024-06-10_15h14.09.604,LearnStrategy,2023.2.3,MacIntel,62.5,2,2,14,,,,,,,,4,12,,,,,,,,,,,1,1.224,0,,,,,,-0.35443038,-0.24556962,1,0,0,1.224,Andesite_rect,13,0,13,0,1
66646a115e9d93996c78ee02,SCN,2024-06-10_15h14.09.604,LearnStrategy,2023.2.3,MacIntel,62.5,2,2,15,,,,,,,,2,11,,,,,,,,,,,8,1.925,0,,,,,,0.389873418,-0.412658228,1,0,0,1.925,Pumice_rect,14,0,14,0,1
66646a115e9d93996c78ee02,SCN,2024-06-10_15h14.09.604,LearnStrategy,2023.2.3,MacIntel,62.5,2,2,16,,,,,,,,6,10,,,,,,,,,,,5,1.104,0,,,,,,-0.360759494,-0.392405063,1,0,0,1.104,Obsidian_rect,15,0,15,0,1
66646a115e9d93996c78ee02,SCN,2024-06-10_15h14.09.604,LearnStrategy,2023.2.3,MacIntel,62.5,3,1,1,0.401265823,-0.397468354,1,0,0,4.275,Pumice_16,8,16,1,7,4.275,0.435443038,-0.415189873,1,0,0,2.355,Pumice_rect,8,2.355,1,0,0,0,0,1,,,,,,,,,,,,
66646a115e9d93996c78ee02,SCN,2024-06-10_15h14.09.604,LearnStrategy,2023.2.3,MacIntel,62.5,3,1,2,0.23164557,-0.13164557,1,0,0,19.042,Diorite_06,3,06,3,6,19.042,0.463291139,-0.244303797,1,0,0,1.953,Gabbro_rect,4,1.953,0,1,0,1,0,1,,,,,,,,,,,,
66646a115e9d93996c78ee02,SCN,2024-06-10_15h14.09.604,LearnStrategy,2023.2.3,MacIntel,62.5,3,1,3,-0.078481013,0.260759494,1,0,0,5.192,Peridotite_04,7,04,5,4,5.192,-0.124050633,-0.412658228,1,0,0,3.989,Pegmatite_rect,6,3.989,0,2,0,2,0,1,,,,,,,,,,,,
66646a115e9d93996c78ee02,SCN,2024-06-10_15h14.09.604,LearnStrategy,2023.2.3,MacIntel,62.5,3,1,4,0.087341772,0.264556962,1,0,0,4.092,Pegmatite_16,6,16,5,5,4.092,0.162025316,-0.243037975,1,0,0,19.059,Diorite_rect,3,19.059,0,3,0,3,0,1,,,,,,,,,,,,
66646a115e9d93996c78ee02,SCN,2024-06-10_15h14.09.604,LearnStrategy,2023.2.3,MacIntel,62.5,3,1,5,0.264556962,-0.269620253,1,0,0,10.823,Pegmatite_06,6,06,2,6,10.823,0.182278481,-0.392405063,1,0,0,3.301,Peridotite_rect,7,3.301,0,4,0,4,0,1,,,,,,,,,,,,
66646a115e9d93996c78ee02,SCN,2024-06-10_15h14.09.604,LearnStrategy,2023.2.3,MacIntel,62.5,3,1,6,-0.392405063,-0.274683544,1,0,0,12.081,Peridotite_07,7,07,2,2,12.081,0.183544304,-0.251898734,1,0,0,7.928,Diorite_rect,3,7.928,0,5,0,5,0,1,,,,,,,,,,,,
66646a115e9d93996c78ee02,SCN,2024-06-10_15h14.09.604,LearnStrategy,2023.2.3,MacIntel,62.5,3,1,7,-0.374683544,0.110126582,1,0,0,13.623,Gabbro_15,4,15,4,2,13.623,-0.326582278,-0.230379747,1,0,0,5.573,Andesite_rect,1,5.573,0,6,0,6,0,1,,,,,,,,,,,,
66646a115e9d93996c78ee02,SCN,2024-06-10_15h14.09.604,LearnStrategy,2023.2.3,MacIntel,62.5,3,1,8,-0.067088608,-0.244303797,1,0,0,9.962,Andesite_04,1,04,2,4,9.962,-0.362025316,-0.243037975,1,0,0,2.981,Andesite_rect,1,2.981,1,7,0,7,0,1,,,,,,,,,,,,
66646a115e9d93996c78ee02,SCN,2024-06-10_15h14.09.604,LearnStrategy,2023.2.3,MacIntel,62.5,3,1,9,0.597468354,0.097468354,1,0,0,15.473,Andesite_10,1,10,4,8,15.473,-0.330379747,-0.229113924,1,0,0,3.137,Andesite_rect,1,3.137,1,8,0,8,0,1,,,,,,,,,,,,
66646a115e9d93996c78ee02,SCN,2024-06-10_15h14.09.604,LearnStrategy,2023.2.3,MacIntel,62.5,3,1,10,-0.513924051,0.083544304,1,0,0,16.586,Peridotite_06,7,06,4,1,16.586,-0.073417722,-0.410126582,1,0,0,7.477,Pegmatite_rect,6,7.477,0,9,0,9,0,1,,,,,,,,,,,,
66646a115e9d93996c78ee02,SCN,2024-06-10_15h14.09.604,LearnStrategy,2023.2.3,MacIntel,62.5,3,1,11,0.440506329,0.415189873,1,0,0,22.208,Peridotite_16,7,16,6,7,22.208,0.144303797,-0.421518987,1,0,0,11.704,Peridotite_rect,7,11.704,1,10,0,10,0,1,,,,,,,,,,,,
66646a115e9d93996c78ee02,SCN,2024-06-10_15h14.09.604,LearnStrategy,2023.2.3,MacIntel,62.5,3,1,12,0.246835443,0.091139241,1,0,0,15.358,Basalt_02,2,02,4,6,15.358,-0.374683544,-0.267088608,1,0,0,3.016,Andesite_rect,1,3.016,0,11,0,11,0,1,,,,,,,,,,,,
66646a115e9d93996c78ee02,SCN,2024-06-10_15h14.09.604,LearnStrategy,2023.2.3,MacIntel,62.5,3,1,13,0.078481013,-0.13164557,1,0,0,20.965,Basalt_05,2,05,3,5,20.965,-0.096202532,-0.241772152,1,0,0,2.014,Basalt_rect,2,2.014,1,12,0,12,0,1,,,,,,,,,,,,
66646a115e9d93996c78ee02,SCN,2024-06-10_15h14.09.604,LearnStrategy,2023.2.3,MacIntel,62.5,3,1,14,-0.363291139,-0.427848101,1,0,0,7.834,Basalt_10,2,10,1,2,7.834,-0.074683544,-0.258227848,1,0,0,6.587,Basalt_rect,2,6.587,1,13,0,13,0,1,,,,,,,,,,,,
66646a115e9d93996c78ee02,SCN,2024-06-10_15h14.09.604,LearnStrategy,2023.2.3,MacIntel,62.5,3,1,15,-0.246835443,-0.420253165,1,0,0,12.341,Diorite_13,3,13,1,3,12.341,0.124050633,-0.412658228,1,0,0,5.409,Peridotite_rect,7,5.409,0,14,0,14,0,1,,,,,,,,,,,,
66646a115e9d93996c78ee02,SCN,2024-06-10_15h14.09.604,LearnStrategy,2023.2.3,MacIntel,62.5,3,1,16,0.570886076,0.441772152,1,0,0,12.457,Peridotite_08,7,08,6,8,12.457,0.198734177,-0.387341772,1,0,0,4.717,Peridotite_rect,7,4.717,1,15,0,15,0,1,,,,,,,,,,,,
66646a115e9d93996c78ee02,SCN,2024-06-10_15h14.09.604,LearnStrategy,2023.2.3,MacIntel,62.5,3,2,1,,,,,,,,5,06,,,,,,,,,,,5,1.77,1,,,,,,-0.362025316,-0.394936709,1,0,0,1.77,Obsidian_rect,0,0,0,0,1
66646a115e9d93996c78ee02,SCN,2024-06-10_15h14.09.604,LearnStrategy,2023.2.3,MacIntel,62.5,3,2,2,,,,,,,,2,04,,,,,,,,,,,2,2.872,1,,,,,,-0.060759494,-0.248101266,1,0,0,2.872,Basalt_rect,1,0,1,0,1
66646a115e9d93996c78ee02,SCN,2024-06-10_15h14.09.604,LearnStrategy,2023.2.3,MacIntel,62.5,3,2,3,,,,,,,,1,02,,,,,,,,,,,1,6.84,1,,,,,,-0.334177215,-0.234177215,1,0,0,6.84,Andesite_rect,2,0,2,0,1
66646a115e9d93996c78ee02,SCN,2024-06-10_15h14.09.604,LearnStrategy,2023.2.3,MacIntel,62.5,3,2,4,,,,,,,,4,01,,,,,,,,,,,3,14.927,0,,,,,,0.172151899,-0.251898734,1,0,0,14.927,Diorite_rect,3,0,3,0,1
66646a115e9d93996c78ee02,SCN,2024-06-10_15h14.09.604,LearnStrategy,2023.2.3,MacIntel,62.5,3,2,5,,,,,,,,3,15,,,,,,,,,,,3,2.71,1,,,,,,0.143037975,-0.263291139,1,0,0,2.71,Diorite_rect,4,0,4,0,1
66646a115e9d93996c78ee02,SCN,2024-06-10_15h14.09.604,LearnStrategy,2023.2.3,MacIntel,62.5,3,2,6,,,,,,,,5,02,,,,,,,,,,,5,0.972,1,,,,,,-0.360759494,-0.382278481,1,0,0,0.972,Obsidian_rect,5,0,5,0,1
66646a115e9d93996c78ee02,SCN,2024-06-10_15h14.09.604,LearnStrategy,2023.2.3,MacIntel,62.5,3,2,7,,,,,,,,6,05,,,,,,,,,,,7,2.972,0,,,,,,0.178481013,-0.410126582,1,0,0,2.972,Peridotite_rect,6,0,6,0,1
66646a115e9d93996c78ee02,SCN,2024-06-10_15h14.09.604,LearnStrategy,2023.2.3,MacIntel,62.5,3,2,8,,,,,,,,1,16,,,,,,,,,,,3,13.997,0,,,,,,0.139240506,-0.267088608,1,0,0,13.997,Diorite_rect,7,0,7,0,1
66646a115e9d93996c78ee02,SCN,2024-06-10_15h14.09.604,LearnStrategy,2023.2.3,MacIntel,62.5,3,2,9,,,,,,,,8,04,,,,,,,,,,,8,1.271,1,,,,,,0.388607595,-0.417721519,1,0,0,1.271,Pumice_rect,8,0,8,0,1
66646a115e9d93996c78ee02,SCN,2024-06-10_15h14.09.604,LearnStrategy,2023.2.3,MacIntel,62.5,3,2,10,,,,,,,,2,06,,,,,,,,,,,2,5.443,1,,,,,,-0.096202532,-0.251898734,1,0,0,5.443,Basalt_rect,9,0,9,0,1
66646a115e9d93996c78ee02,SCN,2024-06-10_15h14.09.604,LearnStrategy,2023.2.3,MacIntel,62.5,3,2,11,,,,,,,,8,14,,,,,,,,,,,8,1.354,1,,,,,,0.425316456,-0.388607595,1,0,0,1.354,Pumice_rect,10,0,10,0,1
66646a115e9d93996c78ee02,SCN,2024-06-10_15h14.09.604,LearnStrategy,2023.2.3,MacIntel,62.5,3,2,12,,,,,,,,4,11,,,,,,,,,,,1,12.382,0,,,,,,-0.329113924,-0.237974684,1,0,0,12.382,Andesite_rect,11,0,11,0,1
66646a115e9d93996c78ee02,SCN,2024-06-10_15h14.09.604,LearnStrategy,2023.2.3,MacIntel,62.5,3,2,13,,,,,,,,7,15,,,,,,,,,,,7,3.804,1,,,,,,0.167088608,-0.403797468,1,0,0,3.804,Peridotite_rect,12,0,12,0,1
66646a115e9d93996c78ee02,SCN,2024-06-10_15h14.09.604,LearnStrategy,2023.2.3,MacIntel,62.5,3,2,14,,,,,,,,6,12,,,,,,,,,,,6,3.876,1,,,,,,-0.086075949,-0.394936709,1,0,0,3.876,Pegmatite_rect,13,0,13,0,1
66646a115e9d93996c78ee02,SCN,2024-06-10_15h14.09.604,LearnStrategy,2023.2.3,MacIntel,62.5,3,2,15,,,,,,,,7,02,,,,,,,,,,,7,3.242,1,,,,,,0.17721519,-0.397468354,1,0,0,3.242,Peridotite_rect,14,0,14,0,1
66646a115e9d93996c78ee02,SCN,2024-06-10_15h14.09.604,LearnStrategy,2023.2.3,MacIntel,62.5,3,2,16,,,,,,,,3,02,,,,,,,,,,,3,5.527,1,,,,,,0.16835443,-0.251898734,1,0,0,5.527,Diorite_rect,15,0,15,0,1
66646a115e9d93996c78ee02,SCN,2024-06-10_15h14.09.604,LearnStrategy,2023.2.3,MacIntel,62.5,4,1,1,0.413924051,-0.256962025,1,0,0,17.47,Basalt_14,2,14,2,7,17.47,0.462025316,-0.4,1,0,0,4.067,Pumice_rect,8,4.067,0,0,0,0,0,1,,,,,,,,,,,,
66646a115e9d93996c78ee02,SCN,2024-06-10_15h14.09.604,LearnStrategy,2023.2.3,MacIntel,62.5,4,1,2,0.097468354,0.060759494,1,0,0,9.013,Gabbro_10,4,10,4,5,9.013,0.443037975,-0.25443038,1,0,0,5.961,Gabbro_rect,4,5.961,1,1,0,1,0,1,,,,,,,,,,,,
66646a115e9d93996c78ee02,SCN,2024-06-10_15h14.09.604,LearnStrategy,2023.2.3,MacIntel,62.5,4,1,3,-0.512658228,-0.097468354,1,0,0,16.221,Gabbro_05,4,05,3,1,16.221,0.425316456,-0.236708861,1,0,0,18.938,Gabbro_rect,4,18.938,1,2,0,2,0,1,,,,,,,,,,,,
66646a115e9d93996c78ee02,SCN,2024-06-10_15h14.09.604,LearnStrategy,2023.2.3,MacIntel,62.5,4,1,4,-0.073417722,0.388607595,1,0,0,33.597,Andesite_09,1,09,6,4,33.597,-0.356962025,-0.249367089,1,0,0,3.873,Andesite_rect,1,3.873,1,3,0,3,0,1,,,,,,,,,,,,
66646a115e9d93996c78ee02,SCN,2024-06-10_15h14.09.604,LearnStrategy,2023.2.3,MacIntel,62.5,4,1,5,-0.387341772,0.412658228,1,0,0,9.98,Andesite_06,1,06,6,2,9.98,0.472151899,-0.253164557,1,0,0,9.179,Gabbro_rect,4,9.179,0,4,0,4,0,1,,,,,,,,,,,,
66646a115e9d93996c78ee02,SCN,2024-06-10_15h14.09.604,LearnStrategy,2023.2.3,MacIntel,62.5,4,1,6,-0.392405063,0.274683544,1,0,0,4.788,Pegmatite_07,6,07,5,2,4.788,-0.087341772,-0.412658228,1,0,0,10.29,Pegmatite_rect,6,10.29,1,5,0,5,0,1,,,,,,,,,,,,
66646a115e9d93996c78ee02,SCN,2024-06-10_15h14.09.604,LearnStrategy,2023.2.3,MacIntel,62.5,4,1,7,-0.064556962,-0.432911392,1,0,0,16.329,Pegmatite_08,6,08,1,4,16.329,-0.382278481,-0.413924051,1,0,0,4.56,Obsidian_rect,5,4.56,0,6,0,6,0,1,,,,,,,,,,,,
66646a115e9d93996c78ee02,SCN,2024-06-10_15h14.09.604,LearnStrategy,2023.2.3,MacIntel,62.5,4,1,8,0.235443038,-0.387341772,1,0,0,12.719,Gabbro_09,4,09,1,6,12.719,0.425316456,-0.260759494,1,0,0,3.539,Gabbro_rect,4,3.539,1,7,0,7,0,1,,,,,,,,,,,,
66646a115e9d93996c78ee02,SCN,2024-06-10_15h14.09.604,LearnStrategy,2023.2.3,MacIntel,62.5,4,1,9,-0.070886076,-0.26835443,1,0,0,24.586,Andesite_04,1,04,2,4,24.586,0.146835443,-0.249367089,1,0,0,20.737,Diorite_rect,3,20.737,0,8,0,8,0,1,,,,,,,,,,,,
66646a115e9d93996c78ee02,SCN,2024-06-10_15h14.09.604,LearnStrategy,2023.2.3,MacIntel,62.5,4,1,10,-0.383544304,-0.275949367,1,0,0,15.717,Peridotite_07,7,07,2,2,15.717,0.149367089,-0.406329114,1,0,0,8.994,Peridotite_rect,7,8.994,1,9,0,9,0,1,,,,,,,,,,,,
66646a115e9d93996c78ee02,SCN,2024-06-10_15h14.09.604,LearnStrategy,2023.2.3,MacIntel,62.5,4,1,11,0.581012658,-0.105063291,1,0,0,8.337,Pumice_08,8,08,3,8,8.337,0.489873418,-0.421518987,1,0,0,0.822,Pumice_rect,8,0.822,1,10,0,10,0,1,,,,,,,,,,,,
66646a115e9d93996c78ee02,SCN,2024-06-10_15h14.09.604,LearnStrategy,2023.2.3,MacIntel,62.5,4,1,12,-0.515189873,0.248101266,1,0,0,8.451,Peridotite_12,7,12,5,1,8.451,0.124050633,-0.406329114,1,0,0,3.919,Peridotite_rect,7,3.919,1,11,0,11,0,1,,,,,,,,,,,,
66646a115e9d93996c78ee02,SCN,2024-06-10_15h14.09.604,LearnStrategy,2023.2.3,MacIntel,62.5,4,1,13,-0.115189873,-0.096202532,1,0,0,15.337,Gabbro_16,4,16,3,4,15.337,-0.067088608,-0.253164557,1,0,0,4.355,Basalt_rect,2,4.355,0,12,0,12,0,1,,,,,,,,,,,,
66646a115e9d93996c78ee02,SCN,2024-06-10_15h14.09.604,LearnStrategy,2023.2.3,MacIntel,62.5,4,1,14,-0.551898734,0.392405063,1,0,0,18.397,Obsidian_08,5,08,6,1,18.397,-0.353164557,-0.393670886,1,0,0,1.014,Obsidian_rect,5,1.014,1,13,0,13,0,1,,,,,,,,,,,,
66646a115e9d93996c78ee02,SCN,2024-06-10_15h14.09.604,LearnStrategy,2023.2.3,MacIntel,62.5,4,1,15,0.539240506,0.097468354,1,0,0,17.247,Andesite_10,1,10,4,8,17.247,-0.330379747,-0.248101266,1,0,0,5.356,Andesite_rect,1,5.356,1,14,0,14,0,1,,,,,,,,,,,,
66646a115e9d93996c78ee02,SCN,2024-06-10_15h14.09.604,LearnStrategy,2023.2.3,MacIntel,62.5,4,1,16,0.117721519,-0.081012658,1,0,0,3.745,Basalt_05,2,05,3,5,3.745,-0.088607595,-0.229113924,1,0,0,3.883,Basalt_rect,2,3.883,1,15,0,15,0,1,,,,,,,,,,,,
66646a115e9d93996c78ee02,SCN,2024-06-10_15h14.09.604,LearnStrategy,2023.2.3,MacIntel,62.5,4,2,1,,,,,,,,6,05,,,,,,,,,,,6,8.64,1,,,,,,-0.118987342,-0.388607595,1,0,0,8.64,Pegmatite_rect,0,0,0,0,1
66646a115e9d93996c78ee02,SCN,2024-06-10_15h14.09.604,LearnStrategy,2023.2.3,MacIntel,62.5,4,2,2,,,,,,,,1,02,,,,,,,,,,,1,17.746,1,,,,,,-0.356962025,-0.259493671,1,0,0,17.746,Andesite_rect,1,0,1,0,1
66646a115e9d93996c78ee02,SCN,2024-06-10_15h14.09.604,LearnStrategy,2023.2.3,MacIntel,62.5,4,2,3,,,,,,,,2,04,,,,,,,,,,,2,11.66,1,,,,,,-0.092405063,-0.239240506,1,0,0,11.66,Basalt_rect,2,0,2,0,1
66646a115e9d93996c78ee02,SCN,2024-06-10_15h14.09.604,LearnStrategy,2023.2.3,MacIntel,62.5,4,2,4,,,,,,,,1,16,,,,,,,,,,,1,9.945,1,,,,,,-0.42278481,-0.260759494,1,0,0,9.945,Andesite_rect,3,0,3,0,1
66646a115e9d93996c78ee02,SCN,2024-06-10_15h14.09.604,LearnStrategy,2023.2.3,MacIntel,62.5,4,2,5,,,,,,,,4,14,,,,,,,,,,,4,16.609,1,,,,,,0.416455696,-0.248101266,1,0,0,16.609,Gabbro_rect,4,0,4,0,1
66646a115e9d93996c78ee02,SCN,2024-06-10_15h14.09.604,LearnStrategy,2023.2.3,MacIntel,62.5,4,2,6,,,,,,,,3,02,,,,,,,,,,,7,8.456,0,,,,,,0.102531646,-0.405063291,1,0,0,8.456,Peridotite_rect,5,0,5,0,1
66646a115e9d93996c78ee02,SCN,2024-06-10_15h14.09.604,LearnStrategy,2023.2.3,MacIntel,62.5,4,2,7,,,,,,,,4,01,,,,,,,,,,,1,8.243,0,,,,,,-0.350632911,-0.256962025,1,0,0,8.243,Andesite_rect,6,0,6,0,1
66646a115e9d93996c78ee02,SCN,2024-06-10_15h14.09.604,LearnStrategy,2023.2.3,MacIntel,62.5,4,2,8,,,,,,,,3,15,,,,,,,,,,,3,13.407,1,,,,,,0.14556962,-0.264556962,1,0,0,13.407,Diorite_rect,7,0,7,0,1
66646a115e9d93996c78ee02,SCN,2024-06-10_15h14.09.604,LearnStrategy,2023.2.3,MacIntel,62.5,4,2,9,,,,,,,,2,11,,,,,,,,,,,8,2.425,0,,,,,,0.407594937,-0.379746835,1,0,0,2.425,Pumice_rect,8,0,8,0,1
66646a115e9d93996c78ee02,SCN,2024-06-10_15h14.09.604,LearnStrategy,2023.2.3,MacIntel,62.5,4,2,10,,,,,,,,7,15,,,,,,,,,,,7,18.33,1,,,,,,0.167088608,-0.386075949,1,0,0,18.33,Peridotite_rect,9,0,9,0,1
66646a115e9d93996c78ee02,SCN,2024-06-10_15h14.09.604,LearnStrategy,2023.2.3,MacIntel,62.5,4,2,11,,,,,,,,7,05,,,,,,,,,,,7,3.421,1,,,,,,0.173417722,-0.391139241,1,0,0,3.421,Peridotite_rect,10,0,10,0,1
66646a115e9d93996c78ee02,SCN,2024-06-10_15h14.09.604,LearnStrategy,2023.2.3,MacIntel,62.5,4,2,12,,,,,,,,5,11,,,,,,,,,,,5,1.691,1,,,,,,-0.348101266,-0.401265823,1,0,0,1.691,Obsidian_rect,11,0,11,0,1
66646a115e9d93996c78ee02,SCN,2024-06-10_15h14.09.604,LearnStrategy,2023.2.3,MacIntel,62.5,4,2,13,,,,,,,,8,05,,,,,,,,,,,8,1.076,1,,,,,,0.420253165,-0.415189873,1,0,0,1.076,Pumice_rect,12,0,12,0,1
66646a115e9d93996c78ee02,SCN,2024-06-10_15h14.09.604,LearnStrategy,2023.2.3,MacIntel,62.5,4,2,14,,,,,,,,5,12,,,,,,,,,,,5,0.904,1,,,,,,-0.365822785,-0.411392405,1,0,0,0.904,Obsidian_rect,13,0,13,0,1
66646a115e9d93996c78ee02,SCN,2024-06-10_15h14.09.604,LearnStrategy,2023.2.3,MacIntel,62.5,4,2,15,,,,,,,,8,04,,,,,,,,,,,8,0.671,1,,,,,,0.416455696,-0.413924051,1,0,0,0.671,Pumice_rect,14,0,14,0,1
66646a115e9d93996c78ee02,SCN,2024-06-10_15h14.09.604,LearnStrategy,2023.2.3,MacIntel,62.5,4,2,16,,,,,,,,6,03,,,,,,,,,,,6,2.205,1,,,,,,-0.108860759,-0.411392405,1,0,0,2.205,Pegmatite_rect,15,0,15,0,1
66646a115e9d93996c78ee02,SCN,2024-06-10_15h14.09.604,LearnStrategy,2023.2.3,MacIntel,62.5,5,1,1,-0.54556962,0.424050633,1,0,0,12.231,Obsidian_08,5,08,6,1,12.231,-0.358227848,-0.382278481,1,0,0,0.699,Obsidian_rect,5,0.699,1,0,0,0,0,1,,,,,,,,,,,,
66646a115e9d93996c78ee02,SCN,2024-06-10_15h14.09.604,LearnStrategy,2023.2.3,MacIntel,62.5,5,1,2,-0.411392405,0.4,1,0,0,0.626,Andesite_06,1,06,6,2,0.626,-0.36835443,-0.236708861,1,0,0,3.432,Andesite_rect,1,3.432,1,1,0,1,0,1,,,,,,,,,,,,
66646a115e9d93996c78ee02,SCN,2024-06-10_15h14.09.604,LearnStrategy,2023.2.3,MacIntel,62.5,5,1,3,-0.232911392,0.394936709,1,0,0,1.141,Diorite_14,3,14,6,3,1.141,-0.072151899,-0.402531646,1,0,0,2.997,Pegmatite_rect,6,2.997,0,2,0,2,0,1,,,,,,,,,,,,
66646a115e9d93996c78ee02,SCN,2024-06-10_15h14.09.604,LearnStrategy,2023.2.3,MacIntel,62.5,5,1,4,-0.103797468,0.386075949,1,0,0,0.869,Andesite_09,1,09,6,4,0.869,-0.346835443,-0.243037975,1,0,0,6.872,Andesite_rect,1,6.872,1,3,0,3,0,1,,,,,,,,,,,,
66646a115e9d93996c78ee02,SCN,2024-06-10_15h14.09.604,LearnStrategy,2023.2.3,MacIntel,62.5,5,1,5,0.069620253,0.402531646,1,0,0,0.699,Pumice_10,8,10,6,5,0.699,0.437974684,-0.407594937,1,0,0,2.389,Pumice_rect,8,2.389,1,4,0,4,0,1,,,,,,,,,,,,
66646a115e9d93996c78ee02,SCN,2024-06-10_15h14.09.604,LearnStrategy,2023.2.3,MacIntel,62.5,5,1,6,0.241772152,0.403797468,1,0,0,0.568,Pegmatite_13,6,13,6,6,0.568,-0.070886076,-0.389873418,1,0,0,1.099,Pegmatite_rect,6,1.099,1,5,0,5,0,1,,,,,,,,,,,,
66646a115e9d93996c78ee02,SCN,2024-06-10_15h14.09.604,LearnStrategy,2023.2.3,MacIntel,62.5,5,1,7,0.394936709,0.378481013,1,0,0,0.582,Peridotite_16,7,16,6,7,0.582,0.113924051,-0.420253165,1,0,0,1.726,Peridotite_rect,7,1.726,1,6,0,6,0,1,,,,,,,,,,,,
66646a115e9d93996c78ee02,SCN,2024-06-10_15h14.09.604,LearnStrategy,2023.2.3,MacIntel,62.5,5,1,8,0.541772152,0.389873418,1,0,0,0.584,Peridotite_08,7,08,6,8,0.584,0.169620253,-0.396202532,1,0,0,1.367,Peridotite_rect,7,1.367,1,7,0,7,0,1,,,,,,,,,,,,
66646a115e9d93996c78ee02,SCN,2024-06-10_15h14.09.604,LearnStrategy,2023.2.3,MacIntel,62.5,5,1,9,-0.559493671,0.253164557,1,0,0,0.656,Peridotite_12,7,12,5,1,0.656,0.129113924,-0.406329114,1,0,0,1.465,Peridotite_rect,7,1.465,1,8,0,8,0,1,,,,,,,,,,,,
66646a115e9d93996c78ee02,SCN,2024-06-10_15h14.09.604,LearnStrategy,2023.2.3,MacIntel,62.5,5,1,10,-0.401265823,0.229113924,1,0,0,0.732,Pegmatite_07,6,07,5,2,0.732,-0.108860759,-0.405063291,1,0,0,2.064,Pegmatite_rect,6,2.064,1,9,0,9,0,1,,,,,,,,,,,,
66646a115e9d93996c78ee02,SCN,2024-06-10_15h14.09.604,LearnStrategy,2023.2.3,MacIntel,62.5,5,1,11,-0.230379747,0.256962025,1,0,0,0.651,Obsidian_16,5,16,5,3,0.651,-0.381012658,-0.388607595,1,0,0,0.726,Obsidian_rect,5,0.726,1,10,0,10,0,1,,,,,,,,,,,,
66646a115e9d93996c78ee02,SCN,2024-06-10_15h14.09.604,LearnStrategy,2023.2.3,MacIntel,62.5,5,1,12,-0.062025316,0.25443038,1,0,0,2.151,Peridotite_04,7,04,5,4,2.151,-0.107594937,-0.396202532,1,0,0,1.326,Pegmatite_rect,6,1.326,0,11,0,11,0,1,,,,,,,,,,,,
66646a115e9d93996c78ee02,SCN,2024-06-10_15h14.09.604,LearnStrategy,2023.2.3,MacIntel,62.5,5,1,13,0.07721519,0.260759494,1,0,0,0.613,Pegmatite_16,6,16,5,5,0.613,-0.126582278,-0.398734177,1,0,0,6.79,Pegmatite_rect,6,6.79,1,12,0,12,0,1,,,,,,,,,,,,
66646a115e9d93996c78ee02,SCN,2024-06-10_15h14.09.604,LearnStrategy,2023.2.3,MacIntel,62.5,5,1,14,0.24556962,0.246835443,1,0,0,0.6,Gabbro_03,4,03,5,6,0.6,0.43164557,-0.265822785,1,0,0,6.506,Gabbro_rect,4,6.506,1,13,0,13,0,1,,,,,,,,,,,,
66646a115e9d93996c78ee02,SCN,2024-06-10_15h14.09.604,LearnStrategy,2023.2.3,MacIntel,62.5,5,1,15,0.384810127,0.25443038,1,0,0,0.857,Pegmatite_09,6,09,5,7,0.857,-0.105063291,-0.415189873,1,0,0,1.959,Pegmatite_rect,6,1.959,1,14,0,14,0,1,,,,,,,,,,,,
66646a115e9d93996c78ee02,SCN,2024-06-10_15h14.09.604,LearnStrategy,2023.2.3,MacIntel,62.5,5,1,16,0.546835443,0.248101266,1,0,0,0.965,Andesite_05,1,05,5,8,0.965,-0.340506329,-0.24556962,1,0,0,14.46,Andesite_rect,1,14.46,1,15,0,15,0,1,,,,,,,,,,,,
66646a115e9d93996c78ee02,SCN,2024-06-10_15h14.09.604,LearnStrategy,2023.2.3,MacIntel,62.5,5,2,1,,,,,,,,5,14,,,,,,,,,,,5,1.084,1,,,,,,-0.375949367,-0.398734177,1,0,0,1.084,Obsidian_rect,0,0,0,0,1
66646a115e9d93996c78ee02,SCN,2024-06-10_15h14.09.604,LearnStrategy,2023.2.3,MacIntel,62.5,5,2,2,,,,,,,,3,08,,,,,,,,,,,3,5.938,1,,,,,,0.160759494,-0.243037975,1,0,0,5.938,Diorite_rect,1,0,1,0,1
66646a115e9d93996c78ee02,SCN,2024-06-10_15h14.09.604,LearnStrategy,2023.2.3,MacIntel,62.5,5,2,3,,,,,,,,4,12,,,,,,,,,,,1,3.926,0,,,,,,-0.34556962,-0.263291139,1,0,0,3.926,Andesite_rect,2,0,2,0,1
66646a115e9d93996c78ee02,SCN,2024-06-10_15h14.09.604,LearnStrategy,2023.2.3,MacIntel,62.5,5,2,4,,,,,,,,8,03,,,,,,,,,,,8,1.072,1,,,,,,0.410126582,-0.388607595,1,0,0,1.072,Pumice_rect,3,0,3,0,1
66646a115e9d93996c78ee02,SCN,2024-06-10_15h14.09.604,LearnStrategy,2023.2.3,MacIntel,62.5,5,2,5,,,,,,,,6,10,,,,,,,,,,,6,17.698,1,,,,,,-0.101265823,-0.407594937,1,0,0,17.698,Pegmatite_rect,4,0,4,0,1
66646a115e9d93996c78ee02,SCN,2024-06-10_15h14.09.604,LearnStrategy,2023.2.3,MacIntel,62.5,5,2,6,,,,,,,,4,13,,,,,,,,,,,4,4.893,1,,,,,,0.420253165,-0.234177215,1,0,0,4.893,Gabbro_rect,5,0,5,0,1
66646a115e9d93996c78ee02,SCN,2024-06-10_15h14.09.604,LearnStrategy,2023.2.3,MacIntel,62.5,5,2,7,,,,,,,,1,11,,,,,,,,,,,2,5.744,0,,,,,,-0.091139241,-0.248101266,1,0,0,5.744,Basalt_rect,6,0,6,0,1
66646a115e9d93996c78ee02,SCN,2024-06-10_15h14.09.604,LearnStrategy,2023.2.3,MacIntel,62.5,5,2,8,,,,,,,,8,02,,,,,,,,,,,8,0.908,1,,,,,,0.430379747,-0.381012658,1,0,0,0.908,Pumice_rect,7,0,7,0,1
66646a115e9d93996c78ee02,SCN,2024-06-10_15h14.09.604,LearnStrategy,2023.2.3,MacIntel,62.5,5,2,9,,,,,,,,5,09,,,,,,,,,,,5,1.587,1,,,,,,-0.346835443,-0.405063291,1,0,0,1.587,Obsidian_rect,8,0,8,0,1
66646a115e9d93996c78ee02,SCN,2024-06-10_15h14.09.604,LearnStrategy,2023.2.3,MacIntel,62.5,5,2,10,,,,,,,,7,14,,,,,,,,,,,4,19.666,0,,,,,,0.405063291,-0.265822785,1,0,0,19.666,Gabbro_rect,9,0,9,0,1
66646a115e9d93996c78ee02,SCN,2024-06-10_15h14.09.604,LearnStrategy,2023.2.3,MacIntel,62.5,5,2,11,,,,,,,,7,02,,,,,,,,,,,7,2.305,1,,,,,,0.124050633,-0.394936709,1,0,0,2.305,Peridotite_rect,10,0,10,0,1
66646a115e9d93996c78ee02,SCN,2024-06-10_15h14.09.604,LearnStrategy,2023.2.3,MacIntel,62.5,5,2,12,,,,,,,,1,03,,,,,,,,,,,2,24.303,0,,,,,,-0.094936709,-0.241772152,1,0,0,24.303,Basalt_rect,11,0,11,0,1
66646a115e9d93996c78ee02,SCN,2024-06-10_15h14.09.604,LearnStrategy,2023.2.3,MacIntel,62.5,5,2,13,,,,,,,,2,01,,,,,,,,,,,2,1.655,1,,,,,,-0.110126582,-0.249367089,1,0,0,1.655,Basalt_rect,12,0,12,0,1
66646a115e9d93996c78ee02,SCN,2024-06-10_15h14.09.604,LearnStrategy,2023.2.3,MacIntel,62.5,5,2,14,,,,,,,,3,11,,,,,,,,,,,1,5.076,0,,,,,,-0.387341772,-0.239240506,1,0,0,5.076,Andesite_rect,13,0,13,0,1
66646a115e9d93996c78ee02,SCN,2024-06-10_15h14.09.604,LearnStrategy,2023.2.3,MacIntel,62.5,5,2,15,,,,,,,,6,15,,,,,,,,,,,6,1.491,1,,,,,,-0.151898734,-0.394936709,1,0,0,1.491,Pegmatite_rect,14,0,14,0,1
66646a115e9d93996c78ee02,SCN,2024-06-10_15h14.09.604,LearnStrategy,2023.2.3,MacIntel,62.5,5,2,16,,,,,,,,2,09,,,,,,,,,,,2,7.789,1,,,,,,-0.079746835,-0.256962025,1,0,0,7.789,Basalt_rect,15,0,15,0,1
66646a115e9d93996c78ee02,SCN,2024-06-10_15h14.09.604,LearnStrategy,2023.2.3,MacIntel,62.5,6,1,1,0.559493671,-0.413924051,1,0,0,0.741,Andesite_14,1,14,1,8,0.741,-0.358227848,-0.243037975,1,0,0,5.156,Andesite_rect,1,5.156,1,0,0,0,0,1,,,,,,,,,,,,
66646a115e9d93996c78ee02,SCN,2024-06-10_15h14.09.604,LearnStrategy,2023.2.3,MacIntel,62.5,6,1,2,0.389873418,-0.412658228,1,0,0,0.943,Pumice_16,8,16,1,7,0.943,0.415189873,-0.394936709,1,0,0,0.587,Pumice_rect,8,0.587,1,1,0,1,0,1,,,,,,,,,,,,
66646a115e9d93996c78ee02,SCN,2024-06-10_15h14.09.604,LearnStrategy,2023.2.3,MacIntel,62.5,6,1,3,0.236708861,-0.417721519,1,0,0,0.669,Gabbro_09,4,09,1,6,0.669,0.449367089,-0.269620253,1,0,0,26.032,Gabbro_rect,4,26.032,1,2,0,2,0,1,,,,,,,,,,,,
66646a115e9d93996c78ee02,SCN,2024-06-10_15h14.09.604,LearnStrategy,2023.2.3,MacIntel,62.5,6,1,4,-0.401265823,0.201265823,1,0,0,5.479,Pegmatite_07,6,07,5,2,5.479,-0.103797468,-0.408860759,1,0,0,2.459,Pegmatite_rect,6,2.459,1,3,0,3,0,1,,,,,,,,,,,,
66646a115e9d93996c78ee02,SCN,2024-06-10_15h14.09.604,LearnStrategy,2023.2.3,MacIntel,62.5,6,1,5,-0.343037975,-0.143037975,1,0,0,4.38,Pumice_06,8,06,3,2,4.38,0.446835443,-0.403797468,1,0,0,1.391,Pumice_rect,8,1.391,1,4,0,4,0,1,,,,,,,,,,,,
66646a115e9d93996c78ee02,SCN,2024-06-10_15h14.09.604,LearnStrategy,2023.2.3,MacIntel,62.5,6,1,6,-0.388607595,-0.273417722,1,0,0,1.144,Peridotite_07,7,07,2,2,1.144,0.174683544,-0.405063291,1,0,0,1.192,Peridotite_rect,7,1.192,1,5,0,5,0,1,,,,,,,,,,,,
66646a115e9d93996c78ee02,SCN,2024-06-10_15h14.09.604,LearnStrategy,2023.2.3,MacIntel,62.5,6,1,7,-0.52278481,-0.283544304,1,0,0,1.286,Diorite_10,3,10,2,1,1.286,0.186075949,-0.264556962,1,0,0,13.122,Diorite_rect,3,13.122,1,6,0,6,0,1,,,,,,,,,,,,
66646a115e9d93996c78ee02,SCN,2024-06-10_15h14.09.604,LearnStrategy,2023.2.3,MacIntel,62.5,6,1,8,-0.532911392,0.117721519,1,0,0,3.3,Peridotite_06,7,06,4,1,3.3,0.163291139,-0.387341772,1,0,0,1.821,Peridotite_rect,7,1.821,1,7,0,7,0,1,,,,,,,,,,,,
66646a115e9d93996c78ee02,SCN,2024-06-10_15h14.09.604,LearnStrategy,2023.2.3,MacIntel,62.5,6,1,9,0.539240506,0.070886076,1,0,0,1.85,Andesite_10,1,10,4,8,1.85,-0.337974684,-0.25443038,1,0,0,7.14,Andesite_rect,1,7.14,1,8,0,8,0,1,,,,,,,,,,,,
66646a115e9d93996c78ee02,SCN,2024-06-10_15h14.09.604,LearnStrategy,2023.2.3,MacIntel,62.5,6,1,10,0.101265823,0.103797468,1,0,0,1.311,Gabbro_10,4,10,4,5,1.311,0.201265823,-0.264556962,1,0,0,2.714,Diorite_rect,3,2.714,0,9,0,9,0,1,,,,,,,,,,,,
66646a115e9d93996c78ee02,SCN,2024-06-10_15h14.09.604,LearnStrategy,2023.2.3,MacIntel,62.5,6,1,11,-0.510126582,0.23164557,1,0,0,2.246,Peridotite_12,7,12,5,1,2.246,0.149367089,-0.411392405,1,0,0,1.057,Peridotite_rect,7,1.057,1,10,0,10,0,1,,,,,,,,,,,,
66646a115e9d93996c78ee02,SCN,2024-06-10_15h14.09.604,LearnStrategy,2023.2.3,MacIntel,62.5,6,1,12,0.543037975,0.406329114,1,0,0,1.736,Peridotite_08,7,08,6,8,1.736,0.141772152,-0.389873418,1,0,0,1.155,Peridotite_rect,7,1.155,1,11,0,11,0,1,,,,,,,,,,,,
66646a115e9d93996c78ee02,SCN,2024-06-10_15h14.09.604,LearnStrategy,2023.2.3,MacIntel,62.5,6,1,13,-0.378481013,-0.418987342,1,0,0,1.324,Basalt_10,2,10,1,2,1.324,-0.06835443,-0.262025316,1,0,0,3.227,Basalt_rect,2,3.227,1,12,0,12,0,1,,,,,,,,,,,,
66646a115e9d93996c78ee02,SCN,2024-06-10_15h14.09.604,LearnStrategy,2023.2.3,MacIntel,62.5,6,1,14,-0.041772152,-0.301265823,1,0,0,4.596,Andesite_04,1,04,2,4,4.596,-0.344303797,-0.259493671,1,0,0,13.346,Andesite_rect,1,13.346,1,13,0,13,0,1,,,,,,,,,,,,
66646a115e9d93996c78ee02,SCN,2024-06-10_15h14.09.604,LearnStrategy,2023.2.3,MacIntel,62.5,6,1,15,-0.210126582,0.411392405,1,0,0,3.815,Diorite_14,3,14,6,3,3.815,-0.408860759,-0.24556962,1,0,0,3.541,Andesite_rect,1,3.541,0,14,0,14,0,1,,,,,,,,,,,,
66646a115e9d93996c78ee02,SCN,2024-06-10_15h14.09.604,LearnStrategy,2023.2.3,MacIntel,62.5,6,1,16,-0.389873418,0.396202532,1,0,0,1.02,Andesite_06,1,06,6,2,1.02,-0.4,-0.239240506,1,0,0,1.539,Andesite_rect,1,1.539,1,15,0,15,0,1,,,,,,,,,,,,
66646a115e9d93996c78ee02,SCN,2024-06-10_15h14.09.604,LearnStrategy,2023.2.3,MacIntel,62.5,6,2,1,,,,,,,,3,16,,,,,,,,,,,3,2.141,1,,,,,,0.110126582,-0.248101266,1,0,0,2.141,Diorite_rect,0,0,0,0,1
66646a115e9d93996c78ee02,SCN,2024-06-10_15h14.09.604,LearnStrategy,2023.2.3,MacIntel,62.5,6,2,2,,,,,,,,6,12,,,,,,,,,,,6,1.537,1,,,,,,-0.094936709,-0.393670886,1,0,0,1.537,Pegmatite_rect,1,0,1,0,1
66646a115e9d93996c78ee02,SCN,2024-06-10_15h14.09.604,LearnStrategy,2023.2.3,MacIntel,62.5,6,2,3,,,,,,,,1,07,,,,,,,,,,,1,6.26,1,,,,,,-0.36835443,-0.249367089,1,0,0,6.26,Andesite_rect,2,0,2,0,1
66646a115e9d93996c78ee02,SCN,2024-06-10_15h14.09.604,LearnStrategy,2023.2.3,MacIntel,62.5,6,2,4,,,,,,,,3,12,,,,,,,,,,,3,27.235,1,,,,,,0.201265823,-0.234177215,1,0,0,27.235,Diorite_rect,3,0,3,0,1
66646a115e9d93996c78ee02,SCN,2024-06-10_15h14.09.604,LearnStrategy,2023.2.3,MacIntel,62.5,6,2,5,,,,,,,,4,11,,,,,,,,,,,2,1.859,0,,,,,,-0.108860759,-0.235443038,1,0,0,1.859,Basalt_rect,4,0,4,0,1
66646a115e9d93996c78ee02,SCN,2024-06-10_15h14.09.604,LearnStrategy,2023.2.3,MacIntel,62.5,6,2,6,,,,,,,,8,13,,,,,,,,,,,8,1.97,1,,,,,,0.446835443,-0.402531646,1,0,0,1.97,Pumice_rect,5,0,5,0,1
66646a115e9d93996c78ee02,SCN,2024-06-10_15h14.09.604,LearnStrategy,2023.2.3,MacIntel,62.5,6,2,7,,,,,,,,8,14,,,,,,,,,,,8,0.621,1,,,,,,0.456962025,-0.413924051,1,0,0,0.621,Pumice_rect,6,0,6,0,1
66646a115e9d93996c78ee02,SCN,2024-06-10_15h14.09.604,LearnStrategy,2023.2.3,MacIntel,62.5,6,2,8,,,,,,,,1,01,,,,,,,,,,,4,11.529,0,,,,,,0.440506329,-0.248101266,1,0,0,11.529,Gabbro_rect,7,0,7,0,1
66646a115e9d93996c78ee02,SCN,2024-06-10_15h14.09.604,LearnStrategy,2023.2.3,MacIntel,62.5,6,2,9,,,,,,,,4,08,,,,,,,,,,,3,9.545,0,,,,,,0.148101266,-0.24556962,1,0,0,9.545,Diorite_rect,8,0,8,0,1
66646a115e9d93996c78ee02,SCN,2024-06-10_15h14.09.604,LearnStrategy,2023.2.3,MacIntel,62.5,6,2,10,,,,,,,,7,13,,,,,,,,,,,7,2.375,1,,,,,,0.121518987,-0.421518987,1,0,0,2.375,Peridotite_rect,9,0,9,0,1
66646a115e9d93996c78ee02,SCN,2024-06-10_15h14.09.604,LearnStrategy,2023.2.3,MacIntel,62.5,6,2,11,,,,,,,,5,06,,,,,,,,,,,5,1.12,1,,,,,,-0.379746835,-0.411392405,1,0,0,1.12,Obsidian_rect,10,0,10,0,1
66646a115e9d93996c78ee02,SCN,2024-06-10_15h14.09.604,LearnStrategy,2023.2.3,MacIntel,62.5,6,2,12,,,,,,,,6,11,,,,,,,,,,,6,1.187,1,,,,,,-0.139240506,-0.416455696,1,0,0,1.187,Pegmatite_rect,11,0,11,0,1
66646a115e9d93996c78ee02,SCN,2024-06-10_15h14.09.604,LearnStrategy,2023.2.3,MacIntel,62.5,6,2,13,,,,,,,,2,16,,,,,,,,,,,2,9.479,1,,,,,,-0.102531646,-0.244303797,1,0,0,9.479,Basalt_rect,12,0,12,0,1
66646a115e9d93996c78ee02,SCN,2024-06-10_15h14.09.604,LearnStrategy,2023.2.3,MacIntel,62.5,6,2,14,,,,,,,,5,02,,,,,,,,,,,5,1.621,1,,,,,,-0.358227848,-0.397468354,1,0,0,1.621,Obsidian_rect,13,0,13,0,1
66646a115e9d93996c78ee02,SCN,2024-06-10_15h14.09.604,LearnStrategy,2023.2.3,MacIntel,62.5,6,2,15,,,,,,,,7,10,,,,,,,,,,,7,1.337,1,,,,,,0.186075949,-0.393670886,1,0,0,1.337,Peridotite_rect,14,0,14,0,1
66646a115e9d93996c78ee02,SCN,2024-06-10_15h14.09.604,LearnStrategy,2023.2.3,MacIntel,62.5,6,2,16,,,,,,,,2,06,,,,,,,,,,,2,7.31,1,,,,,,-0.049367089,-0.235443038,1,0,0,7.31,Basalt_rect,15,0,15,0,1
66646a115e9d93996c78ee02,SCN,2024-06-10_15h14.09.604,LearnStrategy,2023.2.3,MacIntel,62.5,7,1,1,-0.37721519,-0.101265823,1,0,0,2.076,Pumice_06,8,06,3,2,2.076,0.446835443,-0.411392405,1,0,0,0.803,Pumice_rect,8,0.803,1,0,0,0,0,1,,,,,,,,,,,,
66646a115e9d93996c78ee02,SCN,2024-06-10_15h14.09.604,LearnStrategy,2023.2.3,MacIntel,62.5,7,1,2,0.058227848,0.074683544,1,0,0,0.932,Gabbro_10,4,10,4,5,0.932,0.453164557,-0.253164557,1,0,0,1.838,Gabbro_rect,4,1.838,1,1,0,1,0,1,,,,,,,,,,,,
66646a115e9d93996c78ee02,SCN,2024-06-10_15h14.09.604,LearnStrategy,2023.2.3,MacIntel,62.5,7,1,3,-0.540506329,0.240506329,1,0,0,2.936,Peridotite_12,7,12,5,1,2.936,0.150632911,-0.393670886,1,0,0,1.033,Peridotite_rect,7,1.033,1,2,0,2,0,1,,,,,,,,,,,,
66646a115e9d93996c78ee02,SCN,2024-06-10_15h14.09.604,LearnStrategy,2023.2.3,MacIntel,62.5,7,1,4,-0.548101266,-0.415189873,1,0,0,1.553,Basalt_12,2,12,1,1,1.553,0.359493671,-0.407594937,1,0,0,1.521,Pumice_rect,8,1.521,0,3,0,3,0,1,,,,,,,,,,,,
66646a115e9d93996c78ee02,SCN,2024-06-10_15h14.09.604,LearnStrategy,2023.2.3,MacIntel,62.5,7,1,5,0.070886076,0.25443038,1,0,0,2.109,Pegmatite_16,6,16,5,5,2.109,-0.121518987,-0.384810127,1,0,0,0.951,Pegmatite_rect,6,0.951,1,4,0,4,0,1,,,,,,,,,,,,
66646a115e9d93996c78ee02,SCN,2024-06-10_15h14.09.604,LearnStrategy,2023.2.3,MacIntel,62.5,7,1,6,0.550632911,0.232911392,1,0,0,1.869,Andesite_05,1,05,5,8,1.869,0.435443038,-0.249367089,1,0,0,5.068,Gabbro_rect,4,5.068,0,5,0,5,0,1,,,,,,,,,,,,
66646a115e9d93996c78ee02,SCN,2024-06-10_15h14.09.604,LearnStrategy,2023.2.3,MacIntel,62.5,7,1,7,-0.224050633,0.084810127,1,0,0,1.883,Basalt_08,2,08,4,3,1.883,-0.094936709,-0.237974684,1,0,0,1.358,Basalt_rect,2,1.358,1,6,0,6,0,1,,,,,,,,,,,,
66646a115e9d93996c78ee02,SCN,2024-06-10_15h14.09.604,LearnStrategy,2023.2.3,MacIntel,62.5,7,1,8,0.073417722,-0.108860759,1,0,0,1.561,Basalt_05,2,05,3,5,1.561,-0.046835443,-0.234177215,1,0,0,0.625,Basalt_rect,2,0.625,1,7,0,7,0,1,,,,,,,,,,,,
66646a115e9d93996c78ee02,SCN,2024-06-10_15h14.09.604,LearnStrategy,2023.2.3,MacIntel,62.5,7,1,9,0.394936709,-0.263291139,1,0,0,1.238,Basalt_14,2,14,2,7,1.238,0.402531646,-0.260759494,1,0,0,3.159,Gabbro_rect,4,3.159,0,8,0,8,0,1,,,,,,,,,,,,
66646a115e9d93996c78ee02,SCN,2024-06-10_15h14.09.604,LearnStrategy,2023.2.3,MacIntel,62.5,7,1,10,-0.518987342,0.079746835,1,0,0,0.926,Peridotite_06,7,06,4,1,0.926,0.118987342,-0.403797468,1,0,0,0.926,Peridotite_rect,7,0.926,1,9,0,9,0,1,,,,,,,,,,,,
66646a115e9d93996c78ee02,SCN,2024-06-10_15h14.09.604,LearnStrategy,2023.2.3,MacIntel,62.5,7,1,11,-0.555696203,-0.284810127,1,0,0,1.067,Diorite_10,3,10,2,1,1.067,0.202531646,-0.230379747,1,0,0,9.061,Diorite_rect,3,9.061,1,10,0,10,0,1,,,,,,,,,,,,
66646a115e9d93996c78ee02,SCN,2024-06-10_15h14.09.604,LearnStrategy,2023.2.3,MacIntel,62.5,7,1,12,0.260759494,0.084810127,1,0,0,5.105,Basalt_02,2,02,4,6,5.105,-0.379746835,-0.248101266,1,0,0,1.154,Andesite_rect,1,1.154,0,11,0,11,0,1,,,,,,,,,,,,
66646a115e9d93996c78ee02,SCN,2024-06-10_15h14.09.604,LearnStrategy,2023.2.3,MacIntel,62.5,7,1,13,-0.249367089,0.403797468,1,0,0,2.357,Diorite_14,3,14,6,3,2.357,0.093670886,-0.264556962,1,0,0,2.858,Diorite_rect,3,2.858,1,12,0,12,0,1,,,,,,,,,,,,
66646a115e9d93996c78ee02,SCN,2024-06-10_15h14.09.604,LearnStrategy,2023.2.3,MacIntel,62.5,7,1,14,0.565822785,-0.407594937,1,0,0,4.405,Andesite_14,1,14,1,8,4.405,0.184810127,-0.237974684,1,0,0,3.022,Diorite_rect,3,3.022,0,13,0,13,0,1,,,,,,,,,,,,
66646a115e9d93996c78ee02,SCN,2024-06-10_15h14.09.604,LearnStrategy,2023.2.3,MacIntel,62.5,7,1,15,-0.069620253,-0.097468354,1,0,0,1.774,Gabbro_16,4,16,3,4,1.774,-0.063291139,-0.269620253,1,0,0,1.043,Basalt_rect,2,1.043,0,14,0,14,0,1,,,,,,,,,,,,
66646a115e9d93996c78ee02,SCN,2024-06-10_15h14.09.604,LearnStrategy,2023.2.3,MacIntel,62.5,7,1,16,0.220253165,-0.132911392,1,0,0,1.046,Diorite_06,3,06,3,6,1.046,-0.407594937,-0.262025316,1,0,0,1.757,Andesite_rect,1,1.757,0,15,0,15,0,1,,,,,,,,,,,,
66646a115e9d93996c78ee02,SCN,2024-06-10_15h14.09.604,LearnStrategy,2023.2.3,MacIntel,62.5,7,2,1,,,,,,,,1,07,,,,,,,,,,,3,19.789,0,,,,,,0.197468354,-0.250632911,1,0,0,19.789,Diorite_rect,0,0,0,0,1
66646a115e9d93996c78ee02,SCN,2024-06-10_15h14.09.604,LearnStrategy,2023.2.3,MacIntel,62.5,7,2,2,,,,,,,,1,01,,,,,,,,,,,4,18.843,0,,,,,,0.418987342,-0.253164557,1,0,0,18.843,Gabbro_rect,1,0,1,0,1
66646a115e9d93996c78ee02,SCN,2024-06-10_15h14.09.604,LearnStrategy,2023.2.3,MacIntel,62.5,7,2,3,,,,,,,,3,11,,,,,,,,,,,3,21.628,1,,,,,,0.121518987,-0.244303797,1,0,0,21.628,Diorite_rect,2,0,2,0,1
66646a115e9d93996c78ee02,SCN,2024-06-10_15h14.09.604,LearnStrategy,2023.2.3,MacIntel,62.5,7,2,4,,,,,,,,4,14,,,,,,,,,,,2,5.377,0,,,,,,-0.087341772,-0.248101266,1,0,0,5.377,Basalt_rect,3,0,3,0,1
66646a115e9d93996c78ee02,SCN,2024-06-10_15h14.09.604,LearnStrategy,2023.2.3,MacIntel,62.5,7,2,5,,,,,,,,3,15,,,,,,,,,,,3,4.025,1,,,,,,0.151898734,-0.249367089,1,0,0,4.025,Diorite_rect,4,0,4,0,1
66646a115e9d93996c78ee02,SCN,2024-06-10_15h14.09.604,LearnStrategy,2023.2.3,MacIntel,62.5,7,2,6,,,,,,,,8,03,,,,,,,,,,,8,1.324,1,,,,,,0.456962025,-0.406329114,1,0,0,1.324,Pumice_rect,5,0,5,0,1
66646a115e9d93996c78ee02,SCN,2024-06-10_15h14.09.604,LearnStrategy,2023.2.3,MacIntel,62.5,7,2,7,,,,,,,,2,01,,,,,,,,,,,2,2.275,1,,,,,,-0.055696203,-0.267088608,1,0,0,2.275,Basalt_rect,6,0,6,0,1
66646a115e9d93996c78ee02,SCN,2024-06-10_15h14.09.604,LearnStrategy,2023.2.3,MacIntel,62.5,7,2,8,,,,,,,,7,02,,,,,,,,,,,7,2.454,1,,,,,,0.169620253,-0.418987342,1,0,0,2.454,Peridotite_rect,7,0,7,0,1
66646a115e9d93996c78ee02,SCN,2024-06-10_15h14.09.604,LearnStrategy,2023.2.3,MacIntel,62.5,7,2,9,,,,,,,,6,10,,,,,,,,,,,6,6.528,1,,,,,,-0.074683544,-0.413924051,1,0,0,6.528,Pegmatite_rect,8,0,8,0,1
66646a115e9d93996c78ee02,SCN,2024-06-10_15h14.09.604,LearnStrategy,2023.2.3,MacIntel,62.5,7,2,10,,,,,,,,5,06,,,,,,,,,,,5,1.257,1,,,,,,-0.330379747,-0.402531646,1,0,0,1.257,Obsidian_rect,9,0,9,0,1
66646a115e9d93996c78ee02,SCN,2024-06-10_15h14.09.604,LearnStrategy,2023.2.3,MacIntel,62.5,7,2,11,,,,,,,,5,09,,,,,,,,,,,5,0.841,1,,,,,,-0.343037975,-0.396202532,1,0,0,0.841,Obsidian_rect,10,0,10,0,1
66646a115e9d93996c78ee02,SCN,2024-06-10_15h14.09.604,LearnStrategy,2023.2.3,MacIntel,62.5,7,2,12,,,,,,,,7,13,,,,,,,,,,,7,1.478,1,,,,,,0.155696203,-0.397468354,1,0,0,1.478,Peridotite_rect,11,0,11,0,1
66646a115e9d93996c78ee02,SCN,2024-06-10_15h14.09.604,LearnStrategy,2023.2.3,MacIntel,62.5,7,2,13,,,,,,,,4,08,,,,,,,,,,,1,21.8,0,,,,,,-0.313924051,-0.232911392,1,0,0,21.8,Andesite_rect,12,0,12,0,1
66646a115e9d93996c78ee02,SCN,2024-06-10_15h14.09.604,LearnStrategy,2023.2.3,MacIntel,62.5,7,2,14,,,,,,,,2,11,,,,,,,,,,,1,8.289,0,,,,,,-0.350632911,-0.25443038,1,0,0,8.289,Andesite_rect,13,0,13,0,1
66646a115e9d93996c78ee02,SCN,2024-06-10_15h14.09.604,LearnStrategy,2023.2.3,MacIntel,62.5,7,2,15,,,,,,,,8,13,,,,,,,,,,,8,4.221,1,,,,,,0.416455696,-0.410126582,1,0,0,4.221,Pumice_rect,14,0,14,0,1
66646a115e9d93996c78ee02,SCN,2024-06-10_15h14.09.604,LearnStrategy,2023.2.3,MacIntel,62.5,7,2,16,,,,,,,,6,15,,,,,,,,,,,6,1.088,1,,,,,,-0.082278481,-0.410126582,1,0,0,1.088,Pegmatite_rect,15,0,15,0,1
66646a115e9d93996c78ee02,SCN,2024-06-10_15h14.09.604,LearnStrategy,2023.2.3,MacIntel,62.5,8,1,1,-0.079746835,-0.112658228,1,0,0,3.473,Gabbro_16,4,16,3,4,3.473,-0.079746835,-0.25443038,1,0,0,1.258,Basalt_rect,2,1.258,0,0,0,0,0,1,,,,,,,,,,,,
66646a115e9d93996c78ee02,SCN,2024-06-10_15h14.09.604,LearnStrategy,2023.2.3,MacIntel,62.5,8,1,2,0.216455696,0.051898734,1,0,0,2.834,Basalt_02,2,02,4,6,2.834,-0.37721519,-0.260759494,1,0,0,1.683,Andesite_rect,1,1.683,0,1,0,1,0,1,,,,,,,,,,,,
66646a115e9d93996c78ee02,SCN,2024-06-10_15h14.09.604,LearnStrategy,2023.2.3,MacIntel,62.5,8,1,3,0.394936709,0.083544304,1,0,0,1.45,Obsidian_05,5,05,4,7,1.45,-0.367088608,-0.416455696,1,0,0,1.234,Obsidian_rect,5,1.234,1,2,0,2,0,1,,,,,,,,,,,,
66646a115e9d93996c78ee02,SCN,2024-06-10_15h14.09.604,LearnStrategy,2023.2.3,MacIntel,62.5,8,1,4,-0.062025316,0.236708861,1,0,0,1.866,Peridotite_04,7,04,5,4,1.866,-0.084810127,-0.415189873,1,0,0,2.558,Pegmatite_rect,6,2.558,0,3,0,3,0,1,,,,,,,,,,,,
66646a115e9d93996c78ee02,SCN,2024-06-10_15h14.09.604,LearnStrategy,2023.2.3,MacIntel,62.5,8,1,5,0.396202532,0.387341772,1,0,0,1.382,Peridotite_16,7,16,6,7,1.382,0.182278481,-0.418987342,1,0,0,1.093,Peridotite_rect,7,1.093,1,4,0,4,0,1,,,,,,,,,,,,
66646a115e9d93996c78ee02,SCN,2024-06-10_15h14.09.604,LearnStrategy,2023.2.3,MacIntel,62.5,8,1,6,0.553164557,0.424050633,1,0,0,0.666,Peridotite_08,7,08,6,8,0.666,0.191139241,-0.413924051,1,0,0,1.905,Peridotite_rect,7,1.905,1,5,0,5,0,1,,,,,,,,,,,,
66646a115e9d93996c78ee02,SCN,2024-06-10_15h14.09.604,LearnStrategy,2023.2.3,MacIntel,62.5,8,1,7,-0.073417722,0.43164557,1,0,0,0.959,Andesite_09,1,09,6,4,0.959,-0.353164557,-0.249367089,1,0,0,1.7,Andesite_rect,1,1.7,1,6,0,6,0,1,,,,,,,,,,,,
66646a115e9d93996c78ee02,SCN,2024-06-10_15h14.09.604,LearnStrategy,2023.2.3,MacIntel,62.5,8,1,8,-0.225316456,-0.405063291,1,0,0,1.809,Diorite_13,3,13,1,3,1.809,0.143037975,-0.249367089,1,0,0,9.72,Diorite_rect,3,9.72,1,7,0,7,0,1,,,,,,,,,,,,
66646a115e9d93996c78ee02,SCN,2024-06-10_15h14.09.604,LearnStrategy,2023.2.3,MacIntel,62.5,8,1,9,-0.237974684,-0.297468354,1,0,0,1.502,Obsidian_10,5,10,2,3,1.502,-0.325316456,-0.392405063,1,0,0,0.799,Obsidian_rect,5,0.799,1,8,0,8,0,1,,,,,,,,,,,,
66646a115e9d93996c78ee02,SCN,2024-06-10_15h14.09.604,LearnStrategy,2023.2.3,MacIntel,62.5,8,1,10,-0.507594937,-0.370886076,1,0,0,0.99,Basalt_12,2,12,1,1,0.99,0.15443038,-0.249367089,1,0,0,7.885,Diorite_rect,3,7.885,0,9,0,9,0,1,,,,,,,,,,,,
66646a115e9d93996c78ee02,SCN,2024-06-10_15h14.09.604,LearnStrategy,2023.2.3,MacIntel,62.5,8,1,11,-0.510126582,0.092405063,1,0,0,0.966,Peridotite_06,7,06,4,1,0.966,0.098734177,-0.402531646,1,0,0,0.771,Peridotite_rect,7,0.771,1,10,0,10,0,1,,,,,,,,,,,,
66646a115e9d93996c78ee02,SCN,2024-06-10_15h14.09.604,LearnStrategy,2023.2.3,MacIntel,62.5,8,1,12,0.575949367,0.073417722,1,0,0,0.8,Andesite_10,1,10,4,8,0.8,-0.335443038,-0.236708861,1,0,0,1.383,Andesite_rect,1,1.383,1,11,0,11,0,1,,,,,,,,,,,,
66646a115e9d93996c78ee02,SCN,2024-06-10_15h14.09.604,LearnStrategy,2023.2.3,MacIntel,62.5,8,1,13,0.265822785,-0.287341772,1,0,0,2.974,Pegmatite_06,6,06,2,6,2.974,-0.088607595,-0.412658228,1,0,0,1.464,Pegmatite_rect,6,1.464,1,12,0,12,0,1,,,,,,,,,,,,
66646a115e9d93996c78ee02,SCN,2024-06-10_15h14.09.604,LearnStrategy,2023.2.3,MacIntel,62.5,8,1,14,-0.37721519,0.391139241,1,0,0,2.994,Andesite_06,1,06,6,2,2.994,-0.324050633,-0.248101266,1,0,0,1.613,Andesite_rect,1,1.613,1,13,0,13,0,1,,,,,,,,,,,,
66646a115e9d93996c78ee02,SCN,2024-06-10_15h14.09.604,LearnStrategy,2023.2.3,MacIntel,62.5,8,1,15,-0.051898734,0.429113924,1,0,0,2.672,Andesite_09,1,09,6,4,2.672,-0.373417722,-0.244303797,1,0,0,7.203,Andesite_rect,1,7.203,1,14,0,14,0,1,,,,,,,,,,,,
66646a115e9d93996c78ee02,SCN,2024-06-10_15h14.09.604,LearnStrategy,2023.2.3,MacIntel,62.5,8,1,16,0.094936709,-0.111392405,1,0,0,1.077,Basalt_05,2,05,3,5,1.077,-0.075949367,-0.243037975,1,0,0,0.664,Basalt_rect,2,0.664,1,15,0,15,0,1,,,,,,,,,,,,
66646a115e9d93996c78ee02,SCN,2024-06-10_15h14.09.604,LearnStrategy,2023.2.3,MacIntel,62.5,8,2,1,,,,,,,,7,15,,,,,,,,,,,7,0.974,1,,,,,,0.146835443,-0.379746835,1,0,0,0.974,Peridotite_rect,0,0,0,0,1
66646a115e9d93996c78ee02,SCN,2024-06-10_15h14.09.604,LearnStrategy,2023.2.3,MacIntel,62.5,8,2,2,,,,,,,,2,16,,,,,,,,,,,2,8.661,1,,,,,,-0.096202532,-0.264556962,1,0,0,8.661,Basalt_rect,1,0,1,0,1
66646a115e9d93996c78ee02,SCN,2024-06-10_15h14.09.604,LearnStrategy,2023.2.3,MacIntel,62.5,8,2,3,,,,,,,,5,14,,,,,,,,,,,5,1.021,1,,,,,,-0.36835443,-0.415189873,1,0,0,1.021,Obsidian_rect,2,0,2,0,1
66646a115e9d93996c78ee02,SCN,2024-06-10_15h14.09.604,LearnStrategy,2023.2.3,MacIntel,62.5,8,2,4,,,,,,,,6,11,,,,,,,,,,,6,1.07,1,,,,,,-0.091139241,-0.391139241,1,0,0,1.07,Pegmatite_rect,3,0,3,0,1
66646a115e9d93996c78ee02,SCN,2024-06-10_15h14.09.604,LearnStrategy,2023.2.3,MacIntel,62.5,8,2,5,,,,,,,,1,03,,,,,,,,,,,1,3.805,1,,,,,,-0.358227848,-0.263291139,1,0,0,3.805,Andesite_rect,4,0,4,0,1
66646a115e9d93996c78ee02,SCN,2024-06-10_15h14.09.604,LearnStrategy,2023.2.3,MacIntel,62.5,8,2,6,,,,,,,,3,08,,,,,,,,,,,3,15.864,1,,,,,,0.183544304,-0.248101266,1,0,0,15.864,Diorite_rect,5,0,5,0,1
66646a115e9d93996c78ee02,SCN,2024-06-10_15h14.09.604,LearnStrategy,2023.2.3,MacIntel,62.5,8,2,7,,,,,,,,2,06,,,,,,,,,,,2,11.757,1,,,,,,-0.053164557,-0.258227848,1,0,0,11.757,Basalt_rect,6,0,6,0,1
66646a115e9d93996c78ee02,SCN,2024-06-10_15h14.09.604,LearnStrategy,2023.2.3,MacIntel,62.5,8,2,8,,,,,,,,6,05,,,,,,,,,,,6,3.704,1,,,,,,-0.108860759,-0.403797468,1,0,0,3.704,Pegmatite_rect,7,0,7,0,1
66646a115e9d93996c78ee02,SCN,2024-06-10_15h14.09.604,LearnStrategy,2023.2.3,MacIntel,62.5,8,2,9,,,,,,,,1,16,,,,,,,,,,,1,22.366,1,,,,,,-0.34556962,-0.255696203,1,0,0,22.366,Andesite_rect,8,0,8,0,1
66646a115e9d93996c78ee02,SCN,2024-06-10_15h14.09.604,LearnStrategy,2023.2.3,MacIntel,62.5,8,2,10,,,,,,,,4,13,,,,,,,,,,,4,6.026,1,,,,,,0.407594937,-0.25443038,1,0,0,6.026,Gabbro_rect,9,0,9,0,1
66646a115e9d93996c78ee02,SCN,2024-06-10_15h14.09.604,LearnStrategy,2023.2.3,MacIntel,62.5,8,2,11,,,,,,,,8,05,,,,,,,,,,,8,0.824,1,,,,,,0.397468354,-0.412658228,1,0,0,0.824,Pumice_rect,10,0,10,0,1
66646a115e9d93996c78ee02,SCN,2024-06-10_15h14.09.604,LearnStrategy,2023.2.3,MacIntel,62.5,8,2,12,,,,,,,,3,02,,,,,,,,,,,3,11.708,1,,,,,,0.174683544,-0.244303797,1,0,0,11.708,Diorite_rect,11,0,11,0,1
66646a115e9d93996c78ee02,SCN,2024-06-10_15h14.09.604,LearnStrategy,2023.2.3,MacIntel,62.5,8,2,13,,,,,,,,8,04,,,,,,,,,,,8,1.004,1,,,,,,0.434177215,-0.4,1,0,0,1.004,Pumice_rect,12,0,12,0,1
66646a115e9d93996c78ee02,SCN,2024-06-10_15h14.09.604,LearnStrategy,2023.2.3,MacIntel,62.5,8,2,14,,,,,,,,5,11,,,,,,,,,,,5,0.887,1,,,,,,-0.360759494,-0.412658228,1,0,0,0.887,Obsidian_rect,13,0,13,0,1
66646a115e9d93996c78ee02,SCN,2024-06-10_15h14.09.604,LearnStrategy,2023.2.3,MacIntel,62.5,8,2,15,,,,,,,,7,10,,,,,,,,,,,7,0.907,1,,,,,,0.139240506,-0.411392405,1,0,0,0.907,Peridotite_rect,14,0,14,0,1
66646a115e9d93996c78ee02,SCN,2024-06-10_15h14.09.604,LearnStrategy,2023.2.3,MacIntel,62.5,8,2,16,,,,,,,,4,11,,,,,,,,,,,1,3.086,0,,,,,,-0.324050633,-0.253164557,1,0,0,3.086,Andesite_rect,15,0,15,0,1
66646a115e9d93996c78ee02,SCN,2024-06-10_15h14.09.604,LearnStrategy,2023.2.3,MacIntel,62.5,9,1,1,0.272151899,-0.115189873,1,0,0,3.183,Diorite_06,3,06,3,6,3.183,0.160759494,-0.260759494,1,0,0,18.867,Diorite_rect,3,18.867,1,0,0,0,0,1,,,,,,,,,,,,
66646a115e9d93996c78ee02,SCN,2024-06-10_15h14.09.604,LearnStrategy,2023.2.3,MacIntel,62.5,9,1,2,-0.22278481,0.062025316,1,0,0,2.066,Basalt_08,2,08,4,3,2.066,-0.094936709,-0.248101266,1,0,0,0.772,Basalt_rect,2,0.772,1,1,0,1,0,1,,,,,,,,,,,,
66646a115e9d93996c78ee02,SCN,2024-06-10_15h14.09.604,LearnStrategy,2023.2.3,MacIntel,62.5,9,1,3,-0.362025316,-0.256962025,1,0,0,1.522,Peridotite_07,7,07,2,2,1.522,0.106329114,-0.389873418,1,0,0,2.132,Peridotite_rect,7,2.132,1,2,0,2,0,1,,,,,,,,,,,,
66646a115e9d93996c78ee02,SCN,2024-06-10_15h14.09.604,LearnStrategy,2023.2.3,MacIntel,62.5,9,1,4,0.583544304,0.24556962,1,0,0,3.024,Andesite_05,1,05,5,8,3.024,-0.386075949,-0.270886076,1,0,0,1.823,Andesite_rect,1,1.823,1,3,0,3,0,1,,,,,,,,,,,,
66646a115e9d93996c78ee02,SCN,2024-06-10_15h14.09.604,LearnStrategy,2023.2.3,MacIntel,62.5,9,1,5,0.570886076,0.42278481,1,0,0,1.112,Peridotite_08,7,08,6,8,1.112,0.173417722,-0.4,1,0,0,1.691,Peridotite_rect,7,1.691,1,4,0,4,0,1,,,,,,,,,,,,
66646a115e9d93996c78ee02,SCN,2024-06-10_15h14.09.604,LearnStrategy,2023.2.3,MacIntel,62.5,9,1,6,-0.374683544,0.079746835,1,0,0,1.4,Gabbro_15,4,15,4,2,1.4,0.127848101,-0.258227848,1,0,0,2.7,Diorite_rect,3,2.7,0,5,0,5,0,1,,,,,,,,,,,,
66646a115e9d93996c78ee02,SCN,2024-06-10_15h14.09.604,LearnStrategy,2023.2.3,MacIntel,62.5,9,1,7,-0.392405063,-0.396202532,1,0,0,9.903,Basalt_10,2,10,1,2,9.903,-0.101265823,-0.255696203,1,0,0,6.068,Basalt_rect,2,6.068,1,6,0,6,0,1,,,,,,,,,,,,
66646a115e9d93996c78ee02,SCN,2024-06-10_15h14.09.604,LearnStrategy,2023.2.3,MacIntel,62.5,9,1,8,-0.530379747,-0.102531646,1,0,0,0.771,Gabbro_05,4,05,3,1,0.771,0.34556962,-0.253164557,1,0,0,4.134,Gabbro_rect,4,4.134,1,7,0,7,0,1,,,,,,,,,,,,
66646a115e9d93996c78ee02,SCN,2024-06-10_15h14.09.604,LearnStrategy,2023.2.3,MacIntel,62.5,9,1,9,-0.54556962,-0.282278481,1,0,0,1.531,Diorite_10,3,10,2,1,1.531,-0.362025316,-0.234177215,1,0,0,3.036,Andesite_rect,1,3.036,0,8,0,8,0,1,,,,,,,,,,,,
66646a115e9d93996c78ee02,SCN,2024-06-10_15h14.09.604,LearnStrategy,2023.2.3,MacIntel,62.5,9,1,10,-0.386075949,-0.115189873,1,0,0,1.111,Pumice_06,8,06,3,2,1.111,0.396202532,-0.412658228,1,0,0,0.813,Pumice_rect,8,0.813,1,9,0,9,0,1,,,,,,,,,,,,
66646a115e9d93996c78ee02,SCN,2024-06-10_15h14.09.604,LearnStrategy,2023.2.3,MacIntel,62.5,9,1,11,0.243037975,-0.120253165,1,0,0,1.456,Diorite_06,3,06,3,6,1.456,0.160759494,-0.267088608,1,0,0,14.954,Diorite_rect,3,14.954,1,10,0,10,0,1,,,,,,,,,,,,
66646a115e9d93996c78ee02,SCN,2024-06-10_15h14.09.604,LearnStrategy,2023.2.3,MacIntel,62.5,9,1,12,0.52278481,0.405063291,1,0,0,20.219,Peridotite_08,7,08,6,8,20.219,0.151898734,-0.403797468,1,0,0,1.224,Peridotite_rect,7,1.224,1,11,0,11,0,1,,,,,,,,,,,,
66646a115e9d93996c78ee02,SCN,2024-06-10_15h14.09.604,LearnStrategy,2023.2.3,MacIntel,62.5,9,1,13,-0.565822785,0.269620253,1,0,0,9.605,Peridotite_12,7,12,5,1,9.605,0.143037975,-0.398734177,1,0,0,1.256,Peridotite_rect,7,1.256,1,12,0,12,0,1,,,,,,,,,,,,
66646a115e9d93996c78ee02,SCN,2024-06-10_15h14.09.604,LearnStrategy,2023.2.3,MacIntel,62.5,9,1,14,0.588607595,0.25443038,1,0,0,16.034,Andesite_05,1,05,5,8,16.034,-0.340506329,-0.248101266,1,0,0,6.289,Andesite_rect,1,6.289,1,13,0,13,0,1,,,,,,,,,,,,
66646a115e9d93996c78ee02,SCN,2024-06-10_15h14.09.604,LearnStrategy,2023.2.3,MacIntel,62.5,9,1,15,-0.516455696,-0.094936709,1,0,0,4.454,Gabbro_05,4,05,3,1,4.454,0.415189873,-0.260759494,1,0,0,15.893,Gabbro_rect,4,15.893,1,14,0,14,0,1,,,,,,,,,,,,
66646a115e9d93996c78ee02,SCN,2024-06-10_15h14.09.604,LearnStrategy,2023.2.3,MacIntel,62.5,9,1,16,0.563291139,-0.430379747,1,0,0,7.968,Andesite_14,1,14,1,8,7.968,-0.383544304,-0.259493671,1,0,0,5.055,Andesite_rect,1,5.055,1,15,0,15,0,1,,,,,,,,,,,,
66646a115e9d93996c78ee02,SCN,2024-06-10_15h14.09.604,LearnStrategy,2023.2.3,MacIntel,62.5,9,2,1,,,,,,,,4,01,,,,,,,,,,,1,44.207,0,,,,,,-0.355696203,-0.263291139,1,0,0,44.207,Andesite_rect,0,0,0,0,1
66646a115e9d93996c78ee02,SCN,2024-06-10_15h14.09.604,LearnStrategy,2023.2.3,MacIntel,62.5,9,2,2,,,,,,,,4,12,,,,,,,,,,,3,32.47,0,,,,,,0.167088608,-0.250632911,1,0,0,32.47,Diorite_rect,1,0,1,0,1
66646a115e9d93996c78ee02,SCN,2024-06-10_15h14.09.604,LearnStrategy,2023.2.3,MacIntel,62.5,9,2,3,,,,,,,,6,03,,,,,,,,,,,6,1.492,1,,,,,,-0.135443038,-0.406329114,1,0,0,1.492,Pegmatite_rect,2,0,2,0,1
66646a115e9d93996c78ee02,SCN,2024-06-10_15h14.09.604,LearnStrategy,2023.2.3,MacIntel,62.5,9,2,4,,,,,,,,2,09,,,,,,,,,,,1,1.476,0,,,,,,-0.381012658,-0.260759494,1,0,0,1.476,Andesite_rect,3,0,3,0,1
66646a115e9d93996c78ee02,SCN,2024-06-10_15h14.09.604,LearnStrategy,2023.2.3,MacIntel,62.5,9,2,5,,,,,,,,6,12,,,,,,,,,,,6,1.922,1,,,,,,-0.069620253,-0.411392405,1,0,0,1.922,Pegmatite_rect,4,0,4,0,1
66646a115e9d93996c78ee02,SCN,2024-06-10_15h14.09.604,LearnStrategy,2023.2.3,MacIntel,62.5,9,2,6,,,,,,,,8,02,,,,,,,,,,,8,1.571,1,,,,,,0.384810127,-0.410126582,1,0,0,1.571,Pumice_rect,5,0,5,0,1
66646a115e9d93996c78ee02,SCN,2024-06-10_15h14.09.604,LearnStrategy,2023.2.3,MacIntel,62.5,9,2,7,,,,,,,,3,16,,,,,,,,,,,3,5.877,1,,,,,,0.153164557,-0.230379747,1,0,0,5.877,Diorite_rect,6,0,6,0,1
66646a115e9d93996c78ee02,SCN,2024-06-10_15h14.09.604,LearnStrategy,2023.2.3,MacIntel,62.5,9,2,8,,,,,,,,7,14,,,,,,,,,,,4,39.655,0,,,,,,0.439240506,-0.24556962,1,0,0,39.655,Gabbro_rect,7,0,7,0,1
66646a115e9d93996c78ee02,SCN,2024-06-10_15h14.09.604,LearnStrategy,2023.2.3,MacIntel,62.5,9,2,9,,,,,,,,5,12,,,,,,,,,,,5,1.586,1,,,,,,-0.36835443,-0.393670886,1,0,0,1.586,Obsidian_rect,8,0,8,0,1
66646a115e9d93996c78ee02,SCN,2024-06-10_15h14.09.604,LearnStrategy,2023.2.3,MacIntel,62.5,9,2,10,,,,,,,,3,12,,,,,,,,,,,3,10.307,1,,,,,,0.163291139,-0.25443038,1,0,0,10.307,Diorite_rect,9,0,9,0,1
66646a115e9d93996c78ee02,SCN,2024-06-10_15h14.09.604,LearnStrategy,2023.2.3,MacIntel,62.5,9,2,11,,,,,,,,5,02,,,,,,,,,,,5,1.01,1,,,,,,-0.392405063,-0.386075949,1,0,0,1.01,Obsidian_rect,10,0,10,0,1
66646a115e9d93996c78ee02,SCN,2024-06-10_15h14.09.604,LearnStrategy,2023.2.3,MacIntel,62.5,9,2,12,,,,,,,,1,02,,,,,,,,,,,1,2.905,1,,,,,,-0.341772152,-0.243037975,1,0,0,2.905,Andesite_rect,11,0,11,0,1
66646a115e9d93996c78ee02,SCN,2024-06-10_15h14.09.604,LearnStrategy,2023.2.3,MacIntel,62.5,9,2,13,,,,,,,,7,05,,,,,,,,,,,7,1.136,1,,,,,,0.16835443,-0.379746835,1,0,0,1.136,Peridotite_rect,12,0,12,0,1
66646a115e9d93996c78ee02,SCN,2024-06-10_15h14.09.604,LearnStrategy,2023.2.3,MacIntel,62.5,9,2,14,,,,,,,,2,04,,,,,,,,,,,2,1.908,1,,,,,,-0.102531646,-0.251898734,1,0,0,1.908,Basalt_rect,13,0,13,0,1
66646a115e9d93996c78ee02,SCN,2024-06-10_15h14.09.604,LearnStrategy,2023.2.3,MacIntel,62.5,9,2,15,,,,,,,,1,11,,,,,,,,,,,1,1.157,1,,,,,,-0.36835443,-0.243037975,1,0,0,1.157,Andesite_rect,14,0,14,0,1
66646a115e9d93996c78ee02,SCN,2024-06-10_15h14.09.604,LearnStrategy,2023.2.3,MacIntel,62.5,9,2,16,,,,,,,,8,14,,,,,,,,,,,8,0.788,1,,,,,,0.389873418,-0.396202532,1,0,0,0.788,Pumice_rect,15,0,15,0,1
66646a115e9d93996c78ee02,SCN,2024-06-10_15h14.09.604,LearnStrategy,2023.2.3,MacIntel,62.5,,,,,,,,,,,,,,,,,,,,,,,,,,,,,,,,,,,,,,,,,,
66646a115e9d93996c78ee02,SCN,2024-06-10_15h14.09.604,LearnStrategy,2023.2.3,MacIntel,62.5,,,,,,,,,,,,,,,,,,,,,,,,,,,,,,,,,,,,,,,,,,
66646a115e9d93996c78ee02,SCN,2024-06-10_15h14.09.604,LearnStrategy,2023.2.3,MacIntel,62.5,,,,,,,,,,,2,12,1,1,,,,,,,,,,,,,,,,,,,,,,,,,,,,
66646a115e9d93996c78ee02,SCN,2024-06-10_15h14.09.604,LearnStrategy,2023.2.3,MacIntel,62.5,,,,,,,,,,,2,10,1,2,,,,,,,,,,,,,,,,,,,,,,,,,,,,
66646a115e9d93996c78ee02,SCN,2024-06-10_15h14.09.604,LearnStrategy,2023.2.3,MacIntel,62.5,,,,,,,,,,,3,13,1,3,,,,,,,,,,,,,,,,,,,,,,,,,,,,
66646a115e9d93996c78ee02,SCN,2024-06-10_15h14.09.604,LearnStrategy,2023.2.3,MacIntel,62.5,,,,,,,,,,,6,08,1,4,,,,,,,,,,,,,,,,,,,,,,,,,,,,
66646a115e9d93996c78ee02,SCN,2024-06-10_15h14.09.604,LearnStrategy,2023.2.3,MacIntel,62.5,,,,,,,,,,,3,07,1,5,,,,,,,,,,,,,,,,,,,,,,,,,,,,
66646a115e9d93996c78ee02,SCN,2024-06-10_15h14.09.604,LearnStrategy,2023.2.3,MacIntel,62.5,,,,,,,,,,,4,09,1,6,,,,,,,,,,,,,,,,,,,,,,,,,,,,
66646a115e9d93996c78ee02,SCN,2024-06-10_15h14.09.604,LearnStrategy,2023.2.3,MacIntel,62.5,,,,,,,,,,,8,16,1,7,,,,,,,,,,,,,,,,,,,,,,,,,,,,
66646a115e9d93996c78ee02,SCN,2024-06-10_15h14.09.604,LearnStrategy,2023.2.3,MacIntel,62.5,,,,,,,,,,,1,14,1,8,,,,,,,,,,,,,,,,,,,,,,,,,,,,
66646a115e9d93996c78ee02,SCN,2024-06-10_15h14.09.604,LearnStrategy,2023.2.3,MacIntel,62.5,,,,,,,,,,,3,10,2,1,,,,,,,,,,,,,,,,,,,,,,,,,,,,
66646a115e9d93996c78ee02,SCN,2024-06-10_15h14.09.604,LearnStrategy,2023.2.3,MacIntel,62.5,,,,,,,,,,,7,07,2,2,,,,,,,,,,,,,,,,,,,,,,,,,,,,
66646a115e9d93996c78ee02,SCN,2024-06-10_15h14.09.604,LearnStrategy,2023.2.3,MacIntel,62.5,,,,,,,,,,,5,10,2,3,,,,,,,,,,,,,,,,,,,,,,,,,,,,
66646a115e9d93996c78ee02,SCN,2024-06-10_15h14.09.604,LearnStrategy,2023.2.3,MacIntel,62.5,,,,,,,,,,,1,04,2,4,,,,,,,,,,,,,,,,,,,,,,,,,,,,
66646a115e9d93996c78ee02,SCN,2024-06-10_15h14.09.604,LearnStrategy,2023.2.3,MacIntel,62.5,,,,,,,,,,,8,09,2,5,,,,,,,,,,,,,,,,,,,,,,,,,,,,
66646a115e9d93996c78ee02,SCN,2024-06-10_15h14.09.604,LearnStrategy,2023.2.3,MacIntel,62.5,,,,,,,,,,,6,06,2,6,,,,,,,,,,,,,,,,,,,,,,,,,,,,
66646a115e9d93996c78ee02,SCN,2024-06-10_15h14.09.604,LearnStrategy,2023.2.3,MacIntel,62.5,,,,,,,,,,,2,14,2,7,,,,,,,,,,,,,,,,,,,,,,,,,,,,
66646a115e9d93996c78ee02,SCN,2024-06-10_15h14.09.604,LearnStrategy,2023.2.3,MacIntel,62.5,,,,,,,,,,,8,15,2,8,,,,,,,,,,,,,,,,,,,,,,,,,,,,
66646a115e9d93996c78ee02,SCN,2024-06-10_15h14.09.604,LearnStrategy,2023.2.3,MacIntel,62.5,,,,,,,,,,,4,05,3,1,,,,,,,,,,,,,,,,,,,,,,,,,,,,
66646a115e9d93996c78ee02,SCN,2024-06-10_15h14.09.604,LearnStrategy,2023.2.3,MacIntel,62.5,,,,,,,,,,,8,06,3,2,,,,,,,,,,,,,,,,,,,,,,,,,,,,
66646a115e9d93996c78ee02,SCN,2024-06-10_15h14.09.604,LearnStrategy,2023.2.3,MacIntel,62.5,,,,,,,,,,,5,04,3,3,,,,,,,,,,,,,,,,,,,,,,,,,,,,
66646a115e9d93996c78ee02,SCN,2024-06-10_15h14.09.604,LearnStrategy,2023.2.3,MacIntel,62.5,,,,,,,,,,,4,16,3,4,,,,,,,,,,,,,,,,,,,,,,,,,,,,
66646a115e9d93996c78ee02,SCN,2024-06-10_15h14.09.604,LearnStrategy,2023.2.3,MacIntel,62.5,,,,,,,,,,,2,05,3,5,,,,,,,,,,,,,,,,,,,,,,,,,,,,
66646a115e9d93996c78ee02,SCN,2024-06-10_15h14.09.604,LearnStrategy,2023.2.3,MacIntel,62.5,,,,,,,,,,,3,06,3,6,,,,,,,,,,,,,,,,,,,,,,,,,,,,
66646a115e9d93996c78ee02,SCN,2024-06-10_15h14.09.604,LearnStrategy,2023.2.3,MacIntel,62.5,,,,,,,,,,,3,09,3,7,,,,,,,,,,,,,,,,,,,,,,,,,,,,
66646a115e9d93996c78ee02,SCN,2024-06-10_15h14.09.604,LearnStrategy,2023.2.3,MacIntel,62.5,,,,,,,,,,,8,08,3,8,,,,,,,,,,,,,,,,,,,,,,,,,,,,
66646a115e9d93996c78ee02,SCN,2024-06-10_15h14.09.604,LearnStrategy,2023.2.3,MacIntel,62.5,,,,,,,,,,,7,06,4,1,,,,,,,,,,,,,,,,,,,,,,,,,,,,
66646a115e9d93996c78ee02,SCN,2024-06-10_15h14.09.604,LearnStrategy,2023.2.3,MacIntel,62.5,,,,,,,,,,,4,15,4,2,,,,,,,,,,,,,,,,,,,,,,,,,,,,
66646a115e9d93996c78ee02,SCN,2024-06-10_15h14.09.604,LearnStrategy,2023.2.3,MacIntel,62.5,,,,,,,,,,,2,08,4,3,,,,,,,,,,,,,,,,,,,,,,,,,,,,
66646a115e9d93996c78ee02,SCN,2024-06-10_15h14.09.604,LearnStrategy,2023.2.3,MacIntel,62.5,,,,,,,,,,,5,07,4,4,,,,,,,,,,,,,,,,,,,,,,,,,,,,
66646a115e9d93996c78ee02,SCN,2024-06-10_15h14.09.604,LearnStrategy,2023.2.3,MacIntel,62.5,,,,,,,,,,,4,10,4,5,,,,,,,,,,,,,,,,,,,,,,,,,,,,
66646a115e9d93996c78ee02,SCN,2024-06-10_15h14.09.604,LearnStrategy,2023.2.3,MacIntel,62.5,,,,,,,,,,,2,02,4,6,,,,,,,,,,,,,,,,,,,,,,,,,,,,
66646a115e9d93996c78ee02,SCN,2024-06-10_15h14.09.604,LearnStrategy,2023.2.3,MacIntel,62.5,,,,,,,,,,,5,05,4,7,,,,,,,,,,,,,,,,,,,,,,,,,,,,
66646a115e9d93996c78ee02,SCN,2024-06-10_15h14.09.604,LearnStrategy,2023.2.3,MacIntel,62.5,,,,,,,,,,,1,10,4,8,,,,,,,,,,,,,,,,,,,,,,,,,,,,
66646a115e9d93996c78ee02,SCN,2024-06-10_15h14.09.604,LearnStrategy,2023.2.3,MacIntel,62.5,,,,,,,,,,,7,12,5,1,,,,,,,,,,,,,,,,,,,,,,,,,,,,
66646a115e9d93996c78ee02,SCN,2024-06-10_15h14.09.604,LearnStrategy,2023.2.3,MacIntel,62.5,,,,,,,,,,,6,07,5,2,,,,,,,,,,,,,,,,,,,,,,,,,,,,
66646a115e9d93996c78ee02,SCN,2024-06-10_15h14.09.604,LearnStrategy,2023.2.3,MacIntel,62.5,,,,,,,,,,,5,16,5,3,,,,,,,,,,,,,,,,,,,,,,,,,,,,
66646a115e9d93996c78ee02,SCN,2024-06-10_15h14.09.604,LearnStrategy,2023.2.3,MacIntel,62.5,,,,,,,,,,,7,04,5,4,,,,,,,,,,,,,,,,,,,,,,,,,,,,
66646a115e9d93996c78ee02,SCN,2024-06-10_15h14.09.604,LearnStrategy,2023.2.3,MacIntel,62.5,,,,,,,,,,,6,16,5,5,,,,,,,,,,,,,,,,,,,,,,,,,,,,
66646a115e9d93996c78ee02,SCN,2024-06-10_15h14.09.604,LearnStrategy,2023.2.3,MacIntel,62.5,,,,,,,,,,,4,03,5,6,,,,,,,,,,,,,,,,,,,,,,,,,,,,
66646a115e9d93996c78ee02,SCN,2024-06-10_15h14.09.604,LearnStrategy,2023.2.3,MacIntel,62.5,,,,,,,,,,,6,09,5,7,,,,,,,,,,,,,,,,,,,,,,,,,,,,
66646a115e9d93996c78ee02,SCN,2024-06-10_15h14.09.604,LearnStrategy,2023.2.3,MacIntel,62.5,,,,,,,,,,,1,05,5,8,,,,,,,,,,,,,,,,,,,,,,,,,,,,
66646a115e9d93996c78ee02,SCN,2024-06-10_15h14.09.604,LearnStrategy,2023.2.3,MacIntel,62.5,,,,,,,,,,,5,08,6,1,,,,,,,,,,,,,,,,,,,,,,,,,,,,
66646a115e9d93996c78ee02,SCN,2024-06-10_15h14.09.604,LearnStrategy,2023.2.3,MacIntel,62.5,,,,,,,,,,,1,06,6,2,,,,,,,,,,,,,,,,,,,,,,,,,,,,
66646a115e9d93996c78ee02,SCN,2024-06-10_15h14.09.604,LearnStrategy,2023.2.3,MacIntel,62.5,,,,,,,,,,,3,14,6,3,,,,,,,,,,,,,,,,,,,,,,,,,,,,
66646a115e9d93996c78ee02,SCN,2024-06-10_15h14.09.604,LearnStrategy,2023.2.3,MacIntel,62.5,,,,,,,,,,,1,09,6,4,,,,,,,,,,,,,,,,,,,,,,,,,,,,
66646a115e9d93996c78ee02,SCN,2024-06-10_15h14.09.604,LearnStrategy,2023.2.3,MacIntel,62.5,,,,,,,,,,,8,10,6,5,,,,,,,,,,,,,,,,,,,,,,,,,,,,
66646a115e9d93996c78ee02,SCN,2024-06-10_15h14.09.604,LearnStrategy,2023.2.3,MacIntel,62.5,,,,,,,,,,,6,13,6,6,,,,,,,,,,,,,,,,,,,,,,,,,,,,
66646a115e9d93996c78ee02,SCN,2024-06-10_15h14.09.604,LearnStrategy,2023.2.3,MacIntel,62.5,,,,,,,,,,,7,16,6,7,,,,,,,,,,,,,,,,,,,,,,,,,,,,
66646a115e9d93996c78ee02,SCN,2024-06-10_15h14.09.604,LearnStrategy,2023.2.3,MacIntel,62.5,,,,,,,,,,,7,08,6,8,,,,,,,,,,,,,,,,,,,,,,,,,,,,