participant,condition,date,expName,psychopyVersion,OS,frameRate,block,phase,trial,learn_mouse_2.x,learn_mouse_2.y,learn_mouse_2.leftButton,learn_mouse_2.midButton,learn_mouse_2.rightButton,learn_mouse_2.time,learn_mouse_2.clicked_name,cat,token,row,col,t_select,cat_mouse_l.x,cat_mouse_l.y,cat_mouse_l.leftButton,cat_mouse_l.midButton,cat_mouse_l.rightButton,cat_mouse_l.time,cat_mouse_l.clicked_name,resp,t_resp,corr,train_trials.thisRepN,train_trials.thisTrialN,train_trials.thisN,train_trials.thisIndex,train_trials.ran,cat_mouse_t.x,cat_mouse_t.y,cat_mouse_t.leftButton,cat_mouse_t.midButton,cat_mouse_t.rightButton,cat_mouse_t.time,cat_mouse_t.clicked_name,test_trials.thisRepN,test_trials.thisTrialN,test_trials.thisN,test_trials.thisIndex,test_trials.ran,Bonus
6669d148d231d550e4828b54,TCN,2024-06-24_14h46.05.728,LearnStrategy,2023.2.3,Win32,142.8571429,,,,,,,,,,,,,,,,,,,,,,,,,,,,,,,,,,,,,,,,,,,
6669d148d231d550e4828b54,TCN,2024-06-24_14h46.05.728,LearnStrategy,2023.2.3,Win32,142.8571429,1,1,1,-0.02962963,-0.021296296,1,0,0,2.005,rock_grid_rect_2,4,14,-1,-1,2.005,-0.089814815,-0.412962963,1,0,0,12.9114,Pegmatite_rect,6,12.911,0,0,0,0,0,1,,,,,,,,,,,,,
6669d148d231d550e4828b54,TCN,2024-06-24_14h46.05.728,LearnStrategy,2023.2.3,Win32,142.8571429,1,1,2,0.106481481,-0.009259259,1,0,0,1.522,rock_grid_rect_2,6,07,-1,-1,1.522,-0.388888889,-0.398148148,1,0,0,9.8409,Obsidian_rect,5,9.841,0,1,0,1,0,1,,,,,,,,,,,,,
6669d148d231d550e4828b54,TCN,2024-06-24_14h46.05.728,LearnStrategy,2023.2.3,Win32,142.8571429,1,1,3,0.065740741,0.005555556,1,0,0,1.2072,rock_grid_rect_2,2,11,-1,-1,1.207,0.423148148,-0.399074074,1,0,0,4.3817,Pumice_rect,8,4.382,0,2,0,2,0,1,,,,,,,,,,,,,
6669d148d231d550e4828b54,TCN,2024-06-24_14h46.05.728,LearnStrategy,2023.2.3,Win32,142.8571429,1,1,4,-0.009259259,0.013888889,1,0,0,1.0702,rock_grid_rect_2,5,12,-1,-1,1.07,-0.380555556,-0.39537037,1,0,0,2.0903,Obsidian_rect,5,2.09,1,3,0,3,0,1,,,,,,,,,,,,,
6669d148d231d550e4828b54,TCN,2024-06-24_14h46.05.728,LearnStrategy,2023.2.3,Win32,142.8571429,1,1,5,-0.023148148,0.013888889,1,0,0,0.7068,rock_grid_rect_2,2,02,-1,-1,0.707,-0.383333333,-0.249074074,1,0,0,2.6117,Andesite_rect,1,2.612,0,4,0,4,0,1,,,,,,,,,,,,,
6669d148d231d550e4828b54,TCN,2024-06-24_14h46.05.728,LearnStrategy,2023.2.3,Win32,142.8571429,1,1,6,0.062962963,0.02037037,1,0,0,0.8643,rock_grid_rect_2,8,05,-1,-1,0.864,0.413888889,-0.412962963,1,0,0,2.1881,Pumice_rect,8,2.188,1,5,0,5,0,1,,,,,,,,,,,,,
6669d148d231d550e4828b54,TCN,2024-06-24_14h46.05.728,LearnStrategy,2023.2.3,Win32,142.8571429,1,1,7,0.048148148,0.002777778,1,0,0,0.7197,rock_grid_rect_2,5,07,-1,-1,0.72,-0.360185185,-0.417592593,1,0,0,7.5596,Obsidian_rect,5,7.56,1,6,0,6,0,1,,,,,,,,,,,,,
6669d148d231d550e4828b54,TCN,2024-06-24_14h46.05.728,LearnStrategy,2023.2.3,Win32,142.8571429,1,1,8,-0.055555556,0.005555556,1,0,0,0.7346,rock_grid_rect_2,1,07,-1,-1,0.735,0.076851852,-0.251851852,1,0,0,6.0467,Diorite_rect,3,6.047,0,7,0,7,0,1,,,,,,,,,,,,,
6669d148d231d550e4828b54,TCN,2024-06-24_14h46.05.728,LearnStrategy,2023.2.3,Win32,142.8571429,1,1,9,-0.125,0.012962963,1,0,0,1.2111,rock_grid_rect_2,7,13,-1,-1,1.211,0.140740741,-0.410185185,1,0,0,3.8954,Peridotite_rect,7,3.895,1,8,0,8,0,1,,,,,,,,,,,,,
6669d148d231d550e4828b54,TCN,2024-06-24_14h46.05.728,LearnStrategy,2023.2.3,Win32,142.8571429,1,1,10,0.033333333,0.012037037,1,0,0,1.0048,rock_grid_rect_2,4,13,-1,-1,1.005,0.396296296,-0.267592593,1,0,0,2.5238,Gabbro_rect,4,2.524,1,9,0,9,0,1,,,,,,,,,,,,,
6669d148d231d550e4828b54,TCN,2024-06-24_14h46.05.728,LearnStrategy,2023.2.3,Win32,142.8571429,1,1,11,-0.002777778,0.00462963,1,0,0,0.6532,rock_grid_rect_2,3,07,-1,-1,0.653,-0.394444444,-0.265740741,1,0,0,3.4926,Andesite_rect,1,3.493,0,10,0,10,0,1,,,,,,,,,,,,,
6669d148d231d550e4828b54,TCN,2024-06-24_14h46.05.728,LearnStrategy,2023.2.3,Win32,142.8571429,1,1,12,0.047222222,-0.011111111,1,0,0,1.0634,rock_grid_rect_2,6,15,-1,-1,1.063,-0.064814815,-0.411111111,1,0,0,8.5861,Pegmatite_rect,6,8.586,1,11,0,11,0,1,,,,,,,,,,,,,
6669d148d231d550e4828b54,TCN,2024-06-24_14h46.05.728,LearnStrategy,2023.2.3,Win32,142.8571429,1,1,13,0.139814815,0.009259259,1,0,0,0.6101,rock_grid_rect_2,8,08,-1,-1,0.61,0.427777778,-0.412962963,1,0,0,1.8767,Pumice_rect,8,1.877,1,12,0,12,0,1,,,,,,,,,,,,,
6669d148d231d550e4828b54,TCN,2024-06-24_14h46.05.728,LearnStrategy,2023.2.3,Win32,142.8571429,1,1,14,0.062962963,-0.001851852,1,0,0,0.6011,rock_grid_rect_2,3,16,-1,-1,0.601,0.116666667,-0.247222222,1,0,0,2.0229,Diorite_rect,3,2.023,1,13,0,13,0,1,,,,,,,,,,,,,
6669d148d231d550e4828b54,TCN,2024-06-24_14h46.05.728,LearnStrategy,2023.2.3,Win32,142.8571429,1,1,15,-0.001851852,-0.006481481,1,0,0,0.6861,rock_grid_rect_2,1,01,-1,-1,0.686,-0.362037037,-0.240740741,1,0,0,3.3432,Andesite_rect,1,3.343,1,14,0,14,0,1,,,,,,,,,,,,,
6669d148d231d550e4828b54,TCN,2024-06-24_14h46.05.728,LearnStrategy,2023.2.3,Win32,142.8571429,1,1,16,-0.064814815,-0.014814815,1,0,0,0.5779,rock_grid_rect_2,7,04,-1,-1,0.578,0.114814815,-0.244444444,1,0,0,7.016,Diorite_rect,3,7.016,0,15,0,15,0,1,,,,,,,,,,,,,
6669d148d231d550e4828b54,TCN,2024-06-24_14h46.05.728,LearnStrategy,2023.2.3,Win32,142.8571429,1,2,1,,,,,,,,3,02,,,,,,,,,,,3,2.883,1,,,,,,0.140740741,-0.260185185,1,0,0,2.883,Diorite_rect,0,0,0,0,1,
6669d148d231d550e4828b54,TCN,2024-06-24_14h46.05.728,LearnStrategy,2023.2.3,Win32,142.8571429,1,2,2,,,,,,,,4,05,,,,,,,,,,,4,2.48,1,,,,,,0.382407407,-0.24537037,1,0,0,2.4796,Gabbro_rect,1,0,1,0,1,
6669d148d231d550e4828b54,TCN,2024-06-24_14h46.05.728,LearnStrategy,2023.2.3,Win32,142.8571429,1,2,3,,,,,,,,3,09,,,,,,,,,,,3,1.346,1,,,,,,0.10462963,-0.256481481,1,0,0,1.3456,Diorite_rect,2,0,2,0,1,
6669d148d231d550e4828b54,TCN,2024-06-24_14h46.05.728,LearnStrategy,2023.2.3,Win32,142.8571429,1,2,4,,,,,,,,4,08,,,,,,,,,,,2,3.064,0,,,,,,-0.100925926,-0.267592593,1,0,0,3.0639,Basalt_rect,3,0,3,0,1,
6669d148d231d550e4828b54,TCN,2024-06-24_14h46.05.728,LearnStrategy,2023.2.3,Win32,142.8571429,1,2,5,,,,,,,,8,13,,,,,,,,,,,8,1.489,1,,,,,,0.351851852,-0.388888889,1,0,0,1.4893,Pumice_rect,4,0,4,0,1,
6669d148d231d550e4828b54,TCN,2024-06-24_14h46.05.728,LearnStrategy,2023.2.3,Win32,142.8571429,1,2,6,,,,,,,,5,05,,,,,,,,,,,5,1.638,1,,,,,,-0.415740741,-0.380555556,1,0,0,1.6382,Obsidian_rect,5,0,5,0,1,
6669d148d231d550e4828b54,TCN,2024-06-24_14h46.05.728,LearnStrategy,2023.2.3,Win32,142.8571429,1,2,7,,,,,,,,1,14,,,,,,,,,,,3,2.741,0,,,,,,0.161111111,-0.253703704,1,0,0,2.7415,Diorite_rect,6,0,6,0,1,
6669d148d231d550e4828b54,TCN,2024-06-24_14h46.05.728,LearnStrategy,2023.2.3,Win32,142.8571429,1,2,8,,,,,,,,2,05,,,,,,,,,,,2,3.032,1,,,,,,-0.07962963,-0.256481481,1,0,0,3.0321,Basalt_rect,7,0,7,0,1,
6669d148d231d550e4828b54,TCN,2024-06-24_14h46.05.728,LearnStrategy,2023.2.3,Win32,142.8571429,1,2,9,,,,,,,,6,03,,,,,,,,,,,7,2.179,0,,,,,,0.132407407,-0.405555556,1,0,0,2.1789,Peridotite_rect,8,0,8,0,1,
6669d148d231d550e4828b54,TCN,2024-06-24_14h46.05.728,LearnStrategy,2023.2.3,Win32,142.8571429,1,2,10,,,,,,,,7,02,,,,,,,,,,,7,2.578,1,,,,,,0.177777778,-0.412962963,1,0,0,2.578,Peridotite_rect,9,0,9,0,1,
6669d148d231d550e4828b54,TCN,2024-06-24_14h46.05.728,LearnStrategy,2023.2.3,Win32,142.8571429,1,2,11,,,,,,,,1,06,,,,,,,,,,,1,1.316,1,,,,,,-0.358333333,-0.249074074,1,0,0,1.3162,Andesite_rect,10,0,10,0,1,
6669d148d231d550e4828b54,TCN,2024-06-24_14h46.05.728,LearnStrategy,2023.2.3,Win32,142.8571429,1,2,12,,,,,,,,8,02,,,,,,,,,,,8,1.37,1,,,,,,0.4,-0.42037037,1,0,0,1.3699,Pumice_rect,11,0,11,0,1,
6669d148d231d550e4828b54,TCN,2024-06-24_14h46.05.728,LearnStrategy,2023.2.3,Win32,142.8571429,1,2,13,,,,,,,,2,14,,,,,,,,,,,8,1.344,0,,,,,,0.361111111,-0.383333333,1,0,0,1.3437,Pumice_rect,12,0,12,0,1,
6669d148d231d550e4828b54,TCN,2024-06-24_14h46.05.728,LearnStrategy,2023.2.3,Win32,142.8571429,1,2,14,,,,,,,,7,06,,,,,,,,,,,7,2.585,1,,,,,,0.197222222,-0.392592593,1,0,0,2.5848,Peridotite_rect,13,0,13,0,1,
6669d148d231d550e4828b54,TCN,2024-06-24_14h46.05.728,LearnStrategy,2023.2.3,Win32,142.8571429,1,2,15,,,,,,,,5,14,,,,,,,,,,,5,1.209,1,,,,,,-0.380555556,-0.385185185,1,0,0,1.2085,Obsidian_rect,14,0,14,0,1,
6669d148d231d550e4828b54,TCN,2024-06-24_14h46.05.728,LearnStrategy,2023.2.3,Win32,142.8571429,1,2,16,,,,,,,,6,11,,,,,,,,,,,5,2.078,0,,,,,,-0.343518519,-0.394444444,1,0,0,2.0784,Obsidian_rect,15,0,15,0,1,
6669d148d231d550e4828b54,TCN,2024-06-24_14h46.05.728,LearnStrategy,2023.2.3,Win32,142.8571429,2,1,1,0.127777778,-0.012962963,1,0,0,1.7145,rock_grid_rect_2,3,06,-1,-1,1.715,0.119444444,-0.24537037,1,0,0,2.6526,Diorite_rect,3,2.653,1,0,0,0,0,1,,,,,,,,,,,,,
6669d148d231d550e4828b54,TCN,2024-06-24_14h46.05.728,LearnStrategy,2023.2.3,Win32,142.8571429,2,1,2,0.046296296,-0.00462963,1,0,0,0.6023,rock_grid_rect_2,2,04,-1,-1,0.602,-0.166666667,-0.240740741,1,0,0,2.2467,Basalt_rect,2,2.247,1,1,0,1,0,1,,,,,,,,,,,,,
6669d148d231d550e4828b54,TCN,2024-06-24_14h46.05.728,LearnStrategy,2023.2.3,Win32,142.8571429,2,1,3,-0.011111111,0.001851852,1,0,0,0.5112,rock_grid_rect_2,1,10,-1,-1,0.511,-0.074074074,-0.4,1,0,0,3.6474,Pegmatite_rect,6,3.647,0,2,0,2,0,1,,,,,,,,,,,,,
6669d148d231d550e4828b54,TCN,2024-06-24_14h46.05.728,LearnStrategy,2023.2.3,Win32,142.8571429,2,1,4,0.037962963,-0.009259259,1,0,0,0.6079,rock_grid_rect_2,5,04,-1,-1,0.608,-0.385185185,-0.394444444,1,0,0,0.9587,Obsidian_rect,5,0.959,1,3,0,3,0,1,,,,,,,,,,,,,
6669d148d231d550e4828b54,TCN,2024-06-24_14h46.05.728,LearnStrategy,2023.2.3,Win32,142.8571429,2,1,5,0.05,0.024074074,1,0,0,0.6409,rock_grid_rect_2,6,12,-1,-1,0.641,-0.143518519,-0.398148148,1,0,0,2.5072,Pegmatite_rect,6,2.507,1,4,0,4,0,1,,,,,,,,,,,,,
6669d148d231d550e4828b54,TCN,2024-06-24_14h46.05.728,LearnStrategy,2023.2.3,Win32,142.8571429,2,1,6,-0.064814815,0.014814815,1,0,0,0.4741,rock_grid_rect_2,2,16,-1,-1,0.474,0.363888889,-0.236111111,1,0,0,2.2137,Gabbro_rect,4,2.214,0,5,0,5,0,1,,,,,,,,,,,,,
6669d148d231d550e4828b54,TCN,2024-06-24_14h46.05.728,LearnStrategy,2023.2.3,Win32,142.8571429,2,1,7,0.116666667,0.007407407,1,0,0,0.5819,rock_grid_rect_2,4,01,-1,-1,0.582,-0.344444444,-0.25,1,0,0,4.6024,Andesite_rect,1,4.602,0,6,0,6,0,1,,,,,,,,,,,,,
6669d148d231d550e4828b54,TCN,2024-06-24_14h46.05.728,LearnStrategy,2023.2.3,Win32,142.8571429,2,1,8,0.096296296,-0.017592593,1,0,0,0.6862,rock_grid_rect_2,1,04,-1,-1,0.686,-0.337962963,-0.239814815,1,0,0,1.237,Andesite_rect,1,1.237,1,7,0,7,0,1,,,,,,,,,,,,,
6669d148d231d550e4828b54,TCN,2024-06-24_14h46.05.728,LearnStrategy,2023.2.3,Win32,142.8571429,2,1,9,-0.097222222,-0.011111111,1,0,0,0.5153,rock_grid_rect_2,8,09,-1,-1,0.515,0.322222222,-0.412962963,1,0,0,1.1371,Pumice_rect,8,1.137,1,8,0,8,0,1,,,,,,,,,,,,,
6669d148d231d550e4828b54,TCN,2024-06-24_14h46.05.728,LearnStrategy,2023.2.3,Win32,142.8571429,2,1,10,0.036111111,-0.012962963,1,0,0,0.4263,rock_grid_rect_2,8,14,-1,-1,0.426,0.335185185,-0.393518519,1,0,0,1.0359,Pumice_rect,8,1.036,1,9,0,9,0,1,,,,,,,,,,,,,
6669d148d231d550e4828b54,TCN,2024-06-24_14h46.05.728,LearnStrategy,2023.2.3,Win32,142.8571429,2,1,11,0.046296296,-0.006481481,1,0,0,0.4218,rock_grid_rect_2,3,08,-1,-1,0.422,0.071296296,-0.267592593,1,0,0,1.3779,Diorite_rect,3,1.378,1,10,0,10,0,1,,,,,,,,,,,,,
6669d148d231d550e4828b54,TCN,2024-06-24_14h46.05.728,LearnStrategy,2023.2.3,Win32,142.8571429,2,1,12,-0.036111111,-0.005555556,1,0,0,0.4596,rock_grid_rect_2,4,10,-1,-1,0.46,-0.089814815,-0.260185185,1,0,0,7.452,Basalt_rect,2,7.452,0,11,0,11,0,1,,,,,,,,,,,,,
6669d148d231d550e4828b54,TCN,2024-06-24_14h46.05.728,LearnStrategy,2023.2.3,Win32,142.8571429,2,1,13,0.031481481,0.000925926,1,0,0,0.5542,rock_grid_rect_2,6,16,-1,-1,0.554,-0.113888889,-0.403703704,1,0,0,2.6292,Pegmatite_rect,6,2.629,1,12,0,12,0,1,,,,,,,,,,,,,
6669d148d231d550e4828b54,TCN,2024-06-24_14h46.05.728,LearnStrategy,2023.2.3,Win32,142.8571429,2,1,14,0.083333333,0,1,0,0,0.6026,rock_grid_rect_2,7,10,-1,-1,0.603,0.140740741,-0.399074074,1,0,0,1.4835,Peridotite_rect,7,1.483,1,13,0,13,0,1,,,,,,,,,,,,,
6669d148d231d550e4828b54,TCN,2024-06-24_14h46.05.728,LearnStrategy,2023.2.3,Win32,142.8571429,2,1,15,0.017592593,0.012962963,1,0,0,0.4284,rock_grid_rect_2,7,07,-1,-1,0.428,0.12037037,-0.412037037,1,0,0,1.0607,Peridotite_rect,7,1.061,1,14,0,14,0,1,,,,,,,,,,,,,
6669d148d231d550e4828b54,TCN,2024-06-24_14h46.05.728,LearnStrategy,2023.2.3,Win32,142.8571429,2,1,16,0.000925926,0.016666667,1,0,0,0.4707,rock_grid_rect_2,5,10,-1,-1,0.471,-0.396296296,-0.412037037,1,0,0,1.9547,Obsidian_rect,5,1.955,1,15,0,15,0,1,,,,,,,,,,,,,
6669d148d231d550e4828b54,TCN,2024-06-24_14h46.05.728,LearnStrategy,2023.2.3,Win32,142.8571429,2,2,1,,,,,,,,6,10,,,,,,,,,,,7,3.606,0,,,,,,0.093518519,-0.381481481,1,0,0,3.6057,Peridotite_rect,0,0,0,0,1,
6669d148d231d550e4828b54,TCN,2024-06-24_14h46.05.728,LearnStrategy,2023.2.3,Win32,142.8571429,2,2,2,,,,,,,,5,06,,,,,,,,,,,5,1.029,1,,,,,,-0.339814815,-0.411111111,1,0,0,1.0289,Obsidian_rect,1,0,1,0,1,
6669d148d231d550e4828b54,TCN,2024-06-24_14h46.05.728,LearnStrategy,2023.2.3,Win32,142.8571429,2,2,3,,,,,,,,1,02,,,,,,,,,,,6,6.639,0,,,,,,-0.078703704,-0.393518519,1,0,0,6.6388,Pegmatite_rect,2,0,2,0,1,
6669d148d231d550e4828b54,TCN,2024-06-24_14h46.05.728,LearnStrategy,2023.2.3,Win32,142.8571429,2,2,4,,,,,,,,8,04,,,,,,,,,,,8,0.946,1,,,,,,0.341666667,-0.405555556,1,0,0,0.9456,Pumice_rect,3,0,3,0,1,
6669d148d231d550e4828b54,TCN,2024-06-24_14h46.05.728,LearnStrategy,2023.2.3,Win32,142.8571429,2,2,5,,,,,,,,6,13,,,,,,,,,,,6,2.451,1,,,,,,-0.136111111,-0.399074074,1,0,0,2.4509,Pegmatite_rect,4,0,4,0,1,
6669d148d231d550e4828b54,TCN,2024-06-24_14h46.05.728,LearnStrategy,2023.2.3,Win32,142.8571429,2,2,6,,,,,,,,8,03,,,,,,,,,,,8,1.094,1,,,,,,0.391666667,-0.40462963,1,0,0,1.0941,Pumice_rect,5,0,5,0,1,
6669d148d231d550e4828b54,TCN,2024-06-24_14h46.05.728,LearnStrategy,2023.2.3,Win32,142.8571429,2,2,7,,,,,,,,4,11,,,,,,,,,,,2,3.963,0,,,,,,-0.087037037,-0.249074074,1,0,0,3.9632,Basalt_rect,6,0,6,0,1,
6669d148d231d550e4828b54,TCN,2024-06-24_14h46.05.728,LearnStrategy,2023.2.3,Win32,142.8571429,2,2,8,,,,,,,,4,03,,,,,,,,,,,3,2.861,0,,,,,,0.10462963,-0.235185185,1,0,0,2.8615,Diorite_rect,7,0,7,0,1,
6669d148d231d550e4828b54,TCN,2024-06-24_14h46.05.728,LearnStrategy,2023.2.3,Win32,142.8571429,2,2,9,,,,,,,,2,06,,,,,,,,,,,5,2.173,0,,,,,,-0.389814815,-0.384259259,1,0,0,2.1729,Obsidian_rect,8,0,8,0,1,
6669d148d231d550e4828b54,TCN,2024-06-24_14h46.05.728,LearnStrategy,2023.2.3,Win32,142.8571429,2,2,10,,,,,,,,7,16,,,,,,,,,,,7,1.643,1,,,,,,0.083333333,-0.39537037,1,0,0,1.6433,Peridotite_rect,9,0,9,0,1,
6669d148d231d550e4828b54,TCN,2024-06-24_14h46.05.728,LearnStrategy,2023.2.3,Win32,142.8571429,2,2,11,,,,,,,,7,15,,,,,,,,,,,7,0.96,1,,,,,,0.101851852,-0.4,1,0,0,0.9605,Peridotite_rect,10,0,10,0,1,
6669d148d231d550e4828b54,TCN,2024-06-24_14h46.05.728,LearnStrategy,2023.2.3,Win32,142.8571429,2,2,12,,,,,,,,3,15,,,,,,,,,,,3,1.47,1,,,,,,0.112037037,-0.246296296,1,0,0,1.4696,Diorite_rect,11,0,11,0,1,
6669d148d231d550e4828b54,TCN,2024-06-24_14h46.05.728,LearnStrategy,2023.2.3,Win32,142.8571429,2,2,13,,,,,,,,1,05,,,,,,,,,,,1,1.287,1,,,,,,-0.444444444,-0.252777778,1,0,0,1.2871,Andesite_rect,12,0,12,0,1,
6669d148d231d550e4828b54,TCN,2024-06-24_14h46.05.728,LearnStrategy,2023.2.3,Win32,142.8571429,2,2,14,,,,,,,,2,09,,,,,,,,,,,2,2.353,1,,,,,,-0.090740741,-0.246296296,1,0,0,2.3531,Basalt_rect,13,0,13,0,1,
6669d148d231d550e4828b54,TCN,2024-06-24_14h46.05.728,LearnStrategy,2023.2.3,Win32,142.8571429,2,2,15,,,,,,,,3,13,,,,,,,,,,,3,1.008,1,,,,,,0.065740741,-0.252777778,1,0,0,1.0076,Diorite_rect,14,0,14,0,1,
6669d148d231d550e4828b54,TCN,2024-06-24_14h46.05.728,LearnStrategy,2023.2.3,Win32,142.8571429,2,2,16,,,,,,,,5,08,,,,,,,,,,,5,0.977,1,,,,,,-0.342592593,-0.415740741,1,0,0,0.9767,Obsidian_rect,15,0,15,0,1,
6669d148d231d550e4828b54,TCN,2024-06-24_14h46.05.728,LearnStrategy,2023.2.3,Win32,142.8571429,3,1,1,0.081481481,-0.005555556,1,0,0,1.1515,rock_grid_rect_2,6,09,-1,-1,1.151,0.067592593,-0.414814815,1,0,0,2.0352,Peridotite_rect,7,2.035,0,0,0,0,0,1,,,,,,,,,,,,,
6669d148d231d550e4828b54,TCN,2024-06-24_14h46.05.728,LearnStrategy,2023.2.3,Win32,142.8571429,3,1,2,-0.022222222,0.005555556,1,0,0,0.9947,rock_grid_rect_2,4,16,-1,-1,0.995,0.406481481,-0.235185185,1,0,0,1.7308,Gabbro_rect,4,1.731,1,1,0,1,0,1,,,,,,,,,,,,,
6669d148d231d550e4828b54,TCN,2024-06-24_14h46.05.728,LearnStrategy,2023.2.3,Win32,142.8571429,3,1,3,0.063888889,0.010185185,1,0,0,0.9366,rock_grid_rect_2,1,09,-1,-1,0.937,-0.373148148,-0.271296296,1,0,0,2.2795,Andesite_rect,1,2.279,1,2,0,2,0,1,,,,,,,,,,,,,
6669d148d231d550e4828b54,TCN,2024-06-24_14h46.05.728,LearnStrategy,2023.2.3,Win32,142.8571429,3,1,4,-0.027777778,-0.000925926,1,0,0,0.6922,rock_grid_rect_2,1,11,-1,-1,0.692,-0.380555556,-0.241666667,1,0,0,1.6358,Andesite_rect,1,1.636,1,3,0,3,0,1,,,,,,,,,,,,,
6669d148d231d550e4828b54,TCN,2024-06-24_14h46.05.728,LearnStrategy,2023.2.3,Win32,142.8571429,3,1,5,-0.046296296,-0.024074074,1,0,0,0.4478,rock_grid_rect_2,4,12,-1,-1,0.448,-0.130555556,-0.257407407,1,0,0,2.5512,Basalt_rect,2,2.551,0,4,0,4,0,1,,,,,,,,,,,,,
6669d148d231d550e4828b54,TCN,2024-06-24_14h46.05.728,LearnStrategy,2023.2.3,Win32,142.8571429,3,1,6,0.037962963,-0.00462963,1,0,0,0.7574,rock_grid_rect_2,3,11,-1,-1,0.757,0.092592593,-0.240740741,1,0,0,1.5156,Diorite_rect,3,1.516,1,5,0,5,0,1,,,,,,,,,,,,,
6669d148d231d550e4828b54,TCN,2024-06-24_14h46.05.728,LearnStrategy,2023.2.3,Win32,142.8571429,3,1,7,0.069444444,-0.007407407,1,0,0,0.8628,rock_grid_rect_2,5,09,-1,-1,0.863,-0.431481481,-0.401851852,1,0,0,0.812,Obsidian_rect,5,0.812,1,6,0,6,0,1,,,,,,,,,,,,,
6669d148d231d550e4828b54,TCN,2024-06-24_14h46.05.728,LearnStrategy,2023.2.3,Win32,142.8571429,3,1,8,0.002777778,0.003703704,1,0,0,0.506,rock_grid_rect_2,2,01,-1,-1,0.506,-0.112037037,-0.262037037,1,0,0,2.9883,Basalt_rect,2,2.988,1,7,0,7,0,1,,,,,,,,,,,,,
6669d148d231d550e4828b54,TCN,2024-06-24_14h46.05.728,LearnStrategy,2023.2.3,Win32,142.8571429,3,1,9,-0.022222222,-0.002777778,1,0,0,1.2243,rock_grid_rect_2,7,14,-1,-1,1.224,0.088888889,-0.407407407,1,0,0,3.1019,Peridotite_rect,7,3.102,1,8,0,8,0,1,,,,,,,,,,,,,
6669d148d231d550e4828b54,TCN,2024-06-24_14h46.05.728,LearnStrategy,2023.2.3,Win32,142.8571429,3,1,10,0.051851852,0.008333333,1,0,0,0.7047,rock_grid_rect_2,8,06,-1,-1,0.705,0.375,-0.409259259,1,0,0,1.3643,Pumice_rect,8,1.364,1,9,0,9,0,1,,,,,,,,,,,,,
6669d148d231d550e4828b54,TCN,2024-06-24_14h46.05.728,LearnStrategy,2023.2.3,Win32,142.8571429,3,1,11,0.022222222,-0.001851852,1,0,0,0.6375,rock_grid_rect_2,7,05,-1,-1,0.638,0.17962963,-0.411111111,1,0,0,1.6642,Peridotite_rect,7,1.664,1,10,0,10,0,1,,,,,,,,,,,,,
6669d148d231d550e4828b54,TCN,2024-06-24_14h46.05.728,LearnStrategy,2023.2.3,Win32,142.8571429,3,1,12,0.027777778,0.022222222,1,0,0,0.3951,rock_grid_rect_2,2,10,-1,-1,0.395,-0.12962963,-0.237962963,1,0,0,3.1675,Basalt_rect,2,3.168,1,11,0,11,0,1,,,,,,,,,,,,,
6669d148d231d550e4828b54,TCN,2024-06-24_14h46.05.728,LearnStrategy,2023.2.3,Win32,142.8571429,3,1,13,-0.066666667,0,1,0,0,0.6079,rock_grid_rect_2,8,10,-1,-1,0.608,0.375,-0.414814815,1,0,0,0.8353,Pumice_rect,8,0.835,1,12,0,12,0,1,,,,,,,,,,,,,
6669d148d231d550e4828b54,TCN,2024-06-24_14h46.05.728,LearnStrategy,2023.2.3,Win32,142.8571429,3,1,14,-0.087962963,0.012962963,1,0,0,0.6655,rock_grid_rect_2,5,02,-1,-1,0.665,-0.378703704,-0.406481481,1,0,0,0.8862,Obsidian_rect,5,0.886,1,13,0,13,0,1,,,,,,,,,,,,,
6669d148d231d550e4828b54,TCN,2024-06-24_14h46.05.728,LearnStrategy,2023.2.3,Win32,142.8571429,3,1,15,-0.02962963,0.019444444,1,0,0,0.3898,rock_grid_rect_2,3,12,-1,-1,0.39,0.075925926,-0.232407407,1,0,0,0.8634,Diorite_rect,3,0.863,1,14,0,14,0,1,,,,,,,,,,,,,
6669d148d231d550e4828b54,TCN,2024-06-24_14h46.05.728,LearnStrategy,2023.2.3,Win32,142.8571429,3,1,16,-0.075,0.002777778,1,0,0,0.3851,rock_grid_rect_2,6,08,-1,-1,0.385,-0.066666667,-0.399074074,1,0,0,1.9913,Pegmatite_rect,6,1.991,1,15,0,15,0,1,,,,,,,,,,,,,
6669d148d231d550e4828b54,TCN,2024-06-24_14h46.05.728,LearnStrategy,2023.2.3,Win32,142.8571429,3,2,1,,,,,,,,8,15,,,,,,,,,,,8,1.014,1,,,,,,0.367592593,-0.383333333,1,0,0,1.0136,Pumice_rect,0,0,0,0,1,
6669d148d231d550e4828b54,TCN,2024-06-24_14h46.05.728,LearnStrategy,2023.2.3,Win32,142.8571429,3,2,2,,,,,,,,1,03,,,,,,,,,,,1,6.857,1,,,,,,-0.335185185,-0.260185185,1,0,0,6.8571,Andesite_rect,1,0,1,0,1,
6669d148d231d550e4828b54,TCN,2024-06-24_14h46.05.728,LearnStrategy,2023.2.3,Win32,142.8571429,3,2,3,,,,,,,,8,16,,,,,,,,,,,8,1.14,1,,,,,,0.359259259,-0.398148148,1,0,0,1.1403,Pumice_rect,2,0,2,0,1,
6669d148d231d550e4828b54,TCN,2024-06-24_14h46.05.728,LearnStrategy,2023.2.3,Win32,142.8571429,3,2,4,,,,,,,,3,14,,,,,,,,,,,3,1.223,1,,,,,,0.172222222,-0.264814815,1,0,0,1.2231,Diorite_rect,3,0,3,0,1,
6669d148d231d550e4828b54,TCN,2024-06-24_14h46.05.728,LearnStrategy,2023.2.3,Win32,142.8571429,3,2,5,,,,,,,,5,11,,,,,,,,,,,5,0.789,1,,,,,,-0.357407407,-0.394444444,1,0,0,0.7893,Obsidian_rect,4,0,4,0,1,
6669d148d231d550e4828b54,TCN,2024-06-24_14h46.05.728,LearnStrategy,2023.2.3,Win32,142.8571429,3,2,6,,,,,,,,5,16,,,,,,,,,,,5,0.848,1,,,,,,-0.357407407,-0.393518519,1,0,0,0.8478,Obsidian_rect,5,0,5,0,1,
6669d148d231d550e4828b54,TCN,2024-06-24_14h46.05.728,LearnStrategy,2023.2.3,Win32,142.8571429,3,2,7,,,,,,,,3,10,,,,,,,,,,,3,1.292,1,,,,,,0.151851852,-0.260185185,1,0,0,1.2923,Diorite_rect,6,0,6,0,1,
6669d148d231d550e4828b54,TCN,2024-06-24_14h46.05.728,LearnStrategy,2023.2.3,Win32,142.8571429,3,2,8,,,,,,,,7,08,,,,,,,,,,,7,1.036,1,,,,,,0.143518519,-0.401851852,1,0,0,1.036,Peridotite_rect,7,0,7,0,1,
6669d148d231d550e4828b54,TCN,2024-06-24_14h46.05.728,LearnStrategy,2023.2.3,Win32,142.8571429,3,2,9,,,,,,,,6,06,,,,,,,,,,,7,4.898,0,,,,,,0.162037037,-0.409259259,1,0,0,4.8978,Peridotite_rect,8,0,8,0,1,
6669d148d231d550e4828b54,TCN,2024-06-24_14h46.05.728,LearnStrategy,2023.2.3,Win32,142.8571429,3,2,10,,,,,,,,7,12,,,,,,,,,,,7,1.244,1,,,,,,0.133333333,-0.415740741,1,0,0,1.2438,Peridotite_rect,9,0,9,0,1,
6669d148d231d550e4828b54,TCN,2024-06-24_14h46.05.728,LearnStrategy,2023.2.3,Win32,142.8571429,3,2,11,,,,,,,,2,12,,,,,,,,,,,8,1.938,0,,,,,,0.393518519,-0.408333333,1,0,0,1.9375,Pumice_rect,10,0,10,0,1,
6669d148d231d550e4828b54,TCN,2024-06-24_14h46.05.728,LearnStrategy,2023.2.3,Win32,142.8571429,3,2,12,,,,,,,,6,05,,,,,,,,,,,6,1.339,1,,,,,,-0.101851852,-0.402777778,1,0,0,1.3394,Pegmatite_rect,11,0,11,0,1,
6669d148d231d550e4828b54,TCN,2024-06-24_14h46.05.728,LearnStrategy,2023.2.3,Win32,142.8571429,3,2,13,,,,,,,,2,08,,,,,,,,,,,2,2.138,1,,,,,,-0.141666667,-0.244444444,1,0,0,2.1384,Basalt_rect,12,0,12,0,1,
6669d148d231d550e4828b54,TCN,2024-06-24_14h46.05.728,LearnStrategy,2023.2.3,Win32,142.8571429,3,2,14,,,,,,,,1,16,,,,,,,,,,,1,1.688,1,,,,,,-0.360185185,-0.238888889,1,0,0,1.6875,Andesite_rect,13,0,13,0,1,
6669d148d231d550e4828b54,TCN,2024-06-24_14h46.05.728,LearnStrategy,2023.2.3,Win32,142.8571429,3,2,15,,,,,,,,4,09,,,,,,,,,,,2,3.008,0,,,,,,-0.1,-0.233333333,1,0,0,3.0082,Basalt_rect,14,0,14,0,1,
6669d148d231d550e4828b54,TCN,2024-06-24_14h46.05.728,LearnStrategy,2023.2.3,Win32,142.8571429,3,2,16,,,,,,,,4,15,,,,,,,,,,,3,2.275,0,,,,,,0.092592593,-0.250925926,1,0,0,2.2746,Diorite_rect,15,0,15,0,1,
6669d148d231d550e4828b54,TCN,2024-06-24_14h46.05.728,LearnStrategy,2023.2.3,Win32,142.8571429,4,1,1,-0.010185185,0.003703704,1,0,0,0.796,rock_grid_rect_2,8,05,-1,-1,0.796,0.355555556,-0.414814815,1,0,0,0.9118,Pumice_rect,8,0.912,1,0,0,0,0,1,,,,,,,,,,,,,
6669d148d231d550e4828b54,TCN,2024-06-24_14h46.05.728,LearnStrategy,2023.2.3,Win32,142.8571429,4,1,2,0.051851852,-0.008333333,1,0,0,0.5619,rock_grid_rect_2,5,07,-1,-1,0.562,-0.378703704,-0.406481481,1,0,0,1.0607,Obsidian_rect,5,1.061,1,1,0,1,0,1,,,,,,,,,,,,,
6669d148d231d550e4828b54,TCN,2024-06-24_14h46.05.728,LearnStrategy,2023.2.3,Win32,142.8571429,4,1,3,0.065740741,0.006481481,1,0,0,0.4849,rock_grid_rect_2,4,01,-1,-1,0.485,0.393518519,-0.237037037,1,0,0,2.3421,Gabbro_rect,4,2.342,1,2,0,2,0,1,,,,,,,,,,,,,
6669d148d231d550e4828b54,TCN,2024-06-24_14h46.05.728,LearnStrategy,2023.2.3,Win32,142.8571429,4,1,4,0.024074074,0.010185185,1,0,0,0.4074,rock_grid_rect_2,1,10,-1,-1,0.407,-0.123148148,-0.384259259,1,0,0,8.0988,Pegmatite_rect,6,8.099,0,3,0,3,0,1,,,,,,,,,,,,,
6669d148d231d550e4828b54,TCN,2024-06-24_14h46.05.728,LearnStrategy,2023.2.3,Win32,142.8571429,4,1,5,0.098148148,-0.00462963,1,0,0,0.6038,rock_grid_rect_2,5,10,-1,-1,0.604,-0.357407407,-0.396296296,1,0,0,1.3403,Obsidian_rect,5,1.34,1,4,0,4,0,1,,,,,,,,,,,,,
6669d148d231d550e4828b54,TCN,2024-06-24_14h46.05.728,LearnStrategy,2023.2.3,Win32,142.8571429,4,1,6,-0.000925926,0.001851852,1,0,0,0.7901,rock_grid_rect_2,3,08,-1,-1,0.79,0.189814815,-0.248148148,1,0,0,0.9737,Diorite_rect,3,0.974,1,5,0,5,0,1,,,,,,,,,,,,,
6669d148d231d550e4828b54,TCN,2024-06-24_14h46.05.728,LearnStrategy,2023.2.3,Win32,142.8571429,4,1,7,0.073148148,-0.002777778,1,0,0,0.4706,rock_grid_rect_2,8,08,-1,-1,0.471,0.360185185,-0.405555556,1,0,0,1.4876,Pumice_rect,8,1.488,1,6,0,6,0,1,,,,,,,,,,,,,
6669d148d231d550e4828b54,TCN,2024-06-24_14h46.05.728,LearnStrategy,2023.2.3,Win32,142.8571429,4,1,8,0.048148148,0.000925926,1,0,0,0.4907,rock_grid_rect_2,2,01,-1,-1,0.491,-0.133333333,-0.260185185,1,0,0,1.2144,Basalt_rect,2,1.214,1,7,0,7,0,1,,,,,,,,,,,,,
6669d148d231d550e4828b54,TCN,2024-06-24_14h46.05.728,LearnStrategy,2023.2.3,Win32,142.8571429,4,1,9,-0.014814815,0.001851852,1,0,0,0.4152,rock_grid_rect_2,7,07,-1,-1,0.415,0.077777778,-0.387037037,1,0,0,0.9316,Peridotite_rect,7,0.932,1,8,0,8,0,1,,,,,,,,,,,,,
6669d148d231d550e4828b54,TCN,2024-06-24_14h46.05.728,LearnStrategy,2023.2.3,Win32,142.8571429,4,1,10,-0.047222222,-0.013888889,1,0,0,0.3741,rock_grid_rect_2,2,16,-1,-1,0.374,0.374074074,-0.249074074,1,0,0,1.316,Gabbro_rect,4,1.316,0,9,0,9,0,1,,,,,,,,,,,,,
6669d148d231d550e4828b54,TCN,2024-06-24_14h46.05.728,LearnStrategy,2023.2.3,Win32,142.8571429,4,1,11,0.071296296,0.007407407,1,0,0,1.3483,rock_grid_rect_2,3,12,-1,-1,1.348,0.100925926,-0.232407407,1,0,0,0.9877,Diorite_rect,3,0.988,1,10,0,10,0,1,,,,,,,,,,,,,
6669d148d231d550e4828b54,TCN,2024-06-24_14h46.05.728,LearnStrategy,2023.2.3,Win32,142.8571429,4,1,12,0.025,0.003703704,1,0,0,0.6864,rock_grid_rect_2,7,10,-1,-1,0.686,0.092592593,-0.4,1,0,0,0.8399,Peridotite_rect,7,0.84,1,11,0,11,0,1,,,,,,,,,,,,,
6669d148d231d550e4828b54,TCN,2024-06-24_14h46.05.728,LearnStrategy,2023.2.3,Win32,142.8571429,4,1,13,0.007407407,-0.00462963,1,0,0,0.5148,rock_grid_rect_2,6,15,-1,-1,0.515,-0.147222222,-0.40462963,1,0,0,1.0866,Pegmatite_rect,6,1.087,1,12,0,12,0,1,,,,,,,,,,,,,
6669d148d231d550e4828b54,TCN,2024-06-24_14h46.05.728,LearnStrategy,2023.2.3,Win32,142.8571429,4,1,14,-0.04537037,-0.015740741,1,0,0,0.5464,rock_grid_rect_2,4,13,-1,-1,0.546,0.381481481,-0.249074074,1,0,0,2.2826,Gabbro_rect,4,2.283,1,13,0,13,0,1,,,,,,,,,,,,,
6669d148d231d550e4828b54,TCN,2024-06-24_14h46.05.728,LearnStrategy,2023.2.3,Win32,142.8571429,4,1,15,-0.00462963,0.005555556,1,0,0,0.5633,rock_grid_rect_2,6,07,-1,-1,0.563,-0.130555556,-0.402777778,1,0,0,2.1121,Pegmatite_rect,6,2.112,1,14,0,14,0,1,,,,,,,,,,,,,
6669d148d231d550e4828b54,TCN,2024-06-24_14h46.05.728,LearnStrategy,2023.2.3,Win32,142.8571429,4,1,16,-0.042592593,0.002777778,1,0,0,0.4981,rock_grid_rect_2,1,11,-1,-1,0.498,-0.423148148,-0.25,1,0,0,1.1705,Andesite_rect,1,1.171,1,15,0,15,0,1,,,,,,,,,,,,,
6669d148d231d550e4828b54,TCN,2024-06-24_14h46.05.728,LearnStrategy,2023.2.3,Win32,142.8571429,4,2,1,,,,,,,,8,03,,,,,,,,,,,8,1.561,1,,,,,,0.369444444,-0.407407407,1,0,0,1.5612,Pumice_rect,0,0,0,0,1,
6669d148d231d550e4828b54,TCN,2024-06-24_14h46.05.728,LearnStrategy,2023.2.3,Win32,142.8571429,4,2,2,,,,,,,,4,09,,,,,,,,,,,2,5.585,0,,,,,,-0.132407407,-0.253703704,1,0,0,5.5845,Basalt_rect,1,0,1,0,1,
6669d148d231d550e4828b54,TCN,2024-06-24_14h46.05.728,LearnStrategy,2023.2.3,Win32,142.8571429,4,2,3,,,,,,,,5,08,,,,,,,,,,,5,1.182,1,,,,,,-0.340740741,-0.406481481,1,0,0,1.182,Obsidian_rect,2,0,2,0,1,
6669d148d231d550e4828b54,TCN,2024-06-24_14h46.05.728,LearnStrategy,2023.2.3,Win32,142.8571429,4,2,4,,,,,,,,6,11,,,,,,,,,,,6,1.063,1,,,,,,-0.088888889,-0.387037037,1,0,0,1.0625,Pegmatite_rect,3,0,3,0,1,
6669d148d231d550e4828b54,TCN,2024-06-24_14h46.05.728,LearnStrategy,2023.2.3,Win32,142.8571429,4,2,5,,,,,,,,2,05,,,,,,,,,,,2,3.75,1,,,,,,-0.09537037,-0.253703704,1,0,0,3.7503,Basalt_rect,4,0,4,0,1,
6669d148d231d550e4828b54,TCN,2024-06-24_14h46.05.728,LearnStrategy,2023.2.3,Win32,142.8571429,4,2,6,,,,,,,,3,10,,,,,,,,,,,3,2.197,1,,,,,,0.078703704,-0.251851852,1,0,0,2.1965,Diorite_rect,5,0,5,0,1,
6669d148d231d550e4828b54,TCN,2024-06-24_14h46.05.728,LearnStrategy,2023.2.3,Win32,142.8571429,4,2,7,,,,,,,,6,05,,,,,,,,,,,6,1.09,1,,,,,,-0.088888889,-0.387037037,1,0,0,1.09,Pegmatite_rect,6,0,6,0,1,
6669d148d231d550e4828b54,TCN,2024-06-24_14h46.05.728,LearnStrategy,2023.2.3,Win32,142.8571429,4,2,8,,,,,,,,1,03,,,,,,,,,,,1,2.177,1,,,,,,-0.326851852,-0.25462963,1,0,0,2.1772,Andesite_rect,7,0,7,0,1,
6669d148d231d550e4828b54,TCN,2024-06-24_14h46.05.728,LearnStrategy,2023.2.3,Win32,142.8571429,4,2,9,,,,,,,,7,16,,,,,,,,,,,7,3.657,1,,,,,,0.089814815,-0.394444444,1,0,0,3.6568,Peridotite_rect,8,0,8,0,1,
6669d148d231d550e4828b54,TCN,2024-06-24_14h46.05.728,LearnStrategy,2023.2.3,Win32,142.8571429,4,2,10,,,,,,,,8,16,,,,,,,,,,,8,1.021,1,,,,,,0.32037037,-0.410185185,1,0,0,1.0207,Pumice_rect,9,0,9,0,1,
6669d148d231d550e4828b54,TCN,2024-06-24_14h46.05.728,LearnStrategy,2023.2.3,Win32,142.8571429,4,2,11,,,,,,,,1,14,,,,,,,,,,,1,2.799,1,,,,,,-0.365740741,-0.233333333,1,0,0,2.7991,Andesite_rect,10,0,10,0,1,
6669d148d231d550e4828b54,TCN,2024-06-24_14h46.05.728,LearnStrategy,2023.2.3,Win32,142.8571429,4,2,12,,,,,,,,4,11,,,,,,,,,,,4,3.032,1,,,,,,0.425,-0.259259259,1,0,0,3.0318,Gabbro_rect,11,0,11,0,1,
6669d148d231d550e4828b54,TCN,2024-06-24_14h46.05.728,LearnStrategy,2023.2.3,Win32,142.8571429,4,2,13,,,,,,,,7,15,,,,,,,,,,,7,1.052,1,,,,,,0.124074074,-0.393518519,1,0,0,1.0524,Peridotite_rect,12,0,12,0,1,
6669d148d231d550e4828b54,TCN,2024-06-24_14h46.05.728,LearnStrategy,2023.2.3,Win32,142.8571429,4,2,14,,,,,,,,5,11,,,,,,,,,,,5,0.839,1,,,,,,-0.310185185,-0.399074074,1,0,0,0.8389,Obsidian_rect,13,0,13,0,1,
6669d148d231d550e4828b54,TCN,2024-06-24_14h46.05.728,LearnStrategy,2023.2.3,Win32,142.8571429,4,2,15,,,,,,,,2,08,,,,,,,,,,,2,1.535,1,,,,,,-0.137037037,-0.256481481,1,0,0,1.5349,Basalt_rect,14,0,14,0,1,
6669d148d231d550e4828b54,TCN,2024-06-24_14h46.05.728,LearnStrategy,2023.2.3,Win32,142.8571429,4,2,16,,,,,,,,3,13,,,,,,,,,,,3,1.25,1,,,,,,0.147222222,-0.260185185,1,0,0,1.25,Diorite_rect,15,0,15,0,1,
6669d148d231d550e4828b54,TCN,2024-06-24_14h46.05.728,LearnStrategy,2023.2.3,Win32,142.8571429,5,1,1,-0.017592593,-0.021296296,1,0,0,1.1729,rock_grid_rect_2,8,14,-1,-1,1.173,0.37037037,-0.388888889,1,0,0,0.8725,Pumice_rect,8,0.872,1,0,0,0,0,1,,,,,,,,,,,,,
6669d148d231d550e4828b54,TCN,2024-06-24_14h46.05.728,LearnStrategy,2023.2.3,Win32,142.8571429,5,1,2,0.09537037,-0.025,1,0,0,0.6658,rock_grid_rect_2,7,13,-1,-1,0.666,0.155555556,-0.393518519,1,0,0,0.892,Peridotite_rect,7,0.892,1,1,0,1,0,1,,,,,,,,,,,,,
6669d148d231d550e4828b54,TCN,2024-06-24_14h46.05.728,LearnStrategy,2023.2.3,Win32,142.8571429,5,1,3,0.017592593,0.000925926,1,0,0,0.4431,rock_grid_rect_2,2,10,-1,-1,0.443,0.350925926,-0.25,1,0,0,2.0733,Gabbro_rect,4,2.073,0,2,0,2,0,1,,,,,,,,,,,,,
6669d148d231d550e4828b54,TCN,2024-06-24_14h46.05.728,LearnStrategy,2023.2.3,Win32,142.8571429,5,1,4,0.018518519,-0.012037037,1,0,0,0.5013,rock_grid_rect_2,4,10,-1,-1,0.501,-0.099074074,-0.269444444,1,0,0,1.8272,Basalt_rect,2,1.827,0,3,0,3,0,1,,,,,,,,,,,,,
6669d148d231d550e4828b54,TCN,2024-06-24_14h46.05.728,LearnStrategy,2023.2.3,Win32,142.8571429,5,1,5,0.098148148,-0.00462963,1,0,0,0.6735,rock_grid_rect_2,8,09,-1,-1,0.673,0.396296296,-0.40462963,1,0,0,0.9383,Pumice_rect,8,0.938,1,4,0,4,0,1,,,,,,,,,,,,,
6669d148d231d550e4828b54,TCN,2024-06-24_14h46.05.728,LearnStrategy,2023.2.3,Win32,142.8571429,5,1,6,-0.027777778,-0.003703704,1,0,0,0.5691,rock_grid_rect_2,3,06,-1,-1,0.569,0.152777778,-0.259259259,1,0,0,0.9675,Diorite_rect,3,0.967,1,5,0,5,0,1,,,,,,,,,,,,,
6669d148d231d550e4828b54,TCN,2024-06-24_14h46.05.728,LearnStrategy,2023.2.3,Win32,142.8571429,5,1,7,0.080555556,-0.002777778,1,0,0,0.3529,rock_grid_rect_2,5,04,-1,-1,0.353,-0.373148148,-0.411111111,1,0,0,0.7663,Obsidian_rect,5,0.766,1,6,0,6,0,1,,,,,,,,,,,,,
6669d148d231d550e4828b54,TCN,2024-06-24_14h46.05.728,LearnStrategy,2023.2.3,Win32,142.8571429,5,1,8,0.043518519,-0.009259259,1,0,0,0.4497,rock_grid_rect_2,7,04,-1,-1,0.45,0.089814815,-0.4,1,0,0,1.6947,Peridotite_rect,7,1.695,1,7,0,7,0,1,,,,,,,,,,,,,
6669d148d231d550e4828b54,TCN,2024-06-24_14h46.05.728,LearnStrategy,2023.2.3,Win32,142.8571429,5,1,9,0.049074074,-0.023148148,1,0,0,0.7791,rock_grid_rect_2,2,04,-1,-1,0.779,-0.085185185,-0.251851852,1,0,0,3.4119,Basalt_rect,2,3.412,1,8,0,8,0,1,,,,,,,,,,,,,
6669d148d231d550e4828b54,TCN,2024-06-24_14h46.05.728,LearnStrategy,2023.2.3,Win32,142.8571429,5,1,10,0.022222222,-0.014814815,1,0,0,0.7073,rock_grid_rect_2,6,16,-1,-1,0.707,-0.10462963,-0.403703704,1,0,0,0.9749,Pegmatite_rect,6,0.975,1,9,0,9,0,1,,,,,,,,,,,,,
6669d148d231d550e4828b54,TCN,2024-06-24_14h46.05.728,LearnStrategy,2023.2.3,Win32,142.8571429,5,1,11,-0.013888889,0.003703704,1,0,0,0.4808,rock_grid_rect_2,1,07,-1,-1,0.481,-0.386111111,-0.246296296,1,0,0,0.9866,Andesite_rect,1,0.987,1,10,0,10,0,1,,,,,,,,,,,,,
6669d148d231d550e4828b54,TCN,2024-06-24_14h46.05.728,LearnStrategy,2023.2.3,Win32,142.8571429,5,1,12,0.02962963,-0.023148148,1,0,0,0.5057,rock_grid_rect_2,1,09,-1,-1,0.506,-0.384259259,-0.233333333,1,0,0,1.0949,Andesite_rect,1,1.095,1,11,0,11,0,1,,,,,,,,,,,,,
6669d148d231d550e4828b54,TCN,2024-06-24_14h46.05.728,LearnStrategy,2023.2.3,Win32,142.8571429,5,1,13,0.040740741,-0.000925926,1,0,0,0.6668,rock_grid_rect_2,5,02,-1,-1,0.667,-0.396296296,-0.387962963,1,0,0,0.8051,Obsidian_rect,5,0.805,1,12,0,12,0,1,,,,,,,,,,,,,
6669d148d231d550e4828b54,TCN,2024-06-24_14h46.05.728,LearnStrategy,2023.2.3,Win32,142.8571429,5,1,14,0.016666667,-0.001851852,1,0,0,0.4424,rock_grid_rect_2,6,12,-1,-1,0.442,-0.125,-0.380555556,1,0,0,1.0118,Pegmatite_rect,6,1.012,1,13,0,13,0,1,,,,,,,,,,,,,
6669d148d231d550e4828b54,TCN,2024-06-24_14h46.05.728,LearnStrategy,2023.2.3,Win32,142.8571429,5,1,15,0,-0.012037037,1,0,0,0.3675,rock_grid_rect_2,4,16,-1,-1,0.367,0.431481481,-0.244444444,1,0,0,1.2231,Gabbro_rect,4,1.223,1,14,0,14,0,1,,,,,,,,,,,,,
6669d148d231d550e4828b54,TCN,2024-06-24_14h46.05.728,LearnStrategy,2023.2.3,Win32,142.8571429,5,1,16,0.031481481,-0.012037037,1,0,0,0.4092,rock_grid_rect_2,3,11,-1,-1,0.409,0.138888889,-0.252777778,1,0,0,1.2706,Diorite_rect,3,1.271,1,15,0,15,0,1,,,,,,,,,,,,,
6669d148d231d550e4828b54,TCN,2024-06-24_14h46.05.728,LearnStrategy,2023.2.3,Win32,142.8571429,5,2,1,,,,,,,,7,02,,,,,,,,,,,7,1.024,1,,,,,,0.102777778,-0.396296296,1,0,0,1.0244,Peridotite_rect,0,0,0,0,1,
6669d148d231d550e4828b54,TCN,2024-06-24_14h46.05.728,LearnStrategy,2023.2.3,Win32,142.8571429,5,2,2,,,,,,,,8,15,,,,,,,,,,,8,1.015,1,,,,,,0.357407407,-0.392592593,1,0,0,1.0149,Pumice_rect,1,0,1,0,1,
6669d148d231d550e4828b54,TCN,2024-06-24_14h46.05.728,LearnStrategy,2023.2.3,Win32,142.8571429,5,2,3,,,,,,,,8,13,,,,,,,,,,,8,0.84,1,,,,,,0.373148148,-0.393518519,1,0,0,0.84,Pumice_rect,2,0,2,0,1,
6669d148d231d550e4828b54,TCN,2024-06-24_14h46.05.728,LearnStrategy,2023.2.3,Win32,142.8571429,5,2,4,,,,,,,,6,13,,,,,,,,,,,6,2.287,1,,,,,,-0.107407407,-0.387962963,1,0,0,2.2866,Pegmatite_rect,3,0,3,0,1,
6669d148d231d550e4828b54,TCN,2024-06-24_14h46.05.728,LearnStrategy,2023.2.3,Win32,142.8571429,5,2,5,,,,,,,,3,15,,,,,,,,,,,3,0.934,1,,,,,,0.10462963,-0.25,1,0,0,0.9338,Diorite_rect,4,0,4,0,1,
6669d148d231d550e4828b54,TCN,2024-06-24_14h46.05.728,LearnStrategy,2023.2.3,Win32,142.8571429,5,2,6,,,,,,,,2,09,,,,,,,,,,,2,2.462,1,,,,,,-0.092592593,-0.237037037,1,0,0,2.4617,Basalt_rect,5,0,5,0,1,
6669d148d231d550e4828b54,TCN,2024-06-24_14h46.05.728,LearnStrategy,2023.2.3,Win32,142.8571429,5,2,7,,,,,,,,1,06,,,,,,,,,,,1,1.001,1,,,,,,-0.363888889,-0.259259259,1,0,0,1.0014,Andesite_rect,6,0,6,0,1,
6669d148d231d550e4828b54,TCN,2024-06-24_14h46.05.728,LearnStrategy,2023.2.3,Win32,142.8571429,5,2,8,,,,,,,,7,12,,,,,,,,,,,7,1.032,1,,,,,,0.088888889,-0.406481481,1,0,0,1.0324,Peridotite_rect,7,0,7,0,1,
6669d148d231d550e4828b54,TCN,2024-06-24_14h46.05.728,LearnStrategy,2023.2.3,Win32,142.8571429,5,2,9,,,,,,,,4,08,,,,,,,,,,,4,1.55,1,,,,,,0.378703704,-0.253703704,1,0,0,1.5503,Gabbro_rect,8,0,8,0,1,
6669d148d231d550e4828b54,TCN,2024-06-24_14h46.05.728,LearnStrategy,2023.2.3,Win32,142.8571429,5,2,10,,,,,,,,2,14,,,,,,,,,,,8,1.243,0,,,,,,0.336111111,-0.396296296,1,0,0,1.2435,Pumice_rect,9,0,9,0,1,
6669d148d231d550e4828b54,TCN,2024-06-24_14h46.05.728,LearnStrategy,2023.2.3,Win32,142.8571429,5,2,11,,,,,,,,5,16,,,,,,,,,,,5,0.901,1,,,,,,-0.409259259,-0.393518519,1,0,0,0.9012,Obsidian_rect,10,0,10,0,1,
6669d148d231d550e4828b54,TCN,2024-06-24_14h46.05.728,LearnStrategy,2023.2.3,Win32,142.8571429,5,2,12,,,,,,,,6,10,,,,,,,,,,,6,8.279,1,,,,,,-0.067592593,-0.416666667,1,0,0,8.2792,Pegmatite_rect,11,0,11,0,1,
6669d148d231d550e4828b54,TCN,2024-06-24_14h46.05.728,LearnStrategy,2023.2.3,Win32,142.8571429,5,2,13,,,,,,,,5,06,,,,,,,,,,,5,1.226,1,,,,,,-0.37037037,-0.4,1,0,0,1.2264,Obsidian_rect,12,0,12,0,1,
6669d148d231d550e4828b54,TCN,2024-06-24_14h46.05.728,LearnStrategy,2023.2.3,Win32,142.8571429,5,2,14,,,,,,,,3,14,,,,,,,,,,,3,1.072,1,,,,,,0.177777778,-0.253703704,1,0,0,1.0719,Diorite_rect,13,0,13,0,1,
6669d148d231d550e4828b54,TCN,2024-06-24_14h46.05.728,LearnStrategy,2023.2.3,Win32,142.8571429,5,2,15,,,,,,,,4,03,,,,,,,,,,,3,7.447,0,,,,,,0.136111111,-0.252777778,1,0,0,7.4467,Diorite_rect,14,0,14,0,1,
6669d148d231d550e4828b54,TCN,2024-06-24_14h46.05.728,LearnStrategy,2023.2.3,Win32,142.8571429,5,2,16,,,,,,,,1,05,,,,,,,,,,,1,1.282,1,,,,,,-0.363888889,-0.249074074,1,0,0,1.2825,Andesite_rect,15,0,15,0,1,
6669d148d231d550e4828b54,TCN,2024-06-24_14h46.05.728,LearnStrategy,2023.2.3,Win32,142.8571429,6,1,1,-0.056481481,-0.00462963,1,0,0,0.8117,rock_grid_rect_2,1,01,-1,-1,0.812,-0.412962963,-0.239814815,1,0,0,4.9744,Andesite_rect,1,4.974,1,0,0,0,0,1,,,,,,,,,,,,,
6669d148d231d550e4828b54,TCN,2024-06-24_14h46.05.728,LearnStrategy,2023.2.3,Win32,142.8571429,6,1,2,-0.017592593,0.010185185,1,0,0,0.6343,rock_grid_rect_2,3,07,-1,-1,0.634,0.151851852,-0.268518519,1,0,0,0.885,Diorite_rect,3,0.885,1,1,0,1,0,1,,,,,,,,,,,,,
6669d148d231d550e4828b54,TCN,2024-06-24_14h46.05.728,LearnStrategy,2023.2.3,Win32,142.8571429,6,1,3,0.05,-0.007407407,1,0,0,0.3417,rock_grid_rect_2,5,12,-1,-1,0.342,-0.421296296,-0.406481481,1,0,0,0.8924,Obsidian_rect,5,0.892,1,2,0,2,0,1,,,,,,,,,,,,,
6669d148d231d550e4828b54,TCN,2024-06-24_14h46.05.728,LearnStrategy,2023.2.3,Win32,142.8571429,6,1,4,-0.041666667,-0.00462963,1,0,0,0.6387,rock_grid_rect_2,6,09,-1,-1,0.639,-0.139814815,-0.403703704,1,0,0,1.0003,Pegmatite_rect,6,1,1,3,0,3,0,1,,,,,,,,,,,,,
6669d148d231d550e4828b54,TCN,2024-06-24_14h46.05.728,LearnStrategy,2023.2.3,Win32,142.8571429,6,1,5,-0.015740741,-0.014814815,1,0,0,0.5751,rock_grid_rect_2,2,02,-1,-1,0.575,-0.109259259,-0.258333333,1,0,0,1.7895,Basalt_rect,2,1.789,1,4,0,4,0,1,,,,,,,,,,,,,
6669d148d231d550e4828b54,TCN,2024-06-24_14h46.05.728,LearnStrategy,2023.2.3,Win32,142.8571429,6,1,6,-0.010185185,0.014814815,1,0,0,0.6097,rock_grid_rect_2,8,06,-1,-1,0.61,0.392592593,-0.405555556,1,0,0,0.758,Pumice_rect,8,0.758,1,5,0,5,0,1,,,,,,,,,,,,,
6669d148d231d550e4828b54,TCN,2024-06-24_14h46.05.728,LearnStrategy,2023.2.3,Win32,142.8571429,6,1,7,0.023148148,-0.002777778,1,0,0,0.4717,rock_grid_rect_2,5,09,-1,-1,0.472,-0.312037037,-0.405555556,1,0,0,1.1773,Obsidian_rect,5,1.177,1,6,0,6,0,1,,,,,,,,,,,,,
6669d148d231d550e4828b54,TCN,2024-06-24_14h46.05.728,LearnStrategy,2023.2.3,Win32,142.8571429,6,1,8,0.008333333,-0.02037037,1,0,0,0.4158,rock_grid_rect_2,7,14,-1,-1,0.416,0.088888889,-0.421296296,1,0,0,2.2792,Peridotite_rect,7,2.279,1,7,0,7,0,1,,,,,,,,,,,,,
6669d148d231d550e4828b54,TCN,2024-06-24_14h46.05.728,LearnStrategy,2023.2.3,Win32,142.8571429,6,1,9,0.02037037,-0.005555556,1,0,0,0.4154,rock_grid_rect_2,4,14,-1,-1,0.415,0.39537037,-0.258333333,1,0,0,1.266,Gabbro_rect,4,1.266,1,8,0,8,0,1,,,,,,,,,,,,,
6669d148d231d550e4828b54,TCN,2024-06-24_14h46.05.728,LearnStrategy,2023.2.3,Win32,142.8571429,6,1,10,0.061111111,-0.013888889,1,0,0,0.4773,rock_grid_rect_2,7,05,-1,-1,0.477,0.124074074,-0.408333333,1,0,0,1.1909,Peridotite_rect,7,1.191,1,9,0,9,0,1,,,,,,,,,,,,,
6669d148d231d550e4828b54,TCN,2024-06-24_14h46.05.728,LearnStrategy,2023.2.3,Win32,142.8571429,6,1,11,0.057407407,-0.002777778,1,0,0,0.6022,rock_grid_rect_2,6,08,-1,-1,0.602,-0.078703704,-0.406481481,1,0,0,0.9691,Pegmatite_rect,6,0.969,1,10,0,10,0,1,,,,,,,,,,,,,
6669d148d231d550e4828b54,TCN,2024-06-24_14h46.05.728,LearnStrategy,2023.2.3,Win32,142.8571429,6,1,12,0.072222222,0.018518519,1,0,0,0.4527,rock_grid_rect_2,8,10,-1,-1,0.453,0.361111111,-0.400925926,1,0,0,1.3932,Pumice_rect,8,1.393,1,11,0,11,0,1,,,,,,,,,,,,,
6669d148d231d550e4828b54,TCN,2024-06-24_14h46.05.728,LearnStrategy,2023.2.3,Win32,142.8571429,6,1,13,0.025925926,0.006481481,1,0,0,0.4643,rock_grid_rect_2,4,12,-1,-1,0.464,0.422222222,-0.249074074,1,0,0,2.0706,Gabbro_rect,4,2.071,1,12,0,12,0,1,,,,,,,,,,,,,
6669d148d231d550e4828b54,TCN,2024-06-24_14h46.05.728,LearnStrategy,2023.2.3,Win32,142.8571429,6,1,14,0.088888889,0.014814815,1,0,0,0.7528,rock_grid_rect_2,2,11,-1,-1,0.753,0.34537037,-0.411111111,1,0,0,1.1504,Pumice_rect,8,1.15,0,13,0,13,0,1,,,,,,,,,,,,,
6669d148d231d550e4828b54,TCN,2024-06-24_14h46.05.728,LearnStrategy,2023.2.3,Win32,142.8571429,6,1,15,0.167592593,0.002777778,1,0,0,0.7326,rock_grid_rect_2,3,16,-1,-1,0.733,0.169444444,-0.253703704,1,0,0,1.8831,Diorite_rect,3,1.883,1,14,0,14,0,1,,,,,,,,,,,,,
6669d148d231d550e4828b54,TCN,2024-06-24_14h46.05.728,LearnStrategy,2023.2.3,Win32,142.8571429,6,1,16,0.135185185,-0.005555556,1,0,0,0.5892,rock_grid_rect_2,1,04,-1,-1,0.589,-0.307407407,-0.252777778,1,0,0,1.1118,Andesite_rect,1,1.112,1,15,0,15,0,1,,,,,,,,,,,,,
6669d148d231d550e4828b54,TCN,2024-06-24_14h46.05.728,LearnStrategy,2023.2.3,Win32,142.8571429,6,2,1,,,,,,,,7,06,,,,,,,,,,,7,3.312,1,,,,,,0.065740741,-0.411111111,1,0,0,3.3121,Peridotite_rect,0,0,0,0,1,
6669d148d231d550e4828b54,TCN,2024-06-24_14h46.05.728,LearnStrategy,2023.2.3,Win32,142.8571429,6,2,2,,,,,,,,7,08,,,,,,,,,,,7,0.869,1,,,,,,0.063888889,-0.389814815,1,0,0,0.8693,Peridotite_rect,1,0,1,0,1,
6669d148d231d550e4828b54,TCN,2024-06-24_14h46.05.728,LearnStrategy,2023.2.3,Win32,142.8571429,6,2,3,,,,,,,,2,12,,,,,,,,,,,8,1.738,0,,,,,,0.346296296,-0.417592593,1,0,0,1.7379,Pumice_rect,2,0,2,0,1,
6669d148d231d550e4828b54,TCN,2024-06-24_14h46.05.728,LearnStrategy,2023.2.3,Win32,142.8571429,6,2,4,,,,,,,,5,14,,,,,,,,,,,5,0.944,1,,,,,,-0.403703704,-0.378703704,1,0,0,0.9436,Obsidian_rect,3,0,3,0,1,
6669d148d231d550e4828b54,TCN,2024-06-24_14h46.05.728,LearnStrategy,2023.2.3,Win32,142.8571429,6,2,5,,,,,,,,6,03,,,,,,,,,,,7,1.934,0,,,,,,0.135185185,-0.396296296,1,0,0,1.9337,Peridotite_rect,4,0,4,0,1,
6669d148d231d550e4828b54,TCN,2024-06-24_14h46.05.728,LearnStrategy,2023.2.3,Win32,142.8571429,6,2,6,,,,,,,,5,05,,,,,,,,,,,5,1.207,1,,,,,,-0.357407407,-0.407407407,1,0,0,1.2072,Obsidian_rect,5,0,5,0,1,
6669d148d231d550e4828b54,TCN,2024-06-24_14h46.05.728,LearnStrategy,2023.2.3,Win32,142.8571429,6,2,7,,,,,,,,1,02,,,,,,,,,,,1,7.591,1,,,,,,-0.371296296,-0.25462963,1,0,0,7.5911,Andesite_rect,6,0,6,0,1,
6669d148d231d550e4828b54,TCN,2024-06-24_14h46.05.728,LearnStrategy,2023.2.3,Win32,142.8571429,6,2,8,,,,,,,,3,09,,,,,,,,,,,3,0.863,1,,,,,,0.217592593,-0.252777778,1,0,0,0.8629,Diorite_rect,7,0,7,0,1,
6669d148d231d550e4828b54,TCN,2024-06-24_14h46.05.728,LearnStrategy,2023.2.3,Win32,142.8571429,6,2,9,,,,,,,,4,05,,,,,,,,,,,4,0.871,1,,,,,,0.326851852,-0.240740741,1,0,0,0.8713,Gabbro_rect,8,0,8,0,1,
6669d148d231d550e4828b54,TCN,2024-06-24_14h46.05.728,LearnStrategy,2023.2.3,Win32,142.8571429,6,2,10,,,,,,,,8,04,,,,,,,,,,,8,0.836,1,,,,,,0.342592593,-0.390740741,1,0,0,0.8357,Pumice_rect,9,0,9,0,1,
6669d148d231d550e4828b54,TCN,2024-06-24_14h46.05.728,LearnStrategy,2023.2.3,Win32,142.8571429,6,2,11,,,,,,,,8,02,,,,,,,,,,,8,1.064,1,,,,,,0.35462963,-0.387962963,1,0,0,1.0638,Pumice_rect,10,0,10,0,1,
6669d148d231d550e4828b54,TCN,2024-06-24_14h46.05.728,LearnStrategy,2023.2.3,Win32,142.8571429,6,2,12,,,,,,,,4,15,,,,,,,,,,,4,1.352,1,,,,,,0.352777778,-0.239814815,1,0,0,1.3517,Gabbro_rect,11,0,11,0,1,
6669d148d231d550e4828b54,TCN,2024-06-24_14h46.05.728,LearnStrategy,2023.2.3,Win32,142.8571429,6,2,13,,,,,,,,3,02,,,,,,,,,,,3,1.935,1,,,,,,0.089814815,-0.238888889,1,0,0,1.9351,Diorite_rect,12,0,12,0,1,
6669d148d231d550e4828b54,TCN,2024-06-24_14h46.05.728,LearnStrategy,2023.2.3,Win32,142.8571429,6,2,14,,,,,,,,1,16,,,,,,,,,,,1,1.225,1,,,,,,-0.386111111,-0.24537037,1,0,0,1.225,Andesite_rect,13,0,13,0,1,
6669d148d231d550e4828b54,TCN,2024-06-24_14h46.05.728,LearnStrategy,2023.2.3,Win32,142.8571429,6,2,15,,,,,,,,6,06,,,,,,,,,,,7,2.112,0,,,,,,0.101851852,-0.39537037,1,0,0,2.1119,Peridotite_rect,14,0,14,0,1,
6669d148d231d550e4828b54,TCN,2024-06-24_14h46.05.728,LearnStrategy,2023.2.3,Win32,142.8571429,6,2,16,,,,,,,,2,06,,,,,,,,,,,2,1.894,1,,,,,,-0.123148148,-0.244444444,1,0,0,1.894,Basalt_rect,15,0,15,0,1,
6669d148d231d550e4828b54,TCN,2024-06-24_14h46.05.728,LearnStrategy,2023.2.3,Win32,142.8571429,7,1,1,0.038888889,0.00462963,1,0,0,0.8667,rock_grid_rect_2,1,01,-1,-1,0.867,-0.367592593,-0.238888889,1,0,0,1.4542,Andesite_rect,1,1.454,1,0,0,0,0,1,,,,,,,,,,,,,
6669d148d231d550e4828b54,TCN,2024-06-24_14h46.05.728,LearnStrategy,2023.2.3,Win32,142.8571429,7,1,2,-0.026851852,0,1,0,0,0.6105,rock_grid_rect_2,7,04,-1,-1,0.611,0.114814815,-0.415740741,1,0,0,1.0033,Peridotite_rect,7,1.003,1,1,0,1,0,1,,,,,,,,,,,,,
6669d148d231d550e4828b54,TCN,2024-06-24_14h46.05.728,LearnStrategy,2023.2.3,Win32,142.8571429,7,1,3,-0.001851852,0.000925926,1,0,0,0.4772,rock_grid_rect_2,4,10,-1,-1,0.477,0.383333333,-0.249074074,1,0,0,1.3653,Gabbro_rect,4,1.365,1,2,0,2,0,1,,,,,,,,,,,,,
6669d148d231d550e4828b54,TCN,2024-06-24_14h46.05.728,LearnStrategy,2023.2.3,Win32,142.8571429,7,1,4,0.064814815,0.022222222,1,0,0,0.4776,rock_grid_rect_2,2,10,-1,-1,0.478,0.372222222,-0.262037037,1,0,0,2.0752,Gabbro_rect,4,2.075,0,3,0,3,0,1,,,,,,,,,,,,,
6669d148d231d550e4828b54,TCN,2024-06-24_14h46.05.728,LearnStrategy,2023.2.3,Win32,142.8571429,7,1,5,0.003703704,0.012962963,1,0,0,0.7764,rock_grid_rect_2,3,12,-1,-1,0.776,0.124074074,-0.258333333,1,0,0,0.7055,Diorite_rect,3,0.705,1,4,0,4,0,1,,,,,,,,,,,,,
6669d148d231d550e4828b54,TCN,2024-06-24_14h46.05.728,LearnStrategy,2023.2.3,Win32,142.8571429,7,1,6,-0.013888889,0,1,0,0,0.5347,rock_grid_rect_2,8,09,-1,-1,0.535,0.342592593,-0.389814815,1,0,0,0.8713,Pumice_rect,8,0.871,1,5,0,5,0,1,,,,,,,,,,,,,
6669d148d231d550e4828b54,TCN,2024-06-24_14h46.05.728,LearnStrategy,2023.2.3,Win32,142.8571429,7,1,7,0.023148148,-0.009259259,1,0,0,0.4091,rock_grid_rect_2,2,11,-1,-1,0.409,-0.152777778,-0.244444444,1,0,0,2.2591,Basalt_rect,2,2.259,1,6,0,6,0,1,,,,,,,,,,,,,
6669d148d231d550e4828b54,TCN,2024-06-24_14h46.05.728,LearnStrategy,2023.2.3,Win32,142.8571429,7,1,8,-0.002777778,-0.021296296,1,0,0,0.5014,rock_grid_rect_2,3,11,-1,-1,0.501,0.148148148,-0.265740741,1,0,0,0.9389,Diorite_rect,3,0.939,1,7,0,7,0,1,,,,,,,,,,,,,
6669d148d231d550e4828b54,TCN,2024-06-24_14h46.05.728,LearnStrategy,2023.2.3,Win32,142.8571429,7,1,9,0.056481481,0.002777778,1,0,0,0.381,rock_grid_rect_2,5,04,-1,-1,0.381,-0.350925926,-0.393518519,1,0,0,0.8651,Obsidian_rect,5,0.865,1,8,0,8,0,1,,,,,,,,,,,,,
6669d148d231d550e4828b54,TCN,2024-06-24_14h46.05.728,LearnStrategy,2023.2.3,Win32,142.8571429,7,1,10,0.026851852,-0.007407407,1,0,0,0.5017,rock_grid_rect_2,6,08,-1,-1,0.502,-0.138888889,-0.401851852,1,0,0,1.3201,Pegmatite_rect,6,1.32,1,9,0,9,0,1,,,,,,,,,,,,,
6669d148d231d550e4828b54,TCN,2024-06-24_14h46.05.728,LearnStrategy,2023.2.3,Win32,142.8571429,7,1,11,0.087962963,0,1,0,0,0.4452,rock_grid_rect_2,1,10,-1,-1,0.445,-0.32962963,-0.234259259,1,0,0,1.634,Andesite_rect,1,1.634,1,10,0,10,0,1,,,,,,,,,,,,,
6669d148d231d550e4828b54,TCN,2024-06-24_14h46.05.728,LearnStrategy,2023.2.3,Win32,142.8571429,7,1,12,0.074074074,-0.009259259,1,0,0,0.4453,rock_grid_rect_2,7,05,-1,-1,0.445,0.199074074,-0.397222222,1,0,0,1.0169,Peridotite_rect,7,1.017,1,11,0,11,0,1,,,,,,,,,,,,,
6669d148d231d550e4828b54,TCN,2024-06-24_14h46.05.728,LearnStrategy,2023.2.3,Win32,142.8571429,7,1,13,0.037962963,0.018518519,1,0,0,0.3604,rock_grid_rect_2,4,12,-1,-1,0.36,0.447222222,-0.248148148,1,0,0,1.6921,Gabbro_rect,4,1.692,1,12,0,12,0,1,,,,,,,,,,,,,
6669d148d231d550e4828b54,TCN,2024-06-24_14h46.05.728,LearnStrategy,2023.2.3,Win32,142.8571429,7,1,14,0.006481481,-0.007407407,1,0,0,0.4571,rock_grid_rect_2,5,09,-1,-1,0.457,-0.383333333,-0.401851852,1,0,0,0.8154,Obsidian_rect,5,0.815,1,13,0,13,0,1,,,,,,,,,,,,,
6669d148d231d550e4828b54,TCN,2024-06-24_14h46.05.728,LearnStrategy,2023.2.3,Win32,142.8571429,7,1,15,-0.064814815,0.017592593,1,0,0,0.4157,rock_grid_rect_2,6,15,-1,-1,0.416,-0.126851852,-0.401851852,1,0,0,0.8571,Pegmatite_rect,6,0.857,1,14,0,14,0,1,,,,,,,,,,,,,
6669d148d231d550e4828b54,TCN,2024-06-24_14h46.05.728,LearnStrategy,2023.2.3,Win32,142.8571429,7,1,16,0.04537037,0.001851852,1,0,0,0.4504,rock_grid_rect_2,8,06,-1,-1,0.45,0.45,-0.4,1,0,0,1.4526,Pumice_rect,8,1.453,1,15,0,15,0,1,,,,,,,,,,,,,
6669d148d231d550e4828b54,TCN,2024-06-24_14h46.05.728,LearnStrategy,2023.2.3,Win32,142.8571429,7,2,1,,,,,,,,5,05,,,,,,,,,,,5,0.986,1,,,,,,-0.362962963,-0.400925926,1,0,0,0.9858,Obsidian_rect,0,0,0,0,1,
6669d148d231d550e4828b54,TCN,2024-06-24_14h46.05.728,LearnStrategy,2023.2.3,Win32,142.8571429,7,2,2,,,,,,,,3,10,,,,,,,,,,,3,1.381,1,,,,,,0.07962963,-0.250925926,1,0,0,1.381,Diorite_rect,1,0,1,0,1,
6669d148d231d550e4828b54,TCN,2024-06-24_14h46.05.728,LearnStrategy,2023.2.3,Win32,142.8571429,7,2,3,,,,,,,,4,08,,,,,,,,,,,4,2.21,1,,,,,,0.332407407,-0.238888889,1,0,0,2.2099,Gabbro_rect,2,0,2,0,1,
6669d148d231d550e4828b54,TCN,2024-06-24_14h46.05.728,LearnStrategy,2023.2.3,Win32,142.8571429,7,2,4,,,,,,,,4,09,,,,,,,,,,,4,1.287,1,,,,,,0.360185185,-0.251851852,1,0,0,1.2874,Gabbro_rect,3,0,3,0,1,
6669d148d231d550e4828b54,TCN,2024-06-24_14h46.05.728,LearnStrategy,2023.2.3,Win32,142.8571429,7,2,5,,,,,,,,7,02,,,,,,,,,,,7,0.93,1,,,,,,0.14537037,-0.402777778,1,0,0,0.9304,Peridotite_rect,4,0,4,0,1,
6669d148d231d550e4828b54,TCN,2024-06-24_14h46.05.728,LearnStrategy,2023.2.3,Win32,142.8571429,7,2,6,,,,,,,,3,14,,,,,,,,,,,3,0.752,1,,,,,,0.159259259,-0.25462963,1,0,0,0.7519,Diorite_rect,5,0,5,0,1,
6669d148d231d550e4828b54,TCN,2024-06-24_14h46.05.728,LearnStrategy,2023.2.3,Win32,142.8571429,7,2,7,,,,,,,,6,06,,,,,,,,,,,6,3.1,1,,,,,,-0.058333333,-0.417592593,1,0,0,3.0996,Pegmatite_rect,6,0,6,0,1,
6669d148d231d550e4828b54,TCN,2024-06-24_14h46.05.728,LearnStrategy,2023.2.3,Win32,142.8571429,7,2,8,,,,,,,,6,05,,,,,,,,,,,6,3.022,1,,,,,,-0.058333333,-0.417592593,1,0,0,3.0225,Pegmatite_rect,7,0,7,0,1,
6669d148d231d550e4828b54,TCN,2024-06-24_14h46.05.728,LearnStrategy,2023.2.3,Win32,142.8571429,7,2,9,,,,,,,,1,02,,,,,,,,,,,1,5.417,1,,,,,,-0.387037037,-0.259259259,1,0,0,5.4172,Andesite_rect,8,0,8,0,1,
6669d148d231d550e4828b54,TCN,2024-06-24_14h46.05.728,LearnStrategy,2023.2.3,Win32,142.8571429,7,2,10,,,,,,,,2,09,,,,,,,,,,,2,2.555,1,,,,,,-0.168518519,-0.243518519,1,0,0,2.5549,Basalt_rect,9,0,9,0,1,
6669d148d231d550e4828b54,TCN,2024-06-24_14h46.05.728,LearnStrategy,2023.2.3,Win32,142.8571429,7,2,11,,,,,,,,2,14,,,,,,,,,,,8,2.929,0,,,,,,0.37962963,-0.389814815,1,0,0,2.9287,Pumice_rect,10,0,10,0,1,
6669d148d231d550e4828b54,TCN,2024-06-24_14h46.05.728,LearnStrategy,2023.2.3,Win32,142.8571429,7,2,12,,,,,,,,1,14,,,,,,,,,,,1,1.914,1,,,,,,-0.377777778,-0.251851852,1,0,0,1.9142,Andesite_rect,11,0,11,0,1,
6669d148d231d550e4828b54,TCN,2024-06-24_14h46.05.728,LearnStrategy,2023.2.3,Win32,142.8571429,7,2,13,,,,,,,,5,16,,,,,,,,,,,5,1.149,1,,,,,,-0.367592593,-0.417592593,1,0,0,1.1485,Obsidian_rect,12,0,12,0,1,
6669d148d231d550e4828b54,TCN,2024-06-24_14h46.05.728,LearnStrategy,2023.2.3,Win32,142.8571429,7,2,14,,,,,,,,7,12,,,,,,,,,,,7,2.541,1,,,,,,0.15462963,-0.397222222,1,0,0,2.5406,Peridotite_rect,13,0,13,0,1,
6669d148d231d550e4828b54,TCN,2024-06-24_14h46.05.728,LearnStrategy,2023.2.3,Win32,142.8571429,7,2,15,,,,,,,,8,02,,,,,,,,,,,8,0.75,1,,,,,,0.308333333,-0.399074074,1,0,0,0.7499,Pumice_rect,14,0,14,0,1,
6669d148d231d550e4828b54,TCN,2024-06-24_14h46.05.728,LearnStrategy,2023.2.3,Win32,142.8571429,7,2,16,,,,,,,,8,16,,,,,,,,,,,8,0.96,1,,,,,,0.308333333,-0.397222222,1,0,0,0.9604,Pumice_rect,15,0,15,0,1,
6669d148d231d550e4828b54,TCN,2024-06-24_14h46.05.728,LearnStrategy,2023.2.3,Win32,142.8571429,8,1,1,-0.011111111,0.011111111,1,0,0,1.02,rock_grid_rect_2,5,07,-1,-1,1.02,-0.376851852,-0.390740741,1,0,0,1.0167,Obsidian_rect,5,1.017,1,0,0,0,0,1,,,,,,,,,,,,,
6669d148d231d550e4828b54,TCN,2024-06-24_14h46.05.728,LearnStrategy,2023.2.3,Win32,142.8571429,8,1,2,0.038888889,-0.001851852,1,0,0,0.7284,rock_grid_rect_2,6,09,-1,-1,0.728,-0.169444444,-0.390740741,1,0,0,1.0607,Pegmatite_rect,6,1.061,1,1,0,1,0,1,,,,,,,,,,,,,
6669d148d231d550e4828b54,TCN,2024-06-24_14h46.05.728,LearnStrategy,2023.2.3,Win32,142.8571429,8,1,3,0.053703704,-0.016666667,1,0,0,0.471,rock_grid_rect_2,2,04,-1,-1,0.471,-0.082407407,-0.247222222,1,0,0,1.8975,Basalt_rect,2,1.897,1,2,0,2,0,1,,,,,,,,,,,,,
6669d148d231d550e4828b54,TCN,2024-06-24_14h46.05.728,LearnStrategy,2023.2.3,Win32,142.8571429,8,1,4,0.012037037,-0.018518519,1,0,0,0.3837,rock_grid_rect_2,6,07,-1,-1,0.384,-0.117592593,-0.386111111,1,0,0,1.0783,Pegmatite_rect,6,1.078,1,3,0,3,0,1,,,,,,,,,,,,,
6669d148d231d550e4828b54,TCN,2024-06-24_14h46.05.728,LearnStrategy,2023.2.3,Win32,142.8571429,8,1,5,0,-0.019444444,1,0,0,0.4431,rock_grid_rect_2,4,01,-1,-1,0.443,0.374074074,-0.238888889,1,0,0,2.5718,Gabbro_rect,4,2.572,1,4,0,4,0,1,,,,,,,,,,,,,
6669d148d231d550e4828b54,TCN,2024-06-24_14h46.05.728,LearnStrategy,2023.2.3,Win32,142.8571429,8,1,6,-0.010185185,0.017592593,1,0,0,0.4394,rock_grid_rect_2,1,09,-1,-1,0.439,-0.428703704,-0.25,1,0,0,1.1114,Andesite_rect,1,1.111,1,5,0,5,0,1,,,,,,,,,,,,,
6669d148d231d550e4828b54,TCN,2024-06-24_14h46.05.728,LearnStrategy,2023.2.3,Win32,142.8571429,8,1,7,0.005555556,-0.002777778,1,0,0,0.3809,rock_grid_rect_2,3,16,-1,-1,0.381,0.099074074,-0.252777778,1,0,0,0.947,Diorite_rect,3,0.947,1,6,0,6,0,1,,,,,,,,,,,,,
6669d148d231d550e4828b54,TCN,2024-06-24_14h46.05.728,LearnStrategy,2023.2.3,Win32,142.8571429,8,1,8,0.015740741,-0.005555556,1,0,0,0.3524,rock_grid_rect_2,8,10,-1,-1,0.352,0.332407407,-0.414814815,1,0,0,0.8097,Pumice_rect,8,0.81,1,7,0,7,0,1,,,,,,,,,,,,,
6669d148d231d550e4828b54,TCN,2024-06-24_14h46.05.728,LearnStrategy,2023.2.3,Win32,142.8571429,8,1,9,0.050925926,-0.02037037,1,0,0,0.4362,rock_grid_rect_2,4,16,-1,-1,0.436,0.35,-0.236111111,1,0,0,1.7936,Gabbro_rect,4,1.794,1,8,0,8,0,1,,,,,,,,,,,,,
6669d148d231d550e4828b54,TCN,2024-06-24_14h46.05.728,LearnStrategy,2023.2.3,Win32,142.8571429,8,1,10,0.094444444,0.000925926,1,0,0,0.3444,rock_grid_rect_2,5,12,-1,-1,0.344,-0.418518519,-0.412037037,1,0,0,0.8801,Obsidian_rect,5,0.88,1,9,0,9,0,1,,,,,,,,,,,,,
6669d148d231d550e4828b54,TCN,2024-06-24_14h46.05.728,LearnStrategy,2023.2.3,Win32,142.8571429,8,1,11,0.015740741,-0.00462963,1,0,0,0.3467,rock_grid_rect_2,7,07,-1,-1,0.347,0.153703704,-0.408333333,1,0,0,1.6335,Peridotite_rect,7,1.634,1,10,0,10,0,1,,,,,,,,,,,,,
6669d148d231d550e4828b54,TCN,2024-06-24_14h46.05.728,LearnStrategy,2023.2.3,Win32,142.8571429,8,1,12,0.019444444,-0.012962963,1,0,0,0.4038,rock_grid_rect_2,8,08,-1,-1,0.404,0.42037037,-0.387037037,1,0,0,0.9436,Pumice_rect,8,0.944,1,11,0,11,0,1,,,,,,,,,,,,,
6669d148d231d550e4828b54,TCN,2024-06-24_14h46.05.728,LearnStrategy,2023.2.3,Win32,142.8571429,8,1,13,0.053703704,0.006481481,1,0,0,0.4919,rock_grid_rect_2,2,02,-1,-1,0.492,-0.097222222,-0.239814815,1,0,0,2.452,Basalt_rect,2,2.452,1,12,0,12,0,1,,,,,,,,,,,,,
6669d148d231d550e4828b54,TCN,2024-06-24_14h46.05.728,LearnStrategy,2023.2.3,Win32,142.8571429,8,1,14,0.011111111,0.001851852,1,0,0,0.3766,rock_grid_rect_2,3,08,-1,-1,0.377,0.106481481,-0.25,1,0,0,0.7412,Diorite_rect,3,0.741,1,13,0,13,0,1,,,,,,,,,,,,,
6669d148d231d550e4828b54,TCN,2024-06-24_14h46.05.728,LearnStrategy,2023.2.3,Win32,142.8571429,8,1,15,0.078703704,-0.023148148,1,0,0,0.3619,rock_grid_rect_2,1,04,-1,-1,0.362,-0.377777778,-0.237037037,1,0,0,1.0878,Andesite_rect,1,1.088,1,14,0,14,0,1,,,,,,,,,,,,,
6669d148d231d550e4828b54,TCN,2024-06-24_14h46.05.728,LearnStrategy,2023.2.3,Win32,142.8571429,8,1,16,-0.028703704,-0.013888889,1,0,0,0.3397,rock_grid_rect_2,7,10,-1,-1,0.34,0.080555556,-0.388888889,1,0,0,0.8091,Peridotite_rect,7,0.809,1,15,0,15,0,1,,,,,,,,,,,,,
6669d148d231d550e4828b54,TCN,2024-06-24_14h46.05.728,LearnStrategy,2023.2.3,Win32,142.8571429,8,2,1,,,,,,,,5,06,,,,,,,,,,,5,0.841,1,,,,,,-0.40462963,-0.390740741,1,0,0,0.8408,Obsidian_rect,0,0,0,0,1,
6669d148d231d550e4828b54,TCN,2024-06-24_14h46.05.728,LearnStrategy,2023.2.3,Win32,142.8571429,8,2,2,,,,,,,,3,13,,,,,,,,,,,3,0.894,1,,,,,,0.094444444,-0.235185185,1,0,0,0.8937,Diorite_rect,1,0,1,0,1,
6669d148d231d550e4828b54,TCN,2024-06-24_14h46.05.728,LearnStrategy,2023.2.3,Win32,142.8571429,8,2,3,,,,,,,,8,13,,,,,,,,,,,8,1.322,1,,,,,,0.382407407,-0.385185185,1,0,0,1.3224,Pumice_rect,2,0,2,0,1,
6669d148d231d550e4828b54,TCN,2024-06-24_14h46.05.728,LearnStrategy,2023.2.3,Win32,142.8571429,8,2,4,,,,,,,,4,05,,,,,,,,,,,4,1.774,1,,,,,,0.406481481,-0.252777778,1,0,0,1.774,Gabbro_rect,3,0,3,0,1,
6669d148d231d550e4828b54,TCN,2024-06-24_14h46.05.728,LearnStrategy,2023.2.3,Win32,142.8571429,8,2,5,,,,,,,,6,13,,,,,,,,,,,6,1.181,1,,,,,,-0.147222222,-0.390740741,1,0,0,1.1808,Pegmatite_rect,4,0,4,0,1,
6669d148d231d550e4828b54,TCN,2024-06-24_14h46.05.728,LearnStrategy,2023.2.3,Win32,142.8571429,8,2,6,,,,,,,,2,05,,,,,,,,,,,2,1.181,1,,,,,,-0.100925926,-0.257407407,1,0,0,1.1815,Basalt_rect,5,0,5,0,1,
6669d148d231d550e4828b54,TCN,2024-06-24_14h46.05.728,LearnStrategy,2023.2.3,Win32,142.8571429,8,2,7,,,,,,,,5,14,,,,,,,,,,,5,0.991,1,,,,,,-0.331481481,-0.396296296,1,0,0,0.9913,Obsidian_rect,6,0,6,0,1,
6669d148d231d550e4828b54,TCN,2024-06-24_14h46.05.728,LearnStrategy,2023.2.3,Win32,142.8571429,8,2,8,,,,,,,,1,06,,,,,,,,,,,1,1.146,1,,,,,,-0.309259259,-0.238888889,1,0,0,1.1461,Andesite_rect,7,0,7,0,1,
6669d148d231d550e4828b54,TCN,2024-06-24_14h46.05.728,LearnStrategy,2023.2.3,Win32,142.8571429,8,2,9,,,,,,,,1,03,,,,,,,,,,,1,1.557,1,,,,,,-0.358333333,-0.240740741,1,0,0,1.5574,Andesite_rect,8,0,8,0,1,
6669d148d231d550e4828b54,TCN,2024-06-24_14h46.05.728,LearnStrategy,2023.2.3,Win32,142.8571429,8,2,10,,,,,,,,7,15,,,,,,,,,,,7,1.344,1,,,,,,0.124074074,-0.402777778,1,0,0,1.3438,Peridotite_rect,9,0,9,0,1,
6669d148d231d550e4828b54,TCN,2024-06-24_14h46.05.728,LearnStrategy,2023.2.3,Win32,142.8571429,8,2,11,,,,,,,,6,03,,,,,,,,,,,6,4.257,1,,,,,,-0.130555556,-0.386111111,1,0,0,4.2572,Pegmatite_rect,10,0,10,0,1,
6669d148d231d550e4828b54,TCN,2024-06-24_14h46.05.728,LearnStrategy,2023.2.3,Win32,142.8571429,8,2,12,,,,,,,,4,15,,,,,,,,,,,4,1.399,1,,,,,,0.356481481,-0.244444444,1,0,0,1.3989,Gabbro_rect,11,0,11,0,1,
6669d148d231d550e4828b54,TCN,2024-06-24_14h46.05.728,LearnStrategy,2023.2.3,Win32,142.8571429,8,2,13,,,,,,,,7,06,,,,,,,,,,,7,3.266,1,,,,,,0.081481481,-0.402777778,1,0,0,3.2659,Peridotite_rect,12,0,12,0,1,
6669d148d231d550e4828b54,TCN,2024-06-24_14h46.05.728,LearnStrategy,2023.2.3,Win32,142.8571429,8,2,14,,,,,,,,3,15,,,,,,,,,,,3,0.87,1,,,,,,0.137962963,-0.268518519,1,0,0,0.8698,Diorite_rect,13,0,13,0,1,
6669d148d231d550e4828b54,TCN,2024-06-24_14h46.05.728,LearnStrategy,2023.2.3,Win32,142.8571429,8,2,15,,,,,,,,2,06,,,,,,,,,,,2,1.018,1,,,,,,-0.17037037,-0.242592593,1,0,0,1.0175,Basalt_rect,14,0,14,0,1,
6669d148d231d550e4828b54,TCN,2024-06-24_14h46.05.728,LearnStrategy,2023.2.3,Win32,142.8571429,8,2,16,,,,,,,,8,15,,,,,,,,,,,8,1.014,1,,,,,,0.353703704,-0.387962963,1,0,0,1.0144,Pumice_rect,15,0,15,0,1,
6669d148d231d550e4828b54,TCN,2024-06-24_14h46.05.728,LearnStrategy,2023.2.3,Win32,142.8571429,9,1,1,-0.044444444,-0.011111111,1,0,0,0.5803,rock_grid_rect_2,1,11,-1,-1,0.58,-0.385185185,-0.24537037,1,0,0,1.1252,Andesite_rect,1,1.125,1,0,0,0,0,1,,,,,,,,,,,,,
6669d148d231d550e4828b54,TCN,2024-06-24_14h46.05.728,LearnStrategy,2023.2.3,Win32,142.8571429,9,1,2,-0.092592593,-0.012962963,1,0,0,0.6316,rock_grid_rect_2,2,16,-1,-1,0.632,0.426851852,-0.262962963,1,0,0,2.9151,Gabbro_rect,4,2.915,0,1,0,1,0,1,,,,,,,,,,,,,
6669d148d231d550e4828b54,TCN,2024-06-24_14h46.05.728,LearnStrategy,2023.2.3,Win32,142.8571429,9,1,3,-0.00462963,-0.023148148,1,0,0,0.5475,rock_grid_rect_2,8,05,-1,-1,0.547,0.375,-0.406481481,1,0,0,1.5731,Pumice_rect,8,1.573,1,2,0,2,0,1,,,,,,,,,,,,,
6669d148d231d550e4828b54,TCN,2024-06-24_14h46.05.728,LearnStrategy,2023.2.3,Win32,142.8571429,9,1,4,-0.05462963,-0.003703704,1,0,0,0.4603,rock_grid_rect_2,5,10,-1,-1,0.46,-0.426851852,-0.399074074,1,0,0,0.9302,Obsidian_rect,5,0.93,1,3,0,3,0,1,,,,,,,,,,,,,
6669d148d231d550e4828b54,TCN,2024-06-24_14h46.05.728,LearnStrategy,2023.2.3,Win32,142.8571429,9,1,5,-0.075,0.006481481,1,0,0,0.533,rock_grid_rect_2,3,07,-1,-1,0.533,0.122222222,-0.261111111,1,0,0,0.8021,Diorite_rect,3,0.802,1,4,0,4,0,1,,,,,,,,,,,,,
6669d148d231d550e4828b54,TCN,2024-06-24_14h46.05.728,LearnStrategy,2023.2.3,Win32,142.8571429,9,1,6,-0.035185185,0.00462963,1,0,0,0.5013,rock_grid_rect_2,7,13,-1,-1,0.501,0.112037037,-0.389814815,1,0,0,1.021,Peridotite_rect,7,1.021,1,5,0,5,0,1,,,,,,,,,,,,,
6669d148d231d550e4828b54,TCN,2024-06-24_14h46.05.728,LearnStrategy,2023.2.3,Win32,142.8571429,9,1,7,0.07037037,0.015740741,1,0,0,0.4509,rock_grid_rect_2,5,02,-1,-1,0.451,-0.340740741,-0.421296296,1,0,0,0.8789,Obsidian_rect,5,0.879,1,6,0,6,0,1,,,,,,,,,,,,,
6669d148d231d550e4828b54,TCN,2024-06-24_14h46.05.728,LearnStrategy,2023.2.3,Win32,142.8571429,9,1,8,0.033333333,0.00462963,1,0,0,0.7697,rock_grid_rect_2,6,12,-1,-1,0.77,-0.113888889,-0.390740741,1,0,0,1.1463,Pegmatite_rect,6,1.146,1,7,0,7,0,1,,,,,,,,,,,,,
6669d148d231d550e4828b54,TCN,2024-06-24_14h46.05.728,LearnStrategy,2023.2.3,Win32,142.8571429,9,1,9,-0.05,0.012037037,1,0,0,0.7075,rock_grid_rect_2,7,14,-1,-1,0.707,0.157407407,-0.392592593,1,0,0,0.9813,Peridotite_rect,7,0.981,1,8,0,8,0,1,,,,,,,,,,,,,
6669d148d231d550e4828b54,TCN,2024-06-24_14h46.05.728,LearnStrategy,2023.2.3,Win32,142.8571429,9,1,10,0.014814815,0,1,0,0,0.353,rock_grid_rect_2,6,16,-1,-1,0.353,-0.1,-0.39537037,1,0,0,1.4565,Pegmatite_rect,6,1.457,1,9,0,9,0,1,,,,,,,,,,,,,
6669d148d231d550e4828b54,TCN,2024-06-24_14h46.05.728,LearnStrategy,2023.2.3,Win32,142.8571429,9,1,11,0.016666667,-0.005555556,1,0,0,0.473,rock_grid_rect_2,2,01,-1,-1,0.473,-0.085185185,-0.265740741,1,0,0,1.7516,Basalt_rect,2,1.752,1,10,0,10,0,1,,,,,,,,,,,,,
6669d148d231d550e4828b54,TCN,2024-06-24_14h46.05.728,LearnStrategy,2023.2.3,Win32,142.8571429,9,1,12,0.032407407,-0.002777778,1,0,0,0.5759,rock_grid_rect_2,8,14,-1,-1,0.576,0.361111111,-0.378703704,1,0,0,0.9382,Pumice_rect,8,0.938,1,11,0,11,0,1,,,,,,,,,,,,,
6669d148d231d550e4828b54,TCN,2024-06-24_14h46.05.728,LearnStrategy,2023.2.3,Win32,142.8571429,9,1,13,-0.025,-0.006481481,1,0,0,0.6513,rock_grid_rect_2,4,13,-1,-1,0.651,0.406481481,-0.259259259,1,0,0,1.0912,Gabbro_rect,4,1.091,1,12,0,12,0,1,,,,,,,,,,,,,
6669d148d231d550e4828b54,TCN,2024-06-24_14h46.05.728,LearnStrategy,2023.2.3,Win32,142.8571429,9,1,14,-0.019444444,0.006481481,1,0,0,0.6794,rock_grid_rect_2,4,14,-1,-1,0.679,0.375925926,-0.256481481,1,0,0,0.971,Gabbro_rect,4,0.971,1,13,0,13,0,1,,,,,,,,,,,,,
6669d148d231d550e4828b54,TCN,2024-06-24_14h46.05.728,LearnStrategy,2023.2.3,Win32,142.8571429,9,1,15,0.028703704,0.011111111,1,0,0,0.7424,rock_grid_rect_2,1,07,-1,-1,0.742,-0.405555556,-0.252777778,1,0,0,0.8009,Andesite_rect,1,0.801,1,14,0,14,0,1,,,,,,,,,,,,,
6669d148d231d550e4828b54,TCN,2024-06-24_14h46.05.728,LearnStrategy,2023.2.3,Win32,142.8571429,9,1,16,-0.030555556,0.006481481,1,0,0,0.4301,rock_grid_rect_2,3,06,-1,-1,0.43,0.12037037,-0.265740741,1,0,0,1.0362,Diorite_rect,3,1.036,1,15,0,15,0,1,,,,,,,,,,,,,
6669d148d231d550e4828b54,TCN,2024-06-24_14h46.05.728,LearnStrategy,2023.2.3,Win32,142.8571429,9,2,1,,,,,,,,4,03,,,,,,,,,,,3,6.523,0,,,,,,0.089814815,-0.241666667,1,0,0,6.523,Diorite_rect,0,0,0,0,1,
6669d148d231d550e4828b54,TCN,2024-06-24_14h46.05.728,LearnStrategy,2023.2.3,Win32,142.8571429,9,2,2,,,,,,,,8,04,,,,,,,,,,,8,0.996,1,,,,,,0.326851852,-0.380555556,1,0,0,0.9958,Pumice_rect,1,0,1,0,1,
6669d148d231d550e4828b54,TCN,2024-06-24_14h46.05.728,LearnStrategy,2023.2.3,Win32,142.8571429,9,2,3,,,,,,,,5,11,,,,,,,,,,,5,1.008,1,,,,,,-0.412037037,-0.389814815,1,0,0,1.0084,Obsidian_rect,2,0,2,0,1,
6669d148d231d550e4828b54,TCN,2024-06-24_14h46.05.728,LearnStrategy,2023.2.3,Win32,142.8571429,9,2,4,,,,,,,,3,02,,,,,,,,,,,3,0.93,1,,,,,,0.116666667,-0.228703704,1,0,0,0.9305,Diorite_rect,3,0,3,0,1,
6669d148d231d550e4828b54,TCN,2024-06-24_14h46.05.728,LearnStrategy,2023.2.3,Win32,142.8571429,9,2,5,,,,,,,,6,11,,,,,,,,,,,6,1.003,1,,,,,,-0.146296296,-0.381481481,1,0,0,1.0032,Pegmatite_rect,4,0,4,0,1,
6669d148d231d550e4828b54,TCN,2024-06-24_14h46.05.728,LearnStrategy,2023.2.3,Win32,142.8571429,9,2,6,,,,,,,,2,08,,,,,,,,,,,2,8.525,1,,,,,,-0.148148148,-0.238888889,1,0,0,8.5249,Basalt_rect,5,0,5,0,1,
6669d148d231d550e4828b54,TCN,2024-06-24_14h46.05.728,LearnStrategy,2023.2.3,Win32,142.8571429,9,2,7,,,,,,,,3,09,,,,,,,,,,,3,0.851,1,,,,,,0.101851852,-0.269444444,1,0,0,0.8507,Diorite_rect,6,0,6,0,1,
6669d148d231d550e4828b54,TCN,2024-06-24_14h46.05.728,LearnStrategy,2023.2.3,Win32,142.8571429,9,2,8,,,,,,,,7,16,,,,,,,,,,,7,1.707,1,,,,,,0.106481481,-0.402777778,1,0,0,1.7065,Peridotite_rect,7,0,7,0,1,
6669d148d231d550e4828b54,TCN,2024-06-24_14h46.05.728,LearnStrategy,2023.2.3,Win32,142.8571429,9,2,9,,,,,,,,4,11,,,,,,,,,,,4,1.69,1,,,,,,0.362037037,-0.261111111,1,0,0,1.6896,Gabbro_rect,8,0,8,0,1,
6669d148d231d550e4828b54,TCN,2024-06-24_14h46.05.728,LearnStrategy,2023.2.3,Win32,142.8571429,9,2,10,,,,,,,,8,03,,,,,,,,,,,8,0.896,1,,,,,,0.37037037,-0.403703704,1,0,0,0.8964,Pumice_rect,9,0,9,0,1,
6669d148d231d550e4828b54,TCN,2024-06-24_14h46.05.728,LearnStrategy,2023.2.3,Win32,142.8571429,9,2,11,,,,,,,,1,16,,,,,,,,,,,1,0.892,1,,,,,,-0.355555556,-0.261111111,1,0,0,0.8923,Andesite_rect,10,0,10,0,1,
6669d148d231d550e4828b54,TCN,2024-06-24_14h46.05.728,LearnStrategy,2023.2.3,Win32,142.8571429,9,2,12,,,,,,,,6,10,,,,,,,,,,,6,1.118,1,,,,,,-0.103703704,-0.400925926,1,0,0,1.1178,Pegmatite_rect,11,0,11,0,1,
6669d148d231d550e4828b54,TCN,2024-06-24_14h46.05.728,LearnStrategy,2023.2.3,Win32,142.8571429,9,2,13,,,,,,,,1,05,,,,,,,,,,,1,1.019,1,,,,,,-0.338888889,-0.268518519,1,0,0,1.019,Andesite_rect,12,0,12,0,1,
6669d148d231d550e4828b54,TCN,2024-06-24_14h46.05.728,LearnStrategy,2023.2.3,Win32,142.8571429,9,2,14,,,,,,,,2,12,,,,,,,,,,,8,1.549,0,,,,,,0.361111111,-0.399074074,1,0,0,1.5486,Pumice_rect,13,0,13,0,1,
6669d148d231d550e4828b54,TCN,2024-06-24_14h46.05.728,LearnStrategy,2023.2.3,Win32,142.8571429,9,2,15,,,,,,,,5,08,,,,,,,,,,,5,1.013,1,,,,,,-0.412962963,-0.40462963,1,0,0,1.0134,Obsidian_rect,14,0,14,0,1,
6669d148d231d550e4828b54,TCN,2024-06-24_14h46.05.728,LearnStrategy,2023.2.3,Win32,142.8571429,9,2,16,,,,,,,,7,08,,,,,,,,,,,7,0.886,1,,,,,,0.075,-0.4,1,0,0,0.8862,Peridotite_rect,15,0,15,0,1,
6669d148d231d550e4828b54,TCN,2024-06-24_14h46.05.728,LearnStrategy,2023.2.3,Win32,142.8571429,,,,,,,,,,,,,,,,,,,,,,,,,,,,,,,,,,,,,,,,,,,1
6669d148d231d550e4828b54,TCN,2024-06-24_14h46.05.728,LearnStrategy,2023.2.3,Win32,142.8571429,,,,,,,,,,,,,,,,,,,,,,,,,,,,,,,,,,,,,,,,,,,
6669d148d231d550e4828b54,TCN,2024-06-24_14h46.05.728,LearnStrategy,2023.2.3,Win32,142.8571429,,,,,,,,,,,1,01,1,1,,,,,,,,,,,,,,,,,,,,,,,,,,,,,
6669d148d231d550e4828b54,TCN,2024-06-24_14h46.05.728,LearnStrategy,2023.2.3,Win32,142.8571429,,,,,,,,,,,6,07,1,2,,,,,,,,,,,,,,,,,,,,,,,,,,,,,
6669d148d231d550e4828b54,TCN,2024-06-24_14h46.05.728,LearnStrategy,2023.2.3,Win32,142.8571429,,,,,,,,,,,3,16,1,3,,,,,,,,,,,,,,,,,,,,,,,,,,,,,
6669d148d231d550e4828b54,TCN,2024-06-24_14h46.05.728,LearnStrategy,2023.2.3,Win32,142.8571429,,,,,,,,,,,7,05,1,4,,,,,,,,,,,,,,,,,,,,,,,,,,,,,
6669d148d231d550e4828b54,TCN,2024-06-24_14h46.05.728,LearnStrategy,2023.2.3,Win32,142.8571429,,,,,,,,,,,1,11,1,5,,,,,,,,,,,,,,,,,,,,,,,,,,,,,
6669d148d231d550e4828b54,TCN,2024-06-24_14h46.05.728,LearnStrategy,2023.2.3,Win32,142.8571429,,,,,,,,,,,2,01,1,6,,,,,,,,,,,,,,,,,,,,,,,,,,,,,
6669d148d231d550e4828b54,TCN,2024-06-24_14h46.05.728,LearnStrategy,2023.2.3,Win32,142.8571429,,,,,,,,,,,2,02,1,7,,,,,,,,,,,,,,,,,,,,,,,,,,,,,
6669d148d231d550e4828b54,TCN,2024-06-24_14h46.05.728,LearnStrategy,2023.2.3,Win32,142.8571429,,,,,,,,,,,8,05,1,8,,,,,,,,,,,,,,,,,,,,,,,,,,,,,
6669d148d231d550e4828b54,TCN,2024-06-24_14h46.05.728,LearnStrategy,2023.2.3,Win32,142.8571429,,,,,,,,,,,8,14,2,1,,,,,,,,,,,,,,,,,,,,,,,,,,,,,
6669d148d231d550e4828b54,TCN,2024-06-24_14h46.05.728,LearnStrategy,2023.2.3,Win32,142.8571429,,,,,,,,,,,3,06,2,2,,,,,,,,,,,,,,,,,,,,,,,,,,,,,
6669d148d231d550e4828b54,TCN,2024-06-24_14h46.05.728,LearnStrategy,2023.2.3,Win32,142.8571429,,,,,,,,,,,5,07,2,3,,,,,,,,,,,,,,,,,,,,,,,,,,,,,
6669d148d231d550e4828b54,TCN,2024-06-24_14h46.05.728,LearnStrategy,2023.2.3,Win32,142.8571429,,,,,,,,,,,5,12,2,4,,,,,,,,,,,,,,,,,,,,,,,,,,,,,
6669d148d231d550e4828b54,TCN,2024-06-24_14h46.05.728,LearnStrategy,2023.2.3,Win32,142.8571429,,,,,,,,,,,7,14,2,5,,,,,,,,,,,,,,,,,,,,,,,,,,,,,
6669d148d231d550e4828b54,TCN,2024-06-24_14h46.05.728,LearnStrategy,2023.2.3,Win32,142.8571429,,,,,,,,,,,7,13,2,6,,,,,,,,,,,,,,,,,,,,,,,,,,,,,
6669d148d231d550e4828b54,TCN,2024-06-24_14h46.05.728,LearnStrategy,2023.2.3,Win32,142.8571429,,,,,,,,,,,3,12,2,7,,,,,,,,,,,,,,,,,,,,,,,,,,,,,
6669d148d231d550e4828b54,TCN,2024-06-24_14h46.05.728,LearnStrategy,2023.2.3,Win32,142.8571429,,,,,,,,,,,6,16,2,8,,,,,,,,,,,,,,,,,,,,,,,,,,,,,
6669d148d231d550e4828b54,TCN,2024-06-24_14h46.05.728,LearnStrategy,2023.2.3,Win32,142.8571429,,,,,,,,,,,2,10,3,1,,,,,,,,,,,,,,,,,,,,,,,,,,,,,
6669d148d231d550e4828b54,TCN,2024-06-24_14h46.05.728,LearnStrategy,2023.2.3,Win32,142.8571429,,,,,,,,,,,4,01,3,2,,,,,,,,,,,,,,,,,,,,,,,,,,,,,
6669d148d231d550e4828b54,TCN,2024-06-24_14h46.05.728,LearnStrategy,2023.2.3,Win32,142.8571429,,,,,,,,,,,3,08,3,3,,,,,,,,,,,,,,,,,,,,,,,,,,,,,
6669d148d231d550e4828b54,TCN,2024-06-24_14h46.05.728,LearnStrategy,2023.2.3,Win32,142.8571429,,,,,,,,,,,7,04,3,4,,,,,,,,,,,,,,,,,,,,,,,,,,,,,
6669d148d231d550e4828b54,TCN,2024-06-24_14h46.05.728,LearnStrategy,2023.2.3,Win32,142.8571429,,,,,,,,,,,6,12,3,5,,,,,,,,,,,,,,,,,,,,,,,,,,,,,
6669d148d231d550e4828b54,TCN,2024-06-24_14h46.05.728,LearnStrategy,2023.2.3,Win32,142.8571429,,,,,,,,,,,5,02,3,6,,,,,,,,,,,,,,,,,,,,,,,,,,,,,
6669d148d231d550e4828b54,TCN,2024-06-24_14h46.05.728,LearnStrategy,2023.2.3,Win32,142.8571429,,,,,,,,,,,4,12,3,7,,,,,,,,,,,,,,,,,,,,,,,,,,,,,
6669d148d231d550e4828b54,TCN,2024-06-24_14h46.05.728,LearnStrategy,2023.2.3,Win32,142.8571429,,,,,,,,,,,4,10,3,8,,,,,,,,,,,,,,,,,,,,,,,,,,,,,
6669d148d231d550e4828b54,TCN,2024-06-24_14h46.05.728,LearnStrategy,2023.2.3,Win32,142.8571429,,,,,,,,,,,6,08,4,1,,,,,,,,,,,,,,,,,,,,,,,,,,,,,
6669d148d231d550e4828b54,TCN,2024-06-24_14h46.05.728,LearnStrategy,2023.2.3,Win32,142.8571429,,,,,,,,,,,1,10,4,2,,,,,,,,,,,,,,,,,,,,,,,,,,,,,
6669d148d231d550e4828b54,TCN,2024-06-24_14h46.05.728,LearnStrategy,2023.2.3,Win32,142.8571429,,,,,,,,,,,4,13,4,3,,,,,,,,,,,,,,,,,,,,,,,,,,,,,
6669d148d231d550e4828b54,TCN,2024-06-24_14h46.05.728,LearnStrategy,2023.2.3,Win32,142.8571429,,,,,,,,,,,8,06,4,4,,,,,,,,,,,,,,,,,,,,,,,,,,,,,
6669d148d231d550e4828b54,TCN,2024-06-24_14h46.05.728,LearnStrategy,2023.2.3,Win32,142.8571429,,,,,,,,,,,4,14,4,5,,,,,,,,,,,,,,,,,,,,,,,,,,,,,
6669d148d231d550e4828b54,TCN,2024-06-24_14h46.05.728,LearnStrategy,2023.2.3,Win32,142.8571429,,,,,,,,,,,5,04,4,6,,,,,,,,,,,,,,,,,,,,,,,,,,,,,
6669d148d231d550e4828b54,TCN,2024-06-24_14h46.05.728,LearnStrategy,2023.2.3,Win32,142.8571429,,,,,,,,,,,3,07,4,7,,,,,,,,,,,,,,,,,,,,,,,,,,,,,
6669d148d231d550e4828b54,TCN,2024-06-24_14h46.05.728,LearnStrategy,2023.2.3,Win32,142.8571429,,,,,,,,,,,1,04,4,8,,,,,,,,,,,,,,,,,,,,,,,,,,,,,
6669d148d231d550e4828b54,TCN,2024-06-24_14h46.05.728,LearnStrategy,2023.2.3,Win32,142.8571429,,,,,,,,,,,6,15,5,1,,,,,,,,,,,,,,,,,,,,,,,,,,,,,
6669d148d231d550e4828b54,TCN,2024-06-24_14h46.05.728,LearnStrategy,2023.2.3,Win32,142.8571429,,,,,,,,,,,3,11,5,2,,,,,,,,,,,,,,,,,,,,,,,,,,,,,
6669d148d231d550e4828b54,TCN,2024-06-24_14h46.05.728,LearnStrategy,2023.2.3,Win32,142.8571429,,,,,,,,,,,1,09,5,3,,,,,,,,,,,,,,,,,,,,,,,,,,,,,
6669d148d231d550e4828b54,TCN,2024-06-24_14h46.05.728,LearnStrategy,2023.2.3,Win32,142.8571429,,,,,,,,,,,7,07,5,4,,,,,,,,,,,,,,,,,,,,,,,,,,,,,
6669d148d231d550e4828b54,TCN,2024-06-24_14h46.05.728,LearnStrategy,2023.2.3,Win32,142.8571429,,,,,,,,,,,6,09,5,5,,,,,,,,,,,,,,,,,,,,,,,,,,,,,
6669d148d231d550e4828b54,TCN,2024-06-24_14h46.05.728,LearnStrategy,2023.2.3,Win32,142.8571429,,,,,,,,,,,1,07,5,6,,,,,,,,,,,,,,,,,,,,,,,,,,,,,
6669d148d231d550e4828b54,TCN,2024-06-24_14h46.05.728,LearnStrategy,2023.2.3,Win32,142.8571429,,,,,,,,,,,8,08,5,7,,,,,,,,,,,,,,,,,,,,,,,,,,,,,
6669d148d231d550e4828b54,TCN,2024-06-24_14h46.05.728,LearnStrategy,2023.2.3,Win32,142.8571429,,,,,,,,,,,8,10,5,8,,,,,,,,,,,,,,,,,,,,,,,,,,,,,
6669d148d231d550e4828b54,TCN,2024-06-24_14h46.05.728,LearnStrategy,2023.2.3,Win32,142.8571429,,,,,,,,,,,5,10,6,1,,,,,,,,,,,,,,,,,,,,,,,,,,,,,
6669d148d231d550e4828b54,TCN,2024-06-24_14h46.05.728,LearnStrategy,2023.2.3,Win32,142.8571429,,,,,,,,,,,2,16,6,2,,,,,,,,,,,,,,,,,,,,,,,,,,,,,
6669d148d231d550e4828b54,TCN,2024-06-24_14h46.05.728,LearnStrategy,2023.2.3,Win32,142.8571429,,,,,,,,,,,2,11,6,3,,,,,,,,,,,,,,,,,,,,,,,,,,,,,
6669d148d231d550e4828b54,TCN,2024-06-24_14h46.05.728,LearnStrategy,2023.2.3,Win32,142.8571429,,,,,,,,,,,4,16,6,4,,,,,,,,,,,,,,,,,,,,,,,,,,,,,
6669d148d231d550e4828b54,TCN,2024-06-24_14h46.05.728,LearnStrategy,2023.2.3,Win32,142.8571429,,,,,,,,,,,7,10,6,5,,,,,,,,,,,,,,,,,,,,,,,,,,,,,
6669d148d231d550e4828b54,TCN,2024-06-24_14h46.05.728,LearnStrategy,2023.2.3,Win32,142.8571429,,,,,,,,,,,8,09,6,6,,,,,,,,,,,,,,,,,,,,,,,,,,,,,
6669d148d231d550e4828b54,TCN,2024-06-24_14h46.05.728,LearnStrategy,2023.2.3,Win32,142.8571429,,,,,,,,,,,5,09,6,7,,,,,,,,,,,,,,,,,,,,,,,,,,,,,
6669d148d231d550e4828b54,TCN,2024-06-24_14h46.05.728,LearnStrategy,2023.2.3,Win32,142.8571429,,,,,,,,,,,2,04,6,8,,,,,,,,,,,,,,,,,,,,,,,,,,,,,