participant,condition,date,expName,psychopyVersion,OS,frameRate,block,phase,trial,learn_mouse.x,learn_mouse.y,learn_mouse.leftButton,learn_mouse.midButton,learn_mouse.rightButton,learn_mouse.time,learn_mouse.clicked_name,cat,token,row,col,t_select,cat_rec,token_rec,cat_mouse_l.x,cat_mouse_l.y,cat_mouse_l.leftButton,cat_mouse_l.midButton,cat_mouse_l.rightButton,cat_mouse_l.time,cat_mouse_l.clicked_name,resp,t_resp,corr,train_trials.thisRepN,train_trials.thisTrialN,train_trials.thisN,train_trials.thisIndex,train_trials.ran,cat_mouse_t.x,cat_mouse_t.y,cat_mouse_t.leftButton,cat_mouse_t.midButton,cat_mouse_t.rightButton,cat_mouse_t.time,cat_mouse_t.clicked_name,test_trials.thisRepN,test_trials.thisTrialN,test_trials.thisN,test_trials.thisIndex,test_trials.ran,Bonus
666b44ed662a3864dc13b118,SCR,2024-06-25_14h28.11.189,LearnStrategy,2023.2.3,Win32,58.82352941,,,,,,,,,,,,,,,,,,,,,,,,,,,,,,,,,,,,,,,,,,,,,
666b44ed662a3864dc13b118,SCR,2024-06-25_14h28.11.189,LearnStrategy,2023.2.3,Win32,58.82352941,1,1,1,-0.045833333,-0.097222222,1,0,0,3.044,Diorite_16,3,16,3,4,3.044,3,08,-0.323611111,-0.238194444,1,0,0,3.456,Andesite_rect,1,3.456,0,0,0,0,0,1,,,,,,,,,,,,,
666b44ed662a3864dc13b118,SCR,2024-06-25_14h28.11.189,LearnStrategy,2023.2.3,Win32,58.82352941,1,1,2,-0.039583333,-0.09375,1,0,0,1.481,Diorite_16,3,16,3,4,1.481,7,12,0.109722222,-0.233333333,1,0,0,1.066,Diorite_rect,3,1.066,1,1,0,1,0,1,,,,,,,,,,,,,
666b44ed662a3864dc13b118,SCR,2024-06-25_14h28.11.189,LearnStrategy,2023.2.3,Win32,58.82352941,1,1,3,0.088194444,-0.092361111,1,0,0,0.998,Pegmatite_12,6,12,3,5,0.998,2,12,0.131944444,-0.252083333,1,0,0,1.254,Diorite_rect,3,1.254,0,2,0,2,0,1,,,,,,,,,,,,,
666b44ed662a3864dc13b118,SCR,2024-06-25_14h28.11.189,LearnStrategy,2023.2.3,Win32,58.82352941,1,1,4,-0.231944444,-0.093055556,1,0,0,2.395,Diorite_06,3,06,3,3,2.395,7,10,-0.145138889,-0.238888889,1,0,0,1.591,Basalt_rect,2,1.591,0,3,0,3,0,1,,,,,,,,,,,,,
666b44ed662a3864dc13b118,SCR,2024-06-25_14h28.11.189,LearnStrategy,2023.2.3,Win32,58.82352941,1,1,5,0.544444444,-0.0625,1,0,0,3.732,Obsidian_08,5,08,3,8,3.732,1,01,-0.358333333,-0.402777778,1,0,0,1.948,Obsidian_rect,5,1.948,1,4,0,4,0,1,,,,,,,,,,,,,
666b44ed662a3864dc13b118,SCR,2024-06-25_14h28.11.189,LearnStrategy,2023.2.3,Win32,58.82352941,1,1,6,-0.079166667,-0.265277778,1,0,0,1.23,Pegmatite_16,6,16,2,4,1.23,3,06,0.08125,-0.400694444,1,0,0,11.86,Peridotite_rect,7,11.86,0,5,0,5,0,1,,,,,,,,,,,,,
666b44ed662a3864dc13b118,SCR,2024-06-25_14h28.11.189,LearnStrategy,2023.2.3,Win32,58.82352941,1,1,7,-0.0625,-0.423611111,1,0,0,1.429,Andesite_01,1,01,1,4,1.429,1,04,0.445833333,-0.238888889,1,0,0,4.619,Gabbro_rect,4,4.619,0,6,0,6,0,1,,,,,,,,,,,,,
666b44ed662a3864dc13b118,SCR,2024-06-25_14h28.11.189,LearnStrategy,2023.2.3,Win32,58.82352941,1,1,8,-0.216666667,0.086805556,1,0,0,1.077,Pumice_03,8,03,4,3,1.077,4,14,0.340972222,-0.391666667,1,0,0,13.44,Pumice_rect,8,13.44,1,7,0,7,0,1,,,,,,,,,,,,,
666b44ed662a3864dc13b118,SCR,2024-06-25_14h28.11.189,LearnStrategy,2023.2.3,Win32,58.82352941,1,1,9,-0.529861111,-0.0875,1,0,0,2.929,Andesite_11,1,11,3,1,2.929,8,06,-0.180555556,-0.269444444,1,0,0,3.235,Basalt_rect,2,3.235,0,8,0,8,0,1,,,,,,,,,,,,,
666b44ed662a3864dc13b118,SCR,2024-06-25_14h28.11.189,LearnStrategy,2023.2.3,Win32,58.82352941,1,1,10,0.224305556,0.082638889,1,0,0,1.461,Obsidian_14,5,14,4,6,1.461,5,08,-0.400694444,-0.417361111,1,0,0,10.494,Obsidian_rect,5,10.494,1,9,0,9,0,1,,,,,,,,,,,,,
666b44ed662a3864dc13b118,SCR,2024-06-25_14h28.11.189,LearnStrategy,2023.2.3,Win32,58.82352941,1,1,11,0.072222222,0.274305556,1,0,0,1.697,Obsidian_05,5,05,5,5,1.697,5,02,-0.386805556,-0.405555556,1,0,0,0.989,Obsidian_rect,5,0.989,1,10,0,10,0,1,,,,,,,,,,,,,
666b44ed662a3864dc13b118,SCR,2024-06-25_14h28.11.189,LearnStrategy,2023.2.3,Win32,58.82352941,1,1,12,0.236805556,0.252083333,1,0,0,1.065,Pegmatite_06,6,06,5,6,1.065,2,14,0.102083333,-0.384027778,1,0,0,11.456,Peridotite_rect,7,11.456,0,11,0,11,0,1,,,,,,,,,,,,,
666b44ed662a3864dc13b118,SCR,2024-06-25_14h28.11.189,LearnStrategy,2023.2.3,Win32,58.82352941,1,1,13,-0.215972222,-0.4125,1,0,0,2.157,Peridotite_13,7,13,1,3,2.157,8,04,0.415972222,-0.390972222,1,0,0,34.88,Pumice_rect,8,34.88,0,12,0,12,0,1,,,,,,,,,,,,,
666b44ed662a3864dc13b118,SCR,2024-06-25_14h28.11.189,LearnStrategy,2023.2.3,Win32,58.82352941,1,1,14,0.08125,-0.442361111,1,0,0,3.255,Pumice_06,8,06,1,5,3.255,4,11,0.359027778,-0.411805556,1,0,0,10.625,Pumice_rect,8,10.625,1,13,0,13,0,1,,,,,,,,,,,,,
666b44ed662a3864dc13b118,SCR,2024-06-25_14h28.11.189,LearnStrategy,2023.2.3,Win32,58.82352941,1,1,15,0.070833333,-0.256944444,1,0,0,1.245,Gabbro_11,4,11,2,5,1.245,6,16,-0.091666667,-0.251388889,1,0,0,2.747,Basalt_rect,2,2.747,0,14,0,14,0,1,,,,,,,,,,,,,
666b44ed662a3864dc13b118,SCR,2024-06-25_14h28.11.189,LearnStrategy,2023.2.3,Win32,58.82352941,1,1,16,0.591666667,0.093055556,1,0,0,0.994,Basalt_14,2,14,4,8,0.994,6,09,-0.117361111,-0.243055556,1,0,0,3.789,Basalt_rect,2,3.789,1,15,0,15,0,1,,,,,,,,,,,,,
666b44ed662a3864dc13b118,SCR,2024-06-25_14h28.11.189,LearnStrategy,2023.2.3,Win32,58.82352941,1,2,1,,,,,,,,5,07,,,,,,,,,,,,,5,3.223,1,,,,,,-0.38125,-0.390972222,1,0,0,3.223,Obsidian_rect,0,0,0,0,1,
666b44ed662a3864dc13b118,SCR,2024-06-25_14h28.11.189,LearnStrategy,2023.2.3,Win32,58.82352941,1,2,2,,,,,,,,7,05,,,,,,,,,,,,,8,38.815,0,,,,,,0.460416667,-0.403472222,1,0,0,38.815,Pumice_rect,1,0,1,0,1,
666b44ed662a3864dc13b118,SCR,2024-06-25_14h28.11.189,LearnStrategy,2023.2.3,Win32,58.82352941,1,2,3,,,,,,,,6,05,,,,,,,,,,,,,3,16.866,0,,,,,,0.139583333,-0.258333333,1,0,0,16.866,Diorite_rect,2,0,2,0,1,
666b44ed662a3864dc13b118,SCR,2024-06-25_14h28.11.189,LearnStrategy,2023.2.3,Win32,58.82352941,1,2,4,,,,,,,,4,03,,,,,,,,,,,,,1,6.84,0,,,,,,-0.334027778,-0.247222222,1,0,0,6.84,Andesite_rect,3,0,3,0,1,
666b44ed662a3864dc13b118,SCR,2024-06-25_14h28.11.189,LearnStrategy,2023.2.3,Win32,58.82352941,1,2,5,,,,,,,,3,02,,,,,,,,,,,,,4,5.457,0,,,,,,0.349305556,-0.255555556,1,0,0,5.457,Gabbro_rect,4,0,4,0,1,
666b44ed662a3864dc13b118,SCR,2024-06-25_14h28.11.189,LearnStrategy,2023.2.3,Win32,58.82352941,1,2,6,,,,,,,,8,02,,,,,,,,,,,,,8,3.052,1,,,,,,0.3875,-0.403472222,1,0,0,3.052,Pumice_rect,5,0,5,0,1,
666b44ed662a3864dc13b118,SCR,2024-06-25_14h28.11.189,LearnStrategy,2023.2.3,Win32,58.82352941,1,2,7,,,,,,,,1,14,,,,,,,,,,,,,2,9.681,0,,,,,,-0.084027778,-0.254861111,1,0,0,9.681,Basalt_rect,6,0,6,0,1,
666b44ed662a3864dc13b118,SCR,2024-06-25_14h28.11.189,LearnStrategy,2023.2.3,Win32,58.82352941,1,2,8,,,,,,,,1,09,,,,,,,,,,,,,1,3.103,1,,,,,,-0.341666667,-0.24375,1,0,0,3.103,Andesite_rect,7,0,7,0,1,
666b44ed662a3864dc13b118,SCR,2024-06-25_14h28.11.189,LearnStrategy,2023.2.3,Win32,58.82352941,1,2,9,,,,,,,,4,15,,,,,,,,,,,,,7,7.477,0,,,,,,0.139583333,-0.414583333,1,0,0,7.477,Peridotite_rect,8,0,8,0,1,
666b44ed662a3864dc13b118,SCR,2024-06-25_14h28.11.189,LearnStrategy,2023.2.3,Win32,58.82352941,1,2,10,,,,,,,,8,08,,,,,,,,,,,,,8,2.598,1,,,,,,0.48125,-0.391666667,1,0,0,2.598,Pumice_rect,9,0,9,0,1,
666b44ed662a3864dc13b118,SCR,2024-06-25_14h28.11.189,LearnStrategy,2023.2.3,Win32,58.82352941,1,2,11,,,,,,,,2,04,,,,,,,,,,,,,2,6.823,1,,,,,,-0.075694444,-0.25,1,0,0,6.823,Basalt_rect,10,0,10,0,1,
666b44ed662a3864dc13b118,SCR,2024-06-25_14h28.11.189,LearnStrategy,2023.2.3,Win32,58.82352941,1,2,12,,,,,,,,2,09,,,,,,,,,,,,,2,0.891,1,,,,,,-0.065972222,-0.248611111,1,0,0,0.891,Basalt_rect,11,0,11,0,1,
666b44ed662a3864dc13b118,SCR,2024-06-25_14h28.11.189,LearnStrategy,2023.2.3,Win32,58.82352941,1,2,13,,,,,,,,6,07,,,,,,,,,,,,,6,3.221,1,,,,,,-0.083333333,-0.397916667,1,0,0,3.221,Pegmatite_rect,12,0,12,0,1,
666b44ed662a3864dc13b118,SCR,2024-06-25_14h28.11.189,LearnStrategy,2023.2.3,Win32,58.82352941,1,2,14,,,,,,,,7,14,,,,,,,,,,,,,4,1.486,0,,,,,,0.350694444,-0.252083333,1,0,0,1.486,Gabbro_rect,13,0,13,0,1,
666b44ed662a3864dc13b118,SCR,2024-06-25_14h28.11.189,LearnStrategy,2023.2.3,Win32,58.82352941,1,2,15,,,,,,,,3,11,,,,,,,,,,,,,3,1.538,1,,,,,,0.184027778,-0.229861111,1,0,0,1.538,Diorite_rect,14,0,14,0,1,
666b44ed662a3864dc13b118,SCR,2024-06-25_14h28.11.189,LearnStrategy,2023.2.3,Win32,58.82352941,1,2,16,,,,,,,,5,09,,,,,,,,,,,,,5,9.883,1,,,,,,-0.431944444,-0.411111111,1,0,0,9.883,Obsidian_rect,15,0,15,0,1,
666b44ed662a3864dc13b118,SCR,2024-06-25_14h28.11.189,LearnStrategy,2023.2.3,Win32,58.82352941,2,1,1,0.224305556,0.086111111,1,0,0,1.848,Obsidian_14,5,14,4,6,1.848,8,03,-0.396527778,-0.413888889,1,0,0,1.589,Obsidian_rect,5,1.589,1,0,0,0,0,1,,,,,,,,,,,,,
666b44ed662a3864dc13b118,SCR,2024-06-25_14h28.11.189,LearnStrategy,2023.2.3,Win32,58.82352941,2,1,2,0.406944444,0.071527778,1,0,0,0.93,Diorite_10,3,10,4,7,0.93,4,10,0.156944444,-0.400694444,1,0,0,4.805,Peridotite_rect,7,4.805,0,1,0,1,0,1,,,,,,,,,,,,,
666b44ed662a3864dc13b118,SCR,2024-06-25_14h28.11.189,LearnStrategy,2023.2.3,Win32,58.82352941,2,1,3,0.270833333,-0.277777778,1,0,0,0.98,Pegmatite_08,6,08,2,6,0.98,7,10,0.173611111,-0.410416667,1,0,0,1.155,Peridotite_rect,7,1.155,0,2,0,2,0,1,,,,,,,,,,,,,
666b44ed662a3864dc13b118,SCR,2024-06-25_14h28.11.189,LearnStrategy,2023.2.3,Win32,58.82352941,2,1,4,0.520138889,-0.257638889,1,0,0,3.132,Basalt_02,2,02,2,8,3.132,6,06,0.184027778,-0.411111111,1,0,0,2.552,Peridotite_rect,7,2.552,0,3,0,3,0,1,,,,,,,,,,,,,
666b44ed662a3864dc13b118,SCR,2024-06-25_14h28.11.189,LearnStrategy,2023.2.3,Win32,58.82352941,2,1,5,0.075694444,0.247222222,1,0,0,1.979,Obsidian_05,5,05,5,5,1.979,4,10,-0.358333333,-0.420833333,1,0,0,1.135,Obsidian_rect,5,1.135,1,4,0,4,0,1,,,,,,,,,,,,,
666b44ed662a3864dc13b118,SCR,2024-06-25_14h28.11.189,LearnStrategy,2023.2.3,Win32,58.82352941,2,1,6,0.375,0.259027778,1,0,0,1.148,Peridotite_06,7,06,5,7,1.148,1,04,0.352777778,-0.251388889,1,0,0,2.117,Gabbro_rect,4,2.117,0,5,0,5,0,1,,,,,,,,,,,,,
666b44ed662a3864dc13b118,SCR,2024-06-25_14h28.11.189,LearnStrategy,2023.2.3,Win32,58.82352941,2,1,7,-0.088194444,-0.108333333,1,0,0,0.879,Diorite_16,3,16,3,4,0.879,7,06,-0.115277778,-0.403472222,1,0,0,0.814,Pegmatite_rect,6,0.814,0,6,0,6,0,1,,,,,,,,,,,,,
666b44ed662a3864dc13b118,SCR,2024-06-25_14h28.11.189,LearnStrategy,2023.2.3,Win32,58.82352941,2,1,8,0.209722222,-0.093055556,1,0,0,0.646,Gabbro_14,4,14,3,6,0.646,4,08,0.488888889,-0.23125,1,0,0,0.618,Gabbro_rect,4,0.618,1,7,0,7,0,1,,,,,,,,,,,,,
666b44ed662a3864dc13b118,SCR,2024-06-25_14h28.11.189,LearnStrategy,2023.2.3,Win32,58.82352941,2,1,9,-0.388888889,-0.274305556,1,0,0,1.681,Pumice_10,8,10,2,2,1.681,3,09,0.422222222,-0.401388889,1,0,0,1.357,Pumice_rect,8,1.357,1,8,0,8,0,1,,,,,,,,,,,,,
666b44ed662a3864dc13b118,SCR,2024-06-25_14h28.11.189,LearnStrategy,2023.2.3,Win32,58.82352941,2,1,10,-0.544444444,0.239583333,1,0,0,1.497,Obsidian_12,5,12,5,1,1.497,7,08,-0.392361111,-0.407638889,1,0,0,0.738,Obsidian_rect,5,0.738,1,9,0,9,0,1,,,,,,,,,,,,,
666b44ed662a3864dc13b118,SCR,2024-06-25_14h28.11.189,LearnStrategy,2023.2.3,Win32,58.82352941,2,1,11,-0.358333333,0.244444444,1,0,0,0.815,Peridotite_12,7,12,5,2,0.815,7,12,-0.107638889,-0.250694444,1,0,0,1.685,Basalt_rect,2,1.685,0,10,0,10,0,1,,,,,,,,,,,,,
666b44ed662a3864dc13b118,SCR,2024-06-25_14h28.11.189,LearnStrategy,2023.2.3,Win32,58.82352941,2,1,12,0.359027778,0.244444444,1,0,0,1.065,Peridotite_06,7,06,5,7,1.065,4,14,0.152083333,-0.405555556,1,0,0,3.212,Peridotite_rect,7,3.212,1,11,0,11,0,1,,,,,,,,,,,,,
666b44ed662a3864dc13b118,SCR,2024-06-25_14h28.11.189,LearnStrategy,2023.2.3,Win32,58.82352941,2,1,13,0.579166667,0.236111111,1,0,0,0.981,Gabbro_08,4,08,5,8,0.981,1,11,0.171527778,-0.250694444,1,0,0,1.603,Diorite_rect,3,1.603,0,12,0,12,0,1,,,,,,,,,,,,,
666b44ed662a3864dc13b118,SCR,2024-06-25_14h28.11.189,LearnStrategy,2023.2.3,Win32,58.82352941,2,1,14,0.100694444,-0.076388889,1,0,0,1.014,Pegmatite_12,6,12,3,5,1.014,2,14,-0.067361111,-0.381944444,1,0,0,3.251,Pegmatite_rect,6,3.251,1,13,0,13,0,1,,,,,,,,,,,,,
666b44ed662a3864dc13b118,SCR,2024-06-25_14h28.11.189,LearnStrategy,2023.2.3,Win32,58.82352941,2,1,15,0.434027778,0.41875,1,0,0,1.446,Pumice_15,8,15,6,7,1.446,6,08,0.404166667,-0.398611111,1,0,0,1.283,Pumice_rect,8,1.283,1,14,0,14,0,1,,,,,,,,,,,,,
666b44ed662a3864dc13b118,SCR,2024-06-25_14h28.11.189,LearnStrategy,2023.2.3,Win32,58.82352941,2,1,16,-0.355555556,0.397916667,1,0,0,2.197,Gabbro_10,4,10,6,2,2.197,3,16,-0.077777778,-0.245138889,1,0,0,0.934,Basalt_rect,2,0.934,0,15,0,15,0,1,,,,,,,,,,,,,
666b44ed662a3864dc13b118,SCR,2024-06-25_14h28.11.189,LearnStrategy,2023.2.3,Win32,58.82352941,2,2,1,,,,,,,,1,07,,,,,,,,,,,,,7,5.983,0,,,,,,0.120138889,-0.395833333,1,0,0,5.983,Peridotite_rect,0,0,0,0,1,
666b44ed662a3864dc13b118,SCR,2024-06-25_14h28.11.189,LearnStrategy,2023.2.3,Win32,58.82352941,2,2,2,,,,,,,,1,03,,,,,,,,,,,,,2,9.695,0,,,,,,-0.08125,-0.261805556,1,0,0,9.695,Basalt_rect,1,0,1,0,1,
666b44ed662a3864dc13b118,SCR,2024-06-25_14h28.11.189,LearnStrategy,2023.2.3,Win32,58.82352941,2,2,3,,,,,,,,5,10,,,,,,,,,,,,,5,1.486,1,,,,,,-0.386111111,-0.404166667,1,0,0,1.486,Obsidian_rect,2,0,2,0,1,
666b44ed662a3864dc13b118,SCR,2024-06-25_14h28.11.189,LearnStrategy,2023.2.3,Win32,58.82352941,2,2,4,,,,,,,,6,15,,,,,,,,,,,,,6,1.652,1,,,,,,-0.122916667,-0.415277778,1,0,0,1.652,Pegmatite_rect,3,0,3,0,1,
666b44ed662a3864dc13b118,SCR,2024-06-25_14h28.11.189,LearnStrategy,2023.2.3,Win32,58.82352941,2,2,5,,,,,,,,4,13,,,,,,,,,,,,,7,0.988,0,,,,,,0.178472222,-0.406944444,1,0,0,0.988,Peridotite_rect,4,0,4,0,1,
666b44ed662a3864dc13b118,SCR,2024-06-25_14h28.11.189,LearnStrategy,2023.2.3,Win32,58.82352941,2,2,6,,,,,,,,6,10,,,,,,,,,,,,,1,1.968,0,,,,,,-0.34375,-0.257638889,1,0,0,1.968,Andesite_rect,5,0,5,0,1,
666b44ed662a3864dc13b118,SCR,2024-06-25_14h28.11.189,LearnStrategy,2023.2.3,Win32,58.82352941,2,2,7,,,,,,,,7,04,,,,,,,,,,,,,4,2.104,0,,,,,,0.394444444,-0.265972222,1,0,0,2.104,Gabbro_rect,6,0,6,0,1,
666b44ed662a3864dc13b118,SCR,2024-06-25_14h28.11.189,LearnStrategy,2023.2.3,Win32,58.82352941,2,2,8,,,,,,,,2,11,,,,,,,,,,,,,7,1.802,0,,,,,,0.154861111,-0.386111111,1,0,0,1.802,Peridotite_rect,7,0,7,0,1,
666b44ed662a3864dc13b118,SCR,2024-06-25_14h28.11.189,LearnStrategy,2023.2.3,Win32,58.82352941,2,2,9,,,,,,,,8,13,,,,,,,,,,,,,8,0.866,1,,,,,,0.34375,-0.381944444,1,0,0,0.866,Pumice_rect,8,0,8,0,1,
666b44ed662a3864dc13b118,SCR,2024-06-25_14h28.11.189,LearnStrategy,2023.2.3,Win32,58.82352941,2,2,10,,,,,,,,3,07,,,,,,,,,,,,,7,6.875,0,,,,,,0.110416667,-0.410416667,1,0,0,6.875,Peridotite_rect,9,0,9,0,1,
666b44ed662a3864dc13b118,SCR,2024-06-25_14h28.11.189,LearnStrategy,2023.2.3,Win32,58.82352941,2,2,11,,,,,,,,3,13,,,,,,,,,,,,,7,1.531,0,,,,,,0.1625,-0.403472222,1,0,0,1.531,Peridotite_rect,10,0,10,0,1,
666b44ed662a3864dc13b118,SCR,2024-06-25_14h28.11.189,LearnStrategy,2023.2.3,Win32,58.82352941,2,2,12,,,,,,,,5,16,,,,,,,,,,,,,5,1.223,1,,,,,,-0.394444444,-0.408333333,1,0,0,1.223,Obsidian_rect,11,0,11,0,1,
666b44ed662a3864dc13b118,SCR,2024-06-25_14h28.11.189,LearnStrategy,2023.2.3,Win32,58.82352941,2,2,13,,,,,,,,7,07,,,,,,,,,,,,,6,1.234,0,,,,,,-0.100694444,-0.4,1,0,0,1.234,Pegmatite_rect,12,0,12,0,1,
666b44ed662a3864dc13b118,SCR,2024-06-25_14h28.11.189,LearnStrategy,2023.2.3,Win32,58.82352941,2,2,14,,,,,,,,4,16,,,,,,,,,,,,,5,2.295,0,,,,,,-0.340972222,-0.406944444,1,0,0,2.295,Obsidian_rect,13,0,13,0,1,
666b44ed662a3864dc13b118,SCR,2024-06-25_14h28.11.189,LearnStrategy,2023.2.3,Win32,58.82352941,2,2,15,,,,,,,,8,05,,,,,,,,,,,,,8,1.03,1,,,,,,0.400694444,-0.418055556,1,0,0,1.03,Pumice_rect,14,0,14,0,1,
666b44ed662a3864dc13b118,SCR,2024-06-25_14h28.11.189,LearnStrategy,2023.2.3,Win32,58.82352941,2,2,16,,,,,,,,2,16,,,,,,,,,,,,,7,2.019,0,,,,,,0.173611111,-0.39375,1,0,0,2.019,Peridotite_rect,15,0,15,0,1,
666b44ed662a3864dc13b118,SCR,2024-06-25_14h28.11.189,LearnStrategy,2023.2.3,Win32,58.82352941,3,1,1,-0.238888889,-0.41875,1,0,0,1.265,Peridotite_13,7,13,1,3,1.265,1,11,-0.089583333,-0.405555556,1,0,0,0.917,Pegmatite_rect,6,0.917,0,0,0,0,0,1,,,,,,,,,,,,,
666b44ed662a3864dc13b118,SCR,2024-06-25_14h28.11.189,LearnStrategy,2023.2.3,Win32,58.82352941,3,1,2,0.256944444,-0.440972222,1,0,0,0.813,Pumice_04,8,04,1,6,0.813,4,12,0.388194444,-0.403472222,1,0,0,0.552,Pumice_rect,8,0.552,1,1,0,1,0,1,,,,,,,,,,,,,
666b44ed662a3864dc13b118,SCR,2024-06-25_14h28.11.189,LearnStrategy,2023.2.3,Win32,58.82352941,3,1,3,0.556944444,-0.425694444,1,0,0,0.914,Pegmatite_03,6,03,1,8,0.914,1,04,0.147916667,-0.241666667,1,0,0,0.754,Diorite_rect,3,0.754,0,2,0,2,0,1,,,,,,,,,,,,,
666b44ed662a3864dc13b118,SCR,2024-06-25_14h28.11.189,LearnStrategy,2023.2.3,Win32,58.82352941,3,1,4,0.574305556,-0.254861111,1,0,0,0.814,Basalt_02,2,02,2,8,0.814,3,10,-0.107638889,-0.380555556,1,0,0,0.89,Pegmatite_rect,6,0.89,0,3,0,3,0,1,,,,,,,,,,,,,
666b44ed662a3864dc13b118,SCR,2024-06-25_14h28.11.189,LearnStrategy,2023.2.3,Win32,58.82352941,3,1,5,0.550694444,-0.115277778,1,0,0,1.014,Obsidian_08,5,08,3,8,1.014,6,12,-0.408333333,-0.385416667,1,0,0,0.668,Obsidian_rect,5,0.668,1,4,0,4,0,1,,,,,,,,,,,,,
666b44ed662a3864dc13b118,SCR,2024-06-25_14h28.11.189,LearnStrategy,2023.2.3,Win32,58.82352941,3,1,6,-0.227083333,-0.079166667,1,0,0,0.915,Diorite_06,3,06,3,3,0.915,7,10,0.172222222,-0.392361111,1,0,0,2.869,Peridotite_rect,7,2.869,0,5,0,5,0,1,,,,,,,,,,,,,
666b44ed662a3864dc13b118,SCR,2024-06-25_14h28.11.189,LearnStrategy,2023.2.3,Win32,58.82352941,3,1,7,-0.500694444,-0.088194444,1,0,0,1.064,Andesite_11,1,11,3,1,1.064,7,12,-0.359722222,-0.254861111,1,0,0,1.637,Andesite_rect,1,1.637,1,6,0,6,0,1,,,,,,,,,,,,,
666b44ed662a3864dc13b118,SCR,2024-06-25_14h28.11.189,LearnStrategy,2023.2.3,Win32,58.82352941,3,1,8,-0.396527778,-0.254166667,1,0,0,3.151,Pumice_10,8,10,2,2,3.151,2,14,0.454861111,-0.393055556,1,0,0,0.7,Pumice_rect,8,0.7,1,7,0,7,0,1,,,,,,,,,,,,,
666b44ed662a3864dc13b118,SCR,2024-06-25_14h28.11.189,LearnStrategy,2023.2.3,Win32,58.82352941,3,1,9,-0.244444444,-0.273611111,1,0,0,1.082,Pumice_16,8,16,2,3,1.082,6,16,0.465277778,-0.415972222,1,0,0,1.151,Pumice_rect,8,1.151,1,8,0,8,0,1,,,,,,,,,,,,,
666b44ed662a3864dc13b118,SCR,2024-06-25_14h28.11.189,LearnStrategy,2023.2.3,Win32,58.82352941,3,1,10,-0.097916667,-0.269444444,1,0,0,0.931,Pegmatite_16,6,16,2,4,0.931,7,13,0.128472222,-0.2375,1,0,0,0.889,Diorite_rect,3,0.889,0,9,0,9,0,1,,,,,,,,,,,,,
666b44ed662a3864dc13b118,SCR,2024-06-25_14h28.11.189,LearnStrategy,2023.2.3,Win32,58.82352941,3,1,11,0.40625,-0.289583333,1,0,0,0.781,Andesite_05,1,05,2,7,0.781,3,08,0.346527778,-0.231944444,1,0,0,0.761,Gabbro_rect,4,0.761,0,10,0,10,0,1,,,,,,,,,,,,,
666b44ed662a3864dc13b118,SCR,2024-06-25_14h28.11.189,LearnStrategy,2023.2.3,Win32,58.82352941,3,1,12,0.398611111,-0.100694444,1,0,0,0.914,Peridotite_15,7,15,3,7,0.914,2,14,-0.34375,-0.265972222,1,0,0,1.253,Andesite_rect,1,1.253,0,11,0,11,0,1,,,,,,,,,,,,,
666b44ed662a3864dc13b118,SCR,2024-06-25_14h28.11.189,LearnStrategy,2023.2.3,Win32,58.82352941,3,1,13,-0.061805556,0.240277778,1,0,0,2,Gabbro_12,4,12,5,4,2,1,04,-0.35,-0.232638889,1,0,0,1.624,Andesite_rect,1,1.624,0,12,0,12,0,1,,,,,,,,,,,,,
666b44ed662a3864dc13b118,SCR,2024-06-25_14h28.11.189,LearnStrategy,2023.2.3,Win32,58.82352941,3,1,14,-0.2375,0.094444444,1,0,0,0.713,Pumice_03,8,03,4,3,0.713,4,01,0.441666667,-0.386111111,1,0,0,0.786,Pumice_rect,8,0.786,1,13,0,13,0,1,,,,,,,,,,,,,
666b44ed662a3864dc13b118,SCR,2024-06-25_14h28.11.189,LearnStrategy,2023.2.3,Win32,58.82352941,3,1,15,-0.411805556,0.082638889,1,0,0,0.782,Diorite_09,3,09,4,2,0.782,7,08,0.150694444,-0.256944444,1,0,0,0.745,Diorite_rect,3,0.745,1,14,0,14,0,1,,,,,,,,,,,,,
666b44ed662a3864dc13b118,SCR,2024-06-25_14h28.11.189,LearnStrategy,2023.2.3,Win32,58.82352941,3,1,16,-0.215277778,0.082638889,1,0,0,0.731,Pumice_03,8,03,4,3,0.731,4,14,0.502777778,-0.395833333,1,0,0,1.142,Pumice_rect,8,1.142,1,15,0,15,0,1,,,,,,,,,,,,,
666b44ed662a3864dc13b118,SCR,2024-06-25_14h28.11.189,LearnStrategy,2023.2.3,Win32,58.82352941,3,2,1,,,,,,,,8,14,,,,,,,,,,,,,8,2.003,1,,,,,,0.389583333,-0.409722222,1,0,0,2.003,Pumice_rect,0,0,0,0,1,
666b44ed662a3864dc13b118,SCR,2024-06-25_14h28.11.189,LearnStrategy,2023.2.3,Win32,58.82352941,3,2,2,,,,,,,,2,05,,,,,,,,,,,,,3,1.647,0,,,,,,0.118055556,-0.264583333,1,0,0,1.647,Diorite_rect,1,0,1,0,1,
666b44ed662a3864dc13b118,SCR,2024-06-25_14h28.11.189,LearnStrategy,2023.2.3,Win32,58.82352941,3,2,3,,,,,,,,2,10,,,,,,,,,,,,,5,1.157,0,,,,,,-0.381944444,-0.39375,1,0,0,1.157,Obsidian_rect,2,0,2,0,1,
666b44ed662a3864dc13b118,SCR,2024-06-25_14h28.11.189,LearnStrategy,2023.2.3,Win32,58.82352941,3,2,4,,,,,,,,7,02,,,,,,,,,,,,,3,1.907,0,,,,,,0.141666667,-0.261805556,1,0,0,1.907,Diorite_rect,3,0,3,0,1,
666b44ed662a3864dc13b118,SCR,2024-06-25_14h28.11.189,LearnStrategy,2023.2.3,Win32,58.82352941,3,2,5,,,,,,,,3,12,,,,,,,,,,,,,7,4.422,0,,,,,,0.095833333,-0.404861111,1,0,0,4.422,Peridotite_rect,4,0,4,0,1,
666b44ed662a3864dc13b118,SCR,2024-06-25_14h28.11.189,LearnStrategy,2023.2.3,Win32,58.82352941,3,2,6,,,,,,,,6,11,,,,,,,,,,,,,4,2.002,0,,,,,,0.371527778,-0.247916667,1,0,0,2.002,Gabbro_rect,5,0,5,0,1,
666b44ed662a3864dc13b118,SCR,2024-06-25_14h28.11.189,LearnStrategy,2023.2.3,Win32,58.82352941,3,2,7,,,,,,,,5,11,,,,,,,,,,,,,5,0.833,1,,,,,,-0.346527778,-0.403472222,1,0,0,0.833,Obsidian_rect,6,0,6,0,1,
666b44ed662a3864dc13b118,SCR,2024-06-25_14h28.11.189,LearnStrategy,2023.2.3,Win32,58.82352941,3,2,8,,,,,,,,5,06,,,,,,,,,,,,,5,0.92,1,,,,,,-0.368055556,-0.381944444,1,0,0,0.92,Obsidian_rect,7,0,7,0,1,
666b44ed662a3864dc13b118,SCR,2024-06-25_14h28.11.189,LearnStrategy,2023.2.3,Win32,58.82352941,3,2,9,,,,,,,,4,05,,,,,,,,,,,,,4,5.746,1,,,,,,0.373611111,-0.249305556,1,0,0,5.746,Gabbro_rect,8,0,8,0,1,
666b44ed662a3864dc13b118,SCR,2024-06-25_14h28.11.189,LearnStrategy,2023.2.3,Win32,58.82352941,3,2,10,,,,,,,,7,16,,,,,,,,,,,,,4,1.904,0,,,,,,0.336111111,-0.2375,1,0,0,1.904,Gabbro_rect,9,0,9,0,1,
666b44ed662a3864dc13b118,SCR,2024-06-25_14h28.11.189,LearnStrategy,2023.2.3,Win32,58.82352941,3,2,11,,,,,,,,6,13,,,,,,,,,,,,,4,7.915,0,,,,,,0.434722222,-0.2375,1,0,0,7.915,Gabbro_rect,10,0,10,0,1,
666b44ed662a3864dc13b118,SCR,2024-06-25_14h28.11.189,LearnStrategy,2023.2.3,Win32,58.82352941,3,2,12,,,,,,,,1,16,,,,,,,,,,,,,4,1.505,0,,,,,,0.405555556,-0.229861111,1,0,0,1.505,Gabbro_rect,11,0,11,0,1,
666b44ed662a3864dc13b118,SCR,2024-06-25_14h28.11.189,LearnStrategy,2023.2.3,Win32,58.82352941,3,2,13,,,,,,,,3,15,,,,,,,,,,,,,6,6.423,0,,,,,,-0.067361111,-0.383333333,1,0,0,6.423,Pegmatite_rect,12,0,12,0,1,
666b44ed662a3864dc13b118,SCR,2024-06-25_14h28.11.189,LearnStrategy,2023.2.3,Win32,58.82352941,3,2,14,,,,,,,,8,09,,,,,,,,,,,,,8,1.204,1,,,,,,0.392361111,-0.415972222,1,0,0,1.204,Pumice_rect,13,0,13,0,1,
666b44ed662a3864dc13b118,SCR,2024-06-25_14h28.11.189,LearnStrategy,2023.2.3,Win32,58.82352941,3,2,15,,,,,,,,1,02,,,,,,,,,,,,,7,1.19,0,,,,,,0.143055556,-0.409722222,1,0,0,1.19,Peridotite_rect,14,0,14,0,1,
666b44ed662a3864dc13b118,SCR,2024-06-25_14h28.11.189,LearnStrategy,2023.2.3,Win32,58.82352941,3,2,16,,,,,,,,4,09,,,,,,,,,,,,,5,0.959,0,,,,,,-0.338194444,-0.397916667,1,0,0,0.959,Obsidian_rect,15,0,15,0,1,
666b44ed662a3864dc13b118,SCR,2024-06-25_14h28.11.189,LearnStrategy,2023.2.3,Win32,58.82352941,4,1,1,0.231944444,-0.09375,1,0,0,0.566,Gabbro_14,4,14,3,6,0.566,3,10,0.155555556,-0.242361111,1,0,0,0.59,Diorite_rect,3,0.59,0,0,0,0,0,1,,,,,,,,,,,,,
666b44ed662a3864dc13b118,SCR,2024-06-25_14h28.11.189,LearnStrategy,2023.2.3,Win32,58.82352941,4,1,2,0.444444444,-0.119444444,1,0,0,0.716,Peridotite_15,7,15,3,7,0.716,5,08,0.180555556,-0.271527778,1,0,0,0.697,Diorite_rect,3,0.697,0,1,0,1,0,1,,,,,,,,,,,,,
666b44ed662a3864dc13b118,SCR,2024-06-25_14h28.11.189,LearnStrategy,2023.2.3,Win32,58.82352941,4,1,3,0.381944444,-0.441666667,1,0,0,0.648,Peridotite_10,7,10,1,7,0.648,3,09,0.10625,-0.232638889,1,0,0,1.166,Diorite_rect,3,1.166,0,2,0,2,0,1,,,,,,,,,,,,,
666b44ed662a3864dc13b118,SCR,2024-06-25_14h28.11.189,LearnStrategy,2023.2.3,Win32,58.82352941,4,1,4,0.057638889,-0.425694444,1,0,0,0.681,Pumice_06,8,06,1,5,0.681,6,12,0.40625,-0.405555556,1,0,0,0.619,Pumice_rect,8,0.619,1,3,0,3,0,1,,,,,,,,,,,,,
666b44ed662a3864dc13b118,SCR,2024-06-25_14h28.11.189,LearnStrategy,2023.2.3,Win32,58.82352941,4,1,5,-0.236111111,-0.113194444,1,0,0,0.73,Diorite_06,3,06,3,3,0.73,2,06,-0.307638889,-0.263194444,1,0,0,1.184,Andesite_rect,1,1.184,0,4,0,4,0,1,,,,,,,,,,,,,
666b44ed662a3864dc13b118,SCR,2024-06-25_14h28.11.189,LearnStrategy,2023.2.3,Win32,58.82352941,4,1,6,-0.424305556,0.113194444,1,0,0,2.133,Diorite_09,3,09,4,2,2.133,1,11,-0.101388889,-0.243055556,1,0,0,0.9,Basalt_rect,2,0.9,0,5,0,5,0,1,,,,,,,,,,,,,
666b44ed662a3864dc13b118,SCR,2024-06-25_14h28.11.189,LearnStrategy,2023.2.3,Win32,58.82352941,4,1,7,0.118055556,-0.404861111,1,0,0,0.732,Pumice_06,8,06,1,5,0.732,7,08,0.3875,-0.417361111,1,0,0,1.568,Pumice_rect,8,1.568,1,6,0,6,0,1,,,,,,,,,,,,,
666b44ed662a3864dc13b118,SCR,2024-06-25_14h28.11.189,LearnStrategy,2023.2.3,Win32,58.82352941,4,1,8,0.598611111,-0.429166667,1,0,0,0.68,Pegmatite_03,6,03,1,8,0.68,1,06,0.179166667,-0.258333333,1,0,0,1.085,Diorite_rect,3,1.085,0,7,0,7,0,1,,,,,,,,,,,,,
666b44ed662a3864dc13b118,SCR,2024-06-25_14h28.11.189,LearnStrategy,2023.2.3,Win32,58.82352941,4,1,9,0.573611111,-0.40625,1,0,0,0.831,Pegmatite_03,6,03,1,8,0.831,2,01,-0.123611111,-0.418055556,1,0,0,2.09,Pegmatite_rect,6,2.09,1,8,0,8,0,1,,,,,,,,,,,,,
666b44ed662a3864dc13b118,SCR,2024-06-25_14h28.11.189,LearnStrategy,2023.2.3,Win32,58.82352941,4,1,10,-0.070138889,-0.431944444,1,0,0,1.332,Andesite_01,1,01,1,4,1.332,7,10,0.124305556,-0.388194444,1,0,0,0.885,Peridotite_rect,7,0.885,0,9,0,9,0,1,,,,,,,,,,,,,
666b44ed662a3864dc13b118,SCR,2024-06-25_14h28.11.189,LearnStrategy,2023.2.3,Win32,58.82352941,4,1,11,0.098611111,0.227083333,1,0,0,2.233,Obsidian_05,5,05,5,5,2.233,3,10,-0.344444444,-0.398611111,1,0,0,1.077,Obsidian_rect,5,1.077,1,10,0,10,0,1,,,,,,,,,,,,,
666b44ed662a3864dc13b118,SCR,2024-06-25_14h28.11.189,LearnStrategy,2023.2.3,Win32,58.82352941,4,1,12,-0.393055556,0.396527778,1,0,0,1.815,Gabbro_10,4,10,6,2,1.815,1,10,-0.370138889,-0.252777778,1,0,0,1.516,Andesite_rect,1,1.516,0,11,0,11,0,1,,,,,,,,,,,,,
666b44ed662a3864dc13b118,SCR,2024-06-25_14h28.11.189,LearnStrategy,2023.2.3,Win32,58.82352941,4,1,13,-0.054861111,-0.411111111,0,0,1,4.266,Andesite_01,1,01,1,4,4.266,4,12,-0.393055556,-0.231944444,1,0,0,1.238,Andesite_rect,1,1.238,1,12,0,12,0,1,,,,,,,,,,,,,
666b44ed662a3864dc13b118,SCR,2024-06-25_14h28.11.189,LearnStrategy,2023.2.3,Win32,58.82352941,4,1,14,0.261111111,-0.096527778,1,0,0,0.865,Gabbro_14,4,14,3,6,0.865,6,12,-0.367361111,-0.257638889,1,0,0,0.913,Andesite_rect,1,0.913,0,13,0,13,0,1,,,,,,,,,,,,,
666b44ed662a3864dc13b118,SCR,2024-06-25_14h28.11.189,LearnStrategy,2023.2.3,Win32,58.82352941,4,1,15,-0.352083333,0.236805556,1,0,0,2.4,Peridotite_12,7,12,5,2,2.4,7,13,-0.38125,-0.25,1,0,0,1.051,Andesite_rect,1,1.051,0,14,0,14,0,1,,,,,,,,,,,,,
666b44ed662a3864dc13b118,SCR,2024-06-25_14h28.11.189,LearnStrategy,2023.2.3,Win32,58.82352941,4,1,16,-0.102777778,0.114583333,1,0,0,0.899,Basalt_08,2,08,4,4,0.899,4,01,-0.3625,-0.246527778,1,0,0,0.707,Andesite_rect,1,0.707,0,15,0,15,0,1,,,,,,,,,,,,,
666b44ed662a3864dc13b118,SCR,2024-06-25_14h28.11.189,LearnStrategy,2023.2.3,Win32,58.82352941,4,2,1,,,,,,,,1,14,,,,,,,,,,,,,1,1.552,1,,,,,,-0.344444444,-0.25,1,0,0,1.552,Andesite_rect,0,0,0,0,1,
666b44ed662a3864dc13b118,SCR,2024-06-25_14h28.11.189,LearnStrategy,2023.2.3,Win32,58.82352941,4,2,2,,,,,,,,4,09,,,,,,,,,,,,,5,1.257,0,,,,,,-0.372916667,-0.392361111,1,0,0,1.257,Obsidian_rect,1,0,1,0,1,
666b44ed662a3864dc13b118,SCR,2024-06-25_14h28.11.189,LearnStrategy,2023.2.3,Win32,58.82352941,4,2,3,,,,,,,,8,02,,,,,,,,,,,,,8,1.079,1,,,,,,0.46875,-0.41875,1,0,0,1.079,Pumice_rect,2,0,2,0,1,
666b44ed662a3864dc13b118,SCR,2024-06-25_14h28.11.189,LearnStrategy,2023.2.3,Win32,58.82352941,4,2,4,,,,,,,,3,02,,,,,,,,,,,,,3,1.605,1,,,,,,0.138194444,-0.254861111,1,0,0,1.605,Diorite_rect,3,0,3,0,1,
666b44ed662a3864dc13b118,SCR,2024-06-25_14h28.11.189,LearnStrategy,2023.2.3,Win32,58.82352941,4,2,5,,,,,,,,6,11,,,,,,,,,,,,,4,1.461,0,,,,,,0.3625,-0.246527778,1,0,0,1.461,Gabbro_rect,4,0,4,0,1,
666b44ed662a3864dc13b118,SCR,2024-06-25_14h28.11.189,LearnStrategy,2023.2.3,Win32,58.82352941,4,2,6,,,,,,,,3,11,,,,,,,,,,,,,4,1.285,0,,,,,,0.375,-0.249305556,1,0,0,1.285,Gabbro_rect,5,0,5,0,1,
666b44ed662a3864dc13b118,SCR,2024-06-25_14h28.11.189,LearnStrategy,2023.2.3,Win32,58.82352941,4,2,7,,,,,,,,5,09,,,,,,,,,,,,,5,1.769,1,,,,,,-0.375,-0.418055556,1,0,0,1.769,Obsidian_rect,6,0,6,0,1,
666b44ed662a3864dc13b118,SCR,2024-06-25_14h28.11.189,LearnStrategy,2023.2.3,Win32,58.82352941,4,2,8,,,,,,,,2,10,,,,,,,,,,,,,6,1.77,0,,,,,,-0.170833333,-0.404861111,1,0,0,1.77,Pegmatite_rect,7,0,7,0,1,
666b44ed662a3864dc13b118,SCR,2024-06-25_14h28.11.189,LearnStrategy,2023.2.3,Win32,58.82352941,4,2,9,,,,,,,,7,14,,,,,,,,,,,,,7,1.191,1,,,,,,0.144444444,-0.38125,1,0,0,1.191,Peridotite_rect,8,0,8,0,1,
666b44ed662a3864dc13b118,SCR,2024-06-25_14h28.11.189,LearnStrategy,2023.2.3,Win32,58.82352941,4,2,10,,,,,,,,6,07,,,,,,,,,,,,,6,1.016,1,,,,,,-0.100694444,-0.397916667,1,0,0,1.016,Pegmatite_rect,9,0,9,0,1,
666b44ed662a3864dc13b118,SCR,2024-06-25_14h28.11.189,LearnStrategy,2023.2.3,Win32,58.82352941,4,2,11,,,,,,,,1,09,,,,,,,,,,,,,2,15.463,0,,,,,,-0.1125,-0.25625,1,0,0,15.463,Basalt_rect,10,0,10,0,1,
666b44ed662a3864dc13b118,SCR,2024-06-25_14h28.11.189,LearnStrategy,2023.2.3,Win32,58.82352941,4,2,12,,,,,,,,5,11,,,,,,,,,,,,,5,3.346,1,,,,,,-0.391666667,-0.404166667,1,0,0,3.346,Obsidian_rect,11,0,11,0,1,
666b44ed662a3864dc13b118,SCR,2024-06-25_14h28.11.189,LearnStrategy,2023.2.3,Win32,58.82352941,4,2,13,,,,,,,,7,07,,,,,,,,,,,,,4,2.176,0,,,,,,0.477777778,-0.257638889,1,0,0,2.176,Gabbro_rect,12,0,12,0,1,
666b44ed662a3864dc13b118,SCR,2024-06-25_14h28.11.189,LearnStrategy,2023.2.3,Win32,58.82352941,4,2,14,,,,,,,,4,13,,,,,,,,,,,,,3,0.868,0,,,,,,0.16875,-0.241666667,1,0,0,0.868,Diorite_rect,13,0,13,0,1,
666b44ed662a3864dc13b118,SCR,2024-06-25_14h28.11.189,LearnStrategy,2023.2.3,Win32,58.82352941,4,2,15,,,,,,,,2,16,,,,,,,,,,,,,8,1.535,0,,,,,,0.378472222,-0.390972222,1,0,0,1.535,Pumice_rect,14,0,14,0,1,
666b44ed662a3864dc13b118,SCR,2024-06-25_14h28.11.189,LearnStrategy,2023.2.3,Win32,58.82352941,4,2,16,,,,,,,,8,13,,,,,,,,,,,,,8,0.835,1,,,,,,0.392361111,-0.401388889,1,0,0,0.835,Pumice_rect,15,0,15,0,1,
666b44ed662a3864dc13b118,SCR,2024-06-25_14h28.11.189,LearnStrategy,2023.2.3,Win32,58.82352941,5,1,1,0.057638889,-0.079861111,1,0,0,0.901,Pegmatite_12,6,12,3,5,0.901,7,08,0.11875,-0.242361111,1,0,0,0.934,Diorite_rect,3,0.934,0,0,0,0,0,1,,,,,,,,,,,,,
666b44ed662a3864dc13b118,SCR,2024-06-25_14h28.11.189,LearnStrategy,2023.2.3,Win32,58.82352941,5,1,2,0.113194444,-0.252777778,1,0,0,0.765,Gabbro_11,4,11,2,5,0.765,4,12,0.152777778,-0.2375,1,0,0,0.619,Diorite_rect,3,0.619,0,1,0,1,0,1,,,,,,,,,,,,,
666b44ed662a3864dc13b118,SCR,2024-06-25_14h28.11.189,LearnStrategy,2023.2.3,Win32,58.82352941,5,1,3,-0.061805556,0.109722222,1,0,0,0.614,Basalt_08,2,08,4,4,0.614,7,08,0.15,-0.381944444,1,0,0,0.8,Peridotite_rect,7,0.8,0,2,0,2,0,1,,,,,,,,,,,,,
666b44ed662a3864dc13b118,SCR,2024-06-25_14h28.11.189,LearnStrategy,2023.2.3,Win32,58.82352941,5,1,4,-0.133333333,-0.097916667,1,0,0,0.481,Diorite_16,3,16,3,4,0.481,1,11,-0.058333333,-0.25,1,0,0,0.741,Basalt_rect,2,0.741,0,3,0,3,0,1,,,,,,,,,,,,,
666b44ed662a3864dc13b118,SCR,2024-06-25_14h28.11.189,LearnStrategy,2023.2.3,Win32,58.82352941,5,1,5,0.361111111,0.107638889,1,0,0,0.748,Diorite_10,3,10,4,7,0.748,2,06,0.154166667,-0.390277778,1,0,0,1.642,Peridotite_rect,7,1.642,0,4,0,4,0,1,,,,,,,,,,,,,
666b44ed662a3864dc13b118,SCR,2024-06-25_14h28.11.189,LearnStrategy,2023.2.3,Win32,58.82352941,5,1,6,-0.3875,0.076388889,1,0,0,0.652,Diorite_09,3,09,4,2,0.652,6,09,0.09375,-0.411805556,1,0,0,0.692,Peridotite_rect,7,0.692,0,5,0,5,0,1,,,,,,,,,,,,,
666b44ed662a3864dc13b118,SCR,2024-06-25_14h28.11.189,LearnStrategy,2023.2.3,Win32,58.82352941,5,1,7,0.592361111,0.093055556,1,0,0,5.884,Basalt_14,2,14,4,8,5.884,4,08,0.401388889,-0.409027778,1,0,0,0.901,Pumice_rect,8,0.901,0,6,0,6,0,1,,,,,,,,,,,,,
666b44ed662a3864dc13b118,SCR,2024-06-25_14h28.11.189,LearnStrategy,2023.2.3,Win32,58.82352941,5,1,8,-0.515277778,0.388888889,1,0,0,46.289,Pegmatite_09,6,09,6,1,46.289,3,10,-0.161805556,-0.380555556,1,0,0,1.829,Pegmatite_rect,6,1.829,1,7,0,7,0,1,,,,,,,,,,,,,
666b44ed662a3864dc13b118,SCR,2024-06-25_14h28.11.189,LearnStrategy,2023.2.3,Win32,58.82352941,5,1,9,-0.369444444,0.410416667,1,0,0,1.082,Gabbro_10,4,10,6,2,1.082,4,14,-0.135416667,-0.249305556,1,0,0,1.316,Basalt_rect,2,1.316,0,8,0,8,0,1,,,,,,,,,,,,,
666b44ed662a3864dc13b118,SCR,2024-06-25_14h28.11.189,LearnStrategy,2023.2.3,Win32,58.82352941,5,1,10,-0.075,0.394444444,1,0,0,0.812,Peridotite_08,7,08,6,4,0.812,7,15,0.111111111,-0.254861111,1,0,0,1.058,Diorite_rect,3,1.058,0,9,0,9,0,1,,,,,,,,,,,,,
666b44ed662a3864dc13b118,SCR,2024-06-25_14h28.11.189,LearnStrategy,2023.2.3,Win32,58.82352941,5,1,11,0.095833333,0.413194444,1,0,0,0.847,Andesite_06,1,06,6,5,0.847,2,08,0.369444444,-0.261111111,1,0,0,1.846,Gabbro_rect,4,1.846,0,10,0,10,0,1,,,,,,,,,,,,,
666b44ed662a3864dc13b118,SCR,2024-06-25_14h28.11.189,LearnStrategy,2023.2.3,Win32,58.82352941,5,1,12,0.256944444,0.409722222,1,0,0,0.901,Diorite_14,3,14,6,6,0.901,5,08,0.179166667,-0.268055556,1,0,0,0.98,Diorite_rect,3,0.98,1,11,0,11,0,1,,,,,,,,,,,,,
666b44ed662a3864dc13b118,SCR,2024-06-25_14h28.11.189,LearnStrategy,2023.2.3,Win32,58.82352941,5,1,13,0.585416667,0.420833333,1,0,0,0.815,Andesite_10,1,10,6,8,0.815,2,01,-0.383333333,-0.247916667,1,0,0,2.921,Andesite_rect,1,2.921,1,12,0,12,0,1,,,,,,,,,,,,,
666b44ed662a3864dc13b118,SCR,2024-06-25_14h28.11.189,LearnStrategy,2023.2.3,Win32,58.82352941,5,1,14,0.234722222,0.255555556,1,0,0,2.134,Pegmatite_06,6,06,5,6,2.134,3,16,-0.092361111,-0.388888889,1,0,0,1.13,Pegmatite_rect,6,1.13,1,13,0,13,0,1,,,,,,,,,,,,,
666b44ed662a3864dc13b118,SCR,2024-06-25_14h28.11.189,LearnStrategy,2023.2.3,Win32,58.82352941,5,1,15,0.388888889,0.253472222,1,0,0,1.181,Peridotite_06,7,06,5,7,1.181,1,01,0.346527778,-0.408333333,1,0,0,3.893,Pumice_rect,8,3.893,0,14,0,14,0,1,,,,,,,,,,,,,
666b44ed662a3864dc13b118,SCR,2024-06-25_14h28.11.189,LearnStrategy,2023.2.3,Win32,58.82352941,5,1,16,-0.388888889,0.1125,1,0,0,2.867,Diorite_09,3,09,4,2,2.867,6,12,0.170833333,-0.263194444,1,0,0,3.036,Diorite_rect,3,3.036,1,15,0,15,0,1,,,,,,,,,,,,,
666b44ed662a3864dc13b118,SCR,2024-06-25_14h28.11.189,LearnStrategy,2023.2.3,Win32,58.82352941,5,2,1,,,,,,,,6,13,,,,,,,,,,,,,6,13.895,1,,,,,,-0.070138889,-0.397916667,1,0,0,13.895,Pegmatite_rect,0,0,0,0,1,
666b44ed662a3864dc13b118,SCR,2024-06-25_14h28.11.189,LearnStrategy,2023.2.3,Win32,58.82352941,5,2,2,,,,,,,,7,04,,,,,,,,,,,,,7,3.95,1,,,,,,0.090277778,-0.404166667,1,0,0,3.95,Peridotite_rect,1,0,1,0,1,
666b44ed662a3864dc13b118,SCR,2024-06-25_14h28.11.189,LearnStrategy,2023.2.3,Win32,58.82352941,5,2,3,,,,,,,,8,09,,,,,,,,,,,,,8,1.101,1,,,,,,0.423611111,-0.415972222,1,0,0,1.101,Pumice_rect,2,0,2,0,1,
666b44ed662a3864dc13b118,SCR,2024-06-25_14h28.11.189,LearnStrategy,2023.2.3,Win32,58.82352941,5,2,4,,,,,,,,5,06,,,,,,,,,,,,,5,1.052,1,,,,,,-0.358333333,-0.411805556,1,0,0,1.052,Obsidian_rect,3,0,3,0,1,
666b44ed662a3864dc13b118,SCR,2024-06-25_14h28.11.189,LearnStrategy,2023.2.3,Win32,58.82352941,5,2,5,,,,,,,,3,15,,,,,,,,,,,,,1,6.023,0,,,,,,-0.352777778,-0.256944444,1,0,0,6.023,Andesite_rect,4,0,4,0,1,
666b44ed662a3864dc13b118,SCR,2024-06-25_14h28.11.189,LearnStrategy,2023.2.3,Win32,58.82352941,5,2,6,,,,,,,,1,16,,,,,,,,,,,,,1,1.146,1,,,,,,-0.379166667,-0.245138889,1,0,0,1.146,Andesite_rect,5,0,5,0,1,
666b44ed662a3864dc13b118,SCR,2024-06-25_14h28.11.189,LearnStrategy,2023.2.3,Win32,58.82352941,5,2,7,,,,,,,,4,05,,,,,,,,,,,,,4,2.9,1,,,,,,0.365972222,-0.252083333,1,0,0,2.9,Gabbro_rect,6,0,6,0,1,
666b44ed662a3864dc13b118,SCR,2024-06-25_14h28.11.189,LearnStrategy,2023.2.3,Win32,58.82352941,5,2,8,,,,,,,,3,12,,,,,,,,,,,,,7,4.16,0,,,,,,0.102777778,-0.384722222,1,0,0,4.16,Peridotite_rect,7,0,7,0,1,
666b44ed662a3864dc13b118,SCR,2024-06-25_14h28.11.189,LearnStrategy,2023.2.3,Win32,58.82352941,5,2,9,,,,,,,,2,09,,,,,,,,,,,,,1,6.97,0,,,,,,-0.352083333,-0.238194444,1,0,0,6.97,Andesite_rect,8,0,8,0,1,
666b44ed662a3864dc13b118,SCR,2024-06-25_14h28.11.189,LearnStrategy,2023.2.3,Win32,58.82352941,5,2,10,,,,,,,,4,03,,,,,,,,,,,,,4,2.834,1,,,,,,0.353472222,-0.243055556,1,0,0,2.834,Gabbro_rect,9,0,9,0,1,
666b44ed662a3864dc13b118,SCR,2024-06-25_14h28.11.189,LearnStrategy,2023.2.3,Win32,58.82352941,5,2,11,,,,,,,,6,10,,,,,,,,,,,,,7,4.174,0,,,,,,0.177777778,-0.395833333,1,0,0,4.174,Peridotite_rect,10,0,10,0,1,
666b44ed662a3864dc13b118,SCR,2024-06-25_14h28.11.189,LearnStrategy,2023.2.3,Win32,58.82352941,5,2,12,,,,,,,,5,07,,,,,,,,,,,,,5,1.07,1,,,,,,-0.382638889,-0.406944444,1,0,0,1.07,Obsidian_rect,11,0,11,0,1,
666b44ed662a3864dc13b118,SCR,2024-06-25_14h28.11.189,LearnStrategy,2023.2.3,Win32,58.82352941,5,2,13,,,,,,,,8,05,,,,,,,,,,,,,8,1.163,1,,,,,,0.378472222,-0.415277778,1,0,0,1.163,Pumice_rect,12,0,12,0,1,
666b44ed662a3864dc13b118,SCR,2024-06-25_14h28.11.189,LearnStrategy,2023.2.3,Win32,58.82352941,5,2,14,,,,,,,,2,04,,,,,,,,,,,,,2,6.614,1,,,,,,-0.079861111,-0.261111111,1,0,0,6.614,Basalt_rect,13,0,13,0,1,
666b44ed662a3864dc13b118,SCR,2024-06-25_14h28.11.189,LearnStrategy,2023.2.3,Win32,58.82352941,5,2,15,,,,,,,,1,03,,,,,,,,,,,,,6,16.965,0,,,,,,-0.043055556,-0.413194444,1,0,0,16.965,Pegmatite_rect,14,0,14,0,1,
666b44ed662a3864dc13b118,SCR,2024-06-25_14h28.11.189,LearnStrategy,2023.2.3,Win32,58.82352941,5,2,16,,,,,,,,7,16,,,,,,,,,,,,,6,0.957,0,,,,,,-0.076388889,-0.404166667,1,0,0,0.957,Pegmatite_rect,15,0,15,0,1,
666b44ed662a3864dc13b118,SCR,2024-06-25_14h28.11.189,LearnStrategy,2023.2.3,Win32,58.82352941,6,1,1,-0.223611111,0.259722222,1,0,0,3.382,Diorite_08,3,08,5,3,3.382,5,04,0.093055556,-0.245833333,1,0,0,2.503,Diorite_rect,3,2.503,1,0,0,0,0,1,,,,,,,,,,,,,
666b44ed662a3864dc13b118,SCR,2024-06-25_14h28.11.189,LearnStrategy,2023.2.3,Win32,58.82352941,6,1,2,0.264583333,-0.102777778,1,0,0,3.834,Gabbro_14,4,14,3,6,3.834,1,10,0.175,-0.385416667,1,0,0,0.983,Peridotite_rect,7,0.983,0,1,0,1,0,1,,,,,,,,,,,,,
666b44ed662a3864dc13b118,SCR,2024-06-25_14h28.11.189,LearnStrategy,2023.2.3,Win32,58.82352941,6,1,3,0.244444444,-0.263194444,1,0,0,1.314,Pegmatite_08,6,08,2,6,1.314,2,06,0.181944444,-0.407638889,1,0,0,6.508,Peridotite_rect,7,6.508,0,2,0,2,0,1,,,,,,,,,,,,,
666b44ed662a3864dc13b118,SCR,2024-06-25_14h28.11.189,LearnStrategy,2023.2.3,Win32,58.82352941,6,1,4,0.097222222,-0.278472222,1,0,0,0.766,Gabbro_11,4,11,2,5,0.766,6,16,0.170833333,-0.4125,1,0,0,3.718,Peridotite_rect,7,3.718,0,3,0,3,0,1,,,,,,,,,,,,,
666b44ed662a3864dc13b118,SCR,2024-06-25_14h28.11.189,LearnStrategy,2023.2.3,Win32,58.82352941,6,1,5,-0.067361111,-0.264583333,1,0,0,0.851,Pegmatite_16,6,16,2,4,0.851,2,01,-0.125,-0.411111111,1,0,0,2.439,Pegmatite_rect,6,2.439,1,4,0,4,0,1,,,,,,,,,,,,,
666b44ed662a3864dc13b118,SCR,2024-06-25_14h28.11.189,LearnStrategy,2023.2.3,Win32,58.82352941,6,1,6,0.563194444,-0.382638889,1,0,0,1.529,Pegmatite_03,6,03,1,8,1.529,3,08,-0.056944444,-0.404166667,1,0,0,4.932,Pegmatite_rect,6,4.932,1,5,0,5,0,1,,,,,,,,,,,,,
666b44ed662a3864dc13b118,SCR,2024-06-25_14h28.11.189,LearnStrategy,2023.2.3,Win32,58.82352941,6,1,7,0.564583333,-0.265277778,1,0,0,0.871,Basalt_02,2,02,2,8,0.871,4,10,0.355555556,-0.247222222,1,0,0,8.111,Gabbro_rect,4,8.111,0,6,0,6,0,1,,,,,,,,,,,,,
666b44ed662a3864dc13b118,SCR,2024-06-25_14h28.11.189,LearnStrategy,2023.2.3,Win32,58.82352941,6,1,8,0.418055556,-0.104166667,1,0,0,1.463,Peridotite_15,7,15,3,7,1.463,7,08,0.125,-0.250694444,1,0,0,6.467,Diorite_rect,3,6.467,0,7,0,7,0,1,,,,,,,,,,,,,
666b44ed662a3864dc13b118,SCR,2024-06-25_14h28.11.189,LearnStrategy,2023.2.3,Win32,58.82352941,6,1,9,0.256944444,-0.099305556,1,0,0,13.952,Gabbro_14,4,14,3,6,13.952,1,05,0.396527778,-0.261805556,1,0,0,2.988,Gabbro_rect,4,2.988,1,8,0,8,0,1,,,,,,,,,,,,,
666b44ed662a3864dc13b118,SCR,2024-06-25_14h28.11.189,LearnStrategy,2023.2.3,Win32,58.82352941,6,1,10,0.088888889,-0.109027778,1,0,0,1.099,Pegmatite_12,6,12,3,5,1.099,4,11,-0.114583333,-0.420833333,1,0,0,3.295,Pegmatite_rect,6,3.295,1,9,0,9,0,1,,,,,,,,,,,,,
666b44ed662a3864dc13b118,SCR,2024-06-25_14h28.11.189,LearnStrategy,2023.2.3,Win32,58.82352941,6,1,11,-0.226388889,-0.445138889,1,0,0,1.184,Peridotite_13,7,13,1,3,1.184,7,15,0.165972222,-0.418055556,1,0,0,2.977,Peridotite_rect,7,2.977,1,10,0,10,0,1,,,,,,,,,,,,,
666b44ed662a3864dc13b118,SCR,2024-06-25_14h28.11.189,LearnStrategy,2023.2.3,Win32,58.82352941,6,1,12,-0.379166667,-0.425,1,0,0,0.883,Gabbro_01,4,01,1,2,0.883,3,09,-0.302083333,-0.254166667,1,0,0,4.083,Andesite_rect,1,4.083,0,11,0,11,0,1,,,,,,,,,,,,,
666b44ed662a3864dc13b118,SCR,2024-06-25_14h28.11.189,LearnStrategy,2023.2.3,Win32,58.82352941,6,1,13,-0.570833333,-0.420833333,1,0,0,0.997,Basalt_01,2,01,1,1,0.997,2,12,-0.121527778,-0.242361111,1,0,0,2.888,Basalt_rect,2,2.888,1,12,0,12,0,1,,,,,,,,,,,,,
666b44ed662a3864dc13b118,SCR,2024-06-25_14h28.11.189,LearnStrategy,2023.2.3,Win32,58.82352941,6,1,14,-0.569444444,-0.232638889,1,0,0,0.979,Basalt_06,2,06,2,1,0.979,7,13,0.427777778,-0.253472222,1,0,0,11.863,Gabbro_rect,4,11.863,0,13,0,13,0,1,,,,,,,,,,,,,
666b44ed662a3864dc13b118,SCR,2024-06-25_14h28.11.189,LearnStrategy,2023.2.3,Win32,58.82352941,6,1,15,-0.564583333,0.091666667,1,0,0,2.826,Andesite_04,1,04,4,1,2.826,3,06,-0.147222222,-0.402083333,1,0,0,7.7,Pegmatite_rect,6,7.7,0,14,0,14,0,1,,,,,,,,,,,,,
666b44ed662a3864dc13b118,SCR,2024-06-25_14h28.11.189,LearnStrategy,2023.2.3,Win32,58.82352941,6,1,16,-0.056944444,-0.430555556,1,0,0,4.035,Andesite_01,1,01,1,4,4.035,6,12,-0.124305556,-0.256944444,1,0,0,3.451,Basalt_rect,2,3.451,0,15,0,15,0,1,,,,,,,,,,,,,
666b44ed662a3864dc13b118,SCR,2024-06-25_14h28.11.189,LearnStrategy,2023.2.3,Win32,58.82352941,6,2,1,,,,,,,,3,13,,,,,,,,,,,,,6,7.611,0,,,,,,-0.0625,-0.418055556,1,0,0,7.611,Pegmatite_rect,0,0,0,0,1,
666b44ed662a3864dc13b118,SCR,2024-06-25_14h28.11.189,LearnStrategy,2023.2.3,Win32,58.82352941,6,2,2,,,,,,,,6,05,,,,,,,,,,,,,7,2.772,0,,,,,,0.097916667,-0.413194444,1,0,0,2.772,Peridotite_rect,1,0,1,0,1,
666b44ed662a3864dc13b118,SCR,2024-06-25_14h28.11.189,LearnStrategy,2023.2.3,Win32,58.82352941,6,2,3,,,,,,,,1,07,,,,,,,,,,,,,3,3.662,0,,,,,,0.113888889,-0.253472222,1,0,0,3.662,Diorite_rect,2,0,2,0,1,
666b44ed662a3864dc13b118,SCR,2024-06-25_14h28.11.189,LearnStrategy,2023.2.3,Win32,58.82352941,6,2,4,,,,,,,,2,11,,,,,,,,,,,,,2,4.155,1,,,,,,-0.076388889,-0.248611111,1,0,0,4.155,Basalt_rect,3,0,3,0,1,
666b44ed662a3864dc13b118,SCR,2024-06-25_14h28.11.189,LearnStrategy,2023.2.3,Win32,58.82352941,6,2,5,,,,,,,,4,15,,,,,,,,,,,,,4,4.212,1,,,,,,0.425,-0.254861111,1,0,0,4.212,Gabbro_rect,4,0,4,0,1,
666b44ed662a3864dc13b118,SCR,2024-06-25_14h28.11.189,LearnStrategy,2023.2.3,Win32,58.82352941,6,2,6,,,,,,,,4,16,,,,,,,,,,,,,1,3.387,0,,,,,,-0.433333333,-0.2375,1,0,0,3.387,Andesite_rect,5,0,5,0,1,
666b44ed662a3864dc13b118,SCR,2024-06-25_14h28.11.189,LearnStrategy,2023.2.3,Win32,58.82352941,6,2,7,,,,,,,,6,15,,,,,,,,,,,,,6,9.559,1,,,,,,-0.105555556,-0.408333333,1,0,0,9.559,Pegmatite_rect,6,0,6,0,1,
666b44ed662a3864dc13b118,SCR,2024-06-25_14h28.11.189,LearnStrategy,2023.2.3,Win32,58.82352941,6,2,8,,,,,,,,1,02,,,,,,,,,,,,,4,14.715,0,,,,,,0.455555556,-0.240277778,1,0,0,14.715,Gabbro_rect,7,0,7,0,1,
666b44ed662a3864dc13b118,SCR,2024-06-25_14h28.11.189,LearnStrategy,2023.2.3,Win32,58.82352941,6,2,9,,,,,,,,5,16,,,,,,,,,,,,,5,1.205,1,,,,,,-0.386111111,-0.383333333,1,0,0,1.205,Obsidian_rect,8,0,8,0,1,
666b44ed662a3864dc13b118,SCR,2024-06-25_14h28.11.189,LearnStrategy,2023.2.3,Win32,58.82352941,6,2,10,,,,,,,,8,08,,,,,,,,,,,,,8,1.929,1,,,,,,0.434027778,-0.409722222,1,0,0,1.929,Pumice_rect,9,0,9,0,1,
666b44ed662a3864dc13b118,SCR,2024-06-25_14h28.11.189,LearnStrategy,2023.2.3,Win32,58.82352941,6,2,11,,,,,,,,5,10,,,,,,,,,,,,,5,1.189,1,,,,,,-0.351388889,-0.4125,1,0,0,1.189,Obsidian_rect,10,0,10,0,1,
666b44ed662a3864dc13b118,SCR,2024-06-25_14h28.11.189,LearnStrategy,2023.2.3,Win32,58.82352941,6,2,12,,,,,,,,3,07,,,,,,,,,,,,,3,8.269,1,,,,,,0.175,-0.247916667,1,0,0,8.269,Diorite_rect,11,0,11,0,1,
666b44ed662a3864dc13b118,SCR,2024-06-25_14h28.11.189,LearnStrategy,2023.2.3,Win32,58.82352941,6,2,13,,,,,,,,7,05,,,,,,,,,,,,,1,3.763,0,,,,,,-0.38125,-0.252777778,1,0,0,3.763,Andesite_rect,12,0,12,0,1,
666b44ed662a3864dc13b118,SCR,2024-06-25_14h28.11.189,LearnStrategy,2023.2.3,Win32,58.82352941,6,2,14,,,,,,,,7,02,,,,,,,,,,,,,1,7.942,0,,,,,,-0.383333333,-0.256944444,1,0,0,7.942,Andesite_rect,13,0,13,0,1,
666b44ed662a3864dc13b118,SCR,2024-06-25_14h28.11.189,LearnStrategy,2023.2.3,Win32,58.82352941,6,2,15,,,,,,,,8,14,,,,,,,,,,,,,8,1.189,1,,,,,,0.349305556,-0.409722222,1,0,0,1.189,Pumice_rect,14,0,14,0,1,
666b44ed662a3864dc13b118,SCR,2024-06-25_14h28.11.189,LearnStrategy,2023.2.3,Win32,58.82352941,6,2,16,,,,,,,,2,05,,,,,,,,,,,,,2,3.788,1,,,,,,-0.192361111,-0.25,1,0,0,3.788,Basalt_rect,15,0,15,0,1,
666b44ed662a3864dc13b118,SCR,2024-06-25_14h28.11.189,LearnStrategy,2023.2.3,Win32,58.82352941,7,1,1,0.222916667,-0.06875,1,0,0,0.816,Gabbro_14,4,14,3,6,0.816,1,06,0.090972222,-0.256944444,1,0,0,0.667,Diorite_rect,3,0.667,0,0,0,0,0,1,,,,,,,,,,,,,
666b44ed662a3864dc13b118,SCR,2024-06-25_14h28.11.189,LearnStrategy,2023.2.3,Win32,58.82352941,7,1,2,-0.070833333,-0.259722222,1,0,0,0.764,Pegmatite_16,6,16,2,4,0.764,2,02,-0.088888889,-0.270833333,1,0,0,0.668,Basalt_rect,2,0.668,0,1,0,1,0,1,,,,,,,,,,,,,
666b44ed662a3864dc13b118,SCR,2024-06-25_14h28.11.189,LearnStrategy,2023.2.3,Win32,58.82352941,7,1,3,0.080555556,-0.272222222,1,0,0,0.613,Gabbro_11,4,11,2,5,0.613,5,12,0.372916667,-0.239583333,1,0,0,0.82,Gabbro_rect,4,0.82,1,2,0,2,0,1,,,,,,,,,,,,,
666b44ed662a3864dc13b118,SCR,2024-06-25_14h28.11.189,LearnStrategy,2023.2.3,Win32,58.82352941,7,1,4,0.118055556,-0.265972222,1,0,0,0.549,Gabbro_11,4,11,2,5,0.549,4,01,0.476388889,-0.247916667,1,0,0,0.534,Gabbro_rect,4,0.534,1,3,0,3,0,1,,,,,,,,,,,,,
666b44ed662a3864dc13b118,SCR,2024-06-25_14h28.11.189,LearnStrategy,2023.2.3,Win32,58.82352941,7,1,5,0.092361111,-0.25625,1,0,0,0.614,Gabbro_11,4,11,2,5,0.614,2,14,0.427083333,-0.252777778,1,0,0,0.556,Gabbro_rect,4,0.556,1,4,0,4,0,1,,,,,,,,,,,,,
666b44ed662a3864dc13b118,SCR,2024-06-25_14h28.11.189,LearnStrategy,2023.2.3,Win32,58.82352941,7,1,6,0.050694444,-0.292361111,1,0,0,0.582,Gabbro_11,4,11,2,5,0.582,3,08,0.461111111,-0.257638889,1,0,0,0.489,Gabbro_rect,4,0.489,1,5,0,5,0,1,,,,,,,,,,,,,
666b44ed662a3864dc13b118,SCR,2024-06-25_14h28.11.189,LearnStrategy,2023.2.3,Win32,58.82352941,7,1,7,0.079166667,-0.276388889,1,0,0,0.648,Gabbro_11,4,11,2,5,0.648,3,08,0.466666667,-0.264583333,1,0,0,0.584,Gabbro_rect,4,0.584,1,6,0,6,0,1,,,,,,,,,,,,,
666b44ed662a3864dc13b118,SCR,2024-06-25_14h28.11.189,LearnStrategy,2023.2.3,Win32,58.82352941,7,1,8,0.059722222,-0.2625,1,0,0,0.598,Gabbro_11,4,11,2,5,0.598,7,08,0.489583333,-0.250694444,1,0,0,0.551,Gabbro_rect,4,0.551,1,7,0,7,0,1,,,,,,,,,,,,,
666b44ed662a3864dc13b118,SCR,2024-06-25_14h28.11.189,LearnStrategy,2023.2.3,Win32,58.82352941,7,1,9,0.604861111,-0.4375,1,0,0,0.915,Pegmatite_03,6,03,1,8,0.915,3,16,0.145138889,-0.386111111,1,0,0,0.683,Peridotite_rect,7,0.683,0,8,0,8,0,1,,,,,,,,,,,,,
666b44ed662a3864dc13b118,SCR,2024-06-25_14h28.11.189,LearnStrategy,2023.2.3,Win32,58.82352941,7,1,10,0.21875,-0.270138889,1,0,0,0.748,Pegmatite_08,6,08,2,6,0.748,6,16,0.4375,-0.258333333,1,0,0,0.616,Gabbro_rect,4,0.616,0,9,0,9,0,1,,,,,,,,,,,,,
666b44ed662a3864dc13b118,SCR,2024-06-25_14h28.11.189,LearnStrategy,2023.2.3,Win32,58.82352941,7,1,11,0.077777778,-0.28125,1,0,0,0.549,Gabbro_11,4,11,2,5,0.549,4,14,0.467361111,-0.244444444,1,0,0,0.616,Gabbro_rect,4,0.616,1,10,0,10,0,1,,,,,,,,,,,,,
666b44ed662a3864dc13b118,SCR,2024-06-25_14h28.11.189,LearnStrategy,2023.2.3,Win32,58.82352941,7,1,12,0.063194444,-0.269444444,1,0,0,0.515,Gabbro_11,4,11,2,5,0.515,7,10,0.438194444,-0.245833333,1,0,0,1.735,Gabbro_rect,4,1.735,1,11,0,11,0,1,,,,,,,,,,,,,
666b44ed662a3864dc13b118,SCR,2024-06-25_14h28.11.189,LearnStrategy,2023.2.3,Win32,58.82352941,7,1,13,0.095138889,-0.279861111,1,0,0,0.865,Gabbro_11,4,11,2,5,0.865,1,01,0.401388889,-0.24375,1,0,0,0.511,Gabbro_rect,4,0.511,1,12,0,12,0,1,,,,,,,,,,,,,
666b44ed662a3864dc13b118,SCR,2024-06-25_14h28.11.189,LearnStrategy,2023.2.3,Win32,58.82352941,7,1,14,0.061805556,-0.252083333,1,0,0,0.615,Gabbro_11,4,11,2,5,0.615,7,06,0.492361111,-0.250694444,1,0,0,0.542,Gabbro_rect,4,0.542,1,13,0,13,0,1,,,,,,,,,,,,,
666b44ed662a3864dc13b118,SCR,2024-06-25_14h28.11.189,LearnStrategy,2023.2.3,Win32,58.82352941,7,1,15,0.099305556,-0.263194444,1,0,0,0.565,Gabbro_11,4,11,2,5,0.565,6,09,0.497222222,-0.238194444,1,0,0,0.467,Gabbro_rect,4,0.467,1,14,0,14,0,1,,,,,,,,,,,,,
666b44ed662a3864dc13b118,SCR,2024-06-25_14h28.11.189,LearnStrategy,2023.2.3,Win32,58.82352941,7,1,16,0.076388889,-0.256944444,1,0,0,0.681,Gabbro_11,4,11,2,5,0.681,1,06,0.454861111,-0.261805556,1,0,0,0.527,Gabbro_rect,4,0.527,1,15,0,15,0,1,,,,,,,,,,,,,
666b44ed662a3864dc13b118,SCR,2024-06-25_14h28.11.189,LearnStrategy,2023.2.3,Win32,58.82352941,7,2,1,,,,,,,,5,07,,,,,,,,,,,,,5,1.851,1,,,,,,-0.334722222,-0.404861111,1,0,0,1.851,Obsidian_rect,0,0,0,0,1,
666b44ed662a3864dc13b118,SCR,2024-06-25_14h28.11.189,LearnStrategy,2023.2.3,Win32,58.82352941,7,2,2,,,,,,,,8,08,,,,,,,,,,,,,8,1.404,1,,,,,,0.420138889,-0.417361111,1,0,0,1.404,Pumice_rect,1,0,1,0,1,
666b44ed662a3864dc13b118,SCR,2024-06-25_14h28.11.189,LearnStrategy,2023.2.3,Win32,58.82352941,7,2,3,,,,,,,,6,07,,,,,,,,,,,,,7,4.238,0,,,,,,0.140972222,-0.409027778,1,0,0,4.238,Peridotite_rect,2,0,2,0,1,
666b44ed662a3864dc13b118,SCR,2024-06-25_14h28.11.189,LearnStrategy,2023.2.3,Win32,58.82352941,7,2,4,,,,,,,,2,10,,,,,,,,,,,,,2,14.267,1,,,,,,-0.160416667,-0.2625,1,0,0,14.267,Basalt_rect,3,0,3,0,1,
666b44ed662a3864dc13b118,SCR,2024-06-25_14h28.11.189,LearnStrategy,2023.2.3,Win32,58.82352941,7,2,5,,,,,,,,7,07,,,,,,,,,,,,,7,3.361,1,,,,,,0.038194444,-0.403472222,1,0,0,3.361,Peridotite_rect,4,0,4,0,1,
666b44ed662a3864dc13b118,SCR,2024-06-25_14h28.11.189,LearnStrategy,2023.2.3,Win32,58.82352941,7,2,6,,,,,,,,2,11,,,,,,,,,,,,,1,4.055,0,,,,,,-0.317361111,-0.258333333,1,0,0,4.055,Andesite_rect,5,0,5,0,1,
666b44ed662a3864dc13b118,SCR,2024-06-25_14h28.11.189,LearnStrategy,2023.2.3,Win32,58.82352941,7,2,7,,,,,,,,1,02,,,,,,,,,,,,,4,2.219,0,,,,,,0.329861111,-0.263888889,1,0,0,2.219,Gabbro_rect,6,0,6,0,1,
666b44ed662a3864dc13b118,SCR,2024-06-25_14h28.11.189,LearnStrategy,2023.2.3,Win32,58.82352941,7,2,8,,,,,,,,1,09,,,,,,,,,,,,,4,1.101,0,,,,,,0.358333333,-0.253472222,1,0,0,1.101,Gabbro_rect,7,0,7,0,1,
666b44ed662a3864dc13b118,SCR,2024-06-25_14h28.11.189,LearnStrategy,2023.2.3,Win32,58.82352941,7,2,9,,,,,,,,7,16,,,,,,,,,,,,,6,2.307,0,,,,,,-0.186805556,-0.395138889,1,0,0,2.307,Pegmatite_rect,8,0,8,0,1,
666b44ed662a3864dc13b118,SCR,2024-06-25_14h28.11.189,LearnStrategy,2023.2.3,Win32,58.82352941,7,2,10,,,,,,,,4,09,,,,,,,,,,,,,6,7.989,0,,,,,,-0.184722222,-0.396527778,1,0,0,7.989,Pegmatite_rect,9,0,9,0,1,
666b44ed662a3864dc13b118,SCR,2024-06-25_14h28.11.189,LearnStrategy,2023.2.3,Win32,58.82352941,7,2,11,,,,,,,,5,06,,,,,,,,,,,,,5,1.005,1,,,,,,-0.371527778,-0.397916667,1,0,0,1.005,Obsidian_rect,10,0,10,0,1,
666b44ed662a3864dc13b118,SCR,2024-06-25_14h28.11.189,LearnStrategy,2023.2.3,Win32,58.82352941,7,2,12,,,,,,,,6,05,,,,,,,,,,,,,3,9.319,0,,,,,,0.123611111,-0.252083333,1,0,0,9.319,Diorite_rect,11,0,11,0,1,
666b44ed662a3864dc13b118,SCR,2024-06-25_14h28.11.189,LearnStrategy,2023.2.3,Win32,58.82352941,7,2,13,,,,,,,,4,15,,,,,,,,,,,,,3,1.285,0,,,,,,0.120138889,-0.255555556,1,0,0,1.285,Diorite_rect,12,0,12,0,1,
666b44ed662a3864dc13b118,SCR,2024-06-25_14h28.11.189,LearnStrategy,2023.2.3,Win32,58.82352941,7,2,14,,,,,,,,3,15,,,,,,,,,,,,,3,1.281,1,,,,,,0.120138889,-0.255555556,1,0,0,1.281,Diorite_rect,13,0,13,0,1,
666b44ed662a3864dc13b118,SCR,2024-06-25_14h28.11.189,LearnStrategy,2023.2.3,Win32,58.82352941,7,2,15,,,,,,,,8,05,,,,,,,,,,,,,8,1.021,1,,,,,,0.299305556,-0.385416667,1,0,0,1.021,Pumice_rect,14,0,14,0,1,
666b44ed662a3864dc13b118,SCR,2024-06-25_14h28.11.189,LearnStrategy,2023.2.3,Win32,58.82352941,7,2,16,,,,,,,,3,13,,,,,,,,,,,,,3,0.802,1,,,,,,0.152083333,-0.231944444,1,0,0,0.802,Diorite_rect,15,0,15,0,1,
666b44ed662a3864dc13b118,SCR,2024-06-25_14h28.11.189,LearnStrategy,2023.2.3,Win32,58.82352941,8,1,1,0.246527778,-0.259027778,1,0,0,0.865,Pegmatite_08,6,08,2,6,0.865,1,05,0.340277778,-0.254166667,1,0,0,0.655,Gabbro_rect,4,0.655,0,0,0,0,0,1,,,,,,,,,,,,,
666b44ed662a3864dc13b118,SCR,2024-06-25_14h28.11.189,LearnStrategy,2023.2.3,Win32,58.82352941,8,1,2,0.242361111,-0.24375,1,0,0,0.681,Pegmatite_08,6,08,2,6,0.681,6,08,-0.05,-0.404861111,1,0,0,1.384,Pegmatite_rect,6,1.384,1,1,0,1,0,1,,,,,,,,,,,,,
666b44ed662a3864dc13b118,SCR,2024-06-25_14h28.11.189,LearnStrategy,2023.2.3,Win32,58.82352941,8,1,3,-0.046527778,-0.1375,1,0,0,1.465,Diorite_16,3,16,3,4,1.465,7,10,0.115277778,-0.399305556,1,0,0,0.634,Peridotite_rect,7,0.634,0,2,0,2,0,1,,,,,,,,,,,,,
666b44ed662a3864dc13b118,SCR,2024-06-25_14h28.11.189,LearnStrategy,2023.2.3,Win32,58.82352941,8,1,4,0.204861111,-0.120138889,1,0,0,1.4,Gabbro_14,4,14,3,6,1.4,4,12,0.101388889,-0.2375,1,0,0,1.879,Diorite_rect,3,1.879,0,3,0,3,0,1,,,,,,,,,,,,,
666b44ed662a3864dc13b118,SCR,2024-06-25_14h28.11.189,LearnStrategy,2023.2.3,Win32,58.82352941,8,1,5,0.266666667,-0.102777778,1,0,0,0.631,Gabbro_14,4,14,3,6,0.631,1,05,0.439583333,-0.239583333,1,0,0,0.845,Gabbro_rect,4,0.845,1,4,0,4,0,1,,,,,,,,,,,,,
666b44ed662a3864dc13b118,SCR,2024-06-25_14h28.11.189,LearnStrategy,2023.2.3,Win32,58.82352941,8,1,6,0.213888889,-0.103472222,1,0,0,0.632,Gabbro_14,4,14,3,6,0.632,2,01,0.486805556,-0.229861111,1,0,0,0.719,Gabbro_rect,4,0.719,1,5,0,5,0,1,,,,,,,,,,,,,
666b44ed662a3864dc13b118,SCR,2024-06-25_14h28.11.189,LearnStrategy,2023.2.3,Win32,58.82352941,8,1,7,0.185416667,-0.1,1,0,0,0.813,Gabbro_14,4,14,3,6,0.813,6,03,0.403472222,-0.2375,1,0,0,0.599,Gabbro_rect,4,0.599,1,6,0,6,0,1,,,,,,,,,,,,,
666b44ed662a3864dc13b118,SCR,2024-06-25_14h28.11.189,LearnStrategy,2023.2.3,Win32,58.82352941,8,1,8,0.0625,-0.278472222,1,0,0,0.499,Gabbro_11,4,11,2,5,0.499,4,10,0.500694444,-0.235416667,1,0,0,0.435,Gabbro_rect,4,0.435,1,7,0,7,0,1,,,,,,,,,,,,,
666b44ed662a3864dc13b118,SCR,2024-06-25_14h28.11.189,LearnStrategy,2023.2.3,Win32,58.82352941,8,1,9,0.263194444,-0.110416667,1,0,0,0.565,Gabbro_14,4,14,3,6,0.565,7,12,0.411111111,-0.234722222,1,0,0,0.55,Gabbro_rect,4,0.55,1,8,0,8,0,1,,,,,,,,,,,,,
666b44ed662a3864dc13b118,SCR,2024-06-25_14h28.11.189,LearnStrategy,2023.2.3,Win32,58.82352941,8,1,10,0.053472222,-0.267361111,1,0,0,0.514,Gabbro_11,4,11,2,5,0.514,2,08,0.466666667,-0.268055556,1,0,0,0.484,Gabbro_rect,4,0.484,1,9,0,9,0,1,,,,,,,,,,,,,
666b44ed662a3864dc13b118,SCR,2024-06-25_14h28.11.189,LearnStrategy,2023.2.3,Win32,58.82352941,8,1,11,0.375,-0.240972222,1,0,0,0.781,Andesite_05,1,05,2,7,0.781,7,12,0.461805556,-0.264583333,1,0,0,0.402,Gabbro_rect,4,0.402,0,10,0,10,0,1,,,,,,,,,,,,,
666b44ed662a3864dc13b118,SCR,2024-06-25_14h28.11.189,LearnStrategy,2023.2.3,Win32,58.82352941,8,1,12,0.075694444,-0.288888889,1,0,0,0.547,Gabbro_11,4,11,2,5,0.547,3,14,0.365972222,-0.240972222,1,0,0,0.968,Gabbro_rect,4,0.968,1,11,0,11,0,1,,,,,,,,,,,,,
666b44ed662a3864dc13b118,SCR,2024-06-25_14h28.11.189,LearnStrategy,2023.2.3,Win32,58.82352941,8,1,13,0.527777778,-0.263888889,1,0,0,0.632,Basalt_02,2,02,2,8,0.632,3,16,0.121527778,-0.234722222,1,0,0,0.603,Diorite_rect,3,0.603,0,12,0,12,0,1,,,,,,,,,,,,,
666b44ed662a3864dc13b118,SCR,2024-06-25_14h28.11.189,LearnStrategy,2023.2.3,Win32,58.82352941,8,1,14,0.504166667,-0.258333333,1,0,0,0.948,Basalt_02,2,02,2,8,0.948,1,05,-0.134027778,-0.250694444,1,0,0,1.392,Basalt_rect,2,1.392,1,13,0,13,0,1,,,,,,,,,,,,,
666b44ed662a3864dc13b118,SCR,2024-06-25_14h28.11.189,LearnStrategy,2023.2.3,Win32,58.82352941,8,1,15,0.525,-0.255555556,1,0,0,0.649,Basalt_02,2,02,2,8,0.649,6,06,-0.129166667,-0.255555556,1,0,0,0.806,Basalt_rect,2,0.806,1,14,0,14,0,1,,,,,,,,,,,,,
666b44ed662a3864dc13b118,SCR,2024-06-25_14h28.11.189,LearnStrategy,2023.2.3,Win32,58.82352941,8,1,16,0.407638889,-0.292361111,1,0,0,0.715,Andesite_05,1,05,2,7,0.715,4,14,0.391666667,-0.2375,1,0,0,0.566,Gabbro_rect,4,0.566,0,15,0,15,0,1,,,,,,,,,,,,,
666b44ed662a3864dc13b118,SCR,2024-06-25_14h28.11.189,LearnStrategy,2023.2.3,Win32,58.82352941,8,2,1,,,,,,,,1,07,,,,,,,,,,,,,3,2.536,0,,,,,,0.105555556,-0.245833333,1,0,0,2.536,Diorite_rect,0,0,0,0,1,
666b44ed662a3864dc13b118,SCR,2024-06-25_14h28.11.189,LearnStrategy,2023.2.3,Win32,58.82352941,8,2,2,,,,,,,,5,11,,,,,,,,,,,,,5,1.056,1,,,,,,-0.384027778,-0.41875,1,0,0,1.056,Obsidian_rect,1,0,1,0,1,
666b44ed662a3864dc13b118,SCR,2024-06-25_14h28.11.189,LearnStrategy,2023.2.3,Win32,58.82352941,8,2,3,,,,,,,,4,05,,,,,,,,,,,,,1,5.495,0,,,,,,-0.438194444,-0.238194444,1,0,0,5.495,Andesite_rect,2,0,2,0,1,
666b44ed662a3864dc13b118,SCR,2024-06-25_14h28.11.189,LearnStrategy,2023.2.3,Win32,58.82352941,8,2,4,,,,,,,,2,09,,,,,,,,,,,,,2,3.574,1,,,,,,-0.119444444,-0.250694444,1,0,0,3.574,Basalt_rect,3,0,3,0,1,
666b44ed662a3864dc13b118,SCR,2024-06-25_14h28.11.189,LearnStrategy,2023.2.3,Win32,58.82352941,8,2,5,,,,,,,,8,13,,,,,,,,,,,,,8,1.038,1,,,,,,0.406944444,-0.388194444,1,0,0,1.038,Pumice_rect,4,0,4,0,1,
666b44ed662a3864dc13b118,SCR,2024-06-25_14h28.11.189,LearnStrategy,2023.2.3,Win32,58.82352941,8,2,6,,,,,,,,4,13,,,,,,,,,,,,,7,4.421,0,,,,,,0.230555556,-0.389583333,1,0,0,4.421,Peridotite_rect,5,0,5,0,1,
666b44ed662a3864dc13b118,SCR,2024-06-25_14h28.11.189,LearnStrategy,2023.2.3,Win32,58.82352941,8,2,7,,,,,,,,7,14,,,,,,,,,,,,,7,20.307,1,,,,,,0.080555556,-0.399305556,1,0,0,20.307,Peridotite_rect,6,0,6,0,1,
666b44ed662a3864dc13b118,SCR,2024-06-25_14h28.11.189,LearnStrategy,2023.2.3,Win32,58.82352941,8,2,8,,,,,,,,5,10,,,,,,,,,,,,,5,1.084,1,,,,,,-0.340972222,-0.413194444,1,0,0,1.084,Obsidian_rect,7,0,7,0,1,
666b44ed662a3864dc13b118,SCR,2024-06-25_14h28.11.189,LearnStrategy,2023.2.3,Win32,58.82352941,8,2,9,,,,,,,,2,05,,,,,,,,,,,,,2,3.204,1,,,,,,-0.113194444,-0.25625,1,0,0,3.204,Basalt_rect,8,0,8,0,1,
666b44ed662a3864dc13b118,SCR,2024-06-25_14h28.11.189,LearnStrategy,2023.2.3,Win32,58.82352941,8,2,10,,,,,,,,8,09,,,,,,,,,,,,,8,1.074,1,,,,,,0.390972222,-0.401388889,1,0,0,1.074,Pumice_rect,9,0,9,0,1,
666b44ed662a3864dc13b118,SCR,2024-06-25_14h28.11.189,LearnStrategy,2023.2.3,Win32,58.82352941,8,2,11,,,,,,,,6,13,,,,,,,,,,,,,6,10.633,1,,,,,,-0.06875,-0.400694444,1,0,0,10.633,Pegmatite_rect,10,0,10,0,1,
666b44ed662a3864dc13b118,SCR,2024-06-25_14h28.11.189,LearnStrategy,2023.2.3,Win32,58.82352941,8,2,12,,,,,,,,3,12,,,,,,,,,,,,,3,2.069,1,,,,,,0.120138889,-0.264583333,1,0,0,2.069,Diorite_rect,11,0,11,0,1,
666b44ed662a3864dc13b118,SCR,2024-06-25_14h28.11.189,LearnStrategy,2023.2.3,Win32,58.82352941,8,2,13,,,,,,,,6,11,,,,,,,,,,,,,6,2.256,1,,,,,,-0.130555556,-0.399305556,1,0,0,2.256,Pegmatite_rect,12,0,12,0,1,
666b44ed662a3864dc13b118,SCR,2024-06-25_14h28.11.189,LearnStrategy,2023.2.3,Win32,58.82352941,8,2,14,,,,,,,,1,03,,,,,,,,,,,,,2,2.614,0,,,,,,-0.18125,-0.249305556,1,0,0,2.614,Basalt_rect,13,0,13,0,1,
666b44ed662a3864dc13b118,SCR,2024-06-25_14h28.11.189,LearnStrategy,2023.2.3,Win32,58.82352941,8,2,15,,,,,,,,3,02,,,,,,,,,,,,,3,1.603,1,,,,,,0.140277778,-0.248611111,1,0,0,1.603,Diorite_rect,14,0,14,0,1,
666b44ed662a3864dc13b118,SCR,2024-06-25_14h28.11.189,LearnStrategy,2023.2.3,Win32,58.82352941,8,2,16,,,,,,,,7,04,,,,,,,,,,,,,3,6.997,0,,,,,,0.1125,-0.238194444,1,0,0,6.997,Diorite_rect,15,0,15,0,1,
666b44ed662a3864dc13b118,SCR,2024-06-25_14h28.11.189,LearnStrategy,2023.2.3,Win32,58.82352941,9,1,1,0.0625,-0.061111111,1,0,0,0.915,Pegmatite_12,6,12,3,5,0.915,6,16,0.146527778,-0.240277778,1,0,0,1.216,Diorite_rect,3,1.216,0,0,0,0,0,1,,,,,,,,,,,,,
666b44ed662a3864dc13b118,SCR,2024-06-25_14h28.11.189,LearnStrategy,2023.2.3,Win32,58.82352941,9,1,2,0.082638889,-0.106944444,1,0,0,0.732,Pegmatite_12,6,12,3,5,0.732,3,10,0.15625,-0.395833333,1,0,0,0.618,Peridotite_rect,7,0.618,0,1,0,1,0,1,,,,,,,,,,,,,
666b44ed662a3864dc13b118,SCR,2024-06-25_14h28.11.189,LearnStrategy,2023.2.3,Win32,58.82352941,9,1,3,0.072222222,-0.070138889,1,0,0,0.816,Pegmatite_12,6,12,3,5,0.816,4,08,-0.13125,-0.413888889,1,0,0,1.234,Pegmatite_rect,6,1.234,1,2,0,2,0,1,,,,,,,,,,,,,
666b44ed662a3864dc13b118,SCR,2024-06-25_14h28.11.189,LearnStrategy,2023.2.3,Win32,58.82352941,9,1,4,0.583333333,-0.298611111,1,0,0,0.781,Basalt_02,2,02,2,8,0.781,7,08,-0.111111111,-0.252777778,1,0,0,1.615,Basalt_rect,2,1.615,1,3,0,3,0,1,,,,,,,,,,,,,
666b44ed662a3864dc13b118,SCR,2024-06-25_14h28.11.189,LearnStrategy,2023.2.3,Win32,58.82352941,9,1,5,0.604861111,-0.296527778,1,0,0,0.698,Basalt_02,2,02,2,8,0.698,7,10,-0.131944444,-0.25625,1,0,0,0.774,Basalt_rect,2,0.774,1,4,0,4,0,1,,,,,,,,,,,,,
666b44ed662a3864dc13b118,SCR,2024-06-25_14h28.11.189,LearnStrategy,2023.2.3,Win32,58.82352941,9,1,6,0.604861111,-0.265277778,1,0,0,0.598,Basalt_02,2,02,2,8,0.598,1,06,-0.194444444,-0.271527778,1,0,0,0.668,Basalt_rect,2,0.668,1,5,0,5,0,1,,,,,,,,,,,,,
666b44ed662a3864dc13b118,SCR,2024-06-25_14h28.11.189,LearnStrategy,2023.2.3,Win32,58.82352941,9,1,7,0.534722222,-0.272916667,1,0,0,0.681,Basalt_02,2,02,2,8,0.681,5,14,-0.107638889,-0.265972222,1,0,0,0.585,Basalt_rect,2,0.585,1,6,0,6,0,1,,,,,,,,,,,,,
666b44ed662a3864dc13b118,SCR,2024-06-25_14h28.11.189,LearnStrategy,2023.2.3,Win32,58.82352941,9,1,8,0.585416667,-0.288194444,1,0,0,0.582,Basalt_02,2,02,2,8,0.582,6,12,-0.102083333,-0.25,1,0,0,0.566,Basalt_rect,2,0.566,1,7,0,7,0,1,,,,,,,,,,,,,
666b44ed662a3864dc13b118,SCR,2024-06-25_14h28.11.189,LearnStrategy,2023.2.3,Win32,58.82352941,9,1,9,0.559027778,-0.277083333,1,0,0,0.664,Basalt_02,2,02,2,8,0.664,4,11,-0.140277778,-0.258333333,1,0,0,0.569,Basalt_rect,2,0.569,1,8,0,8,0,1,,,,,,,,,,,,,
666b44ed662a3864dc13b118,SCR,2024-06-25_14h28.11.189,LearnStrategy,2023.2.3,Win32,58.82352941,9,1,10,0.554166667,-0.276388889,1,0,0,0.582,Basalt_02,2,02,2,8,0.582,4,11,-0.140972222,-0.254166667,1,0,0,0.53,Basalt_rect,2,0.53,1,9,0,9,0,1,,,,,,,,,,,,,
666b44ed662a3864dc13b118,SCR,2024-06-25_14h28.11.189,LearnStrategy,2023.2.3,Win32,58.82352941,9,1,11,0.534027778,-0.268055556,1,0,0,0.7,Basalt_02,2,02,2,8,0.7,3,09,-0.068055556,-0.261805556,1,0,0,1.014,Basalt_rect,2,1.014,1,10,0,10,0,1,,,,,,,,,,,,,
666b44ed662a3864dc13b118,SCR,2024-06-25_14h28.11.189,LearnStrategy,2023.2.3,Win32,58.82352941,9,1,12,0.584027778,-0.285416667,1,0,0,0.602,Basalt_02,2,02,2,8,0.602,1,05,-0.059027778,-0.260416667,1,0,0,0.648,Basalt_rect,2,0.648,1,11,0,11,0,1,,,,,,,,,,,,,
666b44ed662a3864dc13b118,SCR,2024-06-25_14h28.11.189,LearnStrategy,2023.2.3,Win32,58.82352941,9,1,13,0.523611111,-0.283333333,1,0,0,0.748,Basalt_02,2,02,2,8,0.748,1,04,-0.095833333,-0.270833333,1,0,0,0.6,Basalt_rect,2,0.6,1,12,0,12,0,1,,,,,,,,,,,,,
666b44ed662a3864dc13b118,SCR,2024-06-25_14h28.11.189,LearnStrategy,2023.2.3,Win32,58.82352941,9,1,14,0.5375,-0.247916667,1,0,0,0.731,Basalt_02,2,02,2,8,0.731,7,08,-0.16875,-0.270138889,1,0,0,0.54,Basalt_rect,2,0.54,1,13,0,13,0,1,,,,,,,,,,,,,
666b44ed662a3864dc13b118,SCR,2024-06-25_14h28.11.189,LearnStrategy,2023.2.3,Win32,58.82352941,9,1,15,0.572916667,-0.278472222,1,0,0,0.749,Basalt_02,2,02,2,8,0.749,2,01,-0.103472222,-0.256944444,1,0,0,1.804,Basalt_rect,2,1.804,1,14,0,14,0,1,,,,,,,,,,,,,
666b44ed662a3864dc13b118,SCR,2024-06-25_14h28.11.189,LearnStrategy,2023.2.3,Win32,58.82352941,9,1,16,0.54375,-0.252777778,1,0,0,0.715,Basalt_02,2,02,2,8,0.715,1,10,-0.0875,-0.258333333,1,0,0,1.05,Basalt_rect,2,1.05,1,15,0,15,0,1,,,,,,,,,,,,,
666b44ed662a3864dc13b118,SCR,2024-06-25_14h28.11.189,LearnStrategy,2023.2.3,Win32,58.82352941,9,2,1,,,,,,,,6,10,,,,,,,,,,,,,6,5.889,1,,,,,,-0.129166667,-0.388888889,1,0,0,5.889,Pegmatite_rect,0,0,0,0,1,
666b44ed662a3864dc13b118,SCR,2024-06-25_14h28.11.189,LearnStrategy,2023.2.3,Win32,58.82352941,9,2,2,,,,,,,,6,15,,,,,,,,,,,,,6,1.719,1,,,,,,-0.138194444,-0.406944444,1,0,0,1.719,Pegmatite_rect,1,0,1,0,1,
666b44ed662a3864dc13b118,SCR,2024-06-25_14h28.11.189,LearnStrategy,2023.2.3,Win32,58.82352941,9,2,3,,,,,,,,2,16,,,,,,,,,,,,,2,6.574,1,,,,,,-0.069444444,-0.244444444,1,0,0,6.574,Basalt_rect,2,0,2,0,1,
666b44ed662a3864dc13b118,SCR,2024-06-25_14h28.11.189,LearnStrategy,2023.2.3,Win32,58.82352941,9,2,4,,,,,,,,3,07,,,,,,,,,,,,,3,2.406,1,,,,,,0.168055556,-0.263194444,1,0,0,2.406,Diorite_rect,3,0,3,0,1,
666b44ed662a3864dc13b118,SCR,2024-06-25_14h28.11.189,LearnStrategy,2023.2.3,Win32,58.82352941,9,2,5,,,,,,,,8,14,,,,,,,,,,,,,8,1.73,1,,,,,,0.431944444,-0.405555556,1,0,0,1.73,Pumice_rect,4,0,4,0,1,
666b44ed662a3864dc13b118,SCR,2024-06-25_14h28.11.189,LearnStrategy,2023.2.3,Win32,58.82352941,9,2,6,,,,,,,,2,04,,,,,,,,,,,,,2,1.771,1,,,,,,-0.106944444,-0.264583333,1,0,0,1.771,Basalt_rect,5,0,5,0,1,
666b44ed662a3864dc13b118,SCR,2024-06-25_14h28.11.189,LearnStrategy,2023.2.3,Win32,58.82352941,9,2,7,,,,,,,,1,14,,,,,,,,,,,,,4,7.214,0,,,,,,0.358333333,-0.249305556,1,0,0,7.214,Gabbro_rect,6,0,6,0,1,
666b44ed662a3864dc13b118,SCR,2024-06-25_14h28.11.189,LearnStrategy,2023.2.3,Win32,58.82352941,9,2,8,,,,,,,,3,11,,,,,,,,,,,,,3,1.329,1,,,,,,0.191666667,-0.250694444,1,0,0,1.329,Diorite_rect,7,0,7,0,1,
666b44ed662a3864dc13b118,SCR,2024-06-25_14h28.11.189,LearnStrategy,2023.2.3,Win32,58.82352941,9,2,9,,,,,,,,1,16,,,,,,,,,,,,,3,0.708,0,,,,,,0.190972222,-0.251388889,1,0,0,0.708,Diorite_rect,8,0,8,0,1,
666b44ed662a3864dc13b118,SCR,2024-06-25_14h28.11.189,LearnStrategy,2023.2.3,Win32,58.82352941,9,2,10,,,,,,,,5,09,,,,,,,,,,,,,5,0.935,1,,,,,,-0.384027778,-0.388194444,1,0,0,0.935,Obsidian_rect,9,0,9,0,1,
666b44ed662a3864dc13b118,SCR,2024-06-25_14h28.11.189,LearnStrategy,2023.2.3,Win32,58.82352941,9,2,11,,,,,,,,8,02,,,,,,,,,,,,,8,1.018,1,,,,,,0.355555556,-0.403472222,1,0,0,1.018,Pumice_rect,10,0,10,0,1,
666b44ed662a3864dc13b118,SCR,2024-06-25_14h28.11.189,LearnStrategy,2023.2.3,Win32,58.82352941,9,2,12,,,,,,,,4,03,,,,,,,,,,,,,3,2.095,0,,,,,,0.172916667,-0.256944444,1,0,0,2.095,Diorite_rect,11,0,11,0,1,
666b44ed662a3864dc13b118,SCR,2024-06-25_14h28.11.189,LearnStrategy,2023.2.3,Win32,58.82352941,9,2,13,,,,,,,,4,16,,,,,,,,,,,,,4,6.146,1,,,,,,0.374305556,-0.246527778,1,0,0,6.146,Gabbro_rect,12,0,12,0,1,
666b44ed662a3864dc13b118,SCR,2024-06-25_14h28.11.189,LearnStrategy,2023.2.3,Win32,58.82352941,9,2,14,,,,,,,,7,02,,,,,,,,,,,,,3,1.17,0,,,,,,0.154861111,-0.249305556,1,0,0,1.17,Diorite_rect,13,0,13,0,1,
666b44ed662a3864dc13b118,SCR,2024-06-25_14h28.11.189,LearnStrategy,2023.2.3,Win32,58.82352941,9,2,15,,,,,,,,7,05,,,,,,,,,,,,,3,1.138,0,,,,,,0.118055556,-0.256944444,1,0,0,1.138,Diorite_rect,14,0,14,0,1,
666b44ed662a3864dc13b118,SCR,2024-06-25_14h28.11.189,LearnStrategy,2023.2.3,Win32,58.82352941,9,2,16,,,,,,,,5,16,,,,,,,,,,,,,5,0.924,1,,,,,,-0.436805556,-0.401388889,1,0,0,0.924,Obsidian_rect,15,0,15,0,1,
666b44ed662a3864dc13b118,SCR,2024-06-25_14h28.11.189,LearnStrategy,2023.2.3,Win32,58.82352941,,,,,,,,,,,,,,,,,,,,,,,,,,,,,,,,,,,,,,,,,,,,,0
666b44ed662a3864dc13b118,SCR,2024-06-25_14h28.11.189,LearnStrategy,2023.2.3,Win32,58.82352941,,,,,,,,,,,,,,,,,,,,,,,,,,,,,,,,,,,,,,,,,,,,,
666b44ed662a3864dc13b118,SCR,2024-06-25_14h28.11.189,LearnStrategy,2023.2.3,Win32,58.82352941,,,,,,,,,,,2,01,1,1,,,,,,,,,,,,,,,,,,,,,,,,,,,,,,,
666b44ed662a3864dc13b118,SCR,2024-06-25_14h28.11.189,LearnStrategy,2023.2.3,Win32,58.82352941,,,,,,,,,,,4,01,1,2,,,,,,,,,,,,,,,,,,,,,,,,,,,,,,,
666b44ed662a3864dc13b118,SCR,2024-06-25_14h28.11.189,LearnStrategy,2023.2.3,Win32,58.82352941,,,,,,,,,,,7,13,1,3,,,,,,,,,,,,,,,,,,,,,,,,,,,,,,,
666b44ed662a3864dc13b118,SCR,2024-06-25_14h28.11.189,LearnStrategy,2023.2.3,Win32,58.82352941,,,,,,,,,,,1,01,1,4,,,,,,,,,,,,,,,,,,,,,,,,,,,,,,,
666b44ed662a3864dc13b118,SCR,2024-06-25_14h28.11.189,LearnStrategy,2023.2.3,Win32,58.82352941,,,,,,,,,,,8,06,1,5,,,,,,,,,,,,,,,,,,,,,,,,,,,,,,,
666b44ed662a3864dc13b118,SCR,2024-06-25_14h28.11.189,LearnStrategy,2023.2.3,Win32,58.82352941,,,,,,,,,,,8,04,1,6,,,,,,,,,,,,,,,,,,,,,,,,,,,,,,,
666b44ed662a3864dc13b118,SCR,2024-06-25_14h28.11.189,LearnStrategy,2023.2.3,Win32,58.82352941,,,,,,,,,,,7,10,1,7,,,,,,,,,,,,,,,,,,,,,,,,,,,,,,,
666b44ed662a3864dc13b118,SCR,2024-06-25_14h28.11.189,LearnStrategy,2023.2.3,Win32,58.82352941,,,,,,,,,,,6,03,1,8,,,,,,,,,,,,,,,,,,,,,,,,,,,,,,,
666b44ed662a3864dc13b118,SCR,2024-06-25_14h28.11.189,LearnStrategy,2023.2.3,Win32,58.82352941,,,,,,,,,,,2,06,2,1,,,,,,,,,,,,,,,,,,,,,,,,,,,,,,,
666b44ed662a3864dc13b118,SCR,2024-06-25_14h28.11.189,LearnStrategy,2023.2.3,Win32,58.82352941,,,,,,,,,,,8,10,2,2,,,,,,,,,,,,,,,,,,,,,,,,,,,,,,,
666b44ed662a3864dc13b118,SCR,2024-06-25_14h28.11.189,LearnStrategy,2023.2.3,Win32,58.82352941,,,,,,,,,,,8,16,2,3,,,,,,,,,,,,,,,,,,,,,,,,,,,,,,,
666b44ed662a3864dc13b118,SCR,2024-06-25_14h28.11.189,LearnStrategy,2023.2.3,Win32,58.82352941,,,,,,,,,,,6,16,2,4,,,,,,,,,,,,,,,,,,,,,,,,,,,,,,,
666b44ed662a3864dc13b118,SCR,2024-06-25_14h28.11.189,LearnStrategy,2023.2.3,Win32,58.82352941,,,,,,,,,,,4,11,2,5,,,,,,,,,,,,,,,,,,,,,,,,,,,,,,,
666b44ed662a3864dc13b118,SCR,2024-06-25_14h28.11.189,LearnStrategy,2023.2.3,Win32,58.82352941,,,,,,,,,,,6,08,2,6,,,,,,,,,,,,,,,,,,,,,,,,,,,,,,,
666b44ed662a3864dc13b118,SCR,2024-06-25_14h28.11.189,LearnStrategy,2023.2.3,Win32,58.82352941,,,,,,,,,,,1,05,2,7,,,,,,,,,,,,,,,,,,,,,,,,,,,,,,,
666b44ed662a3864dc13b118,SCR,2024-06-25_14h28.11.189,LearnStrategy,2023.2.3,Win32,58.82352941,,,,,,,,,,,2,02,2,8,,,,,,,,,,,,,,,,,,,,,,,,,,,,,,,
666b44ed662a3864dc13b118,SCR,2024-06-25_14h28.11.189,LearnStrategy,2023.2.3,Win32,58.82352941,,,,,,,,,,,1,11,3,1,,,,,,,,,,,,,,,,,,,,,,,,,,,,,,,
666b44ed662a3864dc13b118,SCR,2024-06-25_14h28.11.189,LearnStrategy,2023.2.3,Win32,58.82352941,,,,,,,,,,,5,04,3,2,,,,,,,,,,,,,,,,,,,,,,,,,,,,,,,
666b44ed662a3864dc13b118,SCR,2024-06-25_14h28.11.189,LearnStrategy,2023.2.3,Win32,58.82352941,,,,,,,,,,,3,06,3,3,,,,,,,,,,,,,,,,,,,,,,,,,,,,,,,
666b44ed662a3864dc13b118,SCR,2024-06-25_14h28.11.189,LearnStrategy,2023.2.3,Win32,58.82352941,,,,,,,,,,,3,16,3,4,,,,,,,,,,,,,,,,,,,,,,,,,,,,,,,
666b44ed662a3864dc13b118,SCR,2024-06-25_14h28.11.189,LearnStrategy,2023.2.3,Win32,58.82352941,,,,,,,,,,,6,12,3,5,,,,,,,,,,,,,,,,,,,,,,,,,,,,,,,
666b44ed662a3864dc13b118,SCR,2024-06-25_14h28.11.189,LearnStrategy,2023.2.3,Win32,58.82352941,,,,,,,,,,,4,14,3,6,,,,,,,,,,,,,,,,,,,,,,,,,,,,,,,
666b44ed662a3864dc13b118,SCR,2024-06-25_14h28.11.189,LearnStrategy,2023.2.3,Win32,58.82352941,,,,,,,,,,,7,15,3,7,,,,,,,,,,,,,,,,,,,,,,,,,,,,,,,
666b44ed662a3864dc13b118,SCR,2024-06-25_14h28.11.189,LearnStrategy,2023.2.3,Win32,58.82352941,,,,,,,,,,,5,08,3,8,,,,,,,,,,,,,,,,,,,,,,,,,,,,,,,
666b44ed662a3864dc13b118,SCR,2024-06-25_14h28.11.189,LearnStrategy,2023.2.3,Win32,58.82352941,,,,,,,,,,,1,04,4,1,,,,,,,,,,,,,,,,,,,,,,,,,,,,,,,
666b44ed662a3864dc13b118,SCR,2024-06-25_14h28.11.189,LearnStrategy,2023.2.3,Win32,58.82352941,,,,,,,,,,,3,09,4,2,,,,,,,,,,,,,,,,,,,,,,,,,,,,,,,
666b44ed662a3864dc13b118,SCR,2024-06-25_14h28.11.189,LearnStrategy,2023.2.3,Win32,58.82352941,,,,,,,,,,,8,03,4,3,,,,,,,,,,,,,,,,,,,,,,,,,,,,,,,
666b44ed662a3864dc13b118,SCR,2024-06-25_14h28.11.189,LearnStrategy,2023.2.3,Win32,58.82352941,,,,,,,,,,,2,08,4,4,,,,,,,,,,,,,,,,,,,,,,,,,,,,,,,
666b44ed662a3864dc13b118,SCR,2024-06-25_14h28.11.189,LearnStrategy,2023.2.3,Win32,58.82352941,,,,,,,,,,,2,12,4,5,,,,,,,,,,,,,,,,,,,,,,,,,,,,,,,
666b44ed662a3864dc13b118,SCR,2024-06-25_14h28.11.189,LearnStrategy,2023.2.3,Win32,58.82352941,,,,,,,,,,,5,14,4,6,,,,,,,,,,,,,,,,,,,,,,,,,,,,,,,
666b44ed662a3864dc13b118,SCR,2024-06-25_14h28.11.189,LearnStrategy,2023.2.3,Win32,58.82352941,,,,,,,,,,,3,10,4,7,,,,,,,,,,,,,,,,,,,,,,,,,,,,,,,
666b44ed662a3864dc13b118,SCR,2024-06-25_14h28.11.189,LearnStrategy,2023.2.3,Win32,58.82352941,,,,,,,,,,,2,14,4,8,,,,,,,,,,,,,,,,,,,,,,,,,,,,,,,
666b44ed662a3864dc13b118,SCR,2024-06-25_14h28.11.189,LearnStrategy,2023.2.3,Win32,58.82352941,,,,,,,,,,,5,12,5,1,,,,,,,,,,,,,,,,,,,,,,,,,,,,,,,
666b44ed662a3864dc13b118,SCR,2024-06-25_14h28.11.189,LearnStrategy,2023.2.3,Win32,58.82352941,,,,,,,,,,,7,12,5,2,,,,,,,,,,,,,,,,,,,,,,,,,,,,,,,
666b44ed662a3864dc13b118,SCR,2024-06-25_14h28.11.189,LearnStrategy,2023.2.3,Win32,58.82352941,,,,,,,,,,,3,08,5,3,,,,,,,,,,,,,,,,,,,,,,,,,,,,,,,
666b44ed662a3864dc13b118,SCR,2024-06-25_14h28.11.189,LearnStrategy,2023.2.3,Win32,58.82352941,,,,,,,,,,,4,12,5,4,,,,,,,,,,,,,,,,,,,,,,,,,,,,,,,
666b44ed662a3864dc13b118,SCR,2024-06-25_14h28.11.189,LearnStrategy,2023.2.3,Win32,58.82352941,,,,,,,,,,,5,05,5,5,,,,,,,,,,,,,,,,,,,,,,,,,,,,,,,
666b44ed662a3864dc13b118,SCR,2024-06-25_14h28.11.189,LearnStrategy,2023.2.3,Win32,58.82352941,,,,,,,,,,,6,06,5,6,,,,,,,,,,,,,,,,,,,,,,,,,,,,,,,
666b44ed662a3864dc13b118,SCR,2024-06-25_14h28.11.189,LearnStrategy,2023.2.3,Win32,58.82352941,,,,,,,,,,,7,06,5,7,,,,,,,,,,,,,,,,,,,,,,,,,,,,,,,
666b44ed662a3864dc13b118,SCR,2024-06-25_14h28.11.189,LearnStrategy,2023.2.3,Win32,58.82352941,,,,,,,,,,,4,08,5,8,,,,,,,,,,,,,,,,,,,,,,,,,,,,,,,
666b44ed662a3864dc13b118,SCR,2024-06-25_14h28.11.189,LearnStrategy,2023.2.3,Win32,58.82352941,,,,,,,,,,,6,09,6,1,,,,,,,,,,,,,,,,,,,,,,,,,,,,,,,
666b44ed662a3864dc13b118,SCR,2024-06-25_14h28.11.189,LearnStrategy,2023.2.3,Win32,58.82352941,,,,,,,,,,,4,10,6,2,,,,,,,,,,,,,,,,,,,,,,,,,,,,,,,
666b44ed662a3864dc13b118,SCR,2024-06-25_14h28.11.189,LearnStrategy,2023.2.3,Win32,58.82352941,,,,,,,,,,,5,02,6,3,,,,,,,,,,,,,,,,,,,,,,,,,,,,,,,
666b44ed662a3864dc13b118,SCR,2024-06-25_14h28.11.189,LearnStrategy,2023.2.3,Win32,58.82352941,,,,,,,,,,,7,08,6,4,,,,,,,,,,,,,,,,,,,,,,,,,,,,,,,
666b44ed662a3864dc13b118,SCR,2024-06-25_14h28.11.189,LearnStrategy,2023.2.3,Win32,58.82352941,,,,,,,,,,,1,06,6,5,,,,,,,,,,,,,,,,,,,,,,,,,,,,,,,
666b44ed662a3864dc13b118,SCR,2024-06-25_14h28.11.189,LearnStrategy,2023.2.3,Win32,58.82352941,,,,,,,,,,,3,14,6,6,,,,,,,,,,,,,,,,,,,,,,,,,,,,,,,
666b44ed662a3864dc13b118,SCR,2024-06-25_14h28.11.189,LearnStrategy,2023.2.3,Win32,58.82352941,,,,,,,,,,,8,15,6,7,,,,,,,,,,,,,,,,,,,,,,,,,,,,,,,
666b44ed662a3864dc13b118,SCR,2024-06-25_14h28.11.189,LearnStrategy,2023.2.3,Win32,58.82352941,,,,,,,,,,,1,10,6,8,,,,,,,,,,,,,,,,,,,,,,,,,,,,,,,