participant,condition,date,expName,psychopyVersion,OS,frameRate,block,phase,trial,learn_mouse_2.x,learn_mouse_2.y,learn_mouse_2.leftButton,learn_mouse_2.midButton,learn_mouse_2.rightButton,learn_mouse_2.time,learn_mouse_2.clicked_name,cat,token,row,col,t_select,cat_mouse_l.x,cat_mouse_l.y,cat_mouse_l.leftButton,cat_mouse_l.midButton,cat_mouse_l.rightButton,cat_mouse_l.time,cat_mouse_l.clicked_name,resp,t_resp,corr,train_trials.thisRepN,train_trials.thisTrialN,train_trials.thisN,train_trials.thisIndex,train_trials.ran,cat_mouse_t.x,cat_mouse_t.y,cat_mouse_t.leftButton,cat_mouse_t.midButton,cat_mouse_t.rightButton,cat_mouse_t.time,cat_mouse_t.clicked_name,test_trials.thisRepN,test_trials.thisTrialN,test_trials.thisN,test_trials.thisIndex,test_trials.ran,Bonus
666b2c697befa9c75aa3e43f,TCR,2024-06-24_22h36.21.347,LearnStrategy,2023.2.3,Win32,60.24096386,,,,,,,,,,,,,,,,,,,,,,,,,,,,,,,,,,,,,,,,,,,
666b2c697befa9c75aa3e43f,TCR,2024-06-24_22h36.21.347,LearnStrategy,2023.2.3,Win32,60.24096386,1,1,1,0.0703125,-0.024739583,1,0,0,3.5824,rock_grid_rect_2,8,08,-1,-1,3.582,-0.12890625,-0.229166667,1,0,0,11.3074,Basalt_rect,2,11.307,0,0,0,0,0,1,,,,,,,,,,,,,
666b2c697befa9c75aa3e43f,TCR,2024-06-24_22h36.21.347,LearnStrategy,2023.2.3,Win32,60.24096386,1,1,2,-0.114583333,-0.014322917,1,0,0,4.5487,rock_grid_rect_2,1,14,-1,-1,4.549,0.151041667,-0.40234375,1,0,0,27.6145,Peridotite_rect,7,27.615,0,1,0,1,0,1,,,,,,,,,,,,,
666b2c697befa9c75aa3e43f,TCR,2024-06-24_22h36.21.347,LearnStrategy,2023.2.3,Win32,60.24096386,1,1,3,-0.036458333,0.0078125,1,0,0,1.6551,rock_grid_rect_2,7,14,-1,-1,1.655,-0.3359375,-0.23046875,1,0,0,2.8928,Andesite_rect,1,2.893,0,2,0,2,0,1,,,,,,,,,,,,,
666b2c697befa9c75aa3e43f,TCR,2024-06-24_22h36.21.347,LearnStrategy,2023.2.3,Win32,60.24096386,1,1,4,-0.001302083,-0.018229167,1,0,0,1.0915,rock_grid_rect_2,6,05,-1,-1,1.091,-0.361979167,-0.38671875,1,0,0,2.1656,Obsidian_rect,5,2.166,0,3,0,3,0,1,,,,,,,,,,,,,
666b2c697befa9c75aa3e43f,TCR,2024-06-24_22h36.21.347,LearnStrategy,2023.2.3,Win32,60.24096386,1,1,5,0.071614583,-0.009114583,1,0,0,1.2068,rock_grid_rect_2,2,08,-1,-1,1.207,-0.1953125,-0.2421875,1,0,0,0.9614,Basalt_rect,2,0.961,1,4,0,4,0,1,,,,,,,,,,,,,
666b2c697befa9c75aa3e43f,TCR,2024-06-24_22h36.21.347,LearnStrategy,2023.2.3,Win32,60.24096386,1,1,6,-0.00390625,-0.020833333,1,0,0,0.9311,rock_grid_rect_2,4,10,-1,-1,0.931,0.140625,-0.255208333,1,0,0,2.0438,Diorite_rect,3,2.044,0,5,0,5,0,1,,,,,,,,,,,,,
666b2c697befa9c75aa3e43f,TCR,2024-06-24_22h36.21.347,LearnStrategy,2023.2.3,Win32,60.24096386,1,1,7,0.083333333,-0.0234375,1,0,0,0.9609,rock_grid_rect_2,3,14,-1,-1,0.961,0.40234375,-0.263020833,1,0,0,1.3761,Gabbro_rect,4,1.376,0,6,0,6,0,1,,,,,,,,,,,,,
666b2c697befa9c75aa3e43f,TCR,2024-06-24_22h36.21.347,LearnStrategy,2023.2.3,Win32,60.24096386,1,1,8,-0.020833333,-0.013020833,1,0,0,0.8925,rock_grid_rect_2,5,10,-1,-1,0.892,-0.41796875,-0.39453125,1,0,0,1.532,Obsidian_rect,5,1.532,1,7,0,7,0,1,,,,,,,,,,,,,
666b2c697befa9c75aa3e43f,TCR,2024-06-24_22h36.21.347,LearnStrategy,2023.2.3,Win32,60.24096386,1,1,9,0.080729167,-0.01953125,1,0,0,0.8876,rock_grid_rect_2,2,05,-1,-1,0.888,-0.141927083,-0.419270833,1,0,0,1.1332,Pegmatite_rect,6,1.133,0,8,0,8,0,1,,,,,,,,,,,,,
666b2c697befa9c75aa3e43f,TCR,2024-06-24_22h36.21.347,LearnStrategy,2023.2.3,Win32,60.24096386,1,1,10,0.018229167,-0.010416667,1,0,0,1.1989,rock_grid_rect_2,8,04,-1,-1,1.199,-0.06640625,-0.23046875,1,0,0,0.6153,Basalt_rect,2,0.615,0,9,0,9,0,1,,,,,,,,,,,,,
666b2c697befa9c75aa3e43f,TCR,2024-06-24_22h36.21.347,LearnStrategy,2023.2.3,Win32,60.24096386,1,1,11,-0.00390625,-0.009114583,1,0,0,0.6939,rock_grid_rect_2,7,07,-1,-1,0.694,0.30859375,-0.404947917,1,0,0,1.6424,Pumice_rect,8,1.642,0,10,0,10,0,1,,,,,,,,,,,,,
666b2c697befa9c75aa3e43f,TCR,2024-06-24_22h36.21.347,LearnStrategy,2023.2.3,Win32,60.24096386,1,1,12,0.075520833,0.006510417,1,0,0,0.7275,rock_grid_rect_2,6,08,-1,-1,0.727,0.096354167,-0.2578125,1,0,0,0.9068,Diorite_rect,3,0.907,0,11,0,11,0,1,,,,,,,,,,,,,
666b2c697befa9c75aa3e43f,TCR,2024-06-24_22h36.21.347,LearnStrategy,2023.2.3,Win32,60.24096386,1,1,13,0.07421875,-0.016927083,1,0,0,0.9752,rock_grid_rect_2,4,16,-1,-1,0.975,0.048177083,-0.399739583,1,0,0,1.6083,Peridotite_rect,7,1.608,0,12,0,12,0,1,,,,,,,,,,,,,
666b2c697befa9c75aa3e43f,TCR,2024-06-24_22h36.21.347,LearnStrategy,2023.2.3,Win32,60.24096386,1,1,14,0.079427083,-0.022135417,1,0,0,0.7593,rock_grid_rect_2,1,07,-1,-1,0.759,-0.365885417,-0.236979167,1,0,0,2.3626,Andesite_rect,1,2.363,1,13,0,13,0,1,,,,,,,,,,,,,
666b2c697befa9c75aa3e43f,TCR,2024-06-24_22h36.21.347,LearnStrategy,2023.2.3,Win32,60.24096386,1,1,15,0.083333333,0.002604167,1,0,0,1.5099,rock_grid_rect_2,5,11,-1,-1,1.51,-0.389322917,-0.38671875,1,0,0,3.2942,Obsidian_rect,5,3.294,1,14,0,14,0,1,,,,,,,,,,,,,
666b2c697befa9c75aa3e43f,TCR,2024-06-24_22h36.21.347,LearnStrategy,2023.2.3,Win32,60.24096386,1,1,16,0.078125,-0.018229167,1,0,0,0.8236,rock_grid_rect_2,3,08,-1,-1,0.824,-0.1953125,-0.2578125,1,0,0,0.9362,Basalt_rect,2,0.936,0,15,0,15,0,1,,,,,,,,,,,,,
666b2c697befa9c75aa3e43f,TCR,2024-06-24_22h36.21.347,LearnStrategy,2023.2.3,Win32,60.24096386,1,2,1,,,,,,,,7,10,,,,,,,,,,,2,3.061,0,,,,,,-0.08203125,-0.25390625,1,0,0,3.0609,Basalt_rect,0,0,0,0,1,
666b2c697befa9c75aa3e43f,TCR,2024-06-24_22h36.21.347,LearnStrategy,2023.2.3,Win32,60.24096386,1,2,2,,,,,,,,3,16,,,,,,,,,,,3,1.308,1,,,,,,0.123697917,-0.26953125,1,0,0,1.3082,Diorite_rect,1,0,1,0,1,
666b2c697befa9c75aa3e43f,TCR,2024-06-24_22h36.21.347,LearnStrategy,2023.2.3,Win32,60.24096386,1,2,3,,,,,,,,6,07,,,,,,,,,,,7,43.436,0,,,,,,0.223958333,-0.397135417,1,0,0,43.4365,Peridotite_rect,2,0,2,0,1,
666b2c697befa9c75aa3e43f,TCR,2024-06-24_22h36.21.347,LearnStrategy,2023.2.3,Win32,60.24096386,1,2,4,,,,,,,,8,06,,,,,,,,,,,8,3.357,1,,,,,,0.358072917,-0.411458333,1,0,0,3.3574,Pumice_rect,3,0,3,0,1,
666b2c697befa9c75aa3e43f,TCR,2024-06-24_22h36.21.347,LearnStrategy,2023.2.3,Win32,60.24096386,1,2,5,,,,,,,,3,09,,,,,,,,,,,3,11.384,1,,,,,,0.119791667,-0.248697917,1,0,0,11.3838,Diorite_rect,4,0,4,0,1,
666b2c697befa9c75aa3e43f,TCR,2024-06-24_22h36.21.347,LearnStrategy,2023.2.3,Win32,60.24096386,1,2,6,,,,,,,,2,09,,,,,,,,,,,2,9.488,1,,,,,,-0.092447917,-0.25390625,1,0,0,9.4875,Basalt_rect,5,0,5,0,1,
666b2c697befa9c75aa3e43f,TCR,2024-06-24_22h36.21.347,LearnStrategy,2023.2.3,Win32,60.24096386,1,2,7,,,,,,,,4,03,,,,,,,,,,,3,24.459,0,,,,,,0.029947917,-0.256510417,1,0,0,24.4587,Diorite_rect,6,0,6,0,1,
666b2c697befa9c75aa3e43f,TCR,2024-06-24_22h36.21.347,LearnStrategy,2023.2.3,Win32,60.24096386,1,2,8,,,,,,,,5,16,,,,,,,,,,,5,1.289,1,,,,,,-0.473958333,-0.41015625,1,0,0,1.2894,Obsidian_rect,7,0,7,0,1,
666b2c697befa9c75aa3e43f,TCR,2024-06-24_22h36.21.347,LearnStrategy,2023.2.3,Win32,60.24096386,1,2,9,,,,,,,,2,10,,,,,,,,,,,5,1.823,0,,,,,,-0.361979167,-0.389322917,1,0,0,1.8229,Obsidian_rect,8,0,8,0,1,
666b2c697befa9c75aa3e43f,TCR,2024-06-24_22h36.21.347,LearnStrategy,2023.2.3,Win32,60.24096386,1,2,10,,,,,,,,1,02,,,,,,,,,,,6,0.509,0,,,,,,-0.12109375,-0.40234375,1,0,0,0.5094,Pegmatite_rect,9,0,9,0,1,
666b2c697befa9c75aa3e43f,TCR,2024-06-24_22h36.21.347,LearnStrategy,2023.2.3,Win32,60.24096386,1,2,11,,,,,,,,8,15,,,,,,,,,,,8,1.396,1,,,,,,0.35546875,-0.4140625,1,0,0,1.3959,Pumice_rect,10,0,10,0,1,
666b2c697befa9c75aa3e43f,TCR,2024-06-24_22h36.21.347,LearnStrategy,2023.2.3,Win32,60.24096386,1,2,12,,,,,,,,4,08,,,,,,,,,,,3,1.254,0,,,,,,0.166666667,-0.2578125,1,0,0,1.2542,Diorite_rect,11,0,11,0,1,
666b2c697befa9c75aa3e43f,TCR,2024-06-24_22h36.21.347,LearnStrategy,2023.2.3,Win32,60.24096386,1,2,13,,,,,,,,1,01,,,,,,,,,,,2,0.558,0,,,,,,-0.076822917,-0.243489583,1,0,0,0.5583,Basalt_rect,12,0,12,0,1,
666b2c697befa9c75aa3e43f,TCR,2024-06-24_22h36.21.347,LearnStrategy,2023.2.3,Win32,60.24096386,1,2,14,,,,,,,,5,08,,,,,,,,,,,5,0.93,1,,,,,,-0.333333333,-0.404947917,1,0,0,0.93,Obsidian_rect,13,0,13,0,1,
666b2c697befa9c75aa3e43f,TCR,2024-06-24_22h36.21.347,LearnStrategy,2023.2.3,Win32,60.24096386,1,2,15,,,,,,,,7,12,,,,,,,,,,,6,0.724,0,,,,,,-0.19921875,-0.3828125,1,0,0,0.7238,Pegmatite_rect,14,0,14,0,1,
666b2c697befa9c75aa3e43f,TCR,2024-06-24_22h36.21.347,LearnStrategy,2023.2.3,Win32,60.24096386,1,2,16,,,,,,,,6,03,,,,,,,,,,,2,1.443,0,,,,,,-0.123697917,-0.266927083,1,0,0,1.4433,Basalt_rect,15,0,15,0,1,
666b2c697befa9c75aa3e43f,TCR,2024-06-24_22h36.21.347,LearnStrategy,2023.2.3,Win32,60.24096386,2,1,1,-0.037760417,-0.009114583,1,0,0,1.8776,rock_grid_rect_2,6,06,-1,-1,1.878,0.076822917,-0.390625,1,0,0,32.2461,Peridotite_rect,7,32.246,0,0,0,0,0,1,,,,,,,,,,,,,
666b2c697befa9c75aa3e43f,TCR,2024-06-24_22h36.21.347,LearnStrategy,2023.2.3,Win32,60.24096386,2,1,2,0.111979167,-0.014322917,1,0,0,1.843,rock_grid_rect_2,5,06,-1,-1,1.843,-0.361979167,-0.395833333,1,0,0,2.1078,Obsidian_rect,5,2.108,1,1,0,1,0,1,,,,,,,,,,,,,
666b2c697befa9c75aa3e43f,TCR,2024-06-24_22h36.21.347,LearnStrategy,2023.2.3,Win32,60.24096386,2,1,3,0.07421875,-0.005208333,1,0,0,1.3762,rock_grid_rect_2,2,12,-1,-1,1.376,-0.091145833,-0.24609375,1,0,0,33.6291,Basalt_rect,2,33.629,1,2,0,2,0,1,,,,,,,,,,,,,
666b2c697befa9c75aa3e43f,TCR,2024-06-24_22h36.21.347,LearnStrategy,2023.2.3,Win32,60.24096386,2,1,4,-0.03125,-0.001302083,1,0,0,3.3927,rock_grid_rect_2,6,06,-1,-1,3.393,-0.102864583,-0.407552083,1,0,0,16.8668,Pegmatite_rect,6,16.867,1,3,0,3,0,1,,,,,,,,,,,,,
666b2c697befa9c75aa3e43f,TCR,2024-06-24_22h36.21.347,LearnStrategy,2023.2.3,Win32,60.24096386,2,1,5,-0.010416667,-0.01953125,1,0,0,0.9699,rock_grid_rect_2,4,13,-1,-1,0.97,0.225260417,-0.247395833,1,0,0,15.6485,Diorite_rect,3,15.649,0,4,0,4,0,1,,,,,,,,,,,,,
666b2c697befa9c75aa3e43f,TCR,2024-06-24_22h36.21.347,LearnStrategy,2023.2.3,Win32,60.24096386,2,1,6,0.0234375,0.01953125,1,0,0,1.1078,rock_grid_rect_2,2,08,-1,-1,1.108,-0.10546875,-0.240885417,1,0,0,1.3852,Basalt_rect,2,1.385,1,5,0,5,0,1,,,,,,,,,,,,,
666b2c697befa9c75aa3e43f,TCR,2024-06-24_22h36.21.347,LearnStrategy,2023.2.3,Win32,60.24096386,2,1,7,0.022135417,-0.015625,1,0,0,2.0444,rock_grid_rect_2,7,08,-1,-1,2.044,0.337239583,-0.25390625,1,0,0,3.2272,Gabbro_rect,4,3.227,0,6,0,6,0,1,,,,,,,,,,,,,
666b2c697befa9c75aa3e43f,TCR,2024-06-24_22h36.21.347,LearnStrategy,2023.2.3,Win32,60.24096386,2,1,8,0.052083333,-0.006510417,1,0,0,1.1255,rock_grid_rect_2,1,07,-1,-1,1.126,-0.295572917,-0.259114583,1,0,0,1.097,Andesite_rect,1,1.097,1,7,0,7,0,1,,,,,,,,,,,,,
666b2c697befa9c75aa3e43f,TCR,2024-06-24_22h36.21.347,LearnStrategy,2023.2.3,Win32,60.24096386,2,1,9,0.010416667,-0.009114583,1,0,0,1.1605,rock_grid_rect_2,7,15,-1,-1,1.161,-0.10546875,-0.235677083,1,0,0,0.7632,Basalt_rect,2,0.763,0,8,0,8,0,1,,,,,,,,,,,,,
666b2c697befa9c75aa3e43f,TCR,2024-06-24_22h36.21.347,LearnStrategy,2023.2.3,Win32,60.24096386,2,1,10,0.036458333,-0.00390625,1,0,0,0.7935,rock_grid_rect_2,1,03,-1,-1,0.793,-0.071614583,-0.236979167,1,0,0,2.0413,Basalt_rect,2,2.041,0,9,0,9,0,1,,,,,,,,,,,,,
666b2c697befa9c75aa3e43f,TCR,2024-06-24_22h36.21.347,LearnStrategy,2023.2.3,Win32,60.24096386,2,1,11,0.002604167,-0.009114583,1,0,0,0.9444,rock_grid_rect_2,1,14,-1,-1,0.944,-0.190104167,-0.252604167,1,0,0,43.428,Basalt_rect,2,43.428,0,10,0,10,0,1,,,,,,,,,,,,,
666b2c697befa9c75aa3e43f,TCR,2024-06-24_22h36.21.347,LearnStrategy,2023.2.3,Win32,60.24096386,2,1,12,-0.07421875,0.005208333,1,0,0,1.0422,rock_grid_rect_2,4,12,-1,-1,1.042,0.420572917,-0.252604167,1,0,0,2.9301,Gabbro_rect,4,2.93,1,11,0,11,0,1,,,,,,,,,,,,,
666b2c697befa9c75aa3e43f,TCR,2024-06-24_22h36.21.347,LearnStrategy,2023.2.3,Win32,60.24096386,2,1,13,0.00390625,0.002604167,1,0,0,0.7983,rock_grid_rect_2,6,08,-1,-1,0.798,-0.106770833,-0.391927083,1,0,0,1.6574,Pegmatite_rect,6,1.657,1,12,0,12,0,1,,,,,,,,,,,,,
666b2c697befa9c75aa3e43f,TCR,2024-06-24_22h36.21.347,LearnStrategy,2023.2.3,Win32,60.24096386,2,1,14,-0.015625,0.001302083,1,0,0,0.7634,rock_grid_rect_2,7,04,-1,-1,0.763,-0.09765625,-0.234375,1,0,0,0.9473,Basalt_rect,2,0.947,0,13,0,13,0,1,,,,,,,,,,,,,
666b2c697befa9c75aa3e43f,TCR,2024-06-24_22h36.21.347,LearnStrategy,2023.2.3,Win32,60.24096386,2,1,15,0.010416667,-0.016927083,1,0,0,0.9422,rock_grid_rect_2,4,16,-1,-1,0.942,0.153645833,-0.389322917,1,0,0,2.6389,Peridotite_rect,7,2.639,0,14,0,14,0,1,,,,,,,,,,,,,
666b2c697befa9c75aa3e43f,TCR,2024-06-24_22h36.21.347,LearnStrategy,2023.2.3,Win32,60.24096386,2,1,16,0.02734375,-0.01953125,1,0,0,0.775,rock_grid_rect_2,3,12,-1,-1,0.775,0.166666667,-0.26171875,1,0,0,14.5931,Diorite_rect,3,14.593,1,15,0,15,0,1,,,,,,,,,,,,,
666b2c697befa9c75aa3e43f,TCR,2024-06-24_22h36.21.347,LearnStrategy,2023.2.3,Win32,60.24096386,2,2,1,,,,,,,,8,10,,,,,,,,,,,8,2.704,1,,,,,,0.419270833,-0.389322917,1,0,0,2.704,Pumice_rect,0,0,0,0,1,
666b2c697befa9c75aa3e43f,TCR,2024-06-24_22h36.21.347,LearnStrategy,2023.2.3,Win32,60.24096386,2,2,2,,,,,,,,6,13,,,,,,,,,,,3,1.156,0,,,,,,0.0390625,-0.255208333,1,0,0,1.1556,Diorite_rect,1,0,1,0,1,
666b2c697befa9c75aa3e43f,TCR,2024-06-24_22h36.21.347,LearnStrategy,2023.2.3,Win32,60.24096386,2,2,3,,,,,,,,5,07,,,,,,,,,,,5,1.215,1,,,,,,-0.330729167,-0.403645833,1,0,0,1.2146,Obsidian_rect,2,0,2,0,1,
666b2c697befa9c75aa3e43f,TCR,2024-06-24_22h36.21.347,LearnStrategy,2023.2.3,Win32,60.24096386,2,2,4,,,,,,,,3,06,,,,,,,,,,,4,4.465,0,,,,,,0.391927083,-0.236979167,1,0,0,4.4647,Gabbro_rect,3,0,3,0,1,
666b2c697befa9c75aa3e43f,TCR,2024-06-24_22h36.21.347,LearnStrategy,2023.2.3,Win32,60.24096386,2,2,5,,,,,,,,3,07,,,,,,,,,,,2,0.912,0,,,,,,-0.182291667,-0.259114583,1,0,0,0.9123,Basalt_rect,4,0,4,0,1,
666b2c697befa9c75aa3e43f,TCR,2024-06-24_22h36.21.347,LearnStrategy,2023.2.3,Win32,60.24096386,2,2,6,,,,,,,,2,02,,,,,,,,,,,6,0.806,0,,,,,,-0.076822917,-0.397135417,1,0,0,0.8056,Pegmatite_rect,5,0,5,0,1,
666b2c697befa9c75aa3e43f,TCR,2024-06-24_22h36.21.347,LearnStrategy,2023.2.3,Win32,60.24096386,2,2,7,,,,,,,,5,05,,,,,,,,,,,5,1.076,1,,,,,,-0.328125,-0.390625,1,0,0,1.0764,Obsidian_rect,6,0,6,0,1,
666b2c697befa9c75aa3e43f,TCR,2024-06-24_22h36.21.347,LearnStrategy,2023.2.3,Win32,60.24096386,2,2,8,,,,,,,,4,09,,,,,,,,,,,7,1.945,0,,,,,,0.182291667,-0.388020833,1,0,0,1.9453,Peridotite_rect,7,0,7,0,1,
666b2c697befa9c75aa3e43f,TCR,2024-06-24_22h36.21.347,LearnStrategy,2023.2.3,Win32,60.24096386,2,2,9,,,,,,,,7,05,,,,,,,,,,,6,0.887,0,,,,,,-0.053385417,-0.380208333,1,0,0,0.8869,Pegmatite_rect,8,0,8,0,1,
666b2c697befa9c75aa3e43f,TCR,2024-06-24_22h36.21.347,LearnStrategy,2023.2.3,Win32,60.24096386,2,2,10,,,,,,,,1,04,,,,,,,,,,,3,0.865,0,,,,,,0.098958333,-0.243489583,1,0,0,0.8649,Diorite_rect,9,0,9,0,1,
666b2c697befa9c75aa3e43f,TCR,2024-06-24_22h36.21.347,LearnStrategy,2023.2.3,Win32,60.24096386,2,2,11,,,,,,,,8,13,,,,,,,,,,,8,0.945,1,,,,,,0.359375,-0.390625,1,0,0,0.9449,Pumice_rect,10,0,10,0,1,
666b2c697befa9c75aa3e43f,TCR,2024-06-24_22h36.21.347,LearnStrategy,2023.2.3,Win32,60.24096386,2,2,12,,,,,,,,2,04,,,,,,,,,,,5,1.773,0,,,,,,-0.40234375,-0.403645833,1,0,0,1.7734,Obsidian_rect,11,0,11,0,1,
666b2c697befa9c75aa3e43f,TCR,2024-06-24_22h36.21.347,LearnStrategy,2023.2.3,Win32,60.24096386,2,2,13,,,,,,,,7,16,,,,,,,,,,,6,0.557,0,,,,,,-0.102864583,-0.399739583,1,0,0,0.5567,Pegmatite_rect,12,0,12,0,1,
666b2c697befa9c75aa3e43f,TCR,2024-06-24_22h36.21.347,LearnStrategy,2023.2.3,Win32,60.24096386,2,2,14,,,,,,,,1,06,,,,,,,,,,,1,1.331,1,,,,,,-0.391927083,-0.256510417,1,0,0,1.3309,Andesite_rect,13,0,13,0,1,
666b2c697befa9c75aa3e43f,TCR,2024-06-24_22h36.21.347,LearnStrategy,2023.2.3,Win32,60.24096386,2,2,15,,,,,,,,4,01,,,,,,,,,,,7,0.563,0,,,,,,0.05078125,-0.38671875,1,0,0,0.5627,Peridotite_rect,14,0,14,0,1,
666b2c697befa9c75aa3e43f,TCR,2024-06-24_22h36.21.347,LearnStrategy,2023.2.3,Win32,60.24096386,2,2,16,,,,,,,,6,12,,,,,,,,,,,4,0.568,0,,,,,,0.375,-0.2421875,1,0,0,0.5677,Gabbro_rect,15,0,15,0,1,
666b2c697befa9c75aa3e43f,TCR,2024-06-24_22h36.21.347,LearnStrategy,2023.2.3,Win32,60.24096386,3,1,1,-0.037760417,0.022135417,1,0,0,1.3277,rock_grid_rect_2,6,06,-1,-1,1.328,0.201822917,-0.263020833,1,0,0,70.4983,Diorite_rect,3,70.498,0,0,0,0,0,1,,,,,,,,,,,,,
666b2c697befa9c75aa3e43f,TCR,2024-06-24_22h36.21.347,LearnStrategy,2023.2.3,Win32,60.24096386,3,1,2,-0.041666667,-0.006510417,1,0,0,1.5205,rock_grid_rect_2,4,15,-1,-1,1.52,-0.4453125,-0.266927083,1,0,0,1.7303,Andesite_rect,1,1.73,0,1,0,1,0,1,,,,,,,,,,,,,
666b2c697befa9c75aa3e43f,TCR,2024-06-24_22h36.21.347,LearnStrategy,2023.2.3,Win32,60.24096386,3,1,3,-0.001302083,0.024739583,1,0,0,0.779,rock_grid_rect_2,2,05,-1,-1,0.779,0.315104167,-0.247395833,1,0,0,1.1789,Gabbro_rect,4,1.179,0,2,0,2,0,1,,,,,,,,,,,,,
666b2c697befa9c75aa3e43f,TCR,2024-06-24_22h36.21.347,LearnStrategy,2023.2.3,Win32,60.24096386,3,1,4,-0.016927083,-0.001302083,1,0,0,0.7524,rock_grid_rect_2,3,14,-1,-1,0.752,-0.10546875,-0.233072917,1,0,0,1.4117,Basalt_rect,2,1.412,0,3,0,3,0,1,,,,,,,,,,,,,
666b2c697befa9c75aa3e43f,TCR,2024-06-24_22h36.21.347,LearnStrategy,2023.2.3,Win32,60.24096386,3,1,5,-0.022135417,-0.013020833,1,0,0,0.8492,rock_grid_rect_2,7,06,-1,-1,0.849,-0.063802083,-0.395833333,1,0,0,0.9534,Pegmatite_rect,6,0.953,0,4,0,4,0,1,,,,,,,,,,,,,
666b2c697befa9c75aa3e43f,TCR,2024-06-24_22h36.21.347,LearnStrategy,2023.2.3,Win32,60.24096386,3,1,6,0.013020833,-0.020833333,1,0,0,0.9269,rock_grid_rect_2,2,12,-1,-1,0.927,-0.119791667,-0.25390625,1,0,0,1.1213,Basalt_rect,2,1.121,1,5,0,5,0,1,,,,,,,,,,,,,
666b2c697befa9c75aa3e43f,TCR,2024-06-24_22h36.21.347,LearnStrategy,2023.2.3,Win32,60.24096386,3,1,7,0.018229167,-0.024739583,1,0,0,0.7601,rock_grid_rect_2,2,16,-1,-1,0.76,-0.40234375,-0.259114583,1,0,0,1.0939,Andesite_rect,1,1.094,0,6,0,6,0,1,,,,,,,,,,,,,
666b2c697befa9c75aa3e43f,TCR,2024-06-24_22h36.21.347,LearnStrategy,2023.2.3,Win32,60.24096386,3,1,8,0.020833333,-0.013020833,1,0,0,1.0089,rock_grid_rect_2,1,07,-1,-1,1.009,0.3671875,-0.266927083,1,0,0,2.5589,Gabbro_rect,4,2.559,0,7,0,7,0,1,,,,,,,,,,,,,
666b2c697befa9c75aa3e43f,TCR,2024-06-24_22h36.21.347,LearnStrategy,2023.2.3,Win32,60.24096386,3,1,9,0.071614583,0.006510417,1,0,0,0.6764,rock_grid_rect_2,3,10,-1,-1,0.676,-0.346354167,-0.229166667,1,0,0,1.0921,Andesite_rect,1,1.092,0,8,0,8,0,1,,,,,,,,,,,,,
666b2c697befa9c75aa3e43f,TCR,2024-06-24_22h36.21.347,LearnStrategy,2023.2.3,Win32,60.24096386,3,1,10,0.055989583,-0.001302083,1,0,0,0.6927,rock_grid_rect_2,6,16,-1,-1,0.693,0.06640625,-0.412760417,1,0,0,1.5252,Peridotite_rect,7,1.525,0,9,0,9,0,1,,,,,,,,,,,,,
666b2c697befa9c75aa3e43f,TCR,2024-06-24_22h36.21.347,LearnStrategy,2023.2.3,Win32,60.24096386,3,1,11,0.040364583,0.006510417,1,0,0,0.7197,rock_grid_rect_2,4,05,-1,-1,0.72,-0.12890625,-0.244791667,1,0,0,0.8846,Basalt_rect,2,0.885,0,10,0,10,0,1,,,,,,,,,,,,,
666b2c697befa9c75aa3e43f,TCR,2024-06-24_22h36.21.347,LearnStrategy,2023.2.3,Win32,60.24096386,3,1,12,0.169270833,0,1,0,0,1.199,rock_grid_rect_2,7,07,-1,-1,1.199,0.375,-0.23828125,1,0,0,0.7986,Gabbro_rect,4,0.799,0,11,0,11,0,1,,,,,,,,,,,,,
666b2c697befa9c75aa3e43f,TCR,2024-06-24_22h36.21.347,LearnStrategy,2023.2.3,Win32,60.24096386,3,1,13,0.005208333,-0.020833333,1,0,0,0.6834,rock_grid_rect_2,1,10,-1,-1,0.683,0.497395833,-0.401041667,1,0,0,2.3526,Pumice_rect,8,2.353,0,12,0,12,0,1,,,,,,,,,,,,,
666b2c697befa9c75aa3e43f,TCR,2024-06-24_22h36.21.347,LearnStrategy,2023.2.3,Win32,60.24096386,3,1,14,0.109375,0.001302083,1,0,0,0.81,rock_grid_rect_2,4,10,-1,-1,0.81,-0.319010417,-0.240885417,1,0,0,1.8832,Andesite_rect,1,1.883,0,13,0,13,0,1,,,,,,,,,,,,,
666b2c697befa9c75aa3e43f,TCR,2024-06-24_22h36.21.347,LearnStrategy,2023.2.3,Win32,60.24096386,3,1,15,0.009114583,-0.002604167,1,0,0,0.8646,rock_grid_rect_2,7,14,-1,-1,0.865,-0.0625,-0.244791667,1,0,0,1.4507,Basalt_rect,2,1.451,0,14,0,14,0,1,,,,,,,,,,,,,
666b2c697befa9c75aa3e43f,TCR,2024-06-24_22h36.21.347,LearnStrategy,2023.2.3,Win32,60.24096386,3,1,16,0.0078125,-0.010416667,1,0,0,0.9429,rock_grid_rect_2,6,15,-1,-1,0.943,-0.200520833,-0.404947917,1,0,0,1.9167,Pegmatite_rect,6,1.917,1,15,0,15,0,1,,,,,,,,,,,,,
666b2c697befa9c75aa3e43f,TCR,2024-06-24_22h36.21.347,LearnStrategy,2023.2.3,Win32,60.24096386,3,2,1,,,,,,,,8,05,,,,,,,,,,,8,1.273,1,,,,,,0.377604167,-0.3984375,1,0,0,1.2734,Pumice_rect,0,0,0,0,1,
666b2c697befa9c75aa3e43f,TCR,2024-06-24_22h36.21.347,LearnStrategy,2023.2.3,Win32,60.24096386,3,2,2,,,,,,,,1,05,,,,,,,,,,,1,1.248,1,,,,,,-0.309895833,-0.240885417,1,0,0,1.2477,Andesite_rect,1,0,1,0,1,
666b2c697befa9c75aa3e43f,TCR,2024-06-24_22h36.21.347,LearnStrategy,2023.2.3,Win32,60.24096386,3,2,3,,,,,,,,3,15,,,,,,,,,,,2,0.676,0,,,,,,-0.130208333,-0.251302083,1,0,0,0.6758,Basalt_rect,2,0,2,0,1,
666b2c697befa9c75aa3e43f,TCR,2024-06-24_22h36.21.347,LearnStrategy,2023.2.3,Win32,60.24096386,3,2,4,,,,,,,,2,06,,,,,,,,,,,5,0.745,0,,,,,,-0.3046875,-0.401041667,1,0,0,0.7445,Obsidian_rect,3,0,3,0,1,
666b2c697befa9c75aa3e43f,TCR,2024-06-24_22h36.21.347,LearnStrategy,2023.2.3,Win32,60.24096386,3,2,5,,,,,,,,8,03,,,,,,,,,,,6,0.25,0,,,,,,-0.192708333,-0.389322917,1,0,0,0.2495,Pegmatite_rect,4,0,4,0,1,
666b2c697befa9c75aa3e43f,TCR,2024-06-24_22h36.21.347,LearnStrategy,2023.2.3,Win32,60.24096386,3,2,6,,,,,,,,2,14,,,,,,,,,,,2,0.81,1,,,,,,-0.15234375,-0.266927083,1,0,0,0.81,Basalt_rect,5,0,5,0,1,
666b2c697befa9c75aa3e43f,TCR,2024-06-24_22h36.21.347,LearnStrategy,2023.2.3,Win32,60.24096386,3,2,7,,,,,,,,7,13,,,,,,,,,,,7,0.532,1,,,,,,0.0625,-0.381510417,1,0,0,0.5321,Peridotite_rect,6,0,6,0,1,
666b2c697befa9c75aa3e43f,TCR,2024-06-24_22h36.21.347,LearnStrategy,2023.2.3,Win32,60.24096386,3,2,8,,,,,,,,1,11,,,,,,,,,,,3,0.762,0,,,,,,0.080729167,-0.270833333,1,0,0,0.7622,Diorite_rect,7,0,7,0,1,
666b2c697befa9c75aa3e43f,TCR,2024-06-24_22h36.21.347,LearnStrategy,2023.2.3,Win32,60.24096386,3,2,9,,,,,,,,5,02,,,,,,,,,,,5,0.892,1,,,,,,-0.3203125,-0.41015625,1,0,0,0.8917,Obsidian_rect,8,0,8,0,1,
666b2c697befa9c75aa3e43f,TCR,2024-06-24_22h36.21.347,LearnStrategy,2023.2.3,Win32,60.24096386,3,2,10,,,,,,,,6,09,,,,,,,,,,,4,0.36,0,,,,,,0.380208333,-0.233072917,1,0,0,0.3597,Gabbro_rect,9,0,9,0,1,
666b2c697befa9c75aa3e43f,TCR,2024-06-24_22h36.21.347,LearnStrategy,2023.2.3,Win32,60.24096386,3,2,11,,,,,,,,4,11,,,,,,,,,,,1,1.777,0,,,,,,-0.373697917,-0.244791667,1,0,0,1.7775,Andesite_rect,10,0,10,0,1,
666b2c697befa9c75aa3e43f,TCR,2024-06-24_22h36.21.347,LearnStrategy,2023.2.3,Win32,60.24096386,3,2,12,,,,,,,,4,14,,,,,,,,,,,7,0.851,0,,,,,,0.05078125,-0.399739583,1,0,0,0.8513,Peridotite_rect,11,0,11,0,1,
666b2c697befa9c75aa3e43f,TCR,2024-06-24_22h36.21.347,LearnStrategy,2023.2.3,Win32,60.24096386,3,2,13,,,,,,,,7,02,,,,,,,,,,,6,0.685,0,,,,,,-0.067708333,-0.389322917,1,0,0,0.6853,Pegmatite_rect,12,0,12,0,1,
666b2c697befa9c75aa3e43f,TCR,2024-06-24_22h36.21.347,LearnStrategy,2023.2.3,Win32,60.24096386,3,2,14,,,,,,,,3,02,,,,,,,,,,,1,1.448,0,,,,,,-0.346354167,-0.25390625,1,0,0,1.448,Andesite_rect,13,0,13,0,1,
666b2c697befa9c75aa3e43f,TCR,2024-06-24_22h36.21.347,LearnStrategy,2023.2.3,Win32,60.24096386,3,2,15,,,,,,,,6,11,,,,,,,,,,,4,0.848,0,,,,,,0.36328125,-0.239583333,1,0,0,0.8481,Gabbro_rect,14,0,14,0,1,
666b2c697befa9c75aa3e43f,TCR,2024-06-24_22h36.21.347,LearnStrategy,2023.2.3,Win32,60.24096386,3,2,16,,,,,,,,5,14,,,,,,,,,,,5,1.117,1,,,,,,-0.373697917,-0.397135417,1,0,0,1.117,Obsidian_rect,15,0,15,0,1,
666b2c697befa9c75aa3e43f,TCR,2024-06-24_22h36.21.347,LearnStrategy,2023.2.3,Win32,60.24096386,4,1,1,-0.006510417,-0.0078125,1,0,0,1.095,rock_grid_rect_2,2,08,-1,-1,1.095,-0.341145833,-0.256510417,1,0,0,2.8085,Andesite_rect,1,2.808,0,0,0,0,0,1,,,,,,,,,,,,,
666b2c697befa9c75aa3e43f,TCR,2024-06-24_22h36.21.347,LearnStrategy,2023.2.3,Win32,60.24096386,4,1,2,0.06640625,-0.006510417,1,0,0,0.7929,rock_grid_rect_2,8,09,-1,-1,0.793,0.326822917,-0.390625,1,0,0,1.2948,Pumice_rect,8,1.295,1,1,0,1,0,1,,,,,,,,,,,,,
666b2c697befa9c75aa3e43f,TCR,2024-06-24_22h36.21.347,LearnStrategy,2023.2.3,Win32,60.24096386,4,1,3,0.067708333,-0.002604167,1,0,0,0.7595,rock_grid_rect_2,7,14,-1,-1,0.76,-0.075520833,-0.380208333,1,0,0,1.1686,Pegmatite_rect,6,1.169,0,2,0,2,0,1,,,,,,,,,,,,,
666b2c697befa9c75aa3e43f,TCR,2024-06-24_22h36.21.347,LearnStrategy,2023.2.3,Win32,60.24096386,4,1,4,0.09375,0.014322917,1,0,0,0.6843,rock_grid_rect_2,4,10,-1,-1,0.684,0.055989583,-0.26171875,1,0,0,1.0026,Diorite_rect,3,1.003,0,3,0,3,0,1,,,,,,,,,,,,,
666b2c697befa9c75aa3e43f,TCR,2024-06-24_22h36.21.347,LearnStrategy,2023.2.3,Win32,60.24096386,4,1,5,0.15625,-0.024739583,1,0,0,0.7769,rock_grid_rect_2,4,05,-1,-1,0.777,0.14453125,-0.391927083,1,0,0,1.0113,Peridotite_rect,7,1.011,0,4,0,4,0,1,,,,,,,,,,,,,
666b2c697befa9c75aa3e43f,TCR,2024-06-24_22h36.21.347,LearnStrategy,2023.2.3,Win32,60.24096386,4,1,6,0.111979167,0.016927083,1,0,0,0.6615,rock_grid_rect_2,2,12,-1,-1,0.661,-0.0625,-0.23046875,1,0,0,1.5085,Basalt_rect,2,1.509,1,5,0,5,0,1,,,,,,,,,,,,,
666b2c697befa9c75aa3e43f,TCR,2024-06-24_22h36.21.347,LearnStrategy,2023.2.3,Win32,60.24096386,4,1,7,0.022135417,0.018229167,1,0,0,0.8979,rock_grid_rect_2,4,13,-1,-1,0.898,-0.08984375,-0.234375,1,0,0,0.8182,Basalt_rect,2,0.818,0,6,0,6,0,1,,,,,,,,,,,,,
666b2c697befa9c75aa3e43f,TCR,2024-06-24_22h36.21.347,LearnStrategy,2023.2.3,Win32,60.24096386,4,1,8,0.178385417,-0.010416667,1,0,0,0.7758,rock_grid_rect_2,3,08,-1,-1,0.776,0.109375,-0.421875,1,0,0,2.2357,Peridotite_rect,7,2.236,0,7,0,7,0,1,,,,,,,,,,,,,
666b2c697befa9c75aa3e43f,TCR,2024-06-24_22h36.21.347,LearnStrategy,2023.2.3,Win32,60.24096386,4,1,9,0.087239583,0,1,0,0,1.015,rock_grid_rect_2,6,06,-1,-1,1.015,-0.0703125,-0.389322917,1,0,0,3.627,Pegmatite_rect,6,3.627,1,8,0,8,0,1,,,,,,,,,,,,,
666b2c697befa9c75aa3e43f,TCR,2024-06-24_22h36.21.347,LearnStrategy,2023.2.3,Win32,60.24096386,4,1,10,0.134114583,-0.009114583,1,0,0,0.9093,rock_grid_rect_2,6,15,-1,-1,0.909,0.102864583,-0.3828125,1,0,0,1.5575,Peridotite_rect,7,1.558,0,9,0,9,0,1,,,,,,,,,,,,,
666b2c697befa9c75aa3e43f,TCR,2024-06-24_22h36.21.347,LearnStrategy,2023.2.3,Win32,60.24096386,4,1,11,0.071614583,0.010416667,1,0,0,0.6922,rock_grid_rect_2,1,14,-1,-1,0.692,0.12890625,-0.270833333,1,0,0,3.1061,Diorite_rect,3,3.106,0,10,0,10,0,1,,,,,,,,,,,,,
666b2c697befa9c75aa3e43f,TCR,2024-06-24_22h36.21.347,LearnStrategy,2023.2.3,Win32,60.24096386,4,1,12,0.130208333,-0.01171875,1,0,0,1.0438,rock_grid_rect_2,6,16,-1,-1,1.044,-0.049479167,-0.404947917,1,0,0,1.8752,Pegmatite_rect,6,1.875,1,11,0,11,0,1,,,,,,,,,,,,,
666b2c697befa9c75aa3e43f,TCR,2024-06-24_22h36.21.347,LearnStrategy,2023.2.3,Win32,60.24096386,4,1,13,0.061197917,0.0078125,1,0,0,0.8605,rock_grid_rect_2,3,13,-1,-1,0.861,-0.325520833,-0.247395833,1,0,0,1.635,Andesite_rect,1,1.635,0,12,0,12,0,1,,,,,,,,,,,,,
666b2c697befa9c75aa3e43f,TCR,2024-06-24_22h36.21.347,LearnStrategy,2023.2.3,Win32,60.24096386,4,1,14,0.0546875,0.0078125,1,0,0,0.8759,rock_grid_rect_2,7,04,-1,-1,0.876,0.358072917,-0.23046875,1,0,0,0.963,Gabbro_rect,4,0.963,0,13,0,13,0,1,,,,,,,,,,,,,
666b2c697befa9c75aa3e43f,TCR,2024-06-24_22h36.21.347,LearnStrategy,2023.2.3,Win32,60.24096386,4,1,15,0.134114583,-0.010416667,1,0,0,1.3754,rock_grid_rect_2,3,13,-1,-1,1.375,-0.151041667,-0.260416667,1,0,0,3.4258,Basalt_rect,2,3.426,0,14,0,14,0,1,,,,,,,,,,,,,
666b2c697befa9c75aa3e43f,TCR,2024-06-24_22h36.21.347,LearnStrategy,2023.2.3,Win32,60.24096386,4,1,16,-0.0078125,-0.016927083,1,0,0,0.7597,rock_grid_rect_2,1,07,-1,-1,0.76,0.075520833,-0.263020833,1,0,0,0.7249,Diorite_rect,3,0.725,0,15,0,15,0,1,,,,,,,,,,,,,
666b2c697befa9c75aa3e43f,TCR,2024-06-24_22h36.21.347,LearnStrategy,2023.2.3,Win32,60.24096386,4,2,1,,,,,,,,7,10,,,,,,,,,,,2,1.088,0,,,,,,-0.104166667,-0.229166667,1,0,0,1.088,Basalt_rect,0,0,0,0,1,
666b2c697befa9c75aa3e43f,TCR,2024-06-24_22h36.21.347,LearnStrategy,2023.2.3,Win32,60.24096386,4,2,2,,,,,,,,8,05,,,,,,,,,,,8,1.005,1,,,,,,0.334635417,-0.39453125,1,0,0,1.0048,Pumice_rect,1,0,1,0,1,
666b2c697befa9c75aa3e43f,TCR,2024-06-24_22h36.21.347,LearnStrategy,2023.2.3,Win32,60.24096386,4,2,3,,,,,,,,3,15,,,,,,,,,,,8,1.281,0,,,,,,0.321614583,-0.38671875,1,0,0,1.2806,Pumice_rect,2,0,2,0,1,
666b2c697befa9c75aa3e43f,TCR,2024-06-24_22h36.21.347,LearnStrategy,2023.2.3,Win32,60.24096386,4,2,4,,,,,,,,7,02,,,,,,,,,,,6,1.357,0,,,,,,-0.0625,-0.403645833,1,0,0,1.3569,Pegmatite_rect,3,0,3,0,1,
666b2c697befa9c75aa3e43f,TCR,2024-06-24_22h36.21.347,LearnStrategy,2023.2.3,Win32,60.24096386,4,2,5,,,,,,,,1,04,,,,,,,,,,,3,1.42,0,,,,,,0.114583333,-0.247395833,1,0,0,1.4204,Diorite_rect,4,0,4,0,1,
666b2c697befa9c75aa3e43f,TCR,2024-06-24_22h36.21.347,LearnStrategy,2023.2.3,Win32,60.24096386,4,2,6,,,,,,,,5,07,,,,,,,,,,,5,1.008,1,,,,,,-0.3671875,-0.407552083,1,0,0,1.0079,Obsidian_rect,5,0,5,0,1,
666b2c697befa9c75aa3e43f,TCR,2024-06-24_22h36.21.347,LearnStrategy,2023.2.3,Win32,60.24096386,4,2,7,,,,,,,,2,14,,,,,,,,,,,4,1.086,0,,,,,,0.317708333,-0.2421875,1,0,0,1.086,Gabbro_rect,6,0,6,0,1,
666b2c697befa9c75aa3e43f,TCR,2024-06-24_22h36.21.347,LearnStrategy,2023.2.3,Win32,60.24096386,4,2,8,,,,,,,,3,16,,,,,,,,,,,1,1.784,0,,,,,,-0.399739583,-0.25,1,0,0,1.784,Andesite_rect,7,0,7,0,1,
666b2c697befa9c75aa3e43f,TCR,2024-06-24_22h36.21.347,LearnStrategy,2023.2.3,Win32,60.24096386,4,2,9,,,,,,,,4,14,,,,,,,,,,,3,1.37,0,,,,,,0.14453125,-0.263020833,1,0,0,1.3695,Diorite_rect,8,0,8,0,1,
666b2c697befa9c75aa3e43f,TCR,2024-06-24_22h36.21.347,LearnStrategy,2023.2.3,Win32,60.24096386,4,2,10,,,,,,,,1,02,,,,,,,,,,,8,1.764,0,,,,,,0.4765625,-0.401041667,1,0,0,1.7642,Pumice_rect,9,0,9,0,1,
666b2c697befa9c75aa3e43f,TCR,2024-06-24_22h36.21.347,LearnStrategy,2023.2.3,Win32,60.24096386,4,2,11,,,,,,,,6,13,,,,,,,,,,,3,0.825,0,,,,,,0.122395833,-0.23828125,1,0,0,0.8247,Diorite_rect,10,0,10,0,1,
666b2c697befa9c75aa3e43f,TCR,2024-06-24_22h36.21.347,LearnStrategy,2023.2.3,Win32,60.24096386,4,2,12,,,,,,,,2,02,,,,,,,,,,,1,0.999,0,,,,,,-0.34765625,-0.2578125,1,0,0,0.9989,Andesite_rect,11,0,11,0,1,
666b2c697befa9c75aa3e43f,TCR,2024-06-24_22h36.21.347,LearnStrategy,2023.2.3,Win32,60.24096386,4,2,13,,,,,,,,6,12,,,,,,,,,,,2,0.727,0,,,,,,-0.182291667,-0.236979167,1,0,0,0.7266,Basalt_rect,12,0,12,0,1,
666b2c697befa9c75aa3e43f,TCR,2024-06-24_22h36.21.347,LearnStrategy,2023.2.3,Win32,60.24096386,4,2,14,,,,,,,,8,10,,,,,,,,,,,8,1.14,1,,,,,,0.373697917,-0.393229167,1,0,0,1.1402,Pumice_rect,13,0,13,0,1,
666b2c697befa9c75aa3e43f,TCR,2024-06-24_22h36.21.347,LearnStrategy,2023.2.3,Win32,60.24096386,4,2,15,,,,,,,,5,16,,,,,,,,,,,5,1.084,1,,,,,,-0.368489583,-0.397135417,1,0,0,1.0844,Obsidian_rect,14,0,14,0,1,
666b2c697befa9c75aa3e43f,TCR,2024-06-24_22h36.21.347,LearnStrategy,2023.2.3,Win32,60.24096386,4,2,16,,,,,,,,4,11,,,,,,,,,,,4,1.091,1,,,,,,0.388020833,-0.26953125,1,0,0,1.0912,Gabbro_rect,15,0,15,0,1,
666b2c697befa9c75aa3e43f,TCR,2024-06-24_22h36.21.347,LearnStrategy,2023.2.3,Win32,60.24096386,5,1,1,0.018229167,-0.018229167,1,0,0,2.1798,rock_grid_rect_2,7,14,-1,-1,2.18,-0.10546875,-0.2578125,1,0,0,1.069,Basalt_rect,2,1.069,0,0,0,0,0,1,,,,,,,,,,,,,
666b2c697befa9c75aa3e43f,TCR,2024-06-24_22h36.21.347,LearnStrategy,2023.2.3,Win32,60.24096386,5,1,2,0.13671875,-0.014322917,1,0,0,1.6408,rock_grid_rect_2,3,14,-1,-1,1.641,0.16796875,-0.25,1,0,0,0.7658,Diorite_rect,3,0.766,1,1,0,1,0,1,,,,,,,,,,,,,
666b2c697befa9c75aa3e43f,TCR,2024-06-24_22h36.21.347,LearnStrategy,2023.2.3,Win32,60.24096386,5,1,3,0.092447917,0.006510417,1,0,0,0.9519,rock_grid_rect_2,3,10,-1,-1,0.952,-0.118489583,-0.415364583,1,0,0,0.7963,Pegmatite_rect,6,0.796,0,2,0,2,0,1,,,,,,,,,,,,,
666b2c697befa9c75aa3e43f,TCR,2024-06-24_22h36.21.347,LearnStrategy,2023.2.3,Win32,60.24096386,5,1,4,0.09765625,-0.0234375,1,0,0,0.6589,rock_grid_rect_2,2,11,-1,-1,0.659,0.4296875,-0.40234375,1,0,0,1.2709,Pumice_rect,8,1.271,0,3,0,3,0,1,,,,,,,,,,,,,
666b2c697befa9c75aa3e43f,TCR,2024-06-24_22h36.21.347,LearnStrategy,2023.2.3,Win32,60.24096386,5,1,5,0.130208333,-0.00390625,1,0,0,0.6766,rock_grid_rect_2,6,10,-1,-1,0.677,-0.151041667,-0.399739583,1,0,0,1.6268,Pegmatite_rect,6,1.627,1,4,0,4,0,1,,,,,,,,,,,,,
666b2c697befa9c75aa3e43f,TCR,2024-06-24_22h36.21.347,LearnStrategy,2023.2.3,Win32,60.24096386,5,1,6,0.12890625,-0.010416667,1,0,0,0.7759,rock_grid_rect_2,1,09,-1,-1,0.776,-0.296875,-0.247395833,1,0,0,1.1379,Andesite_rect,1,1.138,1,5,0,5,0,1,,,,,,,,,,,,,
666b2c697befa9c75aa3e43f,TCR,2024-06-24_22h36.21.347,LearnStrategy,2023.2.3,Win32,60.24096386,5,1,7,0.079427083,0.0078125,1,0,0,0.9613,rock_grid_rect_2,7,15,-1,-1,0.961,-0.0703125,-0.407552083,1,0,0,1.4434,Pegmatite_rect,6,1.443,0,6,0,6,0,1,,,,,,,,,,,,,
666b2c697befa9c75aa3e43f,TCR,2024-06-24_22h36.21.347,LearnStrategy,2023.2.3,Win32,60.24096386,5,1,8,0.166666667,0,1,0,0,0.6607,rock_grid_rect_2,6,06,-1,-1,0.661,0.13671875,-0.25,1,0,0,1.5553,Diorite_rect,3,1.555,0,7,0,7,0,1,,,,,,,,,,,,,
666b2c697befa9c75aa3e43f,TCR,2024-06-24_22h36.21.347,LearnStrategy,2023.2.3,Win32,60.24096386,5,1,9,0.162760417,0.013020833,1,0,0,0.7263,rock_grid_rect_2,6,16,-1,-1,0.726,-0.071614583,-0.388020833,1,0,0,1.01,Pegmatite_rect,6,1.01,1,8,0,8,0,1,,,,,,,,,,,,,
666b2c697befa9c75aa3e43f,TCR,2024-06-24_22h36.21.347,LearnStrategy,2023.2.3,Win32,60.24096386,5,1,10,0.196614583,0.010416667,1,0,0,0.6758,rock_grid_rect_2,8,14,-1,-1,0.676,0.321614583,-0.388020833,1,0,0,0.9403,Pumice_rect,8,0.94,1,9,0,9,0,1,,,,,,,,,,,,,
666b2c697befa9c75aa3e43f,TCR,2024-06-24_22h36.21.347,LearnStrategy,2023.2.3,Win32,60.24096386,5,1,11,0.153645833,-0.013020833,1,0,0,0.6775,rock_grid_rect_2,3,12,-1,-1,0.678,-0.087239583,-0.240885417,1,0,0,1.4771,Basalt_rect,2,1.477,0,10,0,10,0,1,,,,,,,,,,,,,
666b2c697befa9c75aa3e43f,TCR,2024-06-24_22h36.21.347,LearnStrategy,2023.2.3,Win32,60.24096386,5,1,12,0.19140625,0.01953125,1,0,0,0.6141,rock_grid_rect_2,2,05,-1,-1,0.614,0.375,-0.248697917,1,0,0,1.292,Gabbro_rect,4,1.292,0,11,0,11,0,1,,,,,,,,,,,,,
666b2c697befa9c75aa3e43f,TCR,2024-06-24_22h36.21.347,LearnStrategy,2023.2.3,Win32,60.24096386,5,1,13,0.162760417,-0.006510417,1,0,0,1.5106,rock_grid_rect_2,1,14,-1,-1,1.511,0.076822917,-0.389322917,1,0,0,2.275,Peridotite_rect,7,2.275,0,12,0,12,0,1,,,,,,,,,,,,,
666b2c697befa9c75aa3e43f,TCR,2024-06-24_22h36.21.347,LearnStrategy,2023.2.3,Win32,60.24096386,5,1,14,0.044270833,0.0078125,1,0,0,0.8783,rock_grid_rect_2,2,12,-1,-1,0.878,-0.352864583,-0.26171875,1,0,0,0.858,Andesite_rect,1,0.858,0,13,0,13,0,1,,,,,,,,,,,,,
666b2c697befa9c75aa3e43f,TCR,2024-06-24_22h36.21.347,LearnStrategy,2023.2.3,Win32,60.24096386,5,1,15,0.139322917,-0.00390625,1,0,0,0.6935,rock_grid_rect_2,4,10,-1,-1,0.693,0.110677083,-0.24609375,1,0,0,1.0221,Diorite_rect,3,1.022,0,14,0,14,0,1,,,,,,,,,,,,,
666b2c697befa9c75aa3e43f,TCR,2024-06-24_22h36.21.347,LearnStrategy,2023.2.3,Win32,60.24096386,5,1,16,0.15234375,-0.013020833,1,0,0,0.7761,rock_grid_rect_2,4,13,-1,-1,0.776,-0.052083333,-0.255208333,1,0,0,1.2607,Basalt_rect,2,1.261,0,15,0,15,0,1,,,,,,,,,,,,,
666b2c697befa9c75aa3e43f,TCR,2024-06-24_22h36.21.347,LearnStrategy,2023.2.3,Win32,60.24096386,5,2,1,,,,,,,,3,09,,,,,,,,,,,3,1.528,1,,,,,,0.20703125,-0.255208333,1,0,0,1.5284,Diorite_rect,0,0,0,0,1,
666b2c697befa9c75aa3e43f,TCR,2024-06-24_22h36.21.347,LearnStrategy,2023.2.3,Win32,60.24096386,5,2,2,,,,,,,,2,10,,,,,,,,,,,4,1.857,0,,,,,,0.313802083,-0.268229167,1,0,0,1.8572,Gabbro_rect,1,0,1,0,1,
666b2c697befa9c75aa3e43f,TCR,2024-06-24_22h36.21.347,LearnStrategy,2023.2.3,Win32,60.24096386,5,2,3,,,,,,,,5,05,,,,,,,,,,,5,1.202,1,,,,,,-0.372395833,-0.3984375,1,0,0,1.2025,Obsidian_rect,2,0,2,0,1,
666b2c697befa9c75aa3e43f,TCR,2024-06-24_22h36.21.347,LearnStrategy,2023.2.3,Win32,60.24096386,5,2,4,,,,,,,,1,05,,,,,,,,,,,6,2.206,0,,,,,,-0.032552083,-0.412760417,1,0,0,2.2058,Pegmatite_rect,3,0,3,0,1,
666b2c697befa9c75aa3e43f,TCR,2024-06-24_22h36.21.347,LearnStrategy,2023.2.3,Win32,60.24096386,5,2,5,,,,,,,,8,03,,,,,,,,,,,8,1.44,1,,,,,,0.44140625,-0.41015625,1,0,0,1.4399,Pumice_rect,4,0,4,0,1,
666b2c697befa9c75aa3e43f,TCR,2024-06-24_22h36.21.347,LearnStrategy,2023.2.3,Win32,60.24096386,5,2,6,,,,,,,,3,06,,,,,,,,,,,3,1.074,1,,,,,,0.110677083,-0.268229167,1,0,0,1.074,Diorite_rect,5,0,5,0,1,
666b2c697befa9c75aa3e43f,TCR,2024-06-24_22h36.21.347,LearnStrategy,2023.2.3,Win32,60.24096386,5,2,7,,,,,,,,4,09,,,,,,,,,,,7,0.757,0,,,,,,0.084635417,-0.384114583,1,0,0,0.7571,Peridotite_rect,6,0,6,0,1,
666b2c697befa9c75aa3e43f,TCR,2024-06-24_22h36.21.347,LearnStrategy,2023.2.3,Win32,60.24096386,5,2,8,,,,,,,,7,05,,,,,,,,,,,1,1.354,0,,,,,,-0.470052083,-0.247395833,1,0,0,1.3542,Andesite_rect,7,0,7,0,1,
666b2c697befa9c75aa3e43f,TCR,2024-06-24_22h36.21.347,LearnStrategy,2023.2.3,Win32,60.24096386,5,2,9,,,,,,,,8,13,,,,,,,,,,,8,1.015,1,,,,,,0.419270833,-0.412760417,1,0,0,1.0152,Pumice_rect,8,0,8,0,1,
666b2c697befa9c75aa3e43f,TCR,2024-06-24_22h36.21.347,LearnStrategy,2023.2.3,Win32,60.24096386,5,2,10,,,,,,,,6,09,,,,,,,,,,,3,0.861,0,,,,,,0.178385417,-0.244791667,1,0,0,0.8606,Diorite_rect,9,0,9,0,1,
666b2c697befa9c75aa3e43f,TCR,2024-06-24_22h36.21.347,LearnStrategy,2023.2.3,Win32,60.24096386,5,2,11,,,,,,,,5,02,,,,,,,,,,,5,1.332,1,,,,,,-0.3515625,-0.412760417,1,0,0,1.3316,Obsidian_rect,10,0,10,0,1,
666b2c697befa9c75aa3e43f,TCR,2024-06-24_22h36.21.347,LearnStrategy,2023.2.3,Win32,60.24096386,5,2,12,,,,,,,,7,12,,,,,,,,,,,6,1.299,0,,,,,,-0.059895833,-0.399739583,1,0,0,1.2993,Pegmatite_rect,11,0,11,0,1,
666b2c697befa9c75aa3e43f,TCR,2024-06-24_22h36.21.347,LearnStrategy,2023.2.3,Win32,60.24096386,5,2,13,,,,,,,,2,04,,,,,,,,,,,4,1.376,0,,,,,,0.388020833,-0.260416667,1,0,0,1.3756,Gabbro_rect,12,0,12,0,1,
666b2c697befa9c75aa3e43f,TCR,2024-06-24_22h36.21.347,LearnStrategy,2023.2.3,Win32,60.24096386,5,2,14,,,,,,,,6,07,,,,,,,,,,,7,0.49,0,,,,,,0.084635417,-0.37890625,1,0,0,0.4903,Peridotite_rect,13,0,13,0,1,
666b2c697befa9c75aa3e43f,TCR,2024-06-24_22h36.21.347,LearnStrategy,2023.2.3,Win32,60.24096386,5,2,15,,,,,,,,4,03,,,,,,,,,,,3,0.545,0,,,,,,0.147135417,-0.263020833,1,0,0,0.5454,Diorite_rect,14,0,14,0,1,
666b2c697befa9c75aa3e43f,TCR,2024-06-24_22h36.21.347,LearnStrategy,2023.2.3,Win32,60.24096386,5,2,16,,,,,,,,1,11,,,,,,,,,,,8,0.614,0,,,,,,0.334635417,-0.41015625,1,0,0,0.6138,Pumice_rect,15,0,15,0,1,
666b2c697befa9c75aa3e43f,TCR,2024-06-24_22h36.21.347,LearnStrategy,2023.2.3,Win32,60.24096386,6,1,1,0.123697917,0.002604167,1,0,0,1.7124,rock_grid_rect_2,4,13,-1,-1,1.712,-0.140625,-0.268229167,1,0,0,1.3119,Basalt_rect,2,1.312,0,0,0,0,0,1,,,,,,,,,,,,,
666b2c697befa9c75aa3e43f,TCR,2024-06-24_22h36.21.347,LearnStrategy,2023.2.3,Win32,60.24096386,6,1,2,0.088541667,-0.022135417,1,0,0,1.0535,rock_grid_rect_2,7,07,-1,-1,1.053,0.053385417,-0.255208333,1,0,0,1.0184,Diorite_rect,3,1.018,0,1,0,1,0,1,,,,,,,,,,,,,
666b2c697befa9c75aa3e43f,TCR,2024-06-24_22h36.21.347,LearnStrategy,2023.2.3,Win32,60.24096386,6,1,3,0.049479167,-0.014322917,1,0,0,1.2947,rock_grid_rect_2,4,15,-1,-1,1.295,0.451822917,-0.25390625,1,0,0,2.0569,Gabbro_rect,4,2.057,1,2,0,2,0,1,,,,,,,,,,,,,
666b2c697befa9c75aa3e43f,TCR,2024-06-24_22h36.21.347,LearnStrategy,2023.2.3,Win32,60.24096386,6,1,4,0.08203125,-0.010416667,1,0,0,0.8597,rock_grid_rect_2,7,06,-1,-1,0.86,-0.12109375,-0.40234375,1,0,0,0.9945,Pegmatite_rect,6,0.995,0,3,0,3,0,1,,,,,,,,,,,,,
666b2c697befa9c75aa3e43f,TCR,2024-06-24_22h36.21.347,LearnStrategy,2023.2.3,Win32,60.24096386,6,1,5,0.091145833,0.002604167,1,0,0,0.8271,rock_grid_rect_2,7,14,-1,-1,0.827,0.134114583,-0.389322917,1,0,0,0.8347,Peridotite_rect,7,0.835,1,4,0,4,0,1,,,,,,,,,,,,,
666b2c697befa9c75aa3e43f,TCR,2024-06-24_22h36.21.347,LearnStrategy,2023.2.3,Win32,60.24096386,6,1,6,0.096354167,-0.009114583,1,0,0,0.7096,rock_grid_rect_2,6,06,-1,-1,0.71,0.076822917,-0.40234375,1,0,0,0.7753,Peridotite_rect,7,0.775,0,5,0,5,0,1,,,,,,,,,,,,,
666b2c697befa9c75aa3e43f,TCR,2024-06-24_22h36.21.347,LearnStrategy,2023.2.3,Win32,60.24096386,6,1,7,0.11328125,0.00390625,1,0,0,0.7613,rock_grid_rect_2,8,16,-1,-1,0.761,0.333333333,-0.393229167,1,0,0,0.9787,Pumice_rect,8,0.979,1,6,0,6,0,1,,,,,,,,,,,,,
666b2c697befa9c75aa3e43f,TCR,2024-06-24_22h36.21.347,LearnStrategy,2023.2.3,Win32,60.24096386,6,1,8,0.071614583,0.010416667,1,0,0,0.7929,rock_grid_rect_2,3,12,-1,-1,0.793,-0.3671875,-0.270833333,1,0,0,1.008,Andesite_rect,1,1.008,0,7,0,7,0,1,,,,,,,,,,,,,
666b2c697befa9c75aa3e43f,TCR,2024-06-24_22h36.21.347,LearnStrategy,2023.2.3,Win32,60.24096386,6,1,9,0.08203125,0,1,0,0,0.6859,rock_grid_rect_2,6,08,-1,-1,0.686,-0.078125,-0.380208333,1,0,0,2.0752,Pegmatite_rect,6,2.075,1,8,0,8,0,1,,,,,,,,,,,,,
666b2c697befa9c75aa3e43f,TCR,2024-06-24_22h36.21.347,LearnStrategy,2023.2.3,Win32,60.24096386,6,1,10,0.09765625,0.006510417,1,0,0,0.7662,rock_grid_rect_2,2,01,-1,-1,0.766,-0.09765625,-0.25,1,0,0,1.4316,Basalt_rect,2,1.432,1,9,0,9,0,1,,,,,,,,,,,,,
666b2c697befa9c75aa3e43f,TCR,2024-06-24_22h36.21.347,LearnStrategy,2023.2.3,Win32,60.24096386,6,1,11,-0.00390625,-0.015625,1,0,0,0.7121,rock_grid_rect_2,2,12,-1,-1,0.712,0.1015625,-0.2421875,1,0,0,1.4943,Diorite_rect,3,1.494,0,10,0,10,0,1,,,,,,,,,,,,,
666b2c697befa9c75aa3e43f,TCR,2024-06-24_22h36.21.347,LearnStrategy,2023.2.3,Win32,60.24096386,6,1,12,0.0625,0.010416667,1,0,0,0.7766,rock_grid_rect_2,6,16,-1,-1,0.777,-0.134114583,-0.403645833,1,0,0,1.1151,Pegmatite_rect,6,1.115,1,11,0,11,0,1,,,,,,,,,,,,,
666b2c697befa9c75aa3e43f,TCR,2024-06-24_22h36.21.347,LearnStrategy,2023.2.3,Win32,60.24096386,6,1,13,0.063802083,-0.001302083,1,0,0,0.9086,rock_grid_rect_2,1,14,-1,-1,0.909,-0.385416667,-0.231770833,1,0,0,1.2064,Andesite_rect,1,1.206,1,12,0,12,0,1,,,,,,,,,,,,,
666b2c697befa9c75aa3e43f,TCR,2024-06-24_22h36.21.347,LearnStrategy,2023.2.3,Win32,60.24096386,6,1,14,-0.06640625,-0.006510417,1,0,0,0.6929,rock_grid_rect_2,4,12,-1,-1,0.693,0.170572917,-0.2421875,1,0,0,1.3473,Diorite_rect,3,1.347,0,13,0,13,0,1,,,,,,,,,,,,,
666b2c697befa9c75aa3e43f,TCR,2024-06-24_22h36.21.347,LearnStrategy,2023.2.3,Win32,60.24096386,6,1,15,0.096354167,-0.013020833,1,0,0,0.6138,rock_grid_rect_2,3,12,-1,-1,0.614,0.334635417,-0.2578125,1,0,0,4.8691,Gabbro_rect,4,4.869,0,14,0,14,0,1,,,,,,,,,,,,,
666b2c697befa9c75aa3e43f,TCR,2024-06-24_22h36.21.347,LearnStrategy,2023.2.3,Win32,60.24096386,6,1,16,0.173177083,-0.005208333,1,0,0,0.7595,rock_grid_rect_2,1,09,-1,-1,0.76,-0.377604167,-0.243489583,1,0,0,2.5134,Andesite_rect,1,2.513,1,15,0,15,0,1,,,,,,,,,,,,,
666b2c697befa9c75aa3e43f,TCR,2024-06-24_22h36.21.347,LearnStrategy,2023.2.3,Win32,60.24096386,6,2,1,,,,,,,,5,08,,,,,,,,,,,5,2.043,1,,,,,,-0.447916667,-0.421875,1,0,0,2.0425,Obsidian_rect,0,0,0,0,1,
666b2c697befa9c75aa3e43f,TCR,2024-06-24_22h36.21.347,LearnStrategy,2023.2.3,Win32,60.24096386,6,2,2,,,,,,,,4,08,,,,,,,,,,,2,1.057,0,,,,,,-0.109375,-0.266927083,1,0,0,1.0565,Basalt_rect,1,0,1,0,1,
666b2c697befa9c75aa3e43f,TCR,2024-06-24_22h36.21.347,LearnStrategy,2023.2.3,Win32,60.24096386,6,2,3,,,,,,,,7,13,,,,,,,,,,,6,1.142,0,,,,,,-0.0234375,-0.40625,1,0,0,1.1421,Pegmatite_rect,2,0,2,0,1,
666b2c697befa9c75aa3e43f,TCR,2024-06-24_22h36.21.347,LearnStrategy,2023.2.3,Win32,60.24096386,6,2,4,,,,,,,,8,15,,,,,,,,,,,8,1.262,1,,,,,,0.450520833,-0.401041667,1,0,0,1.2624,Pumice_rect,3,0,3,0,1,
666b2c697befa9c75aa3e43f,TCR,2024-06-24_22h36.21.347,LearnStrategy,2023.2.3,Win32,60.24096386,6,2,5,,,,,,,,5,14,,,,,,,,,,,5,1.07,1,,,,,,-0.4140625,-0.420572917,1,0,0,1.0703,Obsidian_rect,4,0,4,0,1,
666b2c697befa9c75aa3e43f,TCR,2024-06-24_22h36.21.347,LearnStrategy,2023.2.3,Win32,60.24096386,6,2,6,,,,,,,,2,06,,,,,,,,,,,1,1.093,0,,,,,,-0.415364583,-0.239583333,1,0,0,1.0929,Andesite_rect,5,0,5,0,1,
666b2c697befa9c75aa3e43f,TCR,2024-06-24_22h36.21.347,LearnStrategy,2023.2.3,Win32,60.24096386,6,2,7,,,,,,,,4,01,,,,,,,,,,,3,0.63,0,,,,,,0.12109375,-0.256510417,1,0,0,0.63,Diorite_rect,6,0,6,0,1,
666b2c697befa9c75aa3e43f,TCR,2024-06-24_22h36.21.347,LearnStrategy,2023.2.3,Win32,60.24096386,6,2,8,,,,,,,,1,01,,,,,,,,,,,4,1.059,0,,,,,,0.346354167,-0.265625,1,0,0,1.0594,Gabbro_rect,7,0,7,0,1,
666b2c697befa9c75aa3e43f,TCR,2024-06-24_22h36.21.347,LearnStrategy,2023.2.3,Win32,60.24096386,6,2,9,,,,,,,,1,06,,,,,,,,,,,1,1.686,1,,,,,,-0.330729167,-0.251302083,1,0,0,1.6857,Andesite_rect,8,0,8,0,1,
666b2c697befa9c75aa3e43f,TCR,2024-06-24_22h36.21.347,LearnStrategy,2023.2.3,Win32,60.24096386,6,2,10,,,,,,,,2,09,,,,,,,,,,,1,0.969,0,,,,,,-0.337239583,-0.235677083,1,0,0,0.9694,Andesite_rect,9,0,9,0,1,
666b2c697befa9c75aa3e43f,TCR,2024-06-24_22h36.21.347,LearnStrategy,2023.2.3,Win32,60.24096386,6,2,11,,,,,,,,8,06,,,,,,,,,,,8,1.368,1,,,,,,0.4453125,-0.389322917,1,0,0,1.3679,Pumice_rect,10,0,10,0,1,
666b2c697befa9c75aa3e43f,TCR,2024-06-24_22h36.21.347,LearnStrategy,2023.2.3,Win32,60.24096386,6,2,12,,,,,,,,3,02,,,,,,,,,,,2,0.845,0,,,,,,-0.10546875,-0.270833333,1,0,0,0.8448,Basalt_rect,11,0,11,0,1,
666b2c697befa9c75aa3e43f,TCR,2024-06-24_22h36.21.347,LearnStrategy,2023.2.3,Win32,60.24096386,6,2,13,,,,,,,,7,16,,,,,,,,,,,6,1.523,0,,,,,,-0.157552083,-0.40234375,1,0,0,1.5232,Pegmatite_rect,12,0,12,0,1,
666b2c697befa9c75aa3e43f,TCR,2024-06-24_22h36.21.347,LearnStrategy,2023.2.3,Win32,60.24096386,6,2,14,,,,,,,,6,11,,,,,,,,,,,6,1.122,1,,,,,,-0.141927083,-0.390625,1,0,0,1.1221,Pegmatite_rect,13,0,13,0,1,
666b2c697befa9c75aa3e43f,TCR,2024-06-24_22h36.21.347,LearnStrategy,2023.2.3,Win32,60.24096386,6,2,15,,,,,,,,3,07,,,,,,,,,,,2,1.197,0,,,,,,-0.075520833,-0.268229167,1,0,0,1.1965,Basalt_rect,14,0,14,0,1,
666b2c697befa9c75aa3e43f,TCR,2024-06-24_22h36.21.347,LearnStrategy,2023.2.3,Win32,60.24096386,6,2,16,,,,,,,,6,03,,,,,,,,,,,7,1.428,0,,,,,,0.13671875,-0.397135417,1,0,0,1.4282,Peridotite_rect,15,0,15,0,1,
666b2c697befa9c75aa3e43f,TCR,2024-06-24_22h36.21.347,LearnStrategy,2023.2.3,Win32,60.24096386,7,1,1,0.143229167,0.01171875,1,0,0,7.3197,rock_grid_rect_2,8,16,-1,-1,7.32,0.40625,-0.40234375,1,0,0,1.6813,Pumice_rect,8,1.681,1,0,0,0,0,1,,,,,,,,,,,,,
666b2c697befa9c75aa3e43f,TCR,2024-06-24_22h36.21.347,LearnStrategy,2023.2.3,Win32,60.24096386,7,1,2,0.009114583,-0.00390625,1,0,0,1.3826,rock_grid_rect_2,7,04,-1,-1,1.383,-0.1328125,-0.24609375,1,0,0,1.4356,Basalt_rect,2,1.436,0,1,0,1,0,1,,,,,,,,,,,,,
666b2c697befa9c75aa3e43f,TCR,2024-06-24_22h36.21.347,LearnStrategy,2023.2.3,Win32,60.24096386,7,1,3,-0.010416667,-0.010416667,1,0,0,0.9429,rock_grid_rect_2,4,12,-1,-1,0.943,-0.317708333,-0.248697917,1,0,0,0.84,Andesite_rect,1,0.84,0,2,0,2,0,1,,,,,,,,,,,,,
666b2c697befa9c75aa3e43f,TCR,2024-06-24_22h36.21.347,LearnStrategy,2023.2.3,Win32,60.24096386,7,1,4,0.072916667,0,1,0,0,0.793,rock_grid_rect_2,2,05,-1,-1,0.793,0.17578125,-0.233072917,1,0,0,1.1525,Diorite_rect,3,1.152,0,3,0,3,0,1,,,,,,,,,,,,,
666b2c697befa9c75aa3e43f,TCR,2024-06-24_22h36.21.347,LearnStrategy,2023.2.3,Win32,60.24096386,7,1,5,-0.002604167,-0.01171875,1,0,0,0.6085,rock_grid_rect_2,1,07,-1,-1,0.608,-0.127604167,-0.2578125,1,0,0,1.5051,Basalt_rect,2,1.505,0,4,0,4,0,1,,,,,,,,,,,,,
666b2c697befa9c75aa3e43f,TCR,2024-06-24_22h36.21.347,LearnStrategy,2023.2.3,Win32,60.24096386,7,1,6,0.072916667,0.002604167,1,0,0,0.7691,rock_grid_rect_2,6,10,-1,-1,0.769,-0.098958333,-0.407552083,1,0,0,1.0295,Pegmatite_rect,6,1.03,1,5,0,5,0,1,,,,,,,,,,,,,
666b2c697befa9c75aa3e43f,TCR,2024-06-24_22h36.21.347,LearnStrategy,2023.2.3,Win32,60.24096386,7,1,7,0.020833333,0.014322917,1,0,0,0.6044,rock_grid_rect_2,1,10,-1,-1,0.604,0.35546875,-0.40625,1,0,0,1.7862,Pumice_rect,8,1.786,0,6,0,6,0,1,,,,,,,,,,,,,
666b2c697befa9c75aa3e43f,TCR,2024-06-24_22h36.21.347,LearnStrategy,2023.2.3,Win32,60.24096386,7,1,8,-0.018229167,0.009114583,1,0,0,0.6252,rock_grid_rect_2,4,05,-1,-1,0.625,-0.348958333,-0.255208333,1,0,0,0.7562,Andesite_rect,1,0.756,0,7,0,7,0,1,,,,,,,,,,,,,
666b2c697befa9c75aa3e43f,TCR,2024-06-24_22h36.21.347,LearnStrategy,2023.2.3,Win32,60.24096386,7,1,9,0.141927083,0.006510417,1,0,0,0.6595,rock_grid_rect_2,7,14,-1,-1,0.659,0.141927083,-0.256510417,1,0,0,2.1099,Diorite_rect,3,2.11,0,8,0,8,0,1,,,,,,,,,,,,,
666b2c697befa9c75aa3e43f,TCR,2024-06-24_22h36.21.347,LearnStrategy,2023.2.3,Win32,60.24096386,7,1,10,0.059895833,0.001302083,1,0,0,0.5915,rock_grid_rect_2,7,06,-1,-1,0.591,-0.098958333,-0.393229167,1,0,0,1.0785,Pegmatite_rect,6,1.079,0,9,0,9,0,1,,,,,,,,,,,,,
666b2c697befa9c75aa3e43f,TCR,2024-06-24_22h36.21.347,LearnStrategy,2023.2.3,Win32,60.24096386,7,1,11,0.109375,-0.00390625,1,0,0,0.5774,rock_grid_rect_2,6,08,-1,-1,0.577,-0.170572917,-0.408854167,1,0,0,3.6269,Pegmatite_rect,6,3.627,1,10,0,10,0,1,,,,,,,,,,,,,
666b2c697befa9c75aa3e43f,TCR,2024-06-24_22h36.21.347,LearnStrategy,2023.2.3,Win32,60.24096386,7,1,12,0.033854167,-0.01171875,1,0,0,0.6963,rock_grid_rect_2,3,08,-1,-1,0.696,0.06640625,-0.37890625,1,0,0,1.0668,Peridotite_rect,7,1.067,0,11,0,11,0,1,,,,,,,,,,,,,
666b2c697befa9c75aa3e43f,TCR,2024-06-24_22h36.21.347,LearnStrategy,2023.2.3,Win32,60.24096386,7,1,13,0.084635417,0,1,0,0,1.6433,rock_grid_rect_2,3,14,-1,-1,1.643,0.21484375,-0.26171875,1,0,0,0.8453,Diorite_rect,3,0.845,1,12,0,12,0,1,,,,,,,,,,,,,
666b2c697befa9c75aa3e43f,TCR,2024-06-24_22h36.21.347,LearnStrategy,2023.2.3,Win32,60.24096386,7,1,14,0.02734375,0.00390625,1,0,0,0.6935,rock_grid_rect_2,4,13,-1,-1,0.694,-0.299479167,-0.23828125,1,0,0,1.4598,Andesite_rect,1,1.46,0,13,0,13,0,1,,,,,,,,,,,,,
666b2c697befa9c75aa3e43f,TCR,2024-06-24_22h36.21.347,LearnStrategy,2023.2.3,Win32,60.24096386,7,1,15,0.00390625,0.006510417,1,0,0,0.6443,rock_grid_rect_2,2,11,-1,-1,0.644,0.096354167,-0.388020833,1,0,0,2.8752,Peridotite_rect,7,2.875,0,14,0,14,0,1,,,,,,,,,,,,,
666b2c697befa9c75aa3e43f,TCR,2024-06-24_22h36.21.347,LearnStrategy,2023.2.3,Win32,60.24096386,7,1,16,0.19921875,-0.009114583,1,0,0,0.8755,rock_grid_rect_2,2,12,-1,-1,0.875,-0.108072917,-0.265625,1,0,0,1.7486,Basalt_rect,2,1.749,1,15,0,15,0,1,,,,,,,,,,,,,
666b2c697befa9c75aa3e43f,TCR,2024-06-24_22h36.21.347,LearnStrategy,2023.2.3,Win32,60.24096386,7,2,1,,,,,,,,5,05,,,,,,,,,,,5,1.089,1,,,,,,-0.337239583,-0.393229167,1,0,0,1.0895,Obsidian_rect,0,0,0,0,1,
666b2c697befa9c75aa3e43f,TCR,2024-06-24_22h36.21.347,LearnStrategy,2023.2.3,Win32,60.24096386,7,2,2,,,,,,,,3,09,,,,,,,,,,,3,1.29,1,,,,,,0.03125,-0.259114583,1,0,0,1.2903,Diorite_rect,1,0,1,0,1,
666b2c697befa9c75aa3e43f,TCR,2024-06-24_22h36.21.347,LearnStrategy,2023.2.3,Win32,60.24096386,7,2,3,,,,,,,,8,06,,,,,,,,,,,8,1.012,1,,,,,,0.434895833,-0.401041667,1,0,0,1.0123,Pumice_rect,2,0,2,0,1,
666b2c697befa9c75aa3e43f,TCR,2024-06-24_22h36.21.347,LearnStrategy,2023.2.3,Win32,60.24096386,7,2,4,,,,,,,,7,16,,,,,,,,,,,2,2.704,0,,,,,,-0.095052083,-0.248697917,1,0,0,2.7037,Basalt_rect,3,0,3,0,1,
666b2c697befa9c75aa3e43f,TCR,2024-06-24_22h36.21.347,LearnStrategy,2023.2.3,Win32,60.24096386,7,2,5,,,,,,,,2,06,,,,,,,,,,,3,0.637,0,,,,,,0.123697917,-0.255208333,1,0,0,0.6374,Diorite_rect,4,0,4,0,1,
666b2c697befa9c75aa3e43f,TCR,2024-06-24_22h36.21.347,LearnStrategy,2023.2.3,Win32,60.24096386,7,2,6,,,,,,,,4,11,,,,,,,,,,,1,1.387,0,,,,,,-0.389322917,-0.234375,1,0,0,1.3871,Andesite_rect,5,0,5,0,1,
666b2c697befa9c75aa3e43f,TCR,2024-06-24_22h36.21.347,LearnStrategy,2023.2.3,Win32,60.24096386,7,2,7,,,,,,,,4,01,,,,,,,,,,,4,0.814,1,,,,,,0.345052083,-0.252604167,1,0,0,0.8139,Gabbro_rect,6,0,6,0,1,
666b2c697befa9c75aa3e43f,TCR,2024-06-24_22h36.21.347,LearnStrategy,2023.2.3,Win32,60.24096386,7,2,8,,,,,,,,6,07,,,,,,,,,,,6,1.447,1,,,,,,-0.11328125,-0.3828125,1,0,0,1.4474,Pegmatite_rect,7,0,7,0,1,
666b2c697befa9c75aa3e43f,TCR,2024-06-24_22h36.21.347,LearnStrategy,2023.2.3,Win32,60.24096386,7,2,9,,,,,,,,1,04,,,,,,,,,,,7,0.802,0,,,,,,0.041666667,-0.401041667,1,0,0,0.8019,Peridotite_rect,8,0,8,0,1,
666b2c697befa9c75aa3e43f,TCR,2024-06-24_22h36.21.347,LearnStrategy,2023.2.3,Win32,60.24096386,7,2,10,,,,,,,,5,16,,,,,,,,,,,5,0.894,1,,,,,,-0.415364583,-0.403645833,1,0,0,0.8939,Obsidian_rect,9,0,9,0,1,
666b2c697befa9c75aa3e43f,TCR,2024-06-24_22h36.21.347,LearnStrategy,2023.2.3,Win32,60.24096386,7,2,11,,,,,,,,1,06,,,,,,,,,,,6,0.724,0,,,,,,-0.154947917,-0.384114583,1,0,0,0.7237,Pegmatite_rect,10,0,10,0,1,
666b2c697befa9c75aa3e43f,TCR,2024-06-24_22h36.21.347,LearnStrategy,2023.2.3,Win32,60.24096386,7,2,12,,,,,,,,2,04,,,,,,,,,,,1,0.771,0,,,,,,-0.337239583,-0.270833333,1,0,0,0.7711,Andesite_rect,11,0,11,0,1,
666b2c697befa9c75aa3e43f,TCR,2024-06-24_22h36.21.347,LearnStrategy,2023.2.3,Win32,60.24096386,7,2,13,,,,,,,,6,13,,,,,,,,,,,7,1.124,0,,,,,,0.069010417,-0.390625,1,0,0,1.1235,Peridotite_rect,12,0,12,0,1,
666b2c697befa9c75aa3e43f,TCR,2024-06-24_22h36.21.347,LearnStrategy,2023.2.3,Win32,60.24096386,7,2,14,,,,,,,,8,05,,,,,,,,,,,8,1.796,1,,,,,,0.3671875,-0.4140625,1,0,0,1.7964,Pumice_rect,13,0,13,0,1,
666b2c697befa9c75aa3e43f,TCR,2024-06-24_22h36.21.347,LearnStrategy,2023.2.3,Win32,60.24096386,7,2,15,,,,,,,,3,06,,,,,,,,,,,2,0.832,0,,,,,,-0.118489583,-0.2578125,1,0,0,0.8325,Basalt_rect,14,0,14,0,1,
666b2c697befa9c75aa3e43f,TCR,2024-06-24_22h36.21.347,LearnStrategy,2023.2.3,Win32,60.24096386,7,2,16,,,,,,,,7,12,,,,,,,,,,,6,1.538,0,,,,,,-0.104166667,-0.395833333,1,0,0,1.5376,Pegmatite_rect,15,0,15,0,1,
666b2c697befa9c75aa3e43f,TCR,2024-06-24_22h36.21.347,LearnStrategy,2023.2.3,Win32,60.24096386,8,1,1,-0.0078125,-0.00390625,1,0,0,1.6351,rock_grid_rect_2,6,15,-1,-1,1.635,-0.153645833,-0.39453125,1,0,0,1.5344,Pegmatite_rect,6,1.534,1,0,0,0,0,1,,,,,,,,,,,,,
666b2c697befa9c75aa3e43f,TCR,2024-06-24_22h36.21.347,LearnStrategy,2023.2.3,Win32,60.24096386,8,1,2,-0.018229167,0.01953125,1,0,0,1.4748,rock_grid_rect_2,7,06,-1,-1,1.475,0.10546875,-0.25390625,1,0,0,1.1212,Diorite_rect,3,1.121,0,1,0,1,0,1,,,,,,,,,,,,,
666b2c697befa9c75aa3e43f,TCR,2024-06-24_22h36.21.347,LearnStrategy,2023.2.3,Win32,60.24096386,8,1,3,0.131510417,0,1,0,0,0.7783,rock_grid_rect_2,6,05,-1,-1,0.778,0.3203125,-0.248697917,1,0,0,1.3407,Gabbro_rect,4,1.341,0,2,0,2,0,1,,,,,,,,,,,,,
666b2c697befa9c75aa3e43f,TCR,2024-06-24_22h36.21.347,LearnStrategy,2023.2.3,Win32,60.24096386,8,1,4,0.119791667,-0.010416667,1,0,0,0.6917,rock_grid_rect_2,2,05,-1,-1,0.692,-0.08984375,-0.24609375,1,0,0,1.8997,Basalt_rect,2,1.9,1,3,0,3,0,1,,,,,,,,,,,,,
666b2c697befa9c75aa3e43f,TCR,2024-06-24_22h36.21.347,LearnStrategy,2023.2.3,Win32,60.24096386,8,1,5,0.0234375,0.005208333,1,0,0,0.6455,rock_grid_rect_2,3,10,-1,-1,0.645,-0.385416667,-0.268229167,1,0,0,1.3155,Andesite_rect,1,1.315,0,4,0,4,0,1,,,,,,,,,,,,,
666b2c697befa9c75aa3e43f,TCR,2024-06-24_22h36.21.347,LearnStrategy,2023.2.3,Win32,60.24096386,8,1,6,0.009114583,-0.00390625,1,0,0,1.1136,rock_grid_rect_2,3,14,-1,-1,1.114,0.114583333,-0.243489583,1,0,0,1.0114,Diorite_rect,3,1.011,1,5,0,5,0,1,,,,,,,,,,,,,
666b2c697befa9c75aa3e43f,TCR,2024-06-24_22h36.21.347,LearnStrategy,2023.2.3,Win32,60.24096386,8,1,7,-0.01171875,0.009114583,1,0,0,0.5641,rock_grid_rect_2,1,09,-1,-1,0.564,0.330729167,-0.268229167,1,0,0,1.7854,Gabbro_rect,4,1.785,0,6,0,6,0,1,,,,,,,,,,,,,
666b2c697befa9c75aa3e43f,TCR,2024-06-24_22h36.21.347,LearnStrategy,2023.2.3,Win32,60.24096386,8,1,8,0.072916667,0.022135417,1,0,0,0.6145,rock_grid_rect_2,1,07,-1,-1,0.615,-0.31640625,-0.256510417,1,0,0,0.9703,Andesite_rect,1,0.97,1,7,0,7,0,1,,,,,,,,,,,,,
666b2c697befa9c75aa3e43f,TCR,2024-06-24_22h36.21.347,LearnStrategy,2023.2.3,Win32,60.24096386,8,1,9,0.053385417,-0.01171875,1,0,0,0.828,rock_grid_rect_2,2,01,-1,-1,0.828,-0.108072917,-0.270833333,1,0,0,1.9238,Basalt_rect,2,1.924,1,8,0,8,0,1,,,,,,,,,,,,,
666b2c697befa9c75aa3e43f,TCR,2024-06-24_22h36.21.347,LearnStrategy,2023.2.3,Win32,60.24096386,8,1,10,0.071614583,0.009114583,1,0,0,1.01,rock_grid_rect_2,2,16,-1,-1,1.01,-0.091145833,-0.239583333,1,0,0,0.7892,Basalt_rect,2,0.789,1,9,0,9,0,1,,,,,,,,,,,,,
666b2c697befa9c75aa3e43f,TCR,2024-06-24_22h36.21.347,LearnStrategy,2023.2.3,Win32,60.24096386,8,1,11,0.044270833,-0.001302083,1,0,0,0.9423,rock_grid_rect_2,7,04,-1,-1,0.942,0.153645833,-0.388020833,1,0,0,1.4672,Peridotite_rect,7,1.467,1,10,0,10,0,1,,,,,,,,,,,,,
666b2c697befa9c75aa3e43f,TCR,2024-06-24_22h36.21.347,LearnStrategy,2023.2.3,Win32,60.24096386,8,1,12,0.118489583,0.006510417,1,0,0,0.7921,rock_grid_rect_2,1,07,-1,-1,0.792,0.154947917,-0.39453125,1,0,0,1.0091,Peridotite_rect,7,1.009,0,11,0,11,0,1,,,,,,,,,,,,,
666b2c697befa9c75aa3e43f,TCR,2024-06-24_22h36.21.347,LearnStrategy,2023.2.3,Win32,60.24096386,8,1,13,0.126302083,-0.024739583,1,0,0,0.9592,rock_grid_rect_2,7,14,-1,-1,0.959,-0.313802083,-0.231770833,1,0,0,0.975,Andesite_rect,1,0.975,0,12,0,12,0,1,,,,,,,,,,,,,
666b2c697befa9c75aa3e43f,TCR,2024-06-24_22h36.21.347,LearnStrategy,2023.2.3,Win32,60.24096386,8,1,14,0.157552083,-0.014322917,1,0,0,1.127,rock_grid_rect_2,4,10,-1,-1,1.127,0.11328125,-0.380208333,1,0,0,1.0777,Peridotite_rect,7,1.078,0,13,0,13,0,1,,,,,,,,,,,,,
666b2c697befa9c75aa3e43f,TCR,2024-06-24_22h36.21.347,LearnStrategy,2023.2.3,Win32,60.24096386,8,1,15,0.147135417,-0.01171875,1,0,0,0.6258,rock_grid_rect_2,8,02,-1,-1,0.626,0.380208333,-0.3828125,1,0,0,1.5578,Pumice_rect,8,1.558,1,14,0,14,0,1,,,,,,,,,,,,,
666b2c697befa9c75aa3e43f,TCR,2024-06-24_22h36.21.347,LearnStrategy,2023.2.3,Win32,60.24096386,8,1,16,0.186197917,0,1,0,0,0.7933,rock_grid_rect_2,4,13,-1,-1,0.793,0.158854167,-0.266927083,1,0,0,2.1919,Diorite_rect,3,2.192,0,15,0,15,0,1,,,,,,,,,,,,,
666b2c697befa9c75aa3e43f,TCR,2024-06-24_22h36.21.347,LearnStrategy,2023.2.3,Win32,60.24096386,8,2,1,,,,,,,,1,11,,,,,,,,,,,2,2.283,0,,,,,,-0.174479167,-0.23828125,1,0,0,2.2828,Basalt_rect,0,0,0,0,1,
666b2c697befa9c75aa3e43f,TCR,2024-06-24_22h36.21.347,LearnStrategy,2023.2.3,Win32,60.24096386,8,2,2,,,,,,,,8,10,,,,,,,,,,,8,1.373,1,,,,,,0.421875,-0.401041667,1,0,0,1.373,Pumice_rect,1,0,1,0,1,
666b2c697befa9c75aa3e43f,TCR,2024-06-24_22h36.21.347,LearnStrategy,2023.2.3,Win32,60.24096386,8,2,3,,,,,,,,8,03,,,,,,,,,,,8,1.127,1,,,,,,0.36328125,-0.41796875,1,0,0,1.1268,Pumice_rect,2,0,2,0,1,
666b2c697befa9c75aa3e43f,TCR,2024-06-24_22h36.21.347,LearnStrategy,2023.2.3,Win32,60.24096386,8,2,4,,,,,,,,3,02,,,,,,,,,,,1,2.163,0,,,,,,-0.307291667,-0.26171875,1,0,0,2.1633,Andesite_rect,3,0,3,0,1,
666b2c697befa9c75aa3e43f,TCR,2024-06-24_22h36.21.347,LearnStrategy,2023.2.3,Win32,60.24096386,8,2,5,,,,,,,,7,05,,,,,,,,,,,3,1.054,0,,,,,,0.102864583,-0.244791667,1,0,0,1.0544,Diorite_rect,4,0,4,0,1,
666b2c697befa9c75aa3e43f,TCR,2024-06-24_22h36.21.347,LearnStrategy,2023.2.3,Win32,60.24096386,8,2,6,,,,,,,,7,13,,,,,,,,,,,7,1.539,1,,,,,,0.115885417,-0.408854167,1,0,0,1.5386,Peridotite_rect,5,0,5,0,1,
666b2c697befa9c75aa3e43f,TCR,2024-06-24_22h36.21.347,LearnStrategy,2023.2.3,Win32,60.24096386,8,2,7,,,,,,,,4,03,,,,,,,,,,,1,1.537,0,,,,,,-0.369791667,-0.23828125,1,0,0,1.5372,Andesite_rect,6,0,6,0,1,
666b2c697befa9c75aa3e43f,TCR,2024-06-24_22h36.21.347,LearnStrategy,2023.2.3,Win32,60.24096386,8,2,8,,,,,,,,2,14,,,,,,,,,,,4,2.341,0,,,,,,0.385416667,-0.270833333,1,0,0,2.3406,Gabbro_rect,7,0,7,0,1,
666b2c697befa9c75aa3e43f,TCR,2024-06-24_22h36.21.347,LearnStrategy,2023.2.3,Win32,60.24096386,8,2,9,,,,,,,,3,15,,,,,,,,,,,7,1.489,0,,,,,,0.05859375,-0.4140625,1,0,0,1.4895,Peridotite_rect,8,0,8,0,1,
666b2c697befa9c75aa3e43f,TCR,2024-06-24_22h36.21.347,LearnStrategy,2023.2.3,Win32,60.24096386,8,2,10,,,,,,,,6,09,,,,,,,,,,,6,1.083,1,,,,,,-0.125,-0.403645833,1,0,0,1.0832,Pegmatite_rect,9,0,9,0,1,
666b2c697befa9c75aa3e43f,TCR,2024-06-24_22h36.21.347,LearnStrategy,2023.2.3,Win32,60.24096386,8,2,11,,,,,,,,6,03,,,,,,,,,,,7,0.757,0,,,,,,0.09375,-0.37890625,1,0,0,0.7569,Peridotite_rect,10,0,10,0,1,
666b2c697befa9c75aa3e43f,TCR,2024-06-24_22h36.21.347,LearnStrategy,2023.2.3,Win32,60.24096386,8,2,12,,,,,,,,5,07,,,,,,,,,,,5,1.082,1,,,,,,-0.309895833,-0.395833333,1,0,0,1.0817,Obsidian_rect,11,0,11,0,1,
666b2c697befa9c75aa3e43f,TCR,2024-06-24_22h36.21.347,LearnStrategy,2023.2.3,Win32,60.24096386,8,2,13,,,,,,,,4,08,,,,,,,,,,,4,1.444,1,,,,,,0.359375,-0.260416667,1,0,0,1.4443,Gabbro_rect,12,0,12,0,1,
666b2c697befa9c75aa3e43f,TCR,2024-06-24_22h36.21.347,LearnStrategy,2023.2.3,Win32,60.24096386,8,2,14,,,,,,,,5,14,,,,,,,,,,,5,1.291,1,,,,,,-0.376302083,-0.412760417,1,0,0,1.2913,Obsidian_rect,13,0,13,0,1,
666b2c697befa9c75aa3e43f,TCR,2024-06-24_22h36.21.347,LearnStrategy,2023.2.3,Win32,60.24096386,8,2,15,,,,,,,,2,09,,,,,,,,,,,1,2.191,0,,,,,,-0.361979167,-0.23828125,1,0,0,2.1911,Andesite_rect,14,0,14,0,1,
666b2c697befa9c75aa3e43f,TCR,2024-06-24_22h36.21.347,LearnStrategy,2023.2.3,Win32,60.24096386,8,2,16,,,,,,,,1,01,,,,,,,,,,,3,1.84,0,,,,,,0.15625,-0.255208333,1,0,0,1.8399,Diorite_rect,15,0,15,0,1,
666b2c697befa9c75aa3e43f,TCR,2024-06-24_22h36.21.347,LearnStrategy,2023.2.3,Win32,60.24096386,9,1,1,-0.084635417,-0.006510417,1,0,0,1.1946,rock_grid_rect_2,4,16,-1,-1,1.195,-0.329427083,-0.24609375,1,0,0,0.8817,Andesite_rect,1,0.882,0,0,0,0,0,1,,,,,,,,,,,,,
666b2c697befa9c75aa3e43f,TCR,2024-06-24_22h36.21.347,LearnStrategy,2023.2.3,Win32,60.24096386,9,1,2,0.0625,-0.01171875,1,0,0,1.0295,rock_grid_rect_2,3,10,-1,-1,1.03,0.100260417,-0.23828125,1,0,0,0.5778,Diorite_rect,3,0.578,1,1,0,1,0,1,,,,,,,,,,,,,
666b2c697befa9c75aa3e43f,TCR,2024-06-24_22h36.21.347,LearnStrategy,2023.2.3,Win32,60.24096386,9,1,3,-0.02734375,-0.020833333,1,0,0,0.6758,rock_grid_rect_2,2,16,-1,-1,0.676,0.140625,-0.25390625,1,0,0,0.4924,Diorite_rect,3,0.492,0,2,0,2,0,1,,,,,,,,,,,,,
666b2c697befa9c75aa3e43f,TCR,2024-06-24_22h36.21.347,LearnStrategy,2023.2.3,Win32,60.24096386,9,1,4,-0.07421875,0,1,0,0,0.9943,rock_grid_rect_2,1,14,-1,-1,0.994,0.044270833,-0.380208333,1,0,0,1.6797,Peridotite_rect,7,1.68,0,3,0,3,0,1,,,,,,,,,,,,,
666b2c697befa9c75aa3e43f,TCR,2024-06-24_22h36.21.347,LearnStrategy,2023.2.3,Win32,60.24096386,9,1,5,-0.119791667,-0.002604167,1,0,0,0.8095,rock_grid_rect_2,3,12,-1,-1,0.81,-0.377604167,-0.270833333,1,0,0,1.1841,Andesite_rect,1,1.184,0,4,0,4,0,1,,,,,,,,,,,,,
666b2c697befa9c75aa3e43f,TCR,2024-06-24_22h36.21.347,LearnStrategy,2023.2.3,Win32,60.24096386,9,1,6,-0.01171875,0.005208333,1,0,0,0.8264,rock_grid_rect_2,4,15,-1,-1,0.826,0.32421875,-0.247395833,1,0,0,2.8089,Gabbro_rect,4,2.809,1,5,0,5,0,1,,,,,,,,,,,,,
666b2c697befa9c75aa3e43f,TCR,2024-06-24_22h36.21.347,LearnStrategy,2023.2.3,Win32,60.24096386,9,1,7,0.11328125,-0.013020833,1,0,0,0.8097,rock_grid_rect_2,1,14,-1,-1,0.81,0.337239583,-0.23046875,1,0,0,1.1436,Gabbro_rect,4,1.144,0,6,0,6,0,1,,,,,,,,,,,,,
666b2c697befa9c75aa3e43f,TCR,2024-06-24_22h36.21.347,LearnStrategy,2023.2.3,Win32,60.24096386,9,1,8,-0.033854167,-0.009114583,1,0,0,0.6924,rock_grid_rect_2,7,14,-1,-1,0.692,0.104166667,-0.234375,1,0,0,1.198,Diorite_rect,3,1.198,0,7,0,7,0,1,,,,,,,,,,,,,
666b2c697befa9c75aa3e43f,TCR,2024-06-24_22h36.21.347,LearnStrategy,2023.2.3,Win32,60.24096386,9,1,9,0.087239583,0.005208333,1,0,0,0.9094,rock_grid_rect_2,7,08,-1,-1,0.909,-0.049479167,-0.415364583,1,0,0,1.4365,Pegmatite_rect,6,1.436,0,8,0,8,0,1,,,,,,,,,,,,,
666b2c697befa9c75aa3e43f,TCR,2024-06-24_22h36.21.347,LearnStrategy,2023.2.3,Win32,60.24096386,9,1,10,0.009114583,-0.005208333,1,0,0,0.7608,rock_grid_rect_2,1,14,-1,-1,0.761,0.147135417,-0.389322917,1,0,0,1.3613,Peridotite_rect,7,1.361,0,9,0,9,0,1,,,,,,,,,,,,,
666b2c697befa9c75aa3e43f,TCR,2024-06-24_22h36.21.347,LearnStrategy,2023.2.3,Win32,60.24096386,9,1,11,0.015625,-0.01171875,1,0,0,0.8795,rock_grid_rect_2,6,05,-1,-1,0.88,-0.040364583,-0.39453125,1,0,0,1.6934,Pegmatite_rect,6,1.693,1,10,0,10,0,1,,,,,,,,,,,,,
666b2c697befa9c75aa3e43f,TCR,2024-06-24_22h36.21.347,LearnStrategy,2023.2.3,Win32,60.24096386,9,1,12,0.01953125,0,1,0,0,0.7617,rock_grid_rect_2,7,06,-1,-1,0.762,0.05078125,-0.395833333,1,0,0,1.2171,Peridotite_rect,7,1.217,1,11,0,11,0,1,,,,,,,,,,,,,
666b2c697befa9c75aa3e43f,TCR,2024-06-24_22h36.21.347,LearnStrategy,2023.2.3,Win32,60.24096386,9,1,13,-0.009114583,0.00390625,1,0,0,0.8507,rock_grid_rect_2,3,13,-1,-1,0.851,0.03515625,-0.388020833,1,0,0,1.7174,Peridotite_rect,7,1.717,0,12,0,12,0,1,,,,,,,,,,,,,
666b2c697befa9c75aa3e43f,TCR,2024-06-24_22h36.21.347,LearnStrategy,2023.2.3,Win32,60.24096386,9,1,14,0.020833333,-0.01171875,1,0,0,0.8608,rock_grid_rect_2,6,16,-1,-1,0.861,0.197916667,-0.255208333,1,0,0,1.4809,Diorite_rect,3,1.481,0,13,0,13,0,1,,,,,,,,,,,,,
666b2c697befa9c75aa3e43f,TCR,2024-06-24_22h36.21.347,LearnStrategy,2023.2.3,Win32,60.24096386,9,1,15,0.111979167,0.014322917,1,0,0,0.9642,rock_grid_rect_2,2,01,-1,-1,0.964,-0.12890625,-0.25,1,0,0,2.1652,Basalt_rect,2,2.165,1,14,0,14,0,1,,,,,,,,,,,,,
666b2c697befa9c75aa3e43f,TCR,2024-06-24_22h36.21.347,LearnStrategy,2023.2.3,Win32,60.24096386,9,1,16,-0.059895833,-0.016927083,1,0,0,0.5458,rock_grid_rect_2,2,08,-1,-1,0.546,-0.110677083,-0.233072917,1,0,0,0.942,Basalt_rect,2,0.942,1,15,0,15,0,1,,,,,,,,,,,,,
666b2c697befa9c75aa3e43f,TCR,2024-06-24_22h36.21.347,LearnStrategy,2023.2.3,Win32,60.24096386,9,2,1,,,,,,,,8,15,,,,,,,,,,,8,1.257,1,,,,,,0.41015625,-0.4140625,1,0,0,1.2567,Pumice_rect,0,0,0,0,1,
666b2c697befa9c75aa3e43f,TCR,2024-06-24_22h36.21.347,LearnStrategy,2023.2.3,Win32,60.24096386,9,2,2,,,,,,,,2,02,,,,,,,,,,,2,1.033,1,,,,,,-0.104166667,-0.229166667,1,0,0,1.0333,Basalt_rect,1,0,1,0,1,
666b2c697befa9c75aa3e43f,TCR,2024-06-24_22h36.21.347,LearnStrategy,2023.2.3,Win32,60.24096386,9,2,3,,,,,,,,5,08,,,,,,,,,,,5,1.017,1,,,,,,-0.345052083,-0.41015625,1,0,0,1.0175,Obsidian_rect,2,0,2,0,1,
666b2c697befa9c75aa3e43f,TCR,2024-06-24_22h36.21.347,LearnStrategy,2023.2.3,Win32,60.24096386,9,2,4,,,,,,,,8,13,,,,,,,,,,,8,2.685,1,,,,,,0.436197917,-0.408854167,1,0,0,2.6847,Pumice_rect,3,0,3,0,1,
666b2c697befa9c75aa3e43f,TCR,2024-06-24_22h36.21.347,LearnStrategy,2023.2.3,Win32,60.24096386,9,2,5,,,,,,,,4,09,,,,,,,,,,,3,1.765,0,,,,,,0.102864583,-0.236979167,1,0,0,1.7648,Diorite_rect,4,0,4,0,1,
666b2c697befa9c75aa3e43f,TCR,2024-06-24_22h36.21.347,LearnStrategy,2023.2.3,Win32,60.24096386,9,2,6,,,,,,,,7,02,,,,,,,,,,,7,1.105,1,,,,,,0.04296875,-0.397135417,1,0,0,1.1047,Peridotite_rect,5,0,5,0,1,
666b2c697befa9c75aa3e43f,TCR,2024-06-24_22h36.21.347,LearnStrategy,2023.2.3,Win32,60.24096386,9,2,7,,,,,,,,2,10,,,,,,,,,,,4,1.748,0,,,,,,0.407552083,-0.256510417,1,0,0,1.7479,Gabbro_rect,6,0,6,0,1,
666b2c697befa9c75aa3e43f,TCR,2024-06-24_22h36.21.347,LearnStrategy,2023.2.3,Win32,60.24096386,9,2,8,,,,,,,,1,02,,,,,,,,,,,7,2.224,0,,,,,,0.19921875,-0.401041667,1,0,0,2.2237,Peridotite_rect,7,0,7,0,1,
666b2c697befa9c75aa3e43f,TCR,2024-06-24_22h36.21.347,LearnStrategy,2023.2.3,Win32,60.24096386,9,2,9,,,,,,,,1,05,,,,,,,,,,,2,1.043,0,,,,,,-0.16796875,-0.23046875,1,0,0,1.0425,Basalt_rect,8,0,8,0,1,
666b2c697befa9c75aa3e43f,TCR,2024-06-24_22h36.21.347,LearnStrategy,2023.2.3,Win32,60.24096386,9,2,10,,,,,,,,6,11,,,,,,,,,,,7,0.998,0,,,,,,0.151041667,-0.421875,1,0,0,0.998,Peridotite_rect,9,0,9,0,1,
666b2c697befa9c75aa3e43f,TCR,2024-06-24_22h36.21.347,LearnStrategy,2023.2.3,Win32,60.24096386,9,2,11,,,,,,,,5,02,,,,,,,,,,,5,0.98,1,,,,,,-0.4765625,-0.41015625,1,0,0,0.9799,Obsidian_rect,10,0,10,0,1,
666b2c697befa9c75aa3e43f,TCR,2024-06-24_22h36.21.347,LearnStrategy,2023.2.3,Win32,60.24096386,9,2,12,,,,,,,,4,14,,,,,,,,,,,3,0.942,0,,,,,,0.221354167,-0.244791667,1,0,0,0.9422,Diorite_rect,11,0,11,0,1,
666b2c697befa9c75aa3e43f,TCR,2024-06-24_22h36.21.347,LearnStrategy,2023.2.3,Win32,60.24096386,9,2,13,,,,,,,,6,12,,,,,,,,,,,4,0.693,0,,,,,,0.3515625,-0.247395833,1,0,0,0.6929,Gabbro_rect,12,0,12,0,1,
666b2c697befa9c75aa3e43f,TCR,2024-06-24_22h36.21.347,LearnStrategy,2023.2.3,Win32,60.24096386,9,2,14,,,,,,,,3,16,,,,,,,,,,,7,0.626,0,,,,,,0.06640625,-0.403645833,1,0,0,0.6261,Peridotite_rect,13,0,13,0,1,
666b2c697befa9c75aa3e43f,TCR,2024-06-24_22h36.21.347,LearnStrategy,2023.2.3,Win32,60.24096386,9,2,15,,,,,,,,7,10,,,,,,,,,,,6,1.473,0,,,,,,-0.087239583,-0.393229167,1,0,0,1.4734,Pegmatite_rect,14,0,14,0,1,
666b2c697befa9c75aa3e43f,TCR,2024-06-24_22h36.21.347,LearnStrategy,2023.2.3,Win32,60.24096386,9,2,16,,,,,,,,3,07,,,,,,,,,,,6,0.63,0,,,,,,-0.08203125,-0.384114583,1,0,0,0.6297,Pegmatite_rect,15,0,15,0,1,
666b2c697befa9c75aa3e43f,TCR,2024-06-24_22h36.21.347,LearnStrategy,2023.2.3,Win32,60.24096386,,,,,,,,,,,,,,,,,,,,,,,,,,,,,,,,,,,,,,,,,,,0
666b2c697befa9c75aa3e43f,TCR,2024-06-24_22h36.21.347,LearnStrategy,2023.2.3,Win32,60.24096386,,,,,,,,,,,,,,,,,,,,,,,,,,,,,,,,,,,,,,,,,,,
666b2c697befa9c75aa3e43f,TCR,2024-06-24_22h36.21.347,LearnStrategy,2023.2.3,Win32,60.24096386,,,,,,,,,,,2,12,1,1,,,,,,,,,,,,,,,,,,,,,,,,,,,,,
666b2c697befa9c75aa3e43f,TCR,2024-06-24_22h36.21.347,LearnStrategy,2023.2.3,Win32,60.24096386,,,,,,,,,,,5,06,1,2,,,,,,,,,,,,,,,,,,,,,,,,,,,,,
666b2c697befa9c75aa3e43f,TCR,2024-06-24_22h36.21.347,LearnStrategy,2023.2.3,Win32,60.24096386,,,,,,,,,,,8,09,1,3,,,,,,,,,,,,,,,,,,,,,,,,,,,,,
666b2c697befa9c75aa3e43f,TCR,2024-06-24_22h36.21.347,LearnStrategy,2023.2.3,Win32,60.24096386,,,,,,,,,,,8,14,1,4,,,,,,,,,,,,,,,,,,,,,,,,,,,,,
666b2c697befa9c75aa3e43f,TCR,2024-06-24_22h36.21.347,LearnStrategy,2023.2.3,Win32,60.24096386,,,,,,,,,,,5,12,1,5,,,,,,,,,,,,,,,,,,,,,,,,,,,,,
666b2c697befa9c75aa3e43f,TCR,2024-06-24_22h36.21.347,LearnStrategy,2023.2.3,Win32,60.24096386,,,,,,,,,,,1,10,1,6,,,,,,,,,,,,,,,,,,,,,,,,,,,,,
666b2c697befa9c75aa3e43f,TCR,2024-06-24_22h36.21.347,LearnStrategy,2023.2.3,Win32,60.24096386,,,,,,,,,,,6,16,1,7,,,,,,,,,,,,,,,,,,,,,,,,,,,,,
666b2c697befa9c75aa3e43f,TCR,2024-06-24_22h36.21.347,LearnStrategy,2023.2.3,Win32,60.24096386,,,,,,,,,,,7,07,1,8,,,,,,,,,,,,,,,,,,,,,,,,,,,,,
666b2c697befa9c75aa3e43f,TCR,2024-06-24_22h36.21.347,LearnStrategy,2023.2.3,Win32,60.24096386,,,,,,,,,,,8,16,2,1,,,,,,,,,,,,,,,,,,,,,,,,,,,,,
666b2c697befa9c75aa3e43f,TCR,2024-06-24_22h36.21.347,LearnStrategy,2023.2.3,Win32,60.24096386,,,,,,,,,,,8,04,2,2,,,,,,,,,,,,,,,,,,,,,,,,,,,,,
666b2c697befa9c75aa3e43f,TCR,2024-06-24_22h36.21.347,LearnStrategy,2023.2.3,Win32,60.24096386,,,,,,,,,,,6,05,2,3,,,,,,,,,,,,,,,,,,,,,,,,,,,,,
666b2c697befa9c75aa3e43f,TCR,2024-06-24_22h36.21.347,LearnStrategy,2023.2.3,Win32,60.24096386,,,,,,,,,,,5,11,2,4,,,,,,,,,,,,,,,,,,,,,,,,,,,,,
666b2c697befa9c75aa3e43f,TCR,2024-06-24_22h36.21.347,LearnStrategy,2023.2.3,Win32,60.24096386,,,,,,,,,,,3,12,2,5,,,,,,,,,,,,,,,,,,,,,,,,,,,,,
666b2c697befa9c75aa3e43f,TCR,2024-06-24_22h36.21.347,LearnStrategy,2023.2.3,Win32,60.24096386,,,,,,,,,,,2,08,2,6,,,,,,,,,,,,,,,,,,,,,,,,,,,,,
666b2c697befa9c75aa3e43f,TCR,2024-06-24_22h36.21.347,LearnStrategy,2023.2.3,Win32,60.24096386,,,,,,,,,,,4,15,2,7,,,,,,,,,,,,,,,,,,,,,,,,,,,,,
666b2c697befa9c75aa3e43f,TCR,2024-06-24_22h36.21.347,LearnStrategy,2023.2.3,Win32,60.24096386,,,,,,,,,,,4,05,2,8,,,,,,,,,,,,,,,,,,,,,,,,,,,,,
666b2c697befa9c75aa3e43f,TCR,2024-06-24_22h36.21.347,LearnStrategy,2023.2.3,Win32,60.24096386,,,,,,,,,,,1,03,3,1,,,,,,,,,,,,,,,,,,,,,,,,,,,,,
666b2c697befa9c75aa3e43f,TCR,2024-06-24_22h36.21.347,LearnStrategy,2023.2.3,Win32,60.24096386,,,,,,,,,,,7,14,3,2,,,,,,,,,,,,,,,,,,,,,,,,,,,,,
666b2c697befa9c75aa3e43f,TCR,2024-06-24_22h36.21.347,LearnStrategy,2023.2.3,Win32,60.24096386,,,,,,,,,,,4,10,3,3,,,,,,,,,,,,,,,,,,,,,,,,,,,,,
666b2c697befa9c75aa3e43f,TCR,2024-06-24_22h36.21.347,LearnStrategy,2023.2.3,Win32,60.24096386,,,,,,,,,,,8,02,3,4,,,,,,,,,,,,,,,,,,,,,,,,,,,,,
666b2c697befa9c75aa3e43f,TCR,2024-06-24_22h36.21.347,LearnStrategy,2023.2.3,Win32,60.24096386,,,,,,,,,,,6,15,3,5,,,,,,,,,,,,,,,,,,,,,,,,,,,,,
666b2c697befa9c75aa3e43f,TCR,2024-06-24_22h36.21.347,LearnStrategy,2023.2.3,Win32,60.24096386,,,,,,,,,,,2,05,3,6,,,,,,,,,,,,,,,,,,,,,,,,,,,,,
666b2c697befa9c75aa3e43f,TCR,2024-06-24_22h36.21.347,LearnStrategy,2023.2.3,Win32,60.24096386,,,,,,,,,,,7,15,3,7,,,,,,,,,,,,,,,,,,,,,,,,,,,,,
666b2c697befa9c75aa3e43f,TCR,2024-06-24_22h36.21.347,LearnStrategy,2023.2.3,Win32,60.24096386,,,,,,,,,,,4,13,3,8,,,,,,,,,,,,,,,,,,,,,,,,,,,,,
666b2c697befa9c75aa3e43f,TCR,2024-06-24_22h36.21.347,LearnStrategy,2023.2.3,Win32,60.24096386,,,,,,,,,,,1,14,4,1,,,,,,,,,,,,,,,,,,,,,,,,,,,,,
666b2c697befa9c75aa3e43f,TCR,2024-06-24_22h36.21.347,LearnStrategy,2023.2.3,Win32,60.24096386,,,,,,,,,,,7,06,4,2,,,,,,,,,,,,,,,,,,,,,,,,,,,,,
666b2c697befa9c75aa3e43f,TCR,2024-06-24_22h36.21.347,LearnStrategy,2023.2.3,Win32,60.24096386,,,,,,,,,,,3,13,4,3,,,,,,,,,,,,,,,,,,,,,,,,,,,,,
666b2c697befa9c75aa3e43f,TCR,2024-06-24_22h36.21.347,LearnStrategy,2023.2.3,Win32,60.24096386,,,,,,,,,,,1,07,4,4,,,,,,,,,,,,,,,,,,,,,,,,,,,,,
666b2c697befa9c75aa3e43f,TCR,2024-06-24_22h36.21.347,LearnStrategy,2023.2.3,Win32,60.24096386,,,,,,,,,,,4,16,4,5,,,,,,,,,,,,,,,,,,,,,,,,,,,,,
666b2c697befa9c75aa3e43f,TCR,2024-06-24_22h36.21.347,LearnStrategy,2023.2.3,Win32,60.24096386,,,,,,,,,,,7,04,4,6,,,,,,,,,,,,,,,,,,,,,,,,,,,,,
666b2c697befa9c75aa3e43f,TCR,2024-06-24_22h36.21.347,LearnStrategy,2023.2.3,Win32,60.24096386,,,,,,,,,,,5,04,4,7,,,,,,,,,,,,,,,,,,,,,,,,,,,,,
666b2c697befa9c75aa3e43f,TCR,2024-06-24_22h36.21.347,LearnStrategy,2023.2.3,Win32,60.24096386,,,,,,,,,,,1,09,4,8,,,,,,,,,,,,,,,,,,,,,,,,,,,,,
666b2c697befa9c75aa3e43f,TCR,2024-06-24_22h36.21.347,LearnStrategy,2023.2.3,Win32,60.24096386,,,,,,,,,,,2,16,5,1,,,,,,,,,,,,,,,,,,,,,,,,,,,,,
666b2c697befa9c75aa3e43f,TCR,2024-06-24_22h36.21.347,LearnStrategy,2023.2.3,Win32,60.24096386,,,,,,,,,,,6,08,5,2,,,,,,,,,,,,,,,,,,,,,,,,,,,,,
666b2c697befa9c75aa3e43f,TCR,2024-06-24_22h36.21.347,LearnStrategy,2023.2.3,Win32,60.24096386,,,,,,,,,,,3,10,5,3,,,,,,,,,,,,,,,,,,,,,,,,,,,,,
666b2c697befa9c75aa3e43f,TCR,2024-06-24_22h36.21.347,LearnStrategy,2023.2.3,Win32,60.24096386,,,,,,,,,,,2,11,5,4,,,,,,,,,,,,,,,,,,,,,,,,,,,,,
666b2c697befa9c75aa3e43f,TCR,2024-06-24_22h36.21.347,LearnStrategy,2023.2.3,Win32,60.24096386,,,,,,,,,,,6,06,5,5,,,,,,,,,,,,,,,,,,,,,,,,,,,,,
666b2c697befa9c75aa3e43f,TCR,2024-06-24_22h36.21.347,LearnStrategy,2023.2.3,Win32,60.24096386,,,,,,,,,,,8,08,5,6,,,,,,,,,,,,,,,,,,,,,,,,,,,,,
666b2c697befa9c75aa3e43f,TCR,2024-06-24_22h36.21.347,LearnStrategy,2023.2.3,Win32,60.24096386,,,,,,,,,,,7,08,5,7,,,,,,,,,,,,,,,,,,,,,,,,,,,,,
666b2c697befa9c75aa3e43f,TCR,2024-06-24_22h36.21.347,LearnStrategy,2023.2.3,Win32,60.24096386,,,,,,,,,,,5,10,5,8,,,,,,,,,,,,,,,,,,,,,,,,,,,,,
666b2c697befa9c75aa3e43f,TCR,2024-06-24_22h36.21.347,LearnStrategy,2023.2.3,Win32,60.24096386,,,,,,,,,,,2,01,6,1,,,,,,,,,,,,,,,,,,,,,,,,,,,,,
666b2c697befa9c75aa3e43f,TCR,2024-06-24_22h36.21.347,LearnStrategy,2023.2.3,Win32,60.24096386,,,,,,,,,,,6,10,6,2,,,,,,,,,,,,,,,,,,,,,,,,,,,,,
666b2c697befa9c75aa3e43f,TCR,2024-06-24_22h36.21.347,LearnStrategy,2023.2.3,Win32,60.24096386,,,,,,,,,,,3,11,6,3,,,,,,,,,,,,,,,,,,,,,,,,,,,,,
666b2c697befa9c75aa3e43f,TCR,2024-06-24_22h36.21.347,LearnStrategy,2023.2.3,Win32,60.24096386,,,,,,,,,,,5,09,6,4,,,,,,,,,,,,,,,,,,,,,,,,,,,,,
666b2c697befa9c75aa3e43f,TCR,2024-06-24_22h36.21.347,LearnStrategy,2023.2.3,Win32,60.24096386,,,,,,,,,,,1,16,6,5,,,,,,,,,,,,,,,,,,,,,,,,,,,,,
666b2c697befa9c75aa3e43f,TCR,2024-06-24_22h36.21.347,LearnStrategy,2023.2.3,Win32,60.24096386,,,,,,,,,,,3,14,6,6,,,,,,,,,,,,,,,,,,,,,,,,,,,,,
666b2c697befa9c75aa3e43f,TCR,2024-06-24_22h36.21.347,LearnStrategy,2023.2.3,Win32,60.24096386,,,,,,,,,,,4,12,6,7,,,,,,,,,,,,,,,,,,,,,,,,,,,,,
666b2c697befa9c75aa3e43f,TCR,2024-06-24_22h36.21.347,LearnStrategy,2023.2.3,Win32,60.24096386,,,,,,,,,,,3,08,6,8,,,,,,,,,,,,,,,,,,,,,,,,,,,,,