participant,condition,date,expName,psychopyVersion,OS,frameRate,block,phase,trial,learn_mouse.x,learn_mouse.y,learn_mouse.leftButton,learn_mouse.midButton,learn_mouse.rightButton,learn_mouse.time,learn_mouse.clicked_name,cat,token,row,col,t_select,cat_rec,token_rec,cat_mouse_l.x,cat_mouse_l.y,cat_mouse_l.leftButton,cat_mouse_l.midButton,cat_mouse_l.rightButton,cat_mouse_l.time,cat_mouse_l.clicked_name,resp,t_resp,corr,train_trials.thisRepN,train_trials.thisTrialN,train_trials.thisN,train_trials.thisIndex,train_trials.ran,cat_mouse_t.x,cat_mouse_t.y,cat_mouse_t.leftButton,cat_mouse_t.midButton,cat_mouse_t.rightButton,cat_mouse_t.time,cat_mouse_t.clicked_name,test_trials.thisRepN,test_trials.thisTrialN,test_trials.thisN,test_trials.thisIndex,test_trials.ran,Bonus
666b027ce39d6a0e2eb09d99,SCR,2024-06-20_17h20.07.370,LearnStrategy,2023.2.3,Win32,59.88023952,,,,,,,,,,,,,,,,,,,,,,,,,,,,,,,,,,,,,,,,,,,,,
666b027ce39d6a0e2eb09d99,SCR,2024-06-20_17h20.07.370,LearnStrategy,2023.2.3,Win32,59.88023952,1,1,1,0.219166718,0.3925,1,0,0,7.3969,Obsidian_04,5,04,6,6,7.397,1,11,-0.078333282,-0.239166718,1,0,0,19.6535,Basalt_rect,2,19.654,0,0,0,0,0,1,,,,,,,,,,,,,
666b027ce39d6a0e2eb09d99,SCR,2024-06-20_17h20.07.370,LearnStrategy,2023.2.3,Win32,59.88023952,1,1,2,-0.5325,0.21916666,1,0,0,6.8858,Obsidian_10,5,10,5,1,6.886,7,04,0.1025,-0.251666718,1,0,0,1.2953,Diorite_rect,3,1.295,0,1,0,1,0,1,,,,,,,,,,,,,
666b027ce39d6a0e2eb09d99,SCR,2024-06-20_17h20.07.370,LearnStrategy,2023.2.3,Win32,59.88023952,1,1,3,0.106666718,-0.268333359,1,0,0,5.9789,Pegmatite_10,6,10,2,5,5.979,2,14,-0.348333321,-0.265,1,0,0,3.0201,Andesite_rect,1,3.02,0,2,0,2,0,1,,,,,,,,,,,,,
666b027ce39d6a0e2eb09d99,SCR,2024-06-20_17h20.07.370,LearnStrategy,2023.2.3,Win32,59.88023952,1,1,4,-0.414166641,0.27166666,1,0,0,1.7063,Pegmatite_07,6,07,5,2,1.706,4,16,0.140833359,-0.263333359,1,0,0,2.5876,Diorite_rect,3,2.588,0,3,0,3,0,1,,,,,,,,,,,,,
666b027ce39d6a0e2eb09d99,SCR,2024-06-20_17h20.07.370,LearnStrategy,2023.2.3,Win32,59.88023952,1,1,5,-0.215,0.41666666,1,0,0,2.1331,Gabbro_11,4,11,6,3,2.133,1,06,-0.1025,-0.2425,1,0,0,2.8738,Basalt_rect,2,2.874,0,4,0,4,0,1,,,,,,,,,,,,,
666b027ce39d6a0e2eb09d99,SCR,2024-06-20_17h20.07.370,LearnStrategy,2023.2.3,Win32,59.88023952,1,1,6,-0.55916666,0.101666641,1,0,0,3.0933,Andesite_10,1,10,4,1,3.093,7,12,0.34,-0.26,1,0,0,1.2618,Gabbro_rect,4,1.262,0,5,0,5,0,1,,,,,,,,,,,,,
666b027ce39d6a0e2eb09d99,SCR,2024-06-20_17h20.07.370,LearnStrategy,2023.2.3,Win32,59.88023952,1,1,7,0.535833435,-0.425,1,0,0,1.7,Pegmatite_15,6,15,1,8,1.7,3,11,0.094166718,-0.400833359,1,0,0,3.3897,Peridotite_rect,7,3.39,0,6,0,6,0,1,,,,,,,,,,,,,
666b027ce39d6a0e2eb09d99,SCR,2024-06-20_17h20.07.370,LearnStrategy,2023.2.3,Win32,59.88023952,1,1,8,0.364166718,0.111666641,1,0,0,1.3696,Pumice_14,8,14,4,7,1.37,8,09,0.323333359,-0.409166718,1,0,0,2.2376,Pumice_rect,8,2.238,1,7,0,7,0,1,,,,,,,,,,,,,
666b027ce39d6a0e2eb09d99,SCR,2024-06-20_17h20.07.370,LearnStrategy,2023.2.3,Win32,59.88023952,1,1,9,-0.565833321,-0.434166718,1,0,0,0.9426,Basalt_04,2,04,1,1,0.943,4,09,-0.161666641,-0.255,1,0,0,1.2674,Basalt_rect,2,1.267,1,8,0,8,0,1,,,,,,,,,,,,,
666b027ce39d6a0e2eb09d99,SCR,2024-06-20_17h20.07.370,LearnStrategy,2023.2.3,Win32,59.88023952,1,1,10,0.068333359,-0.248333359,1,0,0,1.5136,Pegmatite_10,6,10,2,5,1.514,3,09,-0.110833282,-0.404166718,1,0,0,11.4101,Pegmatite_rect,6,11.41,1,9,0,9,0,1,,,,,,,,,,,,,
666b027ce39d6a0e2eb09d99,SCR,2024-06-20_17h20.07.370,LearnStrategy,2023.2.3,Win32,59.88023952,1,1,11,-0.063333282,-0.075833359,1,0,0,1.0413,Gabbro_16,4,16,3,4,1.041,6,13,0.0875,-0.235833359,1,0,0,1.3693,Diorite_rect,3,1.369,0,10,0,10,0,1,,,,,,,,,,,,,
666b027ce39d6a0e2eb09d99,SCR,2024-06-20_17h20.07.370,LearnStrategy,2023.2.3,Win32,59.88023952,1,1,12,-0.0775,0.0825,1,0,0,1.8569,Diorite_02,3,02,4,4,1.857,5,11,0.0975,-0.248333359,1,0,0,2.0484,Diorite_rect,3,2.048,1,11,0,11,0,1,,,,,,,,,,,,,
666b027ce39d6a0e2eb09d99,SCR,2024-06-20_17h20.07.370,LearnStrategy,2023.2.3,Win32,59.88023952,1,1,13,0.236666718,0.2225,1,0,0,6.0505,Obsidian_05,5,05,5,6,6.05,6,10,-0.439166641,-0.415,1,0,0,2.1497,Obsidian_rect,5,2.15,1,12,0,12,0,1,,,,,,,,,,,,,
666b027ce39d6a0e2eb09d99,SCR,2024-06-20_17h20.07.370,LearnStrategy,2023.2.3,Win32,59.88023952,1,1,14,-0.115,-0.431666718,0,0,1,3.2909,Pumice_08,8,08,1,4,3.291,2,04,-0.343333321,-0.2675,1,0,0,4.1541,Andesite_rect,1,4.154,0,13,0,13,0,1,,,,,,,,,,,,,
666b027ce39d6a0e2eb09d99,SCR,2024-06-20_17h20.07.370,LearnStrategy,2023.2.3,Win32,59.88023952,1,1,15,0.4025,-0.1025,1,0,0,3.1997,Diorite_07,3,07,3,7,3.2,8,05,-0.3875,-0.25,1,0,0,13.5216,Andesite_rect,1,13.522,0,14,0,14,0,1,,,,,,,,,,,,,
666b027ce39d6a0e2eb09d99,SCR,2024-06-20_17h20.07.370,LearnStrategy,2023.2.3,Win32,59.88023952,1,1,16,0.276666718,-0.1175,1,0,0,2.2287,Obsidian_11,5,11,3,6,2.229,5,10,-0.379166641,-0.4175,1,0,0,2.038,Obsidian_rect,5,2.038,1,15,0,15,0,1,,,,,,,,,,,,,
666b027ce39d6a0e2eb09d99,SCR,2024-06-20_17h20.07.370,LearnStrategy,2023.2.3,Win32,59.88023952,1,2,1,,,,,,,,5,14,,,,,,,,,,,,,5,3.442,1,,,,,,-0.33,-0.378333359,1,0,0,3.4415,Obsidian_rect,0,0,0,0,1,
666b027ce39d6a0e2eb09d99,SCR,2024-06-20_17h20.07.370,LearnStrategy,2023.2.3,Win32,59.88023952,1,2,2,,,,,,,,5,16,,,,,,,,,,,,,5,1.336,1,,,,,,-0.368333321,-0.400833359,1,0,0,1.3361,Obsidian_rect,1,0,1,0,1,
666b027ce39d6a0e2eb09d99,SCR,2024-06-20_17h20.07.370,LearnStrategy,2023.2.3,Win32,59.88023952,1,2,3,,,,,,,,7,07,,,,,,,,,,,,,1,10.208,0,,,,,,-0.329166641,-0.254166718,1,0,0,10.208,Andesite_rect,2,0,2,0,1,
666b027ce39d6a0e2eb09d99,SCR,2024-06-20_17h20.07.370,LearnStrategy,2023.2.3,Win32,59.88023952,1,2,4,,,,,,,,6,09,,,,,,,,,,,,,6,4.952,1,,,,,,-0.069166641,-0.405,1,0,0,4.9525,Pegmatite_rect,3,0,3,0,1,
666b027ce39d6a0e2eb09d99,SCR,2024-06-20_17h20.07.370,LearnStrategy,2023.2.3,Win32,59.88023952,1,2,5,,,,,,,,8,02,,,,,,,,,,,,,8,9.055,1,,,,,,0.373333359,-0.416666718,1,0,0,9.0548,Pumice_rect,4,0,4,0,1,
666b027ce39d6a0e2eb09d99,SCR,2024-06-20_17h20.07.370,LearnStrategy,2023.2.3,Win32,59.88023952,1,2,6,,,,,,,,1,14,,,,,,,,,,,,,1,15.599,1,,,,,,-0.386666641,-0.240833359,1,0,0,15.5991,Andesite_rect,5,0,5,0,1,
666b027ce39d6a0e2eb09d99,SCR,2024-06-20_17h20.07.370,LearnStrategy,2023.2.3,Win32,59.88023952,1,2,7,,,,,,,,2,08,,,,,,,,,,,,,2,4.84,1,,,,,,-0.16,-0.253333359,1,0,0,4.8404,Basalt_rect,6,0,6,0,1,
666b027ce39d6a0e2eb09d99,SCR,2024-06-20_17h20.07.370,LearnStrategy,2023.2.3,Win32,59.88023952,1,2,8,,,,,,,,4,10,,,,,,,,,,,,,2,1.651,0,,,,,,-0.118333282,-0.246666718,1,0,0,1.6515,Basalt_rect,7,0,7,0,1,
666b027ce39d6a0e2eb09d99,SCR,2024-06-20_17h20.07.370,LearnStrategy,2023.2.3,Win32,59.88023952,1,2,9,,,,,,,,1,16,,,,,,,,,,,,,8,12.837,0,,,,,,0.318333359,-0.399166718,1,0,0,12.8366,Pumice_rect,8,0,8,0,1,
666b027ce39d6a0e2eb09d99,SCR,2024-06-20_17h20.07.370,LearnStrategy,2023.2.3,Win32,59.88023952,1,2,10,,,,,,,,8,04,,,,,,,,,,,,,8,5.429,1,,,,,,0.360833359,-0.39,1,0,0,5.4285,Pumice_rect,9,0,9,0,1,
666b027ce39d6a0e2eb09d99,SCR,2024-06-20_17h20.07.370,LearnStrategy,2023.2.3,Win32,59.88023952,1,2,11,,,,,,,,6,12,,,,,,,,,,,,,6,3.613,1,,,,,,-0.084166641,-0.395,1,0,0,3.6132,Pegmatite_rect,10,0,10,0,1,
666b027ce39d6a0e2eb09d99,SCR,2024-06-20_17h20.07.370,LearnStrategy,2023.2.3,Win32,59.88023952,1,2,12,,,,,,,,7,05,,,,,,,,,,,,,1,2.766,0,,,,,,-0.348333321,-0.24,1,0,0,2.7656,Andesite_rect,11,0,11,0,1,
666b027ce39d6a0e2eb09d99,SCR,2024-06-20_17h20.07.370,LearnStrategy,2023.2.3,Win32,59.88023952,1,2,13,,,,,,,,3,14,,,,,,,,,,,,,6,12.158,0,,,,,,-0.084166641,-0.410833359,1,0,0,12.1575,Pegmatite_rect,12,0,12,0,1,
666b027ce39d6a0e2eb09d99,SCR,2024-06-20_17h20.07.370,LearnStrategy,2023.2.3,Win32,59.88023952,1,2,14,,,,,,,,4,12,,,,,,,,,,,,,1,10.508,0,,,,,,-0.325833321,-0.234166718,1,0,0,10.5083,Andesite_rect,13,0,13,0,1,
666b027ce39d6a0e2eb09d99,SCR,2024-06-20_17h20.07.370,LearnStrategy,2023.2.3,Win32,59.88023952,1,2,15,,,,,,,,3,13,,,,,,,,,,,,,3,25.158,1,,,,,,0.086666718,-0.2475,1,0,0,25.158,Diorite_rect,14,0,14,0,1,
666b027ce39d6a0e2eb09d99,SCR,2024-06-20_17h20.07.370,LearnStrategy,2023.2.3,Win32,59.88023952,1,2,16,,,,,,,,2,09,,,,,,,,,,,,,4,15.33,0,,,,,,0.36,-0.2475,1,0,0,15.3298,Gabbro_rect,15,0,15,0,1,
666b027ce39d6a0e2eb09d99,SCR,2024-06-20_17h20.07.370,LearnStrategy,2023.2.3,Win32,59.88023952,2,1,1,-0.236666641,0.093333321,1,0,0,13.3808,Obsidian_07,5,07,4,3,13.381,6,16,0.036666718,-0.403333359,1,0,0,2.8857,Peridotite_rect,7,2.886,0,0,0,0,0,1,,,,,,,,,,,,,
666b027ce39d6a0e2eb09d99,SCR,2024-06-20_17h20.07.370,LearnStrategy,2023.2.3,Win32,59.88023952,2,1,2,0.4075,-0.095,1,0,0,4.0376,Diorite_07,3,07,3,7,4.038,4,14,-0.415,-0.261666718,1,0,0,1.0964,Andesite_rect,1,1.096,0,1,0,1,0,1,,,,,,,,,,,,,
666b027ce39d6a0e2eb09d99,SCR,2024-06-20_17h20.07.370,LearnStrategy,2023.2.3,Win32,59.88023952,2,1,3,-0.4025,-0.209166718,1,0,0,1.2623,Diorite_08,3,08,2,2,1.262,1,11,0.111666718,-0.249166718,1,0,0,1.696,Diorite_rect,3,1.696,1,2,0,2,0,1,,,,,,,,,,,,,
666b027ce39d6a0e2eb09d99,SCR,2024-06-20_17h20.07.370,LearnStrategy,2023.2.3,Win32,59.88023952,2,1,4,-0.424166641,0.40083333,1,0,0,0.9123,Andesite_06,1,06,6,2,0.912,8,14,-0.141666641,-0.27,1,0,0,1.2345,Basalt_rect,2,1.234,0,3,0,3,0,1,,,,,,,,,,,,,
666b027ce39d6a0e2eb09d99,SCR,2024-06-20_17h20.07.370,LearnStrategy,2023.2.3,Win32,59.88023952,2,1,5,0.250833359,0.245833321,1,0,0,2.1731,Obsidian_05,5,05,5,6,2.173,7,06,-0.398333321,-0.258333359,1,0,0,1.6688,Andesite_rect,1,1.669,0,4,0,4,0,1,,,,,,,,,,,,,
666b027ce39d6a0e2eb09d99,SCR,2024-06-20_17h20.07.370,LearnStrategy,2023.2.3,Win32,59.88023952,2,1,6,-0.515833321,0.0875,1,0,0,1.6303,Andesite_10,1,10,4,1,1.63,3,11,-0.4175,-0.245833359,1,0,0,0.7097,Andesite_rect,1,0.71,1,5,0,5,0,1,,,,,,,,,,,,,
666b027ce39d6a0e2eb09d99,SCR,2024-06-20_17h20.07.370,LearnStrategy,2023.2.3,Win32,59.88023952,2,1,7,0.281666718,-0.414166718,1,0,0,1.4498,Pegmatite_16,6,16,1,6,1.45,4,13,0.344166718,-0.394166718,1,0,0,1.358,Pumice_rect,8,1.358,0,6,0,6,0,1,,,,,,,,,,,,,
666b027ce39d6a0e2eb09d99,SCR,2024-06-20_17h20.07.370,LearnStrategy,2023.2.3,Win32,59.88023952,2,1,8,0.0475,0.083333321,1,0,0,1.2582,Pumice_13,8,13,4,5,1.258,1,10,0.385,-0.385,1,0,0,1.3793,Pumice_rect,8,1.379,1,7,0,7,0,1,,,,,,,,,,,,,
666b027ce39d6a0e2eb09d99,SCR,2024-06-20_17h20.07.370,LearnStrategy,2023.2.3,Win32,59.88023952,2,1,9,-0.061666641,0.27666666,1,0,0,0.9202,Andesite_07,1,07,5,4,0.92,4,11,0.13,-0.264166718,1,0,0,1.1036,Diorite_rect,3,1.104,0,8,0,8,0,1,,,,,,,,,,,,,
666b027ce39d6a0e2eb09d99,SCR,2024-06-20_17h20.07.370,LearnStrategy,2023.2.3,Win32,59.88023952,2,1,10,0.4,0.2425,1,0,0,1.0955,Basalt_14,2,14,5,7,1.096,3,02,0.305,-0.235,1,0,0,1.5387,Gabbro_rect,4,1.539,0,9,0,9,0,1,,,,,,,,,,,,,
666b027ce39d6a0e2eb09d99,SCR,2024-06-20_17h20.07.370,LearnStrategy,2023.2.3,Win32,59.88023952,2,1,11,-0.108333282,-0.118333359,1,0,0,1.4305,Gabbro_16,4,16,3,4,1.43,4,11,0.399166718,-0.24,1,0,0,1.1153,Gabbro_rect,4,1.115,1,10,0,10,0,1,,,,,,,,,,,,,
666b027ce39d6a0e2eb09d99,SCR,2024-06-20_17h20.07.370,LearnStrategy,2023.2.3,Win32,59.88023952,2,1,12,0.053333359,-0.28,1,0,0,1.1388,Pegmatite_10,6,10,2,5,1.139,7,04,-0.315,-0.25,1,0,0,0.7485,Andesite_rect,1,0.749,0,11,0,11,0,1,,,,,,,,,,,,,
666b027ce39d6a0e2eb09d99,SCR,2024-06-20_17h20.07.370,LearnStrategy,2023.2.3,Win32,59.88023952,2,1,13,0.409166718,0.436666665,1,0,0,1.1651,Diorite_11,3,11,6,7,1.165,2,05,-0.414166641,-0.2475,1,0,0,0.8569,Andesite_rect,1,0.857,0,12,0,12,0,1,,,,,,,,,,,,,
666b027ce39d6a0e2eb09d99,SCR,2024-06-20_17h20.07.370,LearnStrategy,2023.2.3,Win32,59.88023952,2,1,14,-0.110833282,-0.400833359,1,0,0,1.0241,Pumice_08,8,08,1,4,1.024,1,11,0.35,-0.395,1,0,0,0.9372,Pumice_rect,8,0.937,1,13,0,13,0,1,,,,,,,,,,,,,
666b027ce39d6a0e2eb09d99,SCR,2024-06-20_17h20.07.370,LearnStrategy,2023.2.3,Win32,59.88023952,2,1,15,-0.384166641,0.085,1,0,0,1.1176,Gabbro_13,4,13,4,2,1.118,2,11,-0.055,-0.2425,1,0,0,1.4814,Basalt_rect,2,1.481,0,14,0,14,0,1,,,,,,,,,,,,,
666b027ce39d6a0e2eb09d99,SCR,2024-06-20_17h20.07.370,LearnStrategy,2023.2.3,Win32,59.88023952,2,1,16,-0.535833321,0.38583333,1,0,0,1.7808,Peridotite_04,7,04,6,1,1.781,7,04,-0.430833321,-0.236666718,1,0,0,0.8536,Andesite_rect,1,0.854,0,15,0,15,0,1,,,,,,,,,,,,,
666b027ce39d6a0e2eb09d99,SCR,2024-06-20_17h20.07.370,LearnStrategy,2023.2.3,Win32,59.88023952,2,2,1,,,,,,,,1,09,,,,,,,,,,,,,1,11.426,1,,,,,,-0.343333321,-0.254166718,1,0,0,11.4256,Andesite_rect,0,0,0,0,1,
666b027ce39d6a0e2eb09d99,SCR,2024-06-20_17h20.07.370,LearnStrategy,2023.2.3,Win32,59.88023952,2,2,2,,,,,,,,1,04,,,,,,,,,,,,,1,1.257,1,,,,,,-0.413333321,-0.264166718,1,0,0,1.2566,Andesite_rect,1,0,1,0,1,
666b027ce39d6a0e2eb09d99,SCR,2024-06-20_17h20.07.370,LearnStrategy,2023.2.3,Win32,59.88023952,2,2,3,,,,,,,,5,06,,,,,,,,,,,,,5,1.566,1,,,,,,-0.316666641,-0.401666718,1,0,0,1.5662,Obsidian_rect,2,0,2,0,1,
666b027ce39d6a0e2eb09d99,SCR,2024-06-20_17h20.07.370,LearnStrategy,2023.2.3,Win32,59.88023952,2,2,4,,,,,,,,6,03,,,,,,,,,,,,,1,6.985,0,,,,,,-0.313333321,-0.25,1,0,0,6.9849,Andesite_rect,3,0,3,0,1,
666b027ce39d6a0e2eb09d99,SCR,2024-06-20_17h20.07.370,LearnStrategy,2023.2.3,Win32,59.88023952,2,2,5,,,,,,,,7,15,,,,,,,,,,,,,1,1.357,0,,,,,,-0.313333321,-0.25,1,0,0,1.3566,Andesite_rect,4,0,4,0,1,
666b027ce39d6a0e2eb09d99,SCR,2024-06-20_17h20.07.370,LearnStrategy,2023.2.3,Win32,59.88023952,2,2,6,,,,,,,,7,10,,,,,,,,,,,,,1,3.485,0,,,,,,-0.311666641,-0.25,1,0,0,3.4847,Andesite_rect,5,0,5,0,1,
666b027ce39d6a0e2eb09d99,SCR,2024-06-20_17h20.07.370,LearnStrategy,2023.2.3,Win32,59.88023952,2,2,7,,,,,,,,2,12,,,,,,,,,,,,,8,2.36,0,,,,,,0.415,-0.410833359,1,0,0,2.3603,Pumice_rect,6,0,6,0,1,
666b027ce39d6a0e2eb09d99,SCR,2024-06-20_17h20.07.370,LearnStrategy,2023.2.3,Win32,59.88023952,2,2,8,,,,,,,,4,01,,,,,,,,,,,,,7,9.107,0,,,,,,0.104166718,-0.400833359,1,0,0,9.107,Peridotite_rect,7,0,7,0,1,
666b027ce39d6a0e2eb09d99,SCR,2024-06-20_17h20.07.370,LearnStrategy,2023.2.3,Win32,59.88023952,2,2,9,,,,,,,,3,16,,,,,,,,,,,,,1,2.538,0,,,,,,-0.403333321,-0.266666718,1,0,0,2.5385,Andesite_rect,8,0,8,0,1,
666b027ce39d6a0e2eb09d99,SCR,2024-06-20_17h20.07.370,LearnStrategy,2023.2.3,Win32,59.88023952,2,2,10,,,,,,,,5,02,,,,,,,,,,,,,5,1.693,1,,,,,,-0.455,-0.4025,1,0,0,1.6928,Obsidian_rect,9,0,9,0,1,
666b027ce39d6a0e2eb09d99,SCR,2024-06-20_17h20.07.370,LearnStrategy,2023.2.3,Win32,59.88023952,2,2,11,,,,,,,,2,01,,,,,,,,,,,,,2,1.767,1,,,,,,-0.151666641,-0.245833359,1,0,0,1.7672,Basalt_rect,10,0,10,0,1,
666b027ce39d6a0e2eb09d99,SCR,2024-06-20_17h20.07.370,LearnStrategy,2023.2.3,Win32,59.88023952,2,2,12,,,,,,,,3,15,,,,,,,,,,,,,3,2.331,1,,,,,,0.1025,-0.2325,1,0,0,2.3312,Diorite_rect,11,0,11,0,1,
666b027ce39d6a0e2eb09d99,SCR,2024-06-20_17h20.07.370,LearnStrategy,2023.2.3,Win32,59.88023952,2,2,13,,,,,,,,4,08,,,,,,,,,,,,,2,1.48,0,,,,,,-0.183333321,-0.236666718,1,0,0,1.4799,Basalt_rect,12,0,12,0,1,
666b027ce39d6a0e2eb09d99,SCR,2024-06-20_17h20.07.370,LearnStrategy,2023.2.3,Win32,59.88023952,2,2,14,,,,,,,,8,03,,,,,,,,,,,,,8,1.397,1,,,,,,0.3525,-0.398333359,1,0,0,1.397,Pumice_rect,13,0,13,0,1,
666b027ce39d6a0e2eb09d99,SCR,2024-06-20_17h20.07.370,LearnStrategy,2023.2.3,Win32,59.88023952,2,2,15,,,,,,,,8,06,,,,,,,,,,,,,8,1.322,1,,,,,,0.3275,-0.390833359,1,0,0,1.3219,Pumice_rect,14,0,14,0,1,
666b027ce39d6a0e2eb09d99,SCR,2024-06-20_17h20.07.370,LearnStrategy,2023.2.3,Win32,59.88023952,2,2,16,,,,,,,,6,05,,,,,,,,,,,,,5,8.636,0,,,,,,-0.460833321,-0.398333359,1,0,0,8.6356,Obsidian_rect,15,0,15,0,1,
666b027ce39d6a0e2eb09d99,SCR,2024-06-20_17h20.07.370,LearnStrategy,2023.2.3,Win32,59.88023952,3,1,1,-0.248333321,0.41,1,0,0,5.1458,Gabbro_11,4,11,6,3,5.146,3,09,-0.38,-0.235833359,1,0,0,1.0744,Andesite_rect,1,1.074,0,0,0,0,0,1,,,,,,,,,,,,,
666b027ce39d6a0e2eb09d99,SCR,2024-06-20_17h20.07.370,LearnStrategy,2023.2.3,Win32,59.88023952,3,1,2,-0.084166641,0.39416666,1,0,0,0.9816,Peridotite_08,7,08,6,4,0.982,6,07,-0.35,-0.251666718,1,0,0,1.5792,Andesite_rect,1,1.579,0,1,0,1,0,1,,,,,,,,,,,,,
666b027ce39d6a0e2eb09d99,SCR,2024-06-20_17h20.07.370,LearnStrategy,2023.2.3,Win32,59.88023952,3,1,3,0.1025,0.41,1,0,0,0.6649,Andesite_11,1,11,6,5,0.665,4,13,-0.113333282,-0.398333359,1,0,0,4.9359,Pegmatite_rect,6,4.936,0,2,0,2,0,1,,,,,,,,,,,,,
666b027ce39d6a0e2eb09d99,SCR,2024-06-20_17h20.07.370,LearnStrategy,2023.2.3,Win32,59.88023952,3,1,4,0.270833359,0.41083333,1,0,0,0.6963,Obsidian_04,5,04,6,6,0.696,3,08,-0.365,-0.384166718,1,0,0,0.882,Obsidian_rect,5,0.882,1,3,0,3,0,1,,,,,,,,,,,,,
666b027ce39d6a0e2eb09d99,SCR,2024-06-20_17h20.07.370,LearnStrategy,2023.2.3,Win32,59.88023952,3,1,5,0.444166718,0.439166665,1,0,0,0.7459,Diorite_11,3,11,6,7,0.746,5,09,0.04,-0.239166718,1,0,0,1.2744,Diorite_rect,3,1.274,1,4,0,4,0,1,,,,,,,,,,,,,
666b027ce39d6a0e2eb09d99,SCR,2024-06-20_17h20.07.370,LearnStrategy,2023.2.3,Win32,59.88023952,3,1,6,0.5525,0.38416666,1,0,0,1.2027,Pumice_09,8,09,6,8,1.203,6,13,0.309166718,-0.4,1,0,0,1.1429,Pumice_rect,8,1.143,1,5,0,5,0,1,,,,,,,,,,,,,
666b027ce39d6a0e2eb09d99,SCR,2024-06-20_17h20.07.370,LearnStrategy,2023.2.3,Win32,59.88023952,3,1,7,-0.548333321,0.22,1,0,0,1.1553,Obsidian_10,5,10,5,1,1.155,2,10,-0.4525,-0.395,1,0,0,0.9069,Obsidian_rect,5,0.907,1,6,0,6,0,1,,,,,,,,,,,,,
666b027ce39d6a0e2eb09d99,SCR,2024-06-20_17h20.07.370,LearnStrategy,2023.2.3,Win32,59.88023952,3,1,8,-0.411666641,0.203333321,1,0,0,0.579,Pegmatite_07,6,07,5,2,0.579,7,16,-0.411666641,-0.395833359,1,0,0,1.5359,Obsidian_rect,5,1.536,0,7,0,7,0,1,,,,,,,,,,,,,
666b027ce39d6a0e2eb09d99,SCR,2024-06-20_17h20.07.370,LearnStrategy,2023.2.3,Win32,59.88023952,3,1,9,-0.235833321,0.21666666,1,0,0,0.821,Andesite_02,1,02,5,3,0.821,4,03,-0.355833321,-0.261666718,1,0,0,2.1753,Andesite_rect,1,2.175,1,8,0,8,0,1,,,,,,,,,,,,,
666b027ce39d6a0e2eb09d99,SCR,2024-06-20_17h20.07.370,LearnStrategy,2023.2.3,Win32,59.88023952,3,1,10,-0.103333282,0.238333321,1,0,0,0.5495,Andesite_07,1,07,5,4,0.549,7,08,-0.335,-0.240833359,1,0,0,0.8303,Andesite_rect,1,0.83,1,9,0,9,0,1,,,,,,,,,,,,,
666b027ce39d6a0e2eb09d99,SCR,2024-06-20_17h20.07.370,LearnStrategy,2023.2.3,Win32,59.88023952,3,1,11,0.068333359,0.2275,1,0,0,1.0928,Diorite_12,3,12,5,5,1.093,2,04,-0.319166641,-0.2325,1,0,0,1.5585,Andesite_rect,1,1.558,0,10,0,10,0,1,,,,,,,,,,,,,
666b027ce39d6a0e2eb09d99,SCR,2024-06-20_17h20.07.370,LearnStrategy,2023.2.3,Win32,59.88023952,3,1,12,0.2875,0.275,1,0,0,0.91,Obsidian_05,5,05,5,6,0.91,1,03,-0.370833321,-0.393333359,1,0,0,0.9874,Obsidian_rect,5,0.987,1,11,0,11,0,1,,,,,,,,,,,,,
666b027ce39d6a0e2eb09d99,SCR,2024-06-20_17h20.07.370,LearnStrategy,2023.2.3,Win32,59.88023952,3,1,13,0.426666718,0.2575,1,0,0,0.526,Basalt_14,2,14,5,7,0.526,8,05,0.34,-0.239166718,1,0,0,1.758,Gabbro_rect,4,1.758,0,12,0,12,0,1,,,,,,,,,,,,,
666b027ce39d6a0e2eb09d99,SCR,2024-06-20_17h20.07.370,LearnStrategy,2023.2.3,Win32,59.88023952,3,1,14,0.570833435,0.230833321,1,0,0,1.1746,Peridotite_16,7,16,5,8,1.175,4,03,-0.1025,-0.255833359,1,0,0,1.6331,Basalt_rect,2,1.633,0,13,0,13,0,1,,,,,,,,,,,,,
666b027ce39d6a0e2eb09d99,SCR,2024-06-20_17h20.07.370,LearnStrategy,2023.2.3,Win32,59.88023952,3,1,15,-0.54416666,0.113333321,1,0,0,0.8479,Andesite_10,1,10,4,1,0.848,1,10,-0.349166641,-0.251666718,1,0,0,0.7689,Andesite_rect,1,0.769,1,14,0,14,0,1,,,,,,,,,,,,,
666b027ce39d6a0e2eb09d99,SCR,2024-06-20_17h20.07.370,LearnStrategy,2023.2.3,Win32,59.88023952,3,1,16,-0.371666641,0.0675,1,0,0,0.6858,Gabbro_13,4,13,4,2,0.686,7,08,0.429166718,-0.231666718,1,0,0,1.5578,Gabbro_rect,4,1.558,1,15,0,15,0,1,,,,,,,,,,,,,
666b027ce39d6a0e2eb09d99,SCR,2024-06-20_17h20.07.370,LearnStrategy,2023.2.3,Win32,59.88023952,3,2,1,,,,,,,,2,16,,,,,,,,,,,,,4,1.942,0,,,,,,0.348333359,-0.255,1,0,0,1.9417,Gabbro_rect,0,0,0,0,1,
666b027ce39d6a0e2eb09d99,SCR,2024-06-20_17h20.07.370,LearnStrategy,2023.2.3,Win32,59.88023952,3,2,2,,,,,,,,3,06,,,,,,,,,,,,,1,28.868,0,,,,,,-0.3375,-0.238333359,1,0,0,28.8678,Andesite_rect,1,0,1,0,1,
666b027ce39d6a0e2eb09d99,SCR,2024-06-20_17h20.07.370,LearnStrategy,2023.2.3,Win32,59.88023952,3,2,3,,,,,,,,7,14,,,,,,,,,,,,,1,0.582,0,,,,,,-0.3375,-0.238333359,1,0,0,0.5819,Andesite_rect,2,0,2,0,1,
666b027ce39d6a0e2eb09d99,SCR,2024-06-20_17h20.07.370,LearnStrategy,2023.2.3,Win32,59.88023952,3,2,4,,,,,,,,1,05,,,,,,,,,,,,,3,9.749,0,,,,,,0.075,-0.2625,1,0,0,9.749,Diorite_rect,3,0,3,0,1,
666b027ce39d6a0e2eb09d99,SCR,2024-06-20_17h20.07.370,LearnStrategy,2023.2.3,Win32,59.88023952,3,2,5,,,,,,,,1,01,,,,,,,,,,,,,4,5.452,0,,,,,,0.378333359,-0.2625,1,0,0,5.4516,Gabbro_rect,4,0,4,0,1,
666b027ce39d6a0e2eb09d99,SCR,2024-06-20_17h20.07.370,LearnStrategy,2023.2.3,Win32,59.88023952,3,2,6,,,,,,,,4,15,,,,,,,,,,,,,4,1.313,1,,,,,,0.366666718,-0.2375,1,0,0,1.3134,Gabbro_rect,5,0,5,0,1,
666b027ce39d6a0e2eb09d99,SCR,2024-06-20_17h20.07.370,LearnStrategy,2023.2.3,Win32,59.88023952,3,2,7,,,,,,,,7,02,,,,,,,,,,,,,7,6.651,1,,,,,,0.1225,-0.39,1,0,0,6.6514,Peridotite_rect,6,0,6,0,1,
666b027ce39d6a0e2eb09d99,SCR,2024-06-20_17h20.07.370,LearnStrategy,2023.2.3,Win32,59.88023952,3,2,8,,,,,,,,2,06,,,,,,,,,,,,,2,1.398,1,,,,,,-0.194166641,-0.258333359,1,0,0,1.3979,Basalt_rect,7,0,7,0,1,
666b027ce39d6a0e2eb09d99,SCR,2024-06-20_17h20.07.370,LearnStrategy,2023.2.3,Win32,59.88023952,3,2,9,,,,,,,,4,05,,,,,,,,,,,,,7,12.294,0,,,,,,0.106666718,-0.396666718,1,0,0,12.2938,Peridotite_rect,8,0,8,0,1,
666b027ce39d6a0e2eb09d99,SCR,2024-06-20_17h20.07.370,LearnStrategy,2023.2.3,Win32,59.88023952,3,2,10,,,,,,,,8,16,,,,,,,,,,,,,8,1.313,1,,,,,,0.340833359,-0.390833359,1,0,0,1.3135,Pumice_rect,9,0,9,0,1,
666b027ce39d6a0e2eb09d99,SCR,2024-06-20_17h20.07.370,LearnStrategy,2023.2.3,Win32,59.88023952,3,2,11,,,,,,,,3,10,,,,,,,,,,,,,3,5.502,1,,,,,,0.0875,-0.24,1,0,0,5.502,Diorite_rect,10,0,10,0,1,
666b027ce39d6a0e2eb09d99,SCR,2024-06-20_17h20.07.370,LearnStrategy,2023.2.3,Win32,59.88023952,3,2,12,,,,,,,,5,12,,,,,,,,,,,,,5,0.918,1,,,,,,-0.3475,-0.401666718,1,0,0,0.9176,Obsidian_rect,11,0,11,0,1,
666b027ce39d6a0e2eb09d99,SCR,2024-06-20_17h20.07.370,LearnStrategy,2023.2.3,Win32,59.88023952,3,2,13,,,,,,,,5,08,,,,,,,,,,,,,5,0.974,1,,,,,,-0.326666641,-0.390833359,1,0,0,0.9735,Obsidian_rect,12,0,12,0,1,
666b027ce39d6a0e2eb09d99,SCR,2024-06-20_17h20.07.370,LearnStrategy,2023.2.3,Win32,59.88023952,3,2,14,,,,,,,,6,06,,,,,,,,,,,,,6,16.749,1,,,,,,-0.2,-0.408333359,1,0,0,16.7489,Pegmatite_rect,13,0,13,0,1,
666b027ce39d6a0e2eb09d99,SCR,2024-06-20_17h20.07.370,LearnStrategy,2023.2.3,Win32,59.88023952,3,2,15,,,,,,,,8,10,,,,,,,,,,,,,8,1.69,1,,,,,,0.314166718,-0.386666718,1,0,0,1.6903,Pumice_rect,14,0,14,0,1,
666b027ce39d6a0e2eb09d99,SCR,2024-06-20_17h20.07.370,LearnStrategy,2023.2.3,Win32,59.88023952,3,2,16,,,,,,,,6,08,,,,,,,,,,,,,5,1.782,0,,,,,,-0.404166641,-0.3875,1,0,0,1.7819,Obsidian_rect,15,0,15,0,1,
666b027ce39d6a0e2eb09d99,SCR,2024-06-20_17h20.07.370,LearnStrategy,2023.2.3,Win32,59.88023952,4,1,1,-0.385,0.080833321,1,0,0,1.1587,Gabbro_13,4,13,4,2,1.159,6,13,0.359166718,-0.26,1,0,0,1.1484,Gabbro_rect,4,1.148,1,0,0,0,0,1,,,,,,,,,,,,,
666b027ce39d6a0e2eb09d99,SCR,2024-06-20_17h20.07.370,LearnStrategy,2023.2.3,Win32,59.88023952,4,1,2,-0.226666641,0.093333321,1,0,0,1.7445,Obsidian_07,5,07,4,3,1.744,7,16,-0.400833321,-0.418333359,1,0,0,0.7605,Obsidian_rect,5,0.76,1,1,0,1,0,1,,,,,,,,,,,,,
666b027ce39d6a0e2eb09d99,SCR,2024-06-20_17h20.07.370,LearnStrategy,2023.2.3,Win32,59.88023952,4,1,3,-0.074166641,0.063333321,1,0,0,0.5808,Diorite_02,3,02,4,4,0.581,3,08,-0.076666641,-0.260833359,1,0,0,1.0067,Basalt_rect,2,1.007,0,2,0,2,0,1,,,,,,,,,,,,,
666b027ce39d6a0e2eb09d99,SCR,2024-06-20_17h20.07.370,LearnStrategy,2023.2.3,Win32,59.88023952,4,1,4,0.064166718,0.099166641,1,0,0,0.597,Pumice_13,8,13,4,5,0.597,4,09,0.3475,-0.378333359,1,0,0,0.8355,Pumice_rect,8,0.836,1,3,0,3,0,1,,,,,,,,,,,,,
666b027ce39d6a0e2eb09d99,SCR,2024-06-20_17h20.07.370,LearnStrategy,2023.2.3,Win32,59.88023952,4,1,5,0.244166718,0.091666641,1,0,0,0.5128,Pegmatite_13,6,13,4,6,0.513,6,07,0.325,-0.408333359,1,0,0,0.7462,Pumice_rect,8,0.746,0,4,0,4,0,1,,,,,,,,,,,,,
666b027ce39d6a0e2eb09d99,SCR,2024-06-20_17h20.07.370,LearnStrategy,2023.2.3,Win32,59.88023952,4,1,6,0.381666718,0.078333321,1,0,0,0.6302,Pumice_14,8,14,4,7,0.63,1,11,0.3525,-0.39,1,0,0,0.5677,Pumice_rect,8,0.568,1,5,0,5,0,1,,,,,,,,,,,,,
666b027ce39d6a0e2eb09d99,SCR,2024-06-20_17h20.07.370,LearnStrategy,2023.2.3,Win32,59.88023952,4,1,7,0.511666718,0.065,1,0,0,0.6496,Diorite_09,3,09,4,8,0.65,7,08,0.085,-0.24,1,0,0,1.4948,Diorite_rect,3,1.495,1,6,0,6,0,1,,,,,,,,,,,,,
666b027ce39d6a0e2eb09d99,SCR,2024-06-20_17h20.07.370,LearnStrategy,2023.2.3,Win32,59.88023952,4,1,8,-0.585833321,-0.083333359,1,0,0,1.0159,Pegmatite_11,6,11,3,1,1.016,3,02,-0.414166641,-0.405,1,0,0,1.0234,Obsidian_rect,5,1.023,0,7,0,7,0,1,,,,,,,,,,,,,
666b027ce39d6a0e2eb09d99,SCR,2024-06-20_17h20.07.370,LearnStrategy,2023.2.3,Win32,59.88023952,4,1,9,-0.403333321,-0.091666679,1,0,0,0.9463,Gabbro_03,4,03,3,2,0.946,4,03,-0.3075,-0.2575,1,0,0,1.2682,Andesite_rect,1,1.268,0,8,0,8,0,1,,,,,,,,,,,,,
666b027ce39d6a0e2eb09d99,SCR,2024-06-20_17h20.07.370,LearnStrategy,2023.2.3,Win32,59.88023952,4,1,10,-0.2225,-0.14,1,0,0,0.8744,Basalt_11,2,11,3,3,0.874,5,09,-0.18,-0.26,1,0,0,0.9427,Basalt_rect,2,0.943,1,9,0,9,0,1,,,,,,,,,,,,,
666b027ce39d6a0e2eb09d99,SCR,2024-06-20_17h20.07.370,LearnStrategy,2023.2.3,Win32,59.88023952,4,1,11,-0.063333282,-0.093333359,1,0,0,0.5971,Gabbro_16,4,16,3,4,0.597,4,14,-0.348333321,-0.230833359,1,0,0,0.8165,Andesite_rect,1,0.817,0,10,0,10,0,1,,,,,,,,,,,,,
666b027ce39d6a0e2eb09d99,SCR,2024-06-20_17h20.07.370,LearnStrategy,2023.2.3,Win32,59.88023952,4,1,12,0.066666718,-0.1275,1,0,0,1.2154,Peridotite_12,7,12,3,5,1.215,7,13,-0.369166641,-0.235833359,1,0,0,0.7354,Andesite_rect,1,0.735,0,11,0,11,0,1,,,,,,,,,,,,,
666b027ce39d6a0e2eb09d99,SCR,2024-06-20_17h20.07.370,LearnStrategy,2023.2.3,Win32,59.88023952,4,1,13,0.23,-0.133333359,1,0,0,0.7622,Obsidian_11,5,11,3,6,0.762,1,11,-0.386666641,-0.401666718,1,0,0,0.859,Obsidian_rect,5,0.859,1,12,0,12,0,1,,,,,,,,,,,,,
666b027ce39d6a0e2eb09d99,SCR,2024-06-20_17h20.07.370,LearnStrategy,2023.2.3,Win32,59.88023952,4,1,14,0.3825,-0.094166679,1,0,0,0.6952,Diorite_07,3,07,3,7,0.695,2,05,-0.165833321,-0.241666718,1,0,0,0.7033,Basalt_rect,2,0.703,0,13,0,13,0,1,,,,,,,,,,,,,
666b027ce39d6a0e2eb09d99,SCR,2024-06-20_17h20.07.370,LearnStrategy,2023.2.3,Win32,59.88023952,4,1,15,0.530833435,-0.116666679,1,0,0,0.7621,Gabbro_14,4,14,3,8,0.762,1,02,0.394166718,-0.228333359,1,0,0,1.751,Gabbro_rect,4,1.751,1,14,0,14,0,1,,,,,,,,,,,,,
666b027ce39d6a0e2eb09d99,SCR,2024-06-20_17h20.07.370,LearnStrategy,2023.2.3,Win32,59.88023952,4,1,16,-0.58166666,-0.260833359,1,0,0,1.1796,Basalt_10,2,10,2,1,1.18,2,10,0.355833359,-0.240833359,1,0,0,3.4244,Gabbro_rect,4,3.424,0,15,0,15,0,1,,,,,,,,,,,,,
666b027ce39d6a0e2eb09d99,SCR,2024-06-20_17h20.07.370,LearnStrategy,2023.2.3,Win32,59.88023952,4,2,1,,,,,,,,1,04,,,,,,,,,,,,,1,30.792,1,,,,,,-0.389166641,-0.236666718,1,0,0,30.7918,Andesite_rect,0,0,0,0,1,
666b027ce39d6a0e2eb09d99,SCR,2024-06-20_17h20.07.370,LearnStrategy,2023.2.3,Win32,59.88023952,4,2,2,,,,,,,,8,04,,,,,,,,,,,,,8,1.583,1,,,,,,0.393333359,-0.3925,1,0,0,1.5827,Pumice_rect,1,0,1,0,1,
666b027ce39d6a0e2eb09d99,SCR,2024-06-20_17h20.07.370,LearnStrategy,2023.2.3,Win32,59.88023952,4,2,3,,,,,,,,1,09,,,,,,,,,,,,,1,1.93,1,,,,,,-0.3625,-0.250833359,1,0,0,1.93,Andesite_rect,2,0,2,0,1,
666b027ce39d6a0e2eb09d99,SCR,2024-06-20_17h20.07.370,LearnStrategy,2023.2.3,Win32,59.88023952,4,2,4,,,,,,,,4,08,,,,,,,,,,,,,4,7.581,1,,,,,,0.319166718,-0.264166718,1,0,0,7.581,Gabbro_rect,3,0,3,0,1,
666b027ce39d6a0e2eb09d99,SCR,2024-06-20_17h20.07.370,LearnStrategy,2023.2.3,Win32,59.88023952,4,2,5,,,,,,,,2,08,,,,,,,,,,,,,2,2.5,1,,,,,,-0.14,-0.235833359,1,0,0,2.4998,Basalt_rect,4,0,4,0,1,
666b027ce39d6a0e2eb09d99,SCR,2024-06-20_17h20.07.370,LearnStrategy,2023.2.3,Win32,59.88023952,4,2,6,,,,,,,,3,06,,,,,,,,,,,,,6,69.466,0,,,,,,-0.2025,-0.396666718,1,0,0,69.4658,Pegmatite_rect,5,0,5,0,1,
666b027ce39d6a0e2eb09d99,SCR,2024-06-20_17h20.07.370,LearnStrategy,2023.2.3,Win32,59.88023952,4,2,7,,,,,,,,5,12,,,,,,,,,,,,,5,1.79,1,,,,,,-0.405833321,-0.389166718,0,0,1,1.7901,Obsidian_rect,6,0,6,0,1,
666b027ce39d6a0e2eb09d99,SCR,2024-06-20_17h20.07.370,LearnStrategy,2023.2.3,Win32,59.88023952,4,2,8,,,,,,,,8,10,,,,,,,,,,,,,8,1.532,1,,,,,,0.339166718,-0.385,1,0,0,1.532,Pumice_rect,7,0,7,0,1,
666b027ce39d6a0e2eb09d99,SCR,2024-06-20_17h20.07.370,LearnStrategy,2023.2.3,Win32,59.88023952,4,2,9,,,,,,,,4,12,,,,,,,,,,,,,4,8.069,1,,,,,,0.374166718,-0.235833359,1,0,0,8.0685,Gabbro_rect,8,0,8,0,1,
666b027ce39d6a0e2eb09d99,SCR,2024-06-20_17h20.07.370,LearnStrategy,2023.2.3,Win32,59.88023952,4,2,10,,,,,,,,7,14,,,,,,,,,,,,,6,9.763,0,,,,,,-0.121666641,-0.385,1,0,0,9.7632,Pegmatite_rect,9,0,9,0,1,
666b027ce39d6a0e2eb09d99,SCR,2024-06-20_17h20.07.370,LearnStrategy,2023.2.3,Win32,59.88023952,4,2,11,,,,,,,,2,01,,,,,,,,,,,,,2,10.608,1,,,,,,-0.085833282,-0.245833359,1,0,0,10.6075,Basalt_rect,10,0,10,0,1,
666b027ce39d6a0e2eb09d99,SCR,2024-06-20_17h20.07.370,LearnStrategy,2023.2.3,Win32,59.88023952,4,2,12,,,,,,,,7,10,,,,,,,,,,,,,3,9.377,0,,,,,,0.1,-0.248333359,1,0,0,9.3772,Diorite_rect,11,0,11,0,1,
666b027ce39d6a0e2eb09d99,SCR,2024-06-20_17h20.07.370,LearnStrategy,2023.2.3,Win32,59.88023952,4,2,13,,,,,,,,6,12,,,,,,,,,,,,,3,1.4,0,,,,,,0.095833359,-0.240833359,1,0,0,1.3996,Diorite_rect,12,0,12,0,1,
666b027ce39d6a0e2eb09d99,SCR,2024-06-20_17h20.07.370,LearnStrategy,2023.2.3,Win32,59.88023952,4,2,14,,,,,,,,5,02,,,,,,,,,,,,,5,1.165,1,,,,,,-0.428333321,-0.408333359,1,0,0,1.1647,Obsidian_rect,13,0,13,0,1,
666b027ce39d6a0e2eb09d99,SCR,2024-06-20_17h20.07.370,LearnStrategy,2023.2.3,Win32,59.88023952,4,2,15,,,,,,,,6,08,,,,,,,,,,,,,5,3.262,0,,,,,,-0.371666641,-0.406666718,1,0,0,3.2618,Obsidian_rect,14,0,14,0,1,
666b027ce39d6a0e2eb09d99,SCR,2024-06-20_17h20.07.370,LearnStrategy,2023.2.3,Win32,59.88023952,4,2,16,,,,,,,,3,10,,,,,,,,,,,,,3,2.95,1,,,,,,0.0725,-0.235833359,1,0,0,2.9503,Diorite_rect,15,0,15,0,1,
666b027ce39d6a0e2eb09d99,SCR,2024-06-20_17h20.07.370,LearnStrategy,2023.2.3,Win32,59.88023952,5,1,1,-0.555833321,-0.270833359,1,0,0,13.6754,Basalt_10,2,10,2,1,13.675,7,08,-0.176666641,-0.2475,1,0,0,1.4542,Basalt_rect,2,1.454,1,0,0,0,0,1,,,,,,,,,,,,,
666b027ce39d6a0e2eb09d99,SCR,2024-06-20_17h20.07.370,LearnStrategy,2023.2.3,Win32,59.88023952,5,1,2,-0.425833321,-0.293333359,1,0,0,0.8104,Diorite_08,3,08,2,2,0.81,5,10,-0.081666641,-0.251666718,1,0,0,1.193,Basalt_rect,2,1.193,0,1,0,1,0,1,,,,,,,,,,,,,
666b027ce39d6a0e2eb09d99,SCR,2024-06-20_17h20.07.370,LearnStrategy,2023.2.3,Win32,59.88023952,5,1,3,-0.258333321,-0.271666718,1,0,0,0.7016,Pumice_15,8,15,2,3,0.702,7,06,0.3225,-0.400833359,1,0,0,1.0976,Pumice_rect,8,1.098,1,2,0,2,0,1,,,,,,,,,,,,,
666b027ce39d6a0e2eb09d99,SCR,2024-06-20_17h20.07.370,LearnStrategy,2023.2.3,Win32,59.88023952,5,1,4,-0.068333282,-0.256666718,1,0,0,0.6562,Andesite_03,1,03,2,4,0.656,4,16,-0.1725,-0.270833359,1,0,0,1.1301,Basalt_rect,2,1.13,0,3,0,3,0,1,,,,,,,,,,,,,
666b027ce39d6a0e2eb09d99,SCR,2024-06-20_17h20.07.370,LearnStrategy,2023.2.3,Win32,59.88023952,5,1,5,0.0825,-0.273333359,1,0,0,0.5796,Pegmatite_10,6,10,2,5,0.58,2,02,-0.378333321,-0.2675,1,0,0,0.7936,Andesite_rect,1,0.794,0,4,0,4,0,1,,,,,,,,,,,,,
666b027ce39d6a0e2eb09d99,SCR,2024-06-20_17h20.07.370,LearnStrategy,2023.2.3,Win32,59.88023952,5,1,6,0.2275,-0.275833359,1,0,0,1.1247,Basalt_02,2,02,2,6,1.125,1,06,-0.4,-0.263333359,1,0,0,1.7479,Andesite_rect,1,1.748,0,5,0,5,0,1,,,,,,,,,,,,,
666b027ce39d6a0e2eb09d99,SCR,2024-06-20_17h20.07.370,LearnStrategy,2023.2.3,Win32,59.88023952,5,1,7,0.4325,-0.279166718,1,0,0,0.6068,Basalt_05,2,05,2,7,0.607,4,09,0.383333359,-0.254166718,1,0,0,1.0454,Gabbro_rect,4,1.045,0,6,0,6,0,1,,,,,,,,,,,,,
666b027ce39d6a0e2eb09d99,SCR,2024-06-20_17h20.07.370,LearnStrategy,2023.2.3,Win32,59.88023952,5,1,8,0.410833359,-0.2675,1,0,0,3.7197,Basalt_05,2,05,2,7,3.72,7,04,-0.173333321,-0.2625,1,0,0,1.8463,Basalt_rect,2,1.846,1,7,0,7,0,1,,,,,,,,,,,,,
666b027ce39d6a0e2eb09d99,SCR,2024-06-20_17h20.07.370,LearnStrategy,2023.2.3,Win32,59.88023952,5,1,9,0.536666718,-0.266666718,1,0,0,1.0481,Peridotite_06,7,06,2,8,1.048,3,08,-0.330833321,-0.243333359,1,0,0,1.8425,Andesite_rect,1,1.843,0,8,0,8,0,1,,,,,,,,,,,,,
666b027ce39d6a0e2eb09d99,SCR,2024-06-20_17h20.07.370,LearnStrategy,2023.2.3,Win32,59.88023952,5,1,10,-0.513333321,-0.3825,1,0,0,0.9479,Basalt_04,2,04,1,1,0.948,6,16,-0.168333321,-0.25,1,0,0,0.5415,Basalt_rect,2,0.542,1,9,0,9,0,1,,,,,,,,,,,,,
666b027ce39d6a0e2eb09d99,SCR,2024-06-20_17h20.07.370,LearnStrategy,2023.2.3,Win32,59.88023952,5,1,11,-0.355833321,-0.405833359,1,0,0,0.7644,Obsidian_09,5,09,1,2,0.764,6,16,-0.365,-0.4,1,0,0,0.8941,Obsidian_rect,5,0.894,1,10,0,10,0,1,,,,,,,,,,,,,
666b027ce39d6a0e2eb09d99,SCR,2024-06-20_17h20.07.370,LearnStrategy,2023.2.3,Win32,59.88023952,5,1,12,-0.253333321,-0.45,1,0,0,0.6762,Pumice_05,8,05,1,3,0.676,3,02,0.335833359,-0.380833359,1,0,0,0.9443,Pumice_rect,8,0.944,1,11,0,11,0,1,,,,,,,,,,,,,
666b027ce39d6a0e2eb09d99,SCR,2024-06-20_17h20.07.370,LearnStrategy,2023.2.3,Win32,59.88023952,5,1,13,-0.070833282,-0.429166718,1,0,0,0.9914,Pumice_08,8,08,1,4,0.991,8,05,0.370833359,-0.391666718,1,0,0,0.9604,Pumice_rect,8,0.96,1,12,0,12,0,1,,,,,,,,,,,,,
666b027ce39d6a0e2eb09d99,SCR,2024-06-20_17h20.07.370,LearnStrategy,2023.2.3,Win32,59.88023952,5,1,14,0.091666718,-0.439166718,1,0,0,0.7974,Peridotite_13,7,13,1,5,0.797,6,07,-0.35,-0.2375,1,0,0,3.0152,Andesite_rect,1,3.015,0,13,0,13,0,1,,,,,,,,,,,,,
666b027ce39d6a0e2eb09d99,SCR,2024-06-20_17h20.07.370,LearnStrategy,2023.2.3,Win32,59.88023952,5,1,15,0.238333359,-0.413333359,1,0,0,0.8999,Pegmatite_16,6,16,1,6,0.9,1,07,-0.154166641,-0.379166718,1,0,0,1.5076,Pegmatite_rect,6,1.508,1,14,0,14,0,1,,,,,,,,,,,,,
666b027ce39d6a0e2eb09d99,SCR,2024-06-20_17h20.07.370,LearnStrategy,2023.2.3,Win32,59.88023952,5,1,16,0.2575,-0.421666718,1,0,0,1.0967,Pegmatite_16,6,16,1,6,1.097,7,12,-0.159166641,-0.385833359,1,0,0,1.0587,Pegmatite_rect,6,1.059,1,15,0,15,0,1,,,,,,,,,,,,,
666b027ce39d6a0e2eb09d99,SCR,2024-06-20_17h20.07.370,LearnStrategy,2023.2.3,Win32,59.88023952,5,2,1,,,,,,,,3,13,,,,,,,,,,,,,3,13.381,1,,,,,,0.07,-0.265,1,0,0,13.3813,Diorite_rect,0,0,0,0,1,
666b027ce39d6a0e2eb09d99,SCR,2024-06-20_17h20.07.370,LearnStrategy,2023.2.3,Win32,59.88023952,5,2,2,,,,,,,,2,09,,,,,,,,,,,,,2,12.338,1,,,,,,-0.136666641,-0.239166718,1,0,0,12.3382,Basalt_rect,1,0,1,0,1,
666b027ce39d6a0e2eb09d99,SCR,2024-06-20_17h20.07.370,LearnStrategy,2023.2.3,Win32,59.88023952,5,2,3,,,,,,,,7,05,,,,,,,,,,,,,1,3.371,0,,,,,,-0.356666641,-0.229166718,1,0,0,3.3709,Andesite_rect,2,0,2,0,1,
666b027ce39d6a0e2eb09d99,SCR,2024-06-20_17h20.07.370,LearnStrategy,2023.2.3,Win32,59.88023952,5,2,4,,,,,,,,6,09,,,,,,,,,,,,,6,5.061,1,,,,,,-0.124166641,-0.3925,1,0,0,5.0607,Pegmatite_rect,3,0,3,0,1,
666b027ce39d6a0e2eb09d99,SCR,2024-06-20_17h20.07.370,LearnStrategy,2023.2.3,Win32,59.88023952,5,2,5,,,,,,,,8,03,,,,,,,,,,,,,8,1.2,1,,,,,,0.356666718,-0.393333359,1,0,0,1.2004,Pumice_rect,4,0,4,0,1,
666b027ce39d6a0e2eb09d99,SCR,2024-06-20_17h20.07.370,LearnStrategy,2023.2.3,Win32,59.88023952,5,2,6,,,,,,,,1,16,,,,,,,,,,,,,7,18.383,0,,,,,,0.060833359,-0.394166718,1,0,0,18.3833,Peridotite_rect,5,0,5,0,1,
666b027ce39d6a0e2eb09d99,SCR,2024-06-20_17h20.07.370,LearnStrategy,2023.2.3,Win32,59.88023952,5,2,7,,,,,,,,6,05,,,,,,,,,,,,,6,21.404,1,,,,,,-0.083333282,-0.389166718,1,0,0,21.4038,Pegmatite_rect,6,0,6,0,1,
666b027ce39d6a0e2eb09d99,SCR,2024-06-20_17h20.07.370,LearnStrategy,2023.2.3,Win32,59.88023952,5,2,8,,,,,,,,5,06,,,,,,,,,,,,,5,1.286,1,,,,,,-0.358333321,-0.385,1,0,0,1.2859,Obsidian_rect,7,0,7,0,1,
666b027ce39d6a0e2eb09d99,SCR,2024-06-20_17h20.07.370,LearnStrategy,2023.2.3,Win32,59.88023952,5,2,9,,,,,,,,5,08,,,,,,,,,,,,,5,1.018,1,,,,,,-0.3425,-0.401666718,1,0,0,1.0182,Obsidian_rect,8,0,8,0,1,
666b027ce39d6a0e2eb09d99,SCR,2024-06-20_17h20.07.370,LearnStrategy,2023.2.3,Win32,59.88023952,5,2,10,,,,,,,,4,15,,,,,,,,,,,,,4,1.894,1,,,,,,0.32,-0.2525,1,0,0,1.8939,Gabbro_rect,9,0,9,0,1,
666b027ce39d6a0e2eb09d99,SCR,2024-06-20_17h20.07.370,LearnStrategy,2023.2.3,Win32,59.88023952,5,2,11,,,,,,,,1,05,,,,,,,,,,,,,1,2.884,1,,,,,,-0.384166641,-0.253333359,1,0,0,2.8837,Andesite_rect,10,0,10,0,1,
666b027ce39d6a0e2eb09d99,SCR,2024-06-20_17h20.07.370,LearnStrategy,2023.2.3,Win32,59.88023952,5,2,12,,,,,,,,4,10,,,,,,,,,,,,,2,1.936,0,,,,,,-0.068333282,-0.248333359,1,0,0,1.936,Basalt_rect,11,0,11,0,1,
666b027ce39d6a0e2eb09d99,SCR,2024-06-20_17h20.07.370,LearnStrategy,2023.2.3,Win32,59.88023952,5,2,13,,,,,,,,3,15,,,,,,,,,,,,,3,2.105,1,,,,,,0.075,-0.261666718,1,0,0,2.1046,Diorite_rect,12,0,12,0,1,
666b027ce39d6a0e2eb09d99,SCR,2024-06-20_17h20.07.370,LearnStrategy,2023.2.3,Win32,59.88023952,5,2,14,,,,,,,,8,06,,,,,,,,,,,,,8,1.193,1,,,,,,0.368333359,-0.418333359,1,0,0,1.1929,Pumice_rect,13,0,13,0,1,
666b027ce39d6a0e2eb09d99,SCR,2024-06-20_17h20.07.370,LearnStrategy,2023.2.3,Win32,59.88023952,5,2,15,,,,,,,,7,15,,,,,,,,,,,,,1,1.433,0,,,,,,-0.369166641,-0.264166718,1,0,0,1.4332,Andesite_rect,14,0,14,0,1,
666b027ce39d6a0e2eb09d99,SCR,2024-06-20_17h20.07.370,LearnStrategy,2023.2.3,Win32,59.88023952,5,2,16,,,,,,,,2,12,,,,,,,,,,,,,1,1.188,0,,,,,,-0.349166641,-0.235833359,1,0,0,1.1882,Andesite_rect,15,0,15,0,1,
666b027ce39d6a0e2eb09d99,SCR,2024-06-20_17h20.07.370,LearnStrategy,2023.2.3,Win32,59.88023952,6,1,1,-0.223333321,-0.120833359,1,0,0,67.5486,Basalt_11,2,11,3,3,67.549,1,07,-0.35,-0.258333359,1,0,0,0.8063,Andesite_rect,1,0.806,0,0,0,0,0,1,,,,,,,,,,,,,
666b027ce39d6a0e2eb09d99,SCR,2024-06-20_17h20.07.370,LearnStrategy,2023.2.3,Win32,59.88023952,6,1,2,-0.060833282,-0.118333359,1,0,0,0.7171,Gabbro_16,4,16,3,4,0.717,7,16,0.35,-0.234166718,1,0,0,0.6455,Gabbro_rect,4,0.646,1,1,0,1,0,1,,,,,,,,,,,,,
666b027ce39d6a0e2eb09d99,SCR,2024-06-20_17h20.07.370,LearnStrategy,2023.2.3,Win32,59.88023952,6,1,3,-0.58,0.38833333,1,0,0,0.9319,Peridotite_04,7,04,6,1,0.932,1,02,-0.33,-0.245,1,0,0,1.2329,Andesite_rect,1,1.233,0,2,0,2,0,1,,,,,,,,,,,,,
666b027ce39d6a0e2eb09d99,SCR,2024-06-20_17h20.07.370,LearnStrategy,2023.2.3,Win32,59.88023952,6,1,4,-0.373333321,0.38333333,1,0,0,1.2292,Andesite_06,1,06,6,2,1.229,7,08,-0.3825,-0.255,1,0,0,0.9682,Andesite_rect,1,0.968,1,3,0,3,0,1,,,,,,,,,,,,,
666b027ce39d6a0e2eb09d99,SCR,2024-06-20_17h20.07.370,LearnStrategy,2023.2.3,Win32,59.88023952,6,1,5,-0.24,0.441666665,1,0,0,0.8443,Gabbro_11,4,11,6,3,0.844,3,07,0.350833359,-0.246666718,1,0,0,0.9535,Gabbro_rect,4,0.953,1,4,0,4,0,1,,,,,,,,,,,,,
666b027ce39d6a0e2eb09d99,SCR,2024-06-20_17h20.07.370,LearnStrategy,2023.2.3,Win32,59.88023952,6,1,6,-0.058333282,0.41083333,1,0,0,0.796,Peridotite_08,7,08,6,4,0.796,7,08,-0.3275,-0.25,1,0,0,1.1759,Andesite_rect,1,1.176,0,5,0,5,0,1,,,,,,,,,,,,,
666b027ce39d6a0e2eb09d99,SCR,2024-06-20_17h20.07.370,LearnStrategy,2023.2.3,Win32,59.88023952,6,1,7,0.071666718,0.40916666,1,0,0,1.392,Andesite_11,1,11,6,5,1.392,2,05,-0.353333321,-0.253333359,1,0,0,1.5486,Andesite_rect,1,1.549,1,6,0,6,0,1,,,,,,,,,,,,,
666b027ce39d6a0e2eb09d99,SCR,2024-06-20_17h20.07.370,LearnStrategy,2023.2.3,Win32,59.88023952,6,1,8,0.220833359,0.41583333,1,0,0,0.793,Obsidian_04,5,04,6,6,0.793,2,04,-0.364166641,-0.3875,1,0,0,0.9347,Obsidian_rect,5,0.935,1,7,0,7,0,1,,,,,,,,,,,,,
666b027ce39d6a0e2eb09d99,SCR,2024-06-20_17h20.07.370,LearnStrategy,2023.2.3,Win32,59.88023952,6,1,9,0.436666718,0.43083333,1,0,0,0.9195,Diorite_11,3,11,6,7,0.919,5,10,0.080833359,-0.258333359,1,0,0,1.4569,Diorite_rect,3,1.457,1,8,0,8,0,1,,,,,,,,,,,,,
666b027ce39d6a0e2eb09d99,SCR,2024-06-20_17h20.07.370,LearnStrategy,2023.2.3,Win32,59.88023952,6,1,10,0.520833435,0.375,1,0,0,0.7668,Pumice_09,8,09,6,8,0.767,3,12,0.4075,-0.394166718,1,0,0,0.9516,Pumice_rect,8,0.952,1,9,0,9,0,1,,,,,,,,,,,,,
666b027ce39d6a0e2eb09d99,SCR,2024-06-20_17h20.07.370,LearnStrategy,2023.2.3,Win32,59.88023952,6,1,11,-0.535833321,0.22916666,1,0,0,0.647,Obsidian_10,5,10,5,1,0.647,4,16,-0.380833321,-0.415833359,1,0,0,0.7002,Obsidian_rect,5,0.7,1,10,0,10,0,1,,,,,,,,,,,,,
666b027ce39d6a0e2eb09d99,SCR,2024-06-20_17h20.07.370,LearnStrategy,2023.2.3,Win32,59.88023952,6,1,12,-0.428333321,0.245,1,0,0,0.7307,Pegmatite_07,6,07,5,2,0.731,4,09,0.105833359,-0.394166718,1,0,0,1.3108,Peridotite_rect,7,1.311,0,11,0,11,0,1,,,,,,,,,,,,,
666b027ce39d6a0e2eb09d99,SCR,2024-06-20_17h20.07.370,LearnStrategy,2023.2.3,Win32,59.88023952,6,1,13,-0.221666641,0.23,1,0,0,1.4895,Andesite_02,1,02,5,3,1.489,7,08,-0.346666641,-0.258333359,1,0,0,0.959,Andesite_rect,1,0.959,1,12,0,12,0,1,,,,,,,,,,,,,
666b027ce39d6a0e2eb09d99,SCR,2024-06-20_17h20.07.370,LearnStrategy,2023.2.3,Win32,59.88023952,6,1,14,-0.211666641,0.23166666,1,0,0,0.9076,Andesite_02,1,02,5,3,0.908,6,07,-0.334166641,-0.251666718,1,0,0,2.5538,Andesite_rect,1,2.554,1,13,0,13,0,1,,,,,,,,,,,,,
666b027ce39d6a0e2eb09d99,SCR,2024-06-20_17h20.07.370,LearnStrategy,2023.2.3,Win32,59.88023952,6,1,15,-0.0675,-0.135,1,0,0,0.7108,Gabbro_16,4,16,3,4,0.711,1,11,0.361666718,-0.27,1,0,0,0.675,Gabbro_rect,4,0.675,1,14,0,14,0,1,,,,,,,,,,,,,
666b027ce39d6a0e2eb09d99,SCR,2024-06-20_17h20.07.370,LearnStrategy,2023.2.3,Win32,59.88023952,6,1,16,0.068333359,-0.263333359,1,0,0,1.2568,Pegmatite_10,6,10,2,5,1.257,6,11,-0.339166641,-0.241666718,1,0,0,0.581,Andesite_rect,1,0.581,0,15,0,15,0,1,,,,,,,,,,,,,
666b027ce39d6a0e2eb09d99,SCR,2024-06-20_17h20.07.370,LearnStrategy,2023.2.3,Win32,59.88023952,6,2,1,,,,,,,,5,16,,,,,,,,,,,,,5,1.11,1,,,,,,-0.364166641,-0.4125,1,0,0,1.1095,Obsidian_rect,0,0,0,0,1,
666b027ce39d6a0e2eb09d99,SCR,2024-06-20_17h20.07.370,LearnStrategy,2023.2.3,Win32,59.88023952,6,2,2,,,,,,,,4,05,,,,,,,,,,,,,7,2.968,0,,,,,,0.0575,-0.406666718,1,0,0,2.9676,Peridotite_rect,1,0,1,0,1,
666b027ce39d6a0e2eb09d99,SCR,2024-06-20_17h20.07.370,LearnStrategy,2023.2.3,Win32,59.88023952,6,2,3,,,,,,,,3,14,,,,,,,,,,,,,3,1.033,1,,,,,,0.1675,-0.238333359,1,0,0,1.0327,Diorite_rect,2,0,2,0,1,
666b027ce39d6a0e2eb09d99,SCR,2024-06-20_17h20.07.370,LearnStrategy,2023.2.3,Win32,59.88023952,6,2,4,,,,,,,,5,14,,,,,,,,,,,,,5,1.04,1,,,,,,-0.368333321,-0.385,1,0,0,1.0404,Obsidian_rect,3,0,3,0,1,
666b027ce39d6a0e2eb09d99,SCR,2024-06-20_17h20.07.370,LearnStrategy,2023.2.3,Win32,59.88023952,6,2,5,,,,,,,,7,02,,,,,,,,,,,,,6,1.607,0,,,,,,-0.096666641,-0.41,1,0,0,1.6067,Pegmatite_rect,4,0,4,0,1,
666b027ce39d6a0e2eb09d99,SCR,2024-06-20_17h20.07.370,LearnStrategy,2023.2.3,Win32,59.88023952,6,2,6,,,,,,,,4,01,,,,,,,,,,,,,1,1.79,0,,,,,,-0.329166641,-0.241666718,1,0,0,1.7901,Andesite_rect,5,0,5,0,1,
666b027ce39d6a0e2eb09d99,SCR,2024-06-20_17h20.07.370,LearnStrategy,2023.2.3,Win32,59.88023952,6,2,7,,,,,,,,2,16,,,,,,,,,,,,,4,1.182,0,,,,,,0.369166718,-0.269166718,1,0,0,1.182,Gabbro_rect,6,0,6,0,1,
666b027ce39d6a0e2eb09d99,SCR,2024-06-20_17h20.07.370,LearnStrategy,2023.2.3,Win32,59.88023952,6,2,8,,,,,,,,6,06,,,,,,,,,,,,,7,2.92,0,,,,,,0.099166718,-0.404166718,1,0,0,2.9201,Peridotite_rect,7,0,7,0,1,
666b027ce39d6a0e2eb09d99,SCR,2024-06-20_17h20.07.370,LearnStrategy,2023.2.3,Win32,59.88023952,6,2,9,,,,,,,,8,16,,,,,,,,,,,,,8,1.032,1,,,,,,0.338333359,-0.403333359,1,0,0,1.0316,Pumice_rect,8,0,8,0,1,
666b027ce39d6a0e2eb09d99,SCR,2024-06-20_17h20.07.370,LearnStrategy,2023.2.3,Win32,59.88023952,6,2,10,,,,,,,,1,01,,,,,,,,,,,,,2,3.42,0,,,,,,-0.146666641,-0.261666718,1,0,0,3.4198,Basalt_rect,9,0,9,0,1,
666b027ce39d6a0e2eb09d99,SCR,2024-06-20_17h20.07.370,LearnStrategy,2023.2.3,Win32,59.88023952,6,2,11,,,,,,,,2,06,,,,,,,,,,,,,2,1.151,1,,,,,,-0.146666641,-0.261666718,1,0,0,1.1513,Basalt_rect,10,0,10,0,1,
666b027ce39d6a0e2eb09d99,SCR,2024-06-20_17h20.07.370,LearnStrategy,2023.2.3,Win32,59.88023952,6,2,12,,,,,,,,1,14,,,,,,,,,,,,,1,2.034,1,,,,,,-0.37,-0.270833359,1,0,0,2.0342,Andesite_rect,11,0,11,0,1,
666b027ce39d6a0e2eb09d99,SCR,2024-06-20_17h20.07.370,LearnStrategy,2023.2.3,Win32,59.88023952,6,2,13,,,,,,,,3,16,,,,,,,,,,,,,3,7.368,1,,,,,,0.074166718,-0.245833359,1,0,0,7.3683,Diorite_rect,12,0,12,0,1,
666b027ce39d6a0e2eb09d99,SCR,2024-06-20_17h20.07.370,LearnStrategy,2023.2.3,Win32,59.88023952,6,2,14,,,,,,,,8,02,,,,,,,,,,,,,8,1.092,1,,,,,,0.345,-0.39,1,0,0,1.0917,Pumice_rect,13,0,13,0,1,
666b027ce39d6a0e2eb09d99,SCR,2024-06-20_17h20.07.370,LearnStrategy,2023.2.3,Win32,59.88023952,6,2,15,,,,,,,,6,03,,,,,,,,,,,,,6,2.093,1,,,,,,-0.096666641,-0.4,1,0,0,2.0934,Pegmatite_rect,14,0,14,0,1,
666b027ce39d6a0e2eb09d99,SCR,2024-06-20_17h20.07.370,LearnStrategy,2023.2.3,Win32,59.88023952,6,2,16,,,,,,,,7,07,,,,,,,,,,,,,7,1.79,1,,,,,,0.068333359,-0.418333359,1,0,0,1.79,Peridotite_rect,15,0,15,0,1,
666b027ce39d6a0e2eb09d99,SCR,2024-06-20_17h20.07.370,LearnStrategy,2023.2.3,Win32,59.88023952,7,1,1,-0.56166666,0.38083333,1,0,0,0.6277,Peridotite_04,7,04,6,1,0.628,2,02,-0.110833282,-0.4125,0,0,1,1.562,Pegmatite_rect,6,1.562,0,0,0,0,0,1,,,,,,,,,,,,,
666b027ce39d6a0e2eb09d99,SCR,2024-06-20_17h20.07.370,LearnStrategy,2023.2.3,Win32,59.88023952,7,1,2,-0.403333321,0.38333333,1,0,0,1.7657,Andesite_06,1,06,6,2,1.766,1,10,0.110833359,-0.391666718,1,0,0,1.792,Peridotite_rect,7,1.792,0,1,0,1,0,1,,,,,,,,,,,,,
666b027ce39d6a0e2eb09d99,SCR,2024-06-20_17h20.07.370,LearnStrategy,2023.2.3,Win32,59.88023952,7,1,3,0.0875,-0.270833359,1,0,0,2.4588,Pegmatite_10,6,10,2,5,2.459,7,16,-0.4125,-0.2375,1,0,0,1.7116,Andesite_rect,1,1.712,0,2,0,2,0,1,,,,,,,,,,,,,
666b027ce39d6a0e2eb09d99,SCR,2024-06-20_17h20.07.370,LearnStrategy,2023.2.3,Win32,59.88023952,7,1,4,0.059166718,-0.3025,1,0,0,1.6474,Pegmatite_10,6,10,2,5,1.647,1,07,-0.148333282,-0.404166718,1,0,0,0.7087,Pegmatite_rect,6,0.709,1,3,0,3,0,1,,,,,,,,,,,,,
666b027ce39d6a0e2eb09d99,SCR,2024-06-20_17h20.07.370,LearnStrategy,2023.2.3,Win32,59.88023952,7,1,5,0.3475,-0.391666718,1,0,0,1.5742,Gabbro_09,4,09,1,7,1.574,7,04,-0.095,-0.255833359,1,0,0,1.7872,Basalt_rect,2,1.787,0,4,0,4,0,1,,,,,,,,,,,,,
666b027ce39d6a0e2eb09d99,SCR,2024-06-20_17h20.07.370,LearnStrategy,2023.2.3,Win32,59.88023952,7,1,6,0.208333359,-0.42,1,0,0,1.2411,Pegmatite_16,6,16,1,6,1.241,4,03,0.12,-0.4125,1,0,0,0.446,Peridotite_rect,7,0.446,0,5,0,5,0,1,,,,,,,,,,,,,
666b027ce39d6a0e2eb09d99,SCR,2024-06-20_17h20.07.370,LearnStrategy,2023.2.3,Win32,59.88023952,7,1,7,-0.52916666,-0.075833359,1,0,0,4.3411,Pegmatite_11,6,11,3,1,4.341,7,06,0.053333359,-0.385833359,0,0,1,0.8821,Peridotite_rect,7,0.882,0,6,0,6,0,1,,,,,,,,,,,,,
666b027ce39d6a0e2eb09d99,SCR,2024-06-20_17h20.07.370,LearnStrategy,2023.2.3,Win32,59.88023952,7,1,8,0.241666718,0.094166641,1,0,0,0.6802,Pegmatite_13,6,13,4,6,0.68,3,09,-0.0675,-0.390833359,1,0,0,1.3335,Pegmatite_rect,6,1.333,1,7,0,7,0,1,,,,,,,,,,,,,
666b027ce39d6a0e2eb09d99,SCR,2024-06-20_17h20.07.370,LearnStrategy,2023.2.3,Win32,59.88023952,7,1,9,0.089166718,0.083333321,1,0,0,0.7245,Pumice_13,8,13,4,5,0.725,1,06,0.318333359,-0.42,1,0,0,0.9936,Pumice_rect,8,0.994,1,8,0,8,0,1,,,,,,,,,,,,,
666b027ce39d6a0e2eb09d99,SCR,2024-06-20_17h20.07.370,LearnStrategy,2023.2.3,Win32,59.88023952,7,1,10,0.5425,-0.433333359,1,0,0,1.1005,Pegmatite_15,6,15,1,8,1.101,2,02,-0.115,-0.4175,1,0,0,1.7057,Pegmatite_rect,6,1.706,1,9,0,9,0,1,,,,,,,,,,,,,
666b027ce39d6a0e2eb09d99,SCR,2024-06-20_17h20.07.370,LearnStrategy,2023.2.3,Win32,59.88023952,7,1,11,0.079166718,0.0625,1,0,0,0.6342,Pumice_13,8,13,4,5,0.634,6,07,0.335,-0.404166718,1,0,0,1.52,Pumice_rect,8,1.52,1,10,0,10,0,1,,,,,,,,,,,,,
666b027ce39d6a0e2eb09d99,SCR,2024-06-20_17h20.07.370,LearnStrategy,2023.2.3,Win32,59.88023952,7,1,12,-0.078333282,-0.1125,1,0,0,0.9823,Gabbro_16,4,16,3,4,0.982,6,15,0.35,-0.231666718,1,0,0,1.2806,Gabbro_rect,4,1.281,1,11,0,11,0,1,,,,,,,,,,,,,
666b027ce39d6a0e2eb09d99,SCR,2024-06-20_17h20.07.370,LearnStrategy,2023.2.3,Win32,59.88023952,7,1,13,0.565,0.118333321,1,0,0,1.0353,Diorite_09,3,09,4,8,1.035,4,09,0.1125,-0.249166718,1,0,0,1.11,Diorite_rect,3,1.11,1,12,0,12,0,1,,,,,,,,,,,,,
666b027ce39d6a0e2eb09d99,SCR,2024-06-20_17h20.07.370,LearnStrategy,2023.2.3,Win32,59.88023952,7,1,14,-0.58416666,-0.273333359,1,0,0,0.8039,Basalt_10,2,10,2,1,0.804,4,13,0.4,-0.236666718,1,0,0,1.7822,Gabbro_rect,4,1.782,0,13,0,13,0,1,,,,,,,,,,,,,
666b027ce39d6a0e2eb09d99,SCR,2024-06-20_17h20.07.370,LearnStrategy,2023.2.3,Win32,59.88023952,7,1,15,-0.51416666,0.095,1,0,0,1.0433,Andesite_10,1,10,4,1,1.043,5,07,-0.355,-0.231666718,1,0,0,0.6027,Andesite_rect,1,0.603,1,14,0,14,0,1,,,,,,,,,,,,,
666b027ce39d6a0e2eb09d99,SCR,2024-06-20_17h20.07.370,LearnStrategy,2023.2.3,Win32,59.88023952,7,1,16,-0.2225,0.0975,1,0,0,1.2631,Obsidian_07,5,07,4,3,1.263,7,13,-0.373333321,-0.405833359,1,0,0,0.9825,Obsidian_rect,5,0.983,1,15,0,15,0,1,,,,,,,,,,,,,
666b027ce39d6a0e2eb09d99,SCR,2024-06-20_17h20.07.370,LearnStrategy,2023.2.3,Win32,59.88023952,7,2,1,,,,,,,,1,16,,,,,,,,,,,,,1,1.228,1,,,,,,-0.3525,-0.256666718,1,0,0,1.2277,Andesite_rect,0,0,0,0,1,
666b027ce39d6a0e2eb09d99,SCR,2024-06-20_17h20.07.370,LearnStrategy,2023.2.3,Win32,59.88023952,7,2,2,,,,,,,,8,02,,,,,,,,,,,,,8,1.276,1,,,,,,0.316666718,-0.388333359,1,0,0,1.2757,Pumice_rect,1,0,1,0,1,
666b027ce39d6a0e2eb09d99,SCR,2024-06-20_17h20.07.370,LearnStrategy,2023.2.3,Win32,59.88023952,7,2,3,,,,,,,,3,13,,,,,,,,,,,,,3,1.172,1,,,,,,0.205,-0.255,1,0,0,1.1718,Diorite_rect,2,0,2,0,1,
666b027ce39d6a0e2eb09d99,SCR,2024-06-20_17h20.07.370,LearnStrategy,2023.2.3,Win32,59.88023952,7,2,4,,,,,,,,3,14,,,,,,,,,,,,,3,0.946,1,,,,,,0.119166718,-0.234166718,1,0,0,0.9464,Diorite_rect,3,0,3,0,1,
666b027ce39d6a0e2eb09d99,SCR,2024-06-20_17h20.07.370,LearnStrategy,2023.2.3,Win32,59.88023952,7,2,5,,,,,,,,1,01,,,,,,,,,,,,,2,2.698,0,,,,,,-0.163333321,-0.2525,1,0,0,2.6985,Basalt_rect,4,0,4,0,1,
666b027ce39d6a0e2eb09d99,SCR,2024-06-20_17h20.07.370,LearnStrategy,2023.2.3,Win32,59.88023952,7,2,6,,,,,,,,2,08,,,,,,,,,,,,,2,1.049,1,,,,,,-0.163333321,-0.2525,1,0,0,1.0493,Basalt_rect,5,0,5,0,1,
666b027ce39d6a0e2eb09d99,SCR,2024-06-20_17h20.07.370,LearnStrategy,2023.2.3,Win32,59.88023952,7,2,7,,,,,,,,5,02,,,,,,,,,,,,,5,0.97,1,,,,,,-0.365,-0.400833359,1,0,0,0.9697,Obsidian_rect,6,0,6,0,1,
666b027ce39d6a0e2eb09d99,SCR,2024-06-20_17h20.07.370,LearnStrategy,2023.2.3,Win32,59.88023952,7,2,8,,,,,,,,7,02,,,,,,,,,,,,,6,2.066,0,,,,,,-0.089166641,-0.408333359,1,0,0,2.0656,Pegmatite_rect,7,0,7,0,1,
666b027ce39d6a0e2eb09d99,SCR,2024-06-20_17h20.07.370,LearnStrategy,2023.2.3,Win32,59.88023952,7,2,9,,,,,,,,2,06,,,,,,,,,,,,,2,1.26,1,,,,,,-0.1375,-0.250833359,1,0,0,1.2604,Basalt_rect,8,0,8,0,1,
666b027ce39d6a0e2eb09d99,SCR,2024-06-20_17h20.07.370,LearnStrategy,2023.2.3,Win32,59.88023952,7,2,10,,,,,,,,6,06,,,,,,,,,,,,,6,1.506,1,,,,,,-0.049166641,-0.394166718,1,0,0,1.5057,Pegmatite_rect,9,0,9,0,1,
666b027ce39d6a0e2eb09d99,SCR,2024-06-20_17h20.07.370,LearnStrategy,2023.2.3,Win32,59.88023952,7,2,11,,,,,,,,8,06,,,,,,,,,,,,,8,0.936,1,,,,,,0.388333359,-0.3925,1,0,0,0.9357,Pumice_rect,10,0,10,0,1,
666b027ce39d6a0e2eb09d99,SCR,2024-06-20_17h20.07.370,LearnStrategy,2023.2.3,Win32,59.88023952,7,2,12,,,,,,,,4,01,,,,,,,,,,,,,1,1.549,0,,,,,,-0.336666641,-0.234166718,1,0,0,1.5489,Andesite_rect,11,0,11,0,1,
666b027ce39d6a0e2eb09d99,SCR,2024-06-20_17h20.07.370,LearnStrategy,2023.2.3,Win32,59.88023952,7,2,13,,,,,,,,6,05,,,,,,,,,,,,,6,1.825,1,,,,,,-0.138333282,-0.406666718,1,0,0,1.8248,Pegmatite_rect,12,0,12,0,1,
666b027ce39d6a0e2eb09d99,SCR,2024-06-20_17h20.07.370,LearnStrategy,2023.2.3,Win32,59.88023952,7,2,14,,,,,,,,7,10,,,,,,,,,,,,,1,1.734,0,,,,,,-0.331666641,-0.240833359,1,0,0,1.7342,Andesite_rect,13,0,13,0,1,
666b027ce39d6a0e2eb09d99,SCR,2024-06-20_17h20.07.370,LearnStrategy,2023.2.3,Win32,59.88023952,7,2,15,,,,,,,,4,10,,,,,,,,,,,,,2,2.78,0,,,,,,-0.028333282,-0.233333359,1,0,0,2.7796,Basalt_rect,14,0,14,0,1,
666b027ce39d6a0e2eb09d99,SCR,2024-06-20_17h20.07.370,LearnStrategy,2023.2.3,Win32,59.88023952,7,2,16,,,,,,,,5,06,,,,,,,,,,,,,5,1.523,1,,,,,,-0.374166641,-0.4175,1,0,0,1.5228,Obsidian_rect,15,0,15,0,1,
666b027ce39d6a0e2eb09d99,SCR,2024-06-20_17h20.07.370,LearnStrategy,2023.2.3,Win32,59.88023952,8,1,1,-0.50416666,0.38083333,1,0,0,1.3879,Peridotite_04,7,04,6,1,1.388,4,14,0.074166718,-0.4,1,0,0,1.4155,Peridotite_rect,7,1.415,1,0,0,0,0,1,,,,,,,,,,,,,
666b027ce39d6a0e2eb09d99,SCR,2024-06-20_17h20.07.370,LearnStrategy,2023.2.3,Win32,59.88023952,8,1,2,-0.436666641,0.42,1,0,0,0.518,Andesite_06,1,06,6,2,0.518,1,03,-0.349166641,-0.254166718,1,0,0,0.8351,Andesite_rect,1,0.835,1,1,0,1,0,1,,,,,,,,,,,,,
666b027ce39d6a0e2eb09d99,SCR,2024-06-20_17h20.07.370,LearnStrategy,2023.2.3,Win32,59.88023952,8,1,3,-0.199166641,0.3825,1,0,0,0.7255,Gabbro_11,4,11,6,3,0.726,1,06,0.320833359,-0.230833359,1,0,0,1.2307,Gabbro_rect,4,1.231,1,2,0,2,0,1,,,,,,,,,,,,,
666b027ce39d6a0e2eb09d99,SCR,2024-06-20_17h20.07.370,LearnStrategy,2023.2.3,Win32,59.88023952,8,1,4,-0.115,0.40583333,1,0,0,0.7802,Peridotite_08,7,08,6,4,0.78,2,10,-0.359166641,-0.241666718,1,0,0,2.0587,Andesite_rect,1,2.059,0,3,0,3,0,1,,,,,,,,,,,,,
666b027ce39d6a0e2eb09d99,SCR,2024-06-20_17h20.07.370,LearnStrategy,2023.2.3,Win32,59.88023952,8,1,5,0.061666718,0.42083333,1,0,0,0.7701,Andesite_11,1,11,6,5,0.77,3,02,-0.304166641,-0.2375,1,0,0,2.1838,Andesite_rect,1,2.184,1,4,0,4,0,1,,,,,,,,,,,,,
666b027ce39d6a0e2eb09d99,SCR,2024-06-20_17h20.07.370,LearnStrategy,2023.2.3,Win32,59.88023952,8,1,6,0.270833359,0.3925,1,0,0,0.7248,Obsidian_04,5,04,6,6,0.725,4,16,-0.388333321,-0.414166718,1,0,0,0.8055,Obsidian_rect,5,0.806,1,5,0,5,0,1,,,,,,,,,,,,,
666b027ce39d6a0e2eb09d99,SCR,2024-06-20_17h20.07.370,LearnStrategy,2023.2.3,Win32,59.88023952,8,1,7,0.3975,0.431666665,1,0,0,0.7606,Diorite_11,3,11,6,7,0.761,4,11,0.026666718,-0.3975,1,0,0,1.6664,Peridotite_rect,7,1.666,0,6,0,6,0,1,,,,,,,,,,,,,
666b027ce39d6a0e2eb09d99,SCR,2024-06-20_17h20.07.370,LearnStrategy,2023.2.3,Win32,59.88023952,8,1,8,0.1075,-0.425833359,1,0,0,2.2504,Peridotite_13,7,13,1,5,2.25,2,05,0.074166718,-0.395,1,0,0,0.8809,Peridotite_rect,7,0.881,1,7,0,7,0,1,,,,,,,,,,,,,
666b027ce39d6a0e2eb09d99,SCR,2024-06-20_17h20.07.370,LearnStrategy,2023.2.3,Win32,59.88023952,8,1,9,0.5775,-0.420833359,1,0,0,0.7929,Pegmatite_15,6,15,1,8,0.793,7,06,-0.118333282,-0.395833359,1,0,0,0.7913,Pegmatite_rect,6,0.791,1,8,0,8,0,1,,,,,,,,,,,,,
666b027ce39d6a0e2eb09d99,SCR,2024-06-20_17h20.07.370,LearnStrategy,2023.2.3,Win32,59.88023952,8,1,10,-0.371666641,-0.255833359,1,0,0,1.2523,Diorite_08,3,08,2,2,1.252,7,06,0.078333359,-0.239166718,1,0,0,1.1655,Diorite_rect,3,1.166,1,9,0,9,0,1,,,,,,,,,,,,,
666b027ce39d6a0e2eb09d99,SCR,2024-06-20_17h20.07.370,LearnStrategy,2023.2.3,Win32,59.88023952,8,1,11,0.376666718,-0.121666679,1,0,0,0.8038,Diorite_07,3,07,3,7,0.804,6,16,0.1125,-0.265833359,1,0,0,1.1114,Diorite_rect,3,1.111,1,10,0,10,0,1,,,,,,,,,,,,,
666b027ce39d6a0e2eb09d99,SCR,2024-06-20_17h20.07.370,LearnStrategy,2023.2.3,Win32,59.88023952,8,1,12,-0.580833321,0.1175,1,0,0,1.1459,Andesite_10,1,10,4,1,1.146,7,04,-0.334166641,-0.2625,1,0,0,0.6332,Andesite_rect,1,0.633,1,11,0,11,0,1,,,,,,,,,,,,,
666b027ce39d6a0e2eb09d99,SCR,2024-06-20_17h20.07.370,LearnStrategy,2023.2.3,Win32,59.88023952,8,1,13,0.511666718,0.083333321,1,0,0,0.7085,Diorite_09,3,09,4,8,0.708,4,09,0.139166718,-0.251666718,1,0,0,0.685,Diorite_rect,3,0.685,1,12,0,12,0,1,,,,,,,,,,,,,
666b027ce39d6a0e2eb09d99,SCR,2024-06-20_17h20.07.370,LearnStrategy,2023.2.3,Win32,59.88023952,8,1,14,-0.23,-0.264166718,1,0,0,1.576,Pumice_15,8,15,2,3,1.576,7,04,0.351666718,-0.386666718,1,0,0,1.0259,Pumice_rect,8,1.026,1,13,0,13,0,1,,,,,,,,,,,,,
666b027ce39d6a0e2eb09d99,SCR,2024-06-20_17h20.07.370,LearnStrategy,2023.2.3,Win32,59.88023952,8,1,15,0.524166718,-0.428333359,1,0,0,0.8862,Pegmatite_15,6,15,1,8,0.886,6,10,-0.1225,-0.4,1,0,0,0.7403,Pegmatite_rect,6,0.74,1,14,0,14,0,1,,,,,,,,,,,,,
666b027ce39d6a0e2eb09d99,SCR,2024-06-20_17h20.07.370,LearnStrategy,2023.2.3,Win32,59.88023952,8,1,16,-0.044166641,-0.2725,1,0,0,1.6044,Andesite_03,1,03,2,4,1.604,1,02,-0.344166641,-0.234166718,1,0,0,0.6552,Andesite_rect,1,0.655,1,15,0,15,0,1,,,,,,,,,,,,,
666b027ce39d6a0e2eb09d99,SCR,2024-06-20_17h20.07.370,LearnStrategy,2023.2.3,Win32,59.88023952,8,2,1,,,,,,,,7,15,,,,,,,,,,,,,7,2.108,1,,,,,,0.09,-0.395833359,1,0,0,2.1076,Peridotite_rect,0,0,0,0,1,
666b027ce39d6a0e2eb09d99,SCR,2024-06-20_17h20.07.370,LearnStrategy,2023.2.3,Win32,59.88023952,8,2,2,,,,,,,,5,08,,,,,,,,,,,,,5,1.035,1,,,,,,-0.335,-0.416666718,1,0,0,1.0347,Obsidian_rect,1,0,1,0,1,
666b027ce39d6a0e2eb09d99,SCR,2024-06-20_17h20.07.370,LearnStrategy,2023.2.3,Win32,59.88023952,8,2,3,,,,,,,,6,03,,,,,,,,,,,,,6,1.216,1,,,,,,-0.1675,-0.41,1,0,0,1.2165,Pegmatite_rect,2,0,2,0,1,
666b027ce39d6a0e2eb09d99,SCR,2024-06-20_17h20.07.370,LearnStrategy,2023.2.3,Win32,59.88023952,8,2,4,,,,,,,,3,15,,,,,,,,,,,,,3,2.264,1,,,,,,0.130833359,-0.251666718,1,0,0,2.2637,Diorite_rect,3,0,3,0,1,
666b027ce39d6a0e2eb09d99,SCR,2024-06-20_17h20.07.370,LearnStrategy,2023.2.3,Win32,59.88023952,8,2,5,,,,,,,,8,10,,,,,,,,,,,,,8,1.289,1,,,,,,0.385833359,-0.395,1,0,0,1.2893,Pumice_rect,4,0,4,0,1,
666b027ce39d6a0e2eb09d99,SCR,2024-06-20_17h20.07.370,LearnStrategy,2023.2.3,Win32,59.88023952,8,2,6,,,,,,,,7,14,,,,,,,,,,,,,6,2.211,0,,,,,,-0.108333282,-0.3975,1,0,0,2.2109,Pegmatite_rect,5,0,5,0,1,
666b027ce39d6a0e2eb09d99,SCR,2024-06-20_17h20.07.370,LearnStrategy,2023.2.3,Win32,59.88023952,8,2,7,,,,,,,,3,10,,,,,,,,,,,,,3,1.757,1,,,,,,0.063333359,-0.27,1,0,0,1.7572,Diorite_rect,6,0,6,0,1,
666b027ce39d6a0e2eb09d99,SCR,2024-06-20_17h20.07.370,LearnStrategy,2023.2.3,Win32,59.88023952,8,2,8,,,,,,,,2,01,,,,,,,,,,,,,2,1.281,1,,,,,,-0.1475,-0.2525,1,0,0,1.2808,Basalt_rect,7,0,7,0,1,
666b027ce39d6a0e2eb09d99,SCR,2024-06-20_17h20.07.370,LearnStrategy,2023.2.3,Win32,59.88023952,8,2,9,,,,,,,,5,16,,,,,,,,,,,,,5,0.955,1,,,,,,-0.365833321,-0.391666718,1,0,0,0.9552,Obsidian_rect,8,0,8,0,1,
666b027ce39d6a0e2eb09d99,SCR,2024-06-20_17h20.07.370,LearnStrategy,2023.2.3,Win32,59.88023952,8,2,10,,,,,,,,6,08,,,,,,,,,,,,,6,1.154,1,,,,,,-0.064166641,-0.4075,1,0,0,1.1543,Pegmatite_rect,9,0,9,0,1,
666b027ce39d6a0e2eb09d99,SCR,2024-06-20_17h20.07.370,LearnStrategy,2023.2.3,Win32,59.88023952,8,2,11,,,,,,,,8,03,,,,,,,,,,,,,8,1.218,1,,,,,,0.3275,-0.388333359,1,0,0,1.2176,Pumice_rect,10,0,10,0,1,
666b027ce39d6a0e2eb09d99,SCR,2024-06-20_17h20.07.370,LearnStrategy,2023.2.3,Win32,59.88023952,8,2,12,,,,,,,,4,12,,,,,,,,,,,,,4,1.519,1,,,,,,0.358333359,-0.264166718,1,0,0,1.5189,Gabbro_rect,11,0,11,0,1,
666b027ce39d6a0e2eb09d99,SCR,2024-06-20_17h20.07.370,LearnStrategy,2023.2.3,Win32,59.88023952,8,2,13,,,,,,,,2,16,,,,,,,,,,,,,4,1.906,0,,,,,,0.371666718,-0.253333359,1,0,0,1.9055,Gabbro_rect,12,0,12,0,1,
666b027ce39d6a0e2eb09d99,SCR,2024-06-20_17h20.07.370,LearnStrategy,2023.2.3,Win32,59.88023952,8,2,14,,,,,,,,1,05,,,,,,,,,,,,,1,1.533,1,,,,,,-0.389166641,-0.250833359,1,0,0,1.5329,Andesite_rect,13,0,13,0,1,
666b027ce39d6a0e2eb09d99,SCR,2024-06-20_17h20.07.370,LearnStrategy,2023.2.3,Win32,59.88023952,8,2,15,,,,,,,,1,04,,,,,,,,,,,,,1,0.559,1,,,,,,-0.389166641,-0.250833359,1,0,0,0.5592,Andesite_rect,14,0,14,0,1,
666b027ce39d6a0e2eb09d99,SCR,2024-06-20_17h20.07.370,LearnStrategy,2023.2.3,Win32,59.88023952,8,2,16,,,,,,,,4,08,,,,,,,,,,,,,1,0.932,0,,,,,,-0.389166641,-0.250833359,1,0,0,0.9321,Andesite_rect,15,0,15,0,1,
666b027ce39d6a0e2eb09d99,SCR,2024-06-20_17h20.07.370,LearnStrategy,2023.2.3,Win32,59.88023952,9,1,1,-0.229166641,-0.24,1,0,0,0.6484,Pumice_15,8,15,2,3,0.648,1,06,0.3625,-0.395,1,0,0,0.7292,Pumice_rect,8,0.729,1,0,0,0,0,1,,,,,,,,,,,,,
666b027ce39d6a0e2eb09d99,SCR,2024-06-20_17h20.07.370,LearnStrategy,2023.2.3,Win32,59.88023952,9,1,2,0.5575,0.091666641,1,0,0,0.6782,Diorite_09,3,09,4,8,0.678,7,12,0.056666718,-0.245833359,1,0,0,1.0081,Diorite_rect,3,1.008,1,1,0,1,0,1,,,,,,,,,,,,,
666b027ce39d6a0e2eb09d99,SCR,2024-06-20_17h20.07.370,LearnStrategy,2023.2.3,Win32,59.88023952,9,1,3,-0.238333321,0.36333333,1,0,0,0.721,Gabbro_11,4,11,6,3,0.721,4,03,0.3225,-0.2625,1,0,0,0.8356,Gabbro_rect,4,0.836,1,2,0,2,0,1,,,,,,,,,,,,,
666b027ce39d6a0e2eb09d99,SCR,2024-06-20_17h20.07.370,LearnStrategy,2023.2.3,Win32,59.88023952,9,1,4,-0.395,0.40666666,1,0,0,1.313,Andesite_06,1,06,6,2,1.313,7,13,-0.359166641,-0.239166718,1,0,0,0.6398,Andesite_rect,1,0.64,1,3,0,3,0,1,,,,,,,,,,,,,
666b027ce39d6a0e2eb09d99,SCR,2024-06-20_17h20.07.370,LearnStrategy,2023.2.3,Win32,59.88023952,9,1,5,0.063333359,-0.134166679,1,0,0,0.6174,Peridotite_12,7,12,3,5,0.617,7,08,0.12,-0.42,1,0,0,2.049,Peridotite_rect,7,2.049,1,4,0,4,0,1,,,,,,,,,,,,,
666b027ce39d6a0e2eb09d99,SCR,2024-06-20_17h20.07.370,LearnStrategy,2023.2.3,Win32,59.88023952,9,1,6,-0.545,-0.131666679,1,0,0,1.4047,Pegmatite_11,6,11,3,1,1.405,6,13,-0.168333321,-0.405,1,0,0,1.0726,Pegmatite_rect,6,1.073,1,5,0,5,0,1,,,,,,,,,,,,,
666b027ce39d6a0e2eb09d99,SCR,2024-06-20_17h20.07.370,LearnStrategy,2023.2.3,Win32,59.88023952,9,1,7,0.525833435,-0.119166679,1,0,0,0.9479,Gabbro_14,4,14,3,8,0.948,4,09,0.345,-0.271666718,1,0,0,1.8275,Gabbro_rect,4,1.828,1,6,0,6,0,1,,,,,,,,,,,,,
666b027ce39d6a0e2eb09d99,SCR,2024-06-20_17h20.07.370,LearnStrategy,2023.2.3,Win32,59.88023952,9,1,8,0.221666718,0.21666666,1,0,0,0.9288,Obsidian_05,5,05,5,6,0.929,4,11,-0.344166641,-0.381666718,1,0,0,1.5408,Obsidian_rect,5,1.541,1,7,0,7,0,1,,,,,,,,,,,,,
666b027ce39d6a0e2eb09d99,SCR,2024-06-20_17h20.07.370,LearnStrategy,2023.2.3,Win32,59.88023952,9,1,9,0.550833435,0.235,1,0,0,0.7089,Peridotite_16,7,16,5,8,0.709,2,05,0.096666718,-0.385,1,0,0,1.4819,Peridotite_rect,7,1.482,1,8,0,8,0,1,,,,,,,,,,,,,
666b027ce39d6a0e2eb09d99,SCR,2024-06-20_17h20.07.370,LearnStrategy,2023.2.3,Win32,59.88023952,9,1,10,0.093333359,-0.080833359,1,0,0,0.7378,Peridotite_12,7,12,3,5,0.738,3,09,0.110833359,-0.3975,1,0,0,0.9907,Peridotite_rect,7,0.991,1,9,0,9,0,1,,,,,,,,,,,,,
666b027ce39d6a0e2eb09d99,SCR,2024-06-20_17h20.07.370,LearnStrategy,2023.2.3,Win32,59.88023952,9,1,11,-0.255,0.134166641,1,0,0,0.6165,Obsidian_07,5,07,4,3,0.616,1,03,-0.340833321,-0.418333359,1,0,0,0.7638,Obsidian_rect,5,0.764,1,10,0,10,0,1,,,,,,,,,,,,,
666b027ce39d6a0e2eb09d99,SCR,2024-06-20_17h20.07.370,LearnStrategy,2023.2.3,Win32,59.88023952,9,1,12,-0.59416666,0.114166641,1,0,0,0.6164,Andesite_10,1,10,4,1,0.616,7,06,-0.356666641,-0.261666718,1,0,0,0.5095,Andesite_rect,1,0.51,1,11,0,11,0,1,,,,,,,,,,,,,
666b027ce39d6a0e2eb09d99,SCR,2024-06-20_17h20.07.370,LearnStrategy,2023.2.3,Win32,59.88023952,9,1,13,0.5275,-0.424166718,1,0,0,1.3157,Pegmatite_15,6,15,1,8,1.316,5,11,-0.178333321,-0.403333359,1,0,0,1.9928,Pegmatite_rect,6,1.993,1,12,0,12,0,1,,,,,,,,,,,,,
666b027ce39d6a0e2eb09d99,SCR,2024-06-20_17h20.07.370,LearnStrategy,2023.2.3,Win32,59.88023952,9,1,14,0.5725,-0.299166718,1,0,0,0.6601,Peridotite_06,7,06,2,8,0.66,6,11,0.1375,-0.399166718,1,0,0,0.847,Peridotite_rect,7,0.847,1,13,0,13,0,1,,,,,,,,,,,,,
666b027ce39d6a0e2eb09d99,SCR,2024-06-20_17h20.07.370,LearnStrategy,2023.2.3,Win32,59.88023952,9,1,15,0.5375,-0.115833359,1,0,0,0.6781,Gabbro_14,4,14,3,8,0.678,2,05,0.311666718,-0.266666718,1,0,0,1.1781,Gabbro_rect,4,1.178,1,14,0,14,0,1,,,,,,,,,,,,,
666b027ce39d6a0e2eb09d99,SCR,2024-06-20_17h20.07.370,LearnStrategy,2023.2.3,Win32,59.88023952,9,1,16,-0.56416666,-0.256666718,1,0,0,1.0839,Basalt_10,2,10,2,1,1.084,4,14,0.320833359,-0.266666718,1,0,0,0.7758,Gabbro_rect,4,0.776,0,15,0,15,0,1,,,,,,,,,,,,,
666b027ce39d6a0e2eb09d99,SCR,2024-06-20_17h20.07.370,LearnStrategy,2023.2.3,Win32,59.88023952,9,2,1,,,,,,,,8,16,,,,,,,,,,,,,8,1.442,1,,,,,,0.375,-0.384166718,1,0,0,1.4423,Pumice_rect,0,0,0,0,1,
666b027ce39d6a0e2eb09d99,SCR,2024-06-20_17h20.07.370,LearnStrategy,2023.2.3,Win32,59.88023952,9,2,2,,,,,,,,7,07,,,,,,,,,,,,,7,1.874,1,,,,,,0.140833359,-0.406666718,1,0,0,1.8742,Peridotite_rect,1,0,1,0,1,
666b027ce39d6a0e2eb09d99,SCR,2024-06-20_17h20.07.370,LearnStrategy,2023.2.3,Win32,59.88023952,9,2,3,,,,,,,,2,12,,,,,,,,,,,,,1,1.562,0,,,,,,-0.353333321,-0.265,1,0,0,1.5615,Andesite_rect,2,0,2,0,1,
666b027ce39d6a0e2eb09d99,SCR,2024-06-20_17h20.07.370,LearnStrategy,2023.2.3,Win32,59.88023952,9,2,4,,,,,,,,5,14,,,,,,,,,,,,,5,5.374,1,,,,,,-0.363333321,-0.418333359,1,0,0,5.3742,Obsidian_rect,3,0,3,0,1,
666b027ce39d6a0e2eb09d99,SCR,2024-06-20_17h20.07.370,LearnStrategy,2023.2.3,Win32,59.88023952,9,2,5,,,,,,,,6,12,,,,,,,,,,,,,6,3.521,1,,,,,,-0.115833282,-0.388333359,1,0,0,3.5205,Pegmatite_rect,4,0,4,0,1,
666b027ce39d6a0e2eb09d99,SCR,2024-06-20_17h20.07.370,LearnStrategy,2023.2.3,Win32,59.88023952,9,2,6,,,,,,,,8,04,,,,,,,,,,,,,8,1.187,1,,,,,,0.395,-0.394166718,1,0,0,1.1869,Pumice_rect,5,0,5,0,1,
666b027ce39d6a0e2eb09d99,SCR,2024-06-20_17h20.07.370,LearnStrategy,2023.2.3,Win32,59.88023952,9,2,7,,,,,,,,3,06,,,,,,,,,,,,,7,1.231,0,,,,,,0.079166718,-0.383333359,1,0,0,1.2309,Peridotite_rect,6,0,6,0,1,
666b027ce39d6a0e2eb09d99,SCR,2024-06-20_17h20.07.370,LearnStrategy,2023.2.3,Win32,59.88023952,9,2,8,,,,,,,,6,09,,,,,,,,,,,,,6,1.449,1,,,,,,-0.114166641,-0.408333359,1,0,0,1.4492,Pegmatite_rect,7,0,7,0,1,
666b027ce39d6a0e2eb09d99,SCR,2024-06-20_17h20.07.370,LearnStrategy,2023.2.3,Win32,59.88023952,9,2,9,,,,,,,,4,05,,,,,,,,,,,,,7,1.398,0,,,,,,0.073333359,-0.415833359,1,0,0,1.3981,Peridotite_rect,8,0,8,0,1,
666b027ce39d6a0e2eb09d99,SCR,2024-06-20_17h20.07.370,LearnStrategy,2023.2.3,Win32,59.88023952,9,2,10,,,,,,,,1,09,,,,,,,,,,,,,1,1.379,1,,,,,,-0.4275,-0.236666718,1,0,0,1.3787,Andesite_rect,9,0,9,0,1,
666b027ce39d6a0e2eb09d99,SCR,2024-06-20_17h20.07.370,LearnStrategy,2023.2.3,Win32,59.88023952,9,2,11,,,,,,,,5,12,,,,,,,,,,,,,5,1.736,1,,,,,,-0.35,-0.3875,1,0,0,1.7356,Obsidian_rect,10,0,10,0,1,
666b027ce39d6a0e2eb09d99,SCR,2024-06-20_17h20.07.370,LearnStrategy,2023.2.3,Win32,59.88023952,9,2,12,,,,,,,,7,05,,,,,,,,,,,,,7,1.301,1,,,,,,0.124166718,-0.415833359,1,0,0,1.3008,Peridotite_rect,11,0,11,0,1,
666b027ce39d6a0e2eb09d99,SCR,2024-06-20_17h20.07.370,LearnStrategy,2023.2.3,Win32,59.88023952,9,2,13,,,,,,,,1,14,,,,,,,,,,,,,1,1.293,1,,,,,,-0.3775,-0.250833359,1,0,0,1.2931,Andesite_rect,12,0,12,0,1,
666b027ce39d6a0e2eb09d99,SCR,2024-06-20_17h20.07.370,LearnStrategy,2023.2.3,Win32,59.88023952,9,2,14,,,,,,,,4,15,,,,,,,,,,,,,4,3.033,1,,,,,,0.4125,-0.259166718,1,0,0,3.0327,Gabbro_rect,13,0,13,0,1,
666b027ce39d6a0e2eb09d99,SCR,2024-06-20_17h20.07.370,LearnStrategy,2023.2.3,Win32,59.88023952,9,2,15,,,,,,,,3,16,,,,,,,,,,,,,3,1.313,1,,,,,,0.175833359,-0.2525,1,0,0,1.3132,Diorite_rect,14,0,14,0,1,
666b027ce39d6a0e2eb09d99,SCR,2024-06-20_17h20.07.370,LearnStrategy,2023.2.3,Win32,59.88023952,9,2,16,,,,,,,,2,09,,,,,,,,,,,,,1,1.272,0,,,,,,-0.38,-0.251666718,1,0,0,1.2719,Andesite_rect,15,0,15,0,1,
666b027ce39d6a0e2eb09d99,SCR,2024-06-20_17h20.07.370,LearnStrategy,2023.2.3,Win32,59.88023952,,,,,,,,,,,,,,,,,,,,,,,,,,,,,,,,,,,,,,,,,,,,,1
666b027ce39d6a0e2eb09d99,SCR,2024-06-20_17h20.07.370,LearnStrategy,2023.2.3,Win32,59.88023952,,,,,,,,,,,,,,,,,,,,,,,,,,,,,,,,,,,,,,,,,,,,,
666b027ce39d6a0e2eb09d99,SCR,2024-06-20_17h20.07.370,LearnStrategy,2023.2.3,Win32,59.88023952,,,,,,,,,,,2,04,1,1,,,,,,,,,,,,,,,,,,,,,,,,,,,,,,,
666b027ce39d6a0e2eb09d99,SCR,2024-06-20_17h20.07.370,LearnStrategy,2023.2.3,Win32,59.88023952,,,,,,,,,,,5,09,1,2,,,,,,,,,,,,,,,,,,,,,,,,,,,,,,,
666b027ce39d6a0e2eb09d99,SCR,2024-06-20_17h20.07.370,LearnStrategy,2023.2.3,Win32,59.88023952,,,,,,,,,,,8,05,1,3,,,,,,,,,,,,,,,,,,,,,,,,,,,,,,,
666b027ce39d6a0e2eb09d99,SCR,2024-06-20_17h20.07.370,LearnStrategy,2023.2.3,Win32,59.88023952,,,,,,,,,,,8,08,1,4,,,,,,,,,,,,,,,,,,,,,,,,,,,,,,,
666b027ce39d6a0e2eb09d99,SCR,2024-06-20_17h20.07.370,LearnStrategy,2023.2.3,Win32,59.88023952,,,,,,,,,,,7,13,1,5,,,,,,,,,,,,,,,,,,,,,,,,,,,,,,,
666b027ce39d6a0e2eb09d99,SCR,2024-06-20_17h20.07.370,LearnStrategy,2023.2.3,Win32,59.88023952,,,,,,,,,,,6,16,1,6,,,,,,,,,,,,,,,,,,,,,,,,,,,,,,,
666b027ce39d6a0e2eb09d99,SCR,2024-06-20_17h20.07.370,LearnStrategy,2023.2.3,Win32,59.88023952,,,,,,,,,,,4,09,1,7,,,,,,,,,,,,,,,,,,,,,,,,,,,,,,,
666b027ce39d6a0e2eb09d99,SCR,2024-06-20_17h20.07.370,LearnStrategy,2023.2.3,Win32,59.88023952,,,,,,,,,,,6,15,1,8,,,,,,,,,,,,,,,,,,,,,,,,,,,,,,,
666b027ce39d6a0e2eb09d99,SCR,2024-06-20_17h20.07.370,LearnStrategy,2023.2.3,Win32,59.88023952,,,,,,,,,,,2,10,2,1,,,,,,,,,,,,,,,,,,,,,,,,,,,,,,,
666b027ce39d6a0e2eb09d99,SCR,2024-06-20_17h20.07.370,LearnStrategy,2023.2.3,Win32,59.88023952,,,,,,,,,,,3,08,2,2,,,,,,,,,,,,,,,,,,,,,,,,,,,,,,,
666b027ce39d6a0e2eb09d99,SCR,2024-06-20_17h20.07.370,LearnStrategy,2023.2.3,Win32,59.88023952,,,,,,,,,,,8,15,2,3,,,,,,,,,,,,,,,,,,,,,,,,,,,,,,,
666b027ce39d6a0e2eb09d99,SCR,2024-06-20_17h20.07.370,LearnStrategy,2023.2.3,Win32,59.88023952,,,,,,,,,,,1,03,2,4,,,,,,,,,,,,,,,,,,,,,,,,,,,,,,,
666b027ce39d6a0e2eb09d99,SCR,2024-06-20_17h20.07.370,LearnStrategy,2023.2.3,Win32,59.88023952,,,,,,,,,,,6,10,2,5,,,,,,,,,,,,,,,,,,,,,,,,,,,,,,,
666b027ce39d6a0e2eb09d99,SCR,2024-06-20_17h20.07.370,LearnStrategy,2023.2.3,Win32,59.88023952,,,,,,,,,,,2,02,2,6,,,,,,,,,,,,,,,,,,,,,,,,,,,,,,,
666b027ce39d6a0e2eb09d99,SCR,2024-06-20_17h20.07.370,LearnStrategy,2023.2.3,Win32,59.88023952,,,,,,,,,,,2,05,2,7,,,,,,,,,,,,,,,,,,,,,,,,,,,,,,,
666b027ce39d6a0e2eb09d99,SCR,2024-06-20_17h20.07.370,LearnStrategy,2023.2.3,Win32,59.88023952,,,,,,,,,,,7,06,2,8,,,,,,,,,,,,,,,,,,,,,,,,,,,,,,,
666b027ce39d6a0e2eb09d99,SCR,2024-06-20_17h20.07.370,LearnStrategy,2023.2.3,Win32,59.88023952,,,,,,,,,,,6,11,3,1,,,,,,,,,,,,,,,,,,,,,,,,,,,,,,,
666b027ce39d6a0e2eb09d99,SCR,2024-06-20_17h20.07.370,LearnStrategy,2023.2.3,Win32,59.88023952,,,,,,,,,,,4,03,3,2,,,,,,,,,,,,,,,,,,,,,,,,,,,,,,,
666b027ce39d6a0e2eb09d99,SCR,2024-06-20_17h20.07.370,LearnStrategy,2023.2.3,Win32,59.88023952,,,,,,,,,,,2,11,3,3,,,,,,,,,,,,,,,,,,,,,,,,,,,,,,,
666b027ce39d6a0e2eb09d99,SCR,2024-06-20_17h20.07.370,LearnStrategy,2023.2.3,Win32,59.88023952,,,,,,,,,,,4,16,3,4,,,,,,,,,,,,,,,,,,,,,,,,,,,,,,,
666b027ce39d6a0e2eb09d99,SCR,2024-06-20_17h20.07.370,LearnStrategy,2023.2.3,Win32,59.88023952,,,,,,,,,,,7,12,3,5,,,,,,,,,,,,,,,,,,,,,,,,,,,,,,,
666b027ce39d6a0e2eb09d99,SCR,2024-06-20_17h20.07.370,LearnStrategy,2023.2.3,Win32,59.88023952,,,,,,,,,,,5,11,3,6,,,,,,,,,,,,,,,,,,,,,,,,,,,,,,,
666b027ce39d6a0e2eb09d99,SCR,2024-06-20_17h20.07.370,LearnStrategy,2023.2.3,Win32,59.88023952,,,,,,,,,,,3,07,3,7,,,,,,,,,,,,,,,,,,,,,,,,,,,,,,,
666b027ce39d6a0e2eb09d99,SCR,2024-06-20_17h20.07.370,LearnStrategy,2023.2.3,Win32,59.88023952,,,,,,,,,,,4,14,3,8,,,,,,,,,,,,,,,,,,,,,,,,,,,,,,,
666b027ce39d6a0e2eb09d99,SCR,2024-06-20_17h20.07.370,LearnStrategy,2023.2.3,Win32,59.88023952,,,,,,,,,,,1,10,4,1,,,,,,,,,,,,,,,,,,,,,,,,,,,,,,,
666b027ce39d6a0e2eb09d99,SCR,2024-06-20_17h20.07.370,LearnStrategy,2023.2.3,Win32,59.88023952,,,,,,,,,,,4,13,4,2,,,,,,,,,,,,,,,,,,,,,,,,,,,,,,,
666b027ce39d6a0e2eb09d99,SCR,2024-06-20_17h20.07.370,LearnStrategy,2023.2.3,Win32,59.88023952,,,,,,,,,,,5,07,4,3,,,,,,,,,,,,,,,,,,,,,,,,,,,,,,,
666b027ce39d6a0e2eb09d99,SCR,2024-06-20_17h20.07.370,LearnStrategy,2023.2.3,Win32,59.88023952,,,,,,,,,,,3,02,4,4,,,,,,,,,,,,,,,,,,,,,,,,,,,,,,,
666b027ce39d6a0e2eb09d99,SCR,2024-06-20_17h20.07.370,LearnStrategy,2023.2.3,Win32,59.88023952,,,,,,,,,,,8,13,4,5,,,,,,,,,,,,,,,,,,,,,,,,,,,,,,,
666b027ce39d6a0e2eb09d99,SCR,2024-06-20_17h20.07.370,LearnStrategy,2023.2.3,Win32,59.88023952,,,,,,,,,,,6,13,4,6,,,,,,,,,,,,,,,,,,,,,,,,,,,,,,,
666b027ce39d6a0e2eb09d99,SCR,2024-06-20_17h20.07.370,LearnStrategy,2023.2.3,Win32,59.88023952,,,,,,,,,,,8,14,4,7,,,,,,,,,,,,,,,,,,,,,,,,,,,,,,,
666b027ce39d6a0e2eb09d99,SCR,2024-06-20_17h20.07.370,LearnStrategy,2023.2.3,Win32,59.88023952,,,,,,,,,,,3,09,4,8,,,,,,,,,,,,,,,,,,,,,,,,,,,,,,,
666b027ce39d6a0e2eb09d99,SCR,2024-06-20_17h20.07.370,LearnStrategy,2023.2.3,Win32,59.88023952,,,,,,,,,,,5,10,5,1,,,,,,,,,,,,,,,,,,,,,,,,,,,,,,,
666b027ce39d6a0e2eb09d99,SCR,2024-06-20_17h20.07.370,LearnStrategy,2023.2.3,Win32,59.88023952,,,,,,,,,,,6,07,5,2,,,,,,,,,,,,,,,,,,,,,,,,,,,,,,,
666b027ce39d6a0e2eb09d99,SCR,2024-06-20_17h20.07.370,LearnStrategy,2023.2.3,Win32,59.88023952,,,,,,,,,,,1,02,5,3,,,,,,,,,,,,,,,,,,,,,,,,,,,,,,,
666b027ce39d6a0e2eb09d99,SCR,2024-06-20_17h20.07.370,LearnStrategy,2023.2.3,Win32,59.88023952,,,,,,,,,,,1,07,5,4,,,,,,,,,,,,,,,,,,,,,,,,,,,,,,,
666b027ce39d6a0e2eb09d99,SCR,2024-06-20_17h20.07.370,LearnStrategy,2023.2.3,Win32,59.88023952,,,,,,,,,,,3,12,5,5,,,,,,,,,,,,,,,,,,,,,,,,,,,,,,,
666b027ce39d6a0e2eb09d99,SCR,2024-06-20_17h20.07.370,LearnStrategy,2023.2.3,Win32,59.88023952,,,,,,,,,,,5,05,5,6,,,,,,,,,,,,,,,,,,,,,,,,,,,,,,,
666b027ce39d6a0e2eb09d99,SCR,2024-06-20_17h20.07.370,LearnStrategy,2023.2.3,Win32,59.88023952,,,,,,,,,,,2,14,5,7,,,,,,,,,,,,,,,,,,,,,,,,,,,,,,,
666b027ce39d6a0e2eb09d99,SCR,2024-06-20_17h20.07.370,LearnStrategy,2023.2.3,Win32,59.88023952,,,,,,,,,,,7,16,5,8,,,,,,,,,,,,,,,,,,,,,,,,,,,,,,,
666b027ce39d6a0e2eb09d99,SCR,2024-06-20_17h20.07.370,LearnStrategy,2023.2.3,Win32,59.88023952,,,,,,,,,,,7,04,6,1,,,,,,,,,,,,,,,,,,,,,,,,,,,,,,,
666b027ce39d6a0e2eb09d99,SCR,2024-06-20_17h20.07.370,LearnStrategy,2023.2.3,Win32,59.88023952,,,,,,,,,,,1,06,6,2,,,,,,,,,,,,,,,,,,,,,,,,,,,,,,,
666b027ce39d6a0e2eb09d99,SCR,2024-06-20_17h20.07.370,LearnStrategy,2023.2.3,Win32,59.88023952,,,,,,,,,,,4,11,6,3,,,,,,,,,,,,,,,,,,,,,,,,,,,,,,,
666b027ce39d6a0e2eb09d99,SCR,2024-06-20_17h20.07.370,LearnStrategy,2023.2.3,Win32,59.88023952,,,,,,,,,,,7,08,6,4,,,,,,,,,,,,,,,,,,,,,,,,,,,,,,,
666b027ce39d6a0e2eb09d99,SCR,2024-06-20_17h20.07.370,LearnStrategy,2023.2.3,Win32,59.88023952,,,,,,,,,,,1,11,6,5,,,,,,,,,,,,,,,,,,,,,,,,,,,,,,,
666b027ce39d6a0e2eb09d99,SCR,2024-06-20_17h20.07.370,LearnStrategy,2023.2.3,Win32,59.88023952,,,,,,,,,,,5,04,6,6,,,,,,,,,,,,,,,,,,,,,,,,,,,,,,,
666b027ce39d6a0e2eb09d99,SCR,2024-06-20_17h20.07.370,LearnStrategy,2023.2.3,Win32,59.88023952,,,,,,,,,,,3,11,6,7,,,,,,,,,,,,,,,,,,,,,,,,,,,,,,,
666b027ce39d6a0e2eb09d99,SCR,2024-06-20_17h20.07.370,LearnStrategy,2023.2.3,Win32,59.88023952,,,,,,,,,,,8,09,6,8,,,,,,,,,,,,,,,,,,,,,,,,,,,,,,,