participant,condition,date,expName,psychopyVersion,OS,frameRate,block,phase,trial,learn_mouse_2.x,learn_mouse_2.y,learn_mouse_2.leftButton,learn_mouse_2.midButton,learn_mouse_2.rightButton,learn_mouse_2.time,learn_mouse_2.clicked_name,cat,token,row,col,t_select,cat_mouse_l.x,cat_mouse_l.y,cat_mouse_l.leftButton,cat_mouse_l.midButton,cat_mouse_l.rightButton,cat_mouse_l.time,cat_mouse_l.clicked_name,resp,t_resp,corr,train_trials.thisRepN,train_trials.thisTrialN,train_trials.thisN,train_trials.thisIndex,train_trials.ran,cat_mouse_t.x,cat_mouse_t.y,cat_mouse_t.leftButton,cat_mouse_t.midButton,cat_mouse_t.rightButton,cat_mouse_t.time,cat_mouse_t.clicked_name,test_trials.thisRepN,test_trials.thisTrialN,test_trials.thisN,test_trials.thisIndex,test_trials.ran,Bonus
666c7ff3cb01f81efd18805c,TCR,2024-06-25_11h53.49.165,LearnStrategy,2023.2.3,Win32,163.9344262,,,,,,,,,,,,,,,,,,,,,,,,,,,,,,,,,,,,,,,,,,,
666c7ff3cb01f81efd18805c,TCR,2024-06-25_11h53.49.165,LearnStrategy,2023.2.3,Win32,163.9344262,1,1,1,-0.024074074,-0.003703704,1,0,0,1.585,rock_grid_rect_2,7,04,-1,-1,1.585,0.174074074,-0.405555556,1,0,0,3.9047,Peridotite_rect,7,3.905,1,0,0,0,0,1,,,,,,,,,,,,,
666c7ff3cb01f81efd18805c,TCR,2024-06-25_11h53.49.165,LearnStrategy,2023.2.3,Win32,163.9344262,1,1,2,-0.005555556,-0.022222222,1,0,0,2.0545,rock_grid_rect_2,4,03,-1,-1,2.054,-0.339814815,-0.250925926,1,0,0,6.5298,Andesite_rect,1,6.53,0,1,0,1,0,1,,,,,,,,,,,,,
666c7ff3cb01f81efd18805c,TCR,2024-06-25_11h53.49.165,LearnStrategy,2023.2.3,Win32,163.9344262,1,1,3,0.037037037,0.012962963,1,0,0,1.1322,rock_grid_rect_2,6,03,-1,-1,1.132,-0.1,-0.409259259,1,0,0,4.002,Pegmatite_rect,6,4.002,1,2,0,2,0,1,,,,,,,,,,,,,
666c7ff3cb01f81efd18805c,TCR,2024-06-25_11h53.49.165,LearnStrategy,2023.2.3,Win32,163.9344262,1,1,4,0.002777778,-0.018518519,1,0,0,1.3382,rock_grid_rect_2,7,07,-1,-1,1.338,-0.143518519,-0.252777778,1,0,0,9.2775,Basalt_rect,2,9.278,0,3,0,3,0,1,,,,,,,,,,,,,
666c7ff3cb01f81efd18805c,TCR,2024-06-25_11h53.49.165,LearnStrategy,2023.2.3,Win32,163.9344262,1,1,5,0.00462963,-0.022222222,1,0,0,1.0716,rock_grid_rect_2,2,09,-1,-1,1.072,-0.357407407,-0.390740741,1,0,0,2.0053,Obsidian_rect,5,2.005,0,4,0,4,0,1,,,,,,,,,,,,,
666c7ff3cb01f81efd18805c,TCR,2024-06-25_11h53.49.165,LearnStrategy,2023.2.3,Win32,163.9344262,1,1,6,0.027777778,-0.007407407,1,0,0,1.0241,rock_grid_rect_2,2,04,-1,-1,1.024,-0.341666667,-0.393518519,1,0,0,1.6414,Obsidian_rect,5,1.641,0,5,0,5,0,1,,,,,,,,,,,,,
666c7ff3cb01f81efd18805c,TCR,2024-06-25_11h53.49.165,LearnStrategy,2023.2.3,Win32,163.9344262,1,1,7,-0.05,0.005555556,1,0,0,1.1564,rock_grid_rect_2,5,05,-1,-1,1.156,-0.444444444,-0.414814815,1,0,0,1.1861,Obsidian_rect,5,1.186,1,6,0,6,0,1,,,,,,,,,,,,,
666c7ff3cb01f81efd18805c,TCR,2024-06-25_11h53.49.165,LearnStrategy,2023.2.3,Win32,163.9344262,1,1,8,0.017592593,-0.014814815,1,0,0,1.1261,rock_grid_rect_2,3,06,-1,-1,1.126,0.136111111,-0.263888889,1,0,0,6.6591,Diorite_rect,3,6.659,1,7,0,7,0,1,,,,,,,,,,,,,
666c7ff3cb01f81efd18805c,TCR,2024-06-25_11h53.49.165,LearnStrategy,2023.2.3,Win32,163.9344262,1,1,9,0.034259259,0.000925926,1,0,0,0.817,rock_grid_rect_2,6,12,-1,-1,0.817,-0.119444444,-0.399074074,1,0,0,5.902,Pegmatite_rect,6,5.902,1,8,0,8,0,1,,,,,,,,,,,,,
666c7ff3cb01f81efd18805c,TCR,2024-06-25_11h53.49.165,LearnStrategy,2023.2.3,Win32,163.9344262,1,1,10,0.047222222,0,1,0,0,0.7322,rock_grid_rect_2,8,14,-1,-1,0.732,0.432407407,-0.407407407,1,0,0,1.6834,Pumice_rect,8,1.683,1,9,0,9,0,1,,,,,,,,,,,,,
666c7ff3cb01f81efd18805c,TCR,2024-06-25_11h53.49.165,LearnStrategy,2023.2.3,Win32,163.9344262,1,1,11,-0.019444444,-0.012962963,1,0,0,0.9441,rock_grid_rect_2,4,13,-1,-1,0.944,-0.103703704,-0.237962963,1,0,0,5.8217,Basalt_rect,2,5.822,0,10,0,10,0,1,,,,,,,,,,,,,
666c7ff3cb01f81efd18805c,TCR,2024-06-25_11h53.49.165,LearnStrategy,2023.2.3,Win32,163.9344262,1,1,12,-0.011111111,-0.024074074,1,0,0,1.0354,rock_grid_rect_2,5,14,-1,-1,1.035,-0.353703704,-0.387037037,1,0,0,1.2132,Obsidian_rect,5,1.213,1,11,0,11,0,1,,,,,,,,,,,,,
666c7ff3cb01f81efd18805c,TCR,2024-06-25_11h53.49.165,LearnStrategy,2023.2.3,Win32,163.9344262,1,1,13,0.022222222,0.019444444,1,0,0,0.5957,rock_grid_rect_2,1,14,-1,-1,0.596,-0.368518519,-0.250925926,1,0,0,3.0825,Andesite_rect,1,3.082,1,12,0,12,0,1,,,,,,,,,,,,,
666c7ff3cb01f81efd18805c,TCR,2024-06-25_11h53.49.165,LearnStrategy,2023.2.3,Win32,163.9344262,1,1,14,0.001851852,-0.014814815,1,0,0,0.6296,rock_grid_rect_2,1,16,-1,-1,0.63,-0.387962963,-0.251851852,1,0,0,1.3503,Andesite_rect,1,1.35,1,13,0,13,0,1,,,,,,,,,,,,,
666c7ff3cb01f81efd18805c,TCR,2024-06-25_11h53.49.165,LearnStrategy,2023.2.3,Win32,163.9344262,1,1,15,-0.015740741,-0.02037037,1,0,0,0.6351,rock_grid_rect_2,8,15,-1,-1,0.635,0.363888889,-0.40462963,1,0,0,1.3662,Pumice_rect,8,1.366,1,14,0,14,0,1,,,,,,,,,,,,,
666c7ff3cb01f81efd18805c,TCR,2024-06-25_11h53.49.165,LearnStrategy,2023.2.3,Win32,163.9344262,1,1,16,0.008333333,0.018518519,1,0,0,0.5987,rock_grid_rect_2,3,13,-1,-1,0.599,-0.166666667,-0.416666667,1,0,0,5.0353,Pegmatite_rect,6,5.035,0,15,0,15,0,1,,,,,,,,,,,,,
666c7ff3cb01f81efd18805c,TCR,2024-06-25_11h53.49.165,LearnStrategy,2023.2.3,Win32,163.9344262,1,2,1,,,,,,,,7,14,,,,,,,,,,,3,10.777,0,,,,,,0.091666667,-0.261111111,1,0,0,10.777,Diorite_rect,0,0,0,0,1,
666c7ff3cb01f81efd18805c,TCR,2024-06-25_11h53.49.165,LearnStrategy,2023.2.3,Win32,163.9344262,1,2,2,,,,,,,,4,12,,,,,,,,,,,2,14.765,0,,,,,,-0.097222222,-0.262962963,1,0,0,14.7649,Basalt_rect,1,0,1,0,1,
666c7ff3cb01f81efd18805c,TCR,2024-06-25_11h53.49.165,LearnStrategy,2023.2.3,Win32,163.9344262,1,2,3,,,,,,,,7,02,,,,,,,,,,,7,7.362,1,,,,,,0.1,-0.393518519,1,0,0,7.362,Peridotite_rect,2,0,2,0,1,
666c7ff3cb01f81efd18805c,TCR,2024-06-25_11h53.49.165,LearnStrategy,2023.2.3,Win32,163.9344262,1,2,4,,,,,,,,2,10,,,,,,,,,,,4,2.277,0,,,,,,0.378703704,-0.256481481,1,0,0,2.2768,Gabbro_rect,3,0,3,0,1,
666c7ff3cb01f81efd18805c,TCR,2024-06-25_11h53.49.165,LearnStrategy,2023.2.3,Win32,163.9344262,1,2,5,,,,,,,,3,15,,,,,,,,,,,3,4.748,1,,,,,,0.143518519,-0.259259259,1,0,0,4.7481,Diorite_rect,4,0,4,0,1,
666c7ff3cb01f81efd18805c,TCR,2024-06-25_11h53.49.165,LearnStrategy,2023.2.3,Win32,163.9344262,1,2,6,,,,,,,,1,07,,,,,,,,,,,2,6.553,0,,,,,,-0.160185185,-0.255555556,1,0,0,6.5533,Basalt_rect,5,0,5,0,1,
666c7ff3cb01f81efd18805c,TCR,2024-06-25_11h53.49.165,LearnStrategy,2023.2.3,Win32,163.9344262,1,2,7,,,,,,,,8,05,,,,,,,,,,,8,1.162,1,,,,,,0.433333333,-0.418518519,1,0,0,1.1615,Pumice_rect,6,0,6,0,1,
666c7ff3cb01f81efd18805c,TCR,2024-06-25_11h53.49.165,LearnStrategy,2023.2.3,Win32,163.9344262,1,2,8,,,,,,,,6,16,,,,,,,,,,,7,4.888,0,,,,,,0.107407407,-0.394444444,1,0,0,4.8878,Peridotite_rect,7,0,7,0,1,
666c7ff3cb01f81efd18805c,TCR,2024-06-25_11h53.49.165,LearnStrategy,2023.2.3,Win32,163.9344262,1,2,9,,,,,,,,1,01,,,,,,,,,,,2,8.122,0,,,,,,-0.114814815,-0.256481481,1,0,0,8.1217,Basalt_rect,8,0,8,0,1,
666c7ff3cb01f81efd18805c,TCR,2024-06-25_11h53.49.165,LearnStrategy,2023.2.3,Win32,163.9344262,1,2,10,,,,,,,,4,01,,,,,,,,,,,1,5.083,0,,,,,,-0.35,-0.256481481,1,0,0,5.0826,Andesite_rect,9,0,9,0,1,
666c7ff3cb01f81efd18805c,TCR,2024-06-25_11h53.49.165,LearnStrategy,2023.2.3,Win32,163.9344262,1,2,11,,,,,,,,2,12,,,,,,,,,,,4,11.198,0,,,,,,0.360185185,-0.235185185,1,0,0,11.1983,Gabbro_rect,10,0,10,0,1,
666c7ff3cb01f81efd18805c,TCR,2024-06-25_11h53.49.165,LearnStrategy,2023.2.3,Win32,163.9344262,1,2,12,,,,,,,,6,13,,,,,,,,,,,5,4.247,0,,,,,,-0.363888889,-0.403703704,1,0,0,4.2471,Obsidian_rect,11,0,11,0,1,
666c7ff3cb01f81efd18805c,TCR,2024-06-25_11h53.49.165,LearnStrategy,2023.2.3,Win32,163.9344262,1,2,13,,,,,,,,3,12,,,,,,,,,,,3,8.246,1,,,,,,0.168518519,-0.256481481,1,0,0,8.2457,Diorite_rect,12,0,12,0,1,
666c7ff3cb01f81efd18805c,TCR,2024-06-25_11h53.49.165,LearnStrategy,2023.2.3,Win32,163.9344262,1,2,14,,,,,,,,5,11,,,,,,,,,,,5,1.153,1,,,,,,-0.384259259,-0.388888889,1,0,0,1.153,Obsidian_rect,13,0,13,0,1,
666c7ff3cb01f81efd18805c,TCR,2024-06-25_11h53.49.165,LearnStrategy,2023.2.3,Win32,163.9344262,1,2,15,,,,,,,,8,08,,,,,,,,,,,8,1.246,1,,,,,,0.434259259,-0.390740741,1,0,0,1.2463,Pumice_rect,14,0,14,0,1,
666c7ff3cb01f81efd18805c,TCR,2024-06-25_11h53.49.165,LearnStrategy,2023.2.3,Win32,163.9344262,1,2,16,,,,,,,,5,04,,,,,,,,,,,5,0.979,1,,,,,,-0.373148148,-0.409259259,1,0,0,0.9786,Obsidian_rect,15,0,15,0,1,
666c7ff3cb01f81efd18805c,TCR,2024-06-25_11h53.49.165,LearnStrategy,2023.2.3,Win32,163.9344262,2,1,1,-0.000925926,0.002777778,1,0,0,1.0781,rock_grid_rect_2,1,03,-1,-1,1.078,-0.07037037,-0.241666667,1,0,0,4.1145,Basalt_rect,2,4.115,0,0,0,0,0,1,,,,,,,,,,,,,
666c7ff3cb01f81efd18805c,TCR,2024-06-25_11h53.49.165,LearnStrategy,2023.2.3,Win32,163.9344262,2,1,2,-0.014814815,-0.021296296,1,0,0,0.909,rock_grid_rect_2,4,05,-1,-1,0.909,-0.076851852,-0.246296296,1,0,0,2.4271,Basalt_rect,2,2.427,0,1,0,1,0,1,,,,,,,,,,,,,
666c7ff3cb01f81efd18805c,TCR,2024-06-25_11h53.49.165,LearnStrategy,2023.2.3,Win32,163.9344262,2,1,3,-0.016666667,-0.010185185,1,0,0,0.8018,rock_grid_rect_2,6,03,-1,-1,0.802,-0.10462963,-0.392592593,1,0,0,3.8628,Pegmatite_rect,6,3.863,1,2,0,2,0,1,,,,,,,,,,,,,
666c7ff3cb01f81efd18805c,TCR,2024-06-25_11h53.49.165,LearnStrategy,2023.2.3,Win32,163.9344262,2,1,4,0.010185185,-0.012037037,1,0,0,0.8669,rock_grid_rect_2,6,15,-1,-1,0.867,-0.115740741,-0.408333333,1,0,0,2.4523,Pegmatite_rect,6,2.452,1,3,0,3,0,1,,,,,,,,,,,,,
666c7ff3cb01f81efd18805c,TCR,2024-06-25_11h53.49.165,LearnStrategy,2023.2.3,Win32,163.9344262,2,1,5,0.001851852,-0.012037037,1,0,0,0.9531,rock_grid_rect_2,3,16,-1,-1,0.953,0.107407407,-0.239814815,1,0,0,1.8571,Diorite_rect,3,1.857,1,4,0,4,0,1,,,,,,,,,,,,,
666c7ff3cb01f81efd18805c,TCR,2024-06-25_11h53.49.165,LearnStrategy,2023.2.3,Win32,163.9344262,2,1,6,0.035185185,-0.017592593,1,0,0,0.7201,rock_grid_rect_2,7,06,-1,-1,0.72,0.075,-0.387962963,1,0,0,2.0512,Peridotite_rect,7,2.051,1,5,0,5,0,1,,,,,,,,,,,,,
666c7ff3cb01f81efd18805c,TCR,2024-06-25_11h53.49.165,LearnStrategy,2023.2.3,Win32,163.9344262,2,1,7,-0.023148148,0.010185185,1,0,0,0.902,rock_grid_rect_2,4,13,-1,-1,0.902,-0.396296296,-0.248148148,1,0,0,3.7993,Andesite_rect,1,3.799,0,6,0,6,0,1,,,,,,,,,,,,,
666c7ff3cb01f81efd18805c,TCR,2024-06-25_11h53.49.165,LearnStrategy,2023.2.3,Win32,163.9344262,2,1,8,0.036111111,-0.019444444,1,0,0,0.7699,rock_grid_rect_2,1,03,-1,-1,0.77,0.359259259,-0.234259259,1,0,0,1.2817,Gabbro_rect,4,1.282,0,7,0,7,0,1,,,,,,,,,,,,,
666c7ff3cb01f81efd18805c,TCR,2024-06-25_11h53.49.165,LearnStrategy,2023.2.3,Win32,163.9344262,2,1,9,0.016666667,0.003703704,1,0,0,0.6291,rock_grid_rect_2,7,06,-1,-1,0.629,0.062962963,-0.384259259,1,0,0,2.3696,Peridotite_rect,7,2.37,1,8,0,8,0,1,,,,,,,,,,,,,
666c7ff3cb01f81efd18805c,TCR,2024-06-25_11h53.49.165,LearnStrategy,2023.2.3,Win32,163.9344262,2,1,10,0.026851852,0.007407407,1,0,0,0.8655,rock_grid_rect_2,1,11,-1,-1,0.865,-0.077777778,-0.22962963,1,0,0,2.7717,Basalt_rect,2,2.772,0,9,0,9,0,1,,,,,,,,,,,,,
666c7ff3cb01f81efd18805c,TCR,2024-06-25_11h53.49.165,LearnStrategy,2023.2.3,Win32,163.9344262,2,1,11,0.028703704,-0.012962963,1,0,0,1.0183,rock_grid_rect_2,2,11,-1,-1,1.018,-0.367592593,-0.235185185,1,0,0,1.9584,Andesite_rect,1,1.958,0,10,0,10,0,1,,,,,,,,,,,,,
666c7ff3cb01f81efd18805c,TCR,2024-06-25_11h53.49.165,LearnStrategy,2023.2.3,Win32,163.9344262,2,1,12,0.007407407,0.002777778,1,0,0,1.1021,rock_grid_rect_2,2,04,-1,-1,1.102,0.421296296,-0.252777778,1,0,0,1.2035,Gabbro_rect,4,1.203,0,11,0,11,0,1,,,,,,,,,,,,,
666c7ff3cb01f81efd18805c,TCR,2024-06-25_11h53.49.165,LearnStrategy,2023.2.3,Win32,163.9344262,2,1,13,0.031481481,-0.002777778,1,0,0,0.6777,rock_grid_rect_2,5,12,-1,-1,0.678,-0.388888889,-0.387037037,1,0,0,1.2465,Obsidian_rect,5,1.247,1,12,0,12,0,1,,,,,,,,,,,,,
666c7ff3cb01f81efd18805c,TCR,2024-06-25_11h53.49.165,LearnStrategy,2023.2.3,Win32,163.9344262,2,1,14,0.044444444,0.018518519,1,0,0,0.5897,rock_grid_rect_2,6,09,-1,-1,0.59,-0.091666667,-0.385185185,1,0,0,2.0262,Pegmatite_rect,6,2.026,1,13,0,13,0,1,,,,,,,,,,,,,
666c7ff3cb01f81efd18805c,TCR,2024-06-25_11h53.49.165,LearnStrategy,2023.2.3,Win32,163.9344262,2,1,15,-0.008333333,-0.012962963,1,0,0,0.599,rock_grid_rect_2,4,09,-1,-1,0.599,0.344444444,-0.244444444,1,0,0,4.2045,Gabbro_rect,4,4.204,1,14,0,14,0,1,,,,,,,,,,,,,
666c7ff3cb01f81efd18805c,TCR,2024-06-25_11h53.49.165,LearnStrategy,2023.2.3,Win32,163.9344262,2,1,16,0.026851852,-0.010185185,1,0,0,0.7988,rock_grid_rect_2,2,14,-1,-1,0.799,-0.107407407,-0.233333333,1,0,0,1.5573,Basalt_rect,2,1.557,1,15,0,15,0,1,,,,,,,,,,,,,
666c7ff3cb01f81efd18805c,TCR,2024-06-25_11h53.49.165,LearnStrategy,2023.2.3,Win32,163.9344262,2,2,1,,,,,,,,2,02,,,,,,,,,,,1,8.631,0,,,,,,-0.356481481,-0.251851852,1,0,0,8.6309,Andesite_rect,0,0,0,0,1,
666c7ff3cb01f81efd18805c,TCR,2024-06-25_11h53.49.165,LearnStrategy,2023.2.3,Win32,163.9344262,2,2,2,,,,,,,,8,04,,,,,,,,,,,8,2.578,1,,,,,,0.468518519,-0.413888889,1,0,0,2.5779,Pumice_rect,1,0,1,0,1,
666c7ff3cb01f81efd18805c,TCR,2024-06-25_11h53.49.165,LearnStrategy,2023.2.3,Win32,163.9344262,2,2,3,,,,,,,,5,08,,,,,,,,,,,5,1.057,1,,,,,,-0.431481481,-0.414814815,1,0,0,1.0572,Obsidian_rect,2,0,2,0,1,
666c7ff3cb01f81efd18805c,TCR,2024-06-25_11h53.49.165,LearnStrategy,2023.2.3,Win32,163.9344262,2,2,4,,,,,,,,7,08,,,,,,,,,,,7,5.483,1,,,,,,0.117592593,-0.39537037,1,0,0,5.4831,Peridotite_rect,3,0,3,0,1,
666c7ff3cb01f81efd18805c,TCR,2024-06-25_11h53.49.165,LearnStrategy,2023.2.3,Win32,163.9344262,2,2,5,,,,,,,,4,15,,,,,,,,,,,3,7.543,0,,,,,,0.109259259,-0.262962963,1,0,0,7.5433,Diorite_rect,4,0,4,0,1,
666c7ff3cb01f81efd18805c,TCR,2024-06-25_11h53.49.165,LearnStrategy,2023.2.3,Win32,163.9344262,2,2,6,,,,,,,,2,16,,,,,,,,,,,2,7.569,1,,,,,,-0.091666667,-0.246296296,1,0,0,7.5688,Basalt_rect,5,0,5,0,1,
666c7ff3cb01f81efd18805c,TCR,2024-06-25_11h53.49.165,LearnStrategy,2023.2.3,Win32,163.9344262,2,2,7,,,,,,,,8,09,,,,,,,,,,,8,1.683,1,,,,,,0.381481481,-0.412037037,1,0,0,1.6827,Pumice_rect,6,0,6,0,1,
666c7ff3cb01f81efd18805c,TCR,2024-06-25_11h53.49.165,LearnStrategy,2023.2.3,Win32,163.9344262,2,2,8,,,,,,,,6,06,,,,,,,,,,,6,5.575,1,,,,,,-0.156481481,-0.397222222,1,0,0,5.5748,Pegmatite_rect,7,0,7,0,1,
666c7ff3cb01f81efd18805c,TCR,2024-06-25_11h53.49.165,LearnStrategy,2023.2.3,Win32,163.9344262,2,2,9,,,,,,,,7,10,,,,,,,,,,,7,1.604,1,,,,,,0.135185185,-0.388888889,1,0,0,1.6043,Peridotite_rect,8,0,8,0,1,
666c7ff3cb01f81efd18805c,TCR,2024-06-25_11h53.49.165,LearnStrategy,2023.2.3,Win32,163.9344262,2,2,10,,,,,,,,4,10,,,,,,,,,,,2,3.374,0,,,,,,-0.157407407,-0.267592593,1,0,0,3.3738,Basalt_rect,9,0,9,0,1,
666c7ff3cb01f81efd18805c,TCR,2024-06-25_11h53.49.165,LearnStrategy,2023.2.3,Win32,163.9344262,2,2,11,,,,,,,,6,05,,,,,,,,,,,6,4.815,1,,,,,,-0.138888889,-0.401851852,1,0,0,4.815,Pegmatite_rect,10,0,10,0,1,
666c7ff3cb01f81efd18805c,TCR,2024-06-25_11h53.49.165,LearnStrategy,2023.2.3,Win32,163.9344262,2,2,12,,,,,,,,5,02,,,,,,,,,,,5,0.9,1,,,,,,-0.382407407,-0.42037037,1,0,0,0.8998,Obsidian_rect,11,0,11,0,1,
666c7ff3cb01f81efd18805c,TCR,2024-06-25_11h53.49.165,LearnStrategy,2023.2.3,Win32,163.9344262,2,2,13,,,,,,,,1,06,,,,,,,,,,,3,3.495,0,,,,,,0.110185185,-0.269444444,1,0,0,3.4955,Diorite_rect,12,0,12,0,1,
666c7ff3cb01f81efd18805c,TCR,2024-06-25_11h53.49.165,LearnStrategy,2023.2.3,Win32,163.9344262,2,2,14,,,,,,,,3,10,,,,,,,,,,,3,1.083,1,,,,,,0.110185185,-0.266666667,1,0,0,1.0829,Diorite_rect,13,0,13,0,1,
666c7ff3cb01f81efd18805c,TCR,2024-06-25_11h53.49.165,LearnStrategy,2023.2.3,Win32,163.9344262,2,2,15,,,,,,,,1,02,,,,,,,,,,,1,9.061,1,,,,,,-0.355555556,-0.259259259,1,0,0,9.0608,Andesite_rect,14,0,14,0,1,
666c7ff3cb01f81efd18805c,TCR,2024-06-25_11h53.49.165,LearnStrategy,2023.2.3,Win32,163.9344262,2,2,16,,,,,,,,3,11,,,,,,,,,,,3,2.243,1,,,,,,0.094444444,-0.258333333,1,0,0,2.243,Diorite_rect,15,0,15,0,1,
666c7ff3cb01f81efd18805c,TCR,2024-06-25_11h53.49.165,LearnStrategy,2023.2.3,Win32,163.9344262,3,1,1,-0.019444444,-0.012037037,1,0,0,1.2964,rock_grid_rect_2,8,14,-1,-1,1.296,0.463888889,-0.402777778,1,0,0,1.1859,Pumice_rect,8,1.186,1,0,0,0,0,1,,,,,,,,,,,,,
666c7ff3cb01f81efd18805c,TCR,2024-06-25_11h53.49.165,LearnStrategy,2023.2.3,Win32,163.9344262,3,1,2,0.00462963,0.012037037,1,0,0,0.6846,rock_grid_rect_2,5,16,-1,-1,0.685,-0.355555556,-0.391666667,1,0,0,0.8924,Obsidian_rect,5,0.892,1,1,0,1,0,1,,,,,,,,,,,,,
666c7ff3cb01f81efd18805c,TCR,2024-06-25_11h53.49.165,LearnStrategy,2023.2.3,Win32,163.9344262,3,1,3,-0.038888889,0.002777778,1,0,0,0.6599,rock_grid_rect_2,1,11,-1,-1,0.66,-0.35462963,-0.237962963,1,0,0,3.9488,Andesite_rect,1,3.949,1,2,0,2,0,1,,,,,,,,,,,,,
666c7ff3cb01f81efd18805c,TCR,2024-06-25_11h53.49.165,LearnStrategy,2023.2.3,Win32,163.9344262,3,1,4,0.00462963,-0.007407407,1,0,0,0.8293,rock_grid_rect_2,7,16,-1,-1,0.829,0.359259259,-0.259259259,1,0,0,3.1323,Gabbro_rect,4,3.132,0,3,0,3,0,1,,,,,,,,,,,,,
666c7ff3cb01f81efd18805c,TCR,2024-06-25_11h53.49.165,LearnStrategy,2023.2.3,Win32,163.9344262,3,1,5,0.00462963,-0.016666667,1,0,0,0.6383,rock_grid_rect_2,2,14,-1,-1,0.638,-0.088888889,-0.237037037,1,0,0,1.9373,Basalt_rect,2,1.937,1,4,0,4,0,1,,,,,,,,,,,,,
666c7ff3cb01f81efd18805c,TCR,2024-06-25_11h53.49.165,LearnStrategy,2023.2.3,Win32,163.9344262,3,1,6,0.019444444,-0.000925926,1,0,0,0.806,rock_grid_rect_2,4,05,-1,-1,0.806,0.435185185,-0.249074074,1,0,0,2.8468,Gabbro_rect,4,2.847,1,5,0,5,0,1,,,,,,,,,,,,,
666c7ff3cb01f81efd18805c,TCR,2024-06-25_11h53.49.165,LearnStrategy,2023.2.3,Win32,163.9344262,3,1,7,-0.001851852,-0.003703704,1,0,0,1.0909,rock_grid_rect_2,2,01,-1,-1,1.091,-0.325925926,-0.260185185,1,0,0,2.611,Andesite_rect,1,2.611,0,6,0,6,0,1,,,,,,,,,,,,,
666c7ff3cb01f81efd18805c,TCR,2024-06-25_11h53.49.165,LearnStrategy,2023.2.3,Win32,163.9344262,3,1,8,-0.007407407,-0.006481481,1,0,0,0.6898,rock_grid_rect_2,1,09,-1,-1,0.69,-0.1,-0.267592593,1,0,0,1.957,Basalt_rect,2,1.957,0,7,0,7,0,1,,,,,,,,,,,,,
666c7ff3cb01f81efd18805c,TCR,2024-06-25_11h53.49.165,LearnStrategy,2023.2.3,Win32,163.9344262,3,1,9,0.028703704,-0.017592593,1,0,0,0.6414,rock_grid_rect_2,4,03,-1,-1,0.641,0.103703704,-0.263888889,1,0,0,1.6074,Diorite_rect,3,1.607,0,8,0,8,0,1,,,,,,,,,,,,,
666c7ff3cb01f81efd18805c,TCR,2024-06-25_11h53.49.165,LearnStrategy,2023.2.3,Win32,163.9344262,3,1,10,0.006481481,-0.008333333,1,0,0,0.8537,rock_grid_rect_2,6,12,-1,-1,0.854,-0.085185185,-0.405555556,1,0,0,3.2455,Pegmatite_rect,6,3.245,1,9,0,9,0,1,,,,,,,,,,,,,
666c7ff3cb01f81efd18805c,TCR,2024-06-25_11h53.49.165,LearnStrategy,2023.2.3,Win32,163.9344262,3,1,11,-0.003703704,-0.00462963,1,0,0,0.6438,rock_grid_rect_2,1,16,-1,-1,0.644,-0.300925926,-0.251851852,1,0,0,4.9526,Andesite_rect,1,4.953,1,10,0,10,0,1,,,,,,,,,,,,,
666c7ff3cb01f81efd18805c,TCR,2024-06-25_11h53.49.165,LearnStrategy,2023.2.3,Win32,163.9344262,3,1,12,0.012037037,-0.012037037,1,0,0,0.9275,rock_grid_rect_2,3,07,-1,-1,0.928,0.14537037,-0.25462963,1,0,0,3.0987,Diorite_rect,3,3.099,1,11,0,11,0,1,,,,,,,,,,,,,
666c7ff3cb01f81efd18805c,TCR,2024-06-25_11h53.49.165,LearnStrategy,2023.2.3,Win32,163.9344262,3,1,13,0.072222222,0.000925926,1,0,0,0.9759,rock_grid_rect_2,6,09,-1,-1,0.976,-0.119444444,-0.392592593,1,0,0,2.0581,Pegmatite_rect,6,2.058,1,12,0,12,0,1,,,,,,,,,,,,,
666c7ff3cb01f81efd18805c,TCR,2024-06-25_11h53.49.165,LearnStrategy,2023.2.3,Win32,163.9344262,3,1,14,0.034259259,-0.015740741,1,0,0,0.6473,rock_grid_rect_2,2,09,-1,-1,0.647,-0.128703704,-0.260185185,1,0,0,2.9142,Basalt_rect,2,2.914,1,13,0,13,0,1,,,,,,,,,,,,,
666c7ff3cb01f81efd18805c,TCR,2024-06-25_11h53.49.165,LearnStrategy,2023.2.3,Win32,163.9344262,3,1,15,0.042592593,-0.002777778,1,0,0,0.9323,rock_grid_rect_2,4,03,-1,-1,0.932,0.35462963,-0.242592593,1,0,0,3.2159,Gabbro_rect,4,3.216,1,14,0,14,0,1,,,,,,,,,,,,,
666c7ff3cb01f81efd18805c,TCR,2024-06-25_11h53.49.165,LearnStrategy,2023.2.3,Win32,163.9344262,3,1,16,0.087962963,0.02037037,1,0,0,6.2421,rock_grid_rect_2,4,14,-1,-1,6.242,-0.105555556,-0.249074074,1,0,0,3.8754,Basalt_rect,2,3.875,0,15,0,15,0,1,,,,,,,,,,,,,
666c7ff3cb01f81efd18805c,TCR,2024-06-25_11h53.49.165,LearnStrategy,2023.2.3,Win32,163.9344262,3,2,1,,,,,,,,1,10,,,,,,,,,,,2,16.239,0,,,,,,-0.086111111,-0.261111111,1,0,0,16.2393,Basalt_rect,0,0,0,0,1,
666c7ff3cb01f81efd18805c,TCR,2024-06-25_11h53.49.165,LearnStrategy,2023.2.3,Win32,163.9344262,3,2,2,,,,,,,,5,10,,,,,,,,,,,5,1.214,1,,,,,,-0.405555556,-0.4,1,0,0,1.2141,Obsidian_rect,1,0,1,0,1,
666c7ff3cb01f81efd18805c,TCR,2024-06-25_11h53.49.165,LearnStrategy,2023.2.3,Win32,163.9344262,3,2,3,,,,,,,,1,04,,,,,,,,,,,2,13.747,0,,,,,,-0.064814815,-0.269444444,1,0,0,13.747,Basalt_rect,2,0,2,0,1,
666c7ff3cb01f81efd18805c,TCR,2024-06-25_11h53.49.165,LearnStrategy,2023.2.3,Win32,163.9344262,3,2,4,,,,,,,,4,16,,,,,,,,,,,1,14.7,0,,,,,,-0.416666667,-0.241666667,1,0,0,14.6999,Andesite_rect,3,0,3,0,1,
666c7ff3cb01f81efd18805c,TCR,2024-06-25_11h53.49.165,LearnStrategy,2023.2.3,Win32,163.9344262,3,2,5,,,,,,,,6,08,,,,,,,,,,,6,2.602,1,,,,,,-0.181481481,-0.399074074,1,0,0,2.6021,Pegmatite_rect,4,0,4,0,1,
666c7ff3cb01f81efd18805c,TCR,2024-06-25_11h53.49.165,LearnStrategy,2023.2.3,Win32,163.9344262,3,2,6,,,,,,,,8,06,,,,,,,,,,,8,1.062,1,,,,,,0.415740741,-0.407407407,1,0,0,1.0621,Pumice_rect,5,0,5,0,1,
666c7ff3cb01f81efd18805c,TCR,2024-06-25_11h53.49.165,LearnStrategy,2023.2.3,Win32,163.9344262,3,2,7,,,,,,,,2,05,,,,,,,,,,,2,4.914,1,,,,,,-0.085185185,-0.262037037,1,0,0,4.9137,Basalt_rect,6,0,6,0,1,
666c7ff3cb01f81efd18805c,TCR,2024-06-25_11h53.49.165,LearnStrategy,2023.2.3,Win32,163.9344262,3,2,8,,,,,,,,8,13,,,,,,,,,,,3,15.302,0,,,,,,0.092592593,-0.240740741,1,0,0,15.3016,Diorite_rect,7,0,7,0,1,
666c7ff3cb01f81efd18805c,TCR,2024-06-25_11h53.49.165,LearnStrategy,2023.2.3,Win32,163.9344262,3,2,9,,,,,,,,7,13,,,,,,,,,,,7,3.569,1,,,,,,0.092592593,-0.405555556,1,0,0,3.5689,Peridotite_rect,8,0,8,0,1,
666c7ff3cb01f81efd18805c,TCR,2024-06-25_11h53.49.165,LearnStrategy,2023.2.3,Win32,163.9344262,3,2,10,,,,,,,,7,12,,,,,,,,,,,7,5.325,1,,,,,,0.098148148,-0.407407407,1,0,0,5.3246,Peridotite_rect,9,0,9,0,1,
666c7ff3cb01f81efd18805c,TCR,2024-06-25_11h53.49.165,LearnStrategy,2023.2.3,Win32,163.9344262,3,2,11,,,,,,,,5,07,,,,,,,,,,,5,2.648,1,,,,,,-0.344444444,-0.407407407,1,0,0,2.6475,Obsidian_rect,10,0,10,0,1,
666c7ff3cb01f81efd18805c,TCR,2024-06-25_11h53.49.165,LearnStrategy,2023.2.3,Win32,163.9344262,3,2,12,,,,,,,,3,09,,,,,,,,,,,3,3.564,1,,,,,,0.137962963,-0.250925926,1,0,0,3.5636,Diorite_rect,11,0,11,0,1,
666c7ff3cb01f81efd18805c,TCR,2024-06-25_11h53.49.165,LearnStrategy,2023.2.3,Win32,163.9344262,3,2,13,,,,,,,,6,10,,,,,,,,,,,6,2.095,1,,,,,,-0.075,-0.411111111,1,0,0,2.0954,Pegmatite_rect,12,0,12,0,1,
666c7ff3cb01f81efd18805c,TCR,2024-06-25_11h53.49.165,LearnStrategy,2023.2.3,Win32,163.9344262,3,2,14,,,,,,,,3,02,,,,,,,,,,,4,9.286,0,,,,,,0.364814815,-0.246296296,1,0,0,9.2865,Gabbro_rect,13,0,13,0,1,
666c7ff3cb01f81efd18805c,TCR,2024-06-25_11h53.49.165,LearnStrategy,2023.2.3,Win32,163.9344262,3,2,15,,,,,,,,2,06,,,,,,,,,,,2,1.878,1,,,,,,-0.082407407,-0.262962963,1,0,0,1.8777,Basalt_rect,14,0,14,0,1,
666c7ff3cb01f81efd18805c,TCR,2024-06-25_11h53.49.165,LearnStrategy,2023.2.3,Win32,163.9344262,3,2,16,,,,,,,,4,08,,,,,,,,,,,1,6.977,0,,,,,,-0.380555556,-0.263888889,1,0,0,6.9775,Andesite_rect,15,0,15,0,1,
666c7ff3cb01f81efd18805c,TCR,2024-06-25_11h53.49.165,LearnStrategy,2023.2.3,Win32,163.9344262,4,1,1,0.012962963,0.009259259,1,0,0,1.0668,rock_grid_rect_2,3,06,-1,-1,1.067,0.052777778,-0.249074074,1,0,0,3.5155,Diorite_rect,3,3.515,1,0,0,0,0,1,,,,,,,,,,,,,
666c7ff3cb01f81efd18805c,TCR,2024-06-25_11h53.49.165,LearnStrategy,2023.2.3,Win32,163.9344262,4,1,2,0.012037037,-0.012962963,1,0,0,1.0175,rock_grid_rect_2,8,14,-1,-1,1.018,0.383333333,-0.388888889,1,0,0,0.9932,Pumice_rect,8,0.993,1,1,0,1,0,1,,,,,,,,,,,,,
666c7ff3cb01f81efd18805c,TCR,2024-06-25_11h53.49.165,LearnStrategy,2023.2.3,Win32,163.9344262,4,1,3,-0.012037037,-0.008333333,1,0,0,1.0169,rock_grid_rect_2,4,05,-1,-1,1.017,-0.337962963,-0.252777778,1,0,0,5.988,Andesite_rect,1,5.988,0,2,0,2,0,1,,,,,,,,,,,,,
666c7ff3cb01f81efd18805c,TCR,2024-06-25_11h53.49.165,LearnStrategy,2023.2.3,Win32,163.9344262,4,1,4,-0.013888889,-0.007407407,1,0,0,0.8837,rock_grid_rect_2,2,08,-1,-1,0.884,-0.12037037,-0.253703704,1,0,0,1.2636,Basalt_rect,2,1.264,1,3,0,3,0,1,,,,,,,,,,,,,
666c7ff3cb01f81efd18805c,TCR,2024-06-25_11h53.49.165,LearnStrategy,2023.2.3,Win32,163.9344262,4,1,5,-0.006481481,-0.012037037,1,0,0,0.8324,rock_grid_rect_2,2,01,-1,-1,0.832,-0.10462963,-0.24537037,1,0,0,0.7197,Basalt_rect,2,0.72,1,4,0,4,0,1,,,,,,,,,,,,,
666c7ff3cb01f81efd18805c,TCR,2024-06-25_11h53.49.165,LearnStrategy,2023.2.3,Win32,163.9344262,4,1,6,0.016666667,0.002777778,1,0,0,0.5024,rock_grid_rect_2,1,14,-1,-1,0.502,0.076851852,-0.25,1,0,0,2.5989,Diorite_rect,3,2.599,0,5,0,5,0,1,,,,,,,,,,,,,
666c7ff3cb01f81efd18805c,TCR,2024-06-25_11h53.49.165,LearnStrategy,2023.2.3,Win32,163.9344262,4,1,7,0.030555556,-0.016666667,1,0,0,0.599,rock_grid_rect_2,4,11,-1,-1,0.599,-0.406481481,-0.239814815,1,0,0,2.5235,Andesite_rect,1,2.524,0,6,0,6,0,1,,,,,,,,,,,,,
666c7ff3cb01f81efd18805c,TCR,2024-06-25_11h53.49.165,LearnStrategy,2023.2.3,Win32,163.9344262,4,1,8,-0.005555556,-0.014814815,1,0,0,0.7394,rock_grid_rect_2,1,03,-1,-1,0.739,-0.343518519,-0.259259259,1,0,0,2.1788,Andesite_rect,1,2.179,1,7,0,7,0,1,,,,,,,,,,,,,
666c7ff3cb01f81efd18805c,TCR,2024-06-25_11h53.49.165,LearnStrategy,2023.2.3,Win32,163.9344262,4,1,9,0.023148148,-0.023148148,1,0,0,1.4233,rock_grid_rect_2,1,11,-1,-1,1.423,0.401851852,-0.271296296,1,0,0,2.8067,Gabbro_rect,4,2.807,0,8,0,8,0,1,,,,,,,,,,,,,
666c7ff3cb01f81efd18805c,TCR,2024-06-25_11h53.49.165,LearnStrategy,2023.2.3,Win32,163.9344262,4,1,10,0.027777778,-0.016666667,1,0,0,0.6354,rock_grid_rect_2,6,07,-1,-1,0.635,-0.114814815,-0.39537037,1,0,0,2.8543,Pegmatite_rect,6,2.854,1,9,0,9,0,1,,,,,,,,,,,,,
666c7ff3cb01f81efd18805c,TCR,2024-06-25_11h53.49.165,LearnStrategy,2023.2.3,Win32,163.9344262,4,1,11,0.025,-0.009259259,1,0,0,0.6899,rock_grid_rect_2,4,11,-1,-1,0.69,-0.069444444,-0.268518519,1,0,0,2.0699,Basalt_rect,2,2.07,0,10,0,10,0,1,,,,,,,,,,,,,
666c7ff3cb01f81efd18805c,TCR,2024-06-25_11h53.49.165,LearnStrategy,2023.2.3,Win32,163.9344262,4,1,12,0.031481481,0.001851852,1,0,0,0.6173,rock_grid_rect_2,4,13,-1,-1,0.617,0.068518519,-0.257407407,1,0,0,4.4661,Diorite_rect,3,4.466,0,11,0,11,0,1,,,,,,,,,,,,,
666c7ff3cb01f81efd18805c,TCR,2024-06-25_11h53.49.165,LearnStrategy,2023.2.3,Win32,163.9344262,4,1,13,0.003703704,-0.00462963,1,0,0,0.723,rock_grid_rect_2,3,08,-1,-1,0.723,0.142592593,-0.250925926,1,0,0,3.709,Diorite_rect,3,3.709,1,12,0,12,0,1,,,,,,,,,,,,,
666c7ff3cb01f81efd18805c,TCR,2024-06-25_11h53.49.165,LearnStrategy,2023.2.3,Win32,163.9344262,4,1,14,0.087037037,-0.021296296,1,0,0,0.5352,rock_grid_rect_2,5,14,-1,-1,0.535,-0.375925926,-0.412962963,1,0,0,1.5945,Obsidian_rect,5,1.595,1,13,0,13,0,1,,,,,,,,,,,,,
666c7ff3cb01f81efd18805c,TCR,2024-06-25_11h53.49.165,LearnStrategy,2023.2.3,Win32,163.9344262,4,1,15,0.065740741,-0.000925926,1,0,0,0.6231,rock_grid_rect_2,7,06,-1,-1,0.623,-0.125,-0.402777778,1,0,0,1.6915,Pegmatite_rect,6,1.691,0,14,0,14,0,1,,,,,,,,,,,,,
666c7ff3cb01f81efd18805c,TCR,2024-06-25_11h53.49.165,LearnStrategy,2023.2.3,Win32,163.9344262,4,1,16,0.009259259,-0.008333333,1,0,0,2.0657,rock_grid_rect_2,1,14,-1,-1,2.066,0.107407407,-0.243518519,1,0,0,3.1956,Diorite_rect,3,3.196,0,15,0,15,0,1,,,,,,,,,,,,,
666c7ff3cb01f81efd18805c,TCR,2024-06-25_11h53.49.165,LearnStrategy,2023.2.3,Win32,163.9344262,4,2,1,,,,,,,,3,15,,,,,,,,,,,1,47.416,0,,,,,,-0.375,-0.249074074,1,0,0,47.4162,Andesite_rect,0,0,0,0,1,
666c7ff3cb01f81efd18805c,TCR,2024-06-25_11h53.49.165,LearnStrategy,2023.2.3,Win32,163.9344262,4,2,2,,,,,,,,8,13,,,,,,,,,,,8,3.673,1,,,,,,0.363888889,-0.392592593,1,0,0,3.673,Pumice_rect,1,0,1,0,1,
666c7ff3cb01f81efd18805c,TCR,2024-06-25_11h53.49.165,LearnStrategy,2023.2.3,Win32,163.9344262,4,2,3,,,,,,,,5,08,,,,,,,,,,,5,1.189,1,,,,,,-0.42962963,-0.39537037,1,0,0,1.1889,Obsidian_rect,2,0,2,0,1,
666c7ff3cb01f81efd18805c,TCR,2024-06-25_11h53.49.165,LearnStrategy,2023.2.3,Win32,163.9344262,4,2,4,,,,,,,,7,14,,,,,,,,,,,3,21.282,0,,,,,,0.09537037,-0.265740741,1,0,0,21.2815,Diorite_rect,3,0,3,0,1,
666c7ff3cb01f81efd18805c,TCR,2024-06-25_11h53.49.165,LearnStrategy,2023.2.3,Win32,163.9344262,4,2,5,,,,,,,,8,08,,,,,,,,,,,8,1.409,1,,,,,,0.391666667,-0.401851852,1,0,0,1.4088,Pumice_rect,4,0,4,0,1,
666c7ff3cb01f81efd18805c,TCR,2024-06-25_11h53.49.165,LearnStrategy,2023.2.3,Win32,163.9344262,4,2,6,,,,,,,,3,02,,,,,,,,,,,3,13.724,1,,,,,,0.106481481,-0.262037037,1,0,0,13.724,Diorite_rect,5,0,5,0,1,
666c7ff3cb01f81efd18805c,TCR,2024-06-25_11h53.49.165,LearnStrategy,2023.2.3,Win32,163.9344262,4,2,7,,,,,,,,2,10,,,,,,,,,,,2,3.816,1,,,,,,-0.127777778,-0.25462963,1,0,0,3.8164,Basalt_rect,6,0,6,0,1,
666c7ff3cb01f81efd18805c,TCR,2024-06-25_11h53.49.165,LearnStrategy,2023.2.3,Win32,163.9344262,4,2,8,,,,,,,,1,07,,,,,,,,,,,3,8.067,0,,,,,,0.114814815,-0.243518519,1,0,0,8.0673,Diorite_rect,7,0,7,0,1,
666c7ff3cb01f81efd18805c,TCR,2024-06-25_11h53.49.165,LearnStrategy,2023.2.3,Win32,163.9344262,4,2,9,,,,,,,,2,06,,,,,,,,,,,2,1.1,1,,,,,,-0.140740741,-0.246296296,1,0,0,1.0995,Basalt_rect,8,0,8,0,1,
666c7ff3cb01f81efd18805c,TCR,2024-06-25_11h53.49.165,LearnStrategy,2023.2.3,Win32,163.9344262,4,2,10,,,,,,,,4,08,,,,,,,,,,,4,1.815,1,,,,,,0.353703704,-0.251851852,1,0,0,1.8152,Gabbro_rect,9,0,9,0,1,
666c7ff3cb01f81efd18805c,TCR,2024-06-25_11h53.49.165,LearnStrategy,2023.2.3,Win32,163.9344262,4,2,11,,,,,,,,7,12,,,,,,,,,,,7,6.866,1,,,,,,0.098148148,-0.385185185,1,0,0,6.8662,Peridotite_rect,10,0,10,0,1,
666c7ff3cb01f81efd18805c,TCR,2024-06-25_11h53.49.165,LearnStrategy,2023.2.3,Win32,163.9344262,4,2,12,,,,,,,,6,06,,,,,,,,,,,6,3.726,1,,,,,,-0.078703704,-0.400925926,1,0,0,3.7256,Pegmatite_rect,11,0,11,0,1,
666c7ff3cb01f81efd18805c,TCR,2024-06-25_11h53.49.165,LearnStrategy,2023.2.3,Win32,163.9344262,4,2,13,,,,,,,,1,02,,,,,,,,,,,1,5.449,1,,,,,,-0.366666667,-0.243518519,1,0,0,5.4486,Andesite_rect,12,0,12,0,1,
666c7ff3cb01f81efd18805c,TCR,2024-06-25_11h53.49.165,LearnStrategy,2023.2.3,Win32,163.9344262,4,2,14,,,,,,,,5,04,,,,,,,,,,,5,1.95,1,,,,,,-0.351851852,-0.407407407,1,0,0,1.9498,Obsidian_rect,13,0,13,0,1,
666c7ff3cb01f81efd18805c,TCR,2024-06-25_11h53.49.165,LearnStrategy,2023.2.3,Win32,163.9344262,4,2,15,,,,,,,,6,16,,,,,,,,,,,6,1.768,1,,,,,,-0.12037037,-0.406481481,1,0,0,1.7682,Pegmatite_rect,14,0,14,0,1,
666c7ff3cb01f81efd18805c,TCR,2024-06-25_11h53.49.165,LearnStrategy,2023.2.3,Win32,163.9344262,4,2,16,,,,,,,,4,01,,,,,,,,,,,4,8.164,1,,,,,,0.348148148,-0.271296296,1,0,0,8.1636,Gabbro_rect,15,0,15,0,1,
666c7ff3cb01f81efd18805c,TCR,2024-06-25_11h53.49.165,LearnStrategy,2023.2.3,Win32,163.9344262,5,1,1,0.010185185,-0.008333333,1,0,0,1.0886,rock_grid_rect_2,3,07,-1,-1,1.089,0.12962963,-0.24537037,1,0,0,3.3263,Diorite_rect,3,3.326,1,0,0,0,0,1,,,,,,,,,,,,,
666c7ff3cb01f81efd18805c,TCR,2024-06-25_11h53.49.165,LearnStrategy,2023.2.3,Win32,163.9344262,5,1,2,0.057407407,-0.014814815,1,0,0,0.7384,rock_grid_rect_2,4,11,-1,-1,0.738,0.358333333,-0.239814815,1,0,0,1.6427,Gabbro_rect,4,1.643,1,1,0,1,0,1,,,,,,,,,,,,,
666c7ff3cb01f81efd18805c,TCR,2024-06-25_11h53.49.165,LearnStrategy,2023.2.3,Win32,163.9344262,5,1,3,0,-0.012962963,1,0,0,1.872,rock_grid_rect_2,1,09,-1,-1,1.872,-0.358333333,-0.242592593,1,0,0,1.4009,Andesite_rect,1,1.401,1,2,0,2,0,1,,,,,,,,,,,,,
666c7ff3cb01f81efd18805c,TCR,2024-06-25_11h53.49.165,LearnStrategy,2023.2.3,Win32,163.9344262,5,1,4,0.018518519,-0.006481481,1,0,0,0.7929,rock_grid_rect_2,6,07,-1,-1,0.793,-0.106481481,-0.407407407,1,0,0,3.0028,Pegmatite_rect,6,3.003,1,3,0,3,0,1,,,,,,,,,,,,,
666c7ff3cb01f81efd18805c,TCR,2024-06-25_11h53.49.165,LearnStrategy,2023.2.3,Win32,163.9344262,5,1,5,0.032407407,-0.011111111,1,0,0,0.7774,rock_grid_rect_2,3,06,-1,-1,0.777,0.108333333,-0.249074074,1,0,0,1.9211,Diorite_rect,3,1.921,1,4,0,4,0,1,,,,,,,,,,,,,
666c7ff3cb01f81efd18805c,TCR,2024-06-25_11h53.49.165,LearnStrategy,2023.2.3,Win32,163.9344262,5,1,6,0.016666667,-0.000925926,1,0,0,0.6121,rock_grid_rect_2,8,14,-1,-1,0.612,0.419444444,-0.37962963,1,0,0,1.2169,Pumice_rect,8,1.217,1,5,0,5,0,1,,,,,,,,,,,,,
666c7ff3cb01f81efd18805c,TCR,2024-06-25_11h53.49.165,LearnStrategy,2023.2.3,Win32,163.9344262,5,1,7,0.02037037,-0.017592593,1,0,0,0.5142,rock_grid_rect_2,2,09,-1,-1,0.514,-0.139814815,-0.243518519,1,0,0,0.7361,Basalt_rect,2,0.736,1,6,0,6,0,1,,,,,,,,,,,,,
666c7ff3cb01f81efd18805c,TCR,2024-06-25_11h53.49.165,LearnStrategy,2023.2.3,Win32,163.9344262,5,1,8,0.010185185,-0.006481481,1,0,0,0.4113,rock_grid_rect_2,7,05,-1,-1,0.411,0.090740741,-0.381481481,1,0,0,2.104,Peridotite_rect,7,2.104,1,7,0,7,0,1,,,,,,,,,,,,,
666c7ff3cb01f81efd18805c,TCR,2024-06-25_11h53.49.165,LearnStrategy,2023.2.3,Win32,163.9344262,5,1,9,-0.022222222,-0.003703704,1,0,0,0.5233,rock_grid_rect_2,3,14,-1,-1,0.523,0.357407407,-0.267592593,1,0,0,3.8528,Gabbro_rect,4,3.853,0,8,0,8,0,1,,,,,,,,,,,,,
666c7ff3cb01f81efd18805c,TCR,2024-06-25_11h53.49.165,LearnStrategy,2023.2.3,Win32,163.9344262,5,1,10,0.031481481,0.000925926,1,0,0,0.5941,rock_grid_rect_2,1,03,-1,-1,0.594,-0.355555556,-0.25,1,0,0,1.9351,Andesite_rect,1,1.935,1,9,0,9,0,1,,,,,,,,,,,,,
666c7ff3cb01f81efd18805c,TCR,2024-06-25_11h53.49.165,LearnStrategy,2023.2.3,Win32,163.9344262,5,1,11,0.02037037,-0.022222222,1,0,0,0.6111,rock_grid_rect_2,2,08,-1,-1,0.611,-0.121296296,-0.241666667,1,0,0,0.9096,Basalt_rect,2,0.91,1,10,0,10,0,1,,,,,,,,,,,,,
666c7ff3cb01f81efd18805c,TCR,2024-06-25_11h53.49.165,LearnStrategy,2023.2.3,Win32,163.9344262,5,1,12,0.024074074,-0.003703704,1,0,0,0.5809,rock_grid_rect_2,1,14,-1,-1,0.581,0.085185185,-0.256481481,1,0,0,2.2488,Diorite_rect,3,2.249,0,11,0,11,0,1,,,,,,,,,,,,,
666c7ff3cb01f81efd18805c,TCR,2024-06-25_11h53.49.165,LearnStrategy,2023.2.3,Win32,163.9344262,5,1,13,0.015740741,-0.012962963,1,0,0,0.6293,rock_grid_rect_2,4,13,-1,-1,0.629,0.089814815,-0.253703704,1,0,0,1.0894,Diorite_rect,3,1.089,0,12,0,12,0,1,,,,,,,,,,,,,
666c7ff3cb01f81efd18805c,TCR,2024-06-25_11h53.49.165,LearnStrategy,2023.2.3,Win32,163.9344262,5,1,14,0.040740741,0.023148148,1,0,0,0.5517,rock_grid_rect_2,7,16,-1,-1,0.552,0.07037037,-0.402777778,1,0,0,1.918,Peridotite_rect,7,1.918,1,13,0,13,0,1,,,,,,,,,,,,,
666c7ff3cb01f81efd18805c,TCR,2024-06-25_11h53.49.165,LearnStrategy,2023.2.3,Win32,163.9344262,5,1,15,0.041666667,-0.012962963,1,0,0,0.7202,rock_grid_rect_2,1,14,-1,-1,0.72,-0.387037037,-0.261111111,1,0,0,3.4291,Andesite_rect,1,3.429,1,14,0,14,0,1,,,,,,,,,,,,,
666c7ff3cb01f81efd18805c,TCR,2024-06-25_11h53.49.165,LearnStrategy,2023.2.3,Win32,163.9344262,5,1,16,0.055555556,-0.013888889,1,0,0,0.7273,rock_grid_rect_2,4,03,-1,-1,0.727,0.386111111,-0.256481481,1,0,0,1.8704,Gabbro_rect,4,1.87,1,15,0,15,0,1,,,,,,,,,,,,,
666c7ff3cb01f81efd18805c,TCR,2024-06-25_11h53.49.165,LearnStrategy,2023.2.3,Win32,163.9344262,5,2,1,,,,,,,,4,10,,,,,,,,,,,4,5.078,1,,,,,,0.405555556,-0.249074074,1,0,0,5.0777,Gabbro_rect,0,0,0,0,1,
666c7ff3cb01f81efd18805c,TCR,2024-06-25_11h53.49.165,LearnStrategy,2023.2.3,Win32,163.9344262,5,2,2,,,,,,,,6,05,,,,,,,,,,,3,11.893,0,,,,,,0.103703704,-0.255555556,1,0,0,11.8926,Diorite_rect,1,0,1,0,1,
666c7ff3cb01f81efd18805c,TCR,2024-06-25_11h53.49.165,LearnStrategy,2023.2.3,Win32,163.9344262,5,2,3,,,,,,,,7,08,,,,,,,,,,,7,2.467,1,,,,,,0.109259259,-0.402777778,1,0,0,2.4672,Peridotite_rect,2,0,2,0,1,
666c7ff3cb01f81efd18805c,TCR,2024-06-25_11h53.49.165,LearnStrategy,2023.2.3,Win32,163.9344262,5,2,4,,,,,,,,1,10,,,,,,,,,,,1,5.251,1,,,,,,-0.408333333,-0.259259259,1,0,0,5.2511,Andesite_rect,3,0,3,0,1,
666c7ff3cb01f81efd18805c,TCR,2024-06-25_11h53.49.165,LearnStrategy,2023.2.3,Win32,163.9344262,5,2,5,,,,,,,,6,13,,,,,,,,,,,4,14.606,0,,,,,,0.352777778,-0.266666667,1,0,0,14.6057,Gabbro_rect,4,0,4,0,1,
666c7ff3cb01f81efd18805c,TCR,2024-06-25_11h53.49.165,LearnStrategy,2023.2.3,Win32,163.9344262,5,2,6,,,,,,,,4,15,,,,,,,,,,,4,3.779,1,,,,,,0.384259259,-0.241666667,1,0,0,3.7792,Gabbro_rect,5,0,5,0,1,
666c7ff3cb01f81efd18805c,TCR,2024-06-25_11h53.49.165,LearnStrategy,2023.2.3,Win32,163.9344262,5,2,7,,,,,,,,2,12,,,,,,,,,,,2,9.032,1,,,,,,-0.203703704,-0.24537037,1,0,0,9.0324,Basalt_rect,6,0,6,0,1,
666c7ff3cb01f81efd18805c,TCR,2024-06-25_11h53.49.165,LearnStrategy,2023.2.3,Win32,163.9344262,5,2,8,,,,,,,,2,16,,,,,,,,,,,4,4.867,0,,,,,,0.390740741,-0.262037037,1,0,0,4.8669,Gabbro_rect,7,0,7,0,1,
666c7ff3cb01f81efd18805c,TCR,2024-06-25_11h53.49.165,LearnStrategy,2023.2.3,Win32,163.9344262,5,2,9,,,,,,,,5,07,,,,,,,,,,,5,1.063,1,,,,,,-0.352777778,-0.407407407,1,0,0,1.0632,Obsidian_rect,8,0,8,0,1,
666c7ff3cb01f81efd18805c,TCR,2024-06-25_11h53.49.165,LearnStrategy,2023.2.3,Win32,163.9344262,5,2,10,,,,,,,,8,09,,,,,,,,,,,8,1.808,1,,,,,,0.410185185,-0.403703704,1,0,0,1.8083,Pumice_rect,9,0,9,0,1,
666c7ff3cb01f81efd18805c,TCR,2024-06-25_11h53.49.165,LearnStrategy,2023.2.3,Win32,163.9344262,5,2,11,,,,,,,,3,09,,,,,,,,,,,3,1.743,1,,,,,,0.114814815,-0.248148148,1,0,0,1.7434,Diorite_rect,10,0,10,0,1,
666c7ff3cb01f81efd18805c,TCR,2024-06-25_11h53.49.165,LearnStrategy,2023.2.3,Win32,163.9344262,5,2,12,,,,,,,,8,05,,,,,,,,,,,8,1.654,1,,,,,,0.383333333,-0.405555556,1,0,0,1.6538,Pumice_rect,11,0,11,0,1,
666c7ff3cb01f81efd18805c,TCR,2024-06-25_11h53.49.165,LearnStrategy,2023.2.3,Win32,163.9344262,5,2,13,,,,,,,,5,10,,,,,,,,,,,5,1.052,1,,,,,,-0.386111111,-0.408333333,1,0,0,1.0521,Obsidian_rect,12,0,12,0,1,
666c7ff3cb01f81efd18805c,TCR,2024-06-25_11h53.49.165,LearnStrategy,2023.2.3,Win32,163.9344262,5,2,14,,,,,,,,7,10,,,,,,,,,,,7,3.364,1,,,,,,0.113888889,-0.401851852,1,0,0,3.3638,Peridotite_rect,13,0,13,0,1,
666c7ff3cb01f81efd18805c,TCR,2024-06-25_11h53.49.165,LearnStrategy,2023.2.3,Win32,163.9344262,5,2,15,,,,,,,,3,11,,,,,,,,,,,4,8.638,0,,,,,,0.316666667,-0.243518519,1,0,0,8.6381,Gabbro_rect,14,0,14,0,1,
666c7ff3cb01f81efd18805c,TCR,2024-06-25_11h53.49.165,LearnStrategy,2023.2.3,Win32,163.9344262,5,2,16,,,,,,,,1,01,,,,,,,,,,,3,3.502,0,,,,,,0.164814815,-0.266666667,1,0,0,3.502,Diorite_rect,15,0,15,0,1,
666c7ff3cb01f81efd18805c,TCR,2024-06-25_11h53.49.165,LearnStrategy,2023.2.3,Win32,163.9344262,6,1,1,0.015740741,-0.012962963,1,0,0,0.8914,rock_grid_rect_2,1,09,-1,-1,0.891,-0.331481481,-0.239814815,1,0,0,1.2398,Andesite_rect,1,1.24,1,0,0,0,0,1,,,,,,,,,,,,,
666c7ff3cb01f81efd18805c,TCR,2024-06-25_11h53.49.165,LearnStrategy,2023.2.3,Win32,163.9344262,6,1,2,-0.012037037,-0.021296296,1,0,0,0.6593,rock_grid_rect_2,4,11,-1,-1,0.659,0.4,-0.271296296,1,0,0,1.2365,Gabbro_rect,4,1.236,1,1,0,1,0,1,,,,,,,,,,,,,
666c7ff3cb01f81efd18805c,TCR,2024-06-25_11h53.49.165,LearnStrategy,2023.2.3,Win32,163.9344262,6,1,3,0.011111111,-0.015740741,1,0,0,0.6957,rock_grid_rect_2,7,16,-1,-1,0.696,0.107407407,-0.394444444,1,0,0,1.9175,Peridotite_rect,7,1.918,1,2,0,2,0,1,,,,,,,,,,,,,
666c7ff3cb01f81efd18805c,TCR,2024-06-25_11h53.49.165,LearnStrategy,2023.2.3,Win32,163.9344262,6,1,4,-0.014814815,0.015740741,1,0,0,0.4546,rock_grid_rect_2,2,14,-1,-1,0.455,0.387962963,-0.265740741,1,0,0,4.4265,Gabbro_rect,4,4.427,0,3,0,3,0,1,,,,,,,,,,,,,
666c7ff3cb01f81efd18805c,TCR,2024-06-25_11h53.49.165,LearnStrategy,2023.2.3,Win32,163.9344262,6,1,5,0.015740741,0.007407407,1,0,0,0.7628,rock_grid_rect_2,8,02,-1,-1,0.763,0.414814815,-0.415740741,1,0,0,1.7727,Pumice_rect,8,1.773,1,4,0,4,0,1,,,,,,,,,,,,,
666c7ff3cb01f81efd18805c,TCR,2024-06-25_11h53.49.165,LearnStrategy,2023.2.3,Win32,163.9344262,6,1,6,0.012037037,-0.022222222,1,0,0,0.5937,rock_grid_rect_2,1,14,-1,-1,0.594,-0.37037037,-0.255555556,1,0,0,3.5548,Andesite_rect,1,3.555,1,5,0,5,0,1,,,,,,,,,,,,,
666c7ff3cb01f81efd18805c,TCR,2024-06-25_11h53.49.165,LearnStrategy,2023.2.3,Win32,163.9344262,6,1,7,-0.009259259,-0.006481481,1,0,0,1.1022,rock_grid_rect_2,6,12,-1,-1,1.102,-0.131481481,-0.397222222,1,0,0,1.4487,Pegmatite_rect,6,1.449,1,6,0,6,0,1,,,,,,,,,,,,,
666c7ff3cb01f81efd18805c,TCR,2024-06-25_11h53.49.165,LearnStrategy,2023.2.3,Win32,163.9344262,6,1,8,0.058333333,-0.00462963,1,0,0,0.5626,rock_grid_rect_2,3,14,-1,-1,0.563,0.098148148,-0.255555556,1,0,0,3.093,Diorite_rect,3,3.093,1,7,0,7,0,1,,,,,,,,,,,,,
666c7ff3cb01f81efd18805c,TCR,2024-06-25_11h53.49.165,LearnStrategy,2023.2.3,Win32,163.9344262,6,1,9,0.007407407,0.007407407,1,0,0,0.6476,rock_grid_rect_2,2,01,-1,-1,0.648,-0.122222222,-0.260185185,1,0,0,1.0286,Basalt_rect,2,1.029,1,8,0,8,0,1,,,,,,,,,,,,,
666c7ff3cb01f81efd18805c,TCR,2024-06-25_11h53.49.165,LearnStrategy,2023.2.3,Win32,163.9344262,6,1,10,-0.025,0.003703704,1,0,0,0.6935,rock_grid_rect_2,3,07,-1,-1,0.694,0.097222222,-0.242592593,1,0,0,1.0658,Diorite_rect,3,1.066,1,9,0,9,0,1,,,,,,,,,,,,,
666c7ff3cb01f81efd18805c,TCR,2024-06-25_11h53.49.165,LearnStrategy,2023.2.3,Win32,163.9344262,6,1,11,0.001851852,0.022222222,1,0,0,0.6753,rock_grid_rect_2,4,14,-1,-1,0.675,0.392592593,-0.241666667,1,0,0,1.616,Gabbro_rect,4,1.616,1,10,0,10,0,1,,,,,,,,,,,,,
666c7ff3cb01f81efd18805c,TCR,2024-06-25_11h53.49.165,LearnStrategy,2023.2.3,Win32,163.9344262,6,1,12,-0.012962963,-0.017592593,1,0,0,0.4408,rock_grid_rect_2,6,07,-1,-1,0.441,-0.101851852,-0.394444444,1,0,0,1.3558,Pegmatite_rect,6,1.356,1,11,0,11,0,1,,,,,,,,,,,,,
666c7ff3cb01f81efd18805c,TCR,2024-06-25_11h53.49.165,LearnStrategy,2023.2.3,Win32,163.9344262,6,1,13,0.024074074,-0.012037037,1,0,0,0.4593,rock_grid_rect_2,1,09,-1,-1,0.459,-0.323148148,-0.238888889,1,0,0,1.223,Andesite_rect,1,1.223,1,12,0,12,0,1,,,,,,,,,,,,,
666c7ff3cb01f81efd18805c,TCR,2024-06-25_11h53.49.165,LearnStrategy,2023.2.3,Win32,163.9344262,6,1,14,0.002777778,-0.016666667,1,0,0,0.4353,rock_grid_rect_2,6,03,-1,-1,0.435,-0.133333333,-0.390740741,1,0,0,1.267,Pegmatite_rect,6,1.267,1,13,0,13,0,1,,,,,,,,,,,,,
666c7ff3cb01f81efd18805c,TCR,2024-06-25_11h53.49.165,LearnStrategy,2023.2.3,Win32,163.9344262,6,1,15,0.022222222,-0.006481481,1,0,0,0.5139,rock_grid_rect_2,3,13,-1,-1,0.514,0.098148148,-0.255555556,1,0,0,1.42,Diorite_rect,3,1.42,1,14,0,14,0,1,,,,,,,,,,,,,
666c7ff3cb01f81efd18805c,TCR,2024-06-25_11h53.49.165,LearnStrategy,2023.2.3,Win32,163.9344262,6,1,16,0.026851852,-0.013888889,1,0,0,0.4596,rock_grid_rect_2,5,06,-1,-1,0.46,-0.362962963,-0.37962963,1,0,0,0.9035,Obsidian_rect,5,0.903,1,15,0,15,0,1,,,,,,,,,,,,,
666c7ff3cb01f81efd18805c,TCR,2024-06-25_11h53.49.165,LearnStrategy,2023.2.3,Win32,163.9344262,6,2,1,,,,,,,,3,10,,,,,,,,,,,3,7.182,1,,,,,,0.122222222,-0.237037037,1,0,0,7.1822,Diorite_rect,0,0,0,0,1,
666c7ff3cb01f81efd18805c,TCR,2024-06-25_11h53.49.165,LearnStrategy,2023.2.3,Win32,163.9344262,6,2,2,,,,,,,,7,13,,,,,,,,,,,7,3.735,1,,,,,,0.108333333,-0.400925926,1,0,0,3.7347,Peridotite_rect,1,0,1,0,1,
666c7ff3cb01f81efd18805c,TCR,2024-06-25_11h53.49.165,LearnStrategy,2023.2.3,Win32,163.9344262,6,2,3,,,,,,,,2,05,,,,,,,,,,,2,1.567,1,,,,,,-0.098148148,-0.251851852,1,0,0,1.5672,Basalt_rect,2,0,2,0,1,
666c7ff3cb01f81efd18805c,TCR,2024-06-25_11h53.49.165,LearnStrategy,2023.2.3,Win32,163.9344262,6,2,4,,,,,,,,6,10,,,,,,,,,,,6,1.72,1,,,,,,-0.111111111,-0.415740741,1,0,0,1.7205,Pegmatite_rect,3,0,3,0,1,
666c7ff3cb01f81efd18805c,TCR,2024-06-25_11h53.49.165,LearnStrategy,2023.2.3,Win32,163.9344262,6,2,5,,,,,,,,1,06,,,,,,,,,,,4,10.928,0,,,,,,0.424074074,-0.255555556,1,0,0,10.928,Gabbro_rect,4,0,4,0,1,
666c7ff3cb01f81efd18805c,TCR,2024-06-25_11h53.49.165,LearnStrategy,2023.2.3,Win32,163.9344262,6,2,6,,,,,,,,4,12,,,,,,,,,,,4,24.357,1,,,,,,0.432407407,-0.241666667,1,0,0,24.3567,Gabbro_rect,5,0,5,0,1,
666c7ff3cb01f81efd18805c,TCR,2024-06-25_11h53.49.165,LearnStrategy,2023.2.3,Win32,163.9344262,6,2,7,,,,,,,,5,02,,,,,,,,,,,5,1.036,1,,,,,,-0.375925926,-0.398148148,1,0,0,1.0355,Obsidian_rect,6,0,6,0,1,
666c7ff3cb01f81efd18805c,TCR,2024-06-25_11h53.49.165,LearnStrategy,2023.2.3,Win32,163.9344262,6,2,8,,,,,,,,8,06,,,,,,,,,,,8,1.084,1,,,,,,0.442592593,-0.393518519,1,0,0,1.0839,Pumice_rect,7,0,7,0,1,
666c7ff3cb01f81efd18805c,TCR,2024-06-25_11h53.49.165,LearnStrategy,2023.2.3,Win32,163.9344262,6,2,9,,,,,,,,6,08,,,,,,,,,,,6,1.281,1,,,,,,-0.108333333,-0.400925926,1,0,0,1.2806,Pegmatite_rect,8,0,8,0,1,
666c7ff3cb01f81efd18805c,TCR,2024-06-25_11h53.49.165,LearnStrategy,2023.2.3,Win32,163.9344262,6,2,10,,,,,,,,4,16,,,,,,,,,,,4,2.988,1,,,,,,0.42962963,-0.234259259,1,0,0,2.9885,Gabbro_rect,9,0,9,0,1,
666c7ff3cb01f81efd18805c,TCR,2024-06-25_11h53.49.165,LearnStrategy,2023.2.3,Win32,163.9344262,6,2,11,,,,,,,,2,02,,,,,,,,,,,2,1.035,1,,,,,,-0.101851852,-0.265740741,1,0,0,1.0354,Basalt_rect,10,0,10,0,1,
666c7ff3cb01f81efd18805c,TCR,2024-06-25_11h53.49.165,LearnStrategy,2023.2.3,Win32,163.9344262,6,2,12,,,,,,,,3,12,,,,,,,,,,,3,1.901,1,,,,,,0.134259259,-0.257407407,1,0,0,1.9006,Diorite_rect,11,0,11,0,1,
666c7ff3cb01f81efd18805c,TCR,2024-06-25_11h53.49.165,LearnStrategy,2023.2.3,Win32,163.9344262,6,2,13,,,,,,,,1,04,,,,,,,,,,,1,2.719,1,,,,,,-0.385185185,-0.242592593,1,0,0,2.7194,Andesite_rect,12,0,12,0,1,
666c7ff3cb01f81efd18805c,TCR,2024-06-25_11h53.49.165,LearnStrategy,2023.2.3,Win32,163.9344262,6,2,14,,,,,,,,5,11,,,,,,,,,,,5,1.013,1,,,,,,-0.372222222,-0.387037037,1,0,0,1.013,Obsidian_rect,13,0,13,0,1,
666c7ff3cb01f81efd18805c,TCR,2024-06-25_11h53.49.165,LearnStrategy,2023.2.3,Win32,163.9344262,6,2,15,,,,,,,,8,04,,,,,,,,,,,8,1.465,1,,,,,,0.39537037,-0.411111111,1,0,0,1.4647,Pumice_rect,14,0,14,0,1,
666c7ff3cb01f81efd18805c,TCR,2024-06-25_11h53.49.165,LearnStrategy,2023.2.3,Win32,163.9344262,6,2,16,,,,,,,,7,02,,,,,,,,,,,7,2.783,1,,,,,,0.137037037,-0.416666667,1,0,0,2.783,Peridotite_rect,15,0,15,0,1,
666c7ff3cb01f81efd18805c,TCR,2024-06-25_11h53.49.165,LearnStrategy,2023.2.3,Win32,163.9344262,7,1,1,0.007407407,0.006481481,1,0,0,1.0732,rock_grid_rect_2,3,08,-1,-1,1.073,0.139814815,-0.238888889,1,0,0,1.2328,Diorite_rect,3,1.233,1,0,0,0,0,1,,,,,,,,,,,,,
666c7ff3cb01f81efd18805c,TCR,2024-06-25_11h53.49.165,LearnStrategy,2023.2.3,Win32,163.9344262,7,1,2,0.019444444,-0.013888889,1,0,0,0.7325,rock_grid_rect_2,5,12,-1,-1,0.732,-0.382407407,-0.410185185,1,0,0,0.8564,Obsidian_rect,5,0.856,1,1,0,1,0,1,,,,,,,,,,,,,
666c7ff3cb01f81efd18805c,TCR,2024-06-25_11h53.49.165,LearnStrategy,2023.2.3,Win32,163.9344262,7,1,3,0.061111111,-0.007407407,1,0,0,0.5262,rock_grid_rect_2,6,07,-1,-1,0.526,-0.113888889,-0.421296296,1,0,0,1.2591,Pegmatite_rect,6,1.259,1,2,0,2,0,1,,,,,,,,,,,,,
666c7ff3cb01f81efd18805c,TCR,2024-06-25_11h53.49.165,LearnStrategy,2023.2.3,Win32,163.9344262,7,1,4,0.04537037,-0.000925926,1,0,0,0.5833,rock_grid_rect_2,2,01,-1,-1,0.583,-0.140740741,-0.237962963,1,0,0,0.8496,Basalt_rect,2,0.85,1,3,0,3,0,1,,,,,,,,,,,,,
666c7ff3cb01f81efd18805c,TCR,2024-06-25_11h53.49.165,LearnStrategy,2023.2.3,Win32,163.9344262,7,1,5,-0.000925926,-0.014814815,1,0,0,0.8171,rock_grid_rect_2,6,15,-1,-1,0.817,-0.140740741,-0.406481481,1,0,0,0.9252,Pegmatite_rect,6,0.925,1,4,0,4,0,1,,,,,,,,,,,,,
666c7ff3cb01f81efd18805c,TCR,2024-06-25_11h53.49.165,LearnStrategy,2023.2.3,Win32,163.9344262,7,1,6,0.015740741,-0.002777778,1,0,0,0.4628,rock_grid_rect_2,1,16,-1,-1,0.463,-0.375,-0.251851852,1,0,0,3.7514,Andesite_rect,1,3.751,1,5,0,5,0,1,,,,,,,,,,,,,
666c7ff3cb01f81efd18805c,TCR,2024-06-25_11h53.49.165,LearnStrategy,2023.2.3,Win32,163.9344262,7,1,7,0.015740741,-0.010185185,1,0,0,0.6411,rock_grid_rect_2,1,14,-1,-1,0.641,-0.389814815,-0.244444444,1,0,0,1.402,Andesite_rect,1,1.402,1,6,0,6,0,1,,,,,,,,,,,,,
666c7ff3cb01f81efd18805c,TCR,2024-06-25_11h53.49.165,LearnStrategy,2023.2.3,Win32,163.9344262,7,1,8,0.018518519,0.000925926,1,0,0,0.6293,rock_grid_rect_2,1,16,-1,-1,0.629,-0.378703704,-0.259259259,1,0,0,0.9312,Andesite_rect,1,0.931,1,7,0,7,0,1,,,,,,,,,,,,,
666c7ff3cb01f81efd18805c,TCR,2024-06-25_11h53.49.165,LearnStrategy,2023.2.3,Win32,163.9344262,7,1,9,-0.010185185,-0.005555556,1,0,0,0.4958,rock_grid_rect_2,2,08,-1,-1,0.496,-0.090740741,-0.247222222,1,0,0,0.8078,Basalt_rect,2,0.808,1,8,0,8,0,1,,,,,,,,,,,,,
666c7ff3cb01f81efd18805c,TCR,2024-06-25_11h53.49.165,LearnStrategy,2023.2.3,Win32,163.9344262,7,1,10,0.012037037,-0.007407407,1,0,0,0.5122,rock_grid_rect_2,3,13,-1,-1,0.512,0.094444444,-0.233333333,1,0,0,0.9875,Diorite_rect,3,0.987,1,9,0,9,0,1,,,,,,,,,,,,,
666c7ff3cb01f81efd18805c,TCR,2024-06-25_11h53.49.165,LearnStrategy,2023.2.3,Win32,163.9344262,7,1,11,0.038888889,0.012037037,1,0,0,0.4236,rock_grid_rect_2,7,15,-1,-1,0.424,0.080555556,-0.415740741,1,0,0,1.8282,Peridotite_rect,7,1.828,1,10,0,10,0,1,,,,,,,,,,,,,
666c7ff3cb01f81efd18805c,TCR,2024-06-25_11h53.49.165,LearnStrategy,2023.2.3,Win32,163.9344262,7,1,12,-0.012962963,-0.006481481,1,0,0,0.7775,rock_grid_rect_2,8,10,-1,-1,0.778,0.374074074,-0.386111111,1,0,0,1.1458,Pumice_rect,8,1.146,1,11,0,11,0,1,,,,,,,,,,,,,
666c7ff3cb01f81efd18805c,TCR,2024-06-25_11h53.49.165,LearnStrategy,2023.2.3,Win32,163.9344262,7,1,13,0.041666667,0.003703704,1,0,0,1.2764,rock_grid_rect_2,4,03,-1,-1,1.276,0.344444444,-0.260185185,1,0,0,2.2164,Gabbro_rect,4,2.216,1,12,0,12,0,1,,,,,,,,,,,,,
666c7ff3cb01f81efd18805c,TCR,2024-06-25_11h53.49.165,LearnStrategy,2023.2.3,Win32,163.9344262,7,1,14,0.028703704,-0.007407407,1,0,0,0.7412,rock_grid_rect_2,1,11,-1,-1,0.741,-0.42962963,-0.25462963,1,0,0,1.0884,Andesite_rect,1,1.088,1,13,0,13,0,1,,,,,,,,,,,,,
666c7ff3cb01f81efd18805c,TCR,2024-06-25_11h53.49.165,LearnStrategy,2023.2.3,Win32,163.9344262,7,1,15,-0.02962963,-0.009259259,1,0,0,0.5347,rock_grid_rect_2,3,16,-1,-1,0.535,0.118518519,-0.271296296,1,0,0,2.2507,Diorite_rect,3,2.251,1,14,0,14,0,1,,,,,,,,,,,,,
666c7ff3cb01f81efd18805c,TCR,2024-06-25_11h53.49.165,LearnStrategy,2023.2.3,Win32,163.9344262,7,1,16,0.038888889,-0.009259259,1,0,0,0.5927,rock_grid_rect_2,4,13,-1,-1,0.593,0.355555556,-0.251851852,1,0,0,1.0022,Gabbro_rect,4,1.002,1,15,0,15,0,1,,,,,,,,,,,,,
666c7ff3cb01f81efd18805c,TCR,2024-06-25_11h53.49.165,LearnStrategy,2023.2.3,Win32,163.9344262,7,2,1,,,,,,,,4,01,,,,,,,,,,,4,14.503,1,,,,,,0.377777778,-0.249074074,1,0,0,14.5028,Gabbro_rect,0,0,0,0,1,
666c7ff3cb01f81efd18805c,TCR,2024-06-25_11h53.49.165,LearnStrategy,2023.2.3,Win32,163.9344262,7,2,2,,,,,,,,1,10,,,,,,,,,,,1,8.343,1,,,,,,-0.305555556,-0.250925926,1,0,0,8.3426,Andesite_rect,1,0,1,0,1,
666c7ff3cb01f81efd18805c,TCR,2024-06-25_11h53.49.165,LearnStrategy,2023.2.3,Win32,163.9344262,7,2,3,,,,,,,,3,11,,,,,,,,,,,3,2.124,1,,,,,,0.126851852,-0.260185185,1,0,0,2.1238,Diorite_rect,2,0,2,0,1,
666c7ff3cb01f81efd18805c,TCR,2024-06-25_11h53.49.165,LearnStrategy,2023.2.3,Win32,163.9344262,7,2,4,,,,,,,,5,02,,,,,,,,,,,5,0.969,1,,,,,,-0.450925926,-0.403703704,1,0,0,0.9689,Obsidian_rect,3,0,3,0,1,
666c7ff3cb01f81efd18805c,TCR,2024-06-25_11h53.49.165,LearnStrategy,2023.2.3,Win32,163.9344262,7,2,5,,,,,,,,1,02,,,,,,,,,,,2,5.06,0,,,,,,-0.105555556,-0.251851852,1,0,0,5.0596,Basalt_rect,4,0,4,0,1,
666c7ff3cb01f81efd18805c,TCR,2024-06-25_11h53.49.165,LearnStrategy,2023.2.3,Win32,163.9344262,7,2,6,,,,,,,,2,05,,,,,,,,,,,2,0.88,1,,,,,,-0.105555556,-0.253703704,1,0,0,0.8798,Basalt_rect,5,0,5,0,1,
666c7ff3cb01f81efd18805c,TCR,2024-06-25_11h53.49.165,LearnStrategy,2023.2.3,Win32,163.9344262,7,2,7,,,,,,,,8,06,,,,,,,,,,,8,1.185,1,,,,,,0.42037037,-0.417592593,1,0,0,1.1852,Pumice_rect,6,0,6,0,1,
666c7ff3cb01f81efd18805c,TCR,2024-06-25_11h53.49.165,LearnStrategy,2023.2.3,Win32,163.9344262,7,2,8,,,,,,,,3,10,,,,,,,,,,,3,1.307,1,,,,,,0.14537037,-0.255555556,1,0,0,1.3072,Diorite_rect,7,0,7,0,1,
666c7ff3cb01f81efd18805c,TCR,2024-06-25_11h53.49.165,LearnStrategy,2023.2.3,Win32,163.9344262,7,2,9,,,,,,,,7,14,,,,,,,,,,,7,9.645,1,,,,,,0.161111111,-0.407407407,1,0,0,9.6445,Peridotite_rect,8,0,8,0,1,
666c7ff3cb01f81efd18805c,TCR,2024-06-25_11h53.49.165,LearnStrategy,2023.2.3,Win32,163.9344262,7,2,10,,,,,,,,2,12,,,,,,,,,,,2,2.49,1,,,,,,-0.096296296,-0.259259259,1,0,0,2.4898,Basalt_rect,9,0,9,0,1,
666c7ff3cb01f81efd18805c,TCR,2024-06-25_11h53.49.165,LearnStrategy,2023.2.3,Win32,163.9344262,7,2,11,,,,,,,,5,07,,,,,,,,,,,5,1.014,1,,,,,,-0.363888889,-0.421296296,1,0,0,1.014,Obsidian_rect,10,0,10,0,1,
666c7ff3cb01f81efd18805c,TCR,2024-06-25_11h53.49.165,LearnStrategy,2023.2.3,Win32,163.9344262,7,2,12,,,,,,,,8,04,,,,,,,,,,,8,1.047,1,,,,,,0.402777778,-0.396296296,1,0,0,1.0466,Pumice_rect,11,0,11,0,1,
666c7ff3cb01f81efd18805c,TCR,2024-06-25_11h53.49.165,LearnStrategy,2023.2.3,Win32,163.9344262,7,2,13,,,,,,,,6,08,,,,,,,,,,,6,1.246,1,,,,,,-0.124074074,-0.40462963,1,0,0,1.2463,Pegmatite_rect,12,0,12,0,1,
666c7ff3cb01f81efd18805c,TCR,2024-06-25_11h53.49.165,LearnStrategy,2023.2.3,Win32,163.9344262,7,2,14,,,,,,,,6,06,,,,,,,,,,,7,10.096,0,,,,,,0.115740741,-0.412037037,1,0,0,10.0956,Peridotite_rect,13,0,13,0,1,
666c7ff3cb01f81efd18805c,TCR,2024-06-25_11h53.49.165,LearnStrategy,2023.2.3,Win32,163.9344262,7,2,15,,,,,,,,4,10,,,,,,,,,,,1,3.426,0,,,,,,-0.375,-0.243518519,1,0,0,3.4262,Andesite_rect,14,0,14,0,1,
666c7ff3cb01f81efd18805c,TCR,2024-06-25_11h53.49.165,LearnStrategy,2023.2.3,Win32,163.9344262,7,2,16,,,,,,,,7,08,,,,,,,,,,,7,1.891,1,,,,,,0.117592593,-0.414814815,1,0,0,1.8906,Peridotite_rect,15,0,15,0,1,
666c7ff3cb01f81efd18805c,TCR,2024-06-25_11h53.49.165,LearnStrategy,2023.2.3,Win32,163.9344262,8,1,1,0.023148148,0.012962963,1,0,0,1.0722,rock_grid_rect_2,1,16,-1,-1,1.072,-0.333333333,-0.234259259,1,0,0,3.3969,Andesite_rect,1,3.397,1,0,0,0,0,1,,,,,,,,,,,,,
666c7ff3cb01f81efd18805c,TCR,2024-06-25_11h53.49.165,LearnStrategy,2023.2.3,Win32,163.9344262,8,1,2,0.012962963,-0.018518519,1,0,0,0.8261,rock_grid_rect_2,8,14,-1,-1,0.826,0.360185185,-0.406481481,1,0,0,1.238,Pumice_rect,8,1.238,1,1,0,1,0,1,,,,,,,,,,,,,
666c7ff3cb01f81efd18805c,TCR,2024-06-25_11h53.49.165,LearnStrategy,2023.2.3,Win32,163.9344262,8,1,3,0.001851852,0,1,0,0,0.6609,rock_grid_rect_2,1,14,-1,-1,0.661,-0.344444444,-0.231481481,1,0,0,1.0154,Andesite_rect,1,1.015,1,2,0,2,0,1,,,,,,,,,,,,,
666c7ff3cb01f81efd18805c,TCR,2024-06-25_11h53.49.165,LearnStrategy,2023.2.3,Win32,163.9344262,8,1,4,-0.002777778,-0.016666667,1,0,0,0.6167,rock_grid_rect_2,7,15,-1,-1,0.617,0.10462963,-0.396296296,1,0,0,1.1672,Peridotite_rect,7,1.167,1,3,0,3,0,1,,,,,,,,,,,,,
666c7ff3cb01f81efd18805c,TCR,2024-06-25_11h53.49.165,LearnStrategy,2023.2.3,Win32,163.9344262,8,1,5,0.000925926,0.011111111,1,0,0,0.4837,rock_grid_rect_2,3,16,-1,-1,0.484,0.109259259,-0.239814815,1,0,0,1.4312,Diorite_rect,3,1.431,1,4,0,4,0,1,,,,,,,,,,,,,
666c7ff3cb01f81efd18805c,TCR,2024-06-25_11h53.49.165,LearnStrategy,2023.2.3,Win32,163.9344262,8,1,6,0.030555556,-0.012962963,1,0,0,0.69,rock_grid_rect_2,3,16,-1,-1,0.69,0.110185185,-0.242592593,1,0,0,0.9073,Diorite_rect,3,0.907,1,5,0,5,0,1,,,,,,,,,,,,,
666c7ff3cb01f81efd18805c,TCR,2024-06-25_11h53.49.165,LearnStrategy,2023.2.3,Win32,163.9344262,8,1,7,0.031481481,0.002777778,1,0,0,0.5146,rock_grid_rect_2,4,05,-1,-1,0.515,0.424074074,-0.264814815,1,0,0,2.8177,Gabbro_rect,4,2.818,1,6,0,6,0,1,,,,,,,,,,,,,
666c7ff3cb01f81efd18805c,TCR,2024-06-25_11h53.49.165,LearnStrategy,2023.2.3,Win32,163.9344262,8,1,8,0.018518519,0.006481481,1,0,0,0.5625,rock_grid_rect_2,6,09,-1,-1,0.563,-0.075925926,-0.397222222,1,0,0,1.1379,Pegmatite_rect,6,1.138,1,7,0,7,0,1,,,,,,,,,,,,,
666c7ff3cb01f81efd18805c,TCR,2024-06-25_11h53.49.165,LearnStrategy,2023.2.3,Win32,163.9344262,8,1,9,0.061111111,-0.015740741,1,0,0,0.485,rock_grid_rect_2,6,09,-1,-1,0.485,-0.069444444,-0.421296296,1,0,0,1.0845,Pegmatite_rect,6,1.085,1,8,0,8,0,1,,,,,,,,,,,,,
666c7ff3cb01f81efd18805c,TCR,2024-06-25_11h53.49.165,LearnStrategy,2023.2.3,Win32,163.9344262,8,1,10,0.056481481,0.005555556,1,0,0,0.914,rock_grid_rect_2,4,13,-1,-1,0.914,0.387037037,-0.268518519,1,0,0,0.86,Gabbro_rect,4,0.86,1,9,0,9,0,1,,,,,,,,,,,,,
666c7ff3cb01f81efd18805c,TCR,2024-06-25_11h53.49.165,LearnStrategy,2023.2.3,Win32,163.9344262,8,1,11,0.031481481,-0.010185185,1,0,0,0.463,rock_grid_rect_2,5,12,-1,-1,0.463,-0.380555556,-0.390740741,1,0,0,0.8501,Obsidian_rect,5,0.85,1,10,0,10,0,1,,,,,,,,,,,,,
666c7ff3cb01f81efd18805c,TCR,2024-06-25_11h53.49.165,LearnStrategy,2023.2.3,Win32,163.9344262,8,1,12,-0.00462963,-0.025,1,0,0,0.5214,rock_grid_rect_2,2,11,-1,-1,0.521,-0.328703704,-0.237962963,1,0,0,1.3764,Andesite_rect,1,1.376,0,11,0,11,0,1,,,,,,,,,,,,,
666c7ff3cb01f81efd18805c,TCR,2024-06-25_11h53.49.165,LearnStrategy,2023.2.3,Win32,163.9344262,8,1,13,-0.051851852,0.019444444,1,0,0,0.4836,rock_grid_rect_2,4,09,-1,-1,0.484,0.410185185,-0.255555556,1,0,0,4.9944,Gabbro_rect,4,4.994,1,12,0,12,0,1,,,,,,,,,,,,,
666c7ff3cb01f81efd18805c,TCR,2024-06-25_11h53.49.165,LearnStrategy,2023.2.3,Win32,163.9344262,8,1,14,0.024074074,0,1,0,0,0.5444,rock_grid_rect_2,1,11,-1,-1,0.544,-0.389814815,-0.242592593,1,0,0,1.8905,Andesite_rect,1,1.891,1,13,0,13,0,1,,,,,,,,,,,,,
666c7ff3cb01f81efd18805c,TCR,2024-06-25_11h53.49.165,LearnStrategy,2023.2.3,Win32,163.9344262,8,1,15,0.024074074,-0.016666667,1,0,0,0.5334,rock_grid_rect_2,6,15,-1,-1,0.533,-0.136111111,-0.380555556,1,0,0,0.992,Pegmatite_rect,6,0.992,1,14,0,14,0,1,,,,,,,,,,,,,
666c7ff3cb01f81efd18805c,TCR,2024-06-25_11h53.49.165,LearnStrategy,2023.2.3,Win32,163.9344262,8,1,16,0.033333333,0.010185185,1,0,0,0.5386,rock_grid_rect_2,1,11,-1,-1,0.539,-0.351851852,-0.239814815,1,0,0,0.9577,Andesite_rect,1,0.958,1,15,0,15,0,1,,,,,,,,,,,,,
666c7ff3cb01f81efd18805c,TCR,2024-06-25_11h53.49.165,LearnStrategy,2023.2.3,Win32,163.9344262,8,2,1,,,,,,,,5,11,,,,,,,,,,,5,1.036,1,,,,,,-0.397222222,-0.421296296,1,0,0,1.0361,Obsidian_rect,0,0,0,0,1,
666c7ff3cb01f81efd18805c,TCR,2024-06-25_11h53.49.165,LearnStrategy,2023.2.3,Win32,163.9344262,8,2,2,,,,,,,,1,01,,,,,,,,,,,4,9.257,0,,,,,,0.383333333,-0.258333333,1,0,0,9.2575,Gabbro_rect,1,0,1,0,1,
666c7ff3cb01f81efd18805c,TCR,2024-06-25_11h53.49.165,LearnStrategy,2023.2.3,Win32,163.9344262,8,2,3,,,,,,,,1,06,,,,,,,,,,,1,7.557,1,,,,,,-0.384259259,-0.24537037,1,0,0,7.5574,Andesite_rect,2,0,2,0,1,
666c7ff3cb01f81efd18805c,TCR,2024-06-25_11h53.49.165,LearnStrategy,2023.2.3,Win32,163.9344262,8,2,4,,,,,,,,3,12,,,,,,,,,,,3,1.189,1,,,,,,0.112962963,-0.255555556,1,0,0,1.1888,Diorite_rect,3,0,3,0,1,
666c7ff3cb01f81efd18805c,TCR,2024-06-25_11h53.49.165,LearnStrategy,2023.2.3,Win32,163.9344262,8,2,5,,,,,,,,8,05,,,,,,,,,,,8,0.948,1,,,,,,0.364814815,-0.401851852,1,0,0,0.9476,Pumice_rect,4,0,4,0,1,
666c7ff3cb01f81efd18805c,TCR,2024-06-25_11h53.49.165,LearnStrategy,2023.2.3,Win32,163.9344262,8,2,6,,,,,,,,6,10,,,,,,,,,,,6,1.09,1,,,,,,-0.158333333,-0.405555556,1,0,0,1.0904,Pegmatite_rect,5,0,5,0,1,
666c7ff3cb01f81efd18805c,TCR,2024-06-25_11h53.49.165,LearnStrategy,2023.2.3,Win32,163.9344262,8,2,7,,,,,,,,2,16,,,,,,,,,,,4,6.696,0,,,,,,0.374074074,-0.247222222,1,0,0,6.696,Gabbro_rect,6,0,6,0,1,
666c7ff3cb01f81efd18805c,TCR,2024-06-25_11h53.49.165,LearnStrategy,2023.2.3,Win32,163.9344262,8,2,8,,,,,,,,7,02,,,,,,,,,,,7,1.874,1,,,,,,0.147222222,-0.405555556,1,0,0,1.8743,Peridotite_rect,7,0,7,0,1,
666c7ff3cb01f81efd18805c,TCR,2024-06-25_11h53.49.165,LearnStrategy,2023.2.3,Win32,163.9344262,8,2,9,,,,,,,,3,02,,,,,,,,,,,3,1.046,1,,,,,,0.138888889,-0.256481481,1,0,0,1.0458,Diorite_rect,8,0,8,0,1,
666c7ff3cb01f81efd18805c,TCR,2024-06-25_11h53.49.165,LearnStrategy,2023.2.3,Win32,163.9344262,8,2,10,,,,,,,,6,16,,,,,,,,,,,6,1.131,1,,,,,,-0.122222222,-0.417592593,1,0,0,1.1314,Pegmatite_rect,9,0,9,0,1,
666c7ff3cb01f81efd18805c,TCR,2024-06-25_11h53.49.165,LearnStrategy,2023.2.3,Win32,163.9344262,8,2,11,,,,,,,,2,06,,,,,,,,,,,2,1.056,1,,,,,,-0.116666667,-0.262962963,1,0,0,1.0558,Basalt_rect,10,0,10,0,1,
666c7ff3cb01f81efd18805c,TCR,2024-06-25_11h53.49.165,LearnStrategy,2023.2.3,Win32,163.9344262,8,2,12,,,,,,,,8,09,,,,,,,,,,,8,0.995,1,,,,,,0.382407407,-0.417592593,1,0,0,0.9948,Pumice_rect,11,0,11,0,1,
666c7ff3cb01f81efd18805c,TCR,2024-06-25_11h53.49.165,LearnStrategy,2023.2.3,Win32,163.9344262,8,2,13,,,,,,,,7,12,,,,,,,,,,,7,3.737,1,,,,,,0.114814815,-0.40462963,1,0,0,3.7372,Peridotite_rect,12,0,12,0,1,
666c7ff3cb01f81efd18805c,TCR,2024-06-25_11h53.49.165,LearnStrategy,2023.2.3,Win32,163.9344262,8,2,14,,,,,,,,5,10,,,,,,,,,,,5,0.998,1,,,,,,-0.37037037,-0.412962963,1,0,0,0.9982,Obsidian_rect,13,0,13,0,1,
666c7ff3cb01f81efd18805c,TCR,2024-06-25_11h53.49.165,LearnStrategy,2023.2.3,Win32,163.9344262,8,2,15,,,,,,,,4,12,,,,,,,,,,,4,3.725,1,,,,,,0.35462963,-0.257407407,1,0,0,3.7252,Gabbro_rect,14,0,14,0,1,
666c7ff3cb01f81efd18805c,TCR,2024-06-25_11h53.49.165,LearnStrategy,2023.2.3,Win32,163.9344262,8,2,16,,,,,,,,4,15,,,,,,,,,,,4,2.305,1,,,,,,0.351851852,-0.258333333,1,0,0,2.3054,Gabbro_rect,15,0,15,0,1,
666c7ff3cb01f81efd18805c,TCR,2024-06-25_11h53.49.165,LearnStrategy,2023.2.3,Win32,163.9344262,9,1,1,0.042592593,0.006481481,1,0,0,3.1389,rock_grid_rect_2,5,12,-1,-1,3.139,-0.366666667,-0.409259259,1,0,0,0.8724,Obsidian_rect,5,0.872,1,0,0,0,0,1,,,,,,,,,,,,,
666c7ff3cb01f81efd18805c,TCR,2024-06-25_11h53.49.165,LearnStrategy,2023.2.3,Win32,163.9344262,9,1,2,0.025,-0.019444444,1,0,0,0.6236,rock_grid_rect_2,3,13,-1,-1,0.624,0.127777778,-0.241666667,1,0,0,1.056,Diorite_rect,3,1.056,1,1,0,1,0,1,,,,,,,,,,,,,
666c7ff3cb01f81efd18805c,TCR,2024-06-25_11h53.49.165,LearnStrategy,2023.2.3,Win32,163.9344262,9,1,3,0.040740741,-0.00462963,1,0,0,0.4965,rock_grid_rect_2,2,08,-1,-1,0.496,-0.119444444,-0.232407407,1,0,0,0.8523,Basalt_rect,2,0.852,1,2,0,2,0,1,,,,,,,,,,,,,
666c7ff3cb01f81efd18805c,TCR,2024-06-25_11h53.49.165,LearnStrategy,2023.2.3,Win32,163.9344262,9,1,4,0.055555556,0.007407407,1,0,0,0.4622,rock_grid_rect_2,1,09,-1,-1,0.462,-0.350925926,-0.25,1,0,0,1.367,Andesite_rect,1,1.367,1,3,0,3,0,1,,,,,,,,,,,,,
666c7ff3cb01f81efd18805c,TCR,2024-06-25_11h53.49.165,LearnStrategy,2023.2.3,Win32,163.9344262,9,1,5,-0.006481481,-0.010185185,1,0,0,0.7079,rock_grid_rect_2,1,11,-1,-1,0.708,-0.399074074,-0.236111111,1,0,0,1.3563,Andesite_rect,1,1.356,1,4,0,4,0,1,,,,,,,,,,,,,
666c7ff3cb01f81efd18805c,TCR,2024-06-25_11h53.49.165,LearnStrategy,2023.2.3,Win32,163.9344262,9,1,6,0.035185185,0.014814815,1,0,0,0.4667,rock_grid_rect_2,4,14,-1,-1,0.467,0.390740741,-0.233333333,1,0,0,1.034,Gabbro_rect,4,1.034,1,5,0,5,0,1,,,,,,,,,,,,,
666c7ff3cb01f81efd18805c,TCR,2024-06-25_11h53.49.165,LearnStrategy,2023.2.3,Win32,163.9344262,9,1,7,0.04537037,0.012037037,1,0,0,0.377,rock_grid_rect_2,2,01,-1,-1,0.377,-0.113888889,-0.239814815,1,0,0,0.7545,Basalt_rect,2,0.755,1,6,0,6,0,1,,,,,,,,,,,,,
666c7ff3cb01f81efd18805c,TCR,2024-06-25_11h53.49.165,LearnStrategy,2023.2.3,Win32,163.9344262,9,1,8,-0.019444444,0.00462963,1,0,0,0.3629,rock_grid_rect_2,1,03,-1,-1,0.363,-0.160185185,-0.25,1,0,0,2.3159,Basalt_rect,2,2.316,0,7,0,7,0,1,,,,,,,,,,,,,
666c7ff3cb01f81efd18805c,TCR,2024-06-25_11h53.49.165,LearnStrategy,2023.2.3,Win32,163.9344262,9,1,9,-0.000925926,0.007407407,1,0,0,0.5745,rock_grid_rect_2,4,05,-1,-1,0.574,0.401851852,-0.25462963,1,0,0,1.7127,Gabbro_rect,4,1.713,1,8,0,8,0,1,,,,,,,,,,,,,
666c7ff3cb01f81efd18805c,TCR,2024-06-25_11h53.49.165,LearnStrategy,2023.2.3,Win32,163.9344262,9,1,10,0.02037037,-0.012037037,1,0,0,0.3837,rock_grid_rect_2,8,15,-1,-1,0.384,0.362037037,-0.394444444,1,0,0,1.3644,Pumice_rect,8,1.364,1,9,0,9,0,1,,,,,,,,,,,,,
666c7ff3cb01f81efd18805c,TCR,2024-06-25_11h53.49.165,LearnStrategy,2023.2.3,Win32,163.9344262,9,1,11,0,-0.008333333,1,0,0,1.0363,rock_grid_rect_2,1,05,-1,-1,1.036,0.121296296,-0.261111111,1,0,0,1.575,Diorite_rect,3,1.575,0,10,0,10,0,1,,,,,,,,,,,,,
666c7ff3cb01f81efd18805c,TCR,2024-06-25_11h53.49.165,LearnStrategy,2023.2.3,Win32,163.9344262,9,1,12,0.026851852,0.010185185,1,0,0,0.6231,rock_grid_rect_2,6,07,-1,-1,0.623,-0.126851852,-0.408333333,1,0,0,1.0213,Pegmatite_rect,6,1.021,1,11,0,11,0,1,,,,,,,,,,,,,
666c7ff3cb01f81efd18805c,TCR,2024-06-25_11h53.49.165,LearnStrategy,2023.2.3,Win32,163.9344262,9,1,13,0.024074074,0.002777778,1,0,0,0.6294,rock_grid_rect_2,7,05,-1,-1,0.629,0.116666667,-0.399074074,1,0,0,1.1769,Peridotite_rect,7,1.177,1,12,0,12,0,1,,,,,,,,,,,,,
666c7ff3cb01f81efd18805c,TCR,2024-06-25_11h53.49.165,LearnStrategy,2023.2.3,Win32,163.9344262,9,1,14,-0.02037037,0.018518519,1,0,0,0.4963,rock_grid_rect_2,2,08,-1,-1,0.496,-0.113888889,-0.262037037,1,0,0,0.8605,Basalt_rect,2,0.861,1,13,0,13,0,1,,,,,,,,,,,,,
666c7ff3cb01f81efd18805c,TCR,2024-06-25_11h53.49.165,LearnStrategy,2023.2.3,Win32,163.9344262,9,1,15,-0.011111111,-0.013888889,1,0,0,0.6477,rock_grid_rect_2,4,03,-1,-1,0.648,0.382407407,-0.239814815,1,0,0,1.0388,Gabbro_rect,4,1.039,1,14,0,14,0,1,,,,,,,,,,,,,
666c7ff3cb01f81efd18805c,TCR,2024-06-25_11h53.49.165,LearnStrategy,2023.2.3,Win32,163.9344262,9,1,16,0.038888889,-0.017592593,1,0,0,0.5593,rock_grid_rect_2,6,12,-1,-1,0.559,-0.118518519,-0.390740741,1,0,0,1.1449,Pegmatite_rect,6,1.145,1,15,0,15,0,1,,,,,,,,,,,,,
666c7ff3cb01f81efd18805c,TCR,2024-06-25_11h53.49.165,LearnStrategy,2023.2.3,Win32,163.9344262,9,2,1,,,,,,,,8,13,,,,,,,,,,,8,1.26,1,,,,,,0.380555556,-0.400925926,1,0,0,1.2604,Pumice_rect,0,0,0,0,1,
666c7ff3cb01f81efd18805c,TCR,2024-06-25_11h53.49.165,LearnStrategy,2023.2.3,Win32,163.9344262,9,2,2,,,,,,,,6,13,,,,,,,,,,,6,2.804,1,,,,,,-0.114814815,-0.407407407,1,0,0,2.804,Pegmatite_rect,1,0,1,0,1,
666c7ff3cb01f81efd18805c,TCR,2024-06-25_11h53.49.165,LearnStrategy,2023.2.3,Win32,163.9344262,9,2,3,,,,,,,,4,08,,,,,,,,,,,4,11.607,1,,,,,,0.401851852,-0.256481481,1,0,0,11.6074,Gabbro_rect,2,0,2,0,1,
666c7ff3cb01f81efd18805c,TCR,2024-06-25_11h53.49.165,LearnStrategy,2023.2.3,Win32,163.9344262,9,2,4,,,,,,,,7,10,,,,,,,,,,,7,2.256,1,,,,,,0.143518519,-0.402777778,1,0,0,2.2557,Peridotite_rect,3,0,3,0,1,
666c7ff3cb01f81efd18805c,TCR,2024-06-25_11h53.49.165,LearnStrategy,2023.2.3,Win32,163.9344262,9,2,5,,,,,,,,4,16,,,,,,,,,,,4,1.362,1,,,,,,0.413888889,-0.267592593,1,0,0,1.3625,Gabbro_rect,4,0,4,0,1,
666c7ff3cb01f81efd18805c,TCR,2024-06-25_11h53.49.165,LearnStrategy,2023.2.3,Win32,163.9344262,9,2,6,,,,,,,,1,07,,,,,,,,,,,1,9.422,1,,,,,,-0.35,-0.25462963,1,0,0,9.4224,Andesite_rect,5,0,5,0,1,
666c7ff3cb01f81efd18805c,TCR,2024-06-25_11h53.49.165,LearnStrategy,2023.2.3,Win32,163.9344262,9,2,7,,,,,,,,2,02,,,,,,,,,,,2,0.936,1,,,,,,-0.175,-0.244444444,1,0,0,0.9363,Basalt_rect,6,0,6,0,1,
666c7ff3cb01f81efd18805c,TCR,2024-06-25_11h53.49.165,LearnStrategy,2023.2.3,Win32,163.9344262,9,2,8,,,,,,,,5,04,,,,,,,,,,,5,0.814,1,,,,,,-0.398148148,-0.394444444,1,0,0,0.8141,Obsidian_rect,7,0,7,0,1,
666c7ff3cb01f81efd18805c,TCR,2024-06-25_11h53.49.165,LearnStrategy,2023.2.3,Win32,163.9344262,9,2,9,,,,,,,,5,08,,,,,,,,,,,5,0.765,1,,,,,,-0.389814815,-0.412962963,1,0,0,0.7655,Obsidian_rect,8,0,8,0,1,
666c7ff3cb01f81efd18805c,TCR,2024-06-25_11h53.49.165,LearnStrategy,2023.2.3,Win32,163.9344262,9,2,10,,,,,,,,8,08,,,,,,,,,,,8,1.138,1,,,,,,0.422222222,-0.42037037,1,0,0,1.1376,Pumice_rect,9,0,9,0,1,
666c7ff3cb01f81efd18805c,TCR,2024-06-25_11h53.49.165,LearnStrategy,2023.2.3,Win32,163.9344262,9,2,11,,,,,,,,1,04,,,,,,,,,,,2,13.408,0,,,,,,-0.099074074,-0.253703704,1,0,0,13.4078,Basalt_rect,10,0,10,0,1,
666c7ff3cb01f81efd18805c,TCR,2024-06-25_11h53.49.165,LearnStrategy,2023.2.3,Win32,163.9344262,9,2,12,,,,,,,,3,09,,,,,,,,,,,3,1.698,1,,,,,,0.131481481,-0.264814815,1,0,0,1.6976,Diorite_rect,11,0,11,0,1,
666c7ff3cb01f81efd18805c,TCR,2024-06-25_11h53.49.165,LearnStrategy,2023.2.3,Win32,163.9344262,9,2,13,,,,,,,,2,10,,,,,,,,,,,2,1.358,1,,,,,,-0.151851852,-0.258333333,1,0,0,1.3578,Basalt_rect,12,0,12,0,1,
666c7ff3cb01f81efd18805c,TCR,2024-06-25_11h53.49.165,LearnStrategy,2023.2.3,Win32,163.9344262,9,2,14,,,,,,,,6,05,,,,,,,,,,,6,3.024,1,,,,,,-0.132407407,-0.397222222,1,0,0,3.0242,Pegmatite_rect,13,0,13,0,1,
666c7ff3cb01f81efd18805c,TCR,2024-06-25_11h53.49.165,LearnStrategy,2023.2.3,Win32,163.9344262,9,2,15,,,,,,,,7,13,,,,,,,,,,,7,0.888,1,,,,,,0.068518519,-0.397222222,1,0,0,0.8876,Peridotite_rect,14,0,14,0,1,
666c7ff3cb01f81efd18805c,TCR,2024-06-25_11h53.49.165,LearnStrategy,2023.2.3,Win32,163.9344262,9,2,16,,,,,,,,3,15,,,,,,,,,,,3,3.491,1,,,,,,0.113888889,-0.253703704,1,0,0,3.4908,Diorite_rect,15,0,15,0,1,
666c7ff3cb01f81efd18805c,TCR,2024-06-25_11h53.49.165,LearnStrategy,2023.2.3,Win32,163.9344262,,,,,,,,,,,,,,,,,,,,,,,,,,,,,,,,,,,,,,,,,,,1
666c7ff3cb01f81efd18805c,TCR,2024-06-25_11h53.49.165,LearnStrategy,2023.2.3,Win32,163.9344262,,,,,,,,,,,,,,,,,,,,,,,,,,,,,,,,,,,,,,,,,,,
666c7ff3cb01f81efd18805c,TCR,2024-06-25_11h53.49.165,LearnStrategy,2023.2.3,Win32,163.9344262,,,,,,,,,,,1,11,1,1,,,,,,,,,,,,,,,,,,,,,,,,,,,,,
666c7ff3cb01f81efd18805c,TCR,2024-06-25_11h53.49.165,LearnStrategy,2023.2.3,Win32,163.9344262,,,,,,,,,,,6,12,1,2,,,,,,,,,,,,,,,,,,,,,,,,,,,,,
666c7ff3cb01f81efd18805c,TCR,2024-06-25_11h53.49.165,LearnStrategy,2023.2.3,Win32,163.9344262,,,,,,,,,,,5,06,1,3,,,,,,,,,,,,,,,,,,,,,,,,,,,,,
666c7ff3cb01f81efd18805c,TCR,2024-06-25_11h53.49.165,LearnStrategy,2023.2.3,Win32,163.9344262,,,,,,,,,,,8,14,1,4,,,,,,,,,,,,,,,,,,,,,,,,,,,,,
666c7ff3cb01f81efd18805c,TCR,2024-06-25_11h53.49.165,LearnStrategy,2023.2.3,Win32,163.9344262,,,,,,,,,,,8,10,1,5,,,,,,,,,,,,,,,,,,,,,,,,,,,,,
666c7ff3cb01f81efd18805c,TCR,2024-06-25_11h53.49.165,LearnStrategy,2023.2.3,Win32,163.9344262,,,,,,,,,,,4,05,1,6,,,,,,,,,,,,,,,,,,,,,,,,,,,,,
666c7ff3cb01f81efd18805c,TCR,2024-06-25_11h53.49.165,LearnStrategy,2023.2.3,Win32,163.9344262,,,,,,,,,,,8,16,1,7,,,,,,,,,,,,,,,,,,,,,,,,,,,,,
666c7ff3cb01f81efd18805c,TCR,2024-06-25_11h53.49.165,LearnStrategy,2023.2.3,Win32,163.9344262,,,,,,,,,,,6,11,1,8,,,,,,,,,,,,,,,,,,,,,,,,,,,,,
666c7ff3cb01f81efd18805c,TCR,2024-06-25_11h53.49.165,LearnStrategy,2023.2.3,Win32,163.9344262,,,,,,,,,,,6,03,2,1,,,,,,,,,,,,,,,,,,,,,,,,,,,,,
666c7ff3cb01f81efd18805c,TCR,2024-06-25_11h53.49.165,LearnStrategy,2023.2.3,Win32,163.9344262,,,,,,,,,,,3,08,2,2,,,,,,,,,,,,,,,,,,,,,,,,,,,,,
666c7ff3cb01f81efd18805c,TCR,2024-06-25_11h53.49.165,LearnStrategy,2023.2.3,Win32,163.9344262,,,,,,,,,,,1,09,2,3,,,,,,,,,,,,,,,,,,,,,,,,,,,,,
666c7ff3cb01f81efd18805c,TCR,2024-06-25_11h53.49.165,LearnStrategy,2023.2.3,Win32,163.9344262,,,,,,,,,,,1,05,2,4,,,,,,,,,,,,,,,,,,,,,,,,,,,,,
666c7ff3cb01f81efd18805c,TCR,2024-06-25_11h53.49.165,LearnStrategy,2023.2.3,Win32,163.9344262,,,,,,,,,,,3,07,2,5,,,,,,,,,,,,,,,,,,,,,,,,,,,,,
666c7ff3cb01f81efd18805c,TCR,2024-06-25_11h53.49.165,LearnStrategy,2023.2.3,Win32,163.9344262,,,,,,,,,,,8,02,2,6,,,,,,,,,,,,,,,,,,,,,,,,,,,,,
666c7ff3cb01f81efd18805c,TCR,2024-06-25_11h53.49.165,LearnStrategy,2023.2.3,Win32,163.9344262,,,,,,,,,,,3,14,2,7,,,,,,,,,,,,,,,,,,,,,,,,,,,,,
666c7ff3cb01f81efd18805c,TCR,2024-06-25_11h53.49.165,LearnStrategy,2023.2.3,Win32,163.9344262,,,,,,,,,,,7,06,2,8,,,,,,,,,,,,,,,,,,,,,,,,,,,,,
666c7ff3cb01f81efd18805c,TCR,2024-06-25_11h53.49.165,LearnStrategy,2023.2.3,Win32,163.9344262,,,,,,,,,,,5,14,3,1,,,,,,,,,,,,,,,,,,,,,,,,,,,,,
666c7ff3cb01f81efd18805c,TCR,2024-06-25_11h53.49.165,LearnStrategy,2023.2.3,Win32,163.9344262,,,,,,,,,,,4,09,3,2,,,,,,,,,,,,,,,,,,,,,,,,,,,,,
666c7ff3cb01f81efd18805c,TCR,2024-06-25_11h53.49.165,LearnStrategy,2023.2.3,Win32,163.9344262,,,,,,,,,,,2,14,3,3,,,,,,,,,,,,,,,,,,,,,,,,,,,,,
666c7ff3cb01f81efd18805c,TCR,2024-06-25_11h53.49.165,LearnStrategy,2023.2.3,Win32,163.9344262,,,,,,,,,,,4,03,3,4,,,,,,,,,,,,,,,,,,,,,,,,,,,,,
666c7ff3cb01f81efd18805c,TCR,2024-06-25_11h53.49.165,LearnStrategy,2023.2.3,Win32,163.9344262,,,,,,,,,,,7,15,3,5,,,,,,,,,,,,,,,,,,,,,,,,,,,,,
666c7ff3cb01f81efd18805c,TCR,2024-06-25_11h53.49.165,LearnStrategy,2023.2.3,Win32,163.9344262,,,,,,,,,,,6,15,3,6,,,,,,,,,,,,,,,,,,,,,,,,,,,,,
666c7ff3cb01f81efd18805c,TCR,2024-06-25_11h53.49.165,LearnStrategy,2023.2.3,Win32,163.9344262,,,,,,,,,,,2,01,3,7,,,,,,,,,,,,,,,,,,,,,,,,,,,,,
666c7ff3cb01f81efd18805c,TCR,2024-06-25_11h53.49.165,LearnStrategy,2023.2.3,Win32,163.9344262,,,,,,,,,,,8,03,3,8,,,,,,,,,,,,,,,,,,,,,,,,,,,,,
666c7ff3cb01f81efd18805c,TCR,2024-06-25_11h53.49.165,LearnStrategy,2023.2.3,Win32,163.9344262,,,,,,,,,,,2,04,4,1,,,,,,,,,,,,,,,,,,,,,,,,,,,,,
666c7ff3cb01f81efd18805c,TCR,2024-06-25_11h53.49.165,LearnStrategy,2023.2.3,Win32,163.9344262,,,,,,,,,,,2,11,4,2,,,,,,,,,,,,,,,,,,,,,,,,,,,,,
666c7ff3cb01f81efd18805c,TCR,2024-06-25_11h53.49.165,LearnStrategy,2023.2.3,Win32,163.9344262,,,,,,,,,,,2,09,4,3,,,,,,,,,,,,,,,,,,,,,,,,,,,,,
666c7ff3cb01f81efd18805c,TCR,2024-06-25_11h53.49.165,LearnStrategy,2023.2.3,Win32,163.9344262,,,,,,,,,,,7,05,4,4,,,,,,,,,,,,,,,,,,,,,,,,,,,,,
666c7ff3cb01f81efd18805c,TCR,2024-06-25_11h53.49.165,LearnStrategy,2023.2.3,Win32,163.9344262,,,,,,,,,,,3,13,4,5,,,,,,,,,,,,,,,,,,,,,,,,,,,,,
666c7ff3cb01f81efd18805c,TCR,2024-06-25_11h53.49.165,LearnStrategy,2023.2.3,Win32,163.9344262,,,,,,,,,,,7,07,4,6,,,,,,,,,,,,,,,,,,,,,,,,,,,,,
666c7ff3cb01f81efd18805c,TCR,2024-06-25_11h53.49.165,LearnStrategy,2023.2.3,Win32,163.9344262,,,,,,,,,,,1,16,4,7,,,,,,,,,,,,,,,,,,,,,,,,,,,,,
666c7ff3cb01f81efd18805c,TCR,2024-06-25_11h53.49.165,LearnStrategy,2023.2.3,Win32,163.9344262,,,,,,,,,,,7,04,4,8,,,,,,,,,,,,,,,,,,,,,,,,,,,,,
666c7ff3cb01f81efd18805c,TCR,2024-06-25_11h53.49.165,LearnStrategy,2023.2.3,Win32,163.9344262,,,,,,,,,,,2,08,5,1,,,,,,,,,,,,,,,,,,,,,,,,,,,,,
666c7ff3cb01f81efd18805c,TCR,2024-06-25_11h53.49.165,LearnStrategy,2023.2.3,Win32,163.9344262,,,,,,,,,,,7,16,5,2,,,,,,,,,,,,,,,,,,,,,,,,,,,,,
666c7ff3cb01f81efd18805c,TCR,2024-06-25_11h53.49.165,LearnStrategy,2023.2.3,Win32,163.9344262,,,,,,,,,,,3,06,5,3,,,,,,,,,,,,,,,,,,,,,,,,,,,,,
666c7ff3cb01f81efd18805c,TCR,2024-06-25_11h53.49.165,LearnStrategy,2023.2.3,Win32,163.9344262,,,,,,,,,,,4,11,5,4,,,,,,,,,,,,,,,,,,,,,,,,,,,,,
666c7ff3cb01f81efd18805c,TCR,2024-06-25_11h53.49.165,LearnStrategy,2023.2.3,Win32,163.9344262,,,,,,,,,,,5,09,5,5,,,,,,,,,,,,,,,,,,,,,,,,,,,,,
666c7ff3cb01f81efd18805c,TCR,2024-06-25_11h53.49.165,LearnStrategy,2023.2.3,Win32,163.9344262,,,,,,,,,,,6,07,5,6,,,,,,,,,,,,,,,,,,,,,,,,,,,,,
666c7ff3cb01f81efd18805c,TCR,2024-06-25_11h53.49.165,LearnStrategy,2023.2.3,Win32,163.9344262,,,,,,,,,,,1,14,5,7,,,,,,,,,,,,,,,,,,,,,,,,,,,,,
666c7ff3cb01f81efd18805c,TCR,2024-06-25_11h53.49.165,LearnStrategy,2023.2.3,Win32,163.9344262,,,,,,,,,,,4,14,5,8,,,,,,,,,,,,,,,,,,,,,,,,,,,,,
666c7ff3cb01f81efd18805c,TCR,2024-06-25_11h53.49.165,LearnStrategy,2023.2.3,Win32,163.9344262,,,,,,,,,,,5,12,6,1,,,,,,,,,,,,,,,,,,,,,,,,,,,,,
666c7ff3cb01f81efd18805c,TCR,2024-06-25_11h53.49.165,LearnStrategy,2023.2.3,Win32,163.9344262,,,,,,,,,,,8,15,6,2,,,,,,,,,,,,,,,,,,,,,,,,,,,,,
666c7ff3cb01f81efd18805c,TCR,2024-06-25_11h53.49.165,LearnStrategy,2023.2.3,Win32,163.9344262,,,,,,,,,,,1,03,6,3,,,,,,,,,,,,,,,,,,,,,,,,,,,,,
666c7ff3cb01f81efd18805c,TCR,2024-06-25_11h53.49.165,LearnStrategy,2023.2.3,Win32,163.9344262,,,,,,,,,,,5,16,6,4,,,,,,,,,,,,,,,,,,,,,,,,,,,,,
666c7ff3cb01f81efd18805c,TCR,2024-06-25_11h53.49.165,LearnStrategy,2023.2.3,Win32,163.9344262,,,,,,,,,,,5,05,6,5,,,,,,,,,,,,,,,,,,,,,,,,,,,,,
666c7ff3cb01f81efd18805c,TCR,2024-06-25_11h53.49.165,LearnStrategy,2023.2.3,Win32,163.9344262,,,,,,,,,,,4,13,6,6,,,,,,,,,,,,,,,,,,,,,,,,,,,,,
666c7ff3cb01f81efd18805c,TCR,2024-06-25_11h53.49.165,LearnStrategy,2023.2.3,Win32,163.9344262,,,,,,,,,,,6,09,6,7,,,,,,,,,,,,,,,,,,,,,,,,,,,,,
666c7ff3cb01f81efd18805c,TCR,2024-06-25_11h53.49.165,LearnStrategy,2023.2.3,Win32,163.9344262,,,,,,,,,,,3,16,6,8,,,,,,,,,,,,,,,,,,,,,,,,,,,,,