participant,condition,date,expName,psychopyVersion,OS,frameRate,block,phase,trial,learn_mouse_2.x,learn_mouse_2.y,learn_mouse_2.leftButton,learn_mouse_2.midButton,learn_mouse_2.rightButton,learn_mouse_2.time,learn_mouse_2.clicked_name,cat,token,row,col,t_select,cat_mouse_l.x,cat_mouse_l.y,cat_mouse_l.leftButton,cat_mouse_l.midButton,cat_mouse_l.rightButton,cat_mouse_l.time,cat_mouse_l.clicked_name,resp,t_resp,corr,train_trials.thisRepN,train_trials.thisTrialN,train_trials.thisN,train_trials.thisIndex,train_trials.ran,cat_mouse_t.x,cat_mouse_t.y,cat_mouse_t.leftButton,cat_mouse_t.midButton,cat_mouse_t.rightButton,cat_mouse_t.time,cat_mouse_t.clicked_name,test_trials.thisRepN,test_trials.thisTrialN,test_trials.thisN,test_trials.thisIndex,test_trials.ran,Bonus
666f891be7954cd327824594,TCR,2024-06-24_16h18.57.334,LearnStrategy,2023.2.3,Win32,60.24096386,,,,,,,,,,,,,,,,,,,,,,,,,,,,,,,,,,,,,,,,,,,
666f891be7954cd327824594,TCR,2024-06-24_16h18.57.334,LearnStrategy,2023.2.3,Win32,60.24096386,1,1,1,-0.01944443,-0.003703718,1,0,0,5.0623,rock_grid_rect_2,6,08,-1,-1,5.062,0.37037037,-0.253703718,1,0,0,11.6866,Gabbro_rect,4,11.687,0,0,0,0,0,1,,,,,,,,,,,,,
666f891be7954cd327824594,TCR,2024-06-24_16h18.57.334,LearnStrategy,2023.2.3,Win32,60.24096386,1,1,2,-0.017592607,-0.01203703,1,0,0,4.0095,rock_grid_rect_2,3,15,-1,-1,4.01,0.137962977,-0.247222265,1,0,0,7.7438,Diorite_rect,3,7.744,1,1,0,1,0,1,,,,,,,,,,,,,
666f891be7954cd327824594,TCR,2024-06-24_16h18.57.334,LearnStrategy,2023.2.3,Win32,60.24096386,1,1,3,-0.069444444,-0.002777771,1,0,0,1.6594,rock_grid_rect_2,7,06,-1,-1,1.659,-0.123148106,-0.228703746,1,0,0,8.128,Basalt_rect,2,8.128,0,2,0,2,0,1,,,,,,,,,,,,,
666f891be7954cd327824594,TCR,2024-06-24_16h18.57.334,LearnStrategy,2023.2.3,Win32,60.24096386,1,1,4,-0.127777735,-0.011111118,1,0,0,1.5428,rock_grid_rect_2,5,14,-1,-1,1.543,-0.410185178,-0.392592607,1,0,0,5.5331,Obsidian_rect,5,5.533,1,3,0,3,0,1,,,,,,,,,,,,,
666f891be7954cd327824594,TCR,2024-06-24_16h18.57.334,LearnStrategy,2023.2.3,Win32,60.24096386,1,1,5,-0.123148106,-0.009259259,1,0,0,1.7514,rock_grid_rect_2,7,15,-1,-1,1.751,-0.398148148,-0.255555541,1,0,0,6.6149,Andesite_rect,1,6.615,0,4,0,4,0,1,,,,,,,,,,,,,
666f891be7954cd327824594,TCR,2024-06-24_16h18.57.334,LearnStrategy,2023.2.3,Win32,60.24096386,1,1,6,-0.135185171,-0.006481489,1,0,0,1.5441,rock_grid_rect_2,3,06,-1,-1,1.544,-0.375925912,-0.25,1,0,0,7.5466,Andesite_rect,1,7.547,0,5,0,5,0,1,,,,,,,,,,,,,
666f891be7954cd327824594,TCR,2024-06-24_16h18.57.334,LearnStrategy,2023.2.3,Win32,60.24096386,1,1,7,-0.071296268,-0.009259259,1,0,0,1.9147,rock_grid_rect_2,8,16,-1,-1,1.915,-0.174074032,-0.246296282,1,0,0,6.9349,Basalt_rect,2,6.935,0,6,0,6,0,1,,,,,,,,,,,,,
666f891be7954cd327824594,TCR,2024-06-24_16h18.57.334,LearnStrategy,2023.2.3,Win32,60.24096386,1,1,8,-0.063888903,0.009259259,1,0,0,1.5932,rock_grid_rect_2,2,06,-1,-1,1.593,-0.137962977,-0.240740741,1,0,0,6.0844,Basalt_rect,2,6.084,1,7,0,7,0,1,,,,,,,,,,,,,
666f891be7954cd327824594,TCR,2024-06-24_16h18.57.334,LearnStrategy,2023.2.3,Win32,60.24096386,1,1,9,-0.087037051,-0.003703718,1,0,0,1.5764,rock_grid_rect_2,5,12,-1,-1,1.576,-0.412962949,-0.401851866,1,0,0,5.1013,Obsidian_rect,5,5.101,1,8,0,8,0,1,,,,,,,,,,,,,
666f891be7954cd327824594,TCR,2024-06-24_16h18.57.334,LearnStrategy,2023.2.3,Win32,60.24096386,1,1,10,-0.089814787,-0.01666666,1,0,0,1.8818,rock_grid_rect_2,4,09,-1,-1,1.882,0.371296353,-0.239814829,1,0,0,7.5845,Gabbro_rect,4,7.584,1,9,0,9,0,1,,,,,,,,,,,,,
666f891be7954cd327824594,TCR,2024-06-24_16h18.57.334,LearnStrategy,2023.2.3,Win32,60.24096386,1,1,11,-0.047222208,0.006481489,1,0,0,1.1155,rock_grid_rect_2,1,09,-1,-1,1.115,-0.37037037,-0.246296282,1,0,0,4.0013,Andesite_rect,1,4.001,1,10,0,10,0,1,,,,,,,,,,,,,
666f891be7954cd327824594,TCR,2024-06-24_16h18.57.334,LearnStrategy,2023.2.3,Win32,60.24096386,1,1,12,-0.061111097,0.02407406,1,0,0,2.1771,rock_grid_rect_2,8,06,-1,-1,2.177,0.36018527,-0.252777806,1,0,0,6.0005,Gabbro_rect,4,6,0,11,0,11,0,1,,,,,,,,,,,,,
666f891be7954cd327824594,TCR,2024-06-24_16h18.57.334,LearnStrategy,2023.2.3,Win32,60.24096386,1,1,13,-0.114814829,0.0074074,1,0,0,1.9806,rock_grid_rect_2,6,03,-1,-1,1.981,-0.156481496,-0.384259259,1,0,0,4.2187,Pegmatite_rect,6,4.219,1,12,0,12,0,1,,,,,,,,,,,,,
666f891be7954cd327824594,TCR,2024-06-24_16h18.57.334,LearnStrategy,2023.2.3,Win32,60.24096386,1,1,14,-0.081481439,0.00462963,1,0,0,1.5139,rock_grid_rect_2,2,14,-1,-1,1.514,0.384259259,-0.387962977,1,0,0,3.6348,Pumice_rect,8,3.635,0,13,0,13,0,1,,,,,,,,,,,,,
666f891be7954cd327824594,TCR,2024-06-24_16h18.57.334,LearnStrategy,2023.2.3,Win32,60.24096386,1,1,15,-0.042592578,-0.008333347,1,0,0,3.6182,rock_grid_rect_2,4,13,-1,-1,3.618,0.088888875,-0.237037023,1,0,0,4.8143,Diorite_rect,3,4.814,0,14,0,14,0,1,,,,,,,,,,,,,
666f891be7954cd327824594,TCR,2024-06-24_16h18.57.334,LearnStrategy,2023.2.3,Win32,60.24096386,1,1,16,-0.018518519,0.005555541,1,0,0,3.0269,rock_grid_rect_2,1,05,-1,-1,3.027,0.098148134,-0.256481524,1,0,0,3.5184,Diorite_rect,3,3.518,0,15,0,15,0,1,,,,,,,,,,,,,
666f891be7954cd327824594,TCR,2024-06-24_16h18.57.334,LearnStrategy,2023.2.3,Win32,60.24096386,1,2,1,,,,,,,,6,15,,,,,,,,,,,7,8.944,0,,,,,,0.113888917,-0.405555584,1,0,0,8.9437,Peridotite_rect,0,0,0,0,1,
666f891be7954cd327824594,TCR,2024-06-24_16h18.57.334,LearnStrategy,2023.2.3,Win32,60.24096386,1,2,2,,,,,,,,4,01,,,,,,,,,,,3,6.128,0,,,,,,0.12962963,-0.241666653,1,0,0,6.1279,Diorite_rect,1,0,1,0,1,
666f891be7954cd327824594,TCR,2024-06-24_16h18.57.334,LearnStrategy,2023.2.3,Win32,60.24096386,1,2,3,,,,,,,,5,06,,,,,,,,,,,5,3.928,1,,,,,,-0.373148141,-0.390740783,1,0,0,3.9285,Obsidian_rect,2,0,2,0,1,
666f891be7954cd327824594,TCR,2024-06-24_16h18.57.334,LearnStrategy,2023.2.3,Win32,60.24096386,1,2,4,,,,,,,,7,13,,,,,,,,,,,2,12.833,0,,,,,,-0.187962921,-0.268518519,1,0,0,12.8332,Basalt_rect,3,0,3,0,1,
666f891be7954cd327824594,TCR,2024-06-24_16h18.57.334,LearnStrategy,2023.2.3,Win32,60.24096386,1,2,5,,,,,,,,1,16,,,,,,,,,,,1,5.785,1,,,,,,-0.429629608,-0.240740741,1,0,0,5.7848,Andesite_rect,4,0,4,0,1,
666f891be7954cd327824594,TCR,2024-06-24_16h18.57.334,LearnStrategy,2023.2.3,Win32,60.24096386,1,2,6,,,,,,,,3,11,,,,,,,,,,,8,6.033,0,,,,,,0.388888889,-0.393518519,1,0,0,6.0333,Pumice_rect,5,0,5,0,1,
666f891be7954cd327824594,TCR,2024-06-24_16h18.57.334,LearnStrategy,2023.2.3,Win32,60.24096386,1,2,7,,,,,,,,1,07,,,,,,,,,,,3,6.25,0,,,,,,0.12037037,-0.246296282,1,0,0,6.2504,Diorite_rect,6,0,6,0,1,
666f891be7954cd327824594,TCR,2024-06-24_16h18.57.334,LearnStrategy,2023.2.3,Win32,60.24096386,1,2,8,,,,,,,,3,13,,,,,,,,,,,6,8.851,0,,,,,,-0.090740698,-0.410185213,1,0,0,8.8509,Pegmatite_rect,7,0,7,0,1,
666f891be7954cd327824594,TCR,2024-06-24_16h18.57.334,LearnStrategy,2023.2.3,Win32,60.24096386,1,2,9,,,,,,,,4,11,,,,,,,,,,,3,10.8,0,,,,,,0.110185199,-0.260185171,1,0,0,10.8004,Diorite_rect,8,0,8,0,1,
666f891be7954cd327824594,TCR,2024-06-24_16h18.57.334,LearnStrategy,2023.2.3,Win32,60.24096386,1,2,10,,,,,,,,2,02,,,,,,,,,,,2,4.951,1,,,,,,-0.115740741,-0.238888917,1,0,0,4.9513,Basalt_rect,9,0,9,0,1,
666f891be7954cd327824594,TCR,2024-06-24_16h18.57.334,LearnStrategy,2023.2.3,Win32,60.24096386,1,2,11,,,,,,,,8,02,,,,,,,,,,,8,4.401,1,,,,,,0.390740712,-0.392592607,1,0,0,4.4013,Pumice_rect,10,0,10,0,1,
666f891be7954cd327824594,TCR,2024-06-24_16h18.57.334,LearnStrategy,2023.2.3,Win32,60.24096386,1,2,12,,,,,,,,5,07,,,,,,,,,,,5,6.766,1,,,,,,-0.424999979,-0.401851866,1,0,0,6.7664,Obsidian_rect,11,0,11,0,1,
666f891be7954cd327824594,TCR,2024-06-24_16h18.57.334,LearnStrategy,2023.2.3,Win32,60.24096386,1,2,13,,,,,,,,2,11,,,,,,,,,,,3,3.334,0,,,,,,0.074074074,-0.240740741,1,0,0,3.334,Diorite_rect,12,0,12,0,1,
666f891be7954cd327824594,TCR,2024-06-24_16h18.57.334,LearnStrategy,2023.2.3,Win32,60.24096386,1,2,14,,,,,,,,8,15,,,,,,,,,,,8,2.585,1,,,,,,0.381481453,-0.405555584,1,0,0,2.5849,Pumice_rect,13,0,13,0,1,
666f891be7954cd327824594,TCR,2024-06-24_16h18.57.334,LearnStrategy,2023.2.3,Win32,60.24096386,1,2,15,,,,,,,,6,09,,,,,,,,,,,6,2.233,1,,,,,,-0.112037023,-0.390740783,1,0,0,2.2328,Pegmatite_rect,14,0,14,0,1,
666f891be7954cd327824594,TCR,2024-06-24_16h18.57.334,LearnStrategy,2023.2.3,Win32,60.24096386,1,2,16,,,,,,,,7,14,,,,,,,,,,,4,8.018,0,,,,,,0.363888917,-0.252777806,1,0,0,8.0176,Gabbro_rect,15,0,15,0,1,
666f891be7954cd327824594,TCR,2024-06-24_16h18.57.334,LearnStrategy,2023.2.3,Win32,60.24096386,2,1,1,0.036111125,-0.011111118,1,0,0,3.3984,rock_grid_rect_2,1,01,-1,-1,3.398,-0.109259217,-0.24537037,0,0,1,9.0951,Basalt_rect,2,9.095,0,0,0,0,0,1,,,,,,,,,,,,,
666f891be7954cd327824594,TCR,2024-06-24_16h18.57.334,LearnStrategy,2023.2.3,Win32,60.24096386,2,1,2,-0.07222218,-0.023148148,1,0,0,1.3124,rock_grid_rect_2,4,08,-1,-1,1.312,0.122222265,-0.247222265,1,0,0,3.7648,Diorite_rect,3,3.765,0,1,0,1,0,1,,,,,,,,,,,,,
666f891be7954cd327824594,TCR,2024-06-24_16h18.57.334,LearnStrategy,2023.2.3,Win32,60.24096386,2,1,3,-0.12037037,0.02407406,1,0,0,1.5758,rock_grid_rect_2,2,04,-1,-1,1.576,0.135185171,-0.238888917,1,0,0,5.8851,Diorite_rect,3,5.885,0,2,0,2,0,1,,,,,,,,,,,,,
666f891be7954cd327824594,TCR,2024-06-24_16h18.57.334,LearnStrategy,2023.2.3,Win32,60.24096386,2,1,4,-0.095370328,0.005555541,1,0,0,1.3808,rock_grid_rect_2,3,15,-1,-1,1.381,0.125,-0.24537037,1,0,0,2.4514,Diorite_rect,3,2.451,1,3,0,3,0,1,,,,,,,,,,,,,
666f891be7954cd327824594,TCR,2024-06-24_16h18.57.334,LearnStrategy,2023.2.3,Win32,60.24096386,2,1,5,-0.04814812,0.011111118,1,0,0,1.1923,rock_grid_rect_2,3,10,-1,-1,1.192,-0.39907406,-0.25,1,0,0,2.9181,Andesite_rect,1,2.918,0,4,0,4,0,1,,,,,,,,,,,,,
666f891be7954cd327824594,TCR,2024-06-24_16h18.57.334,LearnStrategy,2023.2.3,Win32,60.24096386,2,1,6,-0.099999958,-0.001851859,1,0,0,1.2934,rock_grid_rect_2,3,08,-1,-1,1.293,-0.075925898,-0.400000042,1,0,0,12.9505,Pegmatite_rect,6,12.951,0,5,0,5,0,1,,,,,,,,,,,,,
666f891be7954cd327824594,TCR,2024-06-24_16h18.57.334,LearnStrategy,2023.2.3,Win32,60.24096386,2,1,7,-0.094444416,0.010185171,1,0,0,1.4022,rock_grid_rect_2,3,14,-1,-1,1.402,0.09629631,-0.237037023,1,0,0,1.7635,Diorite_rect,3,1.763,1,6,0,6,0,1,,,,,,,,,,,,,
666f891be7954cd327824594,TCR,2024-06-24_16h18.57.334,LearnStrategy,2023.2.3,Win32,60.24096386,2,1,8,-0.000925912,-0.015740748,1,0,0,1.3491,rock_grid_rect_2,2,04,-1,-1,1.349,-0.137036995,-0.242592635,1,0,0,1.85,Basalt_rect,2,1.85,1,7,0,7,0,1,,,,,,,,,,,,,
666f891be7954cd327824594,TCR,2024-06-24_16h18.57.334,LearnStrategy,2023.2.3,Win32,60.24096386,2,1,9,-0.079629616,0.0074074,1,0,0,1.3638,rock_grid_rect_2,1,09,-1,-1,1.364,-0.149999972,-0.248148176,1,0,0,2.2177,Basalt_rect,2,2.218,0,8,0,8,0,1,,,,,,,,,,,,,
666f891be7954cd327824594,TCR,2024-06-24_16h18.57.334,LearnStrategy,2023.2.3,Win32,60.24096386,2,1,10,-0.021296254,-0.0074074,1,0,0,1.0186,rock_grid_rect_2,6,10,-1,-1,1.019,-0.103703675,-0.39444443,1,0,0,3.3646,Pegmatite_rect,6,3.365,1,9,0,9,0,1,,,,,,,,,,,,,
666f891be7954cd327824594,TCR,2024-06-24_16h18.57.334,LearnStrategy,2023.2.3,Win32,60.24096386,2,1,11,-0.001851824,-0.009259259,1,0,0,1.4818,rock_grid_rect_2,7,08,-1,-1,1.482,0.406481566,-0.256481524,1,0,0,10.1774,Gabbro_rect,4,10.177,0,10,0,10,0,1,,,,,,,,,,,,,
666f891be7954cd327824594,TCR,2024-06-24_16h18.57.334,LearnStrategy,2023.2.3,Win32,60.24096386,2,1,12,-0.046296296,-0.005555577,1,0,0,1.6816,rock_grid_rect_2,6,08,-1,-1,1.682,0.09629631,-0.386111153,1,0,0,6.0788,Peridotite_rect,7,6.079,0,11,0,11,0,1,,,,,,,,,,,,,
666f891be7954cd327824594,TCR,2024-06-24_16h18.57.334,LearnStrategy,2023.2.3,Win32,60.24096386,2,1,13,-0.029629601,-0.005555577,1,0,0,1.2266,rock_grid_rect_2,4,15,-1,-1,1.227,0.337962963,-0.247222265,1,0,0,7.9785,Gabbro_rect,4,7.978,1,12,0,12,0,1,,,,,,,,,,,,,
666f891be7954cd327824594,TCR,2024-06-24_16h18.57.334,LearnStrategy,2023.2.3,Win32,60.24096386,2,1,14,-0.07222218,-0.003703718,1,0,0,1.7088,rock_grid_rect_2,4,03,-1,-1,1.709,0.126851894,-0.246296282,1,0,0,2.2119,Diorite_rect,3,2.212,0,13,0,13,0,1,,,,,,,,,,,,,
666f891be7954cd327824594,TCR,2024-06-24_16h18.57.334,LearnStrategy,2023.2.3,Win32,60.24096386,2,1,15,-0.031481496,-0.012962977,1,0,0,1.4485,rock_grid_rect_2,7,08,-1,-1,1.448,0.056481467,-0.410185213,1,0,0,6.6349,Peridotite_rect,7,6.635,1,14,0,14,0,1,,,,,,,,,,,,,
666f891be7954cd327824594,TCR,2024-06-24_16h18.57.334,LearnStrategy,2023.2.3,Win32,60.24096386,2,1,16,-0.013888889,-0.01666666,1,0,0,1.5482,rock_grid_rect_2,7,08,-1,-1,1.548,0.119444459,-0.390740783,1,0,0,1.6009,Peridotite_rect,7,1.601,1,15,0,15,0,1,,,,,,,,,,,,,
666f891be7954cd327824594,TCR,2024-06-24_16h18.57.334,LearnStrategy,2023.2.3,Win32,60.24096386,2,2,1,,,,,,,,1,11,,,,,,,,,,,1,12.834,1,,,,,,-0.356481481,-0.253703718,1,0,0,12.8336,Andesite_rect,0,0,0,0,1,
666f891be7954cd327824594,TCR,2024-06-24_16h18.57.334,LearnStrategy,2023.2.3,Win32,60.24096386,2,2,2,,,,,,,,8,08,,,,,,,,,,,8,9.319,1,,,,,,0.404629601,-0.402777778,1,0,0,9.3195,Pumice_rect,1,0,1,0,1,
666f891be7954cd327824594,TCR,2024-06-24_16h18.57.334,LearnStrategy,2023.2.3,Win32,60.24096386,2,2,3,,,,,,,,4,10,,,,,,,,,,,8,6.518,0,,,,,,0.404629601,-0.402777778,1,0,0,6.5179,Pumice_rect,2,0,2,0,1,
666f891be7954cd327824594,TCR,2024-06-24_16h18.57.334,LearnStrategy,2023.2.3,Win32,60.24096386,2,2,4,,,,,,,,6,07,,,,,,,,,,,6,2.9,1,,,,,,-0.127777735,-0.405555584,1,0,0,2.9004,Pegmatite_rect,3,0,3,0,1,
666f891be7954cd327824594,TCR,2024-06-24_16h18.57.334,LearnStrategy,2023.2.3,Win32,60.24096386,2,2,5,,,,,,,,8,04,,,,,,,,,,,8,3.634,1,,,,,,0.337037122,-0.402777778,1,0,0,3.6343,Pumice_rect,4,0,4,0,1,
666f891be7954cd327824594,TCR,2024-06-24_16h18.57.334,LearnStrategy,2023.2.3,Win32,60.24096386,2,2,6,,,,,,,,6,16,,,,,,,,,,,6,4.218,1,,,,,,-0.131481453,-0.39444443,1,0,0,4.2183,Pegmatite_rect,5,0,5,0,1,
666f891be7954cd327824594,TCR,2024-06-24_16h18.57.334,LearnStrategy,2023.2.3,Win32,60.24096386,2,2,7,,,,,,,,4,12,,,,,,,,,,,1,9.068,0,,,,,,-0.346296275,-0.247222265,1,0,0,9.0682,Andesite_rect,6,0,6,0,1,
666f891be7954cd327824594,TCR,2024-06-24_16h18.57.334,LearnStrategy,2023.2.3,Win32,60.24096386,2,2,8,,,,,,,,3,02,,,,,,,,,,,3,5.102,1,,,,,,0.110185199,-0.240740741,1,0,0,5.1017,Diorite_rect,7,0,7,0,1,
666f891be7954cd327824594,TCR,2024-06-24_16h18.57.334,LearnStrategy,2023.2.3,Win32,60.24096386,2,2,9,,,,,,,,2,16,,,,,,,,,,,4,1.8,0,,,,,,0.351851852,-0.241666653,1,0,0,1.8003,Gabbro_rect,8,0,8,0,1,
666f891be7954cd327824594,TCR,2024-06-24_16h18.57.334,LearnStrategy,2023.2.3,Win32,60.24096386,2,2,10,,,,,,,,1,04,,,,,,,,,,,4,7.086,0,,,,,,0.351851852,-0.241666653,1,0,0,7.0858,Gabbro_rect,9,0,9,0,1,
666f891be7954cd327824594,TCR,2024-06-24_16h18.57.334,LearnStrategy,2023.2.3,Win32,60.24096386,2,2,11,,,,,,,,3,07,,,,,,,,,,,1,7.635,0,,,,,,-0.357407393,-0.228703746,1,0,0,7.6347,Andesite_rect,10,0,10,0,1,
666f891be7954cd327824594,TCR,2024-06-24_16h18.57.334,LearnStrategy,2023.2.3,Win32,60.24096386,2,2,12,,,,,,,,7,12,,,,,,,,,,,6,3.185,0,,,,,,-0.14444443,-0.404629672,1,0,0,3.1846,Pegmatite_rect,11,0,11,0,1,
666f891be7954cd327824594,TCR,2024-06-24_16h18.57.334,LearnStrategy,2023.2.3,Win32,60.24096386,2,2,13,,,,,,,,5,08,,,,,,,,,,,5,1.767,1,,,,,,-0.35833334,-0.387962977,1,0,0,1.7671,Obsidian_rect,12,0,12,0,1,
666f891be7954cd327824594,TCR,2024-06-24_16h18.57.334,LearnStrategy,2023.2.3,Win32,60.24096386,2,2,14,,,,,,,,5,11,,,,,,,,,,,5,1.318,1,,,,,,-0.38703703,-0.400000042,1,0,0,1.3176,Obsidian_rect,13,0,13,0,1,
666f891be7954cd327824594,TCR,2024-06-24_16h18.57.334,LearnStrategy,2023.2.3,Win32,60.24096386,2,2,15,,,,,,,,2,12,,,,,,,,,,,8,4.968,0,,,,,,0.351851852,-0.396296325,1,0,0,4.9682,Pumice_rect,14,0,14,0,1,
666f891be7954cd327824594,TCR,2024-06-24_16h18.57.334,LearnStrategy,2023.2.3,Win32,60.24096386,2,2,16,,,,,,,,7,10,,,,,,,,,,,6,2.118,0,,,,,,-0.076851809,-0.392592607,1,0,0,2.1184,Pegmatite_rect,15,0,15,0,1,
666f891be7954cd327824594,TCR,2024-06-24_16h18.57.334,LearnStrategy,2023.2.3,Win32,60.24096386,3,1,1,0.034259302,-0.01666666,1,0,0,2.1152,rock_grid_rect_2,4,15,-1,-1,2.115,0.398148148,-0.25,1,0,0,11.4279,Gabbro_rect,4,11.428,1,0,0,0,0,1,,,,,,,,,,,,,
666f891be7954cd327824594,TCR,2024-06-24_16h18.57.334,LearnStrategy,2023.2.3,Win32,60.24096386,3,1,2,-0.070370356,-0.008333347,1,0,0,3.718,rock_grid_rect_2,4,08,-1,-1,3.718,-0.317592586,-0.238888917,1,0,0,3.9023,Andesite_rect,1,3.902,0,1,0,1,0,1,,,,,,,,,,,,,
666f891be7954cd327824594,TCR,2024-06-24_16h18.57.334,LearnStrategy,2023.2.3,Win32,60.24096386,3,1,3,-0.084259245,-0.009259259,1,0,0,1.7471,rock_grid_rect_2,1,02,-1,-1,1.747,0.368518547,-0.392592607,1,0,0,3.7184,Pumice_rect,8,3.718,0,2,0,2,0,1,,,,,,,,,,,,,
666f891be7954cd327824594,TCR,2024-06-24_16h18.57.334,LearnStrategy,2023.2.3,Win32,60.24096386,3,1,4,-0.001851824,0.008333312,1,0,0,4.2355,rock_grid_rect_2,7,16,-1,-1,4.236,-0.158333319,-0.398148148,1,0,0,2.8131,Pegmatite_rect,6,2.813,0,3,0,3,0,1,,,,,,,,,,,,,
666f891be7954cd327824594,TCR,2024-06-24_16h18.57.334,LearnStrategy,2023.2.3,Win32,60.24096386,3,1,5,0.013888889,0.005555541,1,0,0,2.192,rock_grid_rect_2,4,13,-1,-1,2.192,0.372222194,-0.241666653,1,0,0,3.2836,Gabbro_rect,4,3.284,1,4,0,4,0,1,,,,,,,,,,,,,
666f891be7954cd327824594,TCR,2024-06-24_16h18.57.334,LearnStrategy,2023.2.3,Win32,60.24096386,3,1,6,-0.083333333,0.005555541,1,0,0,1.4675,rock_grid_rect_2,3,08,-1,-1,1.468,-0.068518533,-0.242592635,1,0,0,6.9314,Basalt_rect,2,6.931,0,5,0,5,0,1,,,,,,,,,,,,,
666f891be7954cd327824594,TCR,2024-06-24_16h18.57.334,LearnStrategy,2023.2.3,Win32,60.24096386,3,1,7,-0.125,0.000925912,1,0,0,1.3484,rock_grid_rect_2,3,06,-1,-1,1.348,0.095370399,-0.237963005,1,0,0,2.8012,Diorite_rect,3,2.801,1,6,0,6,0,1,,,,,,,,,,,,,
666f891be7954cd327824594,TCR,2024-06-24_16h18.57.334,LearnStrategy,2023.2.3,Win32,60.24096386,3,1,8,0.038888931,-0.018518519,1,0,0,1.2016,rock_grid_rect_2,7,08,-1,-1,1.202,-0.126851824,-0.400925954,1,0,0,1.6475,Pegmatite_rect,6,1.648,0,7,0,7,0,1,,,,,,,,,,,,,
666f891be7954cd327824594,TCR,2024-06-24_16h18.57.334,LearnStrategy,2023.2.3,Win32,60.24096386,3,1,9,-0.059259273,0.0074074,1,0,0,1.4655,rock_grid_rect_2,6,06,-1,-1,1.466,-0.124074088,-0.392592607,1,0,0,2.4348,Pegmatite_rect,6,2.435,1,8,0,8,0,1,,,,,,,,,,,,,
666f891be7954cd327824594,TCR,2024-06-24_16h18.57.334,LearnStrategy,2023.2.3,Win32,60.24096386,3,1,10,-0.060185185,0.012962942,1,0,0,1.4982,rock_grid_rect_2,8,06,-1,-1,1.498,0.400925954,-0.404629672,1,0,0,1.7337,Pumice_rect,8,1.734,1,9,0,9,0,1,,,,,,,,,,,,,
666f891be7954cd327824594,TCR,2024-06-24_16h18.57.334,LearnStrategy,2023.2.3,Win32,60.24096386,3,1,11,-0.074999986,0.000925912,1,0,0,1.5311,rock_grid_rect_2,7,16,-1,-1,1.531,0.123148176,-0.397222236,1,0,0,2.2666,Peridotite_rect,7,2.267,1,10,0,10,0,1,,,,,,,,,,,,,
666f891be7954cd327824594,TCR,2024-06-24_16h18.57.334,LearnStrategy,2023.2.3,Win32,60.24096386,3,1,12,-0.116666653,0.011111118,1,0,0,1.5327,rock_grid_rect_2,2,09,-1,-1,1.533,-0.154629601,-0.266666695,1,0,0,2.3166,Basalt_rect,2,2.317,1,11,0,11,0,1,,,,,,,,,,,,,
666f891be7954cd327824594,TCR,2024-06-24_16h18.57.334,LearnStrategy,2023.2.3,Win32,60.24096386,3,1,13,-0.061111097,0.0074074,1,0,0,1.3651,rock_grid_rect_2,3,15,-1,-1,1.365,0.406481566,-0.248148176,1,0,0,4.052,Gabbro_rect,4,4.052,0,12,0,12,0,1,,,,,,,,,,,,,
666f891be7954cd327824594,TCR,2024-06-24_16h18.57.334,LearnStrategy,2023.2.3,Win32,60.24096386,3,1,14,-0.055555556,-0.001851859,1,0,0,1.2316,rock_grid_rect_2,1,02,-1,-1,1.232,0.121296282,-0.255555541,1,0,0,4.3675,Diorite_rect,3,4.368,0,13,0,13,0,1,,,,,,,,,,,,,
666f891be7954cd327824594,TCR,2024-06-24_16h18.57.334,LearnStrategy,2023.2.3,Win32,60.24096386,3,1,15,-0.091666681,0.014814801,1,0,0,1.0857,rock_grid_rect_2,2,01,-1,-1,1.086,-0.138888889,-0.240740741,1,0,0,1.3488,Basalt_rect,2,1.349,1,14,0,14,0,1,,,,,,,,,,,,,
666f891be7954cd327824594,TCR,2024-06-24_16h18.57.334,LearnStrategy,2023.2.3,Win32,60.24096386,3,1,16,-0.026851866,-0.005555577,1,0,0,1.1986,rock_grid_rect_2,2,04,-1,-1,1.199,-0.134259259,-0.255555541,1,0,0,2.0181,Basalt_rect,2,2.018,1,15,0,15,0,1,,,,,,,,,,,,,
666f891be7954cd327824594,TCR,2024-06-24_16h18.57.334,LearnStrategy,2023.2.3,Win32,60.24096386,3,2,1,,,,,,,,5,16,,,,,,,,,,,5,1.834,1,,,,,,-0.375,-0.400000042,1,0,0,1.8344,Obsidian_rect,0,0,0,0,1,
666f891be7954cd327824594,TCR,2024-06-24_16h18.57.334,LearnStrategy,2023.2.3,Win32,60.24096386,3,2,2,,,,,,,,4,14,,,,,,,,,,,4,2.302,1,,,,,,0.411111196,-0.260185171,1,0,0,2.3021,Gabbro_rect,1,0,1,0,1,
666f891be7954cd327824594,TCR,2024-06-24_16h18.57.334,LearnStrategy,2023.2.3,Win32,60.24096386,3,2,3,,,,,,,,1,03,,,,,,,,,,,2,10.617,0,,,,,,-0.117592564,-0.247222265,1,0,0,10.6168,Basalt_rect,2,0,2,0,1,
666f891be7954cd327824594,TCR,2024-06-24_16h18.57.334,LearnStrategy,2023.2.3,Win32,60.24096386,3,2,4,,,,,,,,7,04,,,,,,,,,,,7,6.051,1,,,,,,0.125,-0.410185213,1,0,0,6.0514,Peridotite_rect,3,0,3,0,1,
666f891be7954cd327824594,TCR,2024-06-24_16h18.57.334,LearnStrategy,2023.2.3,Win32,60.24096386,3,2,5,,,,,,,,7,05,,,,,,,,,,,7,2.934,1,,,,,,0.125,-0.410185213,1,0,0,2.9339,Peridotite_rect,4,0,4,0,1,
666f891be7954cd327824594,TCR,2024-06-24_16h18.57.334,LearnStrategy,2023.2.3,Win32,60.24096386,3,2,6,,,,,,,,6,13,,,,,,,,,,,6,1.75,1,,,,,,-0.118518476,-0.39444443,1,0,0,1.7504,Pegmatite_rect,5,0,5,0,1,
666f891be7954cd327824594,TCR,2024-06-24_16h18.57.334,LearnStrategy,2023.2.3,Win32,60.24096386,3,2,7,,,,,,,,6,11,,,,,,,,,,,6,1.267,1,,,,,,-0.118518476,-0.39444443,1,0,0,1.2674,Pegmatite_rect,6,0,6,0,1,
666f891be7954cd327824594,TCR,2024-06-24_16h18.57.334,LearnStrategy,2023.2.3,Win32,60.24096386,3,2,8,,,,,,,,4,16,,,,,,,,,,,4,2.051,1,,,,,,0.413888861,-0.248148176,1,0,0,2.0511,Gabbro_rect,7,0,7,0,1,
666f891be7954cd327824594,TCR,2024-06-24_16h18.57.334,LearnStrategy,2023.2.3,Win32,60.24096386,3,2,9,,,,,,,,2,05,,,,,,,,,,,2,1.817,1,,,,,,-0.114814829,-0.248148176,1,0,0,1.8172,Basalt_rect,8,0,8,0,1,
666f891be7954cd327824594,TCR,2024-06-24_16h18.57.334,LearnStrategy,2023.2.3,Win32,60.24096386,3,2,10,,,,,,,,2,10,,,,,,,,,,,4,8.702,0,,,,,,0.387037065,-0.243518547,1,0,0,8.7017,Gabbro_rect,9,0,9,0,1,
666f891be7954cd327824594,TCR,2024-06-24_16h18.57.334,LearnStrategy,2023.2.3,Win32,60.24096386,3,2,11,,,,,,,,3,12,,,,,,,,,,,3,1.901,1,,,,,,0.154629672,-0.248148176,1,0,0,1.9015,Diorite_rect,10,0,10,0,1,
666f891be7954cd327824594,TCR,2024-06-24_16h18.57.334,LearnStrategy,2023.2.3,Win32,60.24096386,3,2,12,,,,,,,,3,16,,,,,,,,,,,3,1.3,1,,,,,,0.154629672,-0.248148176,1,0,0,1.3003,Diorite_rect,11,0,11,0,1,
666f891be7954cd327824594,TCR,2024-06-24_16h18.57.334,LearnStrategy,2023.2.3,Win32,60.24096386,3,2,13,,,,,,,,5,02,,,,,,,,,,,5,1.652,1,,,,,,-0.387962942,-0.39444443,1,0,0,1.6524,Obsidian_rect,12,0,12,0,1,
666f891be7954cd327824594,TCR,2024-06-24_16h18.57.334,LearnStrategy,2023.2.3,Win32,60.24096386,3,2,14,,,,,,,,8,05,,,,,,,,,,,8,2.083,1,,,,,,0.411111196,-0.384259259,1,0,0,2.0832,Pumice_rect,13,0,13,0,1,
666f891be7954cd327824594,TCR,2024-06-24_16h18.57.334,LearnStrategy,2023.2.3,Win32,60.24096386,3,2,15,,,,,,,,1,14,,,,,,,,,,,1,5.517,1,,,,,,-0.337037016,-0.243518547,1,0,0,5.517,Andesite_rect,14,0,14,0,1,
666f891be7954cd327824594,TCR,2024-06-24_16h18.57.334,LearnStrategy,2023.2.3,Win32,60.24096386,3,2,16,,,,,,,,8,14,,,,,,,,,,,8,2.084,1,,,,,,0.40370376,-0.383333347,1,0,0,2.0841,Pumice_rect,15,0,15,0,1,
666f891be7954cd327824594,TCR,2024-06-24_16h18.57.334,LearnStrategy,2023.2.3,Win32,60.24096386,4,1,1,-0.044444402,-0.011111118,1,0,0,49.7124,rock_grid_rect_2,2,01,-1,-1,49.712,-0.140740712,-0.24537037,1,0,0,1.7619,Basalt_rect,2,1.762,1,0,0,0,0,1,,,,,,,,,,,,,
666f891be7954cd327824594,TCR,2024-06-24_16h18.57.334,LearnStrategy,2023.2.3,Win32,60.24096386,4,1,2,-0.095370328,0.01203703,1,0,0,1.5481,rock_grid_rect_2,7,02,-1,-1,1.548,-0.15370369,-0.400925954,1,0,0,3.6293,Pegmatite_rect,6,3.629,0,1,0,1,0,1,,,,,,,,,,,,,
666f891be7954cd327824594,TCR,2024-06-24_16h18.57.334,LearnStrategy,2023.2.3,Win32,60.24096386,4,1,3,-0.037037037,0.006481489,1,0,0,1.7982,rock_grid_rect_2,4,05,-1,-1,1.798,0.085185228,-0.398148148,1,0,0,6.6447,Peridotite_rect,7,6.645,0,2,0,2,0,1,,,,,,,,,,,,,
666f891be7954cd327824594,TCR,2024-06-24_16h18.57.334,LearnStrategy,2023.2.3,Win32,60.24096386,4,1,4,-0.044444402,-0.002777771,1,0,0,1.3818,rock_grid_rect_2,1,02,-1,-1,1.382,0.387037065,-0.392592607,1,0,0,1.4293,Pumice_rect,8,1.429,0,3,0,3,0,1,,,,,,,,,,,,,
666f891be7954cd327824594,TCR,2024-06-24_16h18.57.334,LearnStrategy,2023.2.3,Win32,60.24096386,4,1,5,-0.062037009,-0.000925947,1,0,0,1.3607,rock_grid_rect_2,4,15,-1,-1,1.361,0.380555612,-0.256481524,1,0,0,2.4281,Gabbro_rect,4,2.428,1,4,0,4,0,1,,,,,,,,,,,,,
666f891be7954cd327824594,TCR,2024-06-24_16h18.57.334,LearnStrategy,2023.2.3,Win32,60.24096386,4,1,6,-0.083333333,-0.018518519,1,0,0,1.4142,rock_grid_rect_2,4,13,-1,-1,1.414,0.378703788,-0.237963005,1,0,0,1.5627,Gabbro_rect,4,1.563,1,5,0,5,0,1,,,,,,,,,,,,,
666f891be7954cd327824594,TCR,2024-06-24_16h18.57.334,LearnStrategy,2023.2.3,Win32,60.24096386,4,1,7,-0.050000014,-0.00462963,1,0,0,1.1985,rock_grid_rect_2,3,06,-1,-1,1.198,0.112037023,-0.25,1,0,0,1.6791,Diorite_rect,3,1.679,1,6,0,6,0,1,,,,,,,,,,,,,
666f891be7954cd327824594,TCR,2024-06-24_16h18.57.334,LearnStrategy,2023.2.3,Win32,60.24096386,4,1,8,-0.073148162,-0.00462963,1,0,0,1.4152,rock_grid_rect_2,6,06,-1,-1,1.415,-0.122222194,-0.398148148,1,0,0,1.9622,Pegmatite_rect,6,1.962,1,7,0,7,0,1,,,,,,,,,,,,,
666f891be7954cd327824594,TCR,2024-06-24_16h18.57.334,LearnStrategy,2023.2.3,Win32,60.24096386,4,1,9,-0.090740698,0.001851859,1,0,0,1.0818,rock_grid_rect_2,7,08,-1,-1,1.082,0.086111139,-0.387037065,1,0,0,2.1614,Peridotite_rect,7,2.161,1,8,0,8,0,1,,,,,,,,,,,,,
666f891be7954cd327824594,TCR,2024-06-24_16h18.57.334,LearnStrategy,2023.2.3,Win32,60.24096386,4,1,10,-0.035185143,-0.01203703,1,0,0,1.0996,rock_grid_rect_2,3,10,-1,-1,1.1,-0.407407407,-0.241666653,1,0,0,2.9619,Andesite_rect,1,2.962,0,9,0,9,0,1,,,,,,,,,,,,,
666f891be7954cd327824594,TCR,2024-06-24_16h18.57.334,LearnStrategy,2023.2.3,Win32,60.24096386,4,1,11,-0.029629601,0.000925912,1,0,0,0.9484,rock_grid_rect_2,2,14,-1,-1,0.948,0.3648149,-0.251851894,1,0,0,1.2942,Gabbro_rect,4,1.294,0,10,0,10,0,1,,,,,,,,,,,,,
666f891be7954cd327824594,TCR,2024-06-24_16h18.57.334,LearnStrategy,2023.2.3,Win32,60.24096386,4,1,12,-0.04351849,0.001851859,1,0,0,1.1491,rock_grid_rect_2,1,02,-1,-1,1.149,-0.355555534,-0.24537037,1,0,0,6.8119,Andesite_rect,1,6.812,1,11,0,11,0,1,,,,,,,,,,,,,
666f891be7954cd327824594,TCR,2024-06-24_16h18.57.334,LearnStrategy,2023.2.3,Win32,60.24096386,4,1,13,-0.055555556,-0.012962977,1,0,0,1.2647,rock_grid_rect_2,2,04,-1,-1,1.265,-0.142592607,-0.25462963,1,0,0,1.3785,Basalt_rect,2,1.379,1,12,0,12,0,1,,,,,,,,,,,,,
666f891be7954cd327824594,TCR,2024-06-24_16h18.57.334,LearnStrategy,2023.2.3,Win32,60.24096386,4,1,14,-0.062962921,0.002777771,1,0,0,1.2146,rock_grid_rect_2,1,10,-1,-1,1.215,-0.349074081,-0.236111111,1,0,0,2.4802,Andesite_rect,1,2.48,1,13,0,13,0,1,,,,,,,,,,,,,
666f891be7954cd327824594,TCR,2024-06-24_16h18.57.334,LearnStrategy,2023.2.3,Win32,60.24096386,4,1,15,-0.058333291,-0.009259259,1,0,0,1.048,rock_grid_rect_2,7,06,-1,-1,1.048,-0.140740712,-0.385185171,1,0,0,1.6112,Pegmatite_rect,6,1.611,0,14,0,14,0,1,,,,,,,,,,,,,
666f891be7954cd327824594,TCR,2024-06-24_16h18.57.334,LearnStrategy,2023.2.3,Win32,60.24096386,4,1,16,-0.051851838,0.0074074,1,0,0,2.6812,rock_grid_rect_2,8,09,-1,-1,2.681,0.405555584,-0.398148148,1,0,0,1.5621,Pumice_rect,8,1.562,1,15,0,15,0,1,,,,,,,,,,,,,
666f891be7954cd327824594,TCR,2024-06-24_16h18.57.334,LearnStrategy,2023.2.3,Win32,60.24096386,4,2,1,,,,,,,,5,07,,,,,,,,,,,5,1.751,1,,,,,,-0.365740741,-0.386111153,1,0,0,1.7512,Obsidian_rect,0,0,0,0,1,
666f891be7954cd327824594,TCR,2024-06-24_16h18.57.334,LearnStrategy,2023.2.3,Win32,60.24096386,4,2,2,,,,,,,,4,11,,,,,,,,,,,2,3.568,0,,,,,,-0.112962935,-0.257407436,1,0,0,3.5682,Basalt_rect,1,0,1,0,1,
666f891be7954cd327824594,TCR,2024-06-24_16h18.57.334,LearnStrategy,2023.2.3,Win32,60.24096386,4,2,3,,,,,,,,8,15,,,,,,,,,,,8,1.467,1,,,,,,0.343518575,-0.392592607,1,0,0,1.4673,Pumice_rect,2,0,2,0,1,
666f891be7954cd327824594,TCR,2024-06-24_16h18.57.334,LearnStrategy,2023.2.3,Win32,60.24096386,4,2,4,,,,,,,,2,11,,,,,,,,,,,1,5.6,0,,,,,,-0.397222201,-0.262037065,1,0,0,5.6001,Andesite_rect,3,0,3,0,1,
666f891be7954cd327824594,TCR,2024-06-24_16h18.57.334,LearnStrategy,2023.2.3,Win32,60.24096386,4,2,5,,,,,,,,6,11,,,,,,,,,,,6,2.084,1,,,,,,-0.133333347,-0.396296325,1,0,0,2.0836,Pegmatite_rect,4,0,4,0,1,
666f891be7954cd327824594,TCR,2024-06-24_16h18.57.334,LearnStrategy,2023.2.3,Win32,60.24096386,4,2,6,,,,,,,,3,16,,,,,,,,,,,3,2.318,1,,,,,,0.124074088,-0.249074088,1,0,0,2.3184,Diorite_rect,5,0,5,0,1,
666f891be7954cd327824594,TCR,2024-06-24_16h18.57.334,LearnStrategy,2023.2.3,Win32,60.24096386,4,2,7,,,,,,,,8,02,,,,,,,,,,,8,1.785,1,,,,,,0.361111111,-0.402777778,1,0,0,1.7846,Pumice_rect,6,0,6,0,1,
666f891be7954cd327824594,TCR,2024-06-24_16h18.57.334,LearnStrategy,2023.2.3,Win32,60.24096386,4,2,8,,,,,,,,4,12,,,,,,,,,,,2,5.414,0,,,,,,-0.158333319,-0.240740741,1,0,0,5.4139,Basalt_rect,7,0,7,0,1,
666f891be7954cd327824594,TCR,2024-06-24_16h18.57.334,LearnStrategy,2023.2.3,Win32,60.24096386,4,2,9,,,,,,,,1,07,,,,,,,,,,,1,3.184,1,,,,,,-0.369444423,-0.236111111,1,0,0,3.1843,Andesite_rect,8,0,8,0,1,
666f891be7954cd327824594,TCR,2024-06-24_16h18.57.334,LearnStrategy,2023.2.3,Win32,60.24096386,4,2,10,,,,,,,,6,09,,,,,,,,,,,6,2.017,1,,,,,,-0.135185171,-0.397222236,1,0,0,2.0173,Pegmatite_rect,9,0,9,0,1,
666f891be7954cd327824594,TCR,2024-06-24_16h18.57.334,LearnStrategy,2023.2.3,Win32,60.24096386,4,2,11,,,,,,,,1,16,,,,,,,,,,,6,2.08,0,,,,,,-0.135185171,-0.397222236,1,0,0,2.0797,Pegmatite_rect,10,0,10,0,1,
666f891be7954cd327824594,TCR,2024-06-24_16h18.57.334,LearnStrategy,2023.2.3,Win32,60.24096386,4,2,12,,,,,,,,7,14,,,,,,,,,,,7,3.236,1,,,,,,0.106481481,-0.388888889,1,0,0,3.2355,Peridotite_rect,11,0,11,0,1,
666f891be7954cd327824594,TCR,2024-06-24_16h18.57.334,LearnStrategy,2023.2.3,Win32,60.24096386,4,2,13,,,,,,,,2,12,,,,,,,,,,,1,3.468,0,,,,,,-0.361111111,-0.237037023,1,0,0,3.4678,Andesite_rect,12,0,12,0,1,
666f891be7954cd327824594,TCR,2024-06-24_16h18.57.334,LearnStrategy,2023.2.3,Win32,60.24096386,4,2,14,,,,,,,,7,13,,,,,,,,,,,7,3.434,1,,,,,,0.073148162,-0.39444443,1,0,0,3.4337,Peridotite_rect,13,0,13,0,1,
666f891be7954cd327824594,TCR,2024-06-24_16h18.57.334,LearnStrategy,2023.2.3,Win32,60.24096386,4,2,15,,,,,,,,5,16,,,,,,,,,,,5,1.466,1,,,,,,-0.388888889,-0.391666695,1,0,0,1.466,Obsidian_rect,14,0,14,0,1,
666f891be7954cd327824594,TCR,2024-06-24_16h18.57.334,LearnStrategy,2023.2.3,Win32,60.24096386,4,2,16,,,,,,,,3,02,,,,,,,,,,,3,2.917,1,,,,,,0.094444487,-0.257407436,1,0,0,2.9165,Diorite_rect,15,0,15,0,1,
666f891be7954cd327824594,TCR,2024-06-24_16h18.57.334,LearnStrategy,2023.2.3,Win32,60.24096386,5,1,1,-0.107407393,-0.001851859,1,0,0,1.6653,rock_grid_rect_2,1,01,-1,-1,1.665,0.402777778,-0.25462963,1,0,0,4.6119,Gabbro_rect,4,4.612,0,0,0,0,0,1,,,,,,,,,,,,,
666f891be7954cd327824594,TCR,2024-06-24_16h18.57.334,LearnStrategy,2023.2.3,Win32,60.24096386,5,1,2,-0.087962963,0.00462963,1,0,0,1.3313,rock_grid_rect_2,4,09,-1,-1,1.331,0.385185242,-0.237963005,1,0,0,11.1278,Gabbro_rect,4,11.128,1,1,0,1,0,1,,,,,,,,,,,,,
666f891be7954cd327824594,TCR,2024-06-24_16h18.57.334,LearnStrategy,2023.2.3,Win32,60.24096386,5,1,3,-0.025925884,0.010185171,1,0,0,1.782,rock_grid_rect_2,2,08,-1,-1,1.782,-0.136111083,-0.260185171,1,0,0,1.5119,Basalt_rect,2,1.512,1,2,0,2,0,1,,,,,,,,,,,,,
666f891be7954cd327824594,TCR,2024-06-24_16h18.57.334,LearnStrategy,2023.2.3,Win32,60.24096386,5,1,4,-0.091666681,0.00462963,1,0,0,1.4636,rock_grid_rect_2,2,09,-1,-1,1.464,-0.14444443,-0.258333347,1,0,0,1.3679,Basalt_rect,2,1.368,1,3,0,3,0,1,,,,,,,,,,,,,
666f891be7954cd327824594,TCR,2024-06-24_16h18.57.334,LearnStrategy,2023.2.3,Win32,60.24096386,5,1,5,-0.108333305,0.002777771,1,0,0,1.1358,rock_grid_rect_2,2,09,-1,-1,1.136,-0.141666624,-0.237963005,1,0,0,2.1983,Basalt_rect,2,2.198,1,4,0,4,0,1,,,,,,,,,,,,,
666f891be7954cd327824594,TCR,2024-06-24_16h18.57.334,LearnStrategy,2023.2.3,Win32,60.24096386,5,1,6,-0.071296268,0.00462963,1,0,0,1.3356,rock_grid_rect_2,2,04,-1,-1,1.336,-0.132407365,-0.238888917,1,0,0,4.7303,Basalt_rect,2,4.73,1,5,0,5,0,1,,,,,,,,,,,,,
666f891be7954cd327824594,TCR,2024-06-24_16h18.57.334,LearnStrategy,2023.2.3,Win32,60.24096386,5,1,7,-0.108333305,0.002777771,1,0,0,1.3348,rock_grid_rect_2,1,02,-1,-1,1.335,-0.376851859,-0.237963005,1,0,0,2.5995,Andesite_rect,1,2.599,1,6,0,6,0,1,,,,,,,,,,,,,
666f891be7954cd327824594,TCR,2024-06-24_16h18.57.334,LearnStrategy,2023.2.3,Win32,60.24096386,5,1,8,-0.050000014,-0.001851859,1,0,0,1.1182,rock_grid_rect_2,4,03,-1,-1,1.118,0.114814829,-0.247222265,1,0,0,1.7805,Diorite_rect,3,1.78,0,7,0,7,0,1,,,,,,,,,,,,,
666f891be7954cd327824594,TCR,2024-06-24_16h18.57.334,LearnStrategy,2023.2.3,Win32,60.24096386,5,1,9,-0.011111083,-0.01203703,1,0,0,1.3849,rock_grid_rect_2,4,05,-1,-1,1.385,0.383333418,-0.239814829,1,0,0,4.5489,Gabbro_rect,4,4.549,1,8,0,8,0,1,,,,,,,,,,,,,
666f891be7954cd327824594,TCR,2024-06-24_16h18.57.334,LearnStrategy,2023.2.3,Win32,60.24096386,5,1,10,-0.015740712,-0.006481489,1,0,0,1.0187,rock_grid_rect_2,7,07,-1,-1,1.019,0.385185242,-0.247222265,1,0,0,1.9977,Gabbro_rect,4,1.998,0,9,0,9,0,1,,,,,,,,,,,,,
666f891be7954cd327824594,TCR,2024-06-24_16h18.57.334,LearnStrategy,2023.2.3,Win32,60.24096386,5,1,11,-0.059259273,-0.001851859,1,0,0,1.1658,rock_grid_rect_2,4,09,-1,-1,1.166,-0.407407407,-0.412037037,1,0,0,3.5515,Obsidian_rect,5,3.552,0,10,0,10,0,1,,,,,,,,,,,,,
666f891be7954cd327824594,TCR,2024-06-24_16h18.57.334,LearnStrategy,2023.2.3,Win32,60.24096386,5,1,12,0.012962977,0.009259259,1,0,0,3.8357,rock_grid_rect_2,3,14,-1,-1,3.836,0.123148176,-0.239814829,1,0,0,2.6642,Diorite_rect,3,2.664,1,11,0,11,0,1,,,,,,,,,,,,,
666f891be7954cd327824594,TCR,2024-06-24_16h18.57.334,LearnStrategy,2023.2.3,Win32,60.24096386,5,1,13,0.000925912,-0.022222236,1,0,0,1.4152,rock_grid_rect_2,8,13,-1,-1,1.415,0.383333418,-0.412037037,1,0,0,1.7513,Pumice_rect,8,1.751,1,12,0,12,0,1,,,,,,,,,,,,,
666f891be7954cd327824594,TCR,2024-06-24_16h18.57.334,LearnStrategy,2023.2.3,Win32,60.24096386,5,1,14,-0.026851866,-0.014814836,1,0,0,1.1012,rock_grid_rect_2,6,12,-1,-1,1.101,0.124074088,-0.248148176,1,0,0,3.0826,Diorite_rect,3,3.083,0,13,0,13,0,1,,,,,,,,,,,,,
666f891be7954cd327824594,TCR,2024-06-24_16h18.57.334,LearnStrategy,2023.2.3,Win32,60.24096386,5,1,15,-0.027777778,-0.006481489,1,0,0,1.1317,rock_grid_rect_2,7,15,-1,-1,1.132,0.101851852,-0.407407407,1,0,0,3.8673,Peridotite_rect,7,3.867,1,14,0,14,0,1,,,,,,,,,,,,,
666f891be7954cd327824594,TCR,2024-06-24_16h18.57.334,LearnStrategy,2023.2.3,Win32,60.24096386,5,1,16,0.017592607,0.014814801,1,0,0,1.2817,rock_grid_rect_2,1,06,-1,-1,1.282,-0.412962949,-0.268518519,1,0,0,3.1847,Andesite_rect,1,3.185,1,15,0,15,0,1,,,,,,,,,,,,,
666f891be7954cd327824594,TCR,2024-06-24_16h18.57.334,LearnStrategy,2023.2.3,Win32,60.24096386,5,2,1,,,,,,,,7,04,,,,,,,,,,,7,5.851,1,,,,,,0.110185199,-0.385185171,1,0,0,5.8513,Peridotite_rect,0,0,0,0,1,
666f891be7954cd327824594,TCR,2024-06-24_16h18.57.334,LearnStrategy,2023.2.3,Win32,60.24096386,5,2,2,,,,,,,,2,05,,,,,,,,,,,2,2.651,1,,,,,,-0.155555513,-0.251851894,1,0,0,2.6515,Basalt_rect,1,0,1,0,1,
666f891be7954cd327824594,TCR,2024-06-24_16h18.57.334,LearnStrategy,2023.2.3,Win32,60.24096386,5,2,3,,,,,,,,7,05,,,,,,,,,,,4,4.285,0,,,,,,0.366666723,-0.256481524,1,0,0,4.2846,Gabbro_rect,2,0,2,0,1,
666f891be7954cd327824594,TCR,2024-06-24_16h18.57.334,LearnStrategy,2023.2.3,Win32,60.24096386,5,2,4,,,,,,,,1,04,,,,,,,,,,,3,5.601,0,,,,,,0.103703746,-0.25,1,0,0,5.6015,Diorite_rect,3,0,3,0,1,
666f891be7954cd327824594,TCR,2024-06-24_16h18.57.334,LearnStrategy,2023.2.3,Win32,60.24096386,5,2,5,,,,,,,,4,14,,,,,,,,,,,4,4.019,1,,,,,,0.42777775,-0.258333347,1,0,0,4.0194,Gabbro_rect,4,0,4,0,1,
666f891be7954cd327824594,TCR,2024-06-24_16h18.57.334,LearnStrategy,2023.2.3,Win32,60.24096386,5,2,6,,,,,,,,2,10,,,,,,,,,,,5,2.468,0,,,,,,-0.412962949,-0.410185213,1,0,0,2.4681,Obsidian_rect,5,0,5,0,1,
666f891be7954cd327824594,TCR,2024-06-24_16h18.57.334,LearnStrategy,2023.2.3,Win32,60.24096386,5,2,7,,,,,,,,5,08,,,,,,,,,,,5,1.246,1,,,,,,-0.412962949,-0.410185213,1,0,0,1.2463,Obsidian_rect,6,0,6,0,1,
666f891be7954cd327824594,TCR,2024-06-24_16h18.57.334,LearnStrategy,2023.2.3,Win32,60.24096386,5,2,8,,,,,,,,3,13,,,,,,,,,,,3,5.283,1,,,,,,0.123148176,-0.246296282,1,0,0,5.2831,Diorite_rect,7,0,7,0,1,
666f891be7954cd327824594,TCR,2024-06-24_16h18.57.334,LearnStrategy,2023.2.3,Win32,60.24096386,5,2,9,,,,,,,,6,07,,,,,,,,,,,6,2.171,1,,,,,,-0.135185171,-0.408333319,1,0,0,2.1715,Pegmatite_rect,8,0,8,0,1,
666f891be7954cd327824594,TCR,2024-06-24_16h18.57.334,LearnStrategy,2023.2.3,Win32,60.24096386,5,2,10,,,,,,,,1,14,,,,,,,,,,,3,3.634,0,,,,,,0.110185199,-0.244444459,1,0,0,3.6342,Diorite_rect,9,0,9,0,1,
666f891be7954cd327824594,TCR,2024-06-24_16h18.57.334,LearnStrategy,2023.2.3,Win32,60.24096386,5,2,11,,,,,,,,4,01,,,,,,,,,,,7,2.951,0,,,,,,0.104629658,-0.388888889,1,0,0,2.9513,Peridotite_rect,10,0,10,0,1,
666f891be7954cd327824594,TCR,2024-06-24_16h18.57.334,LearnStrategy,2023.2.3,Win32,60.24096386,5,2,12,,,,,,,,6,15,,,,,,,,,,,6,1.552,1,,,,,,-0.109259217,-0.401851866,1,0,0,1.5519,Pegmatite_rect,11,0,11,0,1,
666f891be7954cd327824594,TCR,2024-06-24_16h18.57.334,LearnStrategy,2023.2.3,Win32,60.24096386,5,2,13,,,,,,,,3,12,,,,,,,,,,,3,3.402,1,,,,,,0.123148176,-0.258333347,1,0,0,3.4016,Diorite_rect,12,0,12,0,1,
666f891be7954cd327824594,TCR,2024-06-24_16h18.57.334,LearnStrategy,2023.2.3,Win32,60.24096386,5,2,14,,,,,,,,8,04,,,,,,,,,,,8,1.819,1,,,,,,0.395370342,-0.396296325,1,0,0,1.8186,Pumice_rect,13,0,13,0,1,
666f891be7954cd327824594,TCR,2024-06-24_16h18.57.334,LearnStrategy,2023.2.3,Win32,60.24096386,5,2,15,,,,,,,,8,08,,,,,,,,,,,8,1.017,1,,,,,,0.395370342,-0.396296325,1,0,0,1.0167,Pumice_rect,14,0,14,0,1,
666f891be7954cd327824594,TCR,2024-06-24_16h18.57.334,LearnStrategy,2023.2.3,Win32,60.24096386,5,2,16,,,,,,,,5,02,,,,,,,,,,,5,1.402,1,,,,,,-0.375,-0.406481496,1,0,0,1.4016,Obsidian_rect,15,0,15,0,1,
666f891be7954cd327824594,TCR,2024-06-24_16h18.57.334,LearnStrategy,2023.2.3,Win32,60.24096386,6,1,1,-0.139814801,-0.005555577,1,0,0,1.9122,rock_grid_rect_2,4,15,-1,-1,1.912,0.416666667,-0.260185171,1,0,0,2.6959,Gabbro_rect,4,2.696,1,0,0,0,0,1,,,,,,,,,,,,,
666f891be7954cd327824594,TCR,2024-06-24_16h18.57.334,LearnStrategy,2023.2.3,Win32,60.24096386,6,1,2,-0.014814801,-0.001851859,1,0,0,3.7809,rock_grid_rect_2,4,03,-1,-1,3.781,0.102777764,-0.241666653,1,0,0,2.613,Diorite_rect,3,2.613,0,1,0,1,0,1,,,,,,,,,,,,,
666f891be7954cd327824594,TCR,2024-06-24_16h18.57.334,LearnStrategy,2023.2.3,Win32,60.24096386,6,1,3,0.00462963,-0.008333347,1,0,0,1.0985,rock_grid_rect_2,1,02,-1,-1,1.099,0.391666695,-0.404629672,1,0,0,1.7615,Pumice_rect,8,1.761,0,2,0,2,0,1,,,,,,,,,,,,,
666f891be7954cd327824594,TCR,2024-06-24_16h18.57.334,LearnStrategy,2023.2.3,Win32,60.24096386,6,1,4,-0.035185143,0.003703683,1,0,0,1.2985,rock_grid_rect_2,1,09,-1,-1,1.299,-0.161111125,-0.250925912,1,0,0,1.7955,Basalt_rect,2,1.795,0,3,0,3,0,1,,,,,,,,,,,,,
666f891be7954cd327824594,TCR,2024-06-24_16h18.57.334,LearnStrategy,2023.2.3,Win32,60.24096386,6,1,5,0.02407406,-0.006481489,1,0,0,1.0485,rock_grid_rect_2,6,03,-1,-1,1.048,0.088888875,-0.39907406,1,0,0,5.7121,Peridotite_rect,7,5.712,0,4,0,4,0,1,,,,,,,,,,,,,
666f891be7954cd327824594,TCR,2024-06-24_16h18.57.334,LearnStrategy,2023.2.3,Win32,60.24096386,6,1,6,-0.078703704,0.013888889,1,0,0,1.3493,rock_grid_rect_2,3,06,-1,-1,1.349,0.116666653,-0.246296282,1,0,0,1.9783,Diorite_rect,3,1.978,1,5,0,5,0,1,,,,,,,,,,,,,
666f891be7954cd327824594,TCR,2024-06-24_16h18.57.334,LearnStrategy,2023.2.3,Win32,60.24096386,6,1,7,-0.112962935,-0.010185206,1,0,0,1.5148,rock_grid_rect_2,2,08,-1,-1,1.515,-0.163888861,-0.235185199,1,0,0,1.4961,Basalt_rect,2,1.496,1,6,0,6,0,1,,,,,,,,,,,,,
666f891be7954cd327824594,TCR,2024-06-24_16h18.57.334,LearnStrategy,2023.2.3,Win32,60.24096386,6,1,8,-0.090740698,-0.015740748,1,0,0,1.4323,rock_grid_rect_2,1,01,-1,-1,1.432,0.421296296,-0.24537037,1,0,0,2.5622,Gabbro_rect,4,2.562,0,7,0,7,0,1,,,,,,,,,,,,,
666f891be7954cd327824594,TCR,2024-06-24_16h18.57.334,LearnStrategy,2023.2.3,Win32,60.24096386,6,1,9,-0.055555556,0.022222201,1,0,0,1.3929,rock_grid_rect_2,8,09,-1,-1,1.393,0.391666695,-0.389814801,1,0,0,1.7457,Pumice_rect,8,1.746,1,8,0,8,0,1,,,,,,,,,,,,,
666f891be7954cd327824594,TCR,2024-06-24_16h18.57.334,LearnStrategy,2023.2.3,Win32,60.24096386,6,1,10,-0.023148148,-0.008333347,1,0,0,1.099,rock_grid_rect_2,7,15,-1,-1,1.099,0.098148134,-0.388888889,1,0,0,3.5114,Peridotite_rect,7,3.511,1,9,0,9,0,1,,,,,,,,,,,,,
666f891be7954cd327824594,TCR,2024-06-24_16h18.57.334,LearnStrategy,2023.2.3,Win32,60.24096386,6,1,11,-0.054629644,0.018518519,1,0,0,1.1981,rock_grid_rect_2,1,05,-1,-1,1.198,0.112963005,-0.240740741,1,0,0,6.3284,Diorite_rect,3,6.328,0,10,0,10,0,1,,,,,,,,,,,,,
666f891be7954cd327824594,TCR,2024-06-24_16h18.57.334,LearnStrategy,2023.2.3,Win32,60.24096386,6,1,12,-0.10555557,0.020370377,1,0,0,1.1653,rock_grid_rect_2,2,04,-1,-1,1.165,-0.14444443,-0.237037023,1,0,0,1.2616,Basalt_rect,2,1.262,1,11,0,11,0,1,,,,,,,,,,,,,
666f891be7954cd327824594,TCR,2024-06-24_16h18.57.334,LearnStrategy,2023.2.3,Win32,60.24096386,6,1,13,-0.045370384,0.00462963,1,0,0,1.0653,rock_grid_rect_2,4,15,-1,-1,1.065,0.410185213,-0.24537037,1,0,0,1.6448,Gabbro_rect,4,1.645,1,12,0,12,0,1,,,,,,,,,,,,,
666f891be7954cd327824594,TCR,2024-06-24_16h18.57.334,LearnStrategy,2023.2.3,Win32,60.24096386,6,1,14,-0.05277775,0.005555541,1,0,0,1.3655,rock_grid_rect_2,2,09,-1,-1,1.365,-0.12962963,-0.242592635,1,0,0,1.2121,Basalt_rect,2,1.212,1,13,0,13,0,1,,,,,,,,,,,,,
666f891be7954cd327824594,TCR,2024-06-24_16h18.57.334,LearnStrategy,2023.2.3,Win32,60.24096386,6,1,15,-0.109259217,0.020370377,1,0,0,1.3511,rock_grid_rect_2,7,08,-1,-1,1.351,0.115740741,-0.391666695,1,0,0,2.7646,Peridotite_rect,7,2.765,1,14,0,14,0,1,,,,,,,,,,,,,
666f891be7954cd327824594,TCR,2024-06-24_16h18.57.334,LearnStrategy,2023.2.3,Win32,60.24096386,6,1,16,-0.055555556,0.01666666,1,0,0,1.4962,rock_grid_rect_2,5,09,-1,-1,1.496,-0.39907406,-0.380555541,1,0,0,1.4183,Obsidian_rect,5,1.418,1,15,0,15,0,1,,,,,,,,,,,,,
666f891be7954cd327824594,TCR,2024-06-24_16h18.57.334,LearnStrategy,2023.2.3,Win32,60.24096386,6,2,1,,,,,,,,7,12,,,,,,,,,,,4,5.217,0,,,,,,0.365740741,-0.237037023,1,0,0,5.2169,Gabbro_rect,0,0,0,0,1,
666f891be7954cd327824594,TCR,2024-06-24_16h18.57.334,LearnStrategy,2023.2.3,Win32,60.24096386,6,2,2,,,,,,,,5,11,,,,,,,,,,,5,1.667,1,,,,,,-0.392592571,-0.39444443,1,0,0,1.6669,Obsidian_rect,1,0,1,0,1,
666f891be7954cd327824594,TCR,2024-06-24_16h18.57.334,LearnStrategy,2023.2.3,Win32,60.24096386,6,2,3,,,,,,,,4,10,,,,,,,,,,,4,3.169,1,,,,,,0.375925982,-0.243518547,1,0,0,3.1687,Gabbro_rect,2,0,2,0,1,
666f891be7954cd327824594,TCR,2024-06-24_16h18.57.334,LearnStrategy,2023.2.3,Win32,60.24096386,6,2,4,,,,,,,,3,11,,,,,,,,,,,7,5.3,0,,,,,,0.091666681,-0.411111125,1,0,0,5.2997,Peridotite_rect,3,0,3,0,1,
666f891be7954cd327824594,TCR,2024-06-24_16h18.57.334,LearnStrategy,2023.2.3,Win32,60.24096386,6,2,5,,,,,,,,3,07,,,,,,,,,,,1,5.251,0,,,,,,-0.431481467,-0.256481524,1,0,0,5.2511,Andesite_rect,4,0,4,0,1,
666f891be7954cd327824594,TCR,2024-06-24_16h18.57.334,LearnStrategy,2023.2.3,Win32,60.24096386,6,2,6,,,,,,,,8,05,,,,,,,,,,,8,1.618,1,,,,,,0.372222194,-0.390740783,1,0,0,1.6177,Pumice_rect,5,0,5,0,1,
666f891be7954cd327824594,TCR,2024-06-24_16h18.57.334,LearnStrategy,2023.2.3,Win32,60.24096386,6,2,7,,,,,,,,5,06,,,,,,,,,,,5,1.434,1,,,,,,-0.400925919,-0.390740783,1,0,0,1.434,Obsidian_rect,6,0,6,0,1,
666f891be7954cd327824594,TCR,2024-06-24_16h18.57.334,LearnStrategy,2023.2.3,Win32,60.24096386,6,2,8,,,,,,,,7,10,,,,,,,,,,,7,2.251,1,,,,,,0.110185199,-0.400925954,1,0,0,2.251,Peridotite_rect,7,0,7,0,1,
666f891be7954cd327824594,TCR,2024-06-24_16h18.57.334,LearnStrategy,2023.2.3,Win32,60.24096386,6,2,9,,,,,,,,8,14,,,,,,,,,,,8,1.497,1,,,,,,0.362962935,-0.381481524,1,0,0,1.497,Pumice_rect,8,0,8,0,1,
666f891be7954cd327824594,TCR,2024-06-24_16h18.57.334,LearnStrategy,2023.2.3,Win32,60.24096386,6,2,10,,,,,,,,2,16,,,,,,,,,,,4,1.783,0,,,,,,0.368518547,-0.234259288,1,0,0,1.7833,Gabbro_rect,9,0,9,0,1,
666f891be7954cd327824594,TCR,2024-06-24_16h18.57.334,LearnStrategy,2023.2.3,Win32,60.24096386,6,2,11,,,,,,,,4,16,,,,,,,,,,,4,1.468,1,,,,,,0.368518547,-0.234259288,1,0,0,1.468,Gabbro_rect,10,0,10,0,1,
666f891be7954cd327824594,TCR,2024-06-24_16h18.57.334,LearnStrategy,2023.2.3,Win32,60.24096386,6,2,12,,,,,,,,6,13,,,,,,,,,,,6,2.435,1,,,,,,-0.179629644,-0.401851866,1,0,0,2.4349,Pegmatite_rect,11,0,11,0,1,
666f891be7954cd327824594,TCR,2024-06-24_16h18.57.334,LearnStrategy,2023.2.3,Win32,60.24096386,6,2,13,,,,,,,,1,03,,,,,,,,,,,3,2.45,0,,,,,,0.093518504,-0.231481481,1,0,0,2.4503,Diorite_rect,12,0,12,0,1,
666f891be7954cd327824594,TCR,2024-06-24_16h18.57.334,LearnStrategy,2023.2.3,Win32,60.24096386,6,2,14,,,,,,,,1,11,,,,,,,,,,,3,1.718,0,,,,,,0.093518504,-0.231481481,1,0,0,1.718,Diorite_rect,13,0,13,0,1,
666f891be7954cd327824594,TCR,2024-06-24_16h18.57.334,LearnStrategy,2023.2.3,Win32,60.24096386,6,2,15,,,,,,,,6,16,,,,,,,,,,,6,1.867,1,,,,,,-0.155555513,-0.404629672,1,0,0,1.8669,Pegmatite_rect,14,0,14,0,1,
666f891be7954cd327824594,TCR,2024-06-24_16h18.57.334,LearnStrategy,2023.2.3,Win32,60.24096386,6,2,16,,,,,,,,2,02,,,,,,,,,,,2,1.484,1,,,,,,-0.179629644,-0.241666653,1,0,0,1.4839,Basalt_rect,15,0,15,0,1,
666f891be7954cd327824594,TCR,2024-06-24_16h18.57.334,LearnStrategy,2023.2.3,Win32,60.24096386,7,1,1,-0.036111125,-0.002777771,1,0,0,1.6823,rock_grid_rect_2,5,04,-1,-1,1.682,-0.376851859,-0.393518519,1,0,0,1.9179,Obsidian_rect,5,1.918,1,0,0,0,0,1,,,,,,,,,,,,,
666f891be7954cd327824594,TCR,2024-06-24_16h18.57.334,LearnStrategy,2023.2.3,Win32,60.24096386,7,1,2,0.003703718,-0.020370377,1,0,0,1.3657,rock_grid_rect_2,3,15,-1,-1,1.366,0.412037037,-0.246296282,1,0,0,2.9677,Gabbro_rect,4,2.968,0,1,0,1,0,1,,,,,,,,,,,,,
666f891be7954cd327824594,TCR,2024-06-24_16h18.57.334,LearnStrategy,2023.2.3,Win32,60.24096386,7,1,3,0.032407407,-0.01666666,1,0,0,2.5824,rock_grid_rect_2,4,05,-1,-1,2.582,0.393518519,-0.257407436,1,0,0,3.0184,Gabbro_rect,4,3.018,1,2,0,2,0,1,,,,,,,,,,,,,
666f891be7954cd327824594,TCR,2024-06-24_16h18.57.334,LearnStrategy,2023.2.3,Win32,60.24096386,7,1,4,0.046296296,0.013888889,1,0,0,1.0484,rock_grid_rect_2,2,08,-1,-1,1.048,-0.133333347,-0.23055557,1,0,0,1.5673,Basalt_rect,2,1.567,1,3,0,3,0,1,,,,,,,,,,,,,
666f891be7954cd327824594,TCR,2024-06-24_16h18.57.334,LearnStrategy,2023.2.3,Win32,60.24096386,7,1,5,-0.040740755,0.006481489,1,0,0,1.1812,rock_grid_rect_2,1,09,-1,-1,1.181,-0.374074053,-0.243518547,1,0,0,3.0197,Andesite_rect,1,3.02,1,4,0,4,0,1,,,,,,,,,,,,,
666f891be7954cd327824594,TCR,2024-06-24_16h18.57.334,LearnStrategy,2023.2.3,Win32,60.24096386,7,1,6,-0.030555513,0.000925912,1,0,0,1.0817,rock_grid_rect_2,3,08,-1,-1,1.082,0.123148176,-0.242592635,1,0,0,1.618,Diorite_rect,3,1.618,1,5,0,5,0,1,,,,,,,,,,,,,
666f891be7954cd327824594,TCR,2024-06-24_16h18.57.334,LearnStrategy,2023.2.3,Win32,60.24096386,7,1,7,-0.128703718,0.010185171,1,0,0,1.2985,rock_grid_rect_2,3,06,-1,-1,1.298,0.123148176,-0.239814829,1,0,0,1.5352,Diorite_rect,3,1.535,1,6,0,6,0,1,,,,,,,,,,,,,
666f891be7954cd327824594,TCR,2024-06-24_16h18.57.334,LearnStrategy,2023.2.3,Win32,60.24096386,7,1,8,-0.065740727,0.003703683,1,0,0,1.1027,rock_grid_rect_2,2,09,-1,-1,1.103,-0.14907406,-0.249074088,1,0,0,1.8813,Basalt_rect,2,1.881,1,7,0,7,0,1,,,,,,,,,,,,,
666f891be7954cd327824594,TCR,2024-06-24_16h18.57.334,LearnStrategy,2023.2.3,Win32,60.24096386,7,1,9,-0.040740755,-0.01666666,1,0,0,1.0827,rock_grid_rect_2,6,03,-1,-1,1.083,0.099074116,-0.398148148,1,0,0,2.5507,Peridotite_rect,7,2.551,0,8,0,8,0,1,,,,,,,,,,,,,
666f891be7954cd327824594,TCR,2024-06-24_16h18.57.334,LearnStrategy,2023.2.3,Win32,60.24096386,7,1,10,-0.058333291,-0.018518519,1,0,0,1.5477,rock_grid_rect_2,1,02,-1,-1,1.548,-0.413888896,-0.246296282,1,0,0,2.4195,Andesite_rect,1,2.419,1,9,0,9,0,1,,,,,,,,,,,,,
666f891be7954cd327824594,TCR,2024-06-24_16h18.57.334,LearnStrategy,2023.2.3,Win32,60.24096386,7,1,11,-0.010185171,0.014814801,1,0,0,1.3493,rock_grid_rect_2,7,16,-1,-1,1.349,-0.143518519,-0.411111125,1,0,0,2.1862,Pegmatite_rect,6,2.186,0,10,0,10,0,1,,,,,,,,,,,,,
666f891be7954cd327824594,TCR,2024-06-24_16h18.57.334,LearnStrategy,2023.2.3,Win32,60.24096386,7,1,12,-0.057407379,-0.011111118,1,0,0,1.751,rock_grid_rect_2,2,01,-1,-1,1.751,-0.125925912,-0.229629658,1,0,0,1.1317,Basalt_rect,2,1.132,1,11,0,11,0,1,,,,,,,,,,,,,
666f891be7954cd327824594,TCR,2024-06-24_16h18.57.334,LearnStrategy,2023.2.3,Win32,60.24096386,7,1,13,-0.059259273,-0.011111118,1,0,0,1.2823,rock_grid_rect_2,1,05,-1,-1,1.282,0.087962963,-0.244444459,1,0,0,3.2346,Diorite_rect,3,3.235,0,12,0,12,0,1,,,,,,,,,,,,,
666f891be7954cd327824594,TCR,2024-06-24_16h18.57.334,LearnStrategy,2023.2.3,Win32,60.24096386,7,1,14,-0.098148134,0.022222201,1,0,0,1.3193,rock_grid_rect_2,7,07,-1,-1,1.319,0.09629631,-0.391666695,1,0,0,2.9147,Peridotite_rect,7,2.915,1,13,0,13,0,1,,,,,,,,,,,,,
666f891be7954cd327824594,TCR,2024-06-24_16h18.57.334,LearnStrategy,2023.2.3,Win32,60.24096386,7,1,15,-0.104629587,-0.001851859,1,0,0,1.1823,rock_grid_rect_2,4,08,-1,-1,1.182,0.368518547,-0.25,1,0,0,5.1009,Gabbro_rect,4,5.101,1,14,0,14,0,1,,,,,,,,,,,,,
666f891be7954cd327824594,TCR,2024-06-24_16h18.57.334,LearnStrategy,2023.2.3,Win32,60.24096386,7,1,16,-0.106481481,-0.005555577,1,0,0,1.1347,rock_grid_rect_2,1,09,-1,-1,1.135,-0.137036995,-0.248148176,1,0,0,1.3151,Basalt_rect,2,1.315,0,15,0,15,0,1,,,,,,,,,,,,,
666f891be7954cd327824594,TCR,2024-06-24_16h18.57.334,LearnStrategy,2023.2.3,Win32,60.24096386,7,2,1,,,,,,,,4,01,,,,,,,,,,,7,3.869,0,,,,,,0.078703704,-0.389814801,1,0,0,3.8688,Peridotite_rect,0,0,0,0,1,
666f891be7954cd327824594,TCR,2024-06-24_16h18.57.334,LearnStrategy,2023.2.3,Win32,60.24096386,7,2,2,,,,,,,,7,13,,,,,,,,,,,7,2.217,1,,,,,,0.078703704,-0.389814801,1,0,0,2.217,Peridotite_rect,1,0,1,0,1,
666f891be7954cd327824594,TCR,2024-06-24_16h18.57.334,LearnStrategy,2023.2.3,Win32,60.24096386,7,2,3,,,,,,,,1,04,,,,,,,,,,,1,2.901,1,,,,,,-0.364814794,-0.243518547,1,0,0,2.9014,Andesite_rect,2,0,2,0,1,
666f891be7954cd327824594,TCR,2024-06-24_16h18.57.334,LearnStrategy,2023.2.3,Win32,60.24096386,7,2,4,,,,,,,,2,02,,,,,,,,,,,2,1.334,1,,,,,,-0.175925926,-0.248148176,1,0,0,1.3335,Basalt_rect,3,0,3,0,1,
666f891be7954cd327824594,TCR,2024-06-24_16h18.57.334,LearnStrategy,2023.2.3,Win32,60.24096386,7,2,5,,,,,,,,8,04,,,,,,,,,,,8,1.533,1,,,,,,0.351851852,-0.396296325,1,0,0,1.5333,Pumice_rect,4,0,4,0,1,
666f891be7954cd327824594,TCR,2024-06-24_16h18.57.334,LearnStrategy,2023.2.3,Win32,60.24096386,7,2,6,,,,,,,,6,16,,,,,,,,,,,6,1.252,1,,,,,,-0.137962977,-0.39907406,1,0,0,1.2516,Pegmatite_rect,5,0,5,0,1,
666f891be7954cd327824594,TCR,2024-06-24_16h18.57.334,LearnStrategy,2023.2.3,Win32,60.24096386,7,2,7,,,,,,,,4,14,,,,,,,,,,,4,1.717,1,,,,,,0.386111083,-0.25,1,0,0,1.7174,Gabbro_rect,6,0,6,0,1,
666f891be7954cd327824594,TCR,2024-06-24_16h18.57.334,LearnStrategy,2023.2.3,Win32,60.24096386,7,2,8,,,,,,,,3,02,,,,,,,,,,,3,1.634,1,,,,,,0.146296325,-0.250925912,1,0,0,1.6337,Diorite_rect,7,0,7,0,1,
666f891be7954cd327824594,TCR,2024-06-24_16h18.57.334,LearnStrategy,2023.2.3,Win32,60.24096386,7,2,9,,,,,,,,5,16,,,,,,,,,,,5,1.367,1,,,,,,-0.37962963,-0.412037037,1,0,0,1.3668,Obsidian_rect,8,0,8,0,1,
666f891be7954cd327824594,TCR,2024-06-24_16h18.57.334,LearnStrategy,2023.2.3,Win32,60.24096386,7,2,10,,,,,,,,2,12,,,,,,,,,,,1,2.468,0,,,,,,-0.400000007,-0.249074088,1,0,0,2.4681,Andesite_rect,9,0,9,0,1,
666f891be7954cd327824594,TCR,2024-06-24_16h18.57.334,LearnStrategy,2023.2.3,Win32,60.24096386,7,2,11,,,,,,,,8,02,,,,,,,,,,,8,1.301,1,,,,,,0.412037037,-0.407407407,1,0,0,1.3015,Pumice_rect,10,0,10,0,1,
666f891be7954cd327824594,TCR,2024-06-24_16h18.57.334,LearnStrategy,2023.2.3,Win32,60.24096386,7,2,12,,,,,,,,5,02,,,,,,,,,,,5,1.317,1,,,,,,-0.410185178,-0.398148148,1,0,0,1.3173,Obsidian_rect,11,0,11,0,1,
666f891be7954cd327824594,TCR,2024-06-24_16h18.57.334,LearnStrategy,2023.2.3,Win32,60.24096386,7,2,13,,,,,,,,7,10,,,,,,,,,,,7,2.085,1,,,,,,0.116666653,-0.396296325,1,0,0,2.0854,Peridotite_rect,12,0,12,0,1,
666f891be7954cd327824594,TCR,2024-06-24_16h18.57.334,LearnStrategy,2023.2.3,Win32,60.24096386,7,2,14,,,,,,,,3,13,,,,,,,,,,,3,2.633,1,,,,,,0.104629658,-0.241666653,1,0,0,2.6327,Diorite_rect,13,0,13,0,1,
666f891be7954cd327824594,TCR,2024-06-24_16h18.57.334,LearnStrategy,2023.2.3,Win32,60.24096386,7,2,15,,,,,,,,1,03,,,,,,,,,,,1,2.984,1,,,,,,-0.375925912,-0.241666653,1,0,0,2.9841,Andesite_rect,14,0,14,0,1,
666f891be7954cd327824594,TCR,2024-06-24_16h18.57.334,LearnStrategy,2023.2.3,Win32,60.24096386,7,2,16,,,,,,,,6,11,,,,,,,,,,,6,1.517,1,,,,,,-0.146296254,-0.393518519,1,0,0,1.5175,Pegmatite_rect,15,0,15,0,1,
666f891be7954cd327824594,TCR,2024-06-24_16h18.57.334,LearnStrategy,2023.2.3,Win32,60.24096386,8,1,1,0.041666667,0.015740748,1,0,0,2.4983,rock_grid_rect_2,2,14,-1,-1,2.498,0.378703788,-0.247222265,1,0,0,1.4681,Gabbro_rect,4,1.468,0,0,0,0,0,1,,,,,,,,,,,,,
666f891be7954cd327824594,TCR,2024-06-24_16h18.57.334,LearnStrategy,2023.2.3,Win32,60.24096386,8,1,2,-0.055555556,-0.0074074,1,0,0,1.4598,rock_grid_rect_2,1,10,-1,-1,1.46,-0.365740741,-0.240740741,1,0,0,2.3352,Andesite_rect,1,2.335,1,1,0,1,0,1,,,,,,,,,,,,,
666f891be7954cd327824594,TCR,2024-06-24_16h18.57.334,LearnStrategy,2023.2.3,Win32,60.24096386,8,1,3,-0.092592593,-0.002777771,1,0,0,1.3487,rock_grid_rect_2,1,10,-1,-1,1.349,-0.362037023,-0.251851894,1,0,0,1.3848,Andesite_rect,1,1.385,1,2,0,2,0,1,,,,,,,,,,,,,
666f891be7954cd327824594,TCR,2024-06-24_16h18.57.334,LearnStrategy,2023.2.3,Win32,60.24096386,8,1,4,-0.112037023,-0.012962977,1,0,0,0.9201,rock_grid_rect_2,4,05,-1,-1,0.92,-0.39166666,-0.236111111,1,0,0,1.7961,Andesite_rect,1,1.796,0,3,0,3,0,1,,,,,,,,,,,,,
666f891be7954cd327824594,TCR,2024-06-24_16h18.57.334,LearnStrategy,2023.2.3,Win32,60.24096386,8,1,5,-0.137962977,-0.009259259,1,0,0,1.1658,rock_grid_rect_2,3,14,-1,-1,1.166,0.137962977,-0.237963005,1,0,0,1.3015,Diorite_rect,3,1.302,1,4,0,4,0,1,,,,,,,,,,,,,
666f891be7954cd327824594,TCR,2024-06-24_16h18.57.334,LearnStrategy,2023.2.3,Win32,60.24096386,8,1,6,-0.093518504,0.006481489,1,0,0,1.3013,rock_grid_rect_2,2,09,-1,-1,1.301,-0.121296282,-0.25,1,0,0,1.1145,Basalt_rect,2,1.114,1,5,0,5,0,1,,,,,,,,,,,,,
666f891be7954cd327824594,TCR,2024-06-24_16h18.57.334,LearnStrategy,2023.2.3,Win32,60.24096386,8,1,7,-0.021296254,-0.011111118,1,0,0,1.0693,rock_grid_rect_2,3,09,-1,-1,1.069,0.104629658,-0.241666653,1,0,0,1.6482,Diorite_rect,3,1.648,1,6,0,6,0,1,,,,,,,,,,,,,
666f891be7954cd327824594,TCR,2024-06-24_16h18.57.334,LearnStrategy,2023.2.3,Win32,60.24096386,8,1,8,-0.002777735,0.017592571,1,0,0,0.887,rock_grid_rect_2,4,08,-1,-1,0.887,0.369444529,-0.229629658,1,0,0,2.5302,Gabbro_rect,4,2.53,1,7,0,7,0,1,,,,,,,,,,,,,
666f891be7954cd327824594,TCR,2024-06-24_16h18.57.334,LearnStrategy,2023.2.3,Win32,60.24096386,8,1,9,-0.073148162,-0.010185206,1,0,0,1.1494,rock_grid_rect_2,7,02,-1,-1,1.149,0.14444443,-0.400925954,1,0,0,1.9007,Peridotite_rect,7,1.901,1,8,0,8,0,1,,,,,,,,,,,,,
666f891be7954cd327824594,TCR,2024-06-24_16h18.57.334,LearnStrategy,2023.2.3,Win32,60.24096386,8,1,10,-0.122222194,0.013888889,1,0,0,0.9693,rock_grid_rect_2,6,12,-1,-1,0.969,-0.152777778,-0.381481524,1,0,0,1.8159,Pegmatite_rect,6,1.816,1,9,0,9,0,1,,,,,,,,,,,,,
666f891be7954cd327824594,TCR,2024-06-24_16h18.57.334,LearnStrategy,2023.2.3,Win32,60.24096386,8,1,11,-0.110185199,-0.00462963,1,0,0,1.0016,rock_grid_rect_2,4,05,-1,-1,1.002,0.37037037,-0.23055557,1,0,0,2.7137,Gabbro_rect,4,2.714,1,10,0,10,0,1,,,,,,,,,,,,,
666f891be7954cd327824594,TCR,2024-06-24_16h18.57.334,LearnStrategy,2023.2.3,Win32,60.24096386,8,1,12,-0.046296296,0.001851859,1,0,0,0.9479,rock_grid_rect_2,1,10,-1,-1,0.948,-0.381481489,-0.237963005,1,0,0,2.635,Andesite_rect,1,2.635,1,11,0,11,0,1,,,,,,,,,,,,,
666f891be7954cd327824594,TCR,2024-06-24_16h18.57.334,LearnStrategy,2023.2.3,Win32,60.24096386,8,1,13,-0.02407406,-0.002777771,1,0,0,1.0988,rock_grid_rect_2,2,01,-1,-1,1.099,-0.135185171,-0.250925912,1,0,0,1.7014,Basalt_rect,2,1.701,1,12,0,12,0,1,,,,,,,,,,,,,
666f891be7954cd327824594,TCR,2024-06-24_16h18.57.334,LearnStrategy,2023.2.3,Win32,60.24096386,8,1,14,0.037962949,-0.009259259,1,0,0,0.7825,rock_grid_rect_2,5,09,-1,-1,0.783,-0.349074081,-0.396296325,1,0,0,2.4679,Obsidian_rect,5,2.468,1,13,0,13,0,1,,,,,,,,,,,,,
666f891be7954cd327824594,TCR,2024-06-24_16h18.57.334,LearnStrategy,2023.2.3,Win32,60.24096386,8,1,15,-0.084259245,-0.002777771,1,0,0,0.9693,rock_grid_rect_2,8,16,-1,-1,0.969,0.396296325,-0.389814801,1,0,0,1.981,Pumice_rect,8,1.981,1,14,0,14,0,1,,,,,,,,,,,,,
666f891be7954cd327824594,TCR,2024-06-24_16h18.57.334,LearnStrategy,2023.2.3,Win32,60.24096386,8,1,16,-0.111111111,-0.0074074,1,0,0,0.9317,rock_grid_rect_2,7,06,-1,-1,0.932,0.084259245,-0.392592607,1,0,0,2.2518,Peridotite_rect,7,2.252,1,15,0,15,0,1,,,,,,,,,,,,,
666f891be7954cd327824594,TCR,2024-06-24_16h18.57.334,LearnStrategy,2023.2.3,Win32,60.24096386,8,2,1,,,,,,,,3,16,,,,,,,,,,,3,1.55,1,,,,,,0.099074116,-0.241666653,1,0,0,1.5503,Diorite_rect,0,0,0,0,1,
666f891be7954cd327824594,TCR,2024-06-24_16h18.57.334,LearnStrategy,2023.2.3,Win32,60.24096386,8,2,2,,,,,,,,5,06,,,,,,,,,,,5,1.751,1,,,,,,-0.434259238,-0.384259259,1,0,0,1.7512,Obsidian_rect,1,0,1,0,1,
666f891be7954cd327824594,TCR,2024-06-24_16h18.57.334,LearnStrategy,2023.2.3,Win32,60.24096386,8,2,3,,,,,,,,6,15,,,,,,,,,,,6,1.583,1,,,,,,-0.171296296,-0.413888931,1,0,0,1.5832,Pegmatite_rect,2,0,2,0,1,
666f891be7954cd327824594,TCR,2024-06-24_16h18.57.334,LearnStrategy,2023.2.3,Win32,60.24096386,8,2,4,,,,,,,,1,07,,,,,,,,,,,1,2.067,1,,,,,,-0.323148127,-0.235185199,1,0,0,2.0674,Andesite_rect,3,0,3,0,1,
666f891be7954cd327824594,TCR,2024-06-24_16h18.57.334,LearnStrategy,2023.2.3,Win32,60.24096386,8,2,5,,,,,,,,5,07,,,,,,,,,,,5,1.217,1,,,,,,-0.339814822,-0.398148148,1,0,0,1.2172,Obsidian_rect,4,0,4,0,1,
666f891be7954cd327824594,TCR,2024-06-24_16h18.57.334,LearnStrategy,2023.2.3,Win32,60.24096386,8,2,6,,,,,,,,2,16,,,,,,,,,,,4,3.501,0,,,,,,0.387963048,-0.241666653,1,0,0,3.5008,Gabbro_rect,5,0,5,0,1,
666f891be7954cd327824594,TCR,2024-06-24_16h18.57.334,LearnStrategy,2023.2.3,Win32,60.24096386,8,2,7,,,,,,,,8,05,,,,,,,,,,,8,1.451,1,,,,,,0.394444501,-0.393518519,1,0,0,1.4509,Pumice_rect,6,0,6,0,1,
666f891be7954cd327824594,TCR,2024-06-24_16h18.57.334,LearnStrategy,2023.2.3,Win32,60.24096386,8,2,8,,,,,,,,2,11,,,,,,,,,,,1,5.384,0,,,,,,-0.398148148,-0.238888917,1,0,0,5.3841,Andesite_rect,7,0,7,0,1,
666f891be7954cd327824594,TCR,2024-06-24_16h18.57.334,LearnStrategy,2023.2.3,Win32,60.24096386,8,2,9,,,,,,,,8,14,,,,,,,,,,,8,1.433,1,,,,,,0.390740712,-0.390740783,1,0,0,1.4331,Pumice_rect,8,0,8,0,1,
666f891be7954cd327824594,TCR,2024-06-24_16h18.57.334,LearnStrategy,2023.2.3,Win32,60.24096386,8,2,10,,,,,,,,7,14,,,,,,,,,,,7,1.632,1,,,,,,0.165740755,-0.397222236,1,0,0,1.6322,Peridotite_rect,9,0,9,0,1,
666f891be7954cd327824594,TCR,2024-06-24_16h18.57.334,LearnStrategy,2023.2.3,Win32,60.24096386,8,2,11,,,,,,,,6,07,,,,,,,,,,,6,1.417,1,,,,,,-0.094444416,-0.397222236,1,0,0,1.4172,Pegmatite_rect,10,0,10,0,1,
666f891be7954cd327824594,TCR,2024-06-24_16h18.57.334,LearnStrategy,2023.2.3,Win32,60.24096386,8,2,12,,,,,,,,7,05,,,,,,,,,,,4,3.534,0,,,,,,0.388888889,-0.246296282,1,0,0,3.5342,Gabbro_rect,11,0,11,0,1,
666f891be7954cd327824594,TCR,2024-06-24_16h18.57.334,LearnStrategy,2023.2.3,Win32,60.24096386,8,2,13,,,,,,,,3,11,,,,,,,,,,,3,1.684,1,,,,,,0.150925954,-0.25462963,1,0,0,1.6837,Diorite_rect,12,0,12,0,1,
666f891be7954cd327824594,TCR,2024-06-24_16h18.57.334,LearnStrategy,2023.2.3,Win32,60.24096386,8,2,14,,,,,,,,4,10,,,,,,,,,,,4,1.934,1,,,,,,0.381481453,-0.235185199,1,0,0,1.9339,Gabbro_rect,13,0,13,0,1,
666f891be7954cd327824594,TCR,2024-06-24_16h18.57.334,LearnStrategy,2023.2.3,Win32,60.24096386,8,2,15,,,,,,,,1,16,,,,,,,,,,,1,1.8,1,,,,,,-0.348148134,-0.253703718,1,0,0,1.8002,Andesite_rect,14,0,14,0,1,
666f891be7954cd327824594,TCR,2024-06-24_16h18.57.334,LearnStrategy,2023.2.3,Win32,60.24096386,8,2,16,,,,,,,,4,16,,,,,,,,,,,2,2.769,0,,,,,,-0.174074032,-0.25462963,1,0,0,2.7686,Basalt_rect,15,0,15,0,1,
666f891be7954cd327824594,TCR,2024-06-24_16h18.57.334,LearnStrategy,2023.2.3,Win32,60.24096386,9,1,1,-0.02870369,-0.017592607,1,0,0,1.2987,rock_grid_rect_2,4,05,-1,-1,1.299,0.402777778,-0.23055557,1,0,0,2.4514,Gabbro_rect,4,2.451,1,0,0,0,0,1,,,,,,,,,,,,,
666f891be7954cd327824594,TCR,2024-06-24_16h18.57.334,LearnStrategy,2023.2.3,Win32,60.24096386,9,1,2,-0.071296268,0.003703683,1,0,0,1.0488,rock_grid_rect_2,5,04,-1,-1,1.049,-0.392592571,-0.380555541,1,0,0,1.4854,Obsidian_rect,5,1.485,1,1,0,1,0,1,,,,,,,,,,,,,
666f891be7954cd327824594,TCR,2024-06-24_16h18.57.334,LearnStrategy,2023.2.3,Win32,60.24096386,9,1,3,-0.101851852,0.002777771,1,0,0,0.9176,rock_grid_rect_2,3,14,-1,-1,0.918,0.116666653,-0.241666653,1,0,0,1.5156,Diorite_rect,3,1.516,1,2,0,2,0,1,,,,,,,,,,,,,
666f891be7954cd327824594,TCR,2024-06-24_16h18.57.334,LearnStrategy,2023.2.3,Win32,60.24096386,9,1,4,-0.068518533,0.012962942,1,0,0,1.3323,rock_grid_rect_2,6,10,-1,-1,1.332,0.156481496,-0.401851866,1,0,0,1.6515,Peridotite_rect,7,1.652,0,3,0,3,0,1,,,,,,,,,,,,,
666f891be7954cd327824594,TCR,2024-06-24_16h18.57.334,LearnStrategy,2023.2.3,Win32,60.24096386,9,1,5,-0.079629616,0.00462963,1,0,0,1.149,rock_grid_rect_2,2,01,-1,-1,1.149,-0.137962977,-0.248148176,1,0,0,1.6849,Basalt_rect,2,1.685,1,4,0,4,0,1,,,,,,,,,,,,,
666f891be7954cd327824594,TCR,2024-06-24_16h18.57.334,LearnStrategy,2023.2.3,Win32,60.24096386,9,1,6,-0.050000014,0.018518519,1,0,0,1.0322,rock_grid_rect_2,7,08,-1,-1,1.032,0.087037051,-0.395370413,1,0,0,1.9181,Peridotite_rect,7,1.918,1,5,0,5,0,1,,,,,,,,,,,,,
666f891be7954cd327824594,TCR,2024-06-24_16h18.57.334,LearnStrategy,2023.2.3,Win32,60.24096386,9,1,7,-0.116666653,0.005555541,1,0,0,1.4149,rock_grid_rect_2,2,04,-1,-1,1.415,-0.152777778,-0.238888917,1,0,0,1.3505,Basalt_rect,2,1.351,1,6,0,6,0,1,,,,,,,,,,,,,
666f891be7954cd327824594,TCR,2024-06-24_16h18.57.334,LearnStrategy,2023.2.3,Win32,60.24096386,9,1,8,0.038888931,0.005555541,1,0,0,0.9652,rock_grid_rect_2,4,13,-1,-1,0.965,0.371296353,-0.228703746,1,0,0,1.9172,Gabbro_rect,4,1.917,1,7,0,7,0,1,,,,,,,,,,,,,
666f891be7954cd327824594,TCR,2024-06-24_16h18.57.334,LearnStrategy,2023.2.3,Win32,60.24096386,9,1,9,-0.087037051,0.001851859,1,0,0,0.9322,rock_grid_rect_2,3,06,-1,-1,0.932,0.125,-0.251851894,1,0,0,1.4022,Diorite_rect,3,1.402,1,8,0,8,0,1,,,,,,,,,,,,,
666f891be7954cd327824594,TCR,2024-06-24_16h18.57.334,LearnStrategy,2023.2.3,Win32,60.24096386,9,1,10,-0.064814815,0.014814801,1,0,0,0.7821,rock_grid_rect_2,7,08,-1,-1,0.782,0.102777764,-0.397222236,1,0,0,1.9347,Peridotite_rect,7,1.935,1,9,0,9,0,1,,,,,,,,,,,,,
666f891be7954cd327824594,TCR,2024-06-24_16h18.57.334,LearnStrategy,2023.2.3,Win32,60.24096386,9,1,11,-0.114814829,0.002777771,1,0,0,0.9813,rock_grid_rect_2,1,05,-1,-1,0.981,-0.385185171,-0.23055557,1,0,0,1.602,Andesite_rect,1,1.602,1,10,0,10,0,1,,,,,,,,,,,,,
666f891be7954cd327824594,TCR,2024-06-24_16h18.57.334,LearnStrategy,2023.2.3,Win32,60.24096386,9,1,12,0.01944443,-0.003703718,1,0,0,0.8982,rock_grid_rect_2,1,10,-1,-1,0.898,-0.40370369,-0.249074088,1,0,0,1.6852,Andesite_rect,1,1.685,1,11,0,11,0,1,,,,,,,,,,,,,
666f891be7954cd327824594,TCR,2024-06-24_16h18.57.334,LearnStrategy,2023.2.3,Win32,60.24096386,9,1,13,0.005555541,0.00462963,1,0,0,0.8194,rock_grid_rect_2,8,03,-1,-1,0.819,0.429629714,-0.39907406,1,0,0,1.6316,Pumice_rect,8,1.632,1,12,0,12,0,1,,,,,,,,,,,,,
666f891be7954cd327824594,TCR,2024-06-24_16h18.57.334,LearnStrategy,2023.2.3,Win32,60.24096386,9,1,14,-0.039814772,0.005555541,1,0,0,0.7651,rock_grid_rect_2,4,05,-1,-1,0.765,0.383333418,-0.242592635,1,0,0,2.4176,Gabbro_rect,4,2.418,1,13,0,13,0,1,,,,,,,,,,,,,
666f891be7954cd327824594,TCR,2024-06-24_16h18.57.334,LearnStrategy,2023.2.3,Win32,60.24096386,9,1,15,-0.064814815,0.020370377,1,0,0,0.8303,rock_grid_rect_2,2,09,-1,-1,0.83,-0.125925912,-0.262037065,1,0,0,1.1514,Basalt_rect,2,1.151,1,14,0,14,0,1,,,,,,,,,,,,,
666f891be7954cd327824594,TCR,2024-06-24_16h18.57.334,LearnStrategy,2023.2.3,Win32,60.24096386,9,1,16,-0.018518519,-0.008333347,1,0,0,0.9158,rock_grid_rect_2,2,14,-1,-1,0.916,0.398148148,-0.262962977,1,0,0,1.6354,Gabbro_rect,4,1.635,0,15,0,15,0,1,,,,,,,,,,,,,
666f891be7954cd327824594,TCR,2024-06-24_16h18.57.334,LearnStrategy,2023.2.3,Win32,60.24096386,9,2,1,,,,,,,,5,08,,,,,,,,,,,5,1.268,1,,,,,,-0.443518497,-0.408333319,1,0,0,1.2682,Obsidian_rect,0,0,0,0,1,
666f891be7954cd327824594,TCR,2024-06-24_16h18.57.334,LearnStrategy,2023.2.3,Win32,60.24096386,9,2,2,,,,,,,,4,12,,,,,,,,,,,2,5.915,0,,,,,,-0.134259259,-0.248148176,1,0,0,5.9147,Basalt_rect,1,0,1,0,1,
666f891be7954cd327824594,TCR,2024-06-24_16h18.57.334,LearnStrategy,2023.2.3,Win32,60.24096386,9,2,3,,,,,,,,2,10,,,,,,,,,,,5,1.613,0,,,,,,-0.418518526,-0.412037037,1,0,0,1.6133,Obsidian_rect,2,0,2,0,1,
666f891be7954cd327824594,TCR,2024-06-24_16h18.57.334,LearnStrategy,2023.2.3,Win32,60.24096386,9,2,4,,,,,,,,3,12,,,,,,,,,,,3,1.769,1,,,,,,0.122222265,-0.232407393,1,0,0,1.7687,Diorite_rect,3,0,3,0,1,
666f891be7954cd327824594,TCR,2024-06-24_16h18.57.334,LearnStrategy,2023.2.3,Win32,60.24096386,9,2,5,,,,,,,,1,11,,,,,,,,,,,1,1.45,1,,,,,,-0.37962963,-0.252777806,1,0,0,1.4504,Andesite_rect,4,0,4,0,1,
666f891be7954cd327824594,TCR,2024-06-24_16h18.57.334,LearnStrategy,2023.2.3,Win32,60.24096386,9,2,6,,,,,,,,4,11,,,,,,,,,,,2,1.302,0,,,,,,-0.138888889,-0.261111153,1,0,0,1.3019,Basalt_rect,5,0,5,0,1,
666f891be7954cd327824594,TCR,2024-06-24_16h18.57.334,LearnStrategy,2023.2.3,Win32,60.24096386,9,2,7,,,,,,,,5,11,,,,,,,,,,,5,1.202,1,,,,,,-0.37037037,-0.400925954,1,0,0,1.2016,Obsidian_rect,6,0,6,0,1,
666f891be7954cd327824594,TCR,2024-06-24_16h18.57.334,LearnStrategy,2023.2.3,Win32,60.24096386,9,2,8,,,,,,,,8,08,,,,,,,,,,,8,1.835,1,,,,,,0.344444416,-0.396296325,1,0,0,1.8348,Pumice_rect,7,0,7,0,1,
666f891be7954cd327824594,TCR,2024-06-24_16h18.57.334,LearnStrategy,2023.2.3,Win32,60.24096386,9,2,9,,,,,,,,6,13,,,,,,,,,,,6,1.351,1,,,,,,-0.138888889,-0.402777778,1,0,0,1.351,Pegmatite_rect,8,0,8,0,1,
666f891be7954cd327824594,TCR,2024-06-24_16h18.57.334,LearnStrategy,2023.2.3,Win32,60.24096386,9,2,10,,,,,,,,2,05,,,,,,,,,,,2,4.233,1,,,,,,-0.134259259,-0.241666653,1,0,0,4.2331,Basalt_rect,9,0,9,0,1,
666f891be7954cd327824594,TCR,2024-06-24_16h18.57.334,LearnStrategy,2023.2.3,Win32,60.24096386,9,2,11,,,,,,,,6,09,,,,,,,,,,,6,1.496,1,,,,,,-0.145370342,-0.391666695,1,0,0,1.4957,Pegmatite_rect,10,0,10,0,1,
666f891be7954cd327824594,TCR,2024-06-24_16h18.57.334,LearnStrategy,2023.2.3,Win32,60.24096386,9,2,12,,,,,,,,7,04,,,,,,,,,,,7,2.234,1,,,,,,0.099074116,-0.414814843,1,0,0,2.2344,Peridotite_rect,11,0,11,0,1,
666f891be7954cd327824594,TCR,2024-06-24_16h18.57.334,LearnStrategy,2023.2.3,Win32,60.24096386,9,2,13,,,,,,,,3,07,,,,,,,,,,,3,1.368,1,,,,,,0.102777764,-0.251851894,1,0,0,1.3677,Diorite_rect,12,0,12,0,1,
666f891be7954cd327824594,TCR,2024-06-24_16h18.57.334,LearnStrategy,2023.2.3,Win32,60.24096386,9,2,14,,,,,,,,1,14,,,,,,,,,,,6,3.701,0,,,,,,-0.170370384,-0.39907406,1,0,0,3.7012,Pegmatite_rect,13,0,13,0,1,
666f891be7954cd327824594,TCR,2024-06-24_16h18.57.334,LearnStrategy,2023.2.3,Win32,60.24096386,9,2,15,,,,,,,,7,12,,,,,,,,,,,6,6.896,0,,,,,,-0.104629587,-0.401851866,1,0,0,6.8957,Pegmatite_rect,14,0,14,0,1,
666f891be7954cd327824594,TCR,2024-06-24_16h18.57.334,LearnStrategy,2023.2.3,Win32,60.24096386,9,2,16,,,,,,,,8,15,,,,,,,,,,,8,1.295,1,,,,,,0.45185188,-0.387962977,1,0,0,1.2946,Pumice_rect,15,0,15,0,1,
666f891be7954cd327824594,TCR,2024-06-24_16h18.57.334,LearnStrategy,2023.2.3,Win32,60.24096386,,,,,,,,,,,,,,,,,,,,,,,,,,,,,,,,,,,,,,,,,,,1
666f891be7954cd327824594,TCR,2024-06-24_16h18.57.334,LearnStrategy,2023.2.3,Win32,60.24096386,,,,,,,,,,,,,,,,,,,,,,,,,,,,,,,,,,,,,,,,,,,
666f891be7954cd327824594,TCR,2024-06-24_16h18.57.334,LearnStrategy,2023.2.3,Win32,60.24096386,,,,,,,,,,,7,06,1,1,,,,,,,,,,,,,,,,,,,,,,,,,,,,,
666f891be7954cd327824594,TCR,2024-06-24_16h18.57.334,LearnStrategy,2023.2.3,Win32,60.24096386,,,,,,,,,,,3,15,1,2,,,,,,,,,,,,,,,,,,,,,,,,,,,,,
666f891be7954cd327824594,TCR,2024-06-24_16h18.57.334,LearnStrategy,2023.2.3,Win32,60.24096386,,,,,,,,,,,3,09,1,3,,,,,,,,,,,,,,,,,,,,,,,,,,,,,
666f891be7954cd327824594,TCR,2024-06-24_16h18.57.334,LearnStrategy,2023.2.3,Win32,60.24096386,,,,,,,,,,,2,06,1,4,,,,,,,,,,,,,,,,,,,,,,,,,,,,,
666f891be7954cd327824594,TCR,2024-06-24_16h18.57.334,LearnStrategy,2023.2.3,Win32,60.24096386,,,,,,,,,,,8,16,1,5,,,,,,,,,,,,,,,,,,,,,,,,,,,,,
666f891be7954cd327824594,TCR,2024-06-24_16h18.57.334,LearnStrategy,2023.2.3,Win32,60.24096386,,,,,,,,,,,6,12,1,6,,,,,,,,,,,,,,,,,,,,,,,,,,,,,
666f891be7954cd327824594,TCR,2024-06-24_16h18.57.334,LearnStrategy,2023.2.3,Win32,60.24096386,,,,,,,,,,,1,10,1,7,,,,,,,,,,,,,,,,,,,,,,,,,,,,,
666f891be7954cd327824594,TCR,2024-06-24_16h18.57.334,LearnStrategy,2023.2.3,Win32,60.24096386,,,,,,,,,,,1,09,1,8,,,,,,,,,,,,,,,,,,,,,,,,,,,,,
666f891be7954cd327824594,TCR,2024-06-24_16h18.57.334,LearnStrategy,2023.2.3,Win32,60.24096386,,,,,,,,,,,8,03,2,1,,,,,,,,,,,,,,,,,,,,,,,,,,,,,
666f891be7954cd327824594,TCR,2024-06-24_16h18.57.334,LearnStrategy,2023.2.3,Win32,60.24096386,,,,,,,,,,,5,12,2,2,,,,,,,,,,,,,,,,,,,,,,,,,,,,,
666f891be7954cd327824594,TCR,2024-06-24_16h18.57.334,LearnStrategy,2023.2.3,Win32,60.24096386,,,,,,,,,,,8,06,2,3,,,,,,,,,,,,,,,,,,,,,,,,,,,,,
666f891be7954cd327824594,TCR,2024-06-24_16h18.57.334,LearnStrategy,2023.2.3,Win32,60.24096386,,,,,,,,,,,2,14,2,4,,,,,,,,,,,,,,,,,,,,,,,,,,,,,
666f891be7954cd327824594,TCR,2024-06-24_16h18.57.334,LearnStrategy,2023.2.3,Win32,60.24096386,,,,,,,,,,,4,08,2,5,,,,,,,,,,,,,,,,,,,,,,,,,,,,,
666f891be7954cd327824594,TCR,2024-06-24_16h18.57.334,LearnStrategy,2023.2.3,Win32,60.24096386,,,,,,,,,,,4,09,2,6,,,,,,,,,,,,,,,,,,,,,,,,,,,,,
666f891be7954cd327824594,TCR,2024-06-24_16h18.57.334,LearnStrategy,2023.2.3,Win32,60.24096386,,,,,,,,,,,5,14,2,7,,,,,,,,,,,,,,,,,,,,,,,,,,,,,
666f891be7954cd327824594,TCR,2024-06-24_16h18.57.334,LearnStrategy,2023.2.3,Win32,60.24096386,,,,,,,,,,,6,03,2,8,,,,,,,,,,,,,,,,,,,,,,,,,,,,,
666f891be7954cd327824594,TCR,2024-06-24_16h18.57.334,LearnStrategy,2023.2.3,Win32,60.24096386,,,,,,,,,,,3,10,3,1,,,,,,,,,,,,,,,,,,,,,,,,,,,,,
666f891be7954cd327824594,TCR,2024-06-24_16h18.57.334,LearnStrategy,2023.2.3,Win32,60.24096386,,,,,,,,,,,7,02,3,2,,,,,,,,,,,,,,,,,,,,,,,,,,,,,
666f891be7954cd327824594,TCR,2024-06-24_16h18.57.334,LearnStrategy,2023.2.3,Win32,60.24096386,,,,,,,,,,,7,15,3,3,,,,,,,,,,,,,,,,,,,,,,,,,,,,,
666f891be7954cd327824594,TCR,2024-06-24_16h18.57.334,LearnStrategy,2023.2.3,Win32,60.24096386,,,,,,,,,,,1,06,3,4,,,,,,,,,,,,,,,,,,,,,,,,,,,,,
666f891be7954cd327824594,TCR,2024-06-24_16h18.57.334,LearnStrategy,2023.2.3,Win32,60.24096386,,,,,,,,,,,4,03,3,5,,,,,,,,,,,,,,,,,,,,,,,,,,,,,
666f891be7954cd327824594,TCR,2024-06-24_16h18.57.334,LearnStrategy,2023.2.3,Win32,60.24096386,,,,,,,,,,,5,09,3,6,,,,,,,,,,,,,,,,,,,,,,,,,,,,,
666f891be7954cd327824594,TCR,2024-06-24_16h18.57.334,LearnStrategy,2023.2.3,Win32,60.24096386,,,,,,,,,,,8,09,3,7,,,,,,,,,,,,,,,,,,,,,,,,,,,,,
666f891be7954cd327824594,TCR,2024-06-24_16h18.57.334,LearnStrategy,2023.2.3,Win32,60.24096386,,,,,,,,,,,6,10,3,8,,,,,,,,,,,,,,,,,,,,,,,,,,,,,
666f891be7954cd327824594,TCR,2024-06-24_16h18.57.334,LearnStrategy,2023.2.3,Win32,60.24096386,,,,,,,,,,,8,10,4,1,,,,,,,,,,,,,,,,,,,,,,,,,,,,,
666f891be7954cd327824594,TCR,2024-06-24_16h18.57.334,LearnStrategy,2023.2.3,Win32,60.24096386,,,,,,,,,,,5,04,4,2,,,,,,,,,,,,,,,,,,,,,,,,,,,,,
666f891be7954cd327824594,TCR,2024-06-24_16h18.57.334,LearnStrategy,2023.2.3,Win32,60.24096386,,,,,,,,,,,1,05,4,3,,,,,,,,,,,,,,,,,,,,,,,,,,,,,
666f891be7954cd327824594,TCR,2024-06-24_16h18.57.334,LearnStrategy,2023.2.3,Win32,60.24096386,,,,,,,,,,,4,05,4,4,,,,,,,,,,,,,,,,,,,,,,,,,,,,,
666f891be7954cd327824594,TCR,2024-06-24_16h18.57.334,LearnStrategy,2023.2.3,Win32,60.24096386,,,,,,,,,,,6,05,4,5,,,,,,,,,,,,,,,,,,,,,,,,,,,,,
666f891be7954cd327824594,TCR,2024-06-24_16h18.57.334,LearnStrategy,2023.2.3,Win32,60.24096386,,,,,,,,,,,7,07,4,6,,,,,,,,,,,,,,,,,,,,,,,,,,,,,
666f891be7954cd327824594,TCR,2024-06-24_16h18.57.334,LearnStrategy,2023.2.3,Win32,60.24096386,,,,,,,,,,,3,08,4,7,,,,,,,,,,,,,,,,,,,,,,,,,,,,,
666f891be7954cd327824594,TCR,2024-06-24_16h18.57.334,LearnStrategy,2023.2.3,Win32,60.24096386,,,,,,,,,,,1,01,4,8,,,,,,,,,,,,,,,,,,,,,,,,,,,,,
666f891be7954cd327824594,TCR,2024-06-24_16h18.57.334,LearnStrategy,2023.2.3,Win32,60.24096386,,,,,,,,,,,4,13,5,1,,,,,,,,,,,,,,,,,,,,,,,,,,,,,
666f891be7954cd327824594,TCR,2024-06-24_16h18.57.334,LearnStrategy,2023.2.3,Win32,60.24096386,,,,,,,,,,,7,16,5,2,,,,,,,,,,,,,,,,,,,,,,,,,,,,,
666f891be7954cd327824594,TCR,2024-06-24_16h18.57.334,LearnStrategy,2023.2.3,Win32,60.24096386,,,,,,,,,,,2,09,5,3,,,,,,,,,,,,,,,,,,,,,,,,,,,,,
666f891be7954cd327824594,TCR,2024-06-24_16h18.57.334,LearnStrategy,2023.2.3,Win32,60.24096386,,,,,,,,,,,1,02,5,4,,,,,,,,,,,,,,,,,,,,,,,,,,,,,
666f891be7954cd327824594,TCR,2024-06-24_16h18.57.334,LearnStrategy,2023.2.3,Win32,60.24096386,,,,,,,,,,,5,10,5,5,,,,,,,,,,,,,,,,,,,,,,,,,,,,,
666f891be7954cd327824594,TCR,2024-06-24_16h18.57.334,LearnStrategy,2023.2.3,Win32,60.24096386,,,,,,,,,,,2,01,5,6,,,,,,,,,,,,,,,,,,,,,,,,,,,,,
666f891be7954cd327824594,TCR,2024-06-24_16h18.57.334,LearnStrategy,2023.2.3,Win32,60.24096386,,,,,,,,,,,4,15,5,7,,,,,,,,,,,,,,,,,,,,,,,,,,,,,
666f891be7954cd327824594,TCR,2024-06-24_16h18.57.334,LearnStrategy,2023.2.3,Win32,60.24096386,,,,,,,,,,,2,04,5,8,,,,,,,,,,,,,,,,,,,,,,,,,,,,,
666f891be7954cd327824594,TCR,2024-06-24_16h18.57.334,LearnStrategy,2023.2.3,Win32,60.24096386,,,,,,,,,,,6,06,6,1,,,,,,,,,,,,,,,,,,,,,,,,,,,,,
666f891be7954cd327824594,TCR,2024-06-24_16h18.57.334,LearnStrategy,2023.2.3,Win32,60.24096386,,,,,,,,,,,5,05,6,2,,,,,,,,,,,,,,,,,,,,,,,,,,,,,
666f891be7954cd327824594,TCR,2024-06-24_16h18.57.334,LearnStrategy,2023.2.3,Win32,60.24096386,,,,,,,,,,,2,08,6,3,,,,,,,,,,,,,,,,,,,,,,,,,,,,,
666f891be7954cd327824594,TCR,2024-06-24_16h18.57.334,LearnStrategy,2023.2.3,Win32,60.24096386,,,,,,,,,,,6,08,6,4,,,,,,,,,,,,,,,,,,,,,,,,,,,,,
666f891be7954cd327824594,TCR,2024-06-24_16h18.57.334,LearnStrategy,2023.2.3,Win32,60.24096386,,,,,,,,,,,7,08,6,5,,,,,,,,,,,,,,,,,,,,,,,,,,,,,
666f891be7954cd327824594,TCR,2024-06-24_16h18.57.334,LearnStrategy,2023.2.3,Win32,60.24096386,,,,,,,,,,,8,13,6,6,,,,,,,,,,,,,,,,,,,,,,,,,,,,,
666f891be7954cd327824594,TCR,2024-06-24_16h18.57.334,LearnStrategy,2023.2.3,Win32,60.24096386,,,,,,,,,,,3,06,6,7,,,,,,,,,,,,,,,,,,,,,,,,,,,,,
666f891be7954cd327824594,TCR,2024-06-24_16h18.57.334,LearnStrategy,2023.2.3,Win32,60.24096386,,,,,,,,,,,3,14,6,8,,,,,,,,,,,,,,,,,,,,,,,,,,,,,