participant,condition,date,expName,psychopyVersion,OS,frameRate,block,phase,trial,learn_mouse.x,learn_mouse.y,learn_mouse.leftButton,learn_mouse.midButton,learn_mouse.rightButton,learn_mouse.time,learn_mouse.clicked_name,cat,token,row,col,t_select,cat_rec,token_rec,cat_mouse_l.x,cat_mouse_l.y,cat_mouse_l.leftButton,cat_mouse_l.midButton,cat_mouse_l.rightButton,cat_mouse_l.time,cat_mouse_l.clicked_name,resp,t_resp,corr,train_trials.thisRepN,train_trials.thisTrialN,train_trials.thisN,train_trials.thisIndex,train_trials.ran,cat_mouse_t.x,cat_mouse_t.y,cat_mouse_t.leftButton,cat_mouse_t.midButton,cat_mouse_t.rightButton,cat_mouse_t.time,cat_mouse_t.clicked_name,test_trials.thisRepN,test_trials.thisTrialN,test_trials.thisN,test_trials.thisIndex,test_trials.ran,Bonus
6672bf56d51710391ce2164d,SCR,2024-06-25_14h23.05.095,LearnStrategy,2023.2.3,Win32,15.01501502,,,,,,,,,,,,,,,,,,,,,,,,,,,,,,,,,,,,,,,,,,,,,
6672bf56d51710391ce2164d,SCR,2024-06-25_14h23.05.095,LearnStrategy,2023.2.3,Win32,15.01501502,1,1,1,-0.583125,0.40375,1,0,0,6.6559,Obsidian_10,5,10,6,1,6.656,7,07,-0.14,-0.249375,1,0,0,21.6157,Basalt_rect,2,21.616,0,0,0,0,0,1,,,,,,,,,,,,,
6672bf56d51710391ce2164d,SCR,2024-06-25_14h23.05.095,LearnStrategy,2023.2.3,Win32,15.01501502,1,1,2,-0.564375,0.411875,1,0,0,1.6129,Obsidian_10,5,10,6,1,1.613,1,06,-0.40625,-0.419375,1,0,0,2.2749,Obsidian_rect,5,2.275,1,1,0,1,0,1,,,,,,,,,,,,,
6672bf56d51710391ce2164d,SCR,2024-06-25_14h23.05.095,LearnStrategy,2023.2.3,Win32,15.01501502,1,1,3,-0.409375,0.411875,1,0,0,2.4804,Obsidian_14,5,14,6,2,2.48,7,14,-0.15375,-0.408125,1,0,0,3.9154,Pegmatite_rect,6,3.915,0,2,0,2,0,1,,,,,,,,,,,,,
6672bf56d51710391ce2164d,SCR,2024-06-25_14h23.05.095,LearnStrategy,2023.2.3,Win32,15.01501502,1,1,4,-0.39125,0.40375,1,0,0,2.1472,Obsidian_14,5,14,6,2,2.147,3,07,-0.37625,-0.42,1,0,0,1.7137,Obsidian_rect,5,1.714,1,3,0,3,0,1,,,,,,,,,,,,,
6672bf56d51710391ce2164d,SCR,2024-06-25_14h23.05.095,LearnStrategy,2023.2.3,Win32,15.01501502,1,1,5,-0.235,0.101875,1,0,0,1.6808,Obsidian_12,5,12,4,3,1.681,8,04,-0.42375,-0.395,1,0,0,1.5001,Obsidian_rect,5,1.5,1,4,0,4,0,1,,,,,,,,,,,,,
6672bf56d51710391ce2164d,SCR,2024-06-25_14h23.05.095,LearnStrategy,2023.2.3,Win32,15.01501502,1,1,6,-0.573125,-0.12625,1,0,0,1.2872,Obsidian_11,5,11,3,1,1.287,4,03,-0.3775,-0.41125,1,0,0,1.1898,Obsidian_rect,5,1.19,1,5,0,5,0,1,,,,,,,,,,,,,
6672bf56d51710391ce2164d,SCR,2024-06-25_14h23.05.095,LearnStrategy,2023.2.3,Win32,15.01501502,1,1,7,-0.241875,0.43375,1,0,0,7.266,Basalt_12,2,12,6,3,7.266,6,12,-0.110625,-0.24625,1,0,0,2.695,Basalt_rect,2,2.695,1,6,0,6,0,1,,,,,,,,,,,,,
6672bf56d51710391ce2164d,SCR,2024-06-25_14h23.05.095,LearnStrategy,2023.2.3,Win32,15.01501502,1,1,8,-0.24,0.26125,1,0,0,2.3368,Gabbro_08,4,08,5,3,2.337,8,03,-0.14625,-0.2375,1,0,0,1.5362,Basalt_rect,2,1.536,0,7,0,7,0,1,,,,,,,,,,,,,
6672bf56d51710391ce2164d,SCR,2024-06-25_14h23.05.095,LearnStrategy,2023.2.3,Win32,15.01501502,1,1,9,-0.43375,0.26625,1,0,0,3.2499,Peridotite_07,7,07,5,2,3.25,1,05,-0.155625,-0.246875,1,0,0,2.7806,Basalt_rect,2,2.781,0,8,0,8,0,1,,,,,,,,,,,,,
6672bf56d51710391ce2164d,SCR,2024-06-25_14h23.05.095,LearnStrategy,2023.2.3,Win32,15.01501502,1,1,10,-0.400625,0.26125,1,0,0,1.6512,Peridotite_07,7,07,5,2,1.651,5,04,0.14875,-0.41,1,0,0,1.8683,Peridotite_rect,7,1.868,1,9,0,9,0,1,,,,,,,,,,,,,
6672bf56d51710391ce2164d,SCR,2024-06-25_14h23.05.095,LearnStrategy,2023.2.3,Win32,15.01501502,1,1,11,-0.23125,0.1025,1,0,0,3.4382,Obsidian_12,5,12,4,3,3.438,2,09,-0.396875,-0.39125,1,0,0,3.3859,Obsidian_rect,5,3.386,1,10,0,10,0,1,,,,,,,,,,,,,
6672bf56d51710391ce2164d,SCR,2024-06-25_14h23.05.095,LearnStrategy,2023.2.3,Win32,15.01501502,1,1,12,-0.054375,0.4075,1,0,0,2.6898,Basalt_14,2,14,6,4,2.69,3,06,0.110625,-0.395,1,0,0,4.4961,Peridotite_rect,7,4.496,0,11,0,11,0,1,,,,,,,,,,,,,
6672bf56d51710391ce2164d,SCR,2024-06-25_14h23.05.095,LearnStrategy,2023.2.3,Win32,15.01501502,1,1,13,0.075625,-0.0775,1,0,0,2.7332,Gabbro_16,4,16,3,5,2.733,2,12,-0.14625,-0.254375,1,0,0,1.889,Basalt_rect,2,1.889,0,12,0,12,0,1,,,,,,,,,,,,,
6672bf56d51710391ce2164d,SCR,2024-06-25_14h23.05.095,LearnStrategy,2023.2.3,Win32,15.01501502,1,1,14,0.08375,-0.089375,1,0,0,1.1899,Gabbro_16,4,16,3,5,1.19,5,11,0.374375,-0.245625,1,0,0,3.9519,Gabbro_rect,4,3.952,1,13,0,13,0,1,,,,,,,,,,,,,
6672bf56d51710391ce2164d,SCR,2024-06-25_14h23.05.095,LearnStrategy,2023.2.3,Win32,15.01501502,1,1,15,0.388125,-0.391875,1,0,0,3.1411,Obsidian_04,5,04,1,7,3.141,4,11,-0.43,-0.40875,1,0,0,3.0333,Obsidian_rect,5,3.033,1,14,0,14,0,1,,,,,,,,,,,,,
6672bf56d51710391ce2164d,SCR,2024-06-25_14h23.05.095,LearnStrategy,2023.2.3,Win32,15.01501502,1,1,16,-0.575,-0.14,1,0,0,1.7928,Obsidian_11,5,11,3,1,1.793,6,15,-0.374375,-0.399375,1,0,0,1.6862,Obsidian_rect,5,1.686,1,15,0,15,0,1,,,,,,,,,,,,,
6672bf56d51710391ce2164d,SCR,2024-06-25_14h23.05.095,LearnStrategy,2023.2.3,Win32,15.01501502,1,2,1,,,,,,,,1,03,,,,,,,,,,,,,8,36.483,0,,,,,,0.41125,-0.4,1,0,0,36.4835,Pumice_rect,0,0,0,0,1,
6672bf56d51710391ce2164d,SCR,2024-06-25_14h23.05.095,LearnStrategy,2023.2.3,Win32,15.01501502,1,2,2,,,,,,,,6,07,,,,,,,,,,,,,1,18.75,0,,,,,,-0.376875,-0.24375,1,0,0,18.7501,Andesite_rect,1,0,1,0,1,
6672bf56d51710391ce2164d,SCR,2024-06-25_14h23.05.095,LearnStrategy,2023.2.3,Win32,15.01501502,1,2,3,,,,,,,,4,05,,,,,,,,,,,,,7,10.555,0,,,,,,0.11,-0.4,1,0,0,10.5552,Peridotite_rect,2,0,2,0,1,
6672bf56d51710391ce2164d,SCR,2024-06-25_14h23.05.095,LearnStrategy,2023.2.3,Win32,15.01501502,1,2,4,,,,,,,,4,10,,,,,,,,,,,,,4,11.145,1,,,,,,0.366875,-0.239375,1,0,0,11.145,Gabbro_rect,3,0,3,0,1,
6672bf56d51710391ce2164d,SCR,2024-06-25_14h23.05.095,LearnStrategy,2023.2.3,Win32,15.01501502,1,2,5,,,,,,,,8,05,,,,,,,,,,,,,2,12.368,0,,,,,,-0.183125,-0.24125,1,0,0,12.368,Basalt_rect,4,0,4,0,1,
6672bf56d51710391ce2164d,SCR,2024-06-25_14h23.05.095,LearnStrategy,2023.2.3,Win32,15.01501502,1,2,6,,,,,,,,7,12,,,,,,,,,,,,,7,13.977,1,,,,,,0.128125,-0.390625,1,0,0,13.9769,Peridotite_rect,5,0,5,0,1,
6672bf56d51710391ce2164d,SCR,2024-06-25_14h23.05.095,LearnStrategy,2023.2.3,Win32,15.01501502,1,2,7,,,,,,,,7,16,,,,,,,,,,,,,4,4.37,0,,,,,,0.375625,-0.24375,1,0,0,4.37,Gabbro_rect,6,0,6,0,1,
6672bf56d51710391ce2164d,SCR,2024-06-25_14h23.05.095,LearnStrategy,2023.2.3,Win32,15.01501502,1,2,8,,,,,,,,3,16,,,,,,,,,,,,,8,5.842,0,,,,,,0.375,-0.403125,1,0,0,5.8423,Pumice_rect,7,0,7,0,1,
6672bf56d51710391ce2164d,SCR,2024-06-25_14h23.05.095,LearnStrategy,2023.2.3,Win32,15.01501502,1,2,9,,,,,,,,2,08,,,,,,,,,,,,,3,18.417,0,,,,,,0.114375,-0.25625,1,0,0,18.417,Diorite_rect,8,0,8,0,1,
6672bf56d51710391ce2164d,SCR,2024-06-25_14h23.05.095,LearnStrategy,2023.2.3,Win32,15.01501502,1,2,10,,,,,,,,1,09,,,,,,,,,,,,,2,6.522,0,,,,,,-0.15125,-0.264375,1,0,0,6.5218,Basalt_rect,9,0,9,0,1,
6672bf56d51710391ce2164d,SCR,2024-06-25_14h23.05.095,LearnStrategy,2023.2.3,Win32,15.01501502,1,2,11,,,,,,,,8,09,,,,,,,,,,,,,6,9.793,0,,,,,,-0.108125,-0.40625,1,0,0,9.7932,Pegmatite_rect,10,0,10,0,1,
6672bf56d51710391ce2164d,SCR,2024-06-25_14h23.05.095,LearnStrategy,2023.2.3,Win32,15.01501502,1,2,12,,,,,,,,6,16,,,,,,,,,,,,,8,5.316,0,,,,,,0.425,-0.39875,1,0,0,5.3162,Pumice_rect,11,0,11,0,1,
6672bf56d51710391ce2164d,SCR,2024-06-25_14h23.05.095,LearnStrategy,2023.2.3,Win32,15.01501502,1,2,13,,,,,,,,5,09,,,,,,,,,,,,,5,2.082,1,,,,,,-0.338125,-0.400625,1,0,0,2.0825,Obsidian_rect,12,0,12,0,1,
6672bf56d51710391ce2164d,SCR,2024-06-25_14h23.05.095,LearnStrategy,2023.2.3,Win32,15.01501502,1,2,14,,,,,,,,2,11,,,,,,,,,,,,,2,6.994,1,,,,,,-0.184375,-0.2525,1,0,0,6.9939,Basalt_rect,13,0,13,0,1,
6672bf56d51710391ce2164d,SCR,2024-06-25_14h23.05.095,LearnStrategy,2023.2.3,Win32,15.01501502,1,2,15,,,,,,,,3,10,,,,,,,,,,,,,7,2.889,0,,,,,,0.123125,-0.38625,1,0,0,2.8895,Peridotite_rect,14,0,14,0,1,
6672bf56d51710391ce2164d,SCR,2024-06-25_14h23.05.095,LearnStrategy,2023.2.3,Win32,15.01501502,1,2,16,,,,,,,,5,02,,,,,,,,,,,,,5,1.684,1,,,,,,-0.38625,-0.386875,1,0,0,1.6841,Obsidian_rect,15,0,15,0,1,
6672bf56d51710391ce2164d,SCR,2024-06-25_14h23.05.095,LearnStrategy,2023.2.3,Win32,15.01501502,2,1,1,-0.0675,0.2375,1,0,0,8.1862,Pegmatite_03,6,03,5,4,8.186,8,08,-0.383125,-0.24375,1,0,0,2.4597,Andesite_rect,1,2.46,0,0,0,0,0,1,,,,,,,,,,,,,
6672bf56d51710391ce2164d,SCR,2024-06-25_14h23.05.095,LearnStrategy,2023.2.3,Win32,15.01501502,2,1,2,-0.21625,-0.24875,1,0,0,5.1035,Pumice_10,8,10,2,3,5.103,4,03,0.17375,-0.260625,1,0,0,5.1709,Diorite_rect,3,5.171,0,1,0,1,0,1,,,,,,,,,,,,,
6672bf56d51710391ce2164d,SCR,2024-06-25_14h23.05.095,LearnStrategy,2023.2.3,Win32,15.01501502,2,1,3,-0.24375,-0.411875,1,0,0,7.1189,Pegmatite_06,6,06,1,3,7.119,6,12,0.34375,-0.3975,1,0,0,2.9564,Pumice_rect,8,2.956,0,2,0,2,0,1,,,,,,,,,,,,,
6672bf56d51710391ce2164d,SCR,2024-06-25_14h23.05.095,LearnStrategy,2023.2.3,Win32,15.01501502,2,1,4,0.40125,0.40875,1,0,0,1.2917,Pegmatite_09,6,09,6,7,1.292,1,01,-0.2025,-0.3975,1,0,0,2.8221,Pegmatite_rect,6,2.822,1,3,0,3,0,1,,,,,,,,,,,,,
6672bf56d51710391ce2164d,SCR,2024-06-25_14h23.05.095,LearnStrategy,2023.2.3,Win32,15.01501502,2,1,5,0.385625,-0.085625,1,0,0,2.4088,Pegmatite_12,6,12,3,7,2.409,3,09,0.11875,-0.24875,1,0,0,2.5664,Diorite_rect,3,2.566,0,4,0,4,0,1,,,,,,,,,,,,,
6672bf56d51710391ce2164d,SCR,2024-06-25_14h23.05.095,LearnStrategy,2023.2.3,Win32,15.01501502,2,1,6,0.560625,-0.11375,1,0,0,1.6304,Andesite_16,1,16,3,8,1.63,3,06,0.395,-0.256875,1,0,0,1.8409,Gabbro_rect,4,1.841,0,5,0,5,0,1,,,,,,,,,,,,,
6672bf56d51710391ce2164d,SCR,2024-06-25_14h23.05.095,LearnStrategy,2023.2.3,Win32,15.01501502,2,1,7,-0.391875,-0.423125,1,0,0,1.4368,Pegmatite_15,6,15,1,2,1.437,8,15,-0.39625,-0.254375,1,0,0,2.1749,Andesite_rect,1,2.175,0,6,0,6,0,1,,,,,,,,,,,,,
6672bf56d51710391ce2164d,SCR,2024-06-25_14h23.05.095,LearnStrategy,2023.2.3,Win32,15.01501502,2,1,8,0.209375,-0.394375,1,0,0,1.8817,Peridotite_06,7,06,1,6,1.882,2,05,0.3575,-0.25,1,0,0,1.9961,Gabbro_rect,4,1.996,0,7,0,7,0,1,,,,,,,,,,,,,
6672bf56d51710391ce2164d,SCR,2024-06-25_14h23.05.095,LearnStrategy,2023.2.3,Win32,15.01501502,2,1,9,-0.569375,-0.39375,1,0,0,2.1778,Basalt_01,2,01,1,1,2.178,7,15,0.355625,-0.259375,1,0,0,3.0372,Gabbro_rect,4,3.037,0,8,0,8,0,1,,,,,,,,,,,,,
6672bf56d51710391ce2164d,SCR,2024-06-25_14h23.05.095,LearnStrategy,2023.2.3,Win32,15.01501502,2,1,10,0.39875,0.081875,1,0,0,7.3495,Pumice_03,8,03,4,7,7.349,8,04,-0.13625,-0.415625,1,0,0,3.707,Pegmatite_rect,6,3.707,0,9,0,9,0,1,,,,,,,,,,,,,
6672bf56d51710391ce2164d,SCR,2024-06-25_14h23.05.095,LearnStrategy,2023.2.3,Win32,15.01501502,2,1,11,-0.575625,0.1125,1,0,0,1.9741,Diorite_07,3,07,4,1,1.974,1,01,-0.395625,-0.25125,1,0,0,2.3087,Andesite_rect,1,2.309,0,10,0,10,0,1,,,,,,,,,,,,,
6672bf56d51710391ce2164d,SCR,2024-06-25_14h23.05.095,LearnStrategy,2023.2.3,Win32,15.01501502,2,1,12,-0.535,0.259375,1,0,0,21.4571,Pumice_16,8,16,5,1,21.457,3,06,-0.143125,-0.404375,1,0,0,1.873,Pegmatite_rect,6,1.873,0,11,0,11,0,1,,,,,,,,,,,,,
6672bf56d51710391ce2164d,SCR,2024-06-25_14h23.05.095,LearnStrategy,2023.2.3,Win32,15.01501502,2,1,13,0.2425,-0.416875,1,0,0,2.0144,Peridotite_06,7,06,1,6,2.014,1,16,0.1425,-0.410625,1,0,0,2.2139,Peridotite_rect,7,2.214,1,12,0,12,0,1,,,,,,,,,,,,,
6672bf56d51710391ce2164d,SCR,2024-06-25_14h23.05.095,LearnStrategy,2023.2.3,Win32,15.01501502,2,1,14,0.353125,-0.248125,1,0,0,3.145,Peridotite_14,7,14,2,7,3.145,7,10,0.135625,-0.39375,1,0,0,3.0759,Peridotite_rect,7,3.076,1,13,0,13,0,1,,,,,,,,,,,,,
6672bf56d51710391ce2164d,SCR,2024-06-25_14h23.05.095,LearnStrategy,2023.2.3,Win32,15.01501502,2,1,15,-0.40625,-0.235625,1,0,0,3.0357,Andesite_05,1,05,2,2,3.036,2,10,0.11875,-0.234375,1,0,0,2.4307,Diorite_rect,3,2.431,0,14,0,14,0,1,,,,,,,,,,,,,
6672bf56d51710391ce2164d,SCR,2024-06-25_14h23.05.095,LearnStrategy,2023.2.3,Win32,15.01501502,2,1,16,-0.068125,0.413125,1,0,0,3.4503,Basalt_14,2,14,6,4,3.45,6,03,0.17875,-0.25625,1,0,0,17.0768,Diorite_rect,3,17.077,0,15,0,15,0,1,,,,,,,,,,,,,
6672bf56d51710391ce2164d,SCR,2024-06-25_14h23.05.095,LearnStrategy,2023.2.3,Win32,15.01501502,2,2,1,,,,,,,,3,02,,,,,,,,,,,,,1,30.661,0,,,,,,-0.395,-0.243125,1,0,0,30.6607,Andesite_rect,0,0,0,0,1,
6672bf56d51710391ce2164d,SCR,2024-06-25_14h23.05.095,LearnStrategy,2023.2.3,Win32,15.01501502,2,2,2,,,,,,,,1,02,,,,,,,,,,,,,7,33.67,0,,,,,,0.1725,-0.394375,1,0,0,33.6696,Peridotite_rect,1,0,1,0,1,
6672bf56d51710391ce2164d,SCR,2024-06-25_14h23.05.095,LearnStrategy,2023.2.3,Win32,15.01501502,2,2,3,,,,,,,,1,11,,,,,,,,,,,,,2,28.266,0,,,,,,-0.11875,-0.229375,1,0,0,28.2656,Basalt_rect,2,0,2,0,1,
6672bf56d51710391ce2164d,SCR,2024-06-25_14h23.05.095,LearnStrategy,2023.2.3,Win32,15.01501502,2,2,4,,,,,,,,4,13,,,,,,,,,,,,,7,16.578,0,,,,,,0.18375,-0.406875,1,0,0,16.5784,Peridotite_rect,3,0,3,0,1,
6672bf56d51710391ce2164d,SCR,2024-06-25_14h23.05.095,LearnStrategy,2023.2.3,Win32,15.01501502,2,2,5,,,,,,,,5,05,,,,,,,,,,,,,6,21.495,0,,,,,,-0.0625,-0.39875,1,0,0,21.495,Pegmatite_rect,4,0,4,0,1,
6672bf56d51710391ce2164d,SCR,2024-06-25_14h23.05.095,LearnStrategy,2023.2.3,Win32,15.01501502,2,2,6,,,,,,,,4,12,,,,,,,,,,,,,8,11.836,0,,,,,,0.378125,-0.396875,1,0,0,11.836,Pumice_rect,5,0,5,0,1,
6672bf56d51710391ce2164d,SCR,2024-06-25_14h23.05.095,LearnStrategy,2023.2.3,Win32,15.01501502,2,2,7,,,,,,,,5,06,,,,,,,,,,,,,5,3.421,1,,,,,,-0.393125,-0.391875,1,0,0,3.4214,Obsidian_rect,6,0,6,0,1,
6672bf56d51710391ce2164d,SCR,2024-06-25_14h23.05.095,LearnStrategy,2023.2.3,Win32,15.01501502,2,2,8,,,,,,,,6,11,,,,,,,,,,,,,6,7.718,1,,,,,,-0.126875,-0.40625,1,0,0,7.7181,Pegmatite_rect,7,0,7,0,1,
6672bf56d51710391ce2164d,SCR,2024-06-25_14h23.05.095,LearnStrategy,2023.2.3,Win32,15.01501502,2,2,9,,,,,,,,2,02,,,,,,,,,,,,,2,8.471,1,,,,,,-0.1475,-0.24375,1,0,0,8.4707,Basalt_rect,8,0,8,0,1,
6672bf56d51710391ce2164d,SCR,2024-06-25_14h23.05.095,LearnStrategy,2023.2.3,Win32,15.01501502,2,2,10,,,,,,,,7,08,,,,,,,,,,,,,8,10.697,0,,,,,,0.41125,-0.41375,1,0,0,10.697,Pumice_rect,9,0,9,0,1,
6672bf56d51710391ce2164d,SCR,2024-06-25_14h23.05.095,LearnStrategy,2023.2.3,Win32,15.01501502,2,2,11,,,,,,,,2,04,,,,,,,,,,,,,2,5.385,1,,,,,,-0.119375,-0.26375,1,0,0,5.3847,Basalt_rect,10,0,10,0,1,
6672bf56d51710391ce2164d,SCR,2024-06-25_14h23.05.095,LearnStrategy,2023.2.3,Win32,15.01501502,2,2,12,,,,,,,,7,13,,,,,,,,,,,,,7,13.431,1,,,,,,0.151875,-0.416875,1,0,0,13.4313,Peridotite_rect,11,0,11,0,1,
6672bf56d51710391ce2164d,SCR,2024-06-25_14h23.05.095,LearnStrategy,2023.2.3,Win32,15.01501502,2,2,13,,,,,,,,8,06,,,,,,,,,,,,,2,5.76,0,,,,,,-0.165,-0.26625,1,0,0,5.7597,Basalt_rect,12,0,12,0,1,
6672bf56d51710391ce2164d,SCR,2024-06-25_14h23.05.095,LearnStrategy,2023.2.3,Win32,15.01501502,2,2,14,,,,,,,,6,13,,,,,,,,,,,,,7,5.032,0,,,,,,0.113125,-0.395625,1,0,0,5.0321,Peridotite_rect,13,0,13,0,1,
6672bf56d51710391ce2164d,SCR,2024-06-25_14h23.05.095,LearnStrategy,2023.2.3,Win32,15.01501502,2,2,15,,,,,,,,3,12,,,,,,,,,,,,,3,8.023,1,,,,,,0.1275,-0.250625,1,0,0,8.0225,Diorite_rect,14,0,14,0,1,
6672bf56d51710391ce2164d,SCR,2024-06-25_14h23.05.095,LearnStrategy,2023.2.3,Win32,15.01501502,2,2,16,,,,,,,,8,14,,,,,,,,,,,,,8,9.098,1,,,,,,0.380625,-0.41875,1,0,0,9.0981,Pumice_rect,15,0,15,0,1,
6672bf56d51710391ce2164d,SCR,2024-06-25_14h23.05.095,LearnStrategy,2023.2.3,Win32,15.01501502,3,1,1,-0.086875,-0.261875,1,0,0,21.8603,Diorite_14,3,14,2,4,21.86,8,10,0.18125,-0.24625,1,0,0,7.3999,Diorite_rect,3,7.4,1,0,0,0,0,1,,,,,,,,,,,,,
6672bf56d51710391ce2164d,SCR,2024-06-25_14h23.05.095,LearnStrategy,2023.2.3,Win32,15.01501502,3,1,2,0.091875,-0.26625,1,0,0,6.1558,Gabbro_03,4,03,2,5,6.156,7,10,-0.15,-0.2325,1,0,0,1.141,Basalt_rect,2,1.141,0,1,0,1,0,1,,,,,,,,,,,,,
6672bf56d51710391ce2164d,SCR,2024-06-25_14h23.05.095,LearnStrategy,2023.2.3,Win32,15.01501502,3,1,3,-0.550625,-0.255,1,0,0,7.7963,Gabbro_14,4,14,2,1,7.796,1,10,-0.148125,-0.2475,1,0,0,1.1603,Basalt_rect,2,1.16,0,2,0,2,0,1,,,,,,,,,,,,,
6672bf56d51710391ce2164d,SCR,2024-06-25_14h23.05.095,LearnStrategy,2023.2.3,Win32,15.01501502,3,1,4,0.39375,-0.096875,1,0,0,17.4244,Pegmatite_12,6,12,3,7,17.424,7,06,-0.101875,-0.39375,1,0,0,3.9174,Pegmatite_rect,6,3.917,1,3,0,3,0,1,,,,,,,,,,,,,
6672bf56d51710391ce2164d,SCR,2024-06-25_14h23.05.095,LearnStrategy,2023.2.3,Win32,15.01501502,3,1,5,0.22625,-0.275625,1,0,0,8.6306,Peridotite_15,7,15,2,6,8.631,5,14,0.125625,-0.3925,1,0,0,2.519,Peridotite_rect,7,2.519,1,4,0,4,0,1,,,,,,,,,,,,,
6672bf56d51710391ce2164d,SCR,2024-06-25_14h23.05.095,LearnStrategy,2023.2.3,Win32,15.01501502,3,1,6,0.555625,-0.405625,1,0,0,18.0891,Diorite_06,3,06,1,8,18.089,1,05,0.4025,-0.265625,1,0,0,1.8733,Gabbro_rect,4,1.873,0,5,0,5,0,1,,,,,,,,,,,,,
6672bf56d51710391ce2164d,SCR,2024-06-25_14h23.05.095,LearnStrategy,2023.2.3,Win32,15.01501502,3,1,7,0.395,0.23875,1,0,0,6.4644,Gabbro_11,4,11,5,7,6.464,8,03,0.120625,-0.2425,1,0,0,1.5134,Diorite_rect,3,1.513,0,6,0,6,0,1,,,,,,,,,,,,,
6672bf56d51710391ce2164d,SCR,2024-06-25_14h23.05.095,LearnStrategy,2023.2.3,Win32,15.01501502,3,1,8,-0.233125,-0.11125,1,0,0,19.1309,Pumice_04,8,04,3,3,19.131,8,03,0.436875,-0.39625,1,0,0,4.5386,Pumice_rect,8,4.539,1,7,0,7,0,1,,,,,,,,,,,,,
6672bf56d51710391ce2164d,SCR,2024-06-25_14h23.05.095,LearnStrategy,2023.2.3,Win32,15.01501502,3,1,9,0.245,-0.1075,1,0,0,9.3748,Diorite_13,3,13,3,6,9.375,2,09,0.356875,-0.249375,1,0,0,4.8715,Gabbro_rect,4,4.872,0,8,0,8,0,1,,,,,,,,,,,,,
6672bf56d51710391ce2164d,SCR,2024-06-25_14h23.05.095,LearnStrategy,2023.2.3,Win32,15.01501502,3,1,10,-0.066875,-0.259375,1,0,0,6.9001,Diorite_14,3,14,2,4,6.9,1,10,0.11375,-0.25625,1,0,0,1.0165,Diorite_rect,3,1.016,1,9,0,9,0,1,,,,,,,,,,,,,
6672bf56d51710391ce2164d,SCR,2024-06-25_14h23.05.095,LearnStrategy,2023.2.3,Win32,15.01501502,3,1,11,0.2475,-0.270625,1,0,0,8.0396,Peridotite_15,7,15,2,6,8.04,4,16,0.165,-0.384375,1,0,0,1.6865,Peridotite_rect,7,1.687,1,10,0,10,0,1,,,,,,,,,,,,,
6672bf56d51710391ce2164d,SCR,2024-06-25_14h23.05.095,LearnStrategy,2023.2.3,Win32,15.01501502,3,1,12,0.390625,0.404375,1,0,0,9.4848,Pegmatite_09,6,09,6,7,9.485,4,09,0.1225,-0.3875,1,0,0,6.8859,Peridotite_rect,7,6.886,0,11,0,11,0,1,,,,,,,,,,,,,
6672bf56d51710391ce2164d,SCR,2024-06-25_14h23.05.095,LearnStrategy,2023.2.3,Win32,15.01501502,3,1,13,-0.374375,0.073125,1,0,0,26.0373,Basalt_09,2,09,4,2,26.037,3,13,-0.1525,-0.244375,1,0,0,1.3927,Basalt_rect,2,1.393,1,12,0,12,0,1,,,,,,,,,,,,,
6672bf56d51710391ce2164d,SCR,2024-06-25_14h23.05.095,LearnStrategy,2023.2.3,Win32,15.01501502,3,1,14,0.38875,-0.1425,1,0,0,10.4417,Pegmatite_12,6,12,3,7,10.442,6,12,-0.223125,-0.421875,1,0,0,1.6918,Pegmatite_rect,6,1.692,1,13,0,13,0,1,,,,,,,,,,,,,
6672bf56d51710391ce2164d,SCR,2024-06-25_14h23.05.095,LearnStrategy,2023.2.3,Win32,15.01501502,3,1,15,-0.223125,-0.398125,1,0,0,10.36,Pegmatite_06,6,06,1,3,10.36,6,15,-0.155625,-0.415,1,0,0,6.5777,Pegmatite_rect,6,6.578,1,14,0,14,0,1,,,,,,,,,,,,,
6672bf56d51710391ce2164d,SCR,2024-06-25_14h23.05.095,LearnStrategy,2023.2.3,Win32,15.01501502,3,1,16,0.56875,-0.269375,1,0,0,8.1184,Pumice_08,8,08,2,8,8.118,3,09,-0.16,-0.24625,1,0,0,4.2646,Basalt_rect,2,4.265,0,15,0,15,0,1,,,,,,,,,,,,,
6672bf56d51710391ce2164d,SCR,2024-06-25_14h23.05.095,LearnStrategy,2023.2.3,Win32,15.01501502,3,2,1,,,,,,,,3,08,,,,,,,,,,,,,3,25.735,1,,,,,,0.17375,-0.239375,1,0,0,25.7352,Diorite_rect,0,0,0,0,1,
6672bf56d51710391ce2164d,SCR,2024-06-25_14h23.05.095,LearnStrategy,2023.2.3,Win32,15.01501502,3,2,2,,,,,,,,8,13,,,,,,,,,,,,,8,7.898,1,,,,,,0.405625,-0.39375,1,0,0,7.898,Pumice_rect,1,0,1,0,1,
6672bf56d51710391ce2164d,SCR,2024-06-25_14h23.05.095,LearnStrategy,2023.2.3,Win32,15.01501502,3,2,3,,,,,,,,6,10,,,,,,,,,,,,,6,8.157,1,,,,,,-0.104375,-0.40375,1,0,0,8.1569,Pegmatite_rect,2,0,2,0,1,
6672bf56d51710391ce2164d,SCR,2024-06-25_14h23.05.095,LearnStrategy,2023.2.3,Win32,15.01501502,3,2,4,,,,,,,,2,06,,,,,,,,,,,,,2,17.671,1,,,,,,-0.129375,-0.25125,1,0,0,17.6711,Basalt_rect,3,0,3,0,1,
6672bf56d51710391ce2164d,SCR,2024-06-25_14h23.05.095,LearnStrategy,2023.2.3,Win32,15.01501502,3,2,5,,,,,,,,5,08,,,,,,,,,,,,,5,2.012,1,,,,,,-0.428125,-0.41875,1,0,0,2.0119,Obsidian_rect,4,0,4,0,1,
6672bf56d51710391ce2164d,SCR,2024-06-25_14h23.05.095,LearnStrategy,2023.2.3,Win32,15.01501502,3,2,6,,,,,,,,1,07,,,,,,,,,,,,,3,15.098,0,,,,,,0.14,-0.2575,1,0,0,15.0985,Diorite_rect,5,0,5,0,1,
6672bf56d51710391ce2164d,SCR,2024-06-25_14h23.05.095,LearnStrategy,2023.2.3,Win32,15.01501502,3,2,7,,,,,,,,3,11,,,,,,,,,,,,,3,1.351,1,,,,,,0.121875,-0.248125,1,0,0,1.3513,Diorite_rect,6,0,6,0,1,
6672bf56d51710391ce2164d,SCR,2024-06-25_14h23.05.095,LearnStrategy,2023.2.3,Win32,15.01501502,3,2,8,,,,,,,,7,04,,,,,,,,,,,,,4,10.446,0,,,,,,0.34875,-0.25,1,0,0,10.4463,Gabbro_rect,7,0,7,0,1,
6672bf56d51710391ce2164d,SCR,2024-06-25_14h23.05.095,LearnStrategy,2023.2.3,Win32,15.01501502,3,2,9,,,,,,,,7,05,,,,,,,,,,,,,7,11.547,1,,,,,,0.1225,-0.39,1,0,0,11.5466,Peridotite_rect,8,0,8,0,1,
6672bf56d51710391ce2164d,SCR,2024-06-25_14h23.05.095,LearnStrategy,2023.2.3,Win32,15.01501502,3,2,10,,,,,,,,6,08,,,,,,,,,,,,,6,4.713,1,,,,,,-0.0975,-0.398125,1,0,0,4.7128,Pegmatite_rect,9,0,9,0,1,
6672bf56d51710391ce2164d,SCR,2024-06-25_14h23.05.095,LearnStrategy,2023.2.3,Win32,15.01501502,3,2,11,,,,,,,,4,15,,,,,,,,,,,,,3,5.362,0,,,,,,0.1275,-0.248125,1,0,0,5.3616,Diorite_rect,10,0,10,0,1,
6672bf56d51710391ce2164d,SCR,2024-06-25_14h23.05.095,LearnStrategy,2023.2.3,Win32,15.01501502,3,2,12,,,,,,,,5,07,,,,,,,,,,,,,5,1.774,1,,,,,,-0.449375,-0.394375,1,0,0,1.7739,Obsidian_rect,11,0,11,0,1,
6672bf56d51710391ce2164d,SCR,2024-06-25_14h23.05.095,LearnStrategy,2023.2.3,Win32,15.01501502,3,2,13,,,,,,,,2,16,,,,,,,,,,,,,4,5.936,0,,,,,,0.349375,-0.255,1,0,0,5.9362,Gabbro_rect,12,0,12,0,1,
6672bf56d51710391ce2164d,SCR,2024-06-25_14h23.05.095,LearnStrategy,2023.2.3,Win32,15.01501502,3,2,14,,,,,,,,1,04,,,,,,,,,,,,,2,5.683,0,,,,,,-0.104375,-0.264375,1,0,0,5.6827,Basalt_rect,13,0,13,0,1,
6672bf56d51710391ce2164d,SCR,2024-06-25_14h23.05.095,LearnStrategy,2023.2.3,Win32,15.01501502,3,2,15,,,,,,,,8,02,,,,,,,,,,,,,8,7.482,1,,,,,,0.37625,-0.4025,1,0,0,7.4824,Pumice_rect,14,0,14,0,1,
6672bf56d51710391ce2164d,SCR,2024-06-25_14h23.05.095,LearnStrategy,2023.2.3,Win32,15.01501502,3,2,16,,,,,,,,4,01,,,,,,,,,,,,,4,8.754,1,,,,,,0.418125,-0.235625,1,0,0,8.7535,Gabbro_rect,15,0,15,0,1,
6672bf56d51710391ce2164d,SCR,2024-06-25_14h23.05.095,LearnStrategy,2023.2.3,Win32,15.01501502,4,1,1,0.0925,-0.418125,1,0,0,36.1166,Diorite_15,3,15,1,5,36.117,4,14,0.423125,-0.268125,1,0,0,1.0314,Gabbro_rect,4,1.031,0,0,0,0,0,1,,,,,,,,,,,,,
6672bf56d51710391ce2164d,SCR,2024-06-25_14h23.05.095,LearnStrategy,2023.2.3,Win32,15.01501502,4,1,2,-0.065625,-0.416875,1,0,0,14.3977,Andesite_10,1,10,1,4,14.398,5,04,0.146875,-0.24375,1,0,0,7.9019,Diorite_rect,3,7.902,0,1,0,1,0,1,,,,,,,,,,,,,
6672bf56d51710391ce2164d,SCR,2024-06-25_14h23.05.095,LearnStrategy,2023.2.3,Win32,15.01501502,4,1,3,-0.386875,-0.425625,1,0,0,11.0617,Pegmatite_15,6,15,1,2,11.062,1,06,-0.17,-0.383125,1,0,0,2.4434,Pegmatite_rect,6,2.443,1,2,0,2,0,1,,,,,,,,,,,,,
6672bf56d51710391ce2164d,SCR,2024-06-25_14h23.05.095,LearnStrategy,2023.2.3,Win32,15.01501502,4,1,4,0.234375,-0.259375,1,0,0,38.9018,Peridotite_15,7,15,2,6,38.902,8,10,0.174375,-0.41125,1,0,0,3.7948,Peridotite_rect,7,3.795,1,3,0,3,0,1,,,,,,,,,,,,,
6672bf56d51710391ce2164d,SCR,2024-06-25_14h23.05.095,LearnStrategy,2023.2.3,Win32,15.01501502,4,1,5,0.090625,-0.251875,1,0,0,11.8655,Gabbro_03,4,03,2,5,11.866,6,09,0.38,-0.23875,1,0,0,1.9761,Gabbro_rect,4,1.976,1,4,0,4,0,1,,,,,,,,,,,,,
6672bf56d51710391ce2164d,SCR,2024-06-25_14h23.05.095,LearnStrategy,2023.2.3,Win32,15.01501502,4,1,6,-0.0775,-0.2425,1,0,0,8.0671,Diorite_14,3,14,2,4,8.067,8,16,-0.15875,-0.404375,1,0,0,6.3896,Pegmatite_rect,6,6.39,0,5,0,5,0,1,,,,,,,,,,,,,
6672bf56d51710391ce2164d,SCR,2024-06-25_14h23.05.095,LearnStrategy,2023.2.3,Win32,15.01501502,4,1,7,-0.393125,-0.231875,1,0,0,10.0983,Andesite_05,1,05,2,2,10.098,2,14,-0.109375,-0.25875,1,0,0,2.6399,Basalt_rect,2,2.64,0,6,0,6,0,1,,,,,,,,,,,,,
6672bf56d51710391ce2164d,SCR,2024-06-25_14h23.05.095,LearnStrategy,2023.2.3,Win32,15.01501502,4,1,8,0.57375,-0.1125,1,0,0,17.1875,Andesite_16,1,16,3,8,17.188,1,14,0.405,-0.24625,1,0,0,1.196,Gabbro_rect,4,1.196,0,7,0,7,0,1,,,,,,,,,,,,,
6672bf56d51710391ce2164d,SCR,2024-06-25_14h23.05.095,LearnStrategy,2023.2.3,Win32,15.01501502,4,1,9,0.08625,-0.124375,1,0,0,12.7839,Gabbro_16,4,16,3,5,12.784,2,12,0.414375,-0.238125,1,0,0,2.5468,Gabbro_rect,4,2.547,1,8,0,8,0,1,,,,,,,,,,,,,
6672bf56d51710391ce2164d,SCR,2024-06-25_14h23.05.095,LearnStrategy,2023.2.3,Win32,15.01501502,4,1,10,0.24,-0.108125,1,0,0,11.2244,Diorite_13,3,13,3,6,11.224,4,11,0.185625,-0.24875,1,0,0,1.17,Diorite_rect,3,1.17,1,9,0,9,0,1,,,,,,,,,,,,,
6672bf56d51710391ce2164d,SCR,2024-06-25_14h23.05.095,LearnStrategy,2023.2.3,Win32,15.01501502,4,1,11,-0.07125,-0.09875,1,0,0,3.4289,Andesite_01,1,01,3,4,3.429,4,11,0.38125,-0.254375,1,0,0,3.9949,Gabbro_rect,4,3.995,0,10,0,10,0,1,,,,,,,,,,,,,
6672bf56d51710391ce2164d,SCR,2024-06-25_14h23.05.095,LearnStrategy,2023.2.3,Win32,15.01501502,4,1,12,0.535625,0.079375,1,0,0,17.4346,Diorite_09,3,09,4,8,17.435,7,07,0.111875,-0.23125,1,0,0,3.4427,Diorite_rect,3,3.443,1,11,0,11,0,1,,,,,,,,,,,,,
6672bf56d51710391ce2164d,SCR,2024-06-25_14h23.05.095,LearnStrategy,2023.2.3,Win32,15.01501502,4,1,13,0.565,0.243125,1,0,0,16.9337,Pegmatite_05,6,05,5,8,16.934,7,02,0.12375,-0.41,1,0,0,2.3617,Peridotite_rect,7,2.362,0,12,0,12,0,1,,,,,,,,,,,,,
6672bf56d51710391ce2164d,SCR,2024-06-25_14h23.05.095,LearnStrategy,2023.2.3,Win32,15.01501502,4,1,14,0.38625,0.243125,1,0,0,8.5406,Gabbro_11,4,11,5,7,8.541,1,14,0.36,-0.2575,1,0,0,1.3871,Gabbro_rect,4,1.387,1,13,0,13,0,1,,,,,,,,,,,,,
6672bf56d51710391ce2164d,SCR,2024-06-25_14h23.05.095,LearnStrategy,2023.2.3,Win32,15.01501502,4,1,15,0.23625,0.0825,1,0,0,12.1398,Andesite_14,1,14,4,6,12.14,3,09,-0.45125,-0.24375,1,0,0,2.1051,Andesite_rect,1,2.105,1,14,0,14,0,1,,,,,,,,,,,,,
6672bf56d51710391ce2164d,SCR,2024-06-25_14h23.05.095,LearnStrategy,2023.2.3,Win32,15.01501502,4,1,16,0.066875,0.08,1,0,0,10.0847,Andesite_06,1,06,4,5,10.085,3,07,-0.398125,-0.24875,1,0,0,2.3953,Andesite_rect,1,2.395,1,15,0,15,0,1,,,,,,,,,,,,,
6672bf56d51710391ce2164d,SCR,2024-06-25_14h23.05.095,LearnStrategy,2023.2.3,Win32,15.01501502,4,2,1,,,,,,,,5,07,,,,,,,,,,,,,5,2.776,1,,,,,,-0.435,-0.410625,1,0,0,2.776,Obsidian_rect,0,0,0,0,1,
6672bf56d51710391ce2164d,SCR,2024-06-25_14h23.05.095,LearnStrategy,2023.2.3,Win32,15.01501502,4,2,2,,,,,,,,6,08,,,,,,,,,,,,,6,10.613,1,,,,,,-0.095625,-0.3975,1,0,0,10.6126,Pegmatite_rect,1,0,1,0,1,
6672bf56d51710391ce2164d,SCR,2024-06-25_14h23.05.095,LearnStrategy,2023.2.3,Win32,15.01501502,4,2,3,,,,,,,,2,04,,,,,,,,,,,,,2,9.99,1,,,,,,-0.123125,-0.25375,1,0,0,9.9897,Basalt_rect,2,0,2,0,1,
6672bf56d51710391ce2164d,SCR,2024-06-25_14h23.05.095,LearnStrategy,2023.2.3,Win32,15.01501502,4,2,4,,,,,,,,1,02,,,,,,,,,,,,,8,21.028,0,,,,,,0.343125,-0.38875,1,0,0,21.028,Pumice_rect,3,0,3,0,1,
6672bf56d51710391ce2164d,SCR,2024-06-25_14h23.05.095,LearnStrategy,2023.2.3,Win32,15.01501502,4,2,5,,,,,,,,8,14,,,,,,,,,,,,,8,5.158,1,,,,,,0.385,-0.40875,1,0,0,5.1581,Pumice_rect,4,0,4,0,1,
6672bf56d51710391ce2164d,SCR,2024-06-25_14h23.05.095,LearnStrategy,2023.2.3,Win32,15.01501502,4,2,6,,,,,,,,7,04,,,,,,,,,,,,,1,12.12,0,,,,,,-0.3975,-0.259375,1,0,0,12.12,Andesite_rect,5,0,5,0,1,
6672bf56d51710391ce2164d,SCR,2024-06-25_14h23.05.095,LearnStrategy,2023.2.3,Win32,15.01501502,4,2,7,,,,,,,,6,10,,,,,,,,,,,,,6,4.23,1,,,,,,-0.145,-0.41,1,0,0,4.2302,Pegmatite_rect,6,0,6,0,1,
6672bf56d51710391ce2164d,SCR,2024-06-25_14h23.05.095,LearnStrategy,2023.2.3,Win32,15.01501502,4,2,8,,,,,,,,7,08,,,,,,,,,,,,,4,11.574,0,,,,,,0.395,-0.25,1,0,0,11.5743,Gabbro_rect,7,0,7,0,1,
6672bf56d51710391ce2164d,SCR,2024-06-25_14h23.05.095,LearnStrategy,2023.2.3,Win32,15.01501502,4,2,9,,,,,,,,4,12,,,,,,,,,,,,,4,4.149,1,,,,,,0.375625,-0.253125,1,0,0,4.1494,Gabbro_rect,8,0,8,0,1,
6672bf56d51710391ce2164d,SCR,2024-06-25_14h23.05.095,LearnStrategy,2023.2.3,Win32,15.01501502,4,2,10,,,,,,,,1,04,,,,,,,,,,,,,1,10.559,1,,,,,,-0.395625,-0.245,1,0,0,10.5593,Andesite_rect,9,0,9,0,1,
6672bf56d51710391ce2164d,SCR,2024-06-25_14h23.05.095,LearnStrategy,2023.2.3,Win32,15.01501502,4,2,11,,,,,,,,2,16,,,,,,,,,,,,,2,4.656,1,,,,,,-0.16625,-0.24,1,0,0,4.6558,Basalt_rect,10,0,10,0,1,
6672bf56d51710391ce2164d,SCR,2024-06-25_14h23.05.095,LearnStrategy,2023.2.3,Win32,15.01501502,4,2,12,,,,,,,,3,11,,,,,,,,,,,,,3,7.268,1,,,,,,0.14625,-0.254375,1,0,0,7.2683,Diorite_rect,11,0,11,0,1,
6672bf56d51710391ce2164d,SCR,2024-06-25_14h23.05.095,LearnStrategy,2023.2.3,Win32,15.01501502,4,2,13,,,,,,,,4,05,,,,,,,,,,,,,4,4.251,1,,,,,,0.39625,-0.245625,1,0,0,4.251,Gabbro_rect,12,0,12,0,1,
6672bf56d51710391ce2164d,SCR,2024-06-25_14h23.05.095,LearnStrategy,2023.2.3,Win32,15.01501502,4,2,14,,,,,,,,5,09,,,,,,,,,,,,,5,1.382,1,,,,,,-0.434375,-0.3825,1,0,0,1.3822,Obsidian_rect,13,0,13,0,1,
6672bf56d51710391ce2164d,SCR,2024-06-25_14h23.05.095,LearnStrategy,2023.2.3,Win32,15.01501502,4,2,15,,,,,,,,8,06,,,,,,,,,,,,,8,17.022,1,,,,,,0.3925,-0.393125,1,0,0,17.0223,Pumice_rect,14,0,14,0,1,
6672bf56d51710391ce2164d,SCR,2024-06-25_14h23.05.095,LearnStrategy,2023.2.3,Win32,15.01501502,4,2,16,,,,,,,,3,10,,,,,,,,,,,,,3,6.502,1,,,,,,0.11875,-0.2575,1,0,0,6.5015,Diorite_rect,15,0,15,0,1,
6672bf56d51710391ce2164d,SCR,2024-06-25_14h23.05.095,LearnStrategy,2023.2.3,Win32,15.01501502,5,1,1,0.406875,0.24125,1,0,0,24.4825,Gabbro_11,4,11,5,7,24.483,3,07,-0.119375,-0.266875,1,0,0,4.4947,Basalt_rect,2,4.495,0,0,0,0,0,1,,,,,,,,,,,,,
6672bf56d51710391ce2164d,SCR,2024-06-25_14h23.05.095,LearnStrategy,2023.2.3,Win32,15.01501502,5,1,2,0.24625,0.238125,1,0,0,8.0857,Basalt_05,2,05,5,6,8.086,7,14,-0.114375,-0.26375,1,0,0,4.8972,Basalt_rect,2,4.897,1,1,0,1,0,1,,,,,,,,,,,,,
6672bf56d51710391ce2164d,SCR,2024-06-25_14h23.05.095,LearnStrategy,2023.2.3,Win32,15.01501502,5,1,3,0.093125,0.23,1,0,0,9.2507,Peridotite_02,7,02,5,5,9.251,1,06,0.135625,-0.26625,1,0,0,5.5887,Diorite_rect,3,5.589,0,2,0,2,0,1,,,,,,,,,,,,,
6672bf56d51710391ce2164d,SCR,2024-06-25_14h23.05.095,LearnStrategy,2023.2.3,Win32,15.01501502,5,1,4,-0.094375,0.25875,1,0,0,8.5001,Pegmatite_03,6,03,5,4,8.5,1,16,0.135,-0.391875,1,0,0,1.9145,Peridotite_rect,7,1.914,0,3,0,3,0,1,,,,,,,,,,,,,
6672bf56d51710391ce2164d,SCR,2024-06-25_14h23.05.095,LearnStrategy,2023.2.3,Win32,15.01501502,5,1,5,-0.2325,0.233125,1,0,0,14.0003,Gabbro_08,4,08,5,3,14,4,03,-0.155625,-0.239375,1,0,0,1.3951,Basalt_rect,2,1.395,0,4,0,4,0,1,,,,,,,,,,,,,
6672bf56d51710391ce2164d,SCR,2024-06-25_14h23.05.095,LearnStrategy,2023.2.3,Win32,15.01501502,5,1,6,-0.360625,0.241875,1,0,0,12.8988,Peridotite_07,7,07,5,2,12.899,8,08,0.161875,-0.3975,1,0,0,8.9644,Peridotite_rect,7,8.964,1,5,0,5,0,1,,,,,,,,,,,,,
6672bf56d51710391ce2164d,SCR,2024-06-25_14h23.05.095,LearnStrategy,2023.2.3,Win32,15.01501502,5,1,7,0.5675,0.399375,1,0,0,10.589,Basalt_10,2,10,6,8,10.589,1,01,-0.0625,-0.259375,1,0,0,3.6216,Basalt_rect,2,3.622,1,6,0,6,0,1,,,,,,,,,,,,,
6672bf56d51710391ce2164d,SCR,2024-06-25_14h23.05.095,LearnStrategy,2023.2.3,Win32,15.01501502,5,1,8,0.24875,0.403125,1,0,0,16.7196,Gabbro_09,4,09,6,6,16.72,8,08,-0.36,-0.2425,1,0,0,8.7878,Andesite_rect,1,8.788,0,7,0,7,0,1,,,,,,,,,,,,,
6672bf56d51710391ce2164d,SCR,2024-06-25_14h23.05.095,LearnStrategy,2023.2.3,Win32,15.01501502,5,1,9,0.098125,0.240625,1,0,0,10.6664,Peridotite_02,7,02,5,5,10.666,2,05,0.160625,-0.411875,1,0,0,8.3688,Peridotite_rect,7,8.369,1,8,0,8,0,1,,,,,,,,,,,,,
6672bf56d51710391ce2164d,SCR,2024-06-25_14h23.05.095,LearnStrategy,2023.2.3,Win32,15.01501502,5,1,10,-0.26,0.38625,1,0,0,18.0009,Basalt_12,2,12,6,3,18.001,7,07,-0.163125,-0.245625,1,0,0,3.2691,Basalt_rect,2,3.269,1,9,0,9,0,1,,,,,,,,,,,,,
6672bf56d51710391ce2164d,SCR,2024-06-25_14h23.05.095,LearnStrategy,2023.2.3,Win32,15.01501502,5,1,11,0.236875,-0.0775,1,0,0,3.8268,Diorite_13,3,13,3,6,3.827,1,10,0.1775,-0.25875,1,0,0,1.0319,Diorite_rect,3,1.032,1,10,0,10,0,1,,,,,,,,,,,,,
6672bf56d51710391ce2164d,SCR,2024-06-25_14h23.05.095,LearnStrategy,2023.2.3,Win32,15.01501502,5,1,12,0.56,-0.124375,1,0,0,14.9438,Andesite_16,1,16,3,8,14.944,7,14,-0.41,-0.249375,1,0,0,6.6815,Andesite_rect,1,6.682,1,11,0,11,0,1,,,,,,,,,,,,,
6672bf56d51710391ce2164d,SCR,2024-06-25_14h23.05.095,LearnStrategy,2023.2.3,Win32,15.01501502,5,1,13,-0.36125,0.23875,1,0,0,15.7574,Peridotite_07,7,07,5,2,15.757,5,11,0.339375,-0.23375,1,0,0,2.1127,Gabbro_rect,4,2.113,0,12,0,12,0,1,,,,,,,,,,,,,
6672bf56d51710391ce2164d,SCR,2024-06-25_14h23.05.095,LearnStrategy,2023.2.3,Win32,15.01501502,5,1,14,-0.550625,0.124375,1,0,0,4.0749,Diorite_07,3,07,4,1,4.075,6,05,0.166875,-0.25125,1,0,0,3.6667,Diorite_rect,3,3.667,1,13,0,13,0,1,,,,,,,,,,,,,
6672bf56d51710391ce2164d,SCR,2024-06-25_14h23.05.095,LearnStrategy,2023.2.3,Win32,15.01501502,5,1,15,-0.380625,-0.111875,1,0,0,1.5778,Obsidian_16,5,16,3,2,1.578,4,08,-0.39625,-0.40125,1,0,0,0.9847,Obsidian_rect,5,0.985,1,14,0,14,0,1,,,,,,,,,,,,,
6672bf56d51710391ce2164d,SCR,2024-06-25_14h23.05.095,LearnStrategy,2023.2.3,Win32,15.01501502,5,1,16,0.075625,-0.418125,1,0,0,11.7615,Diorite_15,3,15,1,5,11.762,7,06,0.124375,-0.254375,1,0,0,1.3402,Diorite_rect,3,1.34,1,15,0,15,0,1,,,,,,,,,,,,,
6672bf56d51710391ce2164d,SCR,2024-06-25_14h23.05.095,LearnStrategy,2023.2.3,Win32,15.01501502,5,2,1,,,,,,,,3,16,,,,,,,,,,,,,3,5.239,1,,,,,,0.12125,-0.25125,1,0,0,5.2387,Diorite_rect,0,0,0,0,1,
6672bf56d51710391ce2164d,SCR,2024-06-25_14h23.05.095,LearnStrategy,2023.2.3,Win32,15.01501502,5,2,2,,,,,,,,8,13,,,,,,,,,,,,,8,10.695,1,,,,,,0.37,-0.399375,1,0,0,10.695,Pumice_rect,1,0,1,0,1,
6672bf56d51710391ce2164d,SCR,2024-06-25_14h23.05.095,LearnStrategy,2023.2.3,Win32,15.01501502,5,2,3,,,,,,,,4,10,,,,,,,,,,,,,4,14.294,1,,,,,,0.39,-0.27,1,0,0,14.2944,Gabbro_rect,2,0,2,0,1,
6672bf56d51710391ce2164d,SCR,2024-06-25_14h23.05.095,LearnStrategy,2023.2.3,Win32,15.01501502,5,2,4,,,,,,,,4,01,,,,,,,,,,,,,4,11.383,1,,,,,,0.38625,-0.236875,1,0,0,11.3826,Gabbro_rect,3,0,3,0,1,
6672bf56d51710391ce2164d,SCR,2024-06-25_14h23.05.095,LearnStrategy,2023.2.3,Win32,15.01501502,5,2,5,,,,,,,,5,05,,,,,,,,,,,,,6,15.079,0,,,,,,-0.13125,-0.40875,1,0,0,15.0789,Pegmatite_rect,4,0,4,0,1,
6672bf56d51710391ce2164d,SCR,2024-06-25_14h23.05.095,LearnStrategy,2023.2.3,Win32,15.01501502,5,2,6,,,,,,,,2,06,,,,,,,,,,,,,2,6.119,1,,,,,,-0.1325,-0.255625,1,0,0,6.1193,Basalt_rect,5,0,5,0,1,
6672bf56d51710391ce2164d,SCR,2024-06-25_14h23.05.095,LearnStrategy,2023.2.3,Win32,15.01501502,5,2,7,,,,,,,,7,13,,,,,,,,,,,,,7,7.95,1,,,,,,0.138125,-0.4,1,0,0,7.9503,Peridotite_rect,6,0,6,0,1,
6672bf56d51710391ce2164d,SCR,2024-06-25_14h23.05.095,LearnStrategy,2023.2.3,Win32,15.01501502,5,2,8,,,,,,,,6,13,,,,,,,,,,,,,6,16.389,1,,,,,,-0.065,-0.4075,1,0,0,16.3885,Pegmatite_rect,7,0,7,0,1,
6672bf56d51710391ce2164d,SCR,2024-06-25_14h23.05.095,LearnStrategy,2023.2.3,Win32,15.01501502,5,2,9,,,,,,,,6,16,,,,,,,,,,,,,3,6.049,0,,,,,,0.1425,-0.238125,1,0,0,6.049,Diorite_rect,8,0,8,0,1,
6672bf56d51710391ce2164d,SCR,2024-06-25_14h23.05.095,LearnStrategy,2023.2.3,Win32,15.01501502,5,2,10,,,,,,,,3,08,,,,,,,,,,,,,3,3.445,1,,,,,,0.12875,-0.265,1,0,0,3.4445,Diorite_rect,9,0,9,0,1,
6672bf56d51710391ce2164d,SCR,2024-06-25_14h23.05.095,LearnStrategy,2023.2.3,Win32,15.01501502,5,2,11,,,,,,,,5,08,,,,,,,,,,,,,5,1.675,1,,,,,,-0.38125,-0.410625,1,0,0,1.6754,Obsidian_rect,10,0,10,0,1,
6672bf56d51710391ce2164d,SCR,2024-06-25_14h23.05.095,LearnStrategy,2023.2.3,Win32,15.01501502,5,2,12,,,,,,,,1,11,,,,,,,,,,,,,1,16.628,1,,,,,,-0.40625,-0.26125,1,0,0,16.6283,Andesite_rect,11,0,11,0,1,
6672bf56d51710391ce2164d,SCR,2024-06-25_14h23.05.095,LearnStrategy,2023.2.3,Win32,15.01501502,5,2,13,,,,,,,,7,05,,,,,,,,,,,,,4,22.944,0,,,,,,0.423125,-0.263125,1,0,0,22.9441,Gabbro_rect,12,0,12,0,1,
6672bf56d51710391ce2164d,SCR,2024-06-25_14h23.05.095,LearnStrategy,2023.2.3,Win32,15.01501502,5,2,14,,,,,,,,8,02,,,,,,,,,,,,,7,7.48,0,,,,,,0.095625,-0.395625,1,0,0,7.4796,Peridotite_rect,13,0,13,0,1,
6672bf56d51710391ce2164d,SCR,2024-06-25_14h23.05.095,LearnStrategy,2023.2.3,Win32,15.01501502,5,2,15,,,,,,,,2,02,,,,,,,,,,,,,2,4.279,1,,,,,,-0.0675,-0.265,1,0,0,4.2786,Basalt_rect,14,0,14,0,1,
6672bf56d51710391ce2164d,SCR,2024-06-25_14h23.05.095,LearnStrategy,2023.2.3,Win32,15.01501502,5,2,16,,,,,,,,1,03,,,,,,,,,,,,,2,1.069,0,,,,,,-0.0675,-0.260625,1,0,0,1.069,Basalt_rect,15,0,15,0,1,
6672bf56d51710391ce2164d,SCR,2024-06-25_14h23.05.095,LearnStrategy,2023.2.3,Win32,15.01501502,6,1,1,-0.55625,0.259375,1,0,0,23.7842,Pumice_16,8,16,5,1,23.784,2,12,0.381875,-0.413125,1,0,0,2.3735,Pumice_rect,8,2.374,1,0,0,0,0,1,,,,,,,,,,,,,
6672bf56d51710391ce2164d,SCR,2024-06-25_14h23.05.095,LearnStrategy,2023.2.3,Win32,15.01501502,6,1,2,-0.50625,-0.091875,1,0,0,1.0843,Obsidian_11,5,11,3,1,1.084,7,14,-0.36375,-0.40875,1,0,0,1.7291,Obsidian_rect,5,1.729,1,1,0,1,0,1,,,,,,,,,,,,,
6672bf56d51710391ce2164d,SCR,2024-06-25_14h23.05.095,LearnStrategy,2023.2.3,Win32,15.01501502,6,1,3,-0.256875,0.093125,1,0,0,2.0194,Obsidian_12,5,12,4,3,2.019,4,16,-0.39625,-0.395,1,0,0,1.5013,Obsidian_rect,5,1.501,1,2,0,2,0,1,,,,,,,,,,,,,
6672bf56d51710391ce2164d,SCR,2024-06-25_14h23.05.095,LearnStrategy,2023.2.3,Win32,15.01501502,6,1,4,0.39375,-0.41875,1,0,0,1.7303,Obsidian_04,5,04,1,7,1.73,5,12,-0.374375,-0.393125,1,0,0,1.2294,Obsidian_rect,5,1.229,1,3,0,3,0,1,,,,,,,,,,,,,
6672bf56d51710391ce2164d,SCR,2024-06-25_14h23.05.095,LearnStrategy,2023.2.3,Win32,15.01501502,6,1,5,-0.230625,0.40875,1,0,0,5.6976,Basalt_12,2,12,6,3,5.698,8,10,0.443125,-0.25875,1,0,0,1.4197,Gabbro_rect,4,1.42,0,4,0,4,0,1,,,,,,,,,,,,,
6672bf56d51710391ce2164d,SCR,2024-06-25_14h23.05.095,LearnStrategy,2023.2.3,Win32,15.01501502,6,1,6,-0.23625,0.431875,1,0,0,1.4773,Basalt_12,2,12,6,3,1.477,1,16,-0.103125,-0.248125,1,0,0,2.054,Basalt_rect,2,2.054,1,5,0,5,0,1,,,,,,,,,,,,,
6672bf56d51710391ce2164d,SCR,2024-06-25_14h23.05.095,LearnStrategy,2023.2.3,Win32,15.01501502,6,1,7,0.39875,0.420625,1,0,0,1.8082,Pegmatite_09,6,09,6,7,1.808,3,09,-0.130625,-0.40625,1,0,0,2.6347,Pegmatite_rect,6,2.635,1,6,0,6,0,1,,,,,,,,,,,,,
6672bf56d51710391ce2164d,SCR,2024-06-25_14h23.05.095,LearnStrategy,2023.2.3,Win32,15.01501502,6,1,8,-0.07875,0.23,1,0,0,7.0186,Pegmatite_03,6,03,5,4,7.019,5,04,-0.149375,-0.403125,1,0,0,1.7052,Pegmatite_rect,6,1.705,1,7,0,7,0,1,,,,,,,,,,,,,
6672bf56d51710391ce2164d,SCR,2024-06-25_14h23.05.095,LearnStrategy,2023.2.3,Win32,15.01501502,6,1,9,-0.240625,-0.40375,1,0,0,4.1726,Pegmatite_06,6,06,1,3,4.173,1,16,-0.13875,-0.406875,1,0,0,0.8476,Pegmatite_rect,6,0.848,1,8,0,8,0,1,,,,,,,,,,,,,
6672bf56d51710391ce2164d,SCR,2024-06-25_14h23.05.095,LearnStrategy,2023.2.3,Win32,15.01501502,6,1,10,-0.0475,-0.3875,1,0,0,12.1697,Andesite_10,1,10,1,4,12.17,7,15,-0.39875,-0.25375,1,0,0,12.7742,Andesite_rect,1,12.774,1,9,0,9,0,1,,,,,,,,,,,,,
6672bf56d51710391ce2164d,SCR,2024-06-25_14h23.05.095,LearnStrategy,2023.2.3,Win32,15.01501502,6,1,11,-0.38,-0.09375,1,0,0,3.566,Obsidian_16,5,16,3,2,3.566,6,03,-0.389375,-0.4,1,0,0,1.6604,Obsidian_rect,5,1.66,1,10,0,10,0,1,,,,,,,,,,,,,
6672bf56d51710391ce2164d,SCR,2024-06-25_14h23.05.095,LearnStrategy,2023.2.3,Win32,15.01501502,6,1,12,-0.38,-0.101875,1,0,0,1.3106,Obsidian_16,5,16,3,2,1.311,7,07,-0.41125,-0.395,1,0,0,1.3825,Obsidian_rect,5,1.382,1,11,0,11,0,1,,,,,,,,,,,,,
6672bf56d51710391ce2164d,SCR,2024-06-25_14h23.05.095,LearnStrategy,2023.2.3,Win32,15.01501502,6,1,13,-0.535,-0.123125,1,0,0,1.8038,Obsidian_11,5,11,3,1,1.804,6,12,-0.423125,-0.399375,1,0,0,1.3741,Obsidian_rect,5,1.374,1,12,0,12,0,1,,,,,,,,,,,,,
6672bf56d51710391ce2164d,SCR,2024-06-25_14h23.05.095,LearnStrategy,2023.2.3,Win32,15.01501502,6,1,14,-0.43125,0.43875,1,0,0,1.0977,Obsidian_14,5,14,6,2,1.098,8,16,-0.3625,-0.406875,1,0,0,1.3389,Obsidian_rect,5,1.339,1,13,0,13,0,1,,,,,,,,,,,,,
6672bf56d51710391ce2164d,SCR,2024-06-25_14h23.05.095,LearnStrategy,2023.2.3,Win32,15.01501502,6,1,15,0.38875,-0.37875,1,0,0,4.192,Obsidian_04,5,04,1,7,4.192,4,14,-0.39125,-0.39625,1,0,0,1.3444,Obsidian_rect,5,1.344,1,14,0,14,0,1,,,,,,,,,,,,,
6672bf56d51710391ce2164d,SCR,2024-06-25_14h23.05.095,LearnStrategy,2023.2.3,Win32,15.01501502,6,1,16,-0.54875,-0.075625,1,0,0,1.8709,Obsidian_11,5,11,3,1,1.871,1,14,-0.3725,-0.4025,1,0,0,2.0939,Obsidian_rect,5,2.094,1,15,0,15,0,1,,,,,,,,,,,,,
6672bf56d51710391ce2164d,SCR,2024-06-25_14h23.05.095,LearnStrategy,2023.2.3,Win32,15.01501502,6,2,1,,,,,,,,1,07,,,,,,,,,,,,,3,13.554,0,,,,,,0.1475,-0.25625,1,0,0,13.5539,Diorite_rect,0,0,0,0,1,
6672bf56d51710391ce2164d,SCR,2024-06-25_14h23.05.095,LearnStrategy,2023.2.3,Win32,15.01501502,6,2,2,,,,,,,,1,09,,,,,,,,,,,,,2,12.624,0,,,,,,-0.08375,-0.239375,1,0,0,12.624,Basalt_rect,1,0,1,0,1,
6672bf56d51710391ce2164d,SCR,2024-06-25_14h23.05.095,LearnStrategy,2023.2.3,Win32,15.01501502,6,2,3,,,,,,,,5,06,,,,,,,,,,,,,5,3.582,1,,,,,,-0.365,-0.399375,1,0,0,3.5819,Obsidian_rect,2,0,2,0,1,
6672bf56d51710391ce2164d,SCR,2024-06-25_14h23.05.095,LearnStrategy,2023.2.3,Win32,15.01501502,6,2,4,,,,,,,,6,11,,,,,,,,,,,,,6,9.995,1,,,,,,-0.136875,-0.395625,1,0,0,9.9948,Pegmatite_rect,3,0,3,0,1,
6672bf56d51710391ce2164d,SCR,2024-06-25_14h23.05.095,LearnStrategy,2023.2.3,Win32,15.01501502,6,2,5,,,,,,,,6,07,,,,,,,,,,,,,6,1.357,1,,,,,,-0.09375,-0.404375,1,0,0,1.3568,Pegmatite_rect,4,0,4,0,1,
6672bf56d51710391ce2164d,SCR,2024-06-25_14h23.05.095,LearnStrategy,2023.2.3,Win32,15.01501502,6,2,6,,,,,,,,7,16,,,,,,,,,,,,,4,9.079,0,,,,,,0.398125,-0.238125,1,0,0,9.0795,Gabbro_rect,5,0,5,0,1,
6672bf56d51710391ce2164d,SCR,2024-06-25_14h23.05.095,LearnStrategy,2023.2.3,Win32,15.01501502,6,2,7,,,,,,,,3,12,,,,,,,,,,,,,3,3.707,1,,,,,,0.1025,-0.245,1,0,0,3.7072,Diorite_rect,6,0,6,0,1,
6672bf56d51710391ce2164d,SCR,2024-06-25_14h23.05.095,LearnStrategy,2023.2.3,Win32,15.01501502,6,2,8,,,,,,,,4,13,,,,,,,,,,,,,4,5.023,1,,,,,,0.44,-0.263125,1,0,0,5.0226,Gabbro_rect,7,0,7,0,1,
6672bf56d51710391ce2164d,SCR,2024-06-25_14h23.05.095,LearnStrategy,2023.2.3,Win32,15.01501502,6,2,9,,,,,,,,5,02,,,,,,,,,,,,,5,1.685,1,,,,,,-0.375,-0.4025,1,0,0,1.6853,Obsidian_rect,8,0,8,0,1,
6672bf56d51710391ce2164d,SCR,2024-06-25_14h23.05.095,LearnStrategy,2023.2.3,Win32,15.01501502,6,2,10,,,,,,,,8,09,,,,,,,,,,,,,2,17.3,0,,,,,,-0.118125,-0.266875,1,0,0,17.2996,Basalt_rect,9,0,9,0,1,
6672bf56d51710391ce2164d,SCR,2024-06-25_14h23.05.095,LearnStrategy,2023.2.3,Win32,15.01501502,6,2,11,,,,,,,,2,08,,,,,,,,,,,,,2,5.986,1,,,,,,-0.056875,-0.24375,1,0,0,5.9861,Basalt_rect,10,0,10,0,1,
6672bf56d51710391ce2164d,SCR,2024-06-25_14h23.05.095,LearnStrategy,2023.2.3,Win32,15.01501502,6,2,12,,,,,,,,3,02,,,,,,,,,,,,,3,16.301,1,,,,,,0.1475,-0.246875,1,0,0,16.301,Diorite_rect,11,0,11,0,1,
6672bf56d51710391ce2164d,SCR,2024-06-25_14h23.05.095,LearnStrategy,2023.2.3,Win32,15.01501502,6,2,13,,,,,,,,2,11,,,,,,,,,,,,,2,2.606,1,,,,,,-0.09875,-0.25875,1,0,0,2.6063,Basalt_rect,12,0,12,0,1,
6672bf56d51710391ce2164d,SCR,2024-06-25_14h23.05.095,LearnStrategy,2023.2.3,Win32,15.01501502,6,2,14,,,,,,,,8,05,,,,,,,,,,,,,2,4.928,0,,,,,,-0.138125,-0.25,1,0,0,4.9281,Basalt_rect,13,0,13,0,1,
6672bf56d51710391ce2164d,SCR,2024-06-25_14h23.05.095,LearnStrategy,2023.2.3,Win32,15.01501502,6,2,15,,,,,,,,4,15,,,,,,,,,,,,,2,3.568,0,,,,,,-0.10875,-0.239375,1,0,0,3.5685,Basalt_rect,14,0,14,0,1,
6672bf56d51710391ce2164d,SCR,2024-06-25_14h23.05.095,LearnStrategy,2023.2.3,Win32,15.01501502,6,2,16,,,,,,,,7,12,,,,,,,,,,,,,4,3.889,0,,,,,,0.421875,-0.251875,1,0,0,3.8894,Gabbro_rect,15,0,15,0,1,
6672bf56d51710391ce2164d,SCR,2024-06-25_14h23.05.095,LearnStrategy,2023.2.3,Win32,15.01501502,7,1,1,-0.069375,0.078125,1,0,0,4.6894,Peridotite_10,7,10,4,4,4.689,7,14,0.08375,-0.4075,1,0,0,15.0942,Peridotite_rect,7,15.094,1,0,0,0,0,1,,,,,,,,,,,,,
6672bf56d51710391ce2164d,SCR,2024-06-25_14h23.05.095,LearnStrategy,2023.2.3,Win32,15.01501502,7,1,2,-0.410625,0.248125,1,0,0,3.7169,Peridotite_07,7,07,5,2,3.717,8,04,-0.096875,-0.396875,1,0,0,5.7679,Pegmatite_rect,6,5.768,0,1,0,1,0,1,,,,,,,,,,,,,
6672bf56d51710391ce2164d,SCR,2024-06-25_14h23.05.095,LearnStrategy,2023.2.3,Win32,15.01501502,7,1,3,-0.24125,0.26375,1,0,0,1.4244,Gabbro_08,4,08,5,3,1.424,4,08,0.395,-0.248125,1,0,0,6.5947,Gabbro_rect,4,6.595,1,2,0,2,0,1,,,,,,,,,,,,,
6672bf56d51710391ce2164d,SCR,2024-06-25_14h23.05.095,LearnStrategy,2023.2.3,Win32,15.01501502,7,1,4,0.09,0.091875,1,0,0,2.2138,Andesite_06,1,06,4,5,2.214,8,15,-0.435625,-0.249375,1,0,0,1.4258,Andesite_rect,1,1.426,1,3,0,3,0,1,,,,,,,,,,,,,
6672bf56d51710391ce2164d,SCR,2024-06-25_14h23.05.095,LearnStrategy,2023.2.3,Win32,15.01501502,7,1,5,0.543125,-0.278125,1,0,0,9.605,Pumice_08,8,08,2,8,9.605,3,13,0.370625,-0.385625,1,0,0,2.2421,Pumice_rect,8,2.242,1,4,0,4,0,1,,,,,,,,,,,,,
6672bf56d51710391ce2164d,SCR,2024-06-25_14h23.05.095,LearnStrategy,2023.2.3,Win32,15.01501502,7,1,6,0.0725,-0.101875,1,0,0,6.8931,Gabbro_16,4,16,3,5,6.893,8,03,0.360625,-0.2575,1,0,0,3.536,Gabbro_rect,4,3.536,1,5,0,5,0,1,,,,,,,,,,,,,
6672bf56d51710391ce2164d,SCR,2024-06-25_14h23.05.095,LearnStrategy,2023.2.3,Win32,15.01501502,7,1,7,-0.39,-0.11625,1,0,0,1.8436,Obsidian_16,5,16,3,2,1.844,2,10,-0.411875,-0.388125,1,0,0,0.9988,Obsidian_rect,5,0.999,1,6,0,6,0,1,,,,,,,,,,,,,
6672bf56d51710391ce2164d,SCR,2024-06-25_14h23.05.095,LearnStrategy,2023.2.3,Win32,15.01501502,7,1,8,-0.38125,-0.079375,1,0,0,1.2922,Obsidian_16,5,16,3,2,1.292,5,11,-0.360625,-0.399375,1,0,0,1.3232,Obsidian_rect,5,1.323,1,7,0,7,0,1,,,,,,,,,,,,,
6672bf56d51710391ce2164d,SCR,2024-06-25_14h23.05.095,LearnStrategy,2023.2.3,Win32,15.01501502,7,1,9,-0.531875,0.3875,1,0,0,1.2651,Obsidian_10,5,10,6,1,1.265,4,09,-0.38,-0.383125,1,0,0,1.2312,Obsidian_rect,5,1.231,1,8,0,8,0,1,,,,,,,,,,,,,
6672bf56d51710391ce2164d,SCR,2024-06-25_14h23.05.095,LearnStrategy,2023.2.3,Win32,15.01501502,7,1,10,-0.4075,0.431875,1,0,0,1.2238,Obsidian_14,5,14,6,2,1.224,6,12,-0.363125,-0.389375,1,0,0,1.9164,Obsidian_rect,5,1.916,1,9,0,9,0,1,,,,,,,,,,,,,
6672bf56d51710391ce2164d,SCR,2024-06-25_14h23.05.095,LearnStrategy,2023.2.3,Win32,15.01501502,7,1,11,-0.206875,0.09375,1,0,0,2.9982,Obsidian_12,5,12,4,3,2.998,7,02,-0.44625,-0.4075,1,0,0,2.7443,Obsidian_rect,5,2.744,1,10,0,10,0,1,,,,,,,,,,,,,
6672bf56d51710391ce2164d,SCR,2024-06-25_14h23.05.095,LearnStrategy,2023.2.3,Win32,15.01501502,7,1,12,0.4075,-0.379375,1,0,0,2.0313,Obsidian_04,5,04,1,7,2.031,7,10,-0.35875,-0.39625,1,0,0,1.0539,Obsidian_rect,5,1.054,1,11,0,11,0,1,,,,,,,,,,,,,
6672bf56d51710391ce2164d,SCR,2024-06-25_14h23.05.095,LearnStrategy,2023.2.3,Win32,15.01501502,7,1,13,-0.39625,-0.090625,1,0,0,1.4689,Obsidian_16,5,16,3,2,1.469,7,14,-0.363125,-0.404375,1,0,0,0.9862,Obsidian_rect,5,0.986,1,12,0,12,0,1,,,,,,,,,,,,,
6672bf56d51710391ce2164d,SCR,2024-06-25_14h23.05.095,LearnStrategy,2023.2.3,Win32,15.01501502,7,1,14,-0.244375,0.08125,1,0,0,2.8229,Obsidian_12,5,12,4,3,2.823,1,16,-0.436875,-0.38875,1,0,0,1.5215,Obsidian_rect,5,1.522,1,13,0,13,0,1,,,,,,,,,,,,,
6672bf56d51710391ce2164d,SCR,2024-06-25_14h23.05.095,LearnStrategy,2023.2.3,Win32,15.01501502,7,1,15,0.078125,0.246875,1,0,0,5.5835,Peridotite_02,7,02,5,5,5.583,1,14,0.120625,-0.401875,1,0,0,3.0598,Peridotite_rect,7,3.06,1,14,0,14,0,1,,,,,,,,,,,,,
6672bf56d51710391ce2164d,SCR,2024-06-25_14h23.05.095,LearnStrategy,2023.2.3,Win32,15.01501502,7,1,16,-0.09375,0.250625,1,0,0,3.5543,Pegmatite_03,6,03,5,4,3.554,1,10,-0.1275,-0.411875,1,0,0,7.6043,Pegmatite_rect,6,7.604,1,15,0,15,0,1,,,,,,,,,,,,,
6672bf56d51710391ce2164d,SCR,2024-06-25_14h23.05.095,LearnStrategy,2023.2.3,Win32,15.01501502,7,2,1,,,,,,,,6,07,,,,,,,,,,,,,6,7.709,1,,,,,,-0.136875,-0.403125,1,0,0,7.7095,Pegmatite_rect,0,0,0,0,1,
6672bf56d51710391ce2164d,SCR,2024-06-25_14h23.05.095,LearnStrategy,2023.2.3,Win32,15.01501502,7,2,2,,,,,,,,7,04,,,,,,,,,,,,,3,20.561,0,,,,,,0.145,-0.261875,1,0,0,20.5612,Diorite_rect,1,0,1,0,1,
6672bf56d51710391ce2164d,SCR,2024-06-25_14h23.05.095,LearnStrategy,2023.2.3,Win32,15.01501502,7,2,3,,,,,,,,7,12,,,,,,,,,,,,,7,11.171,1,,,,,,0.086875,-0.385625,1,0,0,11.1711,Peridotite_rect,2,0,2,0,1,
6672bf56d51710391ce2164d,SCR,2024-06-25_14h23.05.095,LearnStrategy,2023.2.3,Win32,15.01501502,7,2,4,,,,,,,,8,06,,,,,,,,,,,,,6,8.227,0,,,,,,-0.0825,-0.404375,1,0,0,8.2268,Pegmatite_rect,3,0,3,0,1,
6672bf56d51710391ce2164d,SCR,2024-06-25_14h23.05.095,LearnStrategy,2023.2.3,Win32,15.01501502,7,2,5,,,,,,,,1,07,,,,,,,,,,,,,3,2.765,0,,,,,,0.1375,-0.24625,1,0,0,2.765,Diorite_rect,4,0,4,0,1,
6672bf56d51710391ce2164d,SCR,2024-06-25_14h23.05.095,LearnStrategy,2023.2.3,Win32,15.01501502,7,2,6,,,,,,,,4,12,,,,,,,,,,,,,4,2.711,1,,,,,,0.449375,-0.23625,1,0,0,2.7106,Gabbro_rect,5,0,5,0,1,
6672bf56d51710391ce2164d,SCR,2024-06-25_14h23.05.095,LearnStrategy,2023.2.3,Win32,15.01501502,7,2,7,,,,,,,,5,02,,,,,,,,,,,,,5,1.516,1,,,,,,-0.330625,-0.4125,1,0,0,1.5161,Obsidian_rect,6,0,6,0,1,
6672bf56d51710391ce2164d,SCR,2024-06-25_14h23.05.095,LearnStrategy,2023.2.3,Win32,15.01501502,7,2,8,,,,,,,,6,13,,,,,,,,,,,,,6,14.653,1,,,,,,-0.091875,-0.393125,1,0,0,14.6535,Pegmatite_rect,7,0,7,0,1,
6672bf56d51710391ce2164d,SCR,2024-06-25_14h23.05.095,LearnStrategy,2023.2.3,Win32,15.01501502,7,2,9,,,,,,,,2,08,,,,,,,,,,,,,2,6.927,1,,,,,,-0.17625,-0.256875,1,0,0,6.9273,Basalt_rect,8,0,8,0,1,
6672bf56d51710391ce2164d,SCR,2024-06-25_14h23.05.095,LearnStrategy,2023.2.3,Win32,15.01501502,7,2,10,,,,,,,,3,12,,,,,,,,,,,,,3,8.198,1,,,,,,0.123125,-0.24875,1,0,0,8.1983,Diorite_rect,9,0,9,0,1,
6672bf56d51710391ce2164d,SCR,2024-06-25_14h23.05.095,LearnStrategy,2023.2.3,Win32,15.01501502,7,2,11,,,,,,,,2,02,,,,,,,,,,,,,8,4.497,0,,,,,,0.396875,-0.41125,1,0,0,4.4975,Pumice_rect,10,0,10,0,1,
6672bf56d51710391ce2164d,SCR,2024-06-25_14h23.05.095,LearnStrategy,2023.2.3,Win32,15.01501502,7,2,12,,,,,,,,4,05,,,,,,,,,,,,,7,10.177,0,,,,,,0.109375,-0.403125,1,0,0,10.1766,Peridotite_rect,11,0,11,0,1,
6672bf56d51710391ce2164d,SCR,2024-06-25_14h23.05.095,LearnStrategy,2023.2.3,Win32,15.01501502,7,2,13,,,,,,,,3,16,,,,,,,,,,,,,3,5.498,1,,,,,,0.15875,-0.23375,1,0,0,5.4981,Diorite_rect,12,0,12,0,1,
6672bf56d51710391ce2164d,SCR,2024-06-25_14h23.05.095,LearnStrategy,2023.2.3,Win32,15.01501502,7,2,14,,,,,,,,8,05,,,,,,,,,,,,,8,4.781,1,,,,,,0.34875,-0.405625,1,0,0,4.7808,Pumice_rect,13,0,13,0,1,
6672bf56d51710391ce2164d,SCR,2024-06-25_14h23.05.095,LearnStrategy,2023.2.3,Win32,15.01501502,7,2,15,,,,,,,,1,02,,,,,,,,,,,,,8,5.388,0,,,,,,0.365,-0.381875,1,0,0,5.3884,Pumice_rect,14,0,14,0,1,
6672bf56d51710391ce2164d,SCR,2024-06-25_14h23.05.095,LearnStrategy,2023.2.3,Win32,15.01501502,7,2,16,,,,,,,,5,06,,,,,,,,,,,,,5,1.762,1,,,,,,-0.416875,-0.40875,1,0,0,1.762,Obsidian_rect,15,0,15,0,1,
6672bf56d51710391ce2164d,SCR,2024-06-25_14h23.05.095,LearnStrategy,2023.2.3,Win32,15.01501502,8,1,1,-0.08875,-0.099375,1,0,0,1.2987,Andesite_01,1,01,3,4,1.299,6,09,-0.39125,-0.24875,1,0,0,2.562,Andesite_rect,1,2.562,1,0,0,0,0,1,,,,,,,,,,,,,
6672bf56d51710391ce2164d,SCR,2024-06-25_14h23.05.095,LearnStrategy,2023.2.3,Win32,15.01501502,8,1,2,0.075625,0.10375,1,0,0,4.2921,Andesite_06,1,06,4,5,4.292,7,02,-0.360625,-0.245,1,0,0,1.9217,Andesite_rect,1,1.922,1,1,0,1,0,1,,,,,,,,,,,,,
6672bf56d51710391ce2164d,SCR,2024-06-25_14h23.05.095,LearnStrategy,2023.2.3,Win32,15.01501502,8,1,3,-0.54625,0.414375,1,0,0,2.9734,Obsidian_10,5,10,6,1,2.973,8,08,-0.42375,-0.384375,1,0,0,1.4004,Obsidian_rect,5,1.4,1,2,0,2,0,1,,,,,,,,,,,,,
6672bf56d51710391ce2164d,SCR,2024-06-25_14h23.05.095,LearnStrategy,2023.2.3,Win32,15.01501502,8,1,4,-0.400625,0.39,1,0,0,1.0858,Obsidian_14,5,14,6,2,1.086,1,16,-0.353125,-0.383125,1,0,0,1.8816,Obsidian_rect,5,1.882,1,3,0,3,0,1,,,,,,,,,,,,,
6672bf56d51710391ce2164d,SCR,2024-06-25_14h23.05.095,LearnStrategy,2023.2.3,Win32,15.01501502,8,1,5,-0.22125,0.105,1,0,0,2.3549,Obsidian_12,5,12,4,3,2.355,5,11,-0.36625,-0.40875,1,0,0,1.2155,Obsidian_rect,5,1.215,1,4,0,4,0,1,,,,,,,,,,,,,
6672bf56d51710391ce2164d,SCR,2024-06-25_14h23.05.095,LearnStrategy,2023.2.3,Win32,15.01501502,8,1,6,-0.543125,-0.095625,1,0,0,1.8501,Obsidian_11,5,11,3,1,1.85,3,09,-0.33875,-0.396875,1,0,0,1.2096,Obsidian_rect,5,1.21,1,5,0,5,0,1,,,,,,,,,,,,,
6672bf56d51710391ce2164d,SCR,2024-06-25_14h23.05.095,LearnStrategy,2023.2.3,Win32,15.01501502,8,1,7,0.389375,-0.411875,1,0,0,1.1118,Obsidian_04,5,04,1,7,1.112,4,03,-0.475625,-0.39625,1,0,0,1.1951,Obsidian_rect,5,1.195,1,6,0,6,0,1,,,,,,,,,,,,,
6672bf56d51710391ce2164d,SCR,2024-06-25_14h23.05.095,LearnStrategy,2023.2.3,Win32,15.01501502,8,1,8,0.576875,-0.24875,1,0,0,2.3634,Pumice_08,8,08,2,8,2.363,8,03,0.38625,-0.41375,1,0,0,2.1794,Pumice_rect,8,2.179,1,7,0,7,0,1,,,,,,,,,,,,,
6672bf56d51710391ce2164d,SCR,2024-06-25_14h23.05.095,LearnStrategy,2023.2.3,Win32,15.01501502,8,1,9,-0.260625,-0.079375,1,0,0,2.0413,Pumice_04,8,04,3,3,2.041,1,16,0.37375,-0.415,1,0,0,1.3782,Pumice_rect,8,1.378,1,8,0,8,0,1,,,,,,,,,,,,,
6672bf56d51710391ce2164d,SCR,2024-06-25_14h23.05.095,LearnStrategy,2023.2.3,Win32,15.01501502,8,1,10,0.250625,-0.095,1,0,0,1.707,Diorite_13,3,13,3,6,1.707,7,06,0.125625,-0.26,1,0,0,1.239,Diorite_rect,3,1.239,1,9,0,9,0,1,,,,,,,,,,,,,
6672bf56d51710391ce2164d,SCR,2024-06-25_14h23.05.095,LearnStrategy,2023.2.3,Win32,15.01501502,8,1,11,0.071875,-0.266875,1,0,0,2.4937,Gabbro_03,4,03,2,5,2.494,1,05,0.361875,-0.25,1,0,0,2.2161,Gabbro_rect,4,2.216,1,10,0,10,0,1,,,,,,,,,,,,,
6672bf56d51710391ce2164d,SCR,2024-06-25_14h23.05.095,LearnStrategy,2023.2.3,Win32,15.01501502,8,1,12,0.3525,-0.4225,1,0,0,3.1753,Obsidian_04,5,04,1,7,3.175,7,15,-0.41625,-0.415625,1,0,0,1.0222,Obsidian_rect,5,1.022,1,11,0,11,0,1,,,,,,,,,,,,,
6672bf56d51710391ce2164d,SCR,2024-06-25_14h23.05.095,LearnStrategy,2023.2.3,Win32,15.01501502,8,1,13,-0.396875,-0.104375,1,0,0,3.207,Obsidian_16,5,16,3,2,3.207,8,08,-0.451875,-0.38375,1,0,0,0.8807,Obsidian_rect,5,0.881,1,12,0,12,0,1,,,,,,,,,,,,,
6672bf56d51710391ce2164d,SCR,2024-06-25_14h23.05.095,LearnStrategy,2023.2.3,Win32,15.01501502,8,1,14,-0.4025,0.38,1,0,0,1.5068,Obsidian_14,5,14,6,2,1.507,4,09,-0.384375,-0.3875,1,0,0,2.5021,Obsidian_rect,5,2.502,1,13,0,13,0,1,,,,,,,,,,,,,
6672bf56d51710391ce2164d,SCR,2024-06-25_14h23.05.095,LearnStrategy,2023.2.3,Win32,15.01501502,8,1,15,-0.376875,-0.11125,1,0,0,1.2943,Obsidian_16,5,16,3,2,1.294,1,05,-0.445,-0.390625,1,0,0,1.3675,Obsidian_rect,5,1.367,1,14,0,14,0,1,,,,,,,,,,,,,
6672bf56d51710391ce2164d,SCR,2024-06-25_14h23.05.095,LearnStrategy,2023.2.3,Win32,15.01501502,8,1,16,-0.0875,0.24,1,0,0,3.3799,Pegmatite_03,6,03,5,4,3.38,2,12,-0.16875,-0.405,1,0,0,4.9915,Pegmatite_rect,6,4.992,1,15,0,15,0,1,,,,,,,,,,,,,
6672bf56d51710391ce2164d,SCR,2024-06-25_14h23.05.095,LearnStrategy,2023.2.3,Win32,15.01501502,8,2,1,,,,,,,,5,09,,,,,,,,,,,,,5,1.586,1,,,,,,-0.36625,-0.39,1,0,0,1.586,Obsidian_rect,0,0,0,0,1,
6672bf56d51710391ce2164d,SCR,2024-06-25_14h23.05.095,LearnStrategy,2023.2.3,Win32,15.01501502,8,2,2,,,,,,,,6,10,,,,,,,,,,,,,6,5.931,1,,,,,,-0.145,-0.39625,1,0,0,5.9311,Pegmatite_rect,1,0,1,0,1,
6672bf56d51710391ce2164d,SCR,2024-06-25_14h23.05.095,LearnStrategy,2023.2.3,Win32,15.01501502,8,2,3,,,,,,,,4,13,,,,,,,,,,,,,4,7.841,1,,,,,,0.405625,-0.235,1,0,0,7.8409,Gabbro_rect,2,0,2,0,1,
6672bf56d51710391ce2164d,SCR,2024-06-25_14h23.05.095,LearnStrategy,2023.2.3,Win32,15.01501502,8,2,4,,,,,,,,1,03,,,,,,,,,,,,,1,9.605,1,,,,,,-0.383125,-0.244375,1,0,0,9.6046,Andesite_rect,3,0,3,0,1,
6672bf56d51710391ce2164d,SCR,2024-06-25_14h23.05.095,LearnStrategy,2023.2.3,Win32,15.01501502,8,2,5,,,,,,,,3,08,,,,,,,,,,,,,3,4.473,1,,,,,,0.099375,-0.23875,1,0,0,4.4728,Diorite_rect,4,0,4,0,1,
6672bf56d51710391ce2164d,SCR,2024-06-25_14h23.05.095,LearnStrategy,2023.2.3,Win32,15.01501502,8,2,6,,,,,,,,3,10,,,,,,,,,,,,,3,14.88,1,,,,,,0.111875,-0.234375,1,0,0,14.8798,Diorite_rect,5,0,5,0,1,
6672bf56d51710391ce2164d,SCR,2024-06-25_14h23.05.095,LearnStrategy,2023.2.3,Win32,15.01501502,8,2,7,,,,,,,,5,05,,,,,,,,,,,,,3,5.145,0,,,,,,0.133125,-0.24875,1,0,0,5.1448,Diorite_rect,6,0,6,0,1,
6672bf56d51710391ce2164d,SCR,2024-06-25_14h23.05.095,LearnStrategy,2023.2.3,Win32,15.01501502,8,2,8,,,,,,,,8,09,,,,,,,,,,,,,8,7.908,1,,,,,,0.371875,-0.409375,1,0,0,7.9078,Pumice_rect,7,0,7,0,1,
6672bf56d51710391ce2164d,SCR,2024-06-25_14h23.05.095,LearnStrategy,2023.2.3,Win32,15.01501502,8,2,9,,,,,,,,2,06,,,,,,,,,,,,,2,9.995,1,,,,,,-0.11875,-0.25375,1,0,0,9.995,Basalt_rect,8,0,8,0,1,
6672bf56d51710391ce2164d,SCR,2024-06-25_14h23.05.095,LearnStrategy,2023.2.3,Win32,15.01501502,8,2,10,,,,,,,,2,04,,,,,,,,,,,,,2,1.9,1,,,,,,-0.155625,-0.24,1,0,0,1.9,Basalt_rect,9,0,9,0,1,
6672bf56d51710391ce2164d,SCR,2024-06-25_14h23.05.095,LearnStrategy,2023.2.3,Win32,15.01501502,8,2,11,,,,,,,,7,08,,,,,,,,,,,,,7,13.424,1,,,,,,0.1325,-0.395625,1,0,0,13.4241,Peridotite_rect,10,0,10,0,1,
6672bf56d51710391ce2164d,SCR,2024-06-25_14h23.05.095,LearnStrategy,2023.2.3,Win32,15.01501502,8,2,12,,,,,,,,1,09,,,,,,,,,,,,,1,8.597,1,,,,,,-0.406875,-0.245,1,0,0,8.5968,Andesite_rect,11,0,11,0,1,
6672bf56d51710391ce2164d,SCR,2024-06-25_14h23.05.095,LearnStrategy,2023.2.3,Win32,15.01501502,8,2,13,,,,,,,,4,01,,,,,,,,,,,,,1,1.57,0,,,,,,-0.34125,-0.254375,1,0,0,1.57,Andesite_rect,12,0,12,0,1,
6672bf56d51710391ce2164d,SCR,2024-06-25_14h23.05.095,LearnStrategy,2023.2.3,Win32,15.01501502,8,2,14,,,,,,,,8,14,,,,,,,,,,,,,8,5.964,1,,,,,,0.345625,-0.381875,1,0,0,5.9644,Pumice_rect,13,0,13,0,1,
6672bf56d51710391ce2164d,SCR,2024-06-25_14h23.05.095,LearnStrategy,2023.2.3,Win32,15.01501502,8,2,15,,,,,,,,6,11,,,,,,,,,,,,,6,2.747,1,,,,,,-0.07375,-0.386875,1,0,0,2.7471,Pegmatite_rect,14,0,14,0,1,
6672bf56d51710391ce2164d,SCR,2024-06-25_14h23.05.095,LearnStrategy,2023.2.3,Win32,15.01501502,8,2,16,,,,,,,,7,16,,,,,,,,,,,,,4,10.365,0,,,,,,0.4075,-0.2525,1,0,0,10.3648,Gabbro_rect,15,0,15,0,1,
6672bf56d51710391ce2164d,SCR,2024-06-25_14h23.05.095,LearnStrategy,2023.2.3,Win32,15.01501502,9,1,1,-0.24875,0.255,1,0,0,1.6605,Gabbro_08,4,08,5,3,1.66,7,14,0.366875,-0.25125,1,0,0,5.3202,Gabbro_rect,4,5.32,1,0,0,0,0,1,,,,,,,,,,,,,
6672bf56d51710391ce2164d,SCR,2024-06-25_14h23.05.095,LearnStrategy,2023.2.3,Win32,15.01501502,9,1,2,-0.385,-0.1,1,0,0,2.0822,Obsidian_16,5,16,3,2,2.082,7,07,-0.44375,-0.394375,1,0,0,0.8405,Obsidian_rect,5,0.84,1,1,0,1,0,1,,,,,,,,,,,,,
6672bf56d51710391ce2164d,SCR,2024-06-25_14h23.05.095,LearnStrategy,2023.2.3,Win32,15.01501502,9,1,3,-0.530625,-0.099375,1,0,0,0.9482,Obsidian_11,5,11,3,1,0.948,2,01,-0.41875,-0.391875,1,0,0,1.9396,Obsidian_rect,5,1.94,1,2,0,2,0,1,,,,,,,,,,,,,
6672bf56d51710391ce2164d,SCR,2024-06-25_14h23.05.095,LearnStrategy,2023.2.3,Win32,15.01501502,9,1,4,-0.53375,0.396875,1,0,0,1.3491,Obsidian_10,5,10,6,1,1.349,1,10,-0.37625,-0.38375,1,0,0,2.0645,Obsidian_rect,5,2.064,1,3,0,3,0,1,,,,,,,,,,,,,
6672bf56d51710391ce2164d,SCR,2024-06-25_14h23.05.095,LearnStrategy,2023.2.3,Win32,15.01501502,9,1,5,-0.37,0.401875,1,0,0,1.1127,Obsidian_14,5,14,6,2,1.113,1,01,-0.3625,-0.38,1,0,0,1.3469,Obsidian_rect,5,1.347,1,4,0,4,0,1,,,,,,,,,,,,,
6672bf56d51710391ce2164d,SCR,2024-06-25_14h23.05.095,LearnStrategy,2023.2.3,Win32,15.01501502,9,1,6,0.34375,-0.40375,1,0,0,2.6443,Obsidian_04,5,04,1,7,2.644,3,06,-0.414375,-0.386875,1,0,0,1.6497,Obsidian_rect,5,1.65,1,5,0,5,0,1,,,,,,,,,,,,,
6672bf56d51710391ce2164d,SCR,2024-06-25_14h23.05.095,LearnStrategy,2023.2.3,Win32,15.01501502,9,1,7,-0.208125,-0.106875,1,0,0,5.3003,Pumice_04,8,04,3,3,5.3,4,14,0.360625,-0.390625,1,0,0,2.0302,Pumice_rect,8,2.03,1,6,0,6,0,1,,,,,,,,,,,,,
6672bf56d51710391ce2164d,SCR,2024-06-25_14h23.05.095,LearnStrategy,2023.2.3,Win32,15.01501502,9,1,8,0.075,-0.405625,1,0,0,7.4912,Diorite_15,3,15,1,5,7.491,1,10,0.196875,-0.236875,1,0,0,4.3112,Diorite_rect,3,4.311,1,7,0,7,0,1,,,,,,,,,,,,,
6672bf56d51710391ce2164d,SCR,2024-06-25_14h23.05.095,LearnStrategy,2023.2.3,Win32,15.01501502,9,1,9,0.221875,0.08625,1,0,0,3.4316,Andesite_14,1,14,4,6,3.432,7,14,-0.381875,-0.236875,1,0,0,3.5281,Andesite_rect,1,3.528,1,8,0,8,0,1,,,,,,,,,,,,,
6672bf56d51710391ce2164d,SCR,2024-06-25_14h23.05.095,LearnStrategy,2023.2.3,Win32,15.01501502,9,1,10,-0.380625,-0.10125,1,0,0,2.4608,Obsidian_16,5,16,3,2,2.461,5,11,-0.366875,-0.398125,1,0,0,1.347,Obsidian_rect,5,1.347,1,9,0,9,0,1,,,,,,,,,,,,,
6672bf56d51710391ce2164d,SCR,2024-06-25_14h23.05.095,LearnStrategy,2023.2.3,Win32,15.01501502,9,1,11,-0.40875,0.405,1,0,0,1.4681,Obsidian_14,5,14,6,2,1.468,8,04,-0.368125,-0.38625,1,0,0,1.1674,Obsidian_rect,5,1.167,1,10,0,10,0,1,,,,,,,,,,,,,
6672bf56d51710391ce2164d,SCR,2024-06-25_14h23.05.095,LearnStrategy,2023.2.3,Win32,15.01501502,9,1,12,0.401875,-0.409375,1,0,0,1.2752,Obsidian_04,5,04,1,7,1.275,5,16,-0.34625,-0.386875,1,0,0,1.37,Obsidian_rect,5,1.37,1,11,0,11,0,1,,,,,,,,,,,,,
6672bf56d51710391ce2164d,SCR,2024-06-25_14h23.05.095,LearnStrategy,2023.2.3,Win32,15.01501502,9,1,13,-0.583125,0.403125,1,0,0,1.1492,Obsidian_10,5,10,6,1,1.149,4,16,-0.334375,-0.386875,1,0,0,3.9281,Obsidian_rect,5,3.928,1,12,0,12,0,1,,,,,,,,,,,,,
6672bf56d51710391ce2164d,SCR,2024-06-25_14h23.05.095,LearnStrategy,2023.2.3,Win32,15.01501502,9,1,14,-0.385,-0.400625,1,0,0,6.0768,Pegmatite_15,6,15,1,2,6.077,8,10,-0.160625,-0.406875,1,0,0,9.0372,Pegmatite_rect,6,9.037,1,13,0,13,0,1,,,,,,,,,,,,,
6672bf56d51710391ce2164d,SCR,2024-06-25_14h23.05.095,LearnStrategy,2023.2.3,Win32,15.01501502,9,1,15,-0.364375,-0.08125,1,0,0,1.8009,Obsidian_16,5,16,3,2,1.801,6,06,-0.434375,-0.39125,1,0,0,1.2008,Obsidian_rect,5,1.201,1,14,0,14,0,1,,,,,,,,,,,,,
6672bf56d51710391ce2164d,SCR,2024-06-25_14h23.05.095,LearnStrategy,2023.2.3,Win32,15.01501502,9,1,16,-0.565625,0.426875,1,0,0,1.3352,Obsidian_10,5,10,6,1,1.335,4,16,-0.410625,-0.391875,1,0,0,0.943,Obsidian_rect,5,0.943,1,15,0,15,0,1,,,,,,,,,,,,,
6672bf56d51710391ce2164d,SCR,2024-06-25_14h23.05.095,LearnStrategy,2023.2.3,Win32,15.01501502,9,2,1,,,,,,,,8,13,,,,,,,,,,,,,2,10.9,0,,,,,,-0.143125,-0.251875,1,0,0,10.8996,Basalt_rect,0,0,0,0,1,
6672bf56d51710391ce2164d,SCR,2024-06-25_14h23.05.095,LearnStrategy,2023.2.3,Win32,15.01501502,9,2,2,,,,,,,,1,04,,,,,,,,,,,,,7,8.404,0,,,,,,0.105625,-0.3975,1,0,0,8.404,Peridotite_rect,1,0,1,0,1,
6672bf56d51710391ce2164d,SCR,2024-06-25_14h23.05.095,LearnStrategy,2023.2.3,Win32,15.01501502,9,2,3,,,,,,,,8,02,,,,,,,,,,,,,7,8.775,0,,,,,,0.0825,-0.389375,1,0,0,8.775,Peridotite_rect,2,0,2,0,1,
6672bf56d51710391ce2164d,SCR,2024-06-25_14h23.05.095,LearnStrategy,2023.2.3,Win32,15.01501502,9,2,4,,,,,,,,5,07,,,,,,,,,,,,,5,1.578,1,,,,,,-0.376875,-0.38375,1,0,0,1.5776,Obsidian_rect,3,0,3,0,1,
6672bf56d51710391ce2164d,SCR,2024-06-25_14h23.05.095,LearnStrategy,2023.2.3,Win32,15.01501502,9,2,5,,,,,,,,4,15,,,,,,,,,,,,,3,9.263,0,,,,,,0.138125,-0.261875,1,0,0,9.263,Diorite_rect,4,0,4,0,1,
6672bf56d51710391ce2164d,SCR,2024-06-25_14h23.05.095,LearnStrategy,2023.2.3,Win32,15.01501502,9,2,6,,,,,,,,2,16,,,,,,,,,,,,,4,10.26,0,,,,,,0.433125,-0.2475,1,0,0,10.26,Gabbro_rect,5,0,5,0,1,
6672bf56d51710391ce2164d,SCR,2024-06-25_14h23.05.095,LearnStrategy,2023.2.3,Win32,15.01501502,9,2,7,,,,,,,,1,11,,,,,,,,,,,,,8,15.128,0,,,,,,0.340625,-0.40625,1,0,0,15.1275,Pumice_rect,6,0,6,0,1,
6672bf56d51710391ce2164d,SCR,2024-06-25_14h23.05.095,LearnStrategy,2023.2.3,Win32,15.01501502,9,2,8,,,,,,,,7,13,,,,,,,,,,,,,7,4.981,1,,,,,,0.09625,-0.395,1,0,0,4.9806,Peridotite_rect,7,0,7,0,1,
6672bf56d51710391ce2164d,SCR,2024-06-25_14h23.05.095,LearnStrategy,2023.2.3,Win32,15.01501502,9,2,9,,,,,,,,2,11,,,,,,,,,,,,,2,6.851,1,,,,,,-0.09,-0.25125,1,0,0,6.8513,Basalt_rect,8,0,8,0,1,
6672bf56d51710391ce2164d,SCR,2024-06-25_14h23.05.095,LearnStrategy,2023.2.3,Win32,15.01501502,9,2,10,,,,,,,,4,10,,,,,,,,,,,,,4,3.313,1,,,,,,0.36375,-0.245625,1,0,0,3.313,Gabbro_rect,9,0,9,0,1,
6672bf56d51710391ce2164d,SCR,2024-06-25_14h23.05.095,LearnStrategy,2023.2.3,Win32,15.01501502,9,2,11,,,,,,,,5,08,,,,,,,,,,,,,5,2.724,1,,,,,,-0.308125,-0.39,1,0,0,2.7241,Obsidian_rect,10,0,10,0,1,
6672bf56d51710391ce2164d,SCR,2024-06-25_14h23.05.095,LearnStrategy,2023.2.3,Win32,15.01501502,9,2,12,,,,,,,,3,02,,,,,,,,,,,,,3,7.217,1,,,,,,0.165625,-0.25375,1,0,0,7.2167,Diorite_rect,11,0,11,0,1,
6672bf56d51710391ce2164d,SCR,2024-06-25_14h23.05.095,LearnStrategy,2023.2.3,Win32,15.01501502,9,2,13,,,,,,,,6,08,,,,,,,,,,,,,6,6.163,1,,,,,,-0.106875,-0.41375,1,0,0,6.1634,Pegmatite_rect,12,0,12,0,1,
6672bf56d51710391ce2164d,SCR,2024-06-25_14h23.05.095,LearnStrategy,2023.2.3,Win32,15.01501502,9,2,14,,,,,,,,7,05,,,,,,,,,,,,,1,5.818,0,,,,,,-0.376875,-0.235,1,0,0,5.8175,Andesite_rect,13,0,13,0,1,
6672bf56d51710391ce2164d,SCR,2024-06-25_14h23.05.095,LearnStrategy,2023.2.3,Win32,15.01501502,9,2,15,,,,,,,,3,11,,,,,,,,,,,,,3,6.968,1,,,,,,0.13625,-0.24375,1,0,0,6.9676,Diorite_rect,14,0,14,0,1,
6672bf56d51710391ce2164d,SCR,2024-06-25_14h23.05.095,LearnStrategy,2023.2.3,Win32,15.01501502,9,2,16,,,,,,,,6,16,,,,,,,,,,,,,3,4.353,0,,,,,,0.1075,-0.233125,1,0,0,4.3533,Diorite_rect,15,0,15,0,1,
6672bf56d51710391ce2164d,SCR,2024-06-25_14h23.05.095,LearnStrategy,2023.2.3,Win32,15.01501502,,,,,,,,,,,,,,,,,,,,,,,,,,,,,,,,,,,,,,,,,,,,,0
6672bf56d51710391ce2164d,SCR,2024-06-25_14h23.05.095,LearnStrategy,2023.2.3,Win32,15.01501502,,,,,,,,,,,,,,,,,,,,,,,,,,,,,,,,,,,,,,,,,,,,,
6672bf56d51710391ce2164d,SCR,2024-06-25_14h23.05.095,LearnStrategy,2023.2.3,Win32,15.01501502,,,,,,,,,,,2,01,1,1,,,,,,,,,,,,,,,,,,,,,,,,,,,,,,,
6672bf56d51710391ce2164d,SCR,2024-06-25_14h23.05.095,LearnStrategy,2023.2.3,Win32,15.01501502,,,,,,,,,,,6,15,1,2,,,,,,,,,,,,,,,,,,,,,,,,,,,,,,,
6672bf56d51710391ce2164d,SCR,2024-06-25_14h23.05.095,LearnStrategy,2023.2.3,Win32,15.01501502,,,,,,,,,,,6,06,1,3,,,,,,,,,,,,,,,,,,,,,,,,,,,,,,,
6672bf56d51710391ce2164d,SCR,2024-06-25_14h23.05.095,LearnStrategy,2023.2.3,Win32,15.01501502,,,,,,,,,,,1,10,1,4,,,,,,,,,,,,,,,,,,,,,,,,,,,,,,,
6672bf56d51710391ce2164d,SCR,2024-06-25_14h23.05.095,LearnStrategy,2023.2.3,Win32,15.01501502,,,,,,,,,,,3,15,1,5,,,,,,,,,,,,,,,,,,,,,,,,,,,,,,,
6672bf56d51710391ce2164d,SCR,2024-06-25_14h23.05.095,LearnStrategy,2023.2.3,Win32,15.01501502,,,,,,,,,,,7,06,1,6,,,,,,,,,,,,,,,,,,,,,,,,,,,,,,,
6672bf56d51710391ce2164d,SCR,2024-06-25_14h23.05.095,LearnStrategy,2023.2.3,Win32,15.01501502,,,,,,,,,,,5,04,1,7,,,,,,,,,,,,,,,,,,,,,,,,,,,,,,,
6672bf56d51710391ce2164d,SCR,2024-06-25_14h23.05.095,LearnStrategy,2023.2.3,Win32,15.01501502,,,,,,,,,,,3,06,1,8,,,,,,,,,,,,,,,,,,,,,,,,,,,,,,,
6672bf56d51710391ce2164d,SCR,2024-06-25_14h23.05.095,LearnStrategy,2023.2.3,Win32,15.01501502,,,,,,,,,,,4,14,2,1,,,,,,,,,,,,,,,,,,,,,,,,,,,,,,,
6672bf56d51710391ce2164d,SCR,2024-06-25_14h23.05.095,LearnStrategy,2023.2.3,Win32,15.01501502,,,,,,,,,,,1,05,2,2,,,,,,,,,,,,,,,,,,,,,,,,,,,,,,,
6672bf56d51710391ce2164d,SCR,2024-06-25_14h23.05.095,LearnStrategy,2023.2.3,Win32,15.01501502,,,,,,,,,,,8,10,2,3,,,,,,,,,,,,,,,,,,,,,,,,,,,,,,,
6672bf56d51710391ce2164d,SCR,2024-06-25_14h23.05.095,LearnStrategy,2023.2.3,Win32,15.01501502,,,,,,,,,,,3,14,2,4,,,,,,,,,,,,,,,,,,,,,,,,,,,,,,,
6672bf56d51710391ce2164d,SCR,2024-06-25_14h23.05.095,LearnStrategy,2023.2.3,Win32,15.01501502,,,,,,,,,,,4,03,2,5,,,,,,,,,,,,,,,,,,,,,,,,,,,,,,,
6672bf56d51710391ce2164d,SCR,2024-06-25_14h23.05.095,LearnStrategy,2023.2.3,Win32,15.01501502,,,,,,,,,,,7,15,2,6,,,,,,,,,,,,,,,,,,,,,,,,,,,,,,,
6672bf56d51710391ce2164d,SCR,2024-06-25_14h23.05.095,LearnStrategy,2023.2.3,Win32,15.01501502,,,,,,,,,,,7,14,2,7,,,,,,,,,,,,,,,,,,,,,,,,,,,,,,,
6672bf56d51710391ce2164d,SCR,2024-06-25_14h23.05.095,LearnStrategy,2023.2.3,Win32,15.01501502,,,,,,,,,,,8,08,2,8,,,,,,,,,,,,,,,,,,,,,,,,,,,,,,,
6672bf56d51710391ce2164d,SCR,2024-06-25_14h23.05.095,LearnStrategy,2023.2.3,Win32,15.01501502,,,,,,,,,,,5,11,3,1,,,,,,,,,,,,,,,,,,,,,,,,,,,,,,,
6672bf56d51710391ce2164d,SCR,2024-06-25_14h23.05.095,LearnStrategy,2023.2.3,Win32,15.01501502,,,,,,,,,,,5,16,3,2,,,,,,,,,,,,,,,,,,,,,,,,,,,,,,,
6672bf56d51710391ce2164d,SCR,2024-06-25_14h23.05.095,LearnStrategy,2023.2.3,Win32,15.01501502,,,,,,,,,,,8,04,3,3,,,,,,,,,,,,,,,,,,,,,,,,,,,,,,,
6672bf56d51710391ce2164d,SCR,2024-06-25_14h23.05.095,LearnStrategy,2023.2.3,Win32,15.01501502,,,,,,,,,,,1,01,3,4,,,,,,,,,,,,,,,,,,,,,,,,,,,,,,,
6672bf56d51710391ce2164d,SCR,2024-06-25_14h23.05.095,LearnStrategy,2023.2.3,Win32,15.01501502,,,,,,,,,,,4,16,3,5,,,,,,,,,,,,,,,,,,,,,,,,,,,,,,,
6672bf56d51710391ce2164d,SCR,2024-06-25_14h23.05.095,LearnStrategy,2023.2.3,Win32,15.01501502,,,,,,,,,,,3,13,3,6,,,,,,,,,,,,,,,,,,,,,,,,,,,,,,,
6672bf56d51710391ce2164d,SCR,2024-06-25_14h23.05.095,LearnStrategy,2023.2.3,Win32,15.01501502,,,,,,,,,,,6,12,3,7,,,,,,,,,,,,,,,,,,,,,,,,,,,,,,,
6672bf56d51710391ce2164d,SCR,2024-06-25_14h23.05.095,LearnStrategy,2023.2.3,Win32,15.01501502,,,,,,,,,,,1,16,3,8,,,,,,,,,,,,,,,,,,,,,,,,,,,,,,,
6672bf56d51710391ce2164d,SCR,2024-06-25_14h23.05.095,LearnStrategy,2023.2.3,Win32,15.01501502,,,,,,,,,,,3,07,4,1,,,,,,,,,,,,,,,,,,,,,,,,,,,,,,,
6672bf56d51710391ce2164d,SCR,2024-06-25_14h23.05.095,LearnStrategy,2023.2.3,Win32,15.01501502,,,,,,,,,,,2,09,4,2,,,,,,,,,,,,,,,,,,,,,,,,,,,,,,,
6672bf56d51710391ce2164d,SCR,2024-06-25_14h23.05.095,LearnStrategy,2023.2.3,Win32,15.01501502,,,,,,,,,,,5,12,4,3,,,,,,,,,,,,,,,,,,,,,,,,,,,,,,,
6672bf56d51710391ce2164d,SCR,2024-06-25_14h23.05.095,LearnStrategy,2023.2.3,Win32,15.01501502,,,,,,,,,,,7,10,4,4,,,,,,,,,,,,,,,,,,,,,,,,,,,,,,,
6672bf56d51710391ce2164d,SCR,2024-06-25_14h23.05.095,LearnStrategy,2023.2.3,Win32,15.01501502,,,,,,,,,,,1,06,4,5,,,,,,,,,,,,,,,,,,,,,,,,,,,,,,,
6672bf56d51710391ce2164d,SCR,2024-06-25_14h23.05.095,LearnStrategy,2023.2.3,Win32,15.01501502,,,,,,,,,,,1,14,4,6,,,,,,,,,,,,,,,,,,,,,,,,,,,,,,,
6672bf56d51710391ce2164d,SCR,2024-06-25_14h23.05.095,LearnStrategy,2023.2.3,Win32,15.01501502,,,,,,,,,,,8,03,4,7,,,,,,,,,,,,,,,,,,,,,,,,,,,,,,,
6672bf56d51710391ce2164d,SCR,2024-06-25_14h23.05.095,LearnStrategy,2023.2.3,Win32,15.01501502,,,,,,,,,,,3,09,4,8,,,,,,,,,,,,,,,,,,,,,,,,,,,,,,,
6672bf56d51710391ce2164d,SCR,2024-06-25_14h23.05.095,LearnStrategy,2023.2.3,Win32,15.01501502,,,,,,,,,,,8,16,5,1,,,,,,,,,,,,,,,,,,,,,,,,,,,,,,,
6672bf56d51710391ce2164d,SCR,2024-06-25_14h23.05.095,LearnStrategy,2023.2.3,Win32,15.01501502,,,,,,,,,,,7,07,5,2,,,,,,,,,,,,,,,,,,,,,,,,,,,,,,,
6672bf56d51710391ce2164d,SCR,2024-06-25_14h23.05.095,LearnStrategy,2023.2.3,Win32,15.01501502,,,,,,,,,,,4,08,5,3,,,,,,,,,,,,,,,,,,,,,,,,,,,,,,,
6672bf56d51710391ce2164d,SCR,2024-06-25_14h23.05.095,LearnStrategy,2023.2.3,Win32,15.01501502,,,,,,,,,,,6,03,5,4,,,,,,,,,,,,,,,,,,,,,,,,,,,,,,,
6672bf56d51710391ce2164d,SCR,2024-06-25_14h23.05.095,LearnStrategy,2023.2.3,Win32,15.01501502,,,,,,,,,,,7,02,5,5,,,,,,,,,,,,,,,,,,,,,,,,,,,,,,,
6672bf56d51710391ce2164d,SCR,2024-06-25_14h23.05.095,LearnStrategy,2023.2.3,Win32,15.01501502,,,,,,,,,,,2,05,5,6,,,,,,,,,,,,,,,,,,,,,,,,,,,,,,,
6672bf56d51710391ce2164d,SCR,2024-06-25_14h23.05.095,LearnStrategy,2023.2.3,Win32,15.01501502,,,,,,,,,,,4,11,5,7,,,,,,,,,,,,,,,,,,,,,,,,,,,,,,,
6672bf56d51710391ce2164d,SCR,2024-06-25_14h23.05.095,LearnStrategy,2023.2.3,Win32,15.01501502,,,,,,,,,,,6,05,5,8,,,,,,,,,,,,,,,,,,,,,,,,,,,,,,,
6672bf56d51710391ce2164d,SCR,2024-06-25_14h23.05.095,LearnStrategy,2023.2.3,Win32,15.01501502,,,,,,,,,,,5,10,6,1,,,,,,,,,,,,,,,,,,,,,,,,,,,,,,,
6672bf56d51710391ce2164d,SCR,2024-06-25_14h23.05.095,LearnStrategy,2023.2.3,Win32,15.01501502,,,,,,,,,,,5,14,6,2,,,,,,,,,,,,,,,,,,,,,,,,,,,,,,,
6672bf56d51710391ce2164d,SCR,2024-06-25_14h23.05.095,LearnStrategy,2023.2.3,Win32,15.01501502,,,,,,,,,,,2,12,6,3,,,,,,,,,,,,,,,,,,,,,,,,,,,,,,,
6672bf56d51710391ce2164d,SCR,2024-06-25_14h23.05.095,LearnStrategy,2023.2.3,Win32,15.01501502,,,,,,,,,,,2,14,6,4,,,,,,,,,,,,,,,,,,,,,,,,,,,,,,,
6672bf56d51710391ce2164d,SCR,2024-06-25_14h23.05.095,LearnStrategy,2023.2.3,Win32,15.01501502,,,,,,,,,,,8,15,6,5,,,,,,,,,,,,,,,,,,,,,,,,,,,,,,,
6672bf56d51710391ce2164d,SCR,2024-06-25_14h23.05.095,LearnStrategy,2023.2.3,Win32,15.01501502,,,,,,,,,,,4,09,6,6,,,,,,,,,,,,,,,,,,,,,,,,,,,,,,,
6672bf56d51710391ce2164d,SCR,2024-06-25_14h23.05.095,LearnStrategy,2023.2.3,Win32,15.01501502,,,,,,,,,,,6,09,6,7,,,,,,,,,,,,,,,,,,,,,,,,,,,,,,,
6672bf56d51710391ce2164d,SCR,2024-06-25_14h23.05.095,LearnStrategy,2023.2.3,Win32,15.01501502,,,,,,,,,,,2,10,6,8,,,,,,,,,,,,,,,,,,,,,,,,,,,,,,,