participant,condition,date,expName,psychopyVersion,OS,frameRate,block,phase,trial,learn_mouse_2.x,learn_mouse_2.y,learn_mouse_2.leftButton,learn_mouse_2.midButton,learn_mouse_2.rightButton,learn_mouse_2.time,learn_mouse_2.clicked_name,cat,token,row,col,t_select,cat_mouse_l.x,cat_mouse_l.y,cat_mouse_l.leftButton,cat_mouse_l.midButton,cat_mouse_l.rightButton,cat_mouse_l.time,cat_mouse_l.clicked_name,resp,t_resp,corr,train_trials.thisRepN,train_trials.thisTrialN,train_trials.thisN,train_trials.thisIndex,train_trials.ran,cat_mouse_t.x,cat_mouse_t.y,cat_mouse_t.leftButton,cat_mouse_t.midButton,cat_mouse_t.rightButton,cat_mouse_t.time,cat_mouse_t.clicked_name,test_trials.thisRepN,test_trials.thisTrialN,test_trials.thisN,test_trials.thisIndex,test_trials.ran,Bonus
6673614ba412b0139c83fd21,TCR,2024-06-24_17h32.36.182,LearnStrategy,2023.2.3,Win32,59.88023952,,,,,,,,,,,,,,,,,,,,,,,,,,,,,,,,,,,,,,,,,,,
6673614ba412b0139c83fd21,TCR,2024-06-24_17h32.36.182,LearnStrategy,2023.2.3,Win32,59.88023952,1,1,1,-0.044166667,-0.004166667,1,0,0,7.2865,rock_grid_rect_2,6,07,-1,-1,7.286,0.13,-0.2425,1,0,0,24.4951,Diorite_rect,3,24.495,0,0,0,0,0,1,,,,,,,,,,,,,
6673614ba412b0139c83fd21,TCR,2024-06-24_17h32.36.182,LearnStrategy,2023.2.3,Win32,59.88023952,1,1,2,-0.059166667,-0.014166667,1,0,0,2.3959,rock_grid_rect_2,8,16,-1,-1,2.396,0.440833333,-0.26,1,0,0,5.15,Gabbro_rect,4,5.15,0,1,0,1,0,1,,,,,,,,,,,,,
6673614ba412b0139c83fd21,TCR,2024-06-24_17h32.36.182,LearnStrategy,2023.2.3,Win32,59.88023952,1,1,3,-0.0125,-0.005,1,0,0,1.0663,rock_grid_rect_2,6,13,-1,-1,1.066,-0.130833333,-0.240833333,1,0,0,6.7858,Basalt_rect,2,6.786,0,2,0,2,0,1,,,,,,,,,,,,,
6673614ba412b0139c83fd21,TCR,2024-06-24_17h32.36.182,LearnStrategy,2023.2.3,Win32,59.88023952,1,1,4,-0.010833333,-0.0025,1,0,0,0.8949,rock_grid_rect_2,8,06,-1,-1,0.895,0.38,-0.410833333,1,0,0,3.8662,Pumice_rect,8,3.866,1,3,0,3,0,1,,,,,,,,,,,,,
6673614ba412b0139c83fd21,TCR,2024-06-24_17h32.36.182,LearnStrategy,2023.2.3,Win32,59.88023952,1,1,5,-0.084166667,-0.02,1,0,0,0.9827,rock_grid_rect_2,7,13,-1,-1,0.983,0.4275,-0.2525,1,0,0,1.9311,Gabbro_rect,4,1.931,0,4,0,4,0,1,,,,,,,,,,,,,
6673614ba412b0139c83fd21,TCR,2024-06-24_17h32.36.182,LearnStrategy,2023.2.3,Win32,59.88023952,1,1,6,0.0375,0.005833333,1,0,0,0.766,rock_grid_rect_2,5,11,-1,-1,0.766,-0.400833333,-0.42,1,0,0,1.1471,Obsidian_rect,5,1.147,1,5,0,5,0,1,,,,,,,,,,,,,
6673614ba412b0139c83fd21,TCR,2024-06-24_17h32.36.182,LearnStrategy,2023.2.3,Win32,59.88023952,1,1,7,-0.073333333,0.011666667,1,0,0,0.8663,rock_grid_rect_2,1,11,-1,-1,0.866,-0.371666667,-0.231666667,1,0,0,1.464,Andesite_rect,1,1.464,1,6,0,6,0,1,,,,,,,,,,,,,
6673614ba412b0139c83fd21,TCR,2024-06-24_17h32.36.182,LearnStrategy,2023.2.3,Win32,59.88023952,1,1,8,-0.159166667,-0.013333333,1,0,0,0.9997,rock_grid_rect_2,2,12,-1,-1,1,0.205,-0.26,1,0,0,4.1329,Diorite_rect,3,4.133,0,7,0,7,0,1,,,,,,,,,,,,,
6673614ba412b0139c83fd21,TCR,2024-06-24_17h32.36.182,LearnStrategy,2023.2.3,Win32,59.88023952,1,1,9,-0.0675,0.010833333,1,0,0,1.1161,rock_grid_rect_2,2,02,-1,-1,1.116,-0.126666667,-0.2625,1,0,0,1.4809,Basalt_rect,2,1.481,1,8,0,8,0,1,,,,,,,,,,,,,
6673614ba412b0139c83fd21,TCR,2024-06-24_17h32.36.182,LearnStrategy,2023.2.3,Win32,59.88023952,1,1,10,-0.0425,-0.0075,1,0,0,0.5661,rock_grid_rect_2,3,14,-1,-1,0.566,0.135,-0.265833333,1,0,0,0.9138,Diorite_rect,3,0.914,1,9,0,9,0,1,,,,,,,,,,,,,
6673614ba412b0139c83fd21,TCR,2024-06-24_17h32.36.182,LearnStrategy,2023.2.3,Win32,59.88023952,1,1,11,-0.078333333,-0.0075,1,0,0,1.0166,rock_grid_rect_2,5,06,-1,-1,1.017,-0.42,-0.38,1,0,0,1.7143,Obsidian_rect,5,1.714,1,10,0,10,0,1,,,,,,,,,,,,,
6673614ba412b0139c83fd21,TCR,2024-06-24_17h32.36.182,LearnStrategy,2023.2.3,Win32,59.88023952,1,1,12,-0.035,0.005,1,0,0,0.7658,rock_grid_rect_2,1,02,-1,-1,0.766,-0.355833333,-0.2375,1,0,0,3.7162,Andesite_rect,1,3.716,1,11,0,11,0,1,,,,,,,,,,,,,
6673614ba412b0139c83fd21,TCR,2024-06-24_17h32.36.182,LearnStrategy,2023.2.3,Win32,59.88023952,1,1,13,-0.0125,0.006666667,1,0,0,0.4491,rock_grid_rect_2,3,07,-1,-1,0.449,0.105,-0.231666667,1,0,0,1.6308,Diorite_rect,3,1.631,1,12,0,12,0,1,,,,,,,,,,,,,
6673614ba412b0139c83fd21,TCR,2024-06-24_17h32.36.182,LearnStrategy,2023.2.3,Win32,59.88023952,1,1,14,-0.038333333,0.006666667,1,0,0,0.8661,rock_grid_rect_2,4,01,-1,-1,0.866,-0.126666667,-0.270833333,1,0,0,10.238,Basalt_rect,2,10.238,0,13,0,13,0,1,,,,,,,,,,,,,
6673614ba412b0139c83fd21,TCR,2024-06-24_17h32.36.182,LearnStrategy,2023.2.3,Win32,59.88023952,1,1,15,0.013333333,0.0125,1,0,0,1.1495,rock_grid_rect_2,4,12,-1,-1,1.15,0.421666667,-0.248333333,1,0,0,1.1303,Gabbro_rect,4,1.13,1,14,0,14,0,1,,,,,,,,,,,,,
6673614ba412b0139c83fd21,TCR,2024-06-24_17h32.36.182,LearnStrategy,2023.2.3,Win32,59.88023952,1,1,16,0.008333333,-0.015,1,0,0,0.7163,rock_grid_rect_2,7,07,-1,-1,0.716,0.455833333,-0.253333333,1,0,0,3.8828,Gabbro_rect,4,3.883,0,15,0,15,0,1,,,,,,,,,,,,,
6673614ba412b0139c83fd21,TCR,2024-06-24_17h32.36.182,LearnStrategy,2023.2.3,Win32,59.88023952,1,2,1,,,,,,,,7,06,,,,,,,,,,,7,22.881,1,,,,,,0.174166667,-0.414166667,1,0,0,22.8813,Peridotite_rect,0,0,0,0,1,
6673614ba412b0139c83fd21,TCR,2024-06-24_17h32.36.182,LearnStrategy,2023.2.3,Win32,59.88023952,1,2,2,,,,,,,,6,15,,,,,,,,,,,6,91.972,1,,,,,,-0.113333333,-0.388333333,1,0,0,91.9716,Pegmatite_rect,1,0,1,0,1,
6673614ba412b0139c83fd21,TCR,2024-06-24_17h32.36.182,LearnStrategy,2023.2.3,Win32,59.88023952,1,2,3,,,,,,,,1,03,,,,,,,,,,,1,1.964,1,,,,,,-0.385833333,-0.233333333,1,0,0,1.9639,Andesite_rect,2,0,2,0,1,
6673614ba412b0139c83fd21,TCR,2024-06-24_17h32.36.182,LearnStrategy,2023.2.3,Win32,59.88023952,1,2,4,,,,,,,,5,04,,,,,,,,,,,5,2.748,1,,,,,,-0.391666667,-0.410833333,1,0,0,2.7481,Obsidian_rect,3,0,3,0,1,
6673614ba412b0139c83fd21,TCR,2024-06-24_17h32.36.182,LearnStrategy,2023.2.3,Win32,59.88023952,1,2,5,,,,,,,,4,11,,,,,,,,,,,2,35.342,0,,,,,,-0.130833333,-0.2525,1,0,0,35.3418,Basalt_rect,4,0,4,0,1,
6673614ba412b0139c83fd21,TCR,2024-06-24_17h32.36.182,LearnStrategy,2023.2.3,Win32,59.88023952,1,2,6,,,,,,,,3,09,,,,,,,,,,,3,1.013,1,,,,,,0.125833333,-0.245833333,1,0,0,1.0135,Diorite_rect,5,0,5,0,1,
6673614ba412b0139c83fd21,TCR,2024-06-24_17h32.36.182,LearnStrategy,2023.2.3,Win32,59.88023952,1,2,7,,,,,,,,2,16,,,,,,,,,,,8,45.067,0,,,,,,0.395,-0.399166667,1,0,0,45.0665,Pumice_rect,6,0,6,0,1,
6673614ba412b0139c83fd21,TCR,2024-06-24_17h32.36.182,LearnStrategy,2023.2.3,Win32,59.88023952,1,2,8,,,,,,,,5,05,,,,,,,,,,,5,1.797,1,,,,,,-0.33,-0.39,1,0,0,1.7971,Obsidian_rect,7,0,7,0,1,
6673614ba412b0139c83fd21,TCR,2024-06-24_17h32.36.182,LearnStrategy,2023.2.3,Win32,59.88023952,1,2,9,,,,,,,,8,05,,,,,,,,,,,8,1.163,1,,,,,,0.4125,-0.388333333,1,0,0,1.1627,Pumice_rect,8,0,8,0,1,
6673614ba412b0139c83fd21,TCR,2024-06-24_17h32.36.182,LearnStrategy,2023.2.3,Win32,59.88023952,1,2,10,,,,,,,,2,08,,,,,,,,,,,2,95.975,1,,,,,,-0.131666667,-0.241666667,1,0,0,95.9747,Basalt_rect,9,0,9,0,1,
6673614ba412b0139c83fd21,TCR,2024-06-24_17h32.36.182,LearnStrategy,2023.2.3,Win32,59.88023952,1,2,11,,,,,,,,1,07,,,,,,,,,,,3,3.565,0,,,,,,0.124166667,-0.243333333,1,0,0,3.5652,Diorite_rect,10,0,10,0,1,
6673614ba412b0139c83fd21,TCR,2024-06-24_17h32.36.182,LearnStrategy,2023.2.3,Win32,59.88023952,1,2,12,,,,,,,,8,14,,,,,,,,,,,8,0.929,1,,,,,,0.385,-0.383333333,1,0,0,0.929,Pumice_rect,11,0,11,0,1,
6673614ba412b0139c83fd21,TCR,2024-06-24_17h32.36.182,LearnStrategy,2023.2.3,Win32,59.88023952,1,2,13,,,,,,,,4,03,,,,,,,,,,,4,2.648,1,,,,,,0.395833333,-0.251666667,1,0,0,2.6484,Gabbro_rect,12,0,12,0,1,
6673614ba412b0139c83fd21,TCR,2024-06-24_17h32.36.182,LearnStrategy,2023.2.3,Win32,59.88023952,1,2,14,,,,,,,,6,03,,,,,,,,,,,7,3.048,0,,,,,,0.0925,-0.404166667,1,0,0,3.0483,Peridotite_rect,13,0,13,0,1,
6673614ba412b0139c83fd21,TCR,2024-06-24_17h32.36.182,LearnStrategy,2023.2.3,Win32,59.88023952,1,2,15,,,,,,,,7,16,,,,,,,,,,,7,0.896,1,,,,,,0.093333333,-0.401666667,1,0,0,0.8959,Peridotite_rect,14,0,14,0,1,
6673614ba412b0139c83fd21,TCR,2024-06-24_17h32.36.182,LearnStrategy,2023.2.3,Win32,59.88023952,1,2,16,,,,,,,,3,15,,,,,,,,,,,3,2.415,1,,,,,,0.114166667,-0.243333333,1,0,0,2.4148,Diorite_rect,15,0,15,0,1,
6673614ba412b0139c83fd21,TCR,2024-06-24_17h32.36.182,LearnStrategy,2023.2.3,Win32,59.88023952,2,1,1,-0.016666667,-0.015833333,1,0,0,1.25,rock_grid_rect_2,1,05,-1,-1,1.25,-0.353333333,-0.271666667,1,0,0,2.6485,Andesite_rect,1,2.649,1,0,0,0,0,1,,,,,,,,,,,,,
6673614ba412b0139c83fd21,TCR,2024-06-24_17h32.36.182,LearnStrategy,2023.2.3,Win32,59.88023952,2,1,2,-0.003333333,0.024166667,1,0,0,0.8994,rock_grid_rect_2,1,04,-1,-1,0.899,-0.41,-0.235833333,1,0,0,3.3657,Andesite_rect,1,3.366,1,1,0,1,0,1,,,,,,,,,,,,,
6673614ba412b0139c83fd21,TCR,2024-06-24_17h32.36.182,LearnStrategy,2023.2.3,Win32,59.88023952,2,1,3,-0.041666667,0.004166667,1,0,0,1.0661,rock_grid_rect_2,7,12,-1,-1,1.066,0.158333333,-0.3875,1,0,0,1.0637,Peridotite_rect,7,1.064,1,2,0,2,0,1,,,,,,,,,,,,,
6673614ba412b0139c83fd21,TCR,2024-06-24_17h32.36.182,LearnStrategy,2023.2.3,Win32,59.88023952,2,1,4,0.010833333,0,1,0,0,0.9665,rock_grid_rect_2,3,12,-1,-1,0.966,0.135,-0.259166667,1,0,0,1.0974,Diorite_rect,3,1.097,1,3,0,3,0,1,,,,,,,,,,,,,
6673614ba412b0139c83fd21,TCR,2024-06-24_17h32.36.182,LearnStrategy,2023.2.3,Win32,59.88023952,2,1,5,0.066666667,-0.005,1,0,0,0.9668,rock_grid_rect_2,2,02,-1,-1,0.967,-0.12,-0.244166667,1,0,0,1.2137,Basalt_rect,2,1.214,1,4,0,4,0,1,,,,,,,,,,,,,
6673614ba412b0139c83fd21,TCR,2024-06-24_17h32.36.182,LearnStrategy,2023.2.3,Win32,59.88023952,2,1,6,0.040833333,0.0125,1,0,0,0.7997,rock_grid_rect_2,1,05,-1,-1,0.8,-0.4775,-0.2625,1,0,0,3.4987,Andesite_rect,1,3.499,1,5,0,5,0,1,,,,,,,,,,,,,
6673614ba412b0139c83fd21,TCR,2024-06-24_17h32.36.182,LearnStrategy,2023.2.3,Win32,59.88023952,2,1,7,0.0025,-0.015833333,1,0,0,0.7159,rock_grid_rect_2,2,12,-1,-1,0.716,-0.096666667,-0.238333333,1,0,0,2.098,Basalt_rect,2,2.098,1,6,0,6,0,1,,,,,,,,,,,,,
6673614ba412b0139c83fd21,TCR,2024-06-24_17h32.36.182,LearnStrategy,2023.2.3,Win32,59.88023952,2,1,8,0.005,-0.011666667,1,0,0,0.7495,rock_grid_rect_2,4,01,-1,-1,0.75,0.14,-0.403333333,1,0,0,3.3489,Peridotite_rect,7,3.349,0,7,0,7,0,1,,,,,,,,,,,,,
6673614ba412b0139c83fd21,TCR,2024-06-24_17h32.36.182,LearnStrategy,2023.2.3,Win32,59.88023952,2,1,9,0.071666667,0.008333333,1,0,0,0.7827,rock_grid_rect_2,6,12,-1,-1,0.783,0.141666667,-0.235833333,1,0,0,1.2803,Diorite_rect,3,1.28,0,8,0,8,0,1,,,,,,,,,,,,,
6673614ba412b0139c83fd21,TCR,2024-06-24_17h32.36.182,LearnStrategy,2023.2.3,Win32,59.88023952,2,1,10,0.074166667,0.011666667,1,0,0,0.6829,rock_grid_rect_2,5,16,-1,-1,0.683,-0.450833333,-0.4075,1,0,0,1.2305,Obsidian_rect,5,1.231,1,9,0,9,0,1,,,,,,,,,,,,,
6673614ba412b0139c83fd21,TCR,2024-06-24_17h32.36.182,LearnStrategy,2023.2.3,Win32,59.88023952,2,1,11,0.05,-0.000833333,1,0,0,0.683,rock_grid_rect_2,2,02,-1,-1,0.683,-0.1275,-0.244166667,1,0,0,1.0473,Basalt_rect,2,1.047,1,10,0,10,0,1,,,,,,,,,,,,,
6673614ba412b0139c83fd21,TCR,2024-06-24_17h32.36.182,LearnStrategy,2023.2.3,Win32,59.88023952,2,1,12,-0.05,-0.015,1,0,0,0.6829,rock_grid_rect_2,6,05,-1,-1,0.683,-0.0975,-0.415,1,0,0,2.2649,Pegmatite_rect,6,2.265,1,11,0,11,0,1,,,,,,,,,,,,,
6673614ba412b0139c83fd21,TCR,2024-06-24_17h32.36.182,LearnStrategy,2023.2.3,Win32,59.88023952,2,1,13,0.051666667,-0.005833333,1,0,0,0.616,rock_grid_rect_2,4,09,-1,-1,0.616,-0.134166667,-0.235833333,1,0,0,7.4856,Basalt_rect,2,7.486,0,12,0,12,0,1,,,,,,,,,,,,,
6673614ba412b0139c83fd21,TCR,2024-06-24_17h32.36.182,LearnStrategy,2023.2.3,Win32,59.88023952,2,1,14,0.05,0.0125,1,0,0,0.9993,rock_grid_rect_2,6,07,-1,-1,0.999,-0.096666667,-0.420833333,1,0,0,1.8645,Pegmatite_rect,6,1.865,1,13,0,13,0,1,,,,,,,,,,,,,
6673614ba412b0139c83fd21,TCR,2024-06-24_17h32.36.182,LearnStrategy,2023.2.3,Win32,59.88023952,2,1,15,0.033333333,0.0125,1,0,0,0.5494,rock_grid_rect_2,4,09,-1,-1,0.549,0.373333333,-0.264166667,1,0,0,1.7476,Gabbro_rect,4,1.748,1,14,0,14,0,1,,,,,,,,,,,,,
6673614ba412b0139c83fd21,TCR,2024-06-24_17h32.36.182,LearnStrategy,2023.2.3,Win32,59.88023952,2,1,16,0.076666667,0.020833333,1,0,0,0.6158,rock_grid_rect_2,8,13,-1,-1,0.616,0.395,-0.41,1,0,0,0.8801,Pumice_rect,8,0.88,1,15,0,15,0,1,,,,,,,,,,,,,
6673614ba412b0139c83fd21,TCR,2024-06-24_17h32.36.182,LearnStrategy,2023.2.3,Win32,59.88023952,2,2,1,,,,,,,,6,16,,,,,,,,,,,6,2.482,1,,,,,,-0.079166667,-0.381666667,1,0,0,2.4816,Pegmatite_rect,0,0,0,0,1,
6673614ba412b0139c83fd21,TCR,2024-06-24_17h32.36.182,LearnStrategy,2023.2.3,Win32,59.88023952,2,2,2,,,,,,,,2,10,,,,,,,,,,,2,1.347,1,,,,,,-0.155,-0.231666667,1,0,0,1.3473,Basalt_rect,1,0,1,0,1,
6673614ba412b0139c83fd21,TCR,2024-06-24_17h32.36.182,LearnStrategy,2023.2.3,Win32,59.88023952,2,2,3,,,,,,,,4,13,,,,,,,,,,,1,3.832,0,,,,,,-0.4125,-0.250833333,1,0,0,3.8325,Andesite_rect,2,0,2,0,1,
6673614ba412b0139c83fd21,TCR,2024-06-24_17h32.36.182,LearnStrategy,2023.2.3,Win32,59.88023952,2,2,4,,,,,,,,1,16,,,,,,,,,,,1,1.764,1,,,,,,-0.363333333,-0.261666667,1,0,0,1.7637,Andesite_rect,3,0,3,0,1,
6673614ba412b0139c83fd21,TCR,2024-06-24_17h32.36.182,LearnStrategy,2023.2.3,Win32,59.88023952,2,2,5,,,,,,,,7,15,,,,,,,,,,,7,1.564,1,,,,,,0.1075,-0.401666667,1,0,0,1.5639,Peridotite_rect,4,0,4,0,1,
6673614ba412b0139c83fd21,TCR,2024-06-24_17h32.36.182,LearnStrategy,2023.2.3,Win32,59.88023952,2,2,6,,,,,,,,4,10,,,,,,,,,,,4,1.748,1,,,,,,0.4225,-0.250833333,1,0,0,1.7475,Gabbro_rect,5,0,5,0,1,
6673614ba412b0139c83fd21,TCR,2024-06-24_17h32.36.182,LearnStrategy,2023.2.3,Win32,59.88023952,2,2,7,,,,,,,,3,02,,,,,,,,,,,3,1.113,1,,,,,,0.094166667,-0.25,1,0,0,1.1131,Diorite_rect,6,0,6,0,1,
6673614ba412b0139c83fd21,TCR,2024-06-24_17h32.36.182,LearnStrategy,2023.2.3,Win32,59.88023952,2,2,8,,,,,,,,8,15,,,,,,,,,,,8,1.481,1,,,,,,0.428333333,-0.38,1,0,0,1.4807,Pumice_rect,7,0,7,0,1,
6673614ba412b0139c83fd21,TCR,2024-06-24_17h32.36.182,LearnStrategy,2023.2.3,Win32,59.88023952,2,2,9,,,,,,,,3,06,,,,,,,,,,,3,9.838,1,,,,,,0.105,-0.2425,1,0,0,9.8377,Diorite_rect,8,0,8,0,1,
6673614ba412b0139c83fd21,TCR,2024-06-24_17h32.36.182,LearnStrategy,2023.2.3,Win32,59.88023952,2,2,10,,,,,,,,8,04,,,,,,,,,,,8,1.58,1,,,,,,0.369166667,-0.394166667,1,0,0,1.5804,Pumice_rect,9,0,9,0,1,
6673614ba412b0139c83fd21,TCR,2024-06-24_17h32.36.182,LearnStrategy,2023.2.3,Win32,59.88023952,2,2,11,,,,,,,,7,02,,,,,,,,,,,7,1.163,1,,,,,,0.145,-0.4025,1,0,0,1.1634,Peridotite_rect,10,0,10,0,1,
6673614ba412b0139c83fd21,TCR,2024-06-24_17h32.36.182,LearnStrategy,2023.2.3,Win32,59.88023952,2,2,12,,,,,,,,2,05,,,,,,,,,,,2,0.896,1,,,,,,-0.124166667,-0.229166667,1,0,0,0.8964,Basalt_rect,11,0,11,0,1,
6673614ba412b0139c83fd21,TCR,2024-06-24_17h32.36.182,LearnStrategy,2023.2.3,Win32,59.88023952,2,2,13,,,,,,,,6,10,,,,,,,,,,,7,1.13,0,,,,,,0.1,-0.395,1,0,0,1.1302,Peridotite_rect,12,0,12,0,1,
6673614ba412b0139c83fd21,TCR,2024-06-24_17h32.36.182,LearnStrategy,2023.2.3,Win32,59.88023952,2,2,14,,,,,,,,5,02,,,,,,,,,,,5,1.097,1,,,,,,-0.37,-0.3875,1,0,0,1.097,Obsidian_rect,13,0,13,0,1,
6673614ba412b0139c83fd21,TCR,2024-06-24_17h32.36.182,LearnStrategy,2023.2.3,Win32,59.88023952,2,2,15,,,,,,,,1,01,,,,,,,,,,,2,2.248,0,,,,,,-0.1275,-0.258333333,1,0,0,2.2479,Basalt_rect,14,0,14,0,1,
6673614ba412b0139c83fd21,TCR,2024-06-24_17h32.36.182,LearnStrategy,2023.2.3,Win32,59.88023952,2,2,16,,,,,,,,5,14,,,,,,,,,,,5,1.847,1,,,,,,-0.4175,-0.414166667,1,0,0,1.8472,Obsidian_rect,15,0,15,0,1,
6673614ba412b0139c83fd21,TCR,2024-06-24_17h32.36.182,LearnStrategy,2023.2.3,Win32,59.88023952,3,1,1,0.0275,0,1,0,0,0.5162,rock_grid_rect_2,4,08,-1,-1,0.516,0.400833333,-0.2325,1,0,0,2.4316,Gabbro_rect,4,2.432,1,0,0,0,0,1,,,,,,,,,,,,,
6673614ba412b0139c83fd21,TCR,2024-06-24_17h32.36.182,LearnStrategy,2023.2.3,Win32,59.88023952,3,1,2,0.065833333,-0.0025,1,0,0,0.8495,rock_grid_rect_2,6,09,-1,-1,0.85,0.155,-0.4175,1,0,0,1.1307,Peridotite_rect,7,1.131,0,1,0,1,0,1,,,,,,,,,,,,,
6673614ba412b0139c83fd21,TCR,2024-06-24_17h32.36.182,LearnStrategy,2023.2.3,Win32,59.88023952,3,1,3,-0.086666667,0.000833333,1,0,0,0.7831,rock_grid_rect_2,1,02,-1,-1,0.783,-0.376666667,-0.255833333,1,0,0,1.9143,Andesite_rect,1,1.914,1,2,0,2,0,1,,,,,,,,,,,,,
6673614ba412b0139c83fd21,TCR,2024-06-24_17h32.36.182,LearnStrategy,2023.2.3,Win32,59.88023952,3,1,4,0.0325,0.0225,1,0,0,0.6658,rock_grid_rect_2,4,12,-1,-1,0.666,0.383333333,-0.250833333,1,0,0,1.4154,Gabbro_rect,4,1.415,1,3,0,3,0,1,,,,,,,,,,,,,
6673614ba412b0139c83fd21,TCR,2024-06-24_17h32.36.182,LearnStrategy,2023.2.3,Win32,59.88023952,3,1,5,0.08,-0.015,1,0,0,0.8664,rock_grid_rect_2,1,05,-1,-1,0.866,-0.406666667,-0.254166667,1,0,0,1.6642,Andesite_rect,1,1.664,1,4,0,4,0,1,,,,,,,,,,,,,
6673614ba412b0139c83fd21,TCR,2024-06-24_17h32.36.182,LearnStrategy,2023.2.3,Win32,59.88023952,3,1,6,0.086666667,-0.005833333,1,0,0,0.8663,rock_grid_rect_2,8,02,-1,-1,0.866,-0.1275,-0.416666667,1,0,0,2.3317,Pegmatite_rect,6,2.332,0,5,0,5,0,1,,,,,,,,,,,,,
6673614ba412b0139c83fd21,TCR,2024-06-24_17h32.36.182,LearnStrategy,2023.2.3,Win32,59.88023952,3,1,7,-0.011666667,-0.019166667,1,0,0,0.6991,rock_grid_rect_2,1,09,-1,-1,0.699,-0.36,-0.255,1,0,0,1.2975,Andesite_rect,1,1.298,1,6,0,6,0,1,,,,,,,,,,,,,
6673614ba412b0139c83fd21,TCR,2024-06-24_17h32.36.182,LearnStrategy,2023.2.3,Win32,59.88023952,3,1,8,0.020833333,0.0075,1,0,0,0.5995,rock_grid_rect_2,5,10,-1,-1,0.6,-0.375833333,-0.41,1,0,0,0.9804,Obsidian_rect,5,0.98,1,7,0,7,0,1,,,,,,,,,,,,,
6673614ba412b0139c83fd21,TCR,2024-06-24_17h32.36.182,LearnStrategy,2023.2.3,Win32,59.88023952,3,1,9,0.0225,-0.018333333,1,0,0,0.733,rock_grid_rect_2,2,11,-1,-1,0.733,-0.145,-0.271666667,1,0,0,2.2814,Basalt_rect,2,2.281,1,8,0,8,0,1,,,,,,,,,,,,,
6673614ba412b0139c83fd21,TCR,2024-06-24_17h32.36.182,LearnStrategy,2023.2.3,Win32,59.88023952,3,1,10,0.019166667,-0.001666667,1,0,0,0.7491,rock_grid_rect_2,2,12,-1,-1,0.749,-0.091666667,-0.25,1,0,0,1.1311,Basalt_rect,2,1.131,1,9,0,9,0,1,,,,,,,,,,,,,
6673614ba412b0139c83fd21,TCR,2024-06-24_17h32.36.182,LearnStrategy,2023.2.3,Win32,59.88023952,3,1,11,0.028333333,0.005,1,0,0,0.7328,rock_grid_rect_2,1,14,-1,-1,0.733,-0.371666667,-0.245,1,0,0,1.6477,Andesite_rect,1,1.648,1,10,0,10,0,1,,,,,,,,,,,,,
6673614ba412b0139c83fd21,TCR,2024-06-24_17h32.36.182,LearnStrategy,2023.2.3,Win32,59.88023952,3,1,12,0,-0.010833333,1,0,0,0.6164,rock_grid_rect_2,6,11,-1,-1,0.616,-0.153333333,-0.380833333,1,0,0,1.1473,Pegmatite_rect,6,1.147,1,11,0,11,0,1,,,,,,,,,,,,,
6673614ba412b0139c83fd21,TCR,2024-06-24_17h32.36.182,LearnStrategy,2023.2.3,Win32,59.88023952,3,1,13,0.033333333,-0.0125,1,0,0,0.883,rock_grid_rect_2,3,07,-1,-1,0.883,0.161666667,-0.26,1,0,0,0.9636,Diorite_rect,3,0.964,1,12,0,12,0,1,,,,,,,,,,,,,
6673614ba412b0139c83fd21,TCR,2024-06-24_17h32.36.182,LearnStrategy,2023.2.3,Win32,59.88023952,3,1,14,0.0175,0.004166667,1,0,0,0.7161,rock_grid_rect_2,6,13,-1,-1,0.716,-0.14,-0.391666667,1,0,0,1.6809,Pegmatite_rect,6,1.681,1,13,0,13,0,1,,,,,,,,,,,,,
6673614ba412b0139c83fd21,TCR,2024-06-24_17h32.36.182,LearnStrategy,2023.2.3,Win32,59.88023952,3,1,15,0.0475,0.005,1,0,0,0.7164,rock_grid_rect_2,7,07,-1,-1,0.716,0.1375,-0.3925,1,0,0,1.4307,Peridotite_rect,7,1.431,1,14,0,14,0,1,,,,,,,,,,,,,
6673614ba412b0139c83fd21,TCR,2024-06-24_17h32.36.182,LearnStrategy,2023.2.3,Win32,59.88023952,3,1,16,0.093333333,0.005833333,1,0,0,0.6329,rock_grid_rect_2,4,05,-1,-1,0.633,0.376666667,-0.239166667,1,0,0,1.4642,Gabbro_rect,4,1.464,1,15,0,15,0,1,,,,,,,,,,,,,
6673614ba412b0139c83fd21,TCR,2024-06-24_17h32.36.182,LearnStrategy,2023.2.3,Win32,59.88023952,3,2,1,,,,,,,,4,16,,,,,,,,,,,2,6.918,0,,,,,,-0.140833333,-0.266666667,1,0,0,6.9183,Basalt_rect,0,0,0,0,1,
6673614ba412b0139c83fd21,TCR,2024-06-24_17h32.36.182,LearnStrategy,2023.2.3,Win32,59.88023952,3,2,2,,,,,,,,7,10,,,,,,,,,,,7,1.114,1,,,,,,0.085,-0.395833333,1,0,0,1.1143,Peridotite_rect,1,0,1,0,1,
6673614ba412b0139c83fd21,TCR,2024-06-24_17h32.36.182,LearnStrategy,2023.2.3,Win32,59.88023952,3,2,3,,,,,,,,5,09,,,,,,,,,,,5,1.047,1,,,,,,-0.416666667,-0.3825,1,0,0,1.047,Obsidian_rect,2,0,2,0,1,
6673614ba412b0139c83fd21,TCR,2024-06-24_17h32.36.182,LearnStrategy,2023.2.3,Win32,59.88023952,3,2,4,,,,,,,,8,08,,,,,,,,,,,8,1.797,1,,,,,,0.39,-0.419166667,1,0,0,1.7971,Pumice_rect,3,0,3,0,1,
6673614ba412b0139c83fd21,TCR,2024-06-24_17h32.36.182,LearnStrategy,2023.2.3,Win32,59.88023952,3,2,5,,,,,,,,1,06,,,,,,,,,,,1,1.114,1,,,,,,-0.404166667,-0.243333333,1,0,0,1.1136,Andesite_rect,4,0,4,0,1,
6673614ba412b0139c83fd21,TCR,2024-06-24_17h32.36.182,LearnStrategy,2023.2.3,Win32,59.88023952,3,2,6,,,,,,,,1,10,,,,,,,,,,,1,3.633,1,,,,,,-0.4025,-0.243333333,1,0,0,3.6325,Andesite_rect,5,0,5,0,1,
6673614ba412b0139c83fd21,TCR,2024-06-24_17h32.36.182,LearnStrategy,2023.2.3,Win32,59.88023952,3,2,7,,,,,,,,5,07,,,,,,,,,,,5,1.18,1,,,,,,-0.404166667,-0.389166667,1,0,0,1.1802,Obsidian_rect,6,0,6,0,1,
6673614ba412b0139c83fd21,TCR,2024-06-24_17h32.36.182,LearnStrategy,2023.2.3,Win32,59.88023952,3,2,8,,,,,,,,2,06,,,,,,,,,,,2,1.564,1,,,,,,-0.135833333,-0.255,1,0,0,1.5639,Basalt_rect,7,0,7,0,1,
6673614ba412b0139c83fd21,TCR,2024-06-24_17h32.36.182,LearnStrategy,2023.2.3,Win32,59.88023952,3,2,9,,,,,,,,3,08,,,,,,,,,,,3,0.93,1,,,,,,0.123333333,-0.235833333,1,0,0,0.9301,Diorite_rect,8,0,8,0,1,
6673614ba412b0139c83fd21,TCR,2024-06-24_17h32.36.182,LearnStrategy,2023.2.3,Win32,59.88023952,3,2,10,,,,,,,,6,08,,,,,,,,,,,6,1.113,1,,,,,,-0.151666667,-0.4,1,0,0,1.1134,Pegmatite_rect,9,0,9,0,1,
6673614ba412b0139c83fd21,TCR,2024-06-24_17h32.36.182,LearnStrategy,2023.2.3,Win32,59.88023952,3,2,11,,,,,,,,4,14,,,,,,,,,,,4,5.601,1,,,,,,0.4275,-0.249166667,1,0,0,5.6006,Gabbro_rect,10,0,10,0,1,
6673614ba412b0139c83fd21,TCR,2024-06-24_17h32.36.182,LearnStrategy,2023.2.3,Win32,59.88023952,3,2,12,,,,,,,,3,16,,,,,,,,,,,3,0.946,1,,,,,,0.105,-0.249166667,1,0,0,0.9462,Diorite_rect,11,0,11,0,1,
6673614ba412b0139c83fd21,TCR,2024-06-24_17h32.36.182,LearnStrategy,2023.2.3,Win32,59.88023952,3,2,13,,,,,,,,6,06,,,,,,,,,,,6,2.216,1,,,,,,-0.1225,-0.396666667,1,0,0,2.2157,Pegmatite_rect,12,0,12,0,1,
6673614ba412b0139c83fd21,TCR,2024-06-24_17h32.36.182,LearnStrategy,2023.2.3,Win32,59.88023952,3,2,14,,,,,,,,8,09,,,,,,,,,,,8,1.03,1,,,,,,0.395833333,-0.378333333,1,0,0,1.0298,Pumice_rect,13,0,13,0,1,
6673614ba412b0139c83fd21,TCR,2024-06-24_17h32.36.182,LearnStrategy,2023.2.3,Win32,59.88023952,3,2,15,,,,,,,,2,09,,,,,,,,,,,2,0.93,1,,,,,,-0.131666667,-0.254166667,1,0,0,0.9298,Basalt_rect,14,0,14,0,1,
6673614ba412b0139c83fd21,TCR,2024-06-24_17h32.36.182,LearnStrategy,2023.2.3,Win32,59.88023952,3,2,16,,,,,,,,7,05,,,,,,,,,,,7,1.063,1,,,,,,0.1225,-0.39,1,0,0,1.0633,Peridotite_rect,15,0,15,0,1,
6673614ba412b0139c83fd21,TCR,2024-06-24_17h32.36.182,LearnStrategy,2023.2.3,Win32,59.88023952,4,1,1,0.058333333,0.014166667,1,0,0,0.7831,rock_grid_rect_2,1,14,-1,-1,0.783,-0.435,-0.248333333,1,0,0,1.7477,Andesite_rect,1,1.748,1,0,0,0,0,1,,,,,,,,,,,,,
6673614ba412b0139c83fd21,TCR,2024-06-24_17h32.36.182,LearnStrategy,2023.2.3,Win32,59.88023952,4,1,2,-0.011666667,0.003333333,1,0,0,0.7662,rock_grid_rect_2,3,10,-1,-1,0.766,0.1275,-0.2425,1,0,0,0.8969,Diorite_rect,3,0.897,1,1,0,1,0,1,,,,,,,,,,,,,
6673614ba412b0139c83fd21,TCR,2024-06-24_17h32.36.182,LearnStrategy,2023.2.3,Win32,59.88023952,4,1,3,-0.005,-0.001666667,1,0,0,0.5829,rock_grid_rect_2,2,02,-1,-1,0.583,-0.139166667,-0.255,1,0,0,1.2974,Basalt_rect,2,1.297,1,2,0,2,0,1,,,,,,,,,,,,,
6673614ba412b0139c83fd21,TCR,2024-06-24_17h32.36.182,LearnStrategy,2023.2.3,Win32,59.88023952,4,1,4,-0.005,-0.015833333,1,0,0,0.5161,rock_grid_rect_2,1,05,-1,-1,0.516,-0.363333333,-0.258333333,1,0,0,0.9806,Andesite_rect,1,0.981,1,3,0,3,0,1,,,,,,,,,,,,,
6673614ba412b0139c83fd21,TCR,2024-06-24_17h32.36.182,LearnStrategy,2023.2.3,Win32,59.88023952,4,1,5,-0.044166667,-0.015833333,1,0,0,0.4829,rock_grid_rect_2,4,08,-1,-1,0.483,0.405833333,-0.243333333,1,0,0,1.2809,Gabbro_rect,4,1.281,1,4,0,4,0,1,,,,,,,,,,,,,
6673614ba412b0139c83fd21,TCR,2024-06-24_17h32.36.182,LearnStrategy,2023.2.3,Win32,59.88023952,4,1,6,0.0525,-0.013333333,1,0,0,0.8164,rock_grid_rect_2,6,12,-1,-1,0.816,-0.141666667,-0.4125,1,0,0,1.6147,Pegmatite_rect,6,1.615,1,5,0,5,0,1,,,,,,,,,,,,,
6673614ba412b0139c83fd21,TCR,2024-06-24_17h32.36.182,LearnStrategy,2023.2.3,Win32,59.88023952,4,1,7,-0.004166667,0,1,0,0,0.5659,rock_grid_rect_2,4,01,-1,-1,0.566,0.393333333,-0.240833333,1,0,0,1.1807,Gabbro_rect,4,1.181,1,6,0,6,0,1,,,,,,,,,,,,,
6673614ba412b0139c83fd21,TCR,2024-06-24_17h32.36.182,LearnStrategy,2023.2.3,Win32,59.88023952,4,1,8,0.0875,0.016666667,1,0,0,0.4663,rock_grid_rect_2,2,02,-1,-1,0.466,-0.143333333,-0.231666667,1,0,0,0.9138,Basalt_rect,2,0.914,1,7,0,7,0,1,,,,,,,,,,,,,
6673614ba412b0139c83fd21,TCR,2024-06-24_17h32.36.182,LearnStrategy,2023.2.3,Win32,59.88023952,4,1,9,-0.035833333,-0.011666667,1,0,0,0.5662,rock_grid_rect_2,4,09,-1,-1,0.566,0.409166667,-0.2325,1,0,0,1.4811,Gabbro_rect,4,1.481,1,8,0,8,0,1,,,,,,,,,,,,,
6673614ba412b0139c83fd21,TCR,2024-06-24_17h32.36.182,LearnStrategy,2023.2.3,Win32,59.88023952,4,1,10,0.0425,-0.006666667,1,0,0,0.7162,rock_grid_rect_2,7,12,-1,-1,0.716,0.118333333,-0.390833333,1,0,0,0.9804,Peridotite_rect,7,0.98,1,9,0,9,0,1,,,,,,,,,,,,,
6673614ba412b0139c83fd21,TCR,2024-06-24_17h32.36.182,LearnStrategy,2023.2.3,Win32,59.88023952,4,1,11,0.0075,0.005833333,1,0,0,0.7664,rock_grid_rect_2,6,11,-1,-1,0.766,-0.14,-0.3925,1,0,0,1.0639,Pegmatite_rect,6,1.064,1,10,0,10,0,1,,,,,,,,,,,,,
6673614ba412b0139c83fd21,TCR,2024-06-24_17h32.36.182,LearnStrategy,2023.2.3,Win32,59.88023952,4,1,12,0.076666667,0.0125,1,0,0,0.8831,rock_grid_rect_2,5,12,-1,-1,0.883,-0.395833333,-0.395,1,0,0,0.9803,Obsidian_rect,5,0.98,1,11,0,11,0,1,,,,,,,,,,,,,
6673614ba412b0139c83fd21,TCR,2024-06-24_17h32.36.182,LearnStrategy,2023.2.3,Win32,59.88023952,4,1,13,0.0275,-0.015833333,1,0,0,0.5495,rock_grid_rect_2,6,09,-1,-1,0.549,-0.085,-0.389166667,1,0,0,2.8327,Pegmatite_rect,6,2.833,1,12,0,12,0,1,,,,,,,,,,,,,
6673614ba412b0139c83fd21,TCR,2024-06-24_17h32.36.182,LearnStrategy,2023.2.3,Win32,59.88023952,4,1,14,0.068333333,0.013333333,1,0,0,0.5161,rock_grid_rect_2,8,03,-1,-1,0.516,0.436666667,-0.421666667,1,0,0,1.1305,Pumice_rect,8,1.13,1,13,0,13,0,1,,,,,,,,,,,,,
6673614ba412b0139c83fd21,TCR,2024-06-24_17h32.36.182,LearnStrategy,2023.2.3,Win32,59.88023952,4,1,15,0.010833333,0.003333333,1,0,0,0.5495,rock_grid_rect_2,4,01,-1,-1,0.55,0.414166667,-0.2475,1,0,0,1.0137,Gabbro_rect,4,1.014,1,14,0,14,0,1,,,,,,,,,,,,,
6673614ba412b0139c83fd21,TCR,2024-06-24_17h32.36.182,LearnStrategy,2023.2.3,Win32,59.88023952,4,1,16,0.001666667,-0.0075,1,0,0,0.7665,rock_grid_rect_2,1,05,-1,-1,0.767,-0.421666667,-0.246666667,1,0,0,1.3475,Andesite_rect,1,1.347,1,15,0,15,0,1,,,,,,,,,,,,,
6673614ba412b0139c83fd21,TCR,2024-06-24_17h32.36.182,LearnStrategy,2023.2.3,Win32,59.88023952,4,2,1,,,,,,,,3,06,,,,,,,,,,,3,57.693,1,,,,,,0.165833333,-0.265,1,0,0,57.6931,Diorite_rect,0,0,0,0,1,
6673614ba412b0139c83fd21,TCR,2024-06-24_17h32.36.182,LearnStrategy,2023.2.3,Win32,59.88023952,4,2,2,,,,,,,,6,08,,,,,,,,,,,6,1.108,1,,,,,,-0.155,-0.400833333,1,0,0,1.108,Pegmatite_rect,1,0,1,0,1,
6673614ba412b0139c83fd21,TCR,2024-06-24_17h32.36.182,LearnStrategy,2023.2.3,Win32,59.88023952,4,2,3,,,,,,,,6,16,,,,,,,,,,,6,1.197,1,,,,,,-0.134166667,-0.403333333,1,0,0,1.1965,Pegmatite_rect,2,0,2,0,1,
6673614ba412b0139c83fd21,TCR,2024-06-24_17h32.36.182,LearnStrategy,2023.2.3,Win32,59.88023952,4,2,4,,,,,,,,7,05,,,,,,,,,,,7,1.897,1,,,,,,0.1575,-0.393333333,1,0,0,1.8975,Peridotite_rect,3,0,3,0,1,
6673614ba412b0139c83fd21,TCR,2024-06-24_17h32.36.182,LearnStrategy,2023.2.3,Win32,59.88023952,4,2,5,,,,,,,,2,09,,,,,,,,,,,2,0.896,1,,,,,,-0.108333333,-0.235,1,0,0,0.8964,Basalt_rect,4,0,4,0,1,
6673614ba412b0139c83fd21,TCR,2024-06-24_17h32.36.182,LearnStrategy,2023.2.3,Win32,59.88023952,4,2,6,,,,,,,,4,11,,,,,,,,,,,4,1.281,1,,,,,,0.4425,-0.248333333,1,0,0,1.2807,Gabbro_rect,5,0,5,0,1,
6673614ba412b0139c83fd21,TCR,2024-06-24_17h32.36.182,LearnStrategy,2023.2.3,Win32,59.88023952,4,2,7,,,,,,,,1,01,,,,,,,,,,,2,2.281,0,,,,,,-0.064166667,-0.248333333,1,0,0,2.2807,Basalt_rect,6,0,6,0,1,
6673614ba412b0139c83fd21,TCR,2024-06-24_17h32.36.182,LearnStrategy,2023.2.3,Win32,59.88023952,4,2,8,,,,,,,,2,16,,,,,,,,,,,2,1.263,1,,,,,,-0.120833333,-0.256666667,1,0,0,1.2631,Basalt_rect,7,0,7,0,1,
6673614ba412b0139c83fd21,TCR,2024-06-24_17h32.36.182,LearnStrategy,2023.2.3,Win32,59.88023952,4,2,9,,,,,,,,1,06,,,,,,,,,,,1,0.947,1,,,,,,-0.3825,-0.241666667,1,0,0,0.9467,Andesite_rect,8,0,8,0,1,
6673614ba412b0139c83fd21,TCR,2024-06-24_17h32.36.182,LearnStrategy,2023.2.3,Win32,59.88023952,4,2,10,,,,,,,,8,09,,,,,,,,,,,8,1.013,1,,,,,,0.358333333,-0.416666667,1,0,0,1.0134,Pumice_rect,9,0,9,0,1,
6673614ba412b0139c83fd21,TCR,2024-06-24_17h32.36.182,LearnStrategy,2023.2.3,Win32,59.88023952,4,2,11,,,,,,,,5,14,,,,,,,,,,,5,1.182,1,,,,,,-0.414166667,-0.385,1,0,0,1.1816,Obsidian_rect,10,0,10,0,1,
6673614ba412b0139c83fd21,TCR,2024-06-24_17h32.36.182,LearnStrategy,2023.2.3,Win32,59.88023952,4,2,12,,,,,,,,4,10,,,,,,,,,,,4,1.847,1,,,,,,0.445,-0.2525,1,0,0,1.8474,Gabbro_rect,11,0,11,0,1,
6673614ba412b0139c83fd21,TCR,2024-06-24_17h32.36.182,LearnStrategy,2023.2.3,Win32,59.88023952,4,2,13,,,,,,,,3,15,,,,,,,,,,,3,1.814,1,,,,,,0.114166667,-0.25,1,0,0,1.8142,Diorite_rect,12,0,12,0,1,
6673614ba412b0139c83fd21,TCR,2024-06-24_17h32.36.182,LearnStrategy,2023.2.3,Win32,59.88023952,4,2,14,,,,,,,,5,04,,,,,,,,,,,5,0.963,1,,,,,,-0.383333333,-0.393333333,1,0,0,0.9635,Obsidian_rect,13,0,13,0,1,
6673614ba412b0139c83fd21,TCR,2024-06-24_17h32.36.182,LearnStrategy,2023.2.3,Win32,59.88023952,4,2,15,,,,,,,,7,02,,,,,,,,,,,7,0.963,1,,,,,,0.1275,-0.395,1,0,0,0.9635,Peridotite_rect,14,0,14,0,1,
6673614ba412b0139c83fd21,TCR,2024-06-24_17h32.36.182,LearnStrategy,2023.2.3,Win32,59.88023952,4,2,16,,,,,,,,8,05,,,,,,,,,,,8,1.147,1,,,,,,0.4,-0.400833333,1,0,0,1.1469,Pumice_rect,15,0,15,0,1,
6673614ba412b0139c83fd21,TCR,2024-06-24_17h32.36.182,LearnStrategy,2023.2.3,Win32,59.88023952,5,1,1,-0.060833333,-0.000833333,1,0,0,0.77,rock_grid_rect_2,1,04,-1,-1,0.77,-0.3625,-0.245,1,0,0,1.0507,Andesite_rect,1,1.051,1,0,0,0,0,1,,,,,,,,,,,,,
6673614ba412b0139c83fd21,TCR,2024-06-24_17h32.36.182,LearnStrategy,2023.2.3,Win32,59.88023952,5,1,2,-0.0075,0.006666667,1,0,0,0.7367,rock_grid_rect_2,7,14,-1,-1,0.737,0.150833333,-0.384166667,1,0,0,1.1142,Peridotite_rect,7,1.114,1,1,0,1,0,1,,,,,,,,,,,,,
6673614ba412b0139c83fd21,TCR,2024-06-24_17h32.36.182,LearnStrategy,2023.2.3,Win32,59.88023952,5,1,3,0.028333333,0.019166667,1,0,0,0.5026,rock_grid_rect_2,1,04,-1,-1,0.503,-0.383333333,-0.249166667,1,0,0,1.047,Andesite_rect,1,1.047,1,2,0,2,0,1,,,,,,,,,,,,,
6673614ba412b0139c83fd21,TCR,2024-06-24_17h32.36.182,LearnStrategy,2023.2.3,Win32,59.88023952,5,1,4,0.015833333,0.003333333,1,0,0,0.5355,rock_grid_rect_2,3,14,-1,-1,0.536,0.099166667,-0.2525,1,0,0,1.3649,Diorite_rect,3,1.365,1,3,0,3,0,1,,,,,,,,,,,,,
6673614ba412b0139c83fd21,TCR,2024-06-24_17h32.36.182,LearnStrategy,2023.2.3,Win32,59.88023952,5,1,5,-0.030833333,-0.013333333,1,0,0,0.5854,rock_grid_rect_2,2,02,-1,-1,0.585,-0.165833333,-0.239166667,1,0,0,0.7643,Basalt_rect,2,0.764,1,4,0,4,0,1,,,,,,,,,,,,,
6673614ba412b0139c83fd21,TCR,2024-06-24_17h32.36.182,LearnStrategy,2023.2.3,Win32,59.88023952,5,1,6,0.045,-0.004166667,1,0,0,0.5525,rock_grid_rect_2,6,12,-1,-1,0.553,-0.140833333,-0.395,1,0,0,1.0643,Pegmatite_rect,6,1.064,1,5,0,5,0,1,,,,,,,,,,,,,
6673614ba412b0139c83fd21,TCR,2024-06-24_17h32.36.182,LearnStrategy,2023.2.3,Win32,59.88023952,5,1,7,-0.005833333,-0.0025,1,0,0,0.5522,rock_grid_rect_2,1,11,-1,-1,0.552,-0.38,-0.258333333,1,0,0,0.9812,Andesite_rect,1,0.981,1,6,0,6,0,1,,,,,,,,,,,,,
6673614ba412b0139c83fd21,TCR,2024-06-24_17h32.36.182,LearnStrategy,2023.2.3,Win32,59.88023952,5,1,8,0.015,-0.003333333,1,0,0,0.5855,rock_grid_rect_2,6,11,-1,-1,0.586,-0.093333333,-0.419166667,1,0,0,1.8988,Pegmatite_rect,6,1.899,1,7,0,7,0,1,,,,,,,,,,,,,
6673614ba412b0139c83fd21,TCR,2024-06-24_17h32.36.182,LearnStrategy,2023.2.3,Win32,59.88023952,5,1,9,0.0125,-0.004166667,1,0,0,0.7665,rock_grid_rect_2,1,11,-1,-1,0.766,-0.3425,-0.248333333,1,0,0,1.117,Andesite_rect,1,1.117,1,8,0,8,0,1,,,,,,,,,,,,,
6673614ba412b0139c83fd21,TCR,2024-06-24_17h32.36.182,LearnStrategy,2023.2.3,Win32,59.88023952,5,1,10,0.018333333,-0.024166667,1,0,0,0.5184,rock_grid_rect_2,4,08,-1,-1,0.518,0.345833333,-0.248333333,1,0,0,0.9646,Gabbro_rect,4,0.965,1,9,0,9,0,1,,,,,,,,,,,,,
6673614ba412b0139c83fd21,TCR,2024-06-24_17h32.36.182,LearnStrategy,2023.2.3,Win32,59.88023952,5,1,11,0.050833333,0.003333333,1,0,0,0.7859,rock_grid_rect_2,4,05,-1,-1,0.786,0.36,-0.240833333,1,0,0,1.1805,Gabbro_rect,4,1.181,1,10,0,10,0,1,,,,,,,,,,,,,
6673614ba412b0139c83fd21,TCR,2024-06-24_17h32.36.182,LearnStrategy,2023.2.3,Win32,59.88023952,5,1,12,0.0625,-0.011666667,1,0,0,0.4653,rock_grid_rect_2,5,08,-1,-1,0.465,-0.356666667,-0.386666667,1,0,0,0.8676,Obsidian_rect,5,0.868,1,11,0,11,0,1,,,,,,,,,,,,,
6673614ba412b0139c83fd21,TCR,2024-06-24_17h32.36.182,LearnStrategy,2023.2.3,Win32,59.88023952,5,1,13,0.003333333,0.009166667,1,0,0,0.5023,rock_grid_rect_2,8,13,-1,-1,0.502,0.45,-0.3925,1,0,0,0.9977,Pumice_rect,8,0.998,1,12,0,12,0,1,,,,,,,,,,,,,
6673614ba412b0139c83fd21,TCR,2024-06-24_17h32.36.182,LearnStrategy,2023.2.3,Win32,59.88023952,5,1,14,0.006666667,-0.018333333,1,0,0,0.6654,rock_grid_rect_2,2,04,-1,-1,0.665,-0.151666667,-0.265833333,1,0,0,0.7848,Basalt_rect,2,0.785,1,13,0,13,0,1,,,,,,,,,,,,,
6673614ba412b0139c83fd21,TCR,2024-06-24_17h32.36.182,LearnStrategy,2023.2.3,Win32,59.88023952,5,1,15,0.018333333,0.003333333,1,0,0,0.4859,rock_grid_rect_2,4,12,-1,-1,0.486,0.398333333,-0.250833333,1,0,0,1.0977,Gabbro_rect,4,1.098,1,14,0,14,0,1,,,,,,,,,,,,,
6673614ba412b0139c83fd21,TCR,2024-06-24_17h32.36.182,LearnStrategy,2023.2.3,Win32,59.88023952,5,1,16,0.035833333,0.0125,1,0,0,0.4854,rock_grid_rect_2,4,05,-1,-1,0.485,0.3625,-0.245833333,1,0,0,0.8476,Gabbro_rect,4,0.848,1,15,0,15,0,1,,,,,,,,,,,,,
6673614ba412b0139c83fd21,TCR,2024-06-24_17h32.36.182,LearnStrategy,2023.2.3,Win32,59.88023952,5,2,1,,,,,,,,1,03,,,,,,,,,,,1,1.684,1,,,,,,-0.369166667,-0.239166667,1,0,0,1.6841,Andesite_rect,0,0,0,0,1,
6673614ba412b0139c83fd21,TCR,2024-06-24_17h32.36.182,LearnStrategy,2023.2.3,Win32,59.88023952,5,2,2,,,,,,,,3,16,,,,,,,,,,,3,0.902,1,,,,,,0.1675,-0.2525,1,0,0,0.9017,Diorite_rect,1,0,1,0,1,
6673614ba412b0139c83fd21,TCR,2024-06-24_17h32.36.182,LearnStrategy,2023.2.3,Win32,59.88023952,5,2,3,,,,,,,,4,03,,,,,,,,,,,4,2.152,1,,,,,,0.383333333,-0.231666667,1,0,0,2.152,Gabbro_rect,2,0,2,0,1,
6673614ba412b0139c83fd21,TCR,2024-06-24_17h32.36.182,LearnStrategy,2023.2.3,Win32,59.88023952,5,2,4,,,,,,,,5,07,,,,,,,,,,,5,1.15,1,,,,,,-0.345833333,-0.394166667,1,0,0,1.1497,Obsidian_rect,3,0,3,0,1,
6673614ba412b0139c83fd21,TCR,2024-06-24_17h32.36.182,LearnStrategy,2023.2.3,Win32,59.88023952,5,2,5,,,,,,,,6,03,,,,,,,,,,,6,3.186,1,,,,,,-0.119166667,-0.39,1,0,0,3.1858,Pegmatite_rect,4,0,4,0,1,
6673614ba412b0139c83fd21,TCR,2024-06-24_17h32.36.182,LearnStrategy,2023.2.3,Win32,59.88023952,5,2,6,,,,,,,,4,14,,,,,,,,,,,4,5.921,1,,,,,,0.395,-0.254166667,1,0,0,5.9208,Gabbro_rect,5,0,5,0,1,
6673614ba412b0139c83fd21,TCR,2024-06-24_17h32.36.182,LearnStrategy,2023.2.3,Win32,59.88023952,5,2,7,,,,,,,,1,16,,,,,,,,,,,4,4.283,0,,,,,,0.3425,-0.2425,1,0,0,4.2827,Gabbro_rect,6,0,6,0,1,
6673614ba412b0139c83fd21,TCR,2024-06-24_17h32.36.182,LearnStrategy,2023.2.3,Win32,59.88023952,5,2,8,,,,,,,,7,16,,,,,,,,,,,7,1.396,1,,,,,,0.11,-0.394166667,1,0,0,1.3959,Peridotite_rect,7,0,7,0,1,
6673614ba412b0139c83fd21,TCR,2024-06-24_17h32.36.182,LearnStrategy,2023.2.3,Win32,59.88023952,5,2,9,,,,,,,,7,06,,,,,,,,,,,7,0.8,1,,,,,,0.095833333,-0.403333333,1,0,0,0.8001,Peridotite_rect,8,0,8,0,1,
6673614ba412b0139c83fd21,TCR,2024-06-24_17h32.36.182,LearnStrategy,2023.2.3,Win32,59.88023952,5,2,10,,,,,,,,3,09,,,,,,,,,,,3,0.801,1,,,,,,0.111666667,-0.255,1,0,0,0.8006,Diorite_rect,9,0,9,0,1,
6673614ba412b0139c83fd21,TCR,2024-06-24_17h32.36.182,LearnStrategy,2023.2.3,Win32,59.88023952,5,2,11,,,,,,,,2,06,,,,,,,,,,,2,0.684,1,,,,,,-0.151666667,-0.248333333,1,0,0,0.684,Basalt_rect,10,0,10,0,1,
6673614ba412b0139c83fd21,TCR,2024-06-24_17h32.36.182,LearnStrategy,2023.2.3,Win32,59.88023952,5,2,12,,,,,,,,8,14,,,,,,,,,,,8,0.85,1,,,,,,0.405833333,-0.405,1,0,0,0.8501,Pumice_rect,11,0,11,0,1,
6673614ba412b0139c83fd21,TCR,2024-06-24_17h32.36.182,LearnStrategy,2023.2.3,Win32,59.88023952,5,2,13,,,,,,,,6,15,,,,,,,,,,,6,1.434,1,,,,,,-0.1025,-0.396666667,1,0,0,1.4339,Pegmatite_rect,12,0,12,0,1,
6673614ba412b0139c83fd21,TCR,2024-06-24_17h32.36.182,LearnStrategy,2023.2.3,Win32,59.88023952,5,2,14,,,,,,,,2,05,,,,,,,,,,,2,1,1,,,,,,-0.133333333,-0.25,1,0,0,1,Basalt_rect,13,0,13,0,1,
6673614ba412b0139c83fd21,TCR,2024-06-24_17h32.36.182,LearnStrategy,2023.2.3,Win32,59.88023952,5,2,15,,,,,,,,5,05,,,,,,,,,,,5,1.034,1,,,,,,-0.395,-0.393333333,1,0,0,1.0337,Obsidian_rect,14,0,14,0,1,
6673614ba412b0139c83fd21,TCR,2024-06-24_17h32.36.182,LearnStrategy,2023.2.3,Win32,59.88023952,5,2,16,,,,,,,,8,08,,,,,,,,,,,8,0.851,1,,,,,,0.420833333,-0.406666667,1,0,0,0.8508,Pumice_rect,15,0,15,0,1,
6673614ba412b0139c83fd21,TCR,2024-06-24_17h32.36.182,LearnStrategy,2023.2.3,Win32,59.88023952,6,1,1,-0.04,-0.010833333,1,0,0,0.536,rock_grid_rect_2,1,11,-1,-1,0.536,-0.404166667,-0.240833333,1,0,0,0.8641,Andesite_rect,1,0.864,1,0,0,0,0,1,,,,,,,,,,,,,
6673614ba412b0139c83fd21,TCR,2024-06-24_17h32.36.182,LearnStrategy,2023.2.3,Win32,59.88023952,6,1,2,-0.003333333,-0.008333333,1,0,0,0.4818,rock_grid_rect_2,6,13,-1,-1,0.482,-0.149166667,-0.413333333,1,0,0,1.2015,Pegmatite_rect,6,1.202,1,1,0,1,0,1,,,,,,,,,,,,,
6673614ba412b0139c83fd21,TCR,2024-06-24_17h32.36.182,LearnStrategy,2023.2.3,Win32,59.88023952,6,1,3,-0.036666667,-0.015,1,0,0,0.7195,rock_grid_rect_2,8,13,-1,-1,0.72,0.390833333,-0.379166667,1,0,0,0.7304,Pumice_rect,8,0.73,1,2,0,2,0,1,,,,,,,,,,,,,
6673614ba412b0139c83fd21,TCR,2024-06-24_17h32.36.182,LearnStrategy,2023.2.3,Win32,59.88023952,6,1,4,-0.001666667,-0.011666667,1,0,0,0.5357,rock_grid_rect_2,1,04,-1,-1,0.536,-0.409166667,-0.2325,1,0,0,0.748,Andesite_rect,1,0.748,1,3,0,3,0,1,,,,,,,,,,,,,
6673614ba412b0139c83fd21,TCR,2024-06-24_17h32.36.182,LearnStrategy,2023.2.3,Win32,59.88023952,6,1,5,0.003333333,-0.021666667,1,0,0,0.4696,rock_grid_rect_2,4,05,-1,-1,0.47,0.369166667,-0.2675,1,0,0,1.7817,Gabbro_rect,4,1.782,1,4,0,4,0,1,,,,,,,,,,,,,
6673614ba412b0139c83fd21,TCR,2024-06-24_17h32.36.182,LearnStrategy,2023.2.3,Win32,59.88023952,6,1,6,0.050833333,0.0025,1,0,0,0.502,rock_grid_rect_2,1,14,-1,-1,0.502,-0.323333333,-0.2325,1,0,0,1.4969,Andesite_rect,1,1.497,1,5,0,5,0,1,,,,,,,,,,,,,
6673614ba412b0139c83fd21,TCR,2024-06-24_17h32.36.182,LearnStrategy,2023.2.3,Win32,59.88023952,6,1,7,0.026666667,0.005,1,0,0,0.5504,rock_grid_rect_2,6,07,-1,-1,0.55,-0.088333333,-0.396666667,1,0,0,1.0671,Pegmatite_rect,6,1.067,1,6,0,6,0,1,,,,,,,,,,,,,
6673614ba412b0139c83fd21,TCR,2024-06-24_17h32.36.182,LearnStrategy,2023.2.3,Win32,59.88023952,6,1,8,-0.028333333,-0.0225,1,0,0,0.5163,rock_grid_rect_2,7,04,-1,-1,0.516,-0.404166667,-0.254166667,1,0,0,1.2675,Andesite_rect,1,1.268,0,7,0,7,0,1,,,,,,,,,,,,,
6673614ba412b0139c83fd21,TCR,2024-06-24_17h32.36.182,LearnStrategy,2023.2.3,Win32,59.88023952,6,1,9,0.005,-0.000833333,1,0,0,1.1323,rock_grid_rect_2,2,11,-1,-1,1.132,-0.185833333,-0.239166667,1,0,0,2.1981,Basalt_rect,2,2.198,1,8,0,8,0,1,,,,,,,,,,,,,
6673614ba412b0139c83fd21,TCR,2024-06-24_17h32.36.182,LearnStrategy,2023.2.3,Win32,59.88023952,6,1,10,-0.0025,-0.011666667,1,0,0,0.7522,rock_grid_rect_2,4,09,-1,-1,0.752,0.405,-0.251666667,1,0,0,1.8814,Gabbro_rect,4,1.881,1,9,0,9,0,1,,,,,,,,,,,,,
6673614ba412b0139c83fd21,TCR,2024-06-24_17h32.36.182,LearnStrategy,2023.2.3,Win32,59.88023952,6,1,11,0.033333333,-0.009166667,1,0,0,0.8203,rock_grid_rect_2,3,11,-1,-1,0.82,0.133333333,-0.240833333,1,0,0,0.8308,Diorite_rect,3,0.831,1,10,0,10,0,1,,,,,,,,,,,,,
6673614ba412b0139c83fd21,TCR,2024-06-24_17h32.36.182,LearnStrategy,2023.2.3,Win32,59.88023952,6,1,12,0.016666667,0.018333333,1,0,0,0.4859,rock_grid_rect_2,5,11,-1,-1,0.486,-0.445,-0.413333333,1,0,0,0.9471,Obsidian_rect,5,0.947,1,11,0,11,0,1,,,,,,,,,,,,,
6673614ba412b0139c83fd21,TCR,2024-06-24_17h32.36.182,LearnStrategy,2023.2.3,Win32,59.88023952,6,1,13,0.011666667,0.0175,1,0,0,0.5023,rock_grid_rect_2,1,14,-1,-1,0.502,-0.42,-0.2525,1,0,0,1.2307,Andesite_rect,1,1.231,1,12,0,12,0,1,,,,,,,,,,,,,
6673614ba412b0139c83fd21,TCR,2024-06-24_17h32.36.182,LearnStrategy,2023.2.3,Win32,59.88023952,6,1,14,-0.040833333,-0.015,1,0,0,0.6361,rock_grid_rect_2,1,05,-1,-1,0.636,-0.418333333,-0.244166667,1,0,0,1.0806,Andesite_rect,1,1.081,1,13,0,13,0,1,,,,,,,,,,,,,
6673614ba412b0139c83fd21,TCR,2024-06-24_17h32.36.182,LearnStrategy,2023.2.3,Win32,59.88023952,6,1,15,0.015,-0.0125,1,0,0,0.5852,rock_grid_rect_2,4,01,-1,-1,0.585,0.4425,-0.26,1,0,0,1.266,Gabbro_rect,4,1.266,1,14,0,14,0,1,,,,,,,,,,,,,
6673614ba412b0139c83fd21,TCR,2024-06-24_17h32.36.182,LearnStrategy,2023.2.3,Win32,59.88023952,6,1,16,0.080833333,0.009166667,1,0,0,0.8357,rock_grid_rect_2,2,02,-1,-1,0.836,-0.083333333,-0.255,1,0,0,1.0314,Basalt_rect,2,1.031,1,15,0,15,0,1,,,,,,,,,,,,,
6673614ba412b0139c83fd21,TCR,2024-06-24_17h32.36.182,LearnStrategy,2023.2.3,Win32,59.88023952,6,2,1,,,,,,,,8,04,,,,,,,,,,,8,1.067,1,,,,,,0.404166667,-0.403333333,1,0,0,1.0674,Pumice_rect,0,0,0,0,1,
6673614ba412b0139c83fd21,TCR,2024-06-24_17h32.36.182,LearnStrategy,2023.2.3,Win32,59.88023952,6,2,2,,,,,,,,3,02,,,,,,,,,,,3,0.8,1,,,,,,0.103333333,-0.261666667,1,0,0,0.7997,Diorite_rect,1,0,1,0,1,
6673614ba412b0139c83fd21,TCR,2024-06-24_17h32.36.182,LearnStrategy,2023.2.3,Win32,59.88023952,6,2,3,,,,,,,,4,16,,,,,,,,,,,4,12.811,1,,,,,,0.435,-0.243333333,1,0,0,12.811,Gabbro_rect,2,0,2,0,1,
6673614ba412b0139c83fd21,TCR,2024-06-24_17h32.36.182,LearnStrategy,2023.2.3,Win32,59.88023952,6,2,4,,,,,,,,6,06,,,,,,,,,,,6,4.798,1,,,,,,-0.159166667,-0.401666667,1,0,0,4.798,Pegmatite_rect,3,0,3,0,1,
6673614ba412b0139c83fd21,TCR,2024-06-24_17h32.36.182,LearnStrategy,2023.2.3,Win32,59.88023952,6,2,5,,,,,,,,5,02,,,,,,,,,,,5,0.947,1,,,,,,-0.419166667,-0.388333333,1,0,0,0.9468,Obsidian_rect,4,0,4,0,1,
6673614ba412b0139c83fd21,TCR,2024-06-24_17h32.36.182,LearnStrategy,2023.2.3,Win32,59.88023952,6,2,6,,,,,,,,8,15,,,,,,,,,,,8,1.118,1,,,,,,0.426666667,-0.403333333,1,0,0,1.1177,Pumice_rect,5,0,5,0,1,
6673614ba412b0139c83fd21,TCR,2024-06-24_17h32.36.182,LearnStrategy,2023.2.3,Win32,59.88023952,6,2,7,,,,,,,,7,15,,,,,,,,,,,7,0.983,1,,,,,,0.105833333,-0.379166667,1,0,0,0.9834,Peridotite_rect,6,0,6,0,1,
6673614ba412b0139c83fd21,TCR,2024-06-24_17h32.36.182,LearnStrategy,2023.2.3,Win32,59.88023952,6,2,8,,,,,,,,1,10,,,,,,,,,,,1,1.085,1,,,,,,-0.345,-0.254166667,1,0,0,1.0849,Andesite_rect,7,0,7,0,1,
6673614ba412b0139c83fd21,TCR,2024-06-24_17h32.36.182,LearnStrategy,2023.2.3,Win32,59.88023952,6,2,9,,,,,,,,3,08,,,,,,,,,,,3,0.902,1,,,,,,0.14,-0.255833333,1,0,0,0.9021,Diorite_rect,8,0,8,0,1,
6673614ba412b0139c83fd21,TCR,2024-06-24_17h32.36.182,LearnStrategy,2023.2.3,Win32,59.88023952,6,2,10,,,,,,,,6,10,,,,,,,,,,,6,1.834,1,,,,,,-0.146666667,-0.393333333,1,0,0,1.8344,Pegmatite_rect,9,0,9,0,1,
6673614ba412b0139c83fd21,TCR,2024-06-24_17h32.36.182,LearnStrategy,2023.2.3,Win32,59.88023952,6,2,11,,,,,,,,5,09,,,,,,,,,,,5,0.985,1,,,,,,-0.390833333,-0.38,1,0,0,0.9853,Obsidian_rect,10,0,10,0,1,
6673614ba412b0139c83fd21,TCR,2024-06-24_17h32.36.182,LearnStrategy,2023.2.3,Win32,59.88023952,6,2,12,,,,,,,,7,10,,,,,,,,,,,7,1.401,1,,,,,,0.143333333,-0.41,1,0,0,1.4008,Peridotite_rect,11,0,11,0,1,
6673614ba412b0139c83fd21,TCR,2024-06-24_17h32.36.182,LearnStrategy,2023.2.3,Win32,59.88023952,6,2,13,,,,,,,,4,13,,,,,,,,,,,1,2.385,0,,,,,,-0.369166667,-0.258333333,1,0,0,2.3845,Andesite_rect,12,0,12,0,1,
6673614ba412b0139c83fd21,TCR,2024-06-24_17h32.36.182,LearnStrategy,2023.2.3,Win32,59.88023952,6,2,14,,,,,,,,2,08,,,,,,,,,,,2,1.217,1,,,,,,-0.128333333,-0.254166667,1,0,0,1.217,Basalt_rect,13,0,13,0,1,
6673614ba412b0139c83fd21,TCR,2024-06-24_17h32.36.182,LearnStrategy,2023.2.3,Win32,59.88023952,6,2,15,,,,,,,,1,07,,,,,,,,,,,1,4.803,1,,,,,,-0.395,-0.258333333,1,0,0,4.8033,Andesite_rect,14,0,14,0,1,
6673614ba412b0139c83fd21,TCR,2024-06-24_17h32.36.182,LearnStrategy,2023.2.3,Win32,59.88023952,6,2,16,,,,,,,,2,10,,,,,,,,,,,2,0.963,1,,,,,,-0.1175,-0.228333333,1,0,0,0.9627,Basalt_rect,15,0,15,0,1,
6673614ba412b0139c83fd21,TCR,2024-06-24_17h32.36.182,LearnStrategy,2023.2.3,Win32,59.88023952,7,1,1,0.03,-0.011666667,1,0,0,0.5664,rock_grid_rect_2,1,11,-1,-1,0.566,-0.374166667,-0.250833333,1,0,0,1.0845,Andesite_rect,1,1.084,1,0,0,0,0,1,,,,,,,,,,,,,
6673614ba412b0139c83fd21,TCR,2024-06-24_17h32.36.182,LearnStrategy,2023.2.3,Win32,59.88023952,7,1,2,-0.038333333,0.019166667,1,0,0,1.017,rock_grid_rect_2,4,09,-1,-1,1.017,0.365833333,-0.249166667,1,0,0,1.0331,Gabbro_rect,4,1.033,1,1,0,1,0,1,,,,,,,,,,,,,
6673614ba412b0139c83fd21,TCR,2024-06-24_17h32.36.182,LearnStrategy,2023.2.3,Win32,59.88023952,7,1,3,0.0325,0.015833333,1,0,0,0.419,rock_grid_rect_2,2,04,-1,-1,0.419,-0.110833333,-0.255833333,1,0,0,0.7307,Basalt_rect,2,0.731,1,2,0,2,0,1,,,,,,,,,,,,,
6673614ba412b0139c83fd21,TCR,2024-06-24_17h32.36.182,LearnStrategy,2023.2.3,Win32,59.88023952,7,1,4,0.035,0.000833333,1,0,0,0.4319,rock_grid_rect_2,4,05,-1,-1,0.432,0.358333333,-0.266666667,1,0,0,1.4861,Gabbro_rect,4,1.486,1,3,0,3,0,1,,,,,,,,,,,,,
6673614ba412b0139c83fd21,TCR,2024-06-24_17h32.36.182,LearnStrategy,2023.2.3,Win32,59.88023952,7,1,5,-0.004166667,-0.0075,1,0,0,0.6695,rock_grid_rect_2,7,14,-1,-1,0.669,0.119166667,-0.403333333,1,0,0,0.9969,Peridotite_rect,7,0.997,1,4,0,4,0,1,,,,,,,,,,,,,
6673614ba412b0139c83fd21,TCR,2024-06-24_17h32.36.182,LearnStrategy,2023.2.3,Win32,59.88023952,7,1,6,-0.1025,-0.010833333,1,0,0,0.52,rock_grid_rect_2,1,04,-1,-1,0.52,-0.361666667,-0.268333333,1,0,0,0.8807,Andesite_rect,1,0.881,1,5,0,5,0,1,,,,,,,,,,,,,
6673614ba412b0139c83fd21,TCR,2024-06-24_17h32.36.182,LearnStrategy,2023.2.3,Win32,59.88023952,7,1,7,-0.0225,0.008333333,1,0,0,0.4858,rock_grid_rect_2,1,14,-1,-1,0.486,-0.385,-0.253333333,1,0,0,1.0973,Andesite_rect,1,1.097,1,6,0,6,0,1,,,,,,,,,,,,,
6673614ba412b0139c83fd21,TCR,2024-06-24_17h32.36.182,LearnStrategy,2023.2.3,Win32,59.88023952,7,1,8,-0.0125,0.011666667,1,0,0,0.5204,rock_grid_rect_2,2,04,-1,-1,0.52,-0.106666667,-0.240833333,1,0,0,1.5476,Basalt_rect,2,1.548,1,7,0,7,0,1,,,,,,,,,,,,,
6673614ba412b0139c83fd21,TCR,2024-06-24_17h32.36.182,LearnStrategy,2023.2.3,Win32,59.88023952,7,1,9,0.0175,0.0025,1,0,0,0.469,rock_grid_rect_2,4,01,-1,-1,0.469,0.3675,-0.2625,1,0,0,0.9307,Gabbro_rect,4,0.931,1,8,0,8,0,1,,,,,,,,,,,,,
6673614ba412b0139c83fd21,TCR,2024-06-24_17h32.36.182,LearnStrategy,2023.2.3,Win32,59.88023952,7,1,10,0.003333333,0.005833333,1,0,0,0.4858,rock_grid_rect_2,8,06,-1,-1,0.486,0.450833333,-0.415,1,0,0,0.8644,Pumice_rect,8,0.864,1,9,0,9,0,1,,,,,,,,,,,,,
6673614ba412b0139c83fd21,TCR,2024-06-24_17h32.36.182,LearnStrategy,2023.2.3,Win32,59.88023952,7,1,11,0.023333333,-0.016666667,1,0,0,0.4153,rock_grid_rect_2,5,08,-1,-1,0.415,-0.355,-0.3875,1,0,0,2.3355,Obsidian_rect,5,2.336,1,10,0,10,0,1,,,,,,,,,,,,,
6673614ba412b0139c83fd21,TCR,2024-06-24_17h32.36.182,LearnStrategy,2023.2.3,Win32,59.88023952,7,1,12,0.044166667,0.011666667,1,0,0,0.5858,rock_grid_rect_2,4,15,-1,-1,0.586,0.084166667,-0.244166667,1,0,0,1.3652,Diorite_rect,3,1.365,0,11,0,11,0,1,,,,,,,,,,,,,
6673614ba412b0139c83fd21,TCR,2024-06-24_17h32.36.182,LearnStrategy,2023.2.3,Win32,59.88023952,7,1,13,0.013333333,-0.004166667,1,0,0,0.9528,rock_grid_rect_2,6,09,-1,-1,0.953,-0.175833333,-0.415833333,1,0,0,1.0308,Pegmatite_rect,6,1.031,1,12,0,12,0,1,,,,,,,,,,,,,
6673614ba412b0139c83fd21,TCR,2024-06-24_17h32.36.182,LearnStrategy,2023.2.3,Win32,59.88023952,7,1,14,0.010833333,0.014166667,1,0,0,0.486,rock_grid_rect_2,1,11,-1,-1,0.486,-0.4025,-0.2425,1,0,0,1.0475,Andesite_rect,1,1.047,1,13,0,13,0,1,,,,,,,,,,,,,
6673614ba412b0139c83fd21,TCR,2024-06-24_17h32.36.182,LearnStrategy,2023.2.3,Win32,59.88023952,7,1,15,0.016666667,0.016666667,1,0,0,0.6527,rock_grid_rect_2,6,07,-1,-1,0.653,-0.086666667,-0.408333333,1,0,0,0.9976,Pegmatite_rect,6,0.998,1,14,0,14,0,1,,,,,,,,,,,,,
6673614ba412b0139c83fd21,TCR,2024-06-24_17h32.36.182,LearnStrategy,2023.2.3,Win32,59.88023952,7,1,16,0.019166667,0.0025,1,0,0,0.4193,rock_grid_rect_2,3,11,-1,-1,0.419,0.149166667,-0.234166667,1,0,0,0.7636,Diorite_rect,3,0.764,1,15,0,15,0,1,,,,,,,,,,,,,
6673614ba412b0139c83fd21,TCR,2024-06-24_17h32.36.182,LearnStrategy,2023.2.3,Win32,59.88023952,7,2,1,,,,,,,,3,08,,,,,,,,,,,3,1.018,1,,,,,,0.120833333,-0.241666667,1,0,0,1.0183,Diorite_rect,0,0,0,0,1,
6673614ba412b0139c83fd21,TCR,2024-06-24_17h32.36.182,LearnStrategy,2023.2.3,Win32,59.88023952,7,2,2,,,,,,,,4,10,,,,,,,,,,,4,1.234,1,,,,,,0.388333333,-0.240833333,1,0,0,1.2336,Gabbro_rect,1,0,1,0,1,
6673614ba412b0139c83fd21,TCR,2024-06-24_17h32.36.182,LearnStrategy,2023.2.3,Win32,59.88023952,7,2,3,,,,,,,,2,16,,,,,,,,,,,2,35.012,1,,,,,,-0.129166667,-0.2475,1,0,0,35.0116,Basalt_rect,2,0,2,0,1,
6673614ba412b0139c83fd21,TCR,2024-06-24_17h32.36.182,LearnStrategy,2023.2.3,Win32,59.88023952,7,2,4,,,,,,,,6,16,,,,,,,,,,,6,1.279,1,,,,,,-0.169166667,-0.391666667,1,0,0,1.2793,Pegmatite_rect,3,0,3,0,1,
6673614ba412b0139c83fd21,TCR,2024-06-24_17h32.36.182,LearnStrategy,2023.2.3,Win32,59.88023952,7,2,5,,,,,,,,8,05,,,,,,,,,,,8,1.168,1,,,,,,0.391666667,-0.42,1,0,0,1.1679,Pumice_rect,4,0,4,0,1,
6673614ba412b0139c83fd21,TCR,2024-06-24_17h32.36.182,LearnStrategy,2023.2.3,Win32,59.88023952,7,2,6,,,,,,,,1,06,,,,,,,,,,,1,0.917,1,,,,,,-0.409166667,-0.25,1,0,0,0.9165,Andesite_rect,5,0,5,0,1,
6673614ba412b0139c83fd21,TCR,2024-06-24_17h32.36.182,LearnStrategy,2023.2.3,Win32,59.88023952,7,2,7,,,,,,,,2,08,,,,,,,,,,,2,0.734,1,,,,,,-0.096666667,-0.240833333,1,0,0,0.7341,Basalt_rect,6,0,6,0,1,
6673614ba412b0139c83fd21,TCR,2024-06-24_17h32.36.182,LearnStrategy,2023.2.3,Win32,59.88023952,7,2,8,,,,,,,,1,03,,,,,,,,,,,1,1.719,1,,,,,,-0.3875,-0.253333333,1,0,0,1.719,Andesite_rect,7,0,7,0,1,
6673614ba412b0139c83fd21,TCR,2024-06-24_17h32.36.182,LearnStrategy,2023.2.3,Win32,59.88023952,7,2,9,,,,,,,,7,16,,,,,,,,,,,7,1.084,1,,,,,,0.135833333,-0.408333333,1,0,0,1.0844,Peridotite_rect,8,0,8,0,1,
6673614ba412b0139c83fd21,TCR,2024-06-24_17h32.36.182,LearnStrategy,2023.2.3,Win32,59.88023952,7,2,10,,,,,,,,8,08,,,,,,,,,,,8,0.85,1,,,,,,0.426666667,-0.415833333,1,0,0,0.8501,Pumice_rect,9,0,9,0,1,
6673614ba412b0139c83fd21,TCR,2024-06-24_17h32.36.182,LearnStrategy,2023.2.3,Win32,59.88023952,7,2,11,,,,,,,,4,13,,,,,,,,,,,1,1.701,0,,,,,,-0.426666667,-0.259166667,1,0,0,1.7011,Andesite_rect,10,0,10,0,1,
6673614ba412b0139c83fd21,TCR,2024-06-24_17h32.36.182,LearnStrategy,2023.2.3,Win32,59.88023952,7,2,12,,,,,,,,7,05,,,,,,,,,,,7,1.217,1,,,,,,0.118333333,-0.396666667,1,0,0,1.2168,Peridotite_rect,11,0,11,0,1,
6673614ba412b0139c83fd21,TCR,2024-06-24_17h32.36.182,LearnStrategy,2023.2.3,Win32,59.88023952,7,2,13,,,,,,,,5,07,,,,,,,,,,,5,1.034,1,,,,,,-0.429166667,-0.415,1,0,0,1.0344,Obsidian_rect,12,0,12,0,1,
6673614ba412b0139c83fd21,TCR,2024-06-24_17h32.36.182,LearnStrategy,2023.2.3,Win32,59.88023952,7,2,14,,,,,,,,6,08,,,,,,,,,,,6,1.001,1,,,,,,-0.1425,-0.414166667,1,0,0,1.0005,Pegmatite_rect,13,0,13,0,1,
6673614ba412b0139c83fd21,TCR,2024-06-24_17h32.36.182,LearnStrategy,2023.2.3,Win32,59.88023952,7,2,15,,,,,,,,3,09,,,,,,,,,,,3,0.885,1,,,,,,0.145,-0.243333333,1,0,0,0.885,Diorite_rect,14,0,14,0,1,
6673614ba412b0139c83fd21,TCR,2024-06-24_17h32.36.182,LearnStrategy,2023.2.3,Win32,59.88023952,7,2,16,,,,,,,,5,05,,,,,,,,,,,5,1.434,1,,,,,,-0.386666667,-0.396666667,1,0,0,1.4343,Obsidian_rect,15,0,15,0,1,
6673614ba412b0139c83fd21,TCR,2024-06-24_17h32.36.182,LearnStrategy,2023.2.3,Win32,59.88023952,8,1,1,-0.044166667,0.001666667,1,0,0,0.7036,rock_grid_rect_2,4,01,-1,-1,0.704,0.38,-0.245833333,1,0,0,1.9317,Gabbro_rect,4,1.932,1,0,0,0,0,1,,,,,,,,,,,,,
6673614ba412b0139c83fd21,TCR,2024-06-24_17h32.36.182,LearnStrategy,2023.2.3,Win32,59.88023952,8,1,2,-0.026666667,-0.001666667,1,0,0,0.6368,rock_grid_rect_2,3,10,-1,-1,0.637,0.083333333,-0.255833333,1,0,0,2.0311,Diorite_rect,3,2.031,1,1,0,1,0,1,,,,,,,,,,,,,
6673614ba412b0139c83fd21,TCR,2024-06-24_17h32.36.182,LearnStrategy,2023.2.3,Win32,59.88023952,8,1,3,-0.005,-0.010833333,1,0,0,0.7027,rock_grid_rect_2,1,04,-1,-1,0.703,-0.3475,-0.265,1,0,0,1.0637,Andesite_rect,1,1.064,1,2,0,2,0,1,,,,,,,,,,,,,
6673614ba412b0139c83fd21,TCR,2024-06-24_17h32.36.182,LearnStrategy,2023.2.3,Win32,59.88023952,8,1,4,0.025,-0.01,1,0,0,0.469,rock_grid_rect_2,1,11,-1,-1,0.469,-0.3525,-0.249166667,1,0,0,0.8145,Andesite_rect,1,0.814,1,3,0,3,0,1,,,,,,,,,,,,,
6673614ba412b0139c83fd21,TCR,2024-06-24_17h32.36.182,LearnStrategy,2023.2.3,Win32,59.88023952,8,1,5,-0.000833333,0.000833333,1,0,0,0.6688,rock_grid_rect_2,4,15,-1,-1,0.669,0.1275,-0.244166667,1,0,0,1.7662,Diorite_rect,3,1.766,0,4,0,4,0,1,,,,,,,,,,,,,
6673614ba412b0139c83fd21,TCR,2024-06-24_17h32.36.182,LearnStrategy,2023.2.3,Win32,59.88023952,8,1,6,0.094166667,0,1,0,0,0.586,rock_grid_rect_2,2,11,-1,-1,0.586,-0.130833333,-0.235833333,1,0,0,1.5142,Basalt_rect,2,1.514,1,5,0,5,0,1,,,,,,,,,,,,,
6673614ba412b0139c83fd21,TCR,2024-06-24_17h32.36.182,LearnStrategy,2023.2.3,Win32,59.88023952,8,1,7,0.024166667,0.011666667,1,0,0,0.6691,rock_grid_rect_2,7,04,-1,-1,0.669,0.116666667,-0.4125,1,0,0,2.0482,Peridotite_rect,7,2.048,1,6,0,6,0,1,,,,,,,,,,,,,
6673614ba412b0139c83fd21,TCR,2024-06-24_17h32.36.182,LearnStrategy,2023.2.3,Win32,59.88023952,8,1,8,0.014166667,-0.013333333,1,0,0,0.4999,rock_grid_rect_2,6,12,-1,-1,0.5,-0.1075,-0.419166667,1,0,0,1.1332,Pegmatite_rect,6,1.133,1,7,0,7,0,1,,,,,,,,,,,,,
6673614ba412b0139c83fd21,TCR,2024-06-24_17h32.36.182,LearnStrategy,2023.2.3,Win32,59.88023952,8,1,9,0.036666667,-0.02,1,0,0,0.6191,rock_grid_rect_2,4,12,-1,-1,0.619,0.350833333,-0.2475,1,0,0,1.0646,Gabbro_rect,4,1.065,1,8,0,8,0,1,,,,,,,,,,,,,
6673614ba412b0139c83fd21,TCR,2024-06-24_17h32.36.182,LearnStrategy,2023.2.3,Win32,59.88023952,8,1,10,-0.016666667,-0.008333333,1,0,0,0.9358,rock_grid_rect_2,1,04,-1,-1,0.936,-0.371666667,-0.240833333,1,0,0,0.8645,Andesite_rect,1,0.864,1,9,0,9,0,1,,,,,,,,,,,,,
6673614ba412b0139c83fd21,TCR,2024-06-24_17h32.36.182,LearnStrategy,2023.2.3,Win32,59.88023952,8,1,11,0.0025,0.014166667,1,0,0,0.6021,rock_grid_rect_2,8,02,-1,-1,0.602,0.328333333,-0.400833333,1,0,0,4.4344,Pumice_rect,8,4.434,1,10,0,10,0,1,,,,,,,,,,,,,
6673614ba412b0139c83fd21,TCR,2024-06-24_17h32.36.182,LearnStrategy,2023.2.3,Win32,59.88023952,8,1,12,0.025,0.0025,1,0,0,1.1532,rock_grid_rect_2,2,14,-1,-1,1.153,-0.149166667,-0.251666667,1,0,0,2.3495,Basalt_rect,2,2.35,1,11,0,11,0,1,,,,,,,,,,,,,
6673614ba412b0139c83fd21,TCR,2024-06-24_17h32.36.182,LearnStrategy,2023.2.3,Win32,59.88023952,8,1,13,0.011666667,-0.015833333,1,0,0,0.5186,rock_grid_rect_2,4,05,-1,-1,0.519,0.410833333,-0.254166667,1,0,0,1.3643,Gabbro_rect,4,1.364,1,12,0,12,0,1,,,,,,,,,,,,,
6673614ba412b0139c83fd21,TCR,2024-06-24_17h32.36.182,LearnStrategy,2023.2.3,Win32,59.88023952,8,1,14,0.090833333,0.020833333,1,0,0,0.7528,rock_grid_rect_2,6,13,-1,-1,0.753,-0.1575,-0.410833333,1,0,0,1.3143,Pegmatite_rect,6,1.314,1,13,0,13,0,1,,,,,,,,,,,,,
6673614ba412b0139c83fd21,TCR,2024-06-24_17h32.36.182,LearnStrategy,2023.2.3,Win32,59.88023952,8,1,15,-0.0475,-0.0125,1,0,0,0.5861,rock_grid_rect_2,5,06,-1,-1,0.586,-0.38,-0.380833333,1,0,0,1.1306,Obsidian_rect,5,1.131,1,14,0,14,0,1,,,,,,,,,,,,,
6673614ba412b0139c83fd21,TCR,2024-06-24_17h32.36.182,LearnStrategy,2023.2.3,Win32,59.88023952,8,1,16,0.036666667,-0.006666667,1,0,0,0.8031,rock_grid_rect_2,4,08,-1,-1,0.803,0.3875,-0.250833333,1,0,0,1.1636,Gabbro_rect,4,1.164,1,15,0,15,0,1,,,,,,,,,,,,,
6673614ba412b0139c83fd21,TCR,2024-06-24_17h32.36.182,LearnStrategy,2023.2.3,Win32,59.88023952,8,2,1,,,,,,,,4,11,,,,,,,,,,,4,1.234,1,,,,,,0.416666667,-0.2425,1,0,0,1.2336,Gabbro_rect,0,0,0,0,1,
6673614ba412b0139c83fd21,TCR,2024-06-24_17h32.36.182,LearnStrategy,2023.2.3,Win32,59.88023952,8,2,2,,,,,,,,5,09,,,,,,,,,,,5,1.017,1,,,,,,-0.365,-0.3875,1,0,0,1.0174,Obsidian_rect,1,0,1,0,1,
6673614ba412b0139c83fd21,TCR,2024-06-24_17h32.36.182,LearnStrategy,2023.2.3,Win32,59.88023952,8,2,3,,,,,,,,7,15,,,,,,,,,,,7,0.984,1,,,,,,0.121666667,-0.409166667,1,0,0,0.9841,Peridotite_rect,2,0,2,0,1,
6673614ba412b0139c83fd21,TCR,2024-06-24_17h32.36.182,LearnStrategy,2023.2.3,Win32,59.88023952,8,2,4,,,,,,,,3,06,,,,,,,,,,,3,3.419,1,,,,,,0.121666667,-0.258333333,1,0,0,3.4191,Diorite_rect,3,0,3,0,1,
6673614ba412b0139c83fd21,TCR,2024-06-24_17h32.36.182,LearnStrategy,2023.2.3,Win32,59.88023952,8,2,5,,,,,,,,6,10,,,,,,,,,,,6,1.012,1,,,,,,-0.116666667,-0.4125,1,0,0,1.0123,Pegmatite_rect,4,0,4,0,1,
6673614ba412b0139c83fd21,TCR,2024-06-24_17h32.36.182,LearnStrategy,2023.2.3,Win32,59.88023952,8,2,6,,,,,,,,2,05,,,,,,,,,,,2,0.834,1,,,,,,-0.15,-0.256666667,1,0,0,0.8337,Basalt_rect,5,0,5,0,1,
6673614ba412b0139c83fd21,TCR,2024-06-24_17h32.36.182,LearnStrategy,2023.2.3,Win32,59.88023952,8,2,7,,,,,,,,1,16,,,,,,,,,,,1,0.884,1,,,,,,-0.365,-0.241666667,1,0,0,0.8839,Andesite_rect,6,0,6,0,1,
6673614ba412b0139c83fd21,TCR,2024-06-24_17h32.36.182,LearnStrategy,2023.2.3,Win32,59.88023952,8,2,8,,,,,,,,4,16,,,,,,,,,,,2,1.802,0,,,,,,-0.1275,-0.240833333,1,0,0,1.8018,Basalt_rect,7,0,7,0,1,
6673614ba412b0139c83fd21,TCR,2024-06-24_17h32.36.182,LearnStrategy,2023.2.3,Win32,59.88023952,8,2,9,,,,,,,,1,10,,,,,,,,,,,1,1.584,1,,,,,,-0.341666667,-0.248333333,1,0,0,1.5845,Andesite_rect,8,0,8,0,1,
6673614ba412b0139c83fd21,TCR,2024-06-24_17h32.36.182,LearnStrategy,2023.2.3,Win32,59.88023952,8,2,10,,,,,,,,8,14,,,,,,,,,,,8,1.001,1,,,,,,0.445,-0.4,1,0,0,1.0009,Pumice_rect,9,0,9,0,1,
6673614ba412b0139c83fd21,TCR,2024-06-24_17h32.36.182,LearnStrategy,2023.2.3,Win32,59.88023952,8,2,11,,,,,,,,7,10,,,,,,,,,,,7,0.851,1,,,,,,0.095833333,-0.3975,1,0,0,0.8505,Peridotite_rect,10,0,10,0,1,
6673614ba412b0139c83fd21,TCR,2024-06-24_17h32.36.182,LearnStrategy,2023.2.3,Win32,59.88023952,8,2,12,,,,,,,,5,04,,,,,,,,,,,5,0.917,1,,,,,,-0.415,-0.391666667,1,0,0,0.9167,Obsidian_rect,11,0,11,0,1,
6673614ba412b0139c83fd21,TCR,2024-06-24_17h32.36.182,LearnStrategy,2023.2.3,Win32,59.88023952,8,2,13,,,,,,,,6,03,,,,,,,,,,,6,1.434,1,,,,,,-0.124166667,-0.404166667,1,0,0,1.4345,Pegmatite_rect,12,0,12,0,1,
6673614ba412b0139c83fd21,TCR,2024-06-24_17h32.36.182,LearnStrategy,2023.2.3,Win32,59.88023952,8,2,14,,,,,,,,3,02,,,,,,,,,,,3,0.75,1,,,,,,0.146666667,-0.243333333,1,0,0,0.7502,Diorite_rect,13,0,13,0,1,
6673614ba412b0139c83fd21,TCR,2024-06-24_17h32.36.182,LearnStrategy,2023.2.3,Win32,59.88023952,8,2,15,,,,,,,,8,15,,,,,,,,,,,8,0.917,1,,,,,,0.419166667,-0.39,1,0,0,0.917,Pumice_rect,14,0,14,0,1,
6673614ba412b0139c83fd21,TCR,2024-06-24_17h32.36.182,LearnStrategy,2023.2.3,Win32,59.88023952,8,2,16,,,,,,,,2,09,,,,,,,,,,,2,0.75,1,,,,,,-0.130833333,-0.240833333,1,0,0,0.75,Basalt_rect,15,0,15,0,1,
6673614ba412b0139c83fd21,TCR,2024-06-24_17h32.36.182,LearnStrategy,2023.2.3,Win32,59.88023952,9,1,1,0.028333333,-0.005,1,0,0,0.6158,rock_grid_rect_2,4,05,-1,-1,0.616,0.389166667,-0.229166667,1,0,0,1.1348,Gabbro_rect,4,1.135,1,0,0,0,0,1,,,,,,,,,,,,,
6673614ba412b0139c83fd21,TCR,2024-06-24_17h32.36.182,LearnStrategy,2023.2.3,Win32,59.88023952,9,1,2,0.016666667,0.003333333,1,0,0,0.9702,rock_grid_rect_2,4,08,-1,-1,0.97,0.394166667,-0.265,1,0,0,1.2478,Gabbro_rect,4,1.248,1,1,0,1,0,1,,,,,,,,,,,,,
6673614ba412b0139c83fd21,TCR,2024-06-24_17h32.36.182,LearnStrategy,2023.2.3,Win32,59.88023952,9,1,3,0.059166667,-0.005833333,1,0,0,0.8179,rock_grid_rect_2,5,10,-1,-1,0.818,-0.3825,-0.415,1,0,0,2.001,Obsidian_rect,5,2.001,1,2,0,2,0,1,,,,,,,,,,,,,
6673614ba412b0139c83fd21,TCR,2024-06-24_17h32.36.182,LearnStrategy,2023.2.3,Win32,59.88023952,9,1,4,0.020833333,-0.010833333,1,0,0,0.786,rock_grid_rect_2,3,12,-1,-1,0.786,0.108333333,-0.229166667,1,0,0,1.6478,Diorite_rect,3,1.648,1,3,0,3,0,1,,,,,,,,,,,,,
6673614ba412b0139c83fd21,TCR,2024-06-24_17h32.36.182,LearnStrategy,2023.2.3,Win32,59.88023952,9,1,5,-0.058333333,0.015,1,0,0,0.5321,rock_grid_rect_2,1,02,-1,-1,0.532,-0.375,-0.235833333,1,0,0,0.8345,Andesite_rect,1,0.834,1,4,0,4,0,1,,,,,,,,,,,,,
6673614ba412b0139c83fd21,TCR,2024-06-24_17h32.36.182,LearnStrategy,2023.2.3,Win32,59.88023952,9,1,6,0.015,-0.0025,1,0,0,0.7858,rock_grid_rect_2,2,14,-1,-1,0.786,-0.115833333,-0.241666667,1,0,0,1.9988,Basalt_rect,2,1.999,1,5,0,5,0,1,,,,,,,,,,,,,
6673614ba412b0139c83fd21,TCR,2024-06-24_17h32.36.182,LearnStrategy,2023.2.3,Win32,59.88023952,9,1,7,-0.034166667,0.009166667,1,0,0,0.6503,rock_grid_rect_2,8,03,-1,-1,0.65,0.404166667,-0.400833333,1,0,0,0.8494,Pumice_rect,8,0.849,1,6,0,6,0,1,,,,,,,,,,,,,
6673614ba412b0139c83fd21,TCR,2024-06-24_17h32.36.182,LearnStrategy,2023.2.3,Win32,59.88023952,9,1,8,-0.003333333,0.005833333,1,0,0,0.5689,rock_grid_rect_2,1,11,-1,-1,0.569,-0.365833333,-0.2525,1,0,0,1.4478,Andesite_rect,1,1.448,1,7,0,7,0,1,,,,,,,,,,,,,
6673614ba412b0139c83fd21,TCR,2024-06-24_17h32.36.182,LearnStrategy,2023.2.3,Win32,59.88023952,9,1,9,-0.006666667,0.004166667,1,0,0,0.502,rock_grid_rect_2,6,07,-1,-1,0.502,-0.151666667,-0.396666667,1,0,0,1.9818,Pegmatite_rect,6,1.982,1,8,0,8,0,1,,,,,,,,,,,,,
6673614ba412b0139c83fd21,TCR,2024-06-24_17h32.36.182,LearnStrategy,2023.2.3,Win32,59.88023952,9,1,10,0.013333333,-0.0125,1,0,0,0.5693,rock_grid_rect_2,1,09,-1,-1,0.569,-0.356666667,-0.245833333,1,0,0,1.1476,Andesite_rect,1,1.148,1,9,0,9,0,1,,,,,,,,,,,,,
6673614ba412b0139c83fd21,TCR,2024-06-24_17h32.36.182,LearnStrategy,2023.2.3,Win32,59.88023952,9,1,11,-0.059166667,-0.0125,1,0,0,0.6361,rock_grid_rect_2,4,12,-1,-1,0.636,0.374166667,-0.26,1,0,0,1.3141,Gabbro_rect,4,1.314,1,10,0,10,0,1,,,,,,,,,,,,,
6673614ba412b0139c83fd21,TCR,2024-06-24_17h32.36.182,LearnStrategy,2023.2.3,Win32,59.88023952,9,1,12,0.015833333,0.001666667,1,0,0,0.7529,rock_grid_rect_2,4,08,-1,-1,0.753,0.339166667,-0.268333333,1,0,0,0.897,Gabbro_rect,4,0.897,1,11,0,11,0,1,,,,,,,,,,,,,
6673614ba412b0139c83fd21,TCR,2024-06-24_17h32.36.182,LearnStrategy,2023.2.3,Win32,59.88023952,9,1,13,-0.0075,0.000833333,1,0,0,0.7524,rock_grid_rect_2,2,12,-1,-1,0.752,-0.150833333,-0.255,1,0,0,0.6809,Basalt_rect,2,0.681,1,12,0,12,0,1,,,,,,,,,,,,,
6673614ba412b0139c83fd21,TCR,2024-06-24_17h32.36.182,LearnStrategy,2023.2.3,Win32,59.88023952,9,1,14,0.0275,-0.008333333,1,0,0,0.7357,rock_grid_rect_2,7,13,-1,-1,0.736,0.143333333,-0.389166667,1,0,0,1.1149,Peridotite_rect,7,1.115,1,13,0,13,0,1,,,,,,,,,,,,,
6673614ba412b0139c83fd21,TCR,2024-06-24_17h32.36.182,LearnStrategy,2023.2.3,Win32,59.88023952,9,1,15,0.03,0.011666667,1,0,0,0.4503,rock_grid_rect_2,4,09,-1,-1,0.45,0.403333333,-0.240833333,1,0,0,2.4337,Gabbro_rect,4,2.434,1,14,0,14,0,1,,,,,,,,,,,,,
6673614ba412b0139c83fd21,TCR,2024-06-24_17h32.36.182,LearnStrategy,2023.2.3,Win32,59.88023952,9,1,16,-0.024166667,-0.0125,1,0,0,0.8694,rock_grid_rect_2,4,08,-1,-1,0.869,0.353333333,-0.25,1,0,0,0.7472,Gabbro_rect,4,0.747,1,15,0,15,0,1,,,,,,,,,,,,,
6673614ba412b0139c83fd21,TCR,2024-06-24_17h32.36.182,LearnStrategy,2023.2.3,Win32,59.88023952,9,2,1,,,,,,,,2,10,,,,,,,,,,,2,0.984,1,,,,,,-0.106666667,-0.245,1,0,0,0.984,Basalt_rect,0,0,0,0,1,
6673614ba412b0139c83fd21,TCR,2024-06-24_17h32.36.182,LearnStrategy,2023.2.3,Win32,59.88023952,9,2,2,,,,,,,,1,01,,,,,,,,,,,2,3.486,0,,,,,,-0.144166667,-0.2575,1,0,0,3.4862,Basalt_rect,1,0,1,0,1,
6673614ba412b0139c83fd21,TCR,2024-06-24_17h32.36.182,LearnStrategy,2023.2.3,Win32,59.88023952,9,2,3,,,,,,,,8,09,,,,,,,,,,,8,0.929,1,,,,,,0.4,-0.403333333,1,0,0,0.9292,Pumice_rect,2,0,2,0,1,
6673614ba412b0139c83fd21,TCR,2024-06-24_17h32.36.182,LearnStrategy,2023.2.3,Win32,59.88023952,9,2,4,,,,,,,,5,02,,,,,,,,,,,5,0.968,1,,,,,,-0.378333333,-0.410833333,1,0,0,0.9683,Obsidian_rect,3,0,3,0,1,
6673614ba412b0139c83fd21,TCR,2024-06-24_17h32.36.182,LearnStrategy,2023.2.3,Win32,59.88023952,9,2,5,,,,,,,,5,14,,,,,,,,,,,5,1.301,1,,,,,,-0.343333333,-0.3875,1,0,0,1.3013,Obsidian_rect,4,0,4,0,1,
6673614ba412b0139c83fd21,TCR,2024-06-24_17h32.36.182,LearnStrategy,2023.2.3,Win32,59.88023952,9,2,6,,,,,,,,3,15,,,,,,,,,,,3,0.918,1,,,,,,0.185,-0.244166667,1,0,0,0.9175,Diorite_rect,5,0,5,0,1,
6673614ba412b0139c83fd21,TCR,2024-06-24_17h32.36.182,LearnStrategy,2023.2.3,Win32,59.88023952,9,2,7,,,,,,,,1,07,,,,,,,,,,,1,1.184,1,,,,,,-0.406666667,-0.248333333,1,0,0,1.1842,Andesite_rect,6,0,6,0,1,
6673614ba412b0139c83fd21,TCR,2024-06-24_17h32.36.182,LearnStrategy,2023.2.3,Win32,59.88023952,9,2,8,,,,,,,,4,03,,,,,,,,,,,4,1.001,1,,,,,,0.354166667,-0.245833333,1,0,0,1.0009,Gabbro_rect,7,0,7,0,1,
6673614ba412b0139c83fd21,TCR,2024-06-24_17h32.36.182,LearnStrategy,2023.2.3,Win32,59.88023952,9,2,9,,,,,,,,8,04,,,,,,,,,,,8,0.817,1,,,,,,0.355833333,-0.3875,1,0,0,0.817,Pumice_rect,8,0,8,0,1,
6673614ba412b0139c83fd21,TCR,2024-06-24_17h32.36.182,LearnStrategy,2023.2.3,Win32,59.88023952,9,2,10,,,,,,,,6,06,,,,,,,,,,,6,0.917,1,,,,,,-0.123333333,-0.3975,1,0,0,0.917,Pegmatite_rect,9,0,9,0,1,
6673614ba412b0139c83fd21,TCR,2024-06-24_17h32.36.182,LearnStrategy,2023.2.3,Win32,59.88023952,9,2,11,,,,,,,,7,02,,,,,,,,,,,7,0.818,1,,,,,,0.121666667,-0.414166667,1,0,0,0.8177,Peridotite_rect,10,0,10,0,1,
6673614ba412b0139c83fd21,TCR,2024-06-24_17h32.36.182,LearnStrategy,2023.2.3,Win32,59.88023952,9,2,12,,,,,,,,7,06,,,,,,,,,,,7,1.367,1,,,,,,0.1175,-0.413333333,1,0,0,1.3673,Peridotite_rect,11,0,11,0,1,
6673614ba412b0139c83fd21,TCR,2024-06-24_17h32.36.182,LearnStrategy,2023.2.3,Win32,59.88023952,9,2,13,,,,,,,,3,16,,,,,,,,,,,3,1.034,1,,,,,,0.096666667,-0.248333333,1,0,0,1.0336,Diorite_rect,12,0,12,0,1,
6673614ba412b0139c83fd21,TCR,2024-06-24_17h32.36.182,LearnStrategy,2023.2.3,Win32,59.88023952,9,2,14,,,,,,,,6,15,,,,,,,,,,,6,1,1,,,,,,-0.124166667,-0.401666667,1,0,0,1.0002,Pegmatite_rect,13,0,13,0,1,
6673614ba412b0139c83fd21,TCR,2024-06-24_17h32.36.182,LearnStrategy,2023.2.3,Win32,59.88023952,9,2,15,,,,,,,,2,06,,,,,,,,,,,2,0.767,1,,,,,,-0.129166667,-0.251666667,1,0,0,0.7675,Basalt_rect,14,0,14,0,1,
6673614ba412b0139c83fd21,TCR,2024-06-24_17h32.36.182,LearnStrategy,2023.2.3,Win32,59.88023952,9,2,16,,,,,,,,4,14,,,,,,,,,,,4,8.289,1,,,,,,0.4475,-0.2525,1,0,0,8.2894,Gabbro_rect,15,0,15,0,1,
6673614ba412b0139c83fd21,TCR,2024-06-24_17h32.36.182,LearnStrategy,2023.2.3,Win32,59.88023952,,,,,,,,,,,,,,,,,,,,,,,,,,,,,,,,,,,,,,,,,,,1
6673614ba412b0139c83fd21,TCR,2024-06-24_17h32.36.182,LearnStrategy,2023.2.3,Win32,59.88023952,,,,,,,,,,,,,,,,,,,,,,,,,,,,,,,,,,,,,,,,,,,
6673614ba412b0139c83fd21,TCR,2024-06-24_17h32.36.182,LearnStrategy,2023.2.3,Win32,59.88023952,,,,,,,,,,,3,14,1,1,,,,,,,,,,,,,,,,,,,,,,,,,,,,,
6673614ba412b0139c83fd21,TCR,2024-06-24_17h32.36.182,LearnStrategy,2023.2.3,Win32,59.88023952,,,,,,,,,,,1,05,1,2,,,,,,,,,,,,,,,,,,,,,,,,,,,,,
6673614ba412b0139c83fd21,TCR,2024-06-24_17h32.36.182,LearnStrategy,2023.2.3,Win32,59.88023952,,,,,,,,,,,7,14,1,3,,,,,,,,,,,,,,,,,,,,,,,,,,,,,
6673614ba412b0139c83fd21,TCR,2024-06-24_17h32.36.182,LearnStrategy,2023.2.3,Win32,59.88023952,,,,,,,,,,,7,12,1,4,,,,,,,,,,,,,,,,,,,,,,,,,,,,,
6673614ba412b0139c83fd21,TCR,2024-06-24_17h32.36.182,LearnStrategy,2023.2.3,Win32,59.88023952,,,,,,,,,,,3,13,1,5,,,,,,,,,,,,,,,,,,,,,,,,,,,,,
6673614ba412b0139c83fd21,TCR,2024-06-24_17h32.36.182,LearnStrategy,2023.2.3,Win32,59.88023952,,,,,,,,,,,4,05,1,6,,,,,,,,,,,,,,,,,,,,,,,,,,,,,
6673614ba412b0139c83fd21,TCR,2024-06-24_17h32.36.182,LearnStrategy,2023.2.3,Win32,59.88023952,,,,,,,,,,,3,07,1,7,,,,,,,,,,,,,,,,,,,,,,,,,,,,,
6673614ba412b0139c83fd21,TCR,2024-06-24_17h32.36.182,LearnStrategy,2023.2.3,Win32,59.88023952,,,,,,,,,,,6,05,1,8,,,,,,,,,,,,,,,,,,,,,,,,,,,,,
6673614ba412b0139c83fd21,TCR,2024-06-24_17h32.36.182,LearnStrategy,2023.2.3,Win32,59.88023952,,,,,,,,,,,4,12,2,1,,,,,,,,,,,,,,,,,,,,,,,,,,,,,
6673614ba412b0139c83fd21,TCR,2024-06-24_17h32.36.182,LearnStrategy,2023.2.3,Win32,59.88023952,,,,,,,,,,,6,07,2,2,,,,,,,,,,,,,,,,,,,,,,,,,,,,,
6673614ba412b0139c83fd21,TCR,2024-06-24_17h32.36.182,LearnStrategy,2023.2.3,Win32,59.88023952,,,,,,,,,,,5,10,2,3,,,,,,,,,,,,,,,,,,,,,,,,,,,,,
6673614ba412b0139c83fd21,TCR,2024-06-24_17h32.36.182,LearnStrategy,2023.2.3,Win32,59.88023952,,,,,,,,,,,8,02,2,4,,,,,,,,,,,,,,,,,,,,,,,,,,,,,
6673614ba412b0139c83fd21,TCR,2024-06-24_17h32.36.182,LearnStrategy,2023.2.3,Win32,59.88023952,,,,,,,,,,,2,02,2,5,,,,,,,,,,,,,,,,,,,,,,,,,,,,,
6673614ba412b0139c83fd21,TCR,2024-06-24_17h32.36.182,LearnStrategy,2023.2.3,Win32,59.88023952,,,,,,,,,,,6,13,2,6,,,,,,,,,,,,,,,,,,,,,,,,,,,,,
6673614ba412b0139c83fd21,TCR,2024-06-24_17h32.36.182,LearnStrategy,2023.2.3,Win32,59.88023952,,,,,,,,,,,8,16,2,7,,,,,,,,,,,,,,,,,,,,,,,,,,,,,
6673614ba412b0139c83fd21,TCR,2024-06-24_17h32.36.182,LearnStrategy,2023.2.3,Win32,59.88023952,,,,,,,,,,,2,14,2,8,,,,,,,,,,,,,,,,,,,,,,,,,,,,,
6673614ba412b0139c83fd21,TCR,2024-06-24_17h32.36.182,LearnStrategy,2023.2.3,Win32,59.88023952,,,,,,,,,,,1,09,3,1,,,,,,,,,,,,,,,,,,,,,,,,,,,,,
6673614ba412b0139c83fd21,TCR,2024-06-24_17h32.36.182,LearnStrategy,2023.2.3,Win32,59.88023952,,,,,,,,,,,7,08,3,2,,,,,,,,,,,,,,,,,,,,,,,,,,,,,
6673614ba412b0139c83fd21,TCR,2024-06-24_17h32.36.182,LearnStrategy,2023.2.3,Win32,59.88023952,,,,,,,,,,,8,06,3,3,,,,,,,,,,,,,,,,,,,,,,,,,,,,,
6673614ba412b0139c83fd21,TCR,2024-06-24_17h32.36.182,LearnStrategy,2023.2.3,Win32,59.88023952,,,,,,,,,,,3,11,3,4,,,,,,,,,,,,,,,,,,,,,,,,,,,,,
6673614ba412b0139c83fd21,TCR,2024-06-24_17h32.36.182,LearnStrategy,2023.2.3,Win32,59.88023952,,,,,,,,,,,4,09,3,5,,,,,,,,,,,,,,,,,,,,,,,,,,,,,
6673614ba412b0139c83fd21,TCR,2024-06-24_17h32.36.182,LearnStrategy,2023.2.3,Win32,59.88023952,,,,,,,,,,,7,07,3,6,,,,,,,,,,,,,,,,,,,,,,,,,,,,,
6673614ba412b0139c83fd21,TCR,2024-06-24_17h32.36.182,LearnStrategy,2023.2.3,Win32,59.88023952,,,,,,,,,,,8,10,3,7,,,,,,,,,,,,,,,,,,,,,,,,,,,,,
6673614ba412b0139c83fd21,TCR,2024-06-24_17h32.36.182,LearnStrategy,2023.2.3,Win32,59.88023952,,,,,,,,,,,7,13,3,8,,,,,,,,,,,,,,,,,,,,,,,,,,,,,
6673614ba412b0139c83fd21,TCR,2024-06-24_17h32.36.182,LearnStrategy,2023.2.3,Win32,59.88023952,,,,,,,,,,,2,12,4,1,,,,,,,,,,,,,,,,,,,,,,,,,,,,,
6673614ba412b0139c83fd21,TCR,2024-06-24_17h32.36.182,LearnStrategy,2023.2.3,Win32,59.88023952,,,,,,,,,,,2,11,4,2,,,,,,,,,,,,,,,,,,,,,,,,,,,,,
6673614ba412b0139c83fd21,TCR,2024-06-24_17h32.36.182,LearnStrategy,2023.2.3,Win32,59.88023952,,,,,,,,,,,4,08,4,3,,,,,,,,,,,,,,,,,,,,,,,,,,,,,
6673614ba412b0139c83fd21,TCR,2024-06-24_17h32.36.182,LearnStrategy,2023.2.3,Win32,59.88023952,,,,,,,,,,,5,11,4,4,,,,,,,,,,,,,,,,,,,,,,,,,,,,,
6673614ba412b0139c83fd21,TCR,2024-06-24_17h32.36.182,LearnStrategy,2023.2.3,Win32,59.88023952,,,,,,,,,,,8,03,4,5,,,,,,,,,,,,,,,,,,,,,,,,,,,,,
6673614ba412b0139c83fd21,TCR,2024-06-24_17h32.36.182,LearnStrategy,2023.2.3,Win32,59.88023952,,,,,,,,,,,1,02,4,6,,,,,,,,,,,,,,,,,,,,,,,,,,,,,
6673614ba412b0139c83fd21,TCR,2024-06-24_17h32.36.182,LearnStrategy,2023.2.3,Win32,59.88023952,,,,,,,,,,,5,06,4,7,,,,,,,,,,,,,,,,,,,,,,,,,,,,,
6673614ba412b0139c83fd21,TCR,2024-06-24_17h32.36.182,LearnStrategy,2023.2.3,Win32,59.88023952,,,,,,,,,,,2,04,4,8,,,,,,,,,,,,,,,,,,,,,,,,,,,,,
6673614ba412b0139c83fd21,TCR,2024-06-24_17h32.36.182,LearnStrategy,2023.2.3,Win32,59.88023952,,,,,,,,,,,3,12,5,1,,,,,,,,,,,,,,,,,,,,,,,,,,,,,
6673614ba412b0139c83fd21,TCR,2024-06-24_17h32.36.182,LearnStrategy,2023.2.3,Win32,59.88023952,,,,,,,,,,,1,11,5,2,,,,,,,,,,,,,,,,,,,,,,,,,,,,,
6673614ba412b0139c83fd21,TCR,2024-06-24_17h32.36.182,LearnStrategy,2023.2.3,Win32,59.88023952,,,,,,,,,,,8,13,5,3,,,,,,,,,,,,,,,,,,,,,,,,,,,,,
6673614ba412b0139c83fd21,TCR,2024-06-24_17h32.36.182,LearnStrategy,2023.2.3,Win32,59.88023952,,,,,,,,,,,2,01,5,4,,,,,,,,,,,,,,,,,,,,,,,,,,,,,
6673614ba412b0139c83fd21,TCR,2024-06-24_17h32.36.182,LearnStrategy,2023.2.3,Win32,59.88023952,,,,,,,,,,,6,12,5,5,,,,,,,,,,,,,,,,,,,,,,,,,,,,,
6673614ba412b0139c83fd21,TCR,2024-06-24_17h32.36.182,LearnStrategy,2023.2.3,Win32,59.88023952,,,,,,,,,,,1,04,5,6,,,,,,,,,,,,,,,,,,,,,,,,,,,,,
6673614ba412b0139c83fd21,TCR,2024-06-24_17h32.36.182,LearnStrategy,2023.2.3,Win32,59.88023952,,,,,,,,,,,1,14,5,7,,,,,,,,,,,,,,,,,,,,,,,,,,,,,
6673614ba412b0139c83fd21,TCR,2024-06-24_17h32.36.182,LearnStrategy,2023.2.3,Win32,59.88023952,,,,,,,,,,,6,11,5,8,,,,,,,,,,,,,,,,,,,,,,,,,,,,,
6673614ba412b0139c83fd21,TCR,2024-06-24_17h32.36.182,LearnStrategy,2023.2.3,Win32,59.88023952,,,,,,,,,,,5,12,6,1,,,,,,,,,,,,,,,,,,,,,,,,,,,,,
6673614ba412b0139c83fd21,TCR,2024-06-24_17h32.36.182,LearnStrategy,2023.2.3,Win32,59.88023952,,,,,,,,,,,5,08,6,2,,,,,,,,,,,,,,,,,,,,,,,,,,,,,
6673614ba412b0139c83fd21,TCR,2024-06-24_17h32.36.182,LearnStrategy,2023.2.3,Win32,59.88023952,,,,,,,,,,,7,04,6,3,,,,,,,,,,,,,,,,,,,,,,,,,,,,,
6673614ba412b0139c83fd21,TCR,2024-06-24_17h32.36.182,LearnStrategy,2023.2.3,Win32,59.88023952,,,,,,,,,,,3,10,6,4,,,,,,,,,,,,,,,,,,,,,,,,,,,,,
6673614ba412b0139c83fd21,TCR,2024-06-24_17h32.36.182,LearnStrategy,2023.2.3,Win32,59.88023952,,,,,,,,,,,4,01,6,5,,,,,,,,,,,,,,,,,,,,,,,,,,,,,
6673614ba412b0139c83fd21,TCR,2024-06-24_17h32.36.182,LearnStrategy,2023.2.3,Win32,59.88023952,,,,,,,,,,,6,09,6,6,,,,,,,,,,,,,,,,,,,,,,,,,,,,,
6673614ba412b0139c83fd21,TCR,2024-06-24_17h32.36.182,LearnStrategy,2023.2.3,Win32,59.88023952,,,,,,,,,,,4,15,6,7,,,,,,,,,,,,,,,,,,,,,,,,,,,,,
6673614ba412b0139c83fd21,TCR,2024-06-24_17h32.36.182,LearnStrategy,2023.2.3,Win32,59.88023952,,,,,,,,,,,5,16,6,8,,,,,,,,,,,,,,,,,,,,,,,,,,,,,