participant,condition,date,expName,psychopyVersion,OS,frameRate,block,phase,trial,learn_mouse_2.x,learn_mouse_2.y,learn_mouse_2.leftButton,learn_mouse_2.midButton,learn_mouse_2.rightButton,learn_mouse_2.time,learn_mouse_2.clicked_name,cat,token,row,col,t_select,cat_mouse_l.x,cat_mouse_l.y,cat_mouse_l.leftButton,cat_mouse_l.midButton,cat_mouse_l.rightButton,cat_mouse_l.time,cat_mouse_l.clicked_name,resp,t_resp,corr,train_trials.thisRepN,train_trials.thisTrialN,train_trials.thisN,train_trials.thisIndex,train_trials.ran,cat_mouse_t.x,cat_mouse_t.y,cat_mouse_t.leftButton,cat_mouse_t.midButton,cat_mouse_t.rightButton,cat_mouse_t.time,cat_mouse_t.clicked_name,test_trials.thisRepN,test_trials.thisTrialN,test_trials.thisN,test_trials.thisIndex,test_trials.ran,Bonus
667387cf2922ed81b45c9e87,TCR,2024-06-24_14h34.18.603,LearnStrategy,2023.2.3,MacIntel,30.21148036,,,,,,,,,,,,,,,,,,,,,,,,,,,,,,,,,,,,,,,,,,,
667387cf2922ed81b45c9e87,TCR,2024-06-24_14h34.18.603,LearnStrategy,2023.2.3,MacIntel,30.21148036,1,1,1,0.065386752,-0.011192557,1,0,0,1.6267,rock_grid_rect_2,4,10,-1,-1,1.627,0.346669639,-0.38180031,1,0,0,43.3516,Pumice_rect,8,43.352,0,0,0,0,0,1,,,,,,,,,,,,,
667387cf2922ed81b45c9e87,TCR,2024-06-24_14h34.18.603,LearnStrategy,2023.2.3,MacIntel,30.21148036,1,1,2,0.007282653,-0.011978192,1,0,0,1.0871,rock_grid_rect_2,8,14,-1,-1,1.087,0.333591558,-0.42104917,1,0,0,2.8252,Pumice_rect,8,2.825,1,1,0,1,0,1,,,,,,,,,,,,,
667387cf2922ed81b45c9e87,TCR,2024-06-24_14h34.18.603,LearnStrategy,2023.2.3,MacIntel,30.21148036,1,1,3,-0.006533559,-0.002802707,1,0,0,1.0642,rock_grid_rect_2,3,16,-1,-1,1.064,0.124634588,-0.255313085,1,0,0,6.5918,Diorite_rect,3,6.592,1,2,0,2,0,1,,,,,,,,,,,,,
667387cf2922ed81b45c9e87,TCR,2024-06-24_14h34.18.603,LearnStrategy,2023.2.3,MacIntel,30.21148036,1,1,4,0.02238146,-0.008137716,1,0,0,0.9227,rock_grid_rect_2,8,10,-1,-1,0.923,0.15751067,-0.396098866,1,0,0,4.1256,Peridotite_rect,7,4.126,0,3,0,3,0,1,,,,,,,,,,,,,
667387cf2922ed81b45c9e87,TCR,2024-06-24_14h34.18.603,LearnStrategy,2023.2.3,MacIntel,30.21148036,1,1,5,-0.006011021,-0.009241259,1,0,0,1.5302,rock_grid_rect_2,2,04,-1,-1,1.53,-0.323666978,-0.418717844,1,0,0,4.7236,Obsidian_rect,5,4.724,0,4,0,4,0,1,,,,,,,,,,,,,
667387cf2922ed81b45c9e87,TCR,2024-06-24_14h34.18.603,LearnStrategy,2023.2.3,MacIntel,30.21148036,1,1,6,-0.007490938,-0.01638871,1,0,0,1.3559,rock_grid_rect_2,2,08,-1,-1,1.356,0.380028064,-0.253405636,1,0,0,3.8241,Gabbro_rect,4,3.824,0,5,0,5,0,1,,,,,,,,,,,,,
667387cf2922ed81b45c9e87,TCR,2024-06-24_14h34.18.603,LearnStrategy,2023.2.3,MacIntel,30.21148036,1,1,7,0.051026076,-0.022249912,1,0,0,0.8969,rock_grid_rect_2,6,12,-1,-1,0.897,-0.335721907,-0.242161921,1,0,0,1.925,Andesite_rect,1,1.925,0,6,0,6,0,1,,,,,,,,,,,,,
667387cf2922ed81b45c9e87,TCR,2024-06-24_14h34.18.603,LearnStrategy,2023.2.3,MacIntel,30.21148036,1,1,8,0.037308524,0.00599275,1,0,0,0.9887,rock_grid_rect_2,5,09,-1,-1,0.989,-0.405117224,-0.415527801,1,0,0,7.6586,Obsidian_rect,5,7.659,1,7,0,7,0,1,,,,,,,,,,,,,
667387cf2922ed81b45c9e87,TCR,2024-06-24_14h34.18.603,LearnStrategy,2023.2.3,MacIntel,30.21148036,1,1,9,-0.014901485,-0.001286249,1,0,0,1.3547,rock_grid_rect_2,4,15,-1,-1,1.355,-0.096249415,-0.381230268,1,0,0,12.3247,Pegmatite_rect,6,12.325,0,8,0,8,0,1,,,,,,,,,,,,,
667387cf2922ed81b45c9e87,TCR,2024-06-24_14h34.18.603,LearnStrategy,2023.2.3,MacIntel,30.21148036,1,1,10,-0.052765435,-0.013633507,1,0,0,1.3882,rock_grid_rect_2,5,06,-1,-1,1.388,-0.337000848,-0.384698024,1,0,0,10.4238,Obsidian_rect,5,10.424,1,9,0,9,0,1,,,,,,,,,,,,,
667387cf2922ed81b45c9e87,TCR,2024-06-24_14h34.18.603,LearnStrategy,2023.2.3,MacIntel,30.21148036,1,1,11,0.06545618,0.01254458,1,0,0,2.0308,rock_grid_rect_2,3,13,-1,-1,2.031,0.138958723,-0.238865909,1,0,0,6.0238,Diorite_rect,3,6.024,1,10,0,10,0,1,,,,,,,,,,,,,
667387cf2922ed81b45c9e87,TCR,2024-06-24_14h34.18.603,LearnStrategy,2023.2.3,MacIntel,30.21148036,1,1,12,0.049184401,-0.006314312,1,0,0,0.8632,rock_grid_rect_2,1,14,-1,-1,0.863,0.415089307,-0.245797767,1,0,0,7.0921,Gabbro_rect,4,7.092,0,11,0,11,0,1,,,,,,,,,,,,,
667387cf2922ed81b45c9e87,TCR,2024-06-24_14h34.18.603,LearnStrategy,2023.2.3,MacIntel,30.21148036,1,1,13,0.016344861,-0.018584834,1,0,0,0.9223,rock_grid_rect_2,1,02,-1,-1,0.922,0.374225327,-0.24264061,1,0,0,1.7245,Gabbro_rect,4,1.725,0,12,0,12,0,1,,,,,,,,,,,,,
667387cf2922ed81b45c9e87,TCR,2024-06-24_14h34.18.603,LearnStrategy,2023.2.3,MacIntel,30.21148036,1,1,14,0.021106174,-0.013684664,1,0,0,0.8218,rock_grid_rect_2,7,12,-1,-1,0.822,-0.32477783,-0.246594364,1,0,0,9.5247,Andesite_rect,1,9.525,0,13,0,13,0,1,,,,,,,,,,,,,
667387cf2922ed81b45c9e87,TCR,2024-06-24_14h34.18.603,LearnStrategy,2023.2.3,MacIntel,30.21148036,1,1,15,0.023495966,-0.012738248,1,0,0,0.8217,rock_grid_rect_2,7,10,-1,-1,0.822,0.077686506,-0.401360793,1,0,0,5.4248,Peridotite_rect,7,5.425,1,14,0,14,0,1,,,,,,,,,,,,,
667387cf2922ed81b45c9e87,TCR,2024-06-24_14h34.18.603,LearnStrategy,2023.2.3,MacIntel,30.21148036,1,1,16,0.0381307,-0.005674842,1,0,0,0.8304,rock_grid_rect_2,6,11,-1,-1,0.83,-0.387785752,-0.405464365,1,0,0,22.225,Obsidian_rect,5,22.225,0,15,0,15,0,1,,,,,,,,,,,,,
667387cf2922ed81b45c9e87,TCR,2024-06-24_14h34.18.603,LearnStrategy,2023.2.3,MacIntel,30.21148036,1,2,1,,,,,,,,7,13,,,,,,,,,,,7,39.724,1,,,,,,0.148181712,-0.389769937,1,0,0,39.7242,Peridotite_rect,0,0,0,0,1,
667387cf2922ed81b45c9e87,TCR,2024-06-24_14h34.18.603,LearnStrategy,2023.2.3,MacIntel,30.21148036,1,2,2,,,,,,,,8,04,,,,,,,,,,,8,7.691,1,,,,,,0.342690306,-0.399603163,1,0,0,7.6911,Pumice_rect,1,0,1,0,1,
667387cf2922ed81b45c9e87,TCR,2024-06-24_14h34.18.603,LearnStrategy,2023.2.3,MacIntel,30.21148036,1,2,3,,,,,,,,7,15,,,,,,,,,,,7,6.392,1,,,,,,0.098321299,-0.400173205,1,0,0,6.3924,Peridotite_rect,2,0,2,0,1,
667387cf2922ed81b45c9e87,TCR,2024-06-24_14h34.18.603,LearnStrategy,2023.2.3,MacIntel,30.21148036,1,2,4,,,,,,,,4,11,,,,,,,,,,,4,5.991,1,,,,,,0.361903648,-0.271131753,1,0,0,5.9911,Gabbro_rect,3,0,3,0,1,
667387cf2922ed81b45c9e87,TCR,2024-06-24_14h34.18.603,LearnStrategy,2023.2.3,MacIntel,30.21148036,1,2,5,,,,,,,,5,11,,,,,,,,,,,5,1.624,1,,,,,,-0.348536892,-0.395616522,1,0,0,1.6237,Obsidian_rect,4,0,4,0,1,
667387cf2922ed81b45c9e87,TCR,2024-06-24_14h34.18.603,LearnStrategy,2023.2.3,MacIntel,30.21148036,1,2,6,,,,,,,,8,13,,,,,,,,,,,8,7.857,1,,,,,,0.389733396,-0.404627572,1,0,0,7.8573,Pumice_rect,5,0,5,0,1,
667387cf2922ed81b45c9e87,TCR,2024-06-24_14h34.18.603,LearnStrategy,2023.2.3,MacIntel,30.21148036,1,2,7,,,,,,,,6,06,,,,,,,,,,,6,15.69,1,,,,,,-0.085400345,-0.398156133,1,0,0,15.6899,Pegmatite_rect,6,0,6,0,1,
667387cf2922ed81b45c9e87,TCR,2024-06-24_14h34.18.603,LearnStrategy,2023.2.3,MacIntel,30.21148036,1,2,8,,,,,,,,3,12,,,,,,,,,,,7,13.191,0,,,,,,0.165206238,-0.409312149,1,0,0,13.1912,Peridotite_rect,7,0,7,0,1,
667387cf2922ed81b45c9e87,TCR,2024-06-24_14h34.18.603,LearnStrategy,2023.2.3,MacIntel,30.21148036,1,2,9,,,,,,,,5,14,,,,,,,,,,,5,2.932,1,,,,,,-0.340914406,-0.416053993,1,0,0,2.9317,Obsidian_rect,8,0,8,0,1,
667387cf2922ed81b45c9e87,TCR,2024-06-24_14h34.18.603,LearnStrategy,2023.2.3,MacIntel,30.21148036,1,2,10,,,,,,,,1,06,,,,,,,,,,,1,8.316,1,,,,,,-0.345207992,-0.244749035,1,0,0,8.3164,Andesite_rect,9,0,9,0,1,
667387cf2922ed81b45c9e87,TCR,2024-06-24_14h34.18.603,LearnStrategy,2023.2.3,MacIntel,30.21148036,1,2,11,,,,,,,,1,05,,,,,,,,,,,3,25.959,0,,,,,,0.103765932,-0.249594393,1,0,0,25.9588,Diorite_rect,10,0,10,0,1,
667387cf2922ed81b45c9e87,TCR,2024-06-24_14h34.18.603,LearnStrategy,2023.2.3,MacIntel,30.21148036,1,2,12,,,,,,,,2,09,,,,,,,,,,,2,9.092,1,,,,,,-0.068262541,-0.26084907,1,0,0,9.0923,Basalt_rect,11,0,11,0,1,
667387cf2922ed81b45c9e87,TCR,2024-06-24_14h34.18.603,LearnStrategy,2023.2.3,MacIntel,30.21148036,1,2,13,,,,,,,,2,14,,,,,,,,,,,8,25.557,0,,,,,,0.372730794,-0.403787126,1,0,0,25.5574,Pumice_rect,12,0,12,0,1,
667387cf2922ed81b45c9e87,TCR,2024-06-24_14h34.18.603,LearnStrategy,2023.2.3,MacIntel,30.21148036,1,2,14,,,,,,,,4,14,,,,,,,,,,,4,8.526,1,,,,,,0.407949164,-0.229807355,1,0,0,8.5264,Gabbro_rect,13,0,13,0,1,
667387cf2922ed81b45c9e87,TCR,2024-06-24_14h34.18.603,LearnStrategy,2023.2.3,MacIntel,30.21148036,1,2,15,,,,,,,,3,09,,,,,,,,,,,3,17.791,1,,,,,,0.08399351,-0.249451883,1,0,0,17.7908,Diorite_rect,14,0,14,0,1,
667387cf2922ed81b45c9e87,TCR,2024-06-24_14h34.18.603,LearnStrategy,2023.2.3,MacIntel,30.21148036,1,2,16,,,,,,,,6,03,,,,,,,,,,,6,43.591,1,,,,,,-0.103221469,-0.410236641,1,0,0,43.5908,Pegmatite_rect,15,0,15,0,1,
667387cf2922ed81b45c9e87,TCR,2024-06-24_14h34.18.603,LearnStrategy,2023.2.3,MacIntel,30.21148036,2,1,1,0.008473895,-0.01329002,1,0,0,1.1643,rock_grid_rect_2,5,08,-1,-1,1.164,-0.363040078,-0.39358118,1,0,0,6.5902,Obsidian_rect,5,6.59,1,0,0,0,0,1,,,,,,,,,,,,,
667387cf2922ed81b45c9e87,TCR,2024-06-24_14h34.18.603,LearnStrategy,2023.2.3,MacIntel,30.21148036,2,1,2,-0.038521691,0.003628537,1,0,0,0.8297,rock_grid_rect_2,4,15,-1,-1,0.83,0.392916131,-0.263717551,1,0,0,7.0918,Gabbro_rect,4,7.092,1,1,0,1,0,1,,,,,,,,,,,,,
667387cf2922ed81b45c9e87,TCR,2024-06-24_14h34.18.603,LearnStrategy,2023.2.3,MacIntel,30.21148036,2,1,3,0.087731671,0.002864827,1,0,0,1.8638,rock_grid_rect_2,1,16,-1,-1,1.864,-0.357591791,-0.244701532,1,0,0,8.4244,Andesite_rect,1,8.424,1,2,0,2,0,1,,,,,,,,,,,,,
667387cf2922ed81b45c9e87,TCR,2024-06-24_14h34.18.603,LearnStrategy,2023.2.3,MacIntel,30.21148036,2,1,4,0.009142598,0.010735793,1,0,0,0.8544,rock_grid_rect_2,3,13,-1,-1,0.854,0.405873626,-0.231279964,1,0,0,15.6584,Gabbro_rect,4,15.658,0,3,0,3,0,1,,,,,,,,,,,,,
667387cf2922ed81b45c9e87,TCR,2024-06-24_14h34.18.603,LearnStrategy,2023.2.3,MacIntel,30.21148036,2,1,5,-0.029693347,-0.01215359,1,0,0,0.8544,rock_grid_rect_2,6,10,-1,-1,0.854,0.064747281,-0.413792095,1,0,0,15.0576,Peridotite_rect,7,15.058,0,4,0,4,0,1,,,,,,,,,,,,,
667387cf2922ed81b45c9e87,TCR,2024-06-24_14h34.18.603,LearnStrategy,2023.2.3,MacIntel,30.21148036,2,1,6,0.027515493,-0.006076795,1,0,0,1.0557,rock_grid_rect_2,1,16,-1,-1,1.056,-0.369588254,-0.238511459,1,0,0,8.7572,Andesite_rect,1,8.757,1,5,0,5,0,1,,,,,,,,,,,,,
667387cf2922ed81b45c9e87,TCR,2024-06-24_14h34.18.603,LearnStrategy,2023.2.3,MacIntel,30.21148036,2,1,7,-0.013966031,0.01618408,1,0,0,0.7971,rock_grid_rect_2,3,13,-1,-1,0.797,0.116749006,-0.239984068,1,0,0,3.425,Diorite_rect,3,3.425,1,6,0,6,0,1,,,,,,,,,,,,,
667387cf2922ed81b45c9e87,TCR,2024-06-24_14h34.18.603,LearnStrategy,2023.2.3,MacIntel,30.21148036,2,1,8,0.037440072,-0.005079221,1,0,0,0.6967,rock_grid_rect_2,1,02,-1,-1,0.697,-0.378869709,-0.235047357,1,0,0,5.3247,Andesite_rect,1,5.325,1,7,0,7,0,1,,,,,,,,,,,,,
667387cf2922ed81b45c9e87,TCR,2024-06-24_14h34.18.603,LearnStrategy,2023.2.3,MacIntel,30.21148036,2,1,9,-0.032031981,0.012372837,1,0,0,0.8971,rock_grid_rect_2,2,01,-1,-1,0.897,-0.104690423,-0.241708811,1,0,0,2.7895,Basalt_rect,2,2.789,1,8,0,8,0,1,,,,,,,,,,,,,
667387cf2922ed81b45c9e87,TCR,2024-06-24_14h34.18.603,LearnStrategy,2023.2.3,MacIntel,30.21148036,2,1,10,-0.039983337,-0.022063552,1,0,0,0.7311,rock_grid_rect_2,3,02,-1,-1,0.731,0.115035226,-0.415553379,1,0,0,6.1591,Peridotite_rect,7,6.159,0,9,0,9,0,1,,,,,,,,,,,,,
667387cf2922ed81b45c9e87,TCR,2024-06-24_14h34.18.603,LearnStrategy,2023.2.3,MacIntel,30.21148036,2,1,11,0.027727432,-0.001523766,1,0,0,0.8862,rock_grid_rect_2,3,13,-1,-1,0.886,0.174918879,-0.26002324,1,0,0,4.7581,Diorite_rect,3,4.758,1,10,0,10,0,1,,,,,,,,,,,,,
667387cf2922ed81b45c9e87,TCR,2024-06-24_14h34.18.603,LearnStrategy,2023.2.3,MacIntel,30.21148036,2,1,12,0.034885845,-0.017492253,1,0,0,1.1967,rock_grid_rect_2,8,09,-1,-1,1.197,0.355870703,-0.399584892,1,0,0,2.1237,Pumice_rect,8,2.124,1,11,0,11,0,1,,,,,,,,,,,,,
667387cf2922ed81b45c9e87,TCR,2024-06-24_14h34.18.603,LearnStrategy,2023.2.3,MacIntel,30.21148036,2,1,13,0.010713868,-0.013702935,1,0,0,1.264,rock_grid_rect_2,1,02,-1,-1,1.264,-0.326893563,-0.236030315,1,0,0,12.9238,Andesite_rect,1,12.924,1,12,0,12,0,1,,,,,,,,,,,,,
667387cf2922ed81b45c9e87,TCR,2024-06-24_14h34.18.603,LearnStrategy,2023.2.3,MacIntel,30.21148036,2,1,14,-0.011645668,-0.018033062,1,0,0,0.9303,rock_grid_rect_2,7,08,-1,-1,0.93,0.076210243,-0.406173264,1,0,0,14.4252,Peridotite_rect,7,14.425,1,13,0,13,0,1,,,,,,,,,,,,,
667387cf2922ed81b45c9e87,TCR,2024-06-24_14h34.18.603,LearnStrategy,2023.2.3,MacIntel,30.21148036,2,1,15,-0.027197585,-0.017667651,1,0,0,0.9221,rock_grid_rect_2,2,05,-1,-1,0.922,-0.175046773,-0.25214862,1,0,0,1.6258,Basalt_rect,2,1.626,1,14,0,14,0,1,,,,,,,,,,,,,
667387cf2922ed81b45c9e87,TCR,2024-06-24_14h34.18.603,LearnStrategy,2023.2.3,MacIntel,30.21148036,2,1,16,-0.071273533,0.006654145,1,0,0,0.7967,rock_grid_rect_2,2,10,-1,-1,0.797,-0.111786717,-0.236264178,1,0,0,2.1914,Basalt_rect,2,2.191,1,15,0,15,0,1,,,,,,,,,,,,,
667387cf2922ed81b45c9e87,TCR,2024-06-24_14h34.18.603,LearnStrategy,2023.2.3,MacIntel,30.21148036,2,2,1,,,,,,,,2,12,,,,,,,,,,,8,9.858,0,,,,,,0.432351351,-0.389678584,1,0,0,9.8581,Pumice_rect,0,0,0,0,1,
667387cf2922ed81b45c9e87,TCR,2024-06-24_14h34.18.603,LearnStrategy,2023.2.3,MacIntel,30.21148036,2,2,2,,,,,,,,2,11,,,,,,,,,,,8,1.624,0,,,,,,0.39680411,-0.409337728,1,0,0,1.6235,Pumice_rect,1,0,1,0,1,
667387cf2922ed81b45c9e87,TCR,2024-06-24_14h34.18.603,LearnStrategy,2023.2.3,MacIntel,30.21148036,2,2,3,,,,,,,,3,11,,,,,,,,,,,3,7.558,1,,,,,,0.190401368,-0.233022977,1,0,0,7.5585,Diorite_rect,2,0,2,0,1,
667387cf2922ed81b45c9e87,TCR,2024-06-24_14h34.18.603,LearnStrategy,2023.2.3,MacIntel,30.21148036,2,2,4,,,,,,,,8,16,,,,,,,,,,,8,1.323,1,,,,,,0.38330946,-0.400765172,1,0,0,1.3233,Pumice_rect,3,0,3,0,1,
667387cf2922ed81b45c9e87,TCR,2024-06-24_14h34.18.603,LearnStrategy,2023.2.3,MacIntel,30.21148036,2,2,5,,,,,,,,5,12,,,,,,,,,,,5,1.392,1,,,,,,-0.373359302,-0.390924638,1,0,0,1.3919,Obsidian_rect,4,0,4,0,1,
667387cf2922ed81b45c9e87,TCR,2024-06-24_14h34.18.603,LearnStrategy,2023.2.3,MacIntel,30.21148036,2,2,6,,,,,,,,6,07,,,,,,,,,,,6,5.524,1,,,,,,-0.053711851,-0.404897977,1,0,0,5.524,Pegmatite_rect,5,0,5,0,1,
667387cf2922ed81b45c9e87,TCR,2024-06-24_14h34.18.603,LearnStrategy,2023.2.3,MacIntel,30.21148036,2,2,7,,,,,,,,1,07,,,,,,,,,,,3,7.297,0,,,,,,0.168889587,-0.24944092,1,0,0,7.2974,Diorite_rect,6,0,6,0,1,
667387cf2922ed81b45c9e87,TCR,2024-06-24_14h34.18.603,LearnStrategy,2023.2.3,MacIntel,30.21148036,2,2,8,,,,,,,,1,10,,,,,,,,,,,4,7.559,0,,,,,,0.397279145,-0.247599246,1,0,0,7.5587,Gabbro_rect,7,0,7,0,1,
667387cf2922ed81b45c9e87,TCR,2024-06-24_14h34.18.603,LearnStrategy,2023.2.3,MacIntel,30.21148036,2,2,9,,,,,,,,6,09,,,,,,,,,,,6,12.86,1,,,,,,-0.102205624,-0.404426596,1,0,0,12.86,Pegmatite_rect,8,0,8,0,1,
667387cf2922ed81b45c9e87,TCR,2024-06-24_14h34.18.603,LearnStrategy,2023.2.3,MacIntel,30.21148036,2,2,10,,,,,,,,7,05,,,,,,,,,,,7,14.991,1,,,,,,0.084516049,-0.392667651,1,0,0,14.991,Peridotite_rect,9,0,9,0,1,
667387cf2922ed81b45c9e87,TCR,2024-06-24_14h34.18.603,LearnStrategy,2023.2.3,MacIntel,30.21148036,2,2,11,,,,,,,,8,03,,,,,,,,,,,8,1.923,1,,,,,,0.367037681,-0.401152508,1,0,0,1.9233,Pumice_rect,10,0,10,0,1,
667387cf2922ed81b45c9e87,TCR,2024-06-24_14h34.18.603,LearnStrategy,2023.2.3,MacIntel,30.21148036,2,2,12,,,,,,,,3,07,,,,,,,,,,,3,7.326,1,,,,,,0.167091762,-0.23065511,1,0,0,7.3259,Diorite_rect,11,0,11,0,1,
667387cf2922ed81b45c9e87,TCR,2024-06-24_14h34.18.603,LearnStrategy,2023.2.3,MacIntel,30.21148036,2,2,13,,,,,,,,7,14,,,,,,,,,,,7,58.691,1,,,,,,0.177714277,-0.403228046,1,0,0,58.6905,Peridotite_rect,12,0,12,0,1,
667387cf2922ed81b45c9e87,TCR,2024-06-24_14h34.18.603,LearnStrategy,2023.2.3,MacIntel,30.21148036,2,2,14,,,,,,,,4,16,,,,,,,,,,,2,11.157,0,,,,,,-0.075095738,-0.257717493,1,0,0,11.1565,Basalt_rect,13,0,13,0,1,
667387cf2922ed81b45c9e87,TCR,2024-06-24_14h34.18.603,LearnStrategy,2023.2.3,MacIntel,30.21148036,2,2,15,,,,,,,,4,01,,,,,,,,,,,1,5.691,0,,,,,,-0.345222609,-0.248494504,1,0,0,5.6908,Andesite_rect,14,0,14,0,1,
667387cf2922ed81b45c9e87,TCR,2024-06-24_14h34.18.603,LearnStrategy,2023.2.3,MacIntel,30.21148036,2,2,16,,,,,,,,5,04,,,,,,,,,,,5,2.256,1,,,,,,-0.318448901,-0.395919814,1,0,0,2.256,Obsidian_rect,15,0,15,0,1,
667387cf2922ed81b45c9e87,TCR,2024-06-24_14h34.18.603,LearnStrategy,2023.2.3,MacIntel,30.21148036,3,1,1,0.010366727,0.016425251,1,0,0,1.0299,rock_grid_rect_2,1,14,-1,-1,1.03,-0.365879326,-0.239761167,1,0,0,2.9246,Andesite_rect,1,2.925,1,0,0,0,0,1,,,,,,,,,,,,,
667387cf2922ed81b45c9e87,TCR,2024-06-24_14h34.18.603,LearnStrategy,2023.2.3,MacIntel,30.21148036,3,1,2,-0.017576298,0.012610354,1,0,0,0.7878,rock_grid_rect_2,1,16,-1,-1,0.788,-0.370439663,-0.236995001,1,0,0,1.3927,Andesite_rect,1,1.393,1,1,0,1,0,1,,,,,,,,,,,,,
667387cf2922ed81b45c9e87,TCR,2024-06-24_14h34.18.603,LearnStrategy,2023.2.3,MacIntel,30.21148036,3,1,3,0.045935892,-0.011693171,1,0,0,1.1655,rock_grid_rect_2,2,08,-1,-1,1.166,-0.093373626,-0.238350678,1,0,0,1.5237,Basalt_rect,2,1.524,1,2,0,2,0,1,,,,,,,,,,,,,
667387cf2922ed81b45c9e87,TCR,2024-06-24_14h34.18.603,LearnStrategy,2023.2.3,MacIntel,30.21148036,3,1,4,-0.066486641,-0.003113307,1,0,0,1.0976,rock_grid_rect_2,3,08,-1,-1,1.098,0.15600152,-0.255134033,1,0,0,14.6573,Diorite_rect,3,14.657,1,3,0,3,0,1,,,,,,,,,,,,,
667387cf2922ed81b45c9e87,TCR,2024-06-24_14h34.18.603,LearnStrategy,2023.2.3,MacIntel,30.21148036,3,1,5,0.049166131,-0.009084132,1,0,0,0.8967,rock_grid_rect_2,4,15,-1,-1,0.897,0.340150696,-0.232336003,1,0,0,4.8587,Gabbro_rect,4,4.859,1,4,0,4,0,1,,,,,,,,,,,,,
667387cf2922ed81b45c9e87,TCR,2024-06-24_14h34.18.603,LearnStrategy,2023.2.3,MacIntel,30.21148036,3,1,6,0.034739681,-0.009310688,1,0,0,0.7633,rock_grid_rect_2,8,14,-1,-1,0.763,0.371225298,-0.406542329,1,0,0,2.0569,Pumice_rect,8,2.057,1,5,0,5,0,1,,,,,,,,,,,,,
667387cf2922ed81b45c9e87,TCR,2024-06-24_14h34.18.603,LearnStrategy,2023.2.3,MacIntel,30.21148036,3,1,7,0.077657273,0.006964745,1,0,0,0.6645,rock_grid_rect_2,2,04,-1,-1,0.664,-0.14081136,-0.251739359,1,0,0,1.558,Basalt_rect,2,1.558,1,6,0,6,0,1,,,,,,,,,,,,,
667387cf2922ed81b45c9e87,TCR,2024-06-24_14h34.18.603,LearnStrategy,2023.2.3,MacIntel,30.21148036,3,1,8,-0.017247428,-0.003281396,1,0,0,0.7646,rock_grid_rect_2,2,10,-1,-1,0.765,-0.131244884,-0.255024409,1,0,0,1.7932,Basalt_rect,2,1.793,1,7,0,7,0,1,,,,,,,,,,,,,
667387cf2922ed81b45c9e87,TCR,2024-06-24_14h34.18.603,LearnStrategy,2023.2.3,MacIntel,30.21148036,3,1,9,-0.041189196,0.004622457,1,0,0,0.7648,rock_grid_rect_2,1,02,-1,-1,0.765,-0.335963079,-0.233476087,1,0,0,3.4583,Andesite_rect,1,3.458,1,8,0,8,0,1,,,,,,,,,,,,,
667387cf2922ed81b45c9e87,TCR,2024-06-24_14h34.18.603,LearnStrategy,2023.2.3,MacIntel,30.21148036,3,1,10,-0.089189663,-0.003668732,1,0,0,1.8635,rock_grid_rect_2,1,02,-1,-1,1.863,-0.348032624,-0.243904935,1,0,0,1.3296,Andesite_rect,1,1.33,1,9,0,9,0,1,,,,,,,,,,,,,
667387cf2922ed81b45c9e87,TCR,2024-06-24_14h34.18.603,LearnStrategy,2023.2.3,MacIntel,30.21148036,3,1,11,-0.022830917,-0.005375205,1,0,0,1.0314,rock_grid_rect_2,7,08,-1,-1,1.031,0.082889967,-0.391549491,1,0,0,5.6583,Peridotite_rect,7,5.658,1,10,0,10,0,1,,,,,,,,,,,,,
667387cf2922ed81b45c9e87,TCR,2024-06-24_14h34.18.603,LearnStrategy,2023.2.3,MacIntel,30.21148036,3,1,12,-0.020375351,0.012124357,1,0,0,0.7969,rock_grid_rect_2,3,02,-1,-1,0.797,0.171096673,-0.260900228,1,0,0,4.0921,Diorite_rect,3,4.092,1,11,0,11,0,1,,,,,,,,,,,,,
667387cf2922ed81b45c9e87,TCR,2024-06-24_14h34.18.603,LearnStrategy,2023.2.3,MacIntel,30.21148036,3,1,13,0.032225649,0.000281367,1,0,0,0.6979,rock_grid_rect_2,6,13,-1,-1,0.698,-0.07004575,-0.390694428,1,0,0,5.4592,Pegmatite_rect,6,5.459,1,12,0,12,0,1,,,,,,,,,,,,,
667387cf2922ed81b45c9e87,TCR,2024-06-24_14h34.18.603,LearnStrategy,2023.2.3,MacIntel,30.21148036,3,1,14,-0.015551918,-0.001991493,1,0,0,0.864,rock_grid_rect_2,4,09,-1,-1,0.864,0.397315686,-0.265899059,1,0,0,5.1591,Gabbro_rect,4,5.159,1,13,0,13,0,1,,,,,,,,,,,,,
667387cf2922ed81b45c9e87,TCR,2024-06-24_14h34.18.603,LearnStrategy,2023.2.3,MacIntel,30.21148036,3,1,15,-0.023316914,-0.012522656,1,0,0,3.4213,rock_grid_rect_2,2,10,-1,-1,3.421,-0.141549491,-0.270532478,1,0,0,2.7574,Basalt_rect,2,2.757,1,14,0,14,0,1,,,,,,,,,,,,,
667387cf2922ed81b45c9e87,TCR,2024-06-24_14h34.18.603,LearnStrategy,2023.2.3,MacIntel,30.21148036,3,1,16,-0.015299784,-0.001523766,1,0,0,0.8312,rock_grid_rect_2,4,13,-1,-1,0.831,0.401192703,-0.250493306,1,0,0,5.0921,Gabbro_rect,4,5.092,1,15,0,15,0,1,,,,,,,,,,,,,
667387cf2922ed81b45c9e87,TCR,2024-06-24_14h34.18.603,LearnStrategy,2023.2.3,MacIntel,30.21148036,3,2,1,,,,,,,,1,03,,,,,,,,,,,1,40.725,1,,,,,,-0.388231554,-0.250040195,1,0,0,40.7246,Andesite_rect,0,0,0,0,1,
667387cf2922ed81b45c9e87,TCR,2024-06-24_14h34.18.603,LearnStrategy,2023.2.3,MacIntel,30.21148036,3,2,2,,,,,,,,7,04,,,,,,,,,,,7,118.858,1,,,,,,0.094250614,-0.390325362,1,0,0,118.8582,Peridotite_rect,1,0,1,0,1,
667387cf2922ed81b45c9e87,TCR,2024-06-24_14h34.18.603,LearnStrategy,2023.2.3,MacIntel,30.21148036,3,2,3,,,,,,,,3,10,,,,,,,,,,,3,10.024,1,,,,,,0.141911249,-0.235149673,1,0,0,10.0236,Diorite_rect,2,0,2,0,1,
667387cf2922ed81b45c9e87,TCR,2024-06-24_14h34.18.603,LearnStrategy,2023.2.3,MacIntel,30.21148036,3,2,4,,,,,,,,8,05,,,,,,,,,,,8,1.624,1,,,,,,0.363573579,-0.38963108,1,0,0,1.6243,Pumice_rect,3,0,3,0,1,
667387cf2922ed81b45c9e87,TCR,2024-06-24_14h34.18.603,LearnStrategy,2023.2.3,MacIntel,30.21148036,3,2,5,,,,,,,,2,02,,,,,,,,,,,2,1.691,1,,,,,,-0.0814539,-0.236004736,1,0,0,1.6907,Basalt_rect,4,0,4,0,1,
667387cf2922ed81b45c9e87,TCR,2024-06-24_14h34.18.603,LearnStrategy,2023.2.3,MacIntel,30.21148036,3,2,6,,,,,,,,3,15,,,,,,,,,,,3,6.792,1,,,,,,0.200658472,-0.256599333,1,0,0,6.7915,Diorite_rect,5,0,5,0,1,
667387cf2922ed81b45c9e87,TCR,2024-06-24_14h34.18.603,LearnStrategy,2023.2.3,MacIntel,30.21148036,3,2,7,,,,,,,,8,06,,,,,,,,,,,8,1.125,1,,,,,,0.396299842,-0.391275433,1,0,0,1.1247,Pumice_rect,6,0,6,0,1,
667387cf2922ed81b45c9e87,TCR,2024-06-24_14h34.18.603,LearnStrategy,2023.2.3,MacIntel,30.21148036,3,2,8,,,,,,,,4,03,,,,,,,,,,,3,24.892,0,,,,,,0.108724567,-0.26279306,1,0,0,24.8923,Diorite_rect,7,0,7,0,1,
667387cf2922ed81b45c9e87,TCR,2024-06-24_14h34.18.603,LearnStrategy,2023.2.3,MacIntel,30.21148036,3,2,9,,,,,,,,4,08,,,,,,,,,,,4,18.825,1,,,,,,0.39025228,-0.243751462,1,0,0,18.8246,Gabbro_rect,8,0,8,0,1,
667387cf2922ed81b45c9e87,TCR,2024-06-24_14h34.18.603,LearnStrategy,2023.2.3,MacIntel,30.21148036,3,2,10,,,,,,,,6,05,,,,,,,,,,,6,9.491,1,,,,,,-0.061546276,-0.409586208,1,0,0,9.4913,Pegmatite_rect,9,0,9,0,1,
667387cf2922ed81b45c9e87,TCR,2024-06-24_14h34.18.603,LearnStrategy,2023.2.3,MacIntel,30.21148036,3,2,11,,,,,,,,1,09,,,,,,,,,,,4,20.258,0,,,,,,0.323831414,-0.233600327,1,0,0,20.2577,Gabbro_rect,10,0,10,0,1,
667387cf2922ed81b45c9e87,TCR,2024-06-24_14h34.18.603,LearnStrategy,2023.2.3,MacIntel,30.21148036,3,2,12,,,,,,,,5,05,,,,,,,,,,,5,2.023,1,,,,,,-0.374714979,-0.410748217,1,0,0,2.023,Obsidian_rect,11,0,11,0,1,
667387cf2922ed81b45c9e87,TCR,2024-06-24_14h34.18.603,LearnStrategy,2023.2.3,MacIntel,30.21148036,3,2,13,,,,,,,,5,02,,,,,,,,,,,5,1.856,1,,,,,,-0.399011196,-0.41187003,1,0,0,1.8565,Obsidian_rect,12,0,12,0,1,
667387cf2922ed81b45c9e87,TCR,2024-06-24_14h34.18.603,LearnStrategy,2023.2.3,MacIntel,30.21148036,3,2,14,,,,,,,,6,15,,,,,,,,,,,6,14.023,1,,,,,,-0.128314283,-0.412114856,1,0,0,14.0232,Pegmatite_rect,13,0,13,0,1,
667387cf2922ed81b45c9e87,TCR,2024-06-24_14h34.18.603,LearnStrategy,2023.2.3,MacIntel,30.21148036,3,2,15,,,,,,,,2,06,,,,,,,,,,,2,6.46,1,,,,,,-0.081833928,-0.240433524,1,0,0,6.46,Basalt_rect,14,0,14,0,1,
667387cf2922ed81b45c9e87,TCR,2024-06-24_14h34.18.603,LearnStrategy,2023.2.3,MacIntel,30.21148036,3,2,16,,,,,,,,7,07,,,,,,,,,,,7,5.092,1,,,,,,0.097933963,-0.409202526,1,0,0,5.0922,Peridotite_rect,15,0,15,0,1,
667387cf2922ed81b45c9e87,TCR,2024-06-24_14h34.18.603,LearnStrategy,2023.2.3,MacIntel,30.21148036,4,1,1,0.008696796,-0.017353397,1,0,0,0.9638,rock_grid_rect_2,6,16,-1,-1,0.964,-0.081055601,-0.406955244,1,0,0,32.0749,Pegmatite_rect,6,32.075,1,0,0,0,0,1,,,,,,,,,,,,,
667387cf2922ed81b45c9e87,TCR,2024-06-24_14h34.18.603,LearnStrategy,2023.2.3,MacIntel,30.21148036,4,1,2,-0.017203578,-0.009307033,1,0,0,1.8991,rock_grid_rect_2,4,12,-1,-1,1.899,0.392375322,-0.240773357,1,0,0,7.2583,Gabbro_rect,4,7.258,1,1,0,1,0,1,,,,,,,,,,,,,
667387cf2922ed81b45c9e87,TCR,2024-06-24_14h34.18.603,LearnStrategy,2023.2.3,MacIntel,30.21148036,4,1,3,0.070327116,0.007830771,1,0,0,0.8385,rock_grid_rect_2,1,02,-1,-1,0.839,-0.403904058,-0.243893972,1,0,0,6.9412,Andesite_rect,1,6.941,1,2,0,2,0,1,,,,,,,,,,,,,
667387cf2922ed81b45c9e87,TCR,2024-06-24_14h34.18.603,LearnStrategy,2023.2.3,MacIntel,30.21148036,4,1,4,-0.019355852,-0.021625058,1,0,0,0.9639,rock_grid_rect_2,5,08,-1,-1,0.964,-0.436169902,-0.421984623,1,0,0,1.044,Obsidian_rect,5,1.044,1,3,0,3,0,1,,,,,,,,,,,,,
667387cf2922ed81b45c9e87,TCR,2024-06-24_14h34.18.603,LearnStrategy,2023.2.3,MacIntel,30.21148036,4,1,5,-0.056017598,-0.003898942,1,0,0,0.8489,rock_grid_rect_2,1,14,-1,-1,0.849,-0.384529935,-0.230991289,1,0,0,2.9753,Andesite_rect,1,2.975,1,4,0,4,0,1,,,,,,,,,,,,,
667387cf2922ed81b45c9e87,TCR,2024-06-24_14h34.18.603,LearnStrategy,2023.2.3,MacIntel,30.21148036,4,1,6,0.018106145,-0.001151047,1,0,0,0.8475,rock_grid_rect_2,7,16,-1,-1,0.848,0.373198521,-0.256559138,1,0,0,6.4083,Gabbro_rect,4,6.408,0,5,0,5,0,1,,,,,,,,,,,,,
667387cf2922ed81b45c9e87,TCR,2024-06-24_14h34.18.603,LearnStrategy,2023.2.3,MacIntel,30.21148036,4,1,7,0.063234477,0.013315599,1,0,0,0.8895,rock_grid_rect_2,2,10,-1,-1,0.889,-0.1409356,-0.253478718,1,0,0,2.0289,Basalt_rect,2,2.029,1,6,0,6,0,1,,,,,,,,,,,,,
667387cf2922ed81b45c9e87,TCR,2024-06-24_14h34.18.603,LearnStrategy,2023.2.3,MacIntel,30.21148036,4,1,8,0.005444633,0.002247281,1,0,0,0.9136,rock_grid_rect_2,1,04,-1,-1,0.914,-0.371429929,-0.265051304,1,0,0,5.792,Andesite_rect,1,5.792,1,7,0,7,0,1,,,,,,,,,,,,,
667387cf2922ed81b45c9e87,TCR,2024-06-24_14h34.18.603,LearnStrategy,2023.2.3,MacIntel,30.21148036,4,1,9,0.009866113,0.005444633,1,0,0,0.8312,rock_grid_rect_2,4,13,-1,-1,0.831,0.431733805,-0.249722287,1,0,0,8.6587,Gabbro_rect,4,8.659,1,8,0,8,0,1,,,,,,,,,,,,,
667387cf2922ed81b45c9e87,TCR,2024-06-24_14h34.18.603,LearnStrategy,2023.2.3,MacIntel,30.21148036,4,1,10,0.0207298,-0.011137746,1,0,0,0.7309,rock_grid_rect_2,4,09,-1,-1,0.731,0.373333723,-0.242348281,1,0,0,4.3589,Gabbro_rect,4,4.359,1,9,0,9,0,1,,,,,,,,,,,,,
667387cf2922ed81b45c9e87,TCR,2024-06-24_14h34.18.603,LearnStrategy,2023.2.3,MacIntel,30.21148036,4,1,11,0.064012804,0.019783384,1,0,0,0.764,rock_grid_rect_2,2,08,-1,-1,0.764,-0.097553935,-0.228491873,1,0,0,1.4587,Basalt_rect,2,1.459,1,10,0,10,0,1,,,,,,,,,,,,,
667387cf2922ed81b45c9e87,TCR,2024-06-24_14h34.18.603,LearnStrategy,2023.2.3,MacIntel,30.21148036,4,1,12,0.009032975,-0.014305864,1,0,0,0.8145,rock_grid_rect_2,3,06,-1,-1,0.815,0.117976789,-0.241917095,1,0,0,5.3943,Diorite_rect,3,5.394,1,11,0,11,0,1,,,,,,,,,,,,,
667387cf2922ed81b45c9e87,TCR,2024-06-24_14h34.18.603,LearnStrategy,2023.2.3,MacIntel,30.21148036,4,1,13,0.005813699,-0.00731554,1,0,0,1.0319,rock_grid_rect_2,2,16,-1,-1,1.032,0.3732241,-0.40033764,1,0,0,3.5422,Pumice_rect,8,3.542,0,12,0,12,0,1,,,,,,,,,,,,,
667387cf2922ed81b45c9e87,TCR,2024-06-24_14h34.18.603,LearnStrategy,2023.2.3,MacIntel,30.21148036,4,1,14,-0.020123217,-0.007319194,1,0,0,0.9807,rock_grid_rect_2,4,10,-1,-1,0.981,0.330825392,-0.256007367,1,0,0,4.1284,Gabbro_rect,4,4.128,1,13,0,13,0,1,,,,,,,,,,,,,
667387cf2922ed81b45c9e87,TCR,2024-06-24_14h34.18.603,LearnStrategy,2023.2.3,MacIntel,30.21148036,4,1,15,0.077905753,0.013520229,1,0,0,0.7473,rock_grid_rect_2,8,10,-1,-1,0.747,0.418553409,-0.412549696,1,0,0,1.2082,Pumice_rect,8,1.208,1,14,0,14,0,1,,,,,,,,,,,,,
667387cf2922ed81b45c9e87,TCR,2024-06-24_14h34.18.603,LearnStrategy,2023.2.3,MacIntel,30.21148036,4,1,16,0.01605984,-0.01498553,1,0,0,0.7313,rock_grid_rect_2,1,01,-1,-1,0.731,0.349717171,-0.23966616,1,0,0,8.0426,Gabbro_rect,4,8.043,0,15,0,15,0,1,,,,,,,,,,,,,
667387cf2922ed81b45c9e87,TCR,2024-06-24_14h34.18.603,LearnStrategy,2023.2.3,MacIntel,30.21148036,4,2,1,,,,,,,,4,03,,,,,,,,,,,4,2.84,1,,,,,,0.360957232,-0.232884121,1,0,0,2.8402,Gabbro_rect,0,0,0,0,1,
667387cf2922ed81b45c9e87,TCR,2024-06-24_14h34.18.603,LearnStrategy,2023.2.3,MacIntel,30.21148036,4,2,2,,,,,,,,8,06,,,,,,,,,,,8,1.274,1,,,,,,0.350681858,-0.405804198,1,0,0,1.2744,Pumice_rect,1,0,1,0,1,
667387cf2922ed81b45c9e87,TCR,2024-06-24_14h34.18.603,LearnStrategy,2023.2.3,MacIntel,30.21148036,4,2,3,,,,,,,,7,07,,,,,,,,,,,7,15.976,1,,,,,,0.052118656,-0.386506811,1,0,0,15.9755,Peridotite_rect,2,0,2,0,1,
667387cf2922ed81b45c9e87,TCR,2024-06-24_14h34.18.603,LearnStrategy,2023.2.3,MacIntel,30.21148036,4,2,4,,,,,,,,4,14,,,,,,,,,,,1,37.508,0,,,,,,-0.3681193,-0.258850269,1,0,0,37.5077,Andesite_rect,3,0,3,0,1,
667387cf2922ed81b45c9e87,TCR,2024-06-24_14h34.18.603,LearnStrategy,2023.2.3,MacIntel,30.21148036,4,2,5,,,,,,,,1,10,,,,,,,,,,,1,20.695,1,,,,,,-0.408365733,-0.262102432,1,0,0,20.6949,Andesite_rect,4,0,4,0,1,
667387cf2922ed81b45c9e87,TCR,2024-06-24_14h34.18.603,LearnStrategy,2023.2.3,MacIntel,30.21148036,4,2,6,,,,,,,,5,02,,,,,,,,,,,5,1.208,1,,,,,,-0.340523416,-0.406768884,1,0,0,1.2078,Obsidian_rect,5,0,5,0,1,
667387cf2922ed81b45c9e87,TCR,2024-06-24_14h34.18.603,LearnStrategy,2023.2.3,MacIntel,30.21148036,4,2,7,,,,,,,,7,04,,,,,,,,,,,6,62.359,0,,,,,,-0.092778005,-0.41858995,1,0,0,62.3591,Pegmatite_rect,6,0,6,0,1,
667387cf2922ed81b45c9e87,TCR,2024-06-24_14h34.18.603,LearnStrategy,2023.2.3,MacIntel,30.21148036,4,2,8,,,,,,,,8,13,,,,,,,,,,,8,13.008,1,,,,,,0.37293177,-0.385359419,1,0,0,13.0084,Pumice_rect,7,0,7,0,1,
667387cf2922ed81b45c9e87,TCR,2024-06-24_14h34.18.603,LearnStrategy,2023.2.3,MacIntel,30.21148036,4,2,9,,,,,,,,6,03,,,,,,,,,,,6,19.759,1,,,,,,-0.087048351,-0.402416832,1,0,0,19.7585,Pegmatite_rect,8,0,8,0,1,
667387cf2922ed81b45c9e87,TCR,2024-06-24_14h34.18.603,LearnStrategy,2023.2.3,MacIntel,30.21148036,4,2,10,,,,,,,,3,11,,,,,,,,,,,3,5.675,1,,,,,,0.152215856,-0.250084045,1,0,0,5.6751,Diorite_rect,9,0,9,0,1,
667387cf2922ed81b45c9e87,TCR,2024-06-24_14h34.18.603,LearnStrategy,2023.2.3,MacIntel,30.21148036,4,2,11,,,,,,,,2,06,,,,,,,,,,,2,1.325,1,,,,,,-0.109221527,-0.259299725,1,0,0,1.3251,Basalt_rect,10,0,10,0,1,
667387cf2922ed81b45c9e87,TCR,2024-06-24_14h34.18.603,LearnStrategy,2023.2.3,MacIntel,30.21148036,4,2,12,,,,,,,,5,14,,,,,,,,,,,5,1.109,1,,,,,,-0.341919288,-0.380777157,1,0,0,1.1085,Obsidian_rect,11,0,11,0,1,
667387cf2922ed81b45c9e87,TCR,2024-06-24_14h34.18.603,LearnStrategy,2023.2.3,MacIntel,30.21148036,4,2,13,,,,,,,,2,14,,,,,,,,,,,8,2.008,0,,,,,,0.381701649,-0.393113453,1,0,0,2.0082,Pumice_rect,12,0,12,0,1,
667387cf2922ed81b45c9e87,TCR,2024-06-24_14h34.18.603,LearnStrategy,2023.2.3,MacIntel,30.21148036,4,2,14,,,,,,,,1,03,,,,,,,,,,,1,64.56,1,,,,,,-0.331833928,-0.259628596,1,0,0,64.5596,Andesite_rect,13,0,13,0,1,
667387cf2922ed81b45c9e87,TCR,2024-06-24_14h34.18.603,LearnStrategy,2023.2.3,MacIntel,30.21148036,4,2,15,,,,,,,,6,06,,,,,,,,,,,6,22.226,1,,,,,,-0.137752865,-0.391838167,1,0,0,22.2261,Pegmatite_rect,14,0,14,0,1,
667387cf2922ed81b45c9e87,TCR,2024-06-24_14h34.18.603,LearnStrategy,2023.2.3,MacIntel,30.21148036,4,2,16,,,,,,,,3,12,,,,,,,,,,,3,7.957,1,,,,,,0.15453622,-0.251889178,1,0,0,7.957,Diorite_rect,15,0,15,0,1,
667387cf2922ed81b45c9e87,TCR,2024-06-24_14h34.18.603,LearnStrategy,2023.2.3,MacIntel,30.21148036,5,1,1,-0.029298702,-0.009142598,1,0,0,1.1809,rock_grid_rect_2,5,16,-1,-1,1.181,-0.334585477,-0.386156016,1,0,0,1.7097,Obsidian_rect,5,1.71,1,0,0,0,0,1,,,,,,,,,,,,,
667387cf2922ed81b45c9e87,TCR,2024-06-24_14h34.18.603,LearnStrategy,2023.2.3,MacIntel,30.21148036,5,1,2,-0.018950246,-0.005192499,1,0,0,1.3235,rock_grid_rect_2,7,08,-1,-1,1.323,0.085860764,-0.404404671,1,0,0,6.2913,Peridotite_rect,7,6.291,1,1,0,1,0,1,,,,,,,,,,,,,
667387cf2922ed81b45c9e87,TCR,2024-06-24_14h34.18.603,LearnStrategy,2023.2.3,MacIntel,30.21148036,5,1,3,0.064005496,-0.015657887,1,0,0,0.7641,rock_grid_rect_2,3,08,-1,-1,0.764,0.128957408,-0.249104742,1,0,0,4.646,Diorite_rect,3,4.646,1,2,0,2,0,1,,,,,,,,,,,,,
667387cf2922ed81b45c9e87,TCR,2024-06-24_14h34.18.603,LearnStrategy,2023.2.3,MacIntel,30.21148036,5,1,4,0.054362284,-0.002510378,1,0,0,0.7639,rock_grid_rect_2,4,13,-1,-1,0.764,0.435968925,-0.253866055,1,0,0,5.5275,Gabbro_rect,4,5.528,1,3,0,3,0,1,,,,,,,,,,,,,
667387cf2922ed81b45c9e87,TCR,2024-06-24_14h34.18.603,LearnStrategy,2023.2.3,MacIntel,30.21148036,5,1,5,0.09961851,-0.006460477,1,0,0,1.5471,rock_grid_rect_2,8,09,-1,-1,1.547,0.382757688,-0.384226643,1,0,0,2.5427,Pumice_rect,8,2.543,1,4,0,4,0,1,,,,,,,,,,,,,
667387cf2922ed81b45c9e87,TCR,2024-06-24_14h34.18.603,LearnStrategy,2023.2.3,MacIntel,30.21148036,5,1,6,0.056379356,-0.018109799,1,0,0,0.7975,rock_grid_rect_2,1,14,-1,-1,0.798,-0.350915721,-0.259814956,1,0,0,4.46,Andesite_rect,1,4.46,1,5,0,5,0,1,,,,,,,,,,,,,
667387cf2922ed81b45c9e87,TCR,2024-06-24_14h34.18.603,LearnStrategy,2023.2.3,MacIntel,30.21148036,5,1,7,-0.017430133,-0.024486231,1,0,0,0.7977,rock_grid_rect_2,2,16,-1,-1,0.798,-0.061794756,-0.260158442,1,0,0,6.7923,Basalt_rect,2,6.792,1,6,0,6,0,1,,,,,,,,,,,,,
667387cf2922ed81b45c9e87,TCR,2024-06-24_14h34.18.603,LearnStrategy,2023.2.3,MacIntel,30.21148036,5,1,8,0.001454338,-0.009814956,1,0,0,1.3555,rock_grid_rect_2,4,15,-1,-1,1.356,0.363361641,-0.255481174,1,0,0,7.4761,Gabbro_rect,4,7.476,1,7,0,7,0,1,,,,,,,,,,,,,
667387cf2922ed81b45c9e87,TCR,2024-06-24_14h34.18.603,LearnStrategy,2023.2.3,MacIntel,30.21148036,5,1,9,0.015307092,-0.011481232,1,0,0,0.7808,rock_grid_rect_2,2,04,-1,-1,0.781,-0.157810308,-0.263253479,1,0,0,1.0089,Basalt_rect,2,1.009,1,8,0,8,0,1,,,,,,,,,,,,,
667387cf2922ed81b45c9e87,TCR,2024-06-24_14h34.18.603,LearnStrategy,2023.2.3,MacIntel,30.21148036,5,1,10,0.015588459,0.019977052,1,0,0,0.6821,rock_grid_rect_2,4,09,-1,-1,0.682,0.417771428,-0.263070773,1,0,0,6.7252,Gabbro_rect,4,6.725,1,9,0,9,0,1,,,,,,,,,,,,,
667387cf2922ed81b45c9e87,TCR,2024-06-24_14h34.18.603,LearnStrategy,2023.2.3,MacIntel,30.21148036,5,1,11,0.041258624,-0.000803906,1,0,0,0.6647,rock_grid_rect_2,2,01,-1,-1,0.665,-0.109707525,-0.237188669,1,0,0,1.1116,Basalt_rect,2,1.112,1,10,0,10,0,1,,,,,,,,,,,,,
667387cf2922ed81b45c9e87,TCR,2024-06-24_14h34.18.603,LearnStrategy,2023.2.3,MacIntel,30.21148036,5,1,12,-0.052549842,0.010648094,1,0,0,0.9812,rock_grid_rect_2,7,02,-1,-1,0.981,0.090939985,-0.407097755,1,0,0,3.5764,Peridotite_rect,7,3.576,1,11,0,11,0,1,,,,,,,,,,,,,
667387cf2922ed81b45c9e87,TCR,2024-06-24_14h34.18.603,LearnStrategy,2023.2.3,MacIntel,30.21148036,5,1,13,0.052440219,-0.003274088,1,0,0,3.2637,rock_grid_rect_2,1,16,-1,-1,3.264,-0.369869621,-0.271047708,1,0,0,6.0754,Andesite_rect,1,6.075,1,12,0,12,0,1,,,,,,,,,,,,,
667387cf2922ed81b45c9e87,TCR,2024-06-24_14h34.18.603,LearnStrategy,2023.2.3,MacIntel,30.21148036,5,1,14,-0.008835652,-0.015179198,1,0,0,0.6803,rock_grid_rect_2,4,12,-1,-1,0.68,0.348131285,-0.245830654,1,0,0,3.6103,Gabbro_rect,4,3.61,1,13,0,13,0,1,,,,,,,,,,,,,
667387cf2922ed81b45c9e87,TCR,2024-06-24_14h34.18.603,LearnStrategy,2023.2.3,MacIntel,30.21148036,5,1,15,0.027274322,-0.008905081,1,0,0,0.6971,rock_grid_rect_2,6,08,-1,-1,0.697,-0.121159524,-0.396745644,1,0,0,3.8754,Pegmatite_rect,6,3.875,1,14,0,14,0,1,,,,,,,,,,,,,
667387cf2922ed81b45c9e87,TCR,2024-06-24_14h34.18.603,LearnStrategy,2023.2.3,MacIntel,30.21148036,5,1,16,-0.026112313,-0.016023299,1,0,0,0.8147,rock_grid_rect_2,1,02,-1,-1,0.815,-0.413766517,-0.256851467,1,0,0,2.5915,Andesite_rect,1,2.591,1,15,0,15,0,1,,,,,,,,,,,,,
667387cf2922ed81b45c9e87,TCR,2024-06-24_14h34.18.603,LearnStrategy,2023.2.3,MacIntel,30.21148036,5,2,1,,,,,,,,6,09,,,,,,,,,,,6,4.791,1,,,,,,-0.127386138,-0.389236436,1,0,0,4.791,Pegmatite_rect,0,0,0,0,1,
667387cf2922ed81b45c9e87,TCR,2024-06-24_14h34.18.603,LearnStrategy,2023.2.3,MacIntel,30.21148036,5,2,2,,,,,,,,3,09,,,,,,,,,,,3,8.41,1,,,,,,0.149098895,-0.258726029,1,0,0,8.4104,Diorite_rect,1,0,1,0,1,
667387cf2922ed81b45c9e87,TCR,2024-06-24_14h34.18.603,LearnStrategy,2023.2.3,MacIntel,30.21148036,5,2,3,,,,,,,,2,09,,,,,,,,,,,2,1.778,1,,,,,,-0.093684226,-0.248088897,1,0,0,1.7784,Basalt_rect,2,0,2,0,1,
667387cf2922ed81b45c9e87,TCR,2024-06-24_14h34.18.603,LearnStrategy,2023.2.3,MacIntel,30.21148036,5,2,4,,,,,,,,5,12,,,,,,,,,,,5,1.079,1,,,,,,-0.331632951,-0.413525345,1,0,0,1.0788,Obsidian_rect,3,0,3,0,1,
667387cf2922ed81b45c9e87,TCR,2024-06-24_14h34.18.603,LearnStrategy,2023.2.3,MacIntel,30.21148036,5,2,5,,,,,,,,8,04,,,,,,,,,,,8,1.159,1,,,,,,0.393756577,-0.408479011,1,0,0,1.1594,Pumice_rect,4,0,4,0,1,
667387cf2922ed81b45c9e87,TCR,2024-06-24_14h34.18.603,LearnStrategy,2023.2.3,MacIntel,30.21148036,5,2,6,,,,,,,,4,01,,,,,,,,,,,1,5.159,0,,,,,,-0.367224041,-0.259851497,1,0,0,5.1585,Andesite_rect,5,0,5,0,1,
667387cf2922ed81b45c9e87,TCR,2024-06-24_14h34.18.603,LearnStrategy,2023.2.3,MacIntel,30.21148036,5,2,7,,,,,,,,3,15,,,,,,,,,,,3,5.992,1,,,,,,0.142364359,-0.257490938,1,0,0,5.9919,Diorite_rect,6,0,6,0,1,
667387cf2922ed81b45c9e87,TCR,2024-06-24_14h34.18.603,LearnStrategy,2023.2.3,MacIntel,30.21148036,5,2,8,,,,,,,,1,05,,,,,,,,,,,1,23.542,1,,,,,,-0.357292154,-0.234181332,1,0,0,23.5415,Andesite_rect,7,0,7,0,1,
667387cf2922ed81b45c9e87,TCR,2024-06-24_14h34.18.603,LearnStrategy,2023.2.3,MacIntel,30.21148036,5,2,9,,,,,,,,7,15,,,,,,,,,,,7,5.089,1,,,,,,0.116263009,-0.380503099,1,0,0,5.0891,Peridotite_rect,8,0,8,0,1,
667387cf2922ed81b45c9e87,TCR,2024-06-24_14h34.18.603,LearnStrategy,2023.2.3,MacIntel,30.21148036,5,2,10,,,,,,,,4,16,,,,,,,,,,,2,10.324,0,,,,,,-0.181967668,-0.247003625,1,0,0,10.324,Basalt_rect,9,0,9,0,1,
667387cf2922ed81b45c9e87,TCR,2024-06-24_14h34.18.603,LearnStrategy,2023.2.3,MacIntel,30.21148036,5,2,11,,,,,,,,1,06,,,,,,,,,,,1,3.49,1,,,,,,-0.33070846,-0.243312968,1,0,0,3.4904,Andesite_rect,10,0,10,0,1,
667387cf2922ed81b45c9e87,TCR,2024-06-24_14h34.18.603,LearnStrategy,2023.2.3,MacIntel,30.21148036,5,2,12,,,,,,,,8,16,,,,,,,,,,,8,1.358,1,,,,,,0.363431069,-0.41424886,1,0,0,1.3579,Pumice_rect,11,0,11,0,1,
667387cf2922ed81b45c9e87,TCR,2024-06-24_14h34.18.603,LearnStrategy,2023.2.3,MacIntel,30.21148036,5,2,13,,,,,,,,5,04,,,,,,,,,,,5,1.075,1,,,,,,-0.388575041,-0.416594802,1,0,0,1.0748,Obsidian_rect,12,0,12,0,1,
667387cf2922ed81b45c9e87,TCR,2024-06-24_14h34.18.603,LearnStrategy,2023.2.3,MacIntel,30.21148036,5,2,14,,,,,,,,6,07,,,,,,,,,,,6,2.41,1,,,,,,-0.146303496,-0.400048965,1,0,0,2.4102,Pegmatite_rect,13,0,13,0,1,
667387cf2922ed81b45c9e87,TCR,2024-06-24_14h34.18.603,LearnStrategy,2023.2.3,MacIntel,30.21148036,5,2,15,,,,,,,,2,12,,,,,,,,,,,8,4.194,0,,,,,,0.36770273,-0.390902713,1,0,0,4.1938,Pumice_rect,14,0,14,0,1,
667387cf2922ed81b45c9e87,TCR,2024-06-24_14h34.18.603,LearnStrategy,2023.2.3,MacIntel,30.21148036,5,2,16,,,,,,,,7,05,,,,,,,,,,,7,18.008,1,,,,,,0.154302356,-0.397874766,1,0,0,18.008,Peridotite_rect,15,0,15,0,1,
667387cf2922ed81b45c9e87,TCR,2024-06-24_14h34.18.603,LearnStrategy,2023.2.3,MacIntel,30.21148036,6,1,1,0.093629414,0.021456969,1,0,0,0.9153,rock_grid_rect_2,2,08,-1,-1,0.915,-0.107135027,-0.260680981,1,0,0,1.3918,Basalt_rect,2,1.392,1,0,0,0,0,1,,,,,,,,,,,,,
667387cf2922ed81b45c9e87,TCR,2024-06-24_14h34.18.603,LearnStrategy,2023.2.3,MacIntel,30.21148036,6,1,2,0.060523123,-0.007995206,1,0,0,3.4891,rock_grid_rect_2,4,12,-1,-1,3.489,0.433063903,-0.256778385,1,0,0,3.5426,Gabbro_rect,4,3.543,1,1,0,1,0,1,,,,,,,,,,,,,
667387cf2922ed81b45c9e87,TCR,2024-06-24_14h34.18.603,LearnStrategy,2023.2.3,MacIntel,30.21148036,6,1,3,0.086964307,-0.006504326,1,0,0,1.4385,rock_grid_rect_2,5,09,-1,-1,1.438,-0.474446767,-0.408756724,1,0,0,1.5927,Obsidian_rect,5,1.593,1,2,0,2,0,1,,,,,,,,,,,,,
667387cf2922ed81b45c9e87,TCR,2024-06-24_14h34.18.603,LearnStrategy,2023.2.3,MacIntel,30.21148036,6,1,4,-0.048212406,-0.008470241,1,0,0,0.6823,rock_grid_rect_2,2,10,-1,-1,0.682,-0.123903765,-0.228433407,1,0,0,1.392,Basalt_rect,2,1.392,1,3,0,3,0,1,,,,,,,,,,,,,
667387cf2922ed81b45c9e87,TCR,2024-06-24_14h34.18.603,LearnStrategy,2023.2.3,MacIntel,30.21148036,6,1,5,-0.041532682,0.005967171,1,0,0,0.631,rock_grid_rect_2,2,04,-1,-1,0.631,-0.118225269,-0.249543236,1,0,0,1.8756,Basalt_rect,2,1.876,1,4,0,4,0,1,,,,,,,,,,,,,
667387cf2922ed81b45c9e87,TCR,2024-06-24_14h34.18.603,LearnStrategy,2023.2.3,MacIntel,30.21148036,6,1,6,-0.070202877,0.003109653,1,0,0,0.9487,rock_grid_rect_2,1,11,-1,-1,0.949,-0.352563728,-0.233044902,1,0,0,1.3412,Andesite_rect,1,1.341,1,5,0,5,0,1,,,,,,,,,,,,,
667387cf2922ed81b45c9e87,TCR,2024-06-24_14h34.18.603,LearnStrategy,2023.2.3,MacIntel,30.21148036,6,1,7,0.008039055,0.000157127,1,0,0,0.6322,rock_grid_rect_2,4,12,-1,-1,0.632,0.46145273,-0.258426391,1,0,0,1.858,Gabbro_rect,4,1.858,1,6,0,6,0,1,,,,,,,,,,,,,
667387cf2922ed81b45c9e87,TCR,2024-06-24_14h34.18.603,LearnStrategy,2023.2.3,MacIntel,30.21148036,6,1,8,0.05545121,-0.00043484,1,0,0,0.7478,rock_grid_rect_2,2,08,-1,-1,0.748,-0.117213079,-0.23745542,1,0,0,0.9261,Basalt_rect,2,0.926,1,7,0,7,0,1,,,,,,,,,,,,,
667387cf2922ed81b45c9e87,TCR,2024-06-24_14h34.18.603,LearnStrategy,2023.2.3,MacIntel,30.21148036,6,1,9,-0.005554256,0.003895288,1,0,0,0.698,rock_grid_rect_2,4,09,-1,-1,0.698,0.363029116,-0.260081706,1,0,0,3.7094,Gabbro_rect,4,3.709,1,8,0,8,0,1,,,,,,,,,,,,,
667387cf2922ed81b45c9e87,TCR,2024-06-24_14h34.18.603,LearnStrategy,2023.2.3,MacIntel,30.21148036,6,1,10,-0.014313172,0.016735851,1,0,0,0.7975,rock_grid_rect_2,1,02,-1,-1,0.797,-0.399869913,-0.243144878,1,0,0,1.0758,Andesite_rect,1,1.076,1,9,0,9,0,1,,,,,,,,,,,,,
667387cf2922ed81b45c9e87,TCR,2024-06-24_14h34.18.603,LearnStrategy,2023.2.3,MacIntel,30.21148036,6,1,11,0.011802795,-0.010560395,1,0,0,0.7317,rock_grid_rect_2,8,02,-1,-1,0.732,0.360997428,-0.407525286,1,0,0,1.7421,Pumice_rect,8,1.742,1,10,0,10,0,1,,,,,,,,,,,,,
667387cf2922ed81b45c9e87,TCR,2024-06-24_14h34.18.603,LearnStrategy,2023.2.3,MacIntel,30.21148036,6,1,12,0.078530607,0.022187792,1,0,0,0.7145,rock_grid_rect_2,4,15,-1,-1,0.715,0.107946241,-0.25946416,1,0,0,2.9955,Diorite_rect,3,2.995,0,11,0,11,0,1,,,,,,,,,,,,,
667387cf2922ed81b45c9e87,TCR,2024-06-24_14h34.18.603,LearnStrategy,2023.2.3,MacIntel,30.21148036,6,1,13,-0.006106028,-0.018263272,1,0,0,0.764,rock_grid_rect_2,3,13,-1,-1,0.764,0.12078315,-0.238661278,1,0,0,1.0588,Diorite_rect,3,1.059,1,12,0,12,0,1,,,,,,,,,,,,,
667387cf2922ed81b45c9e87,TCR,2024-06-24_14h34.18.603,LearnStrategy,2023.2.3,MacIntel,30.21148036,6,1,14,0.053682618,0.005455595,1,0,0,0.8975,rock_grid_rect_2,6,12,-1,-1,0.897,-0.355304315,-0.245633331,1,0,0,3.4253,Andesite_rect,1,3.425,0,13,0,13,0,1,,,,,,,,,,,,,
667387cf2922ed81b45c9e87,TCR,2024-06-24_14h34.18.603,LearnStrategy,2023.2.3,MacIntel,30.21148036,6,1,15,0.002634618,-0.0060366,1,0,0,0.9066,rock_grid_rect_2,4,10,-1,-1,0.907,0.402639733,-0.261210828,1,0,0,2.2253,Gabbro_rect,4,2.225,1,14,0,14,0,1,,,,,,,,,,,,,
667387cf2922ed81b45c9e87,TCR,2024-06-24_14h34.18.603,LearnStrategy,2023.2.3,MacIntel,30.21148036,6,1,16,0.06721381,0.010553087,1,0,0,0.7482,rock_grid_rect_2,7,16,-1,-1,0.748,0.115813552,-0.415334132,1,0,0,1.9921,Peridotite_rect,7,1.992,1,15,0,15,0,1,,,,,,,,,,,,,
667387cf2922ed81b45c9e87,TCR,2024-06-24_14h34.18.603,LearnStrategy,2023.2.3,MacIntel,30.21148036,6,2,1,,,,,,,,6,15,,,,,,,,,,,6,6.462,1,,,,,,-0.132618832,-0.390493452,1,0,0,6.462,Pegmatite_rect,0,0,0,0,1,
667387cf2922ed81b45c9e87,TCR,2024-06-24_14h34.18.603,LearnStrategy,2023.2.3,MacIntel,30.21148036,6,2,2,,,,,,,,4,08,,,,,,,,,,,4,3.058,1,,,,,,0.408000322,-0.256354508,1,0,0,3.0577,Gabbro_rect,1,0,1,0,1,
667387cf2922ed81b45c9e87,TCR,2024-06-24_14h34.18.603,LearnStrategy,2023.2.3,MacIntel,30.21148036,6,2,3,,,,,,,,5,05,,,,,,,,,,,5,1.609,1,,,,,,-0.35213985,-0.401938143,1,0,0,1.6091,Obsidian_rect,2,0,2,0,1,
667387cf2922ed81b45c9e87,TCR,2024-06-24_14h34.18.603,LearnStrategy,2023.2.3,MacIntel,30.21148036,6,2,4,,,,,,,,6,05,,,,,,,,,,,6,7.777,1,,,,,,-0.120344656,-0.397195101,1,0,0,7.7771,Pegmatite_rect,3,0,3,0,1,
667387cf2922ed81b45c9e87,TCR,2024-06-24_14h34.18.603,LearnStrategy,2023.2.3,MacIntel,30.21148036,6,2,5,,,,,,,,1,09,,,,,,,,,,,1,34.559,1,,,,,,-0.433926275,-0.242143651,1,0,0,34.559,Andesite_rect,4,0,4,0,1,
667387cf2922ed81b45c9e87,TCR,2024-06-24_14h34.18.603,LearnStrategy,2023.2.3,MacIntel,30.21148036,6,2,6,,,,,,,,3,07,,,,,,,,,,,3,5.279,1,,,,,,0.112923147,-0.267393592,1,0,0,5.2794,Diorite_rect,5,0,5,0,1,
667387cf2922ed81b45c9e87,TCR,2024-06-24_14h34.18.603,LearnStrategy,2023.2.3,MacIntel,30.21148036,6,2,7,,,,,,,,3,10,,,,,,,,,,,3,6.191,1,,,,,,0.112923147,-0.267393592,1,0,0,6.1915,Diorite_rect,6,0,6,0,1,
667387cf2922ed81b45c9e87,TCR,2024-06-24_14h34.18.603,LearnStrategy,2023.2.3,MacIntel,30.21148036,6,2,8,,,,,,,,7,14,,,,,,,,,,,7,1.641,1,,,,,,0.116949982,-0.40472258,1,0,0,1.6409,Peridotite_rect,7,0,7,0,1,
667387cf2922ed81b45c9e87,TCR,2024-06-24_14h34.18.603,LearnStrategy,2023.2.3,MacIntel,30.21148036,6,2,9,,,,,,,,7,13,,,,,,,,,,,7,2.234,1,,,,,,0.119526134,-0.421348807,1,0,0,2.2343,Peridotite_rect,8,0,8,0,1,
667387cf2922ed81b45c9e87,TCR,2024-06-24_14h34.18.603,LearnStrategy,2023.2.3,MacIntel,30.21148036,6,2,10,,,,,,,,8,05,,,,,,,,,,,8,1.21,1,,,,,,0.358004707,-0.416700772,1,0,0,1.21,Pumice_rect,9,0,9,0,1,
667387cf2922ed81b45c9e87,TCR,2024-06-24_14h34.18.603,LearnStrategy,2023.2.3,MacIntel,30.21148036,6,2,11,,,,,,,,5,11,,,,,,,,,,,5,0.993,1,,,,,,-0.370984127,-0.418177035,1,0,0,0.9927,Obsidian_rect,10,0,10,0,1,
667387cf2922ed81b45c9e87,TCR,2024-06-24_14h34.18.603,LearnStrategy,2023.2.3,MacIntel,30.21148036,6,2,12,,,,,,,,2,11,,,,,,,,,,,2,32.676,1,,,,,,-0.095142218,-0.244197264,1,0,0,32.6755,Basalt_rect,11,0,11,0,1,
667387cf2922ed81b45c9e87,TCR,2024-06-24_14h34.18.603,LearnStrategy,2023.2.3,MacIntel,30.21148036,6,2,13,,,,,,,,1,07,,,,,,,,,,,3,1.242,0,,,,,,0.098602666,-0.228170311,1,0,0,1.2425,Diorite_rect,12,0,12,0,1,
667387cf2922ed81b45c9e87,TCR,2024-06-24_14h34.18.603,LearnStrategy,2023.2.3,MacIntel,30.21148036,6,2,14,,,,,,,,8,03,,,,,,,,,,,8,1.375,1,,,,,,0.367735617,-0.393942937,1,0,0,1.3747,Pumice_rect,13,0,13,0,1,
667387cf2922ed81b45c9e87,TCR,2024-06-24_14h34.18.603,LearnStrategy,2023.2.3,MacIntel,30.21148036,6,2,15,,,,,,,,4,11,,,,,,,,,,,4,28.309,1,,,,,,0.320794843,-0.228155695,1,0,0,28.3093,Gabbro_rect,14,0,14,0,1,
667387cf2922ed81b45c9e87,TCR,2024-06-24_14h34.18.603,LearnStrategy,2023.2.3,MacIntel,30.21148036,6,2,16,,,,,,,,2,02,,,,,,,,,,,2,1.458,1,,,,,,-0.098613628,-0.261557969,1,0,0,1.4578,Basalt_rect,15,0,15,0,1,
667387cf2922ed81b45c9e87,TCR,2024-06-24_14h34.18.603,LearnStrategy,2023.2.3,MacIntel,30.21148036,7,1,1,0.050583928,0.005017101,1,0,0,1.2305,rock_grid_rect_2,4,12,-1,-1,1.231,-0.117019411,-0.254516487,1,0,0,1.2616,Basalt_rect,2,1.262,0,0,0,0,0,1,,,,,,,,,,,,,
667387cf2922ed81b45c9e87,TCR,2024-06-24_14h34.18.603,LearnStrategy,2023.2.3,MacIntel,30.21148036,7,1,2,0.07554154,-0.012522656,1,0,0,2.3159,rock_grid_rect_2,7,02,-1,-1,2.316,0.177933524,-0.395751725,1,0,0,1.5916,Peridotite_rect,7,1.592,1,1,0,1,0,1,,,,,,,,,,,,,
667387cf2922ed81b45c9e87,TCR,2024-06-24_14h34.18.603,LearnStrategy,2023.2.3,MacIntel,30.21148036,7,1,3,0.033968662,-0.022359536,1,0,0,0.8485,rock_grid_rect_2,4,09,-1,-1,0.849,0.35117151,-0.239161892,1,0,0,4.0252,Gabbro_rect,4,4.025,1,2,0,2,0,1,,,,,,,,,,,,,
667387cf2922ed81b45c9e87,TCR,2024-06-24_14h34.18.603,LearnStrategy,2023.2.3,MacIntel,30.21148036,7,1,4,0.001118159,-0.0003106,1,0,0,0.6969,rock_grid_rect_2,5,07,-1,-1,0.697,-0.352742779,-0.410865149,1,0,0,1.1422,Obsidian_rect,5,1.142,1,3,0,3,0,1,,,,,,,,,,,,,
667387cf2922ed81b45c9e87,TCR,2024-06-24_14h34.18.603,LearnStrategy,2023.2.3,MacIntel,30.21148036,7,1,5,-0.022768797,-0.004827087,1,0,0,1.2144,rock_grid_rect_2,7,06,-1,-1,1.214,0.125628508,-0.406129414,1,0,0,3.125,Peridotite_rect,7,3.125,1,4,0,4,0,1,,,,,,,,,,,,,
667387cf2922ed81b45c9e87,TCR,2024-06-24_14h34.18.603,LearnStrategy,2023.2.3,MacIntel,30.21148036,7,1,6,0.030435132,0.024340067,1,0,0,1.2142,rock_grid_rect_2,2,01,-1,-1,1.214,-0.099077701,-0.235668557,1,0,0,1.0262,Basalt_rect,2,1.026,1,5,0,5,0,1,,,,,,,,,,,,,
667387cf2922ed81b45c9e87,TCR,2024-06-24_14h34.18.603,LearnStrategy,2023.2.3,MacIntel,30.21148036,7,1,7,-0.05706633,-0.013987956,1,0,0,0.9315,rock_grid_rect_2,4,05,-1,-1,0.931,0.392634764,-0.245556595,1,0,0,1.4623,Gabbro_rect,4,1.462,1,6,0,6,0,1,,,,,,,,,,,,,
667387cf2922ed81b45c9e87,TCR,2024-06-24_14h34.18.603,LearnStrategy,2023.2.3,MacIntel,30.21148036,7,1,8,0.03873363,0.009606671,1,0,0,0.7315,rock_grid_rect_2,1,11,-1,-1,0.731,-0.318964131,-0.253051187,1,0,0,1.5756,Andesite_rect,1,1.576,1,7,0,7,0,1,,,,,,,,,,,,,
667387cf2922ed81b45c9e87,TCR,2024-06-24_14h34.18.603,LearnStrategy,2023.2.3,MacIntel,30.21148036,7,1,9,0.022078169,0.007132834,1,0,0,0.681,rock_grid_rect_2,2,16,-1,-1,0.681,-0.096242107,-0.253858746,1,0,0,1.4974,Basalt_rect,2,1.497,1,8,0,8,0,1,,,,,,,,,,,,,
667387cf2922ed81b45c9e87,TCR,2024-06-24_14h34.18.603,LearnStrategy,2023.2.3,MacIntel,30.21148036,7,1,10,-0.009091441,-0.008572556,1,0,0,0.9813,rock_grid_rect_2,2,10,-1,-1,0.981,-0.106926742,-0.261554315,1,0,0,2.226,Basalt_rect,2,2.226,1,9,0,9,0,1,,,,,,,,,,,,,
667387cf2922ed81b45c9e87,TCR,2024-06-24_14h34.18.603,LearnStrategy,2023.2.3,MacIntel,30.21148036,7,1,11,-0.000285021,0.011642014,1,0,0,0.7645,rock_grid_rect_2,3,13,-1,-1,0.764,0.092474714,-0.25314254,1,0,0,1.6291,Diorite_rect,3,1.629,1,10,0,10,0,1,,,,,,,,,,,,,
667387cf2922ed81b45c9e87,TCR,2024-06-24_14h34.18.603,LearnStrategy,2023.2.3,MacIntel,30.21148036,7,1,12,0.010341148,-0.020422854,1,0,0,0.881,rock_grid_rect_2,1,16,-1,-1,0.881,-0.339693931,-0.267294931,1,0,0,4.2421,Andesite_rect,1,4.242,1,11,0,11,0,1,,,,,,,,,,,,,
667387cf2922ed81b45c9e87,TCR,2024-06-24_14h34.18.603,LearnStrategy,2023.2.3,MacIntel,30.21148036,7,1,13,0.034385232,-0.007933086,1,0,0,0.7155,rock_grid_rect_2,8,09,-1,-1,0.716,0.403962523,-0.401949105,1,0,0,1.2095,Pumice_rect,8,1.209,1,12,0,12,0,1,,,,,,,,,,,,,
667387cf2922ed81b45c9e87,TCR,2024-06-24_14h34.18.603,LearnStrategy,2023.2.3,MacIntel,30.21148036,7,1,14,0.025520346,-0.010231525,1,0,0,0.9323,rock_grid_rect_2,6,11,-1,-1,0.932,-0.056876315,-0.413039348,1,0,0,1.1261,Pegmatite_rect,6,1.126,1,13,0,13,0,1,,,,,,,,,,,,,
667387cf2922ed81b45c9e87,TCR,2024-06-24_14h34.18.603,LearnStrategy,2023.2.3,MacIntel,30.21148036,7,1,15,-0.03995045,0.002718662,1,0,0,0.6977,rock_grid_rect_2,1,04,-1,-1,0.698,0.363474918,-0.242523679,1,0,0,8.0424,Gabbro_rect,4,8.042,0,14,0,14,0,1,,,,,,,,,,,,,
667387cf2922ed81b45c9e87,TCR,2024-06-24_14h34.18.603,LearnStrategy,2023.2.3,MacIntel,30.21148036,7,1,16,0.090457641,0.00490017,1,0,0,0.7372,rock_grid_rect_2,4,10,-1,-1,0.737,0.380371551,-0.27128888,1,0,0,2.3417,Gabbro_rect,4,2.342,1,15,0,15,0,1,,,,,,,,,,,,,
667387cf2922ed81b45c9e87,TCR,2024-06-24_14h34.18.603,LearnStrategy,2023.2.3,MacIntel,30.21148036,7,2,1,,,,,,,,8,03,,,,,,,,,,,8,1.308,1,,,,,,0.348847492,-0.409297533,1,0,0,1.3079,Pumice_rect,0,0,0,0,1,
667387cf2922ed81b45c9e87,TCR,2024-06-24_14h34.18.603,LearnStrategy,2023.2.3,MacIntel,30.21148036,7,2,2,,,,,,,,6,03,,,,,,,,,,,7,7.141,0,,,,,,0.097879151,-0.415860325,1,0,0,7.141,Peridotite_rect,1,0,1,0,1,
667387cf2922ed81b45c9e87,TCR,2024-06-24_14h34.18.603,LearnStrategy,2023.2.3,MacIntel,30.21148036,7,2,3,,,,,,,,4,16,,,,,,,,,,,4,114.294,1,,,,,,0.408760378,-0.244274,1,0,0,114.294,Gabbro_rect,2,0,2,0,1,
667387cf2922ed81b45c9e87,TCR,2024-06-24_14h34.18.603,LearnStrategy,2023.2.3,MacIntel,30.21148036,7,2,4,,,,,,,,1,05,,,,,,,,,,,1,8.274,1,,,,,,-0.372376345,-0.253624883,1,0,0,8.2745,Andesite_rect,3,0,3,0,1,
667387cf2922ed81b45c9e87,TCR,2024-06-24_14h34.18.603,LearnStrategy,2023.2.3,MacIntel,30.21148036,7,2,5,,,,,,,,5,11,,,,,,,,,,,5,1.191,1,,,,,,-0.322124942,-0.40069209,1,0,0,1.191,Obsidian_rect,4,0,4,0,1,
667387cf2922ed81b45c9e87,TCR,2024-06-24_14h34.18.603,LearnStrategy,2023.2.3,MacIntel,30.21148036,7,2,6,,,,,,,,5,05,,,,,,,,,,,5,1.058,1,,,,,,-0.35230794,-0.421798264,1,0,0,1.0579,Obsidian_rect,5,0,5,0,1,
667387cf2922ed81b45c9e87,TCR,2024-06-24_14h34.18.603,LearnStrategy,2023.2.3,MacIntel,30.21148036,7,2,7,,,,,,,,4,03,,,,,,,,,,,4,6.726,1,,,,,,0.398620206,-0.233264149,1,0,0,6.7264,Gabbro_rect,6,0,6,0,1,
667387cf2922ed81b45c9e87,TCR,2024-06-24_14h34.18.603,LearnStrategy,2023.2.3,MacIntel,30.21148036,7,2,8,,,,,,,,2,02,,,,,,,,,,,2,0.991,1,,,,,,-0.118203344,-0.266962406,1,0,0,0.9908,Basalt_rect,7,0,7,0,1,
667387cf2922ed81b45c9e87,TCR,2024-06-24_14h34.18.603,LearnStrategy,2023.2.3,MacIntel,30.21148036,7,2,9,,,,,,,,8,05,,,,,,,,,,,8,1.191,1,,,,,,0.396361962,-0.399559314,1,0,0,1.1907,Pumice_rect,8,0,8,0,1,
667387cf2922ed81b45c9e87,TCR,2024-06-24_14h34.18.603,LearnStrategy,2023.2.3,MacIntel,30.21148036,7,2,10,,,,,,,,6,06,,,,,,,,,,,6,150.293,1,,,,,,-0.166507104,-0.409611787,1,0,0,150.293,Pegmatite_rect,9,0,9,0,1,
667387cf2922ed81b45c9e87,TCR,2024-06-24_14h34.18.603,LearnStrategy,2023.2.3,MacIntel,30.21148036,7,2,11,,,,,,,,3,10,,,,,,,,,,,3,8.195,1,,,,,,0.12853353,-0.24167227,1,0,0,8.195,Diorite_rect,10,0,10,0,1,
667387cf2922ed81b45c9e87,TCR,2024-06-24_14h34.18.603,LearnStrategy,2023.2.3,MacIntel,30.21148036,7,2,12,,,,,,,,2,09,,,,,,,,,,,2,1.442,1,,,,,,-0.10964175,-0.239439605,1,0,0,1.4422,Basalt_rect,11,0,11,0,1,
667387cf2922ed81b45c9e87,TCR,2024-06-24_14h34.18.603,LearnStrategy,2023.2.3,MacIntel,30.21148036,7,2,13,,,,,,,,7,05,,,,,,,,,,,7,2.224,1,,,,,,0.123786833,-0.405869972,1,0,0,2.224,Peridotite_rect,12,0,12,0,1,
667387cf2922ed81b45c9e87,TCR,2024-06-24_14h34.18.603,LearnStrategy,2023.2.3,MacIntel,30.21148036,7,2,14,,,,,,,,1,10,,,,,,,,,,,1,5.125,1,,,,,,-0.406085565,-0.247310571,1,0,0,5.1246,Andesite_rect,13,0,13,0,1,
667387cf2922ed81b45c9e87,TCR,2024-06-24_14h34.18.603,LearnStrategy,2023.2.3,MacIntel,30.21148036,7,2,15,,,,,,,,3,12,,,,,,,,,,,3,0.99,1,,,,,,0.091184811,-0.258766224,1,0,0,0.9904,Diorite_rect,14,0,14,0,1,
667387cf2922ed81b45c9e87,TCR,2024-06-24_14h34.18.603,LearnStrategy,2023.2.3,MacIntel,30.21148036,7,2,16,,,,,,,,7,13,,,,,,,,,,,7,1.024,1,,,,,,0.102987605,-0.379348398,1,0,0,1.0242,Peridotite_rect,15,0,15,0,1,
667387cf2922ed81b45c9e87,TCR,2024-06-24_14h34.18.603,LearnStrategy,2023.2.3,MacIntel,30.21148036,8,1,1,0.016286395,0.000986611,1,0,0,1.7144,rock_grid_rect_2,1,11,-1,-1,1.714,-0.355629531,-0.260008624,1,0,0,1.7432,Andesite_rect,1,1.743,1,0,0,0,0,1,,,,,,,,,,,,,
667387cf2922ed81b45c9e87,TCR,2024-06-24_14h34.18.603,LearnStrategy,2023.2.3,MacIntel,30.21148036,8,1,2,-0.058392774,-0.001059694,1,0,0,0.7988,rock_grid_rect_2,4,09,-1,-1,0.799,0.376702818,-0.271577555,1,0,0,1.7251,Gabbro_rect,4,1.725,1,1,0,1,0,1,,,,,,,,,,,,,
667387cf2922ed81b45c9e87,TCR,2024-06-24_14h34.18.603,LearnStrategy,2023.2.3,MacIntel,30.21148036,8,1,3,0.085977695,0.010410576,1,0,0,0.8643,rock_grid_rect_2,1,04,-1,-1,0.864,-0.321215067,-0.269454514,1,0,0,4.2588,Andesite_rect,1,4.259,1,2,0,2,0,1,,,,,,,,,,,,,
667387cf2922ed81b45c9e87,TCR,2024-06-24_14h34.18.603,LearnStrategy,2023.2.3,MacIntel,30.21148036,8,1,4,-0.081125029,0.004907478,1,0,0,0.8803,rock_grid_rect_2,1,14,-1,-1,0.88,-0.343446708,-0.235460272,1,0,0,4.6916,Andesite_rect,1,4.692,1,3,0,3,0,1,,,,,,,,,,,,,
667387cf2922ed81b45c9e87,TCR,2024-06-24_14h34.18.603,LearnStrategy,2023.2.3,MacIntel,30.21148036,8,1,5,0.003526222,-0.01235822,1,0,0,0.847,rock_grid_rect_2,4,15,-1,-1,0.847,0.363292212,-0.241551684,1,0,0,2.4924,Gabbro_rect,4,2.492,1,4,0,4,0,1,,,,,,,,,,,,,
667387cf2922ed81b45c9e87,TCR,2024-06-24_14h34.18.603,LearnStrategy,2023.2.3,MacIntel,30.21148036,8,1,6,0.042581414,0.002579806,1,0,0,0.9638,rock_grid_rect_2,3,13,-1,-1,0.964,0.144940511,-0.263564079,1,0,0,1.0254,Diorite_rect,3,1.025,1,5,0,5,0,1,,,,,,,,,,,,,
667387cf2922ed81b45c9e87,TCR,2024-06-24_14h34.18.603,LearnStrategy,2023.2.3,MacIntel,30.21148036,8,1,7,0.037144089,-0.005535986,1,0,0,0.7315,rock_grid_rect_2,6,16,-1,-1,0.731,-0.091553876,-0.396091558,1,0,0,1.6597,Pegmatite_rect,6,1.66,1,6,0,6,0,1,,,,,,,,,,,,,
667387cf2922ed81b45c9e87,TCR,2024-06-24_14h34.18.603,LearnStrategy,2023.2.3,MacIntel,30.21148036,8,1,8,-0.056554753,-0.002758858,1,0,0,0.7653,rock_grid_rect_2,7,02,-1,-1,0.765,0.137551888,-0.386397188,1,0,0,1.025,Peridotite_rect,7,1.025,1,7,0,7,0,1,,,,,,,,,,,,,
667387cf2922ed81b45c9e87,TCR,2024-06-24_14h34.18.603,LearnStrategy,2023.2.3,MacIntel,30.21148036,8,1,9,0.006902625,0.002331326,1,0,0,1.1303,rock_grid_rect_2,6,08,-1,-1,1.13,-0.107822001,-0.39699047,1,0,0,1.8268,Pegmatite_rect,6,1.827,1,8,0,8,0,1,,,,,,,,,,,,,
667387cf2922ed81b45c9e87,TCR,2024-06-24_14h34.18.603,LearnStrategy,2023.2.3,MacIntel,30.21148036,8,1,10,0.010315569,0.017919785,1,0,0,0.681,rock_grid_rect_2,6,16,-1,-1,0.681,-0.103678233,-0.392433787,1,0,0,1.0101,Pegmatite_rect,6,1.01,1,9,0,9,0,1,,,,,,,,,,,,,
667387cf2922ed81b45c9e87,TCR,2024-06-24_14h34.18.603,LearnStrategy,2023.2.3,MacIntel,30.21148036,8,1,11,-0.026185395,-0.016213313,1,0,0,0.6978,rock_grid_rect_2,5,06,-1,-1,0.698,-0.377550573,-0.398525199,1,0,0,1.0088,Obsidian_rect,5,1.009,1,10,0,10,0,1,,,,,,,,,,,,,
667387cf2922ed81b45c9e87,TCR,2024-06-24_14h34.18.603,LearnStrategy,2023.2.3,MacIntel,30.21148036,8,1,12,-0.018570217,-0.011550661,1,0,0,0.6645,rock_grid_rect_2,7,06,-1,-1,0.664,0.114253245,-0.396255993,1,0,0,1.259,Peridotite_rect,7,1.259,1,11,0,11,0,1,,,,,,,,,,,,,
667387cf2922ed81b45c9e87,TCR,2024-06-24_14h34.18.603,LearnStrategy,2023.2.3,MacIntel,30.21148036,8,1,13,0.018807735,-0.01019133,1,0,0,0.6482,rock_grid_rect_2,8,09,-1,-1,0.648,0.396935658,-0.398006314,1,0,0,1.8417,Pumice_rect,8,1.842,1,12,0,12,0,1,,,,,,,,,,,,,
667387cf2922ed81b45c9e87,TCR,2024-06-24_14h34.18.603,LearnStrategy,2023.2.3,MacIntel,30.21148036,8,1,14,0.106009559,-0.010235179,1,0,0,0.8828,rock_grid_rect_2,4,12,-1,-1,0.883,-0.128171773,-0.2493788,1,0,0,1.0574,Basalt_rect,2,1.057,0,13,0,13,0,1,,,,,,,,,,,,,
667387cf2922ed81b45c9e87,TCR,2024-06-24_14h34.18.603,LearnStrategy,2023.2.3,MacIntel,30.21148036,8,1,15,0.033968662,0.00547752,1,0,0,0.9386,rock_grid_rect_2,2,16,-1,-1,0.939,-0.15806975,-0.264108542,1,0,0,0.7423,Basalt_rect,2,0.742,1,14,0,14,0,1,,,,,,,,,,,,,
667387cf2922ed81b45c9e87,TCR,2024-06-24_14h34.18.603,LearnStrategy,2023.2.3,MacIntel,30.21148036,8,1,16,-0.028436331,0.010176713,1,0,0,0.6155,rock_grid_rect_2,2,10,-1,-1,0.615,-0.113142394,-0.229240967,1,0,0,0.8592,Basalt_rect,2,0.859,1,15,0,15,0,1,,,,,,,,,,,,,
667387cf2922ed81b45c9e87,TCR,2024-06-24_14h34.18.603,LearnStrategy,2023.2.3,MacIntel,30.21148036,8,2,1,,,,,,,,7,15,,,,,,,,,,,7,1.357,1,,,,,,0.166682501,-0.38956896,1,0,0,1.3573,Peridotite_rect,0,0,0,0,1,
667387cf2922ed81b45c9e87,TCR,2024-06-24_14h34.18.603,LearnStrategy,2023.2.3,MacIntel,30.21148036,8,2,2,,,,,,,,5,12,,,,,,,,,,,5,1.141,1,,,,,,-0.381555484,-0.405515523,1,0,0,1.1406,Obsidian_rect,1,0,1,0,1,
667387cf2922ed81b45c9e87,TCR,2024-06-24_14h34.18.603,LearnStrategy,2023.2.3,MacIntel,30.21148036,8,2,3,,,,,,,,3,11,,,,,,,,,,,3,1.108,1,,,,,,0.115550456,-0.258546977,1,0,0,1.1082,Diorite_rect,2,0,2,0,1,
667387cf2922ed81b45c9e87,TCR,2024-06-24_14h34.18.603,LearnStrategy,2023.2.3,MacIntel,30.21148036,8,2,4,,,,,,,,1,06,,,,,,,,,,,1,7.874,1,,,,,,-0.360632016,-0.27118291,1,0,0,7.8745,Andesite_rect,3,0,3,0,1,
667387cf2922ed81b45c9e87,TCR,2024-06-24_14h34.18.603,LearnStrategy,2023.2.3,MacIntel,30.21148036,8,2,5,,,,,,,,4,11,,,,,,,,,,,4,1.802,1,,,,,,0.363650316,-0.242724655,1,0,0,1.8018,Gabbro_rect,4,0,4,0,1,
667387cf2922ed81b45c9e87,TCR,2024-06-24_14h34.18.603,LearnStrategy,2023.2.3,MacIntel,30.21148036,8,2,6,,,,,,,,5,02,,,,,,,,,,,5,1.108,1,,,,,,-0.363515113,-0.397662827,1,0,0,1.1082,Obsidian_rect,5,0,5,0,1,
667387cf2922ed81b45c9e87,TCR,2024-06-24_14h34.18.603,LearnStrategy,2023.2.3,MacIntel,30.21148036,8,2,7,,,,,,,,6,15,,,,,,,,,,,6,1.891,1,,,,,,-0.122909846,-0.406936974,1,0,0,1.8908,Pegmatite_rect,6,0,6,0,1,
667387cf2922ed81b45c9e87,TCR,2024-06-24_14h34.18.603,LearnStrategy,2023.2.3,MacIntel,30.21148036,8,2,8,,,,,,,,8,16,,,,,,,,,,,8,1.14,1,,,,,,0.372310571,-0.40959717,1,0,0,1.14,Pumice_rect,7,0,7,0,1,
667387cf2922ed81b45c9e87,TCR,2024-06-24_14h34.18.603,LearnStrategy,2023.2.3,MacIntel,30.21148036,8,2,9,,,,,,,,2,14,,,,,,,,,,,8,1.891,0,,,,,,0.368196036,-0.389576269,1,0,0,1.8906,Pumice_rect,8,0,8,0,1,
667387cf2922ed81b45c9e87,TCR,2024-06-24_14h34.18.603,LearnStrategy,2023.2.3,MacIntel,30.21148036,8,2,10,,,,,,,,6,05,,,,,,,,,,,6,3.508,1,,,,,,-0.127115733,-0.411099012,1,0,0,3.5083,Pegmatite_rect,9,0,9,0,1,
667387cf2922ed81b45c9e87,TCR,2024-06-24_14h34.18.603,LearnStrategy,2023.2.3,MacIntel,30.21148036,8,2,11,,,,,,,,8,06,,,,,,,,,,,8,1.051,1,,,,,,0.320604829,-0.396822381,1,0,0,1.051,Pumice_rect,10,0,10,0,1,
667387cf2922ed81b45c9e87,TCR,2024-06-24_14h34.18.603,LearnStrategy,2023.2.3,MacIntel,30.21148036,8,2,12,,,,,,,,4,01,,,,,,,,,,,1,6.696,0,,,,,,-0.353912097,-0.255422708,1,0,0,6.6957,Andesite_rect,11,0,11,0,1,
667387cf2922ed81b45c9e87,TCR,2024-06-24_14h34.18.603,LearnStrategy,2023.2.3,MacIntel,30.21148036,8,2,13,,,,,,,,7,04,,,,,,,,,,,7,2.336,1,,,,,,0.100937646,-0.398130554,1,0,0,2.3356,Peridotite_rect,12,0,12,0,1,
667387cf2922ed81b45c9e87,TCR,2024-06-24_14h34.18.603,LearnStrategy,2023.2.3,MacIntel,30.21148036,8,2,14,,,,,,,,3,09,,,,,,,,,,,3,1.025,1,,,,,,0.205799813,-0.231104566,1,0,0,1.0249,Diorite_rect,13,0,13,0,1,
667387cf2922ed81b45c9e87,TCR,2024-06-24_14h34.18.603,LearnStrategy,2023.2.3,MacIntel,30.21148036,8,2,15,,,,,,,,2,12,,,,,,,,,,,4,5.041,0,,,,,,0.409812763,-0.247588283,1,0,0,5.0412,Gabbro_rect,14,0,14,0,1,
667387cf2922ed81b45c9e87,TCR,2024-06-24_14h34.18.603,LearnStrategy,2023.2.3,MacIntel,30.21148036,8,2,16,,,,,,,,1,03,,,,,,,,,,,1,5.268,1,,,,,,-0.390259588,-0.251030461,1,0,0,5.2676,Andesite_rect,15,0,15,0,1,
667387cf2922ed81b45c9e87,TCR,2024-06-24_14h34.18.603,LearnStrategy,2023.2.3,MacIntel,30.21148036,9,1,1,0.00694282,0.009730911,1,0,0,0.6148,rock_grid_rect_2,4,12,-1,-1,0.615,0.395218224,-0.260132864,1,0,0,1.4416,Gabbro_rect,4,1.442,1,0,0,0,0,1,,,,,,,,,,,,,
667387cf2922ed81b45c9e87,TCR,2024-06-24_14h34.18.603,LearnStrategy,2023.2.3,MacIntel,30.21148036,9,1,2,-0.036764061,-0.00971264,1,0,0,0.983,rock_grid_rect_2,4,15,-1,-1,0.983,0.116829397,-0.264828403,1,0,0,2.0252,Diorite_rect,3,2.025,0,1,0,1,0,1,,,,,,,,,,,,,
667387cf2922ed81b45c9e87,TCR,2024-06-24_14h34.18.603,LearnStrategy,2023.2.3,MacIntel,30.21148036,9,1,3,0.096212874,0.013213283,1,0,0,3.398,rock_grid_rect_2,5,08,-1,-1,3.398,-0.315671773,-0.406129414,1,0,0,1.092,Obsidian_rect,5,1.092,1,2,0,2,0,1,,,,,,,,,,,,,
667387cf2922ed81b45c9e87,TCR,2024-06-24_14h34.18.603,LearnStrategy,2023.2.3,MacIntel,30.21148036,9,1,4,-0.024668937,-0.010900228,1,0,0,1.2814,rock_grid_rect_2,8,09,-1,-1,1.281,0.364651543,-0.391805279,1,0,0,1.1084,Pumice_rect,8,1.108,1,3,0,3,0,1,,,,,,,,,,,,,
667387cf2922ed81b45c9e87,TCR,2024-06-24_14h34.18.603,LearnStrategy,2023.2.3,MacIntel,30.21148036,9,1,5,-0.032748188,-0.018416745,1,0,0,0.8986,rock_grid_rect_2,6,12,-1,-1,0.899,-0.125478689,-0.410616669,1,0,0,2.7076,Pegmatite_rect,6,2.708,1,4,0,4,0,1,,,,,,,,,,,,,
667387cf2922ed81b45c9e87,TCR,2024-06-24_14h34.18.603,LearnStrategy,2023.2.3,MacIntel,30.21148036,9,1,6,-0.050865295,-0.013216938,1,0,0,0.7637,rock_grid_rect_2,2,05,-1,-1,0.764,-0.110624708,-0.26103543,1,0,0,0.7928,Basalt_rect,2,0.793,1,5,0,5,0,1,,,,,,,,,,,,,
667387cf2922ed81b45c9e87,TCR,2024-06-24_14h34.18.603,LearnStrategy,2023.2.3,MacIntel,30.21148036,9,1,7,-0.05165093,-0.017459366,1,0,0,0.8489,rock_grid_rect_2,4,15,-1,-1,0.849,0.070531747,-0.259303379,1,0,0,1.7755,Diorite_rect,3,1.776,0,6,0,6,0,1,,,,,,,,,,,,,
667387cf2922ed81b45c9e87,TCR,2024-06-24_14h34.18.603,LearnStrategy,2023.2.3,MacIntel,30.21148036,9,1,8,0.003482373,-0.008645638,1,0,0,0.7148,rock_grid_rect_2,1,14,-1,-1,0.715,-0.35585974,-0.256570101,1,0,0,1.9256,Andesite_rect,1,1.926,1,7,0,7,0,1,,,,,,,,,,,,,
667387cf2922ed81b45c9e87,TCR,2024-06-24_14h34.18.603,LearnStrategy,2023.2.3,MacIntel,30.21148036,9,1,9,-0.014371638,-0.011762599,1,0,0,0.8642,rock_grid_rect_2,2,01,-1,-1,0.864,-0.110690482,-0.241025491,1,0,0,0.7591,Basalt_rect,2,0.759,1,8,0,8,0,1,,,,,,,,,,,,,
667387cf2922ed81b45c9e87,TCR,2024-06-24_14h34.18.603,LearnStrategy,2023.2.3,MacIntel,30.21148036,9,1,10,0.025494767,-0.000244826,1,0,0,0.7815,rock_grid_rect_2,1,11,-1,-1,0.782,0.107873158,-0.251077964,1,0,0,1.1286,Diorite_rect,3,1.129,0,9,0,9,0,1,,,,,,,,,,,,,
667387cf2922ed81b45c9e87,TCR,2024-06-24_14h34.18.603,LearnStrategy,2023.2.3,MacIntel,30.21148036,9,1,11,-0.027431449,0.010293645,1,0,0,0.7648,rock_grid_rect_2,2,08,-1,-1,0.765,-0.137968458,-0.263406952,1,0,0,1.1581,Basalt_rect,2,1.158,1,10,0,10,0,1,,,,,,,,,,,,,
667387cf2922ed81b45c9e87,TCR,2024-06-24_14h34.18.603,LearnStrategy,2023.2.3,MacIntel,30.21148036,9,1,12,-0.007713839,0.008981817,1,0,0,1.0478,rock_grid_rect_2,2,10,-1,-1,1.048,-0.128270434,-0.269896662,1,0,0,0.9433,Basalt_rect,2,0.943,1,11,0,11,0,1,,,,,,,,,,,,,
667387cf2922ed81b45c9e87,TCR,2024-06-24_14h34.18.603,LearnStrategy,2023.2.3,MacIntel,30.21148036,9,1,13,-0.083386927,0.000705244,1,0,0,0.7657,rock_grid_rect_2,6,11,-1,-1,0.766,-0.088356525,-0.388315599,1,0,0,1.2925,Pegmatite_rect,6,1.293,1,12,0,12,0,1,,,,,,,,,,,,,
667387cf2922ed81b45c9e87,TCR,2024-06-24_14h34.18.603,LearnStrategy,2023.2.3,MacIntel,30.21148036,9,1,14,-0.004615149,0.013564079,1,0,0,0.6489,rock_grid_rect_2,4,13,-1,-1,0.649,0.167201386,-0.249543236,1,0,0,4.9416,Diorite_rect,3,4.942,0,13,0,13,0,1,,,,,,,,,,,,,
667387cf2922ed81b45c9e87,TCR,2024-06-24_14h34.18.603,LearnStrategy,2023.2.3,MacIntel,30.21148036,9,1,15,0.112217902,0.010483659,1,0,0,1.389,rock_grid_rect_2,3,08,-1,-1,1.389,0.118988979,-0.249868452,1,0,0,1.3925,Diorite_rect,3,1.392,1,14,0,14,0,1,,,,,,,,,,,,,
667387cf2922ed81b45c9e87,TCR,2024-06-24_14h34.18.603,LearnStrategy,2023.2.3,MacIntel,30.21148036,9,1,16,0.048314722,-0.021190219,1,0,0,1.1994,rock_grid_rect_2,7,08,-1,-1,1.199,0.090446679,-0.388659086,1,0,0,1.3749,Peridotite_rect,7,1.375,1,15,0,15,0,1,,,,,,,,,,,,,
667387cf2922ed81b45c9e87,TCR,2024-06-24_14h34.18.603,LearnStrategy,2023.2.3,MacIntel,30.21148036,9,2,1,,,,,,,,6,09,,,,,,,,,,,6,1.974,1,,,,,,-0.121101058,-0.39591616,1,0,0,1.9736,Pegmatite_rect,0,0,0,0,1,
667387cf2922ed81b45c9e87,TCR,2024-06-24_14h34.18.603,LearnStrategy,2023.2.3,MacIntel,30.21148036,9,2,2,,,,,,,,4,14,,,,,,,,,,,4,177.976,1,,,,,,0.378420253,-0.25547752,1,0,0,177.9764,Gabbro_rect,1,0,1,0,1,
667387cf2922ed81b45c9e87,TCR,2024-06-24_14h34.18.603,LearnStrategy,2023.2.3,MacIntel,30.21148036,9,2,3,,,,,,,,1,07,,,,,,,,,,,3,0.934,0,,,,,,0.141896632,-0.240714891,1,0,0,0.9336,Diorite_rect,2,0,2,0,1,
667387cf2922ed81b45c9e87,TCR,2024-06-24_14h34.18.603,LearnStrategy,2023.2.3,MacIntel,30.21148036,9,2,4,,,,,,,,4,08,,,,,,,,,,,4,1.558,1,,,,,,0.448831414,-0.267232811,1,0,0,1.5584,Gabbro_rect,3,0,3,0,1,
667387cf2922ed81b45c9e87,TCR,2024-06-24_14h34.18.603,LearnStrategy,2023.2.3,MacIntel,30.21148036,9,2,5,,,,,,,,6,07,,,,,,,,,,,6,1.118,1,,,,,,-0.069972667,-0.394253537,1,0,0,1.118,Pegmatite_rect,4,0,4,0,1,
667387cf2922ed81b45c9e87,TCR,2024-06-24_14h34.18.603,LearnStrategy,2023.2.3,MacIntel,30.21148036,9,2,6,,,,,,,,7,07,,,,,,,,,,,7,1.142,1,,,,,,0.149266984,-0.38948857,1,0,0,1.1422,Peridotite_rect,5,0,5,0,1,
667387cf2922ed81b45c9e87,TCR,2024-06-24_14h34.18.603,LearnStrategy,2023.2.3,MacIntel,30.21148036,9,2,7,,,,,,,,3,07,,,,,,,,,,,3,1.591,1,,,,,,0.125317908,-0.246473778,1,0,0,1.5909,Diorite_rect,6,0,6,0,1,
667387cf2922ed81b45c9e87,TCR,2024-06-24_14h34.18.603,LearnStrategy,2023.2.3,MacIntel,30.21148036,9,2,8,,,,,,,,8,13,,,,,,,,,,,8,24.258,1,,,,,,0.396687178,-0.404656805,1,0,0,24.2578,Pumice_rect,7,0,7,0,1,
667387cf2922ed81b45c9e87,TCR,2024-06-24_14h34.18.603,LearnStrategy,2023.2.3,MacIntel,30.21148036,9,2,9,,,,,,,,3,15,,,,,,,,,,,3,11.651,1,,,,,,0.140372866,-0.23675383,1,0,0,11.6511,Diorite_rect,8,0,8,0,1,
667387cf2922ed81b45c9e87,TCR,2024-06-24_14h34.18.603,LearnStrategy,2023.2.3,MacIntel,30.21148036,9,2,10,,,,,,,,8,04,,,,,,,,,,,8,1.768,1,,,,,,0.386126783,-0.399376608,1,0,0,1.7678,Pumice_rect,9,0,9,0,1,
667387cf2922ed81b45c9e87,TCR,2024-06-24_14h34.18.603,LearnStrategy,2023.2.3,MacIntel,30.21148036,9,2,11,,,,,,,,5,14,,,,,,,,,,,5,1.242,1,,,,,,-0.360909729,-0.400472843,1,0,0,1.2415,Obsidian_rect,10,0,10,0,1,
667387cf2922ed81b45c9e87,TCR,2024-06-24_14h34.18.603,LearnStrategy,2023.2.3,MacIntel,30.21148036,9,2,12,,,,,,,,5,04,,,,,,,,,,,5,1.34,1,,,,,,-0.360909729,-0.400253596,1,0,0,1.3401,Obsidian_rect,11,0,11,0,1,
667387cf2922ed81b45c9e87,TCR,2024-06-24_14h34.18.603,LearnStrategy,2023.2.3,MacIntel,30.21148036,9,2,13,,,,,,,,2,11,,,,,,,,,,,1,56.658,0,,,,,,-0.358607636,-0.265343633,1,0,0,56.6582,Andesite_rect,12,0,12,0,1,
667387cf2922ed81b45c9e87,TCR,2024-06-24_14h34.18.603,LearnStrategy,2023.2.3,MacIntel,30.21148036,9,2,14,,,,,,,,1,09,,,,,,,,,,,4,8.401,0,,,,,,0.333803496,-0.254629765,1,0,0,8.4006,Gabbro_rect,13,0,13,0,1,
667387cf2922ed81b45c9e87,TCR,2024-06-24_14h34.18.603,LearnStrategy,2023.2.3,MacIntel,30.21148036,9,2,15,,,,,,,,7,14,,,,,,,,,,,7,1.109,1,,,,,,0.1643731,-0.421845767,1,0,0,1.1092,Peridotite_rect,14,0,14,0,1,
667387cf2922ed81b45c9e87,TCR,2024-06-24_14h34.18.603,LearnStrategy,2023.2.3,MacIntel,30.21148036,9,2,16,,,,,,,,2,06,,,,,,,,,,,2,0.976,1,,,,,,-0.125942762,-0.256347199,1,0,0,0.9756,Basalt_rect,15,0,15,0,1,
667387cf2922ed81b45c9e87,TCR,2024-06-24_14h34.18.603,LearnStrategy,2023.2.3,MacIntel,30.21148036,,,,,,,,,,,,,,,,,,,,,,,,,,,,,,,,,,,,,,,,,,,1
667387cf2922ed81b45c9e87,TCR,2024-06-24_14h34.18.603,LearnStrategy,2023.2.3,MacIntel,30.21148036,,,,,,,,,,,,,,,,,,,,,,,,,,,,,,,,,,,,,,,,,,,
667387cf2922ed81b45c9e87,TCR,2024-06-24_14h34.18.603,LearnStrategy,2023.2.3,MacIntel,30.21148036,,,,,,,,,,,5,08,1,1,,,,,,,,,,,,,,,,,,,,,,,,,,,,,
667387cf2922ed81b45c9e87,TCR,2024-06-24_14h34.18.603,LearnStrategy,2023.2.3,MacIntel,30.21148036,,,,,,,,,,,6,08,1,2,,,,,,,,,,,,,,,,,,,,,,,,,,,,,
667387cf2922ed81b45c9e87,TCR,2024-06-24_14h34.18.603,LearnStrategy,2023.2.3,MacIntel,30.21148036,,,,,,,,,,,7,12,1,3,,,,,,,,,,,,,,,,,,,,,,,,,,,,,
667387cf2922ed81b45c9e87,TCR,2024-06-24_14h34.18.603,LearnStrategy,2023.2.3,MacIntel,30.21148036,,,,,,,,,,,8,08,1,4,,,,,,,,,,,,,,,,,,,,,,,,,,,,,
667387cf2922ed81b45c9e87,TCR,2024-06-24_14h34.18.603,LearnStrategy,2023.2.3,MacIntel,30.21148036,,,,,,,,,,,2,01,1,5,,,,,,,,,,,,,,,,,,,,,,,,,,,,,
667387cf2922ed81b45c9e87,TCR,2024-06-24_14h34.18.603,LearnStrategy,2023.2.3,MacIntel,30.21148036,,,,,,,,,,,4,05,1,6,,,,,,,,,,,,,,,,,,,,,,,,,,,,,
667387cf2922ed81b45c9e87,TCR,2024-06-24_14h34.18.603,LearnStrategy,2023.2.3,MacIntel,30.21148036,,,,,,,,,,,4,13,1,7,,,,,,,,,,,,,,,,,,,,,,,,,,,,,
667387cf2922ed81b45c9e87,TCR,2024-06-24_14h34.18.603,LearnStrategy,2023.2.3,MacIntel,30.21148036,,,,,,,,,,,5,10,1,8,,,,,,,,,,,,,,,,,,,,,,,,,,,,,
667387cf2922ed81b45c9e87,TCR,2024-06-24_14h34.18.603,LearnStrategy,2023.2.3,MacIntel,30.21148036,,,,,,,,,,,5,07,2,1,,,,,,,,,,,,,,,,,,,,,,,,,,,,,
667387cf2922ed81b45c9e87,TCR,2024-06-24_14h34.18.603,LearnStrategy,2023.2.3,MacIntel,30.21148036,,,,,,,,,,,4,12,2,2,,,,,,,,,,,,,,,,,,,,,,,,,,,,,
667387cf2922ed81b45c9e87,TCR,2024-06-24_14h34.18.603,LearnStrategy,2023.2.3,MacIntel,30.21148036,,,,,,,,,,,1,16,2,3,,,,,,,,,,,,,,,,,,,,,,,,,,,,,
667387cf2922ed81b45c9e87,TCR,2024-06-24_14h34.18.603,LearnStrategy,2023.2.3,MacIntel,30.21148036,,,,,,,,,,,2,10,2,4,,,,,,,,,,,,,,,,,,,,,,,,,,,,,
667387cf2922ed81b45c9e87,TCR,2024-06-24_14h34.18.603,LearnStrategy,2023.2.3,MacIntel,30.21148036,,,,,,,,,,,7,06,2,5,,,,,,,,,,,,,,,,,,,,,,,,,,,,,
667387cf2922ed81b45c9e87,TCR,2024-06-24_14h34.18.603,LearnStrategy,2023.2.3,MacIntel,30.21148036,,,,,,,,,,,6,10,2,6,,,,,,,,,,,,,,,,,,,,,,,,,,,,,
667387cf2922ed81b45c9e87,TCR,2024-06-24_14h34.18.603,LearnStrategy,2023.2.3,MacIntel,30.21148036,,,,,,,,,,,8,15,2,7,,,,,,,,,,,,,,,,,,,,,,,,,,,,,
667387cf2922ed81b45c9e87,TCR,2024-06-24_14h34.18.603,LearnStrategy,2023.2.3,MacIntel,30.21148036,,,,,,,,,,,5,09,2,8,,,,,,,,,,,,,,,,,,,,,,,,,,,,,
667387cf2922ed81b45c9e87,TCR,2024-06-24_14h34.18.603,LearnStrategy,2023.2.3,MacIntel,30.21148036,,,,,,,,,,,7,16,3,1,,,,,,,,,,,,,,,,,,,,,,,,,,,,,
667387cf2922ed81b45c9e87,TCR,2024-06-24_14h34.18.603,LearnStrategy,2023.2.3,MacIntel,30.21148036,,,,,,,,,,,1,04,3,2,,,,,,,,,,,,,,,,,,,,,,,,,,,,,
667387cf2922ed81b45c9e87,TCR,2024-06-24_14h34.18.603,LearnStrategy,2023.2.3,MacIntel,30.21148036,,,,,,,,,,,3,13,3,3,,,,,,,,,,,,,,,,,,,,,,,,,,,,,
667387cf2922ed81b45c9e87,TCR,2024-06-24_14h34.18.603,LearnStrategy,2023.2.3,MacIntel,30.21148036,,,,,,,,,,,7,02,3,4,,,,,,,,,,,,,,,,,,,,,,,,,,,,,
667387cf2922ed81b45c9e87,TCR,2024-06-24_14h34.18.603,LearnStrategy,2023.2.3,MacIntel,30.21148036,,,,,,,,,,,8,10,3,5,,,,,,,,,,,,,,,,,,,,,,,,,,,,,
667387cf2922ed81b45c9e87,TCR,2024-06-24_14h34.18.603,LearnStrategy,2023.2.3,MacIntel,30.21148036,,,,,,,,,,,7,08,3,6,,,,,,,,,,,,,,,,,,,,,,,,,,,,,
667387cf2922ed81b45c9e87,TCR,2024-06-24_14h34.18.603,LearnStrategy,2023.2.3,MacIntel,30.21148036,,,,,,,,,,,2,04,3,7,,,,,,,,,,,,,,,,,,,,,,,,,,,,,
667387cf2922ed81b45c9e87,TCR,2024-06-24_14h34.18.603,LearnStrategy,2023.2.3,MacIntel,30.21148036,,,,,,,,,,,1,14,3,8,,,,,,,,,,,,,,,,,,,,,,,,,,,,,
667387cf2922ed81b45c9e87,TCR,2024-06-24_14h34.18.603,LearnStrategy,2023.2.3,MacIntel,30.21148036,,,,,,,,,,,6,11,4,1,,,,,,,,,,,,,,,,,,,,,,,,,,,,,
667387cf2922ed81b45c9e87,TCR,2024-06-24_14h34.18.603,LearnStrategy,2023.2.3,MacIntel,30.21148036,,,,,,,,,,,3,16,4,2,,,,,,,,,,,,,,,,,,,,,,,,,,,,,
667387cf2922ed81b45c9e87,TCR,2024-06-24_14h34.18.603,LearnStrategy,2023.2.3,MacIntel,30.21148036,,,,,,,,,,,1,01,4,3,,,,,,,,,,,,,,,,,,,,,,,,,,,,,
667387cf2922ed81b45c9e87,TCR,2024-06-24_14h34.18.603,LearnStrategy,2023.2.3,MacIntel,30.21148036,,,,,,,,,,,3,14,4,4,,,,,,,,,,,,,,,,,,,,,,,,,,,,,
667387cf2922ed81b45c9e87,TCR,2024-06-24_14h34.18.603,LearnStrategy,2023.2.3,MacIntel,30.21148036,,,,,,,,,,,3,06,4,5,,,,,,,,,,,,,,,,,,,,,,,,,,,,,
667387cf2922ed81b45c9e87,TCR,2024-06-24_14h34.18.603,LearnStrategy,2023.2.3,MacIntel,30.21148036,,,,,,,,,,,5,06,4,6,,,,,,,,,,,,,,,,,,,,,,,,,,,,,
667387cf2922ed81b45c9e87,TCR,2024-06-24_14h34.18.603,LearnStrategy,2023.2.3,MacIntel,30.21148036,,,,,,,,,,,2,08,4,7,,,,,,,,,,,,,,,,,,,,,,,,,,,,,
667387cf2922ed81b45c9e87,TCR,2024-06-24_14h34.18.603,LearnStrategy,2023.2.3,MacIntel,30.21148036,,,,,,,,,,,4,09,4,8,,,,,,,,,,,,,,,,,,,,,,,,,,,,,
667387cf2922ed81b45c9e87,TCR,2024-06-24_14h34.18.603,LearnStrategy,2023.2.3,MacIntel,30.21148036,,,,,,,,,,,8,14,5,1,,,,,,,,,,,,,,,,,,,,,,,,,,,,,
667387cf2922ed81b45c9e87,TCR,2024-06-24_14h34.18.603,LearnStrategy,2023.2.3,MacIntel,30.21148036,,,,,,,,,,,3,02,5,2,,,,,,,,,,,,,,,,,,,,,,,,,,,,,
667387cf2922ed81b45c9e87,TCR,2024-06-24_14h34.18.603,LearnStrategy,2023.2.3,MacIntel,30.21148036,,,,,,,,,,,6,16,5,3,,,,,,,,,,,,,,,,,,,,,,,,,,,,,
667387cf2922ed81b45c9e87,TCR,2024-06-24_14h34.18.603,LearnStrategy,2023.2.3,MacIntel,30.21148036,,,,,,,,,,,7,10,5,4,,,,,,,,,,,,,,,,,,,,,,,,,,,,,
667387cf2922ed81b45c9e87,TCR,2024-06-24_14h34.18.603,LearnStrategy,2023.2.3,MacIntel,30.21148036,,,,,,,,,,,3,08,5,5,,,,,,,,,,,,,,,,,,,,,,,,,,,,,
667387cf2922ed81b45c9e87,TCR,2024-06-24_14h34.18.603,LearnStrategy,2023.2.3,MacIntel,30.21148036,,,,,,,,,,,4,15,5,6,,,,,,,,,,,,,,,,,,,,,,,,,,,,,
667387cf2922ed81b45c9e87,TCR,2024-06-24_14h34.18.603,LearnStrategy,2023.2.3,MacIntel,30.21148036,,,,,,,,,,,1,02,5,7,,,,,,,,,,,,,,,,,,,,,,,,,,,,,
667387cf2922ed81b45c9e87,TCR,2024-06-24_14h34.18.603,LearnStrategy,2023.2.3,MacIntel,30.21148036,,,,,,,,,,,2,16,5,8,,,,,,,,,,,,,,,,,,,,,,,,,,,,,
667387cf2922ed81b45c9e87,TCR,2024-06-24_14h34.18.603,LearnStrategy,2023.2.3,MacIntel,30.21148036,,,,,,,,,,,1,11,6,1,,,,,,,,,,,,,,,,,,,,,,,,,,,,,
667387cf2922ed81b45c9e87,TCR,2024-06-24_14h34.18.603,LearnStrategy,2023.2.3,MacIntel,30.21148036,,,,,,,,,,,6,12,6,2,,,,,,,,,,,,,,,,,,,,,,,,,,,,,
667387cf2922ed81b45c9e87,TCR,2024-06-24_14h34.18.603,LearnStrategy,2023.2.3,MacIntel,30.21148036,,,,,,,,,,,2,05,6,3,,,,,,,,,,,,,,,,,,,,,,,,,,,,,
667387cf2922ed81b45c9e87,TCR,2024-06-24_14h34.18.603,LearnStrategy,2023.2.3,MacIntel,30.21148036,,,,,,,,,,,6,13,6,4,,,,,,,,,,,,,,,,,,,,,,,,,,,,,
667387cf2922ed81b45c9e87,TCR,2024-06-24_14h34.18.603,LearnStrategy,2023.2.3,MacIntel,30.21148036,,,,,,,,,,,8,02,6,5,,,,,,,,,,,,,,,,,,,,,,,,,,,,,
667387cf2922ed81b45c9e87,TCR,2024-06-24_14h34.18.603,LearnStrategy,2023.2.3,MacIntel,30.21148036,,,,,,,,,,,4,10,6,6,,,,,,,,,,,,,,,,,,,,,,,,,,,,,
667387cf2922ed81b45c9e87,TCR,2024-06-24_14h34.18.603,LearnStrategy,2023.2.3,MacIntel,30.21148036,,,,,,,,,,,8,09,6,7,,,,,,,,,,,,,,,,,,,,,,,,,,,,,
667387cf2922ed81b45c9e87,TCR,2024-06-24_14h34.18.603,LearnStrategy,2023.2.3,MacIntel,30.21148036,,,,,,,,,,,5,16,6,8,,,,,,,,,,,,,,,,,,,,,,,,,,,,,