participant,condition,date,expName,psychopyVersion,OS,frameRate,block,phase,trial,learn_mouse.x,learn_mouse.y,learn_mouse.leftButton,learn_mouse.midButton,learn_mouse.rightButton,learn_mouse.time,learn_mouse.clicked_name,cat,token,row,col,t_select,cat_rec,token_rec,cat_mouse_l.x,cat_mouse_l.y,cat_mouse_l.leftButton,cat_mouse_l.midButton,cat_mouse_l.rightButton,cat_mouse_l.time,cat_mouse_l.clicked_name,resp,t_resp,corr,train_trials.thisRepN,train_trials.thisTrialN,train_trials.thisN,train_trials.thisIndex,train_trials.ran,cat_mouse_t.x,cat_mouse_t.y,cat_mouse_t.leftButton,cat_mouse_t.midButton,cat_mouse_t.rightButton,cat_mouse_t.time,cat_mouse_t.clicked_name,test_trials.thisRepN,test_trials.thisTrialN,test_trials.thisN,test_trials.thisIndex,test_trials.ran,Bonus
6673535da412b0139c83fa31,SCR,2024-06-24_13h46.41.970,LearnStrategy,2023.2.3,Win32,59.88023952,,,,,,,,,,,,,,,,,,,,,,,,,,,,,,,,,,,,,,,,,,,,,
6673535da412b0139c83fa31,SCR,2024-06-24_13h46.41.970,LearnStrategy,2023.2.3,Win32,59.88023952,1,1,1,-0.574074067,-0.400925954,1,0,0,3.7385,Diorite_08,3,08,1,1,3.738,4,05,-0.433333333,-0.388888889,1,0,0,6.8963,Obsidian_rect,5,6.896,0,0,0,0,0,1,,,,,,,,,,,,,
6673535da412b0139c83fa31,SCR,2024-06-24_13h46.41.970,LearnStrategy,2023.2.3,Win32,59.88023952,1,1,2,0.565740797,0.250925912,1,0,0,5.1723,Pegmatite_13,6,13,5,8,5.172,1,16,0.119444444,-0.245370399,1,0,0,4.2422,Diorite_rect,3,4.242,0,1,0,1,0,1,,,,,,,,,,,,,
6673535da412b0139c83fa31,SCR,2024-06-24_13h46.41.970,LearnStrategy,2023.2.3,Win32,59.88023952,1,1,3,-0.212962935,0.125925912,1,0,0,3.1961,Obsidian_04,5,04,4,3,3.196,8,02,-0.409259245,-0.412037065,1,0,0,4.0092,Obsidian_rect,5,4.009,1,2,0,2,0,1,,,,,,,,,,,,,
6673535da412b0139c83fa31,SCR,2024-06-24_13h46.41.970,LearnStrategy,2023.2.3,Win32,59.88023952,1,1,4,0.585185242,-0.076851866,1,0,0,3.1292,Pegmatite_11,6,11,3,8,3.129,7,04,0.161111111,-0.248148176,1,0,0,5.1027,Diorite_rect,3,5.103,0,3,0,3,0,1,,,,,,,,,,,,,
6673535da412b0139c83fa31,SCR,2024-06-24_13h46.41.970,LearnStrategy,2023.2.3,Win32,59.88023952,1,1,5,-0.504629601,0.108333333,1,0,0,3.2298,Pumice_13,8,13,4,1,3.23,2,09,0.448148176,-0.410185242,1,0,0,3.6026,Pumice_rect,8,3.603,1,4,0,4,0,1,,,,,,,,,,,,,
6673535da412b0139c83fa31,SCR,2024-06-24_13h46.41.970,LearnStrategy,2023.2.3,Win32,59.88023952,1,1,6,-0.082407379,0.448148145,1,0,0,2.2956,Pumice_14,8,14,6,4,2.296,5,09,0.360185242,-0.417592621,1,0,0,3.6025,Pumice_rect,8,3.602,1,5,0,5,0,1,,,,,,,,,,,,,
6673535da412b0139c83fa31,SCR,2024-06-24_13h46.41.970,LearnStrategy,2023.2.3,Win32,59.88023952,1,1,7,0.427777778,-0.411111111,1,0,0,3.0792,Obsidian_02,5,02,1,7,3.079,1,07,-0.365740712,-0.389814843,1,0,0,2.2333,Obsidian_rect,5,2.233,1,6,0,6,0,1,,,,,,,,,,,,,
6673535da412b0139c83fa31,SCR,2024-06-24_13h46.41.970,LearnStrategy,2023.2.3,Win32,59.88023952,1,1,8,-0.087962935,0.084259245,1,0,0,4.4973,Andesite_01,1,01,4,4,4.497,2,16,-0.369444444,-0.265740797,1,0,0,2.7948,Andesite_rect,1,2.795,1,7,0,7,0,1,,,,,,,,,,,,,
6673535da412b0139c83fa31,SCR,2024-06-24_13h46.41.970,LearnStrategy,2023.2.3,Win32,59.88023952,1,1,9,0.208333333,0.270370356,1,0,0,3.3949,Diorite_07,3,07,5,6,3.395,5,16,-0.090740712,-0.395370399,1,0,0,3.8657,Pegmatite_rect,6,3.866,0,8,0,8,0,1,,,,,,,,,,,,,
6673535da412b0139c83fa31,SCR,2024-06-24_13h46.41.970,LearnStrategy,2023.2.3,Win32,59.88023952,1,1,10,-0.085185157,0.2824074,1,0,0,1.8778,Andesite_11,1,11,5,4,1.878,3,07,0.116666667,-0.263888889,1,0,0,4.8876,Diorite_rect,3,4.888,0,9,0,9,0,1,,,,,,,,,,,,,
6673535da412b0139c83fa31,SCR,2024-06-24_13h46.41.970,LearnStrategy,2023.2.3,Win32,59.88023952,1,1,11,0.208333333,0.390740734,1,0,0,2.2992,Obsidian_16,5,16,6,6,2.299,6,11,-0.405555556,-0.390740797,1,0,0,2.3822,Obsidian_rect,5,2.382,1,10,0,10,0,1,,,,,,,,,,,,,
6673535da412b0139c83fa31,SCR,2024-06-24_13h46.41.970,LearnStrategy,2023.2.3,Win32,59.88023952,1,1,12,-0.067592536,-0.236111111,1,0,0,3.2374,Peridotite_06,7,06,2,4,3.237,3,09,-0.110185157,-0.410185242,1,0,0,2.728,Pegmatite_rect,6,2.728,0,11,0,11,0,1,,,,,,,,,,,,,
6673535da412b0139c83fa31,SCR,2024-06-24_13h46.41.970,LearnStrategy,2023.2.3,Win32,59.88023952,1,1,13,0.245370399,0.237037023,1,0,0,2.924,Diorite_07,3,07,5,6,2.924,7,02,0.087037065,-0.415740797,1,0,0,1.838,Peridotite_rect,7,1.838,0,12,0,12,0,1,,,,,,,,,,,,,
6673535da412b0139c83fa31,SCR,2024-06-24_13h46.41.970,LearnStrategy,2023.2.3,Win32,59.88023952,1,1,14,-0.374074046,0.273148134,1,0,0,3.0302,Gabbro_05,4,05,5,2,3.03,4,12,0.110185242,-0.270370399,1,0,0,4.0278,Diorite_rect,3,4.028,0,13,0,13,0,1,,,,,,,,,,,,,
6673535da412b0139c83fa31,SCR,2024-06-24_13h46.41.970,LearnStrategy,2023.2.3,Win32,59.88023952,1,1,15,0.250925954,-0.271296353,1,0,0,3.6431,Pegmatite_15,6,15,2,6,3.643,8,13,0.121296353,-0.236111111,1,0,0,3.352,Diorite_rect,3,3.352,0,14,0,14,0,1,,,,,,,,,,,,,
6673535da412b0139c83fa31,SCR,2024-06-24_13h46.41.970,LearnStrategy,2023.2.3,Win32,59.88023952,1,1,16,-0.238888889,-0.447222222,1,0,0,4.1128,Obsidian_07,5,07,1,3,4.113,6,15,-0.362037023,-0.4,1,0,0,2.9855,Obsidian_rect,5,2.986,1,15,0,15,0,1,,,,,,,,,,,,,
6673535da412b0139c83fa31,SCR,2024-06-24_13h46.41.970,LearnStrategy,2023.2.3,Win32,59.88023952,1,2,1,,,,,,,,3,16,,,,,,,,,,,,,3,6.294,1,,,,,,0.158333333,-0.250925954,1,0,0,6.2937,Diorite_rect,0,0,0,0,1,
6673535da412b0139c83fa31,SCR,2024-06-24_13h46.41.970,LearnStrategy,2023.2.3,Win32,59.88023952,1,2,2,,,,,,,,4,09,,,,,,,,,,,,,5,6.357,0,,,,,,-0.355555556,-0.393518575,1,0,0,6.3569,Obsidian_rect,1,0,1,0,1,
6673535da412b0139c83fa31,SCR,2024-06-24_13h46.41.970,LearnStrategy,2023.2.3,Win32,59.88023952,1,2,3,,,,,,,,7,05,,,,,,,,,,,,,4,12.612,0,,,,,,0.387963019,-0.232407464,1,0,0,12.6124,Gabbro_rect,2,0,2,0,1,
6673535da412b0139c83fa31,SCR,2024-06-24_13h46.41.970,LearnStrategy,2023.2.3,Win32,59.88023952,1,2,4,,,,,,,,8,08,,,,,,,,,,,,,8,2.707,1,,,,,,0.436111111,-0.411111111,1,0,0,2.7075,Pumice_rect,3,0,3,0,1,
6673535da412b0139c83fa31,SCR,2024-06-24_13h46.41.970,LearnStrategy,2023.2.3,Win32,59.88023952,1,2,5,,,,,,,,2,05,,,,,,,,,,,,,4,9.541,0,,,,,,0.358333333,-0.240740797,1,0,0,9.5413,Gabbro_rect,4,0,4,0,1,
6673535da412b0139c83fa31,SCR,2024-06-24_13h46.41.970,LearnStrategy,2023.2.3,Win32,59.88023952,1,2,6,,,,,,,,8,10,,,,,,,,,,,,,8,1.776,1,,,,,,0.370370399,-0.390740797,1,0,0,1.776,Pumice_rect,5,0,5,0,1,
6673535da412b0139c83fa31,SCR,2024-06-24_13h46.41.970,LearnStrategy,2023.2.3,Win32,59.88023952,1,2,7,,,,,,,,3,06,,,,,,,,,,,,,3,6.577,1,,,,,,0.123148176,-0.246296353,1,0,0,6.5768,Diorite_rect,6,0,6,0,1,
6673535da412b0139c83fa31,SCR,2024-06-24_13h46.41.970,LearnStrategy,2023.2.3,Win32,59.88023952,1,2,8,,,,,,,,4,01,,,,,,,,,,,,,3,5.41,0,,,,,,0.123148176,-0.246296353,1,0,0,5.4099,Diorite_rect,7,0,7,0,1,
6673535da412b0139c83fa31,SCR,2024-06-24_13h46.41.970,LearnStrategy,2023.2.3,Win32,59.88023952,1,2,9,,,,,,,,1,04,,,,,,,,,,,,,6,5.994,0,,,,,,-0.152777778,-0.385185242,1,0,0,5.9936,Pegmatite_rect,8,0,8,0,1,
6673535da412b0139c83fa31,SCR,2024-06-24_13h46.41.970,LearnStrategy,2023.2.3,Win32,59.88023952,1,2,10,,,,,,,,5,05,,,,,,,,,,,,,5,2.527,1,,,,,,-0.466666667,-0.395370399,1,0,0,2.5267,Obsidian_rect,9,0,9,0,1,
6673535da412b0139c83fa31,SCR,2024-06-24_13h46.41.970,LearnStrategy,2023.2.3,Win32,59.88023952,1,2,11,,,,,,,,1,09,,,,,,,,,,,,,1,10.11,1,,,,,,-0.362962935,-0.240740797,1,0,0,10.1104,Andesite_rect,10,0,10,0,1,
6673535da412b0139c83fa31,SCR,2024-06-24_13h46.41.970,LearnStrategy,2023.2.3,Win32,59.88023952,1,2,12,,,,,,,,7,15,,,,,,,,,,,,,6,6.06,0,,,,,,-0.122222222,-0.401851908,1,0,0,6.0601,Pegmatite_rect,11,0,11,0,1,
6673535da412b0139c83fa31,SCR,2024-06-24_13h46.41.970,LearnStrategy,2023.2.3,Win32,59.88023952,1,2,13,,,,,,,,6,10,,,,,,,,,,,,,6,6.28,1,,,,,,-0.122222222,-0.401851908,1,0,0,6.2799,Pegmatite_rect,12,0,12,0,1,
6673535da412b0139c83fa31,SCR,2024-06-24_13h46.41.970,LearnStrategy,2023.2.3,Win32,59.88023952,1,2,14,,,,,,,,6,12,,,,,,,,,,,,,3,9.03,0,,,,,,0.148148176,-0.255555556,1,0,0,9.0301,Diorite_rect,13,0,13,0,1,
6673535da412b0139c83fa31,SCR,2024-06-24_13h46.41.970,LearnStrategy,2023.2.3,Win32,59.88023952,1,2,15,,,,,,,,2,14,,,,,,,,,,,,,8,3.394,0,,,,,,0.355555556,-0.412037065,1,0,0,3.3942,Pumice_rect,14,0,14,0,1,
6673535da412b0139c83fa31,SCR,2024-06-24_13h46.41.970,LearnStrategy,2023.2.3,Win32,59.88023952,1,2,16,,,,,,,,5,11,,,,,,,,,,,,,5,1.825,1,,,,,,-0.376851824,-0.397222222,1,0,0,1.825,Obsidian_rect,15,0,15,0,1,
6673535da412b0139c83fa31,SCR,2024-06-24_13h46.41.970,LearnStrategy,2023.2.3,Win32,59.88023952,2,1,1,-0.087962935,0.262037023,1,0,0,5.9979,Andesite_11,1,11,5,4,5.998,7,04,-0.361111111,-0.235185242,1,0,0,5.0072,Andesite_rect,1,5.007,1,0,0,0,0,1,,,,,,,,,,,,,
6673535da412b0139c83fa31,SCR,2024-06-24_13h46.41.970,LearnStrategy,2023.2.3,Win32,59.88023952,2,1,2,0.390740797,0.248148134,1,0,0,4.4797,Diorite_14,3,14,5,7,4.48,1,16,0.136111111,-0.241666667,1,0,0,5.0605,Diorite_rect,3,5.06,1,1,0,1,0,1,,,,,,,,,,,,,
6673535da412b0139c83fa31,SCR,2024-06-24_13h46.41.970,LearnStrategy,2023.2.3,Win32,59.88023952,2,1,3,-0.373148134,-0.264814843,1,0,0,2.5786,Basalt_09,2,09,2,2,2.579,4,16,-0.411111111,-0.242592621,1,0,0,6.2156,Andesite_rect,1,6.216,0,2,0,2,0,1,,,,,,,,,,,,,
6673535da412b0139c83fa31,SCR,2024-06-24_13h46.41.970,LearnStrategy,2023.2.3,Win32,59.88023952,2,1,4,0.412037065,-0.102777778,1,0,0,3.8685,Basalt_01,2,01,3,7,3.868,4,11,-0.125925869,-0.236111111,1,0,0,9.3876,Basalt_rect,2,9.388,1,3,0,3,0,1,,,,,,,,,,,,,
6673535da412b0139c83fa31,SCR,2024-06-24_13h46.41.970,LearnStrategy,2023.2.3,Win32,59.88023952,2,1,5,0.391666667,-0.25,1,0,0,10.3293,Pegmatite_03,6,03,2,7,10.329,4,16,0.399074131,-0.244444444,1,0,0,3.2938,Gabbro_rect,4,3.294,0,4,0,4,0,1,,,,,,,,,,,,,
6673535da412b0139c83fa31,SCR,2024-06-24_13h46.41.970,LearnStrategy,2023.2.3,Win32,59.88023952,2,1,6,0.559259372,-0.408333333,1,0,0,4.7277,Peridotite_04,7,04,1,8,4.728,7,02,0.111111111,-0.391666667,1,0,0,5.057,Peridotite_rect,7,5.057,1,5,0,5,0,1,,,,,,,,,,,,,
6673535da412b0139c83fa31,SCR,2024-06-24_13h46.41.970,LearnStrategy,2023.2.3,Win32,59.88023952,2,1,7,0.412963019,0.085185157,1,0,0,8.3106,Diorite_09,3,09,4,7,8.311,3,07,-0.061111111,-0.382407464,1,0,0,5.0123,Pegmatite_rect,6,5.012,0,6,0,6,0,1,,,,,,,,,,,,,
6673535da412b0139c83fa31,SCR,2024-06-24_13h46.41.970,LearnStrategy,2023.2.3,Win32,59.88023952,2,1,8,-0.519444444,-0.234259288,1,0,0,5.5954,Peridotite_02,7,02,2,1,5.595,7,07,0.178703732,-0.243518575,1,0,0,5.4391,Diorite_rect,3,5.439,0,7,0,7,0,1,,,,,,,,,,,,,
6673535da412b0139c83fa31,SCR,2024-06-24_13h46.41.970,LearnStrategy,2023.2.3,Win32,59.88023952,2,1,9,0.097222222,-0.09629631,1,0,0,2.8683,Gabbro_15,4,15,3,5,2.868,2,01,-0.137962935,-0.389814843,1,0,0,11.7371,Pegmatite_rect,6,11.737,0,8,0,8,0,1,,,,,,,,,,,,,
6673535da412b0139c83fa31,SCR,2024-06-24_13h46.41.970,LearnStrategy,2023.2.3,Win32,59.88023952,2,1,10,0.517592621,-0.241666667,0,0,1,4.0293,Pegmatite_09,6,09,2,8,4.029,6,15,0.369444444,-0.269444444,1,0,0,2.6257,Gabbro_rect,4,2.626,0,9,0,9,0,1,,,,,,,,,,,,,
6673535da412b0139c83fa31,SCR,2024-06-24_13h46.41.970,LearnStrategy,2023.2.3,Win32,59.88023952,2,1,11,0.560185242,0.264814801,1,0,0,6.4211,Pegmatite_13,6,13,5,8,6.421,2,12,-0.067592536,-0.399074131,1,0,0,2.3945,Pegmatite_rect,6,2.394,1,10,0,10,0,1,,,,,,,,,,,,,
6673535da412b0139c83fa31,SCR,2024-06-24_13h46.41.970,LearnStrategy,2023.2.3,Win32,59.88023952,2,1,12,-0.561111111,-0.241666667,1,0,0,8.6135,Peridotite_02,7,02,2,1,8.614,4,12,0.389814843,-0.258333333,1,0,0,3.0695,Gabbro_rect,4,3.07,0,11,0,11,0,1,,,,,,,,,,,,,
6673535da412b0139c83fa31,SCR,2024-06-24_13h46.41.970,LearnStrategy,2023.2.3,Win32,59.88023952,2,1,13,0.214814843,0.09351849,1,0,0,2.3287,Andesite_05,1,05,4,6,2.329,1,11,0.30648151,-0.249074131,1,0,0,3.1511,Gabbro_rect,4,3.151,0,12,0,12,0,1,,,,,,,,,,,,,
6673535da412b0139c83fa31,SCR,2024-06-24_13h46.41.970,LearnStrategy,2023.2.3,Win32,59.88023952,2,1,14,-0.086111111,-0.401851908,1,0,0,3.1963,Peridotite_10,7,10,1,4,3.196,5,16,-0.379629601,-0.241666667,1,0,0,2.0365,Andesite_rect,1,2.036,0,13,0,13,0,1,,,,,,,,,,,,,
6673535da412b0139c83fa31,SCR,2024-06-24_13h46.41.970,LearnStrategy,2023.2.3,Win32,59.88023952,2,1,15,-0.265740712,0.432407406,1,0,0,6.4806,Pumice_02,8,02,6,3,6.481,6,09,0.395370399,-0.397222222,1,0,0,2.1578,Pumice_rect,8,2.158,1,14,0,14,0,1,,,,,,,,,,,,,
6673535da412b0139c83fa31,SCR,2024-06-24_13h46.41.970,LearnStrategy,2023.2.3,Win32,59.88023952,2,1,16,-0.26851849,-0.229629686,1,0,0,3.6136,Gabbro_12,4,12,2,3,3.614,2,12,-0.375925912,-0.261111111,1,0,0,14.6839,Andesite_rect,1,14.684,0,15,0,15,0,1,,,,,,,,,,,,,
6673535da412b0139c83fa31,SCR,2024-06-24_13h46.41.970,LearnStrategy,2023.2.3,Win32,59.88023952,2,2,1,,,,,,,,8,06,,,,,,,,,,,,,8,4.755,1,,,,,,0.380555556,-0.398148176,1,0,0,4.7547,Pumice_rect,0,0,0,0,1,
6673535da412b0139c83fa31,SCR,2024-06-24_13h46.41.970,LearnStrategy,2023.2.3,Win32,59.88023952,2,2,2,,,,,,,,7,16,,,,,,,,,,,,,1,10.879,0,,,,,,-0.326851824,-0.238888889,1,0,0,10.879,Andesite_rect,1,0,1,0,1,
6673535da412b0139c83fa31,SCR,2024-06-24_13h46.41.970,LearnStrategy,2023.2.3,Win32,59.88023952,2,2,3,,,,,,,,2,02,,,,,,,,,,,,,2,5.878,1,,,,,,-0.055555556,-0.242592621,1,0,0,5.8781,Basalt_rect,2,0,2,0,1,
6673535da412b0139c83fa31,SCR,2024-06-24_13h46.41.970,LearnStrategy,2023.2.3,Win32,59.88023952,2,2,4,,,,,,,,6,16,,,,,,,,,,,,,3,17.923,0,,,,,,0.124074131,-0.230555556,1,0,0,17.9229,Diorite_rect,3,0,3,0,1,
6673535da412b0139c83fa31,SCR,2024-06-24_13h46.41.970,LearnStrategy,2023.2.3,Win32,59.88023952,2,2,5,,,,,,,,5,06,,,,,,,,,,,,,5,1.886,1,,,,,,-0.376851824,-0.38148151,1,0,0,1.886,Obsidian_rect,4,0,4,0,1,
6673535da412b0139c83fa31,SCR,2024-06-24_13h46.41.970,LearnStrategy,2023.2.3,Win32,59.88023952,2,2,6,,,,,,,,1,06,,,,,,,,,,,,,4,11.507,0,,,,,,0.419444444,-0.244444444,1,0,0,11.5073,Gabbro_rect,5,0,5,0,1,
6673535da412b0139c83fa31,SCR,2024-06-24_13h46.41.970,LearnStrategy,2023.2.3,Win32,59.88023952,2,2,7,,,,,,,,3,15,,,,,,,,,,,,,7,9.424,0,,,,,,0.112037065,-0.388888889,1,0,0,9.4239,Peridotite_rect,6,0,6,0,1,
6673535da412b0139c83fa31,SCR,2024-06-24_13h46.41.970,LearnStrategy,2023.2.3,Win32,59.88023952,2,2,8,,,,,,,,7,13,,,,,,,,,,,,,4,13.527,0,,,,,,0.362963019,-0.259259288,1,0,0,13.5266,Gabbro_rect,7,0,7,0,1,
6673535da412b0139c83fa31,SCR,2024-06-24_13h46.41.970,LearnStrategy,2023.2.3,Win32,59.88023952,2,2,9,,,,,,,,8,15,,,,,,,,,,,,,8,1.764,1,,,,,,0.378703732,-0.395370399,1,0,0,1.7635,Pumice_rect,8,0,8,0,1,
6673535da412b0139c83fa31,SCR,2024-06-24_13h46.41.970,LearnStrategy,2023.2.3,Win32,59.88023952,2,2,10,,,,,,,,5,10,,,,,,,,,,,,,5,1.891,1,,,,,,-0.382407379,-0.387963019,1,0,0,1.8908,Obsidian_rect,9,0,9,0,1,
6673535da412b0139c83fa31,SCR,2024-06-24_13h46.41.970,LearnStrategy,2023.2.3,Win32,59.88023952,2,2,11,,,,,,,,4,14,,,,,,,,,,,,,4,18.202,1,,,,,,0.468518575,-0.237963019,1,0,0,18.2024,Gabbro_rect,10,0,10,0,1,
6673535da412b0139c83fa31,SCR,2024-06-24_13h46.41.970,LearnStrategy,2023.2.3,Win32,59.88023952,2,2,12,,,,,,,,3,13,,,,,,,,,,,,,3,5.706,1,,,,,,0.099074131,-0.25648151,1,0,0,5.706,Diorite_rect,11,0,11,0,1,
6673535da412b0139c83fa31,SCR,2024-06-24_13h46.41.970,LearnStrategy,2023.2.3,Win32,59.88023952,2,2,13,,,,,,,,6,06,,,,,,,,,,,,,6,11.418,1,,,,,,-0.120370314,-0.394444444,1,0,0,11.4181,Pegmatite_rect,12,0,12,0,1,
6673535da412b0139c83fa31,SCR,2024-06-24_13h46.41.970,LearnStrategy,2023.2.3,Win32,59.88023952,2,2,14,,,,,,,,4,03,,,,,,,,,,,,,4,10.194,1,,,,,,0.439814843,-0.235185242,1,0,0,10.1939,Gabbro_rect,13,0,13,0,1,
6673535da412b0139c83fa31,SCR,2024-06-24_13h46.41.970,LearnStrategy,2023.2.3,Win32,59.88023952,2,2,15,,,,,,,,1,14,,,,,,,,,,,,,3,8.145,0,,,,,,0.095370399,-0.270370399,1,0,0,8.1447,Diorite_rect,14,0,14,0,1,
6673535da412b0139c83fa31,SCR,2024-06-24_13h46.41.970,LearnStrategy,2023.2.3,Win32,59.88023952,2,2,16,,,,,,,,2,06,,,,,,,,,,,,,2,5.493,1,,,,,,-0.1,-0.251851908,1,0,0,5.4925,Basalt_rect,15,0,15,0,1,
6673535da412b0139c83fa31,SCR,2024-06-24_13h46.41.970,LearnStrategy,2023.2.3,Win32,59.88023952,3,1,1,-0.406481467,0.083333333,1,0,0,2.7913,Andesite_07,1,07,4,2,2.791,8,09,0.174074131,-0.267592621,1,0,0,4.6412,Diorite_rect,3,4.641,0,0,0,0,0,1,,,,,,,,,,,,,
6673535da412b0139c83fa31,SCR,2024-06-24_13h46.41.970,LearnStrategy,2023.2.3,Win32,59.88023952,3,1,2,0.400925954,0.255555556,1,0,0,3.1627,Diorite_14,3,14,5,7,3.163,3,07,0.089814843,-0.23148151,1,0,0,8.6029,Diorite_rect,3,8.603,1,1,0,1,0,1,,,,,,,,,,,,,
6673535da412b0139c83fa31,SCR,2024-06-24_13h46.41.970,LearnStrategy,2023.2.3,Win32,59.88023952,3,1,3,-0.086111111,-0.258333333,1,0,0,2.029,Peridotite_06,7,06,2,4,2.029,2,12,-0.065740712,-0.412037065,1,0,0,2.8913,Pegmatite_rect,6,2.891,0,2,0,2,0,1,,,,,,,,,,,,,
6673535da412b0139c83fa31,SCR,2024-06-24_13h46.41.970,LearnStrategy,2023.2.3,Win32,59.88023952,3,1,4,0.548148261,-0.061111111,1,0,0,2.13,Pegmatite_11,6,11,3,8,2.13,6,09,0.085185242,-0.417592621,1,0,0,8.3733,Peridotite_rect,7,8.373,0,3,0,3,0,1,,,,,,,,,,,,,
6673535da412b0139c83fa31,SCR,2024-06-24_13h46.41.970,LearnStrategy,2023.2.3,Win32,59.88023952,3,1,5,0.595370483,-0.25,1,0,0,2.7956,Pegmatite_09,6,09,2,8,2.796,4,12,-0.144444444,-0.384259288,1,0,0,8.5116,Pegmatite_rect,6,8.512,1,4,0,4,0,1,,,,,,,,,,,,,
6673535da412b0139c83fa31,SCR,2024-06-24_13h46.41.970,LearnStrategy,2023.2.3,Win32,59.88023952,3,1,6,-0.375,0.238888889,1,0,0,2.2797,Gabbro_05,4,05,5,2,2.28,7,02,0.361111111,-0.253703732,1,0,0,5.9799,Gabbro_rect,4,5.98,1,5,0,5,0,1,,,,,,,,,,,,,
6673535da412b0139c83fa31,SCR,2024-06-24_13h46.41.970,LearnStrategy,2023.2.3,Win32,59.88023952,3,1,7,0.251851908,0.134259245,1,0,0,8.3287,Andesite_05,1,05,4,6,8.329,7,10,-0.425,-0.236111111,1,0,0,6.9981,Andesite_rect,1,6.998,1,6,0,6,0,1,,,,,,,,,,,,,
6673535da412b0139c83fa31,SCR,2024-06-24_13h46.41.970,LearnStrategy,2023.2.3,Win32,59.88023952,3,1,8,-0.257407379,0.262962956,1,0,0,1.5452,Diorite_10,3,10,5,3,1.545,1,10,-0.374074046,-0.234259288,1,0,0,5.579,Andesite_rect,1,5.579,0,7,0,7,0,1,,,,,,,,,,,,,
6673535da412b0139c83fa31,SCR,2024-06-24_13h46.41.970,LearnStrategy,2023.2.3,Win32,59.88023952,3,1,9,-0.569444444,0.25,1,0,0,5.3469,Andesite_16,1,16,5,1,5.347,7,10,0.148148176,-0.264814843,1,0,0,10.5403,Diorite_rect,3,10.54,0,8,0,8,0,1,,,,,,,,,,,,,
6673535da412b0139c83fa31,SCR,2024-06-24_13h46.41.970,LearnStrategy,2023.2.3,Win32,59.88023952,3,1,10,-0.520370356,0.419444444,1,0,0,4.696,Peridotite_08,7,08,6,1,4.696,3,08,-0.421296268,-0.253703732,1,0,0,4.2825,Andesite_rect,1,4.283,0,9,0,9,0,1,,,,,,,,,,,,,
6673535da412b0139c83fa31,SCR,2024-06-24_13h46.41.970,LearnStrategy,2023.2.3,Win32,59.88023952,3,1,11,0.113888889,-0.101851866,1,0,0,1.8798,Gabbro_15,4,15,3,5,1.88,6,15,0.071296353,-0.4,1,0,0,1.5777,Peridotite_rect,7,1.578,0,10,0,10,0,1,,,,,,,,,,,,,
6673535da412b0139c83fa31,SCR,2024-06-24_13h46.41.970,LearnStrategy,2023.2.3,Win32,59.88023952,3,1,12,0.277777778,0.112962935,1,0,0,5.9909,Andesite_05,1,05,4,6,5.991,2,16,-0.330555556,-0.232407464,1,0,0,12.1551,Andesite_rect,1,12.155,1,11,0,11,0,1,,,,,,,,,,,,,
6673535da412b0139c83fa31,SCR,2024-06-24_13h46.41.970,LearnStrategy,2023.2.3,Win32,59.88023952,3,1,13,-0.380555556,-0.100925954,1,0,0,11.9458,Pegmatite_05,6,05,3,2,11.946,7,08,0.173148176,-0.261111111,1,0,0,9.4737,Diorite_rect,3,9.474,0,12,0,12,0,1,,,,,,,,,,,,,
6673535da412b0139c83fa31,SCR,2024-06-24_13h46.41.970,LearnStrategy,2023.2.3,Win32,59.88023952,3,1,14,0.110185242,-0.243518575,1,0,0,3.8301,Basalt_16,2,16,2,5,3.83,1,07,-0.136111111,-0.253703732,1,0,0,18.1033,Basalt_rect,2,18.103,1,13,0,13,0,1,,,,,,,,,,,,,
6673535da412b0139c83fa31,SCR,2024-06-24_13h46.41.970,LearnStrategy,2023.2.3,Win32,59.88023952,3,1,15,0.112963019,-0.082407422,1,0,0,4.605,Gabbro_15,4,15,3,5,4.605,1,05,0.421296353,-0.242592621,1,0,0,6.5506,Gabbro_rect,4,6.551,1,14,0,14,0,1,,,,,,,,,,,,,
6673535da412b0139c83fa31,SCR,2024-06-24_13h46.41.970,LearnStrategy,2023.2.3,Win32,59.88023952,3,1,16,0.252777778,-0.266666667,1,0,0,7.6173,Pegmatite_15,6,15,2,6,7.617,4,08,-0.149074046,-0.382407464,1,0,0,3.2094,Pegmatite_rect,6,3.209,1,15,0,15,0,1,,,,,,,,,,,,,
6673535da412b0139c83fa31,SCR,2024-06-24_13h46.41.970,LearnStrategy,2023.2.3,Win32,59.88023952,3,2,1,,,,,,,,2,11,,,,,,,,,,,,,2,9.102,1,,,,,,-0.127777778,-0.250925954,1,0,0,9.102,Basalt_rect,0,0,0,0,1,
6673535da412b0139c83fa31,SCR,2024-06-24_13h46.41.970,LearnStrategy,2023.2.3,Win32,59.88023952,3,2,2,,,,,,,,3,02,,,,,,,,,,,,,1,10.854,0,,,,,,-0.35,-0.241666667,1,0,0,10.8544,Andesite_rect,1,0,1,0,1,
6673535da412b0139c83fa31,SCR,2024-06-24_13h46.41.970,LearnStrategy,2023.2.3,Win32,59.88023952,3,2,3,,,,,,,,1,03,,,,,,,,,,,,,1,8.459,1,,,,,,-0.35370369,-0.239814843,1,0,0,8.4594,Andesite_rect,2,0,2,0,1,
6673535da412b0139c83fa31,SCR,2024-06-24_13h46.41.970,LearnStrategy,2023.2.3,Win32,59.88023952,3,2,4,,,,,,,,2,08,,,,,,,,,,,,,2,5.336,1,,,,,,-0.102777778,-0.25,1,0,0,5.3363,Basalt_rect,3,0,3,0,1,
6673535da412b0139c83fa31,SCR,2024-06-24_13h46.41.970,LearnStrategy,2023.2.3,Win32,59.88023952,3,2,5,,,,,,,,8,05,,,,,,,,,,,,,8,1.817,1,,,,,,0.45648151,-0.416666667,1,0,0,1.8174,Pumice_rect,4,0,4,0,1,
6673535da412b0139c83fa31,SCR,2024-06-24_13h46.41.970,LearnStrategy,2023.2.3,Win32,59.88023952,3,2,6,,,,,,,,1,02,,,,,,,,,,,,,1,9.806,1,,,,,,-0.386111111,-0.254629686,1,0,0,9.8062,Andesite_rect,5,0,5,0,1,
6673535da412b0139c83fa31,SCR,2024-06-24_13h46.41.970,LearnStrategy,2023.2.3,Win32,59.88023952,3,2,7,,,,,,,,4,13,,,,,,,,,,,,,1,16.645,0,,,,,,-0.399074046,-0.25648151,1,0,0,16.6448,Andesite_rect,6,0,6,0,1,
6673535da412b0139c83fa31,SCR,2024-06-24_13h46.41.970,LearnStrategy,2023.2.3,Win32,59.88023952,3,2,8,,,,,,,,7,12,,,,,,,,,,,,,3,14.763,0,,,,,,0.115740797,-0.232407464,1,0,0,14.7626,Diorite_rect,7,0,7,0,1,
6673535da412b0139c83fa31,SCR,2024-06-24_13h46.41.970,LearnStrategy,2023.2.3,Win32,59.88023952,3,2,9,,,,,,,,5,08,,,,,,,,,,,,,5,2.102,1,,,,,,-0.339814801,-0.393518575,1,0,0,2.1023,Obsidian_rect,8,0,8,0,1,
6673535da412b0139c83fa31,SCR,2024-06-24_13h46.41.970,LearnStrategy,2023.2.3,Win32,59.88023952,3,2,10,,,,,,,,3,12,,,,,,,,,,,,,3,6.427,1,,,,,,0.132407464,-0.240740797,1,0,0,6.4267,Diorite_rect,9,0,9,0,1,
6673535da412b0139c83fa31,SCR,2024-06-24_13h46.41.970,LearnStrategy,2023.2.3,Win32,59.88023952,3,2,11,,,,,,,,7,14,,,,,,,,,,,,,7,7.13,1,,,,,,0.159259288,-0.396296353,1,0,0,7.1298,Peridotite_rect,10,0,10,0,1,
6673535da412b0139c83fa31,SCR,2024-06-24_13h46.41.970,LearnStrategy,2023.2.3,Win32,59.88023952,3,2,12,,,,,,,,8,03,,,,,,,,,,,,,8,1.702,1,,,,,,0.417592621,-0.403703732,1,0,0,1.7021,Pumice_rect,11,0,11,0,1,
6673535da412b0139c83fa31,SCR,2024-06-24_13h46.41.970,LearnStrategy,2023.2.3,Win32,59.88023952,3,2,13,,,,,,,,5,14,,,,,,,,,,,,,5,1.497,1,,,,,,-0.430555556,-0.378703732,1,0,0,1.4968,Obsidian_rect,12,0,12,0,1,
6673535da412b0139c83fa31,SCR,2024-06-24_13h46.41.970,LearnStrategy,2023.2.3,Win32,59.88023952,3,2,14,,,,,,,,4,10,,,,,,,,,,,,,4,22.624,1,,,,,,0.454629686,-0.248148176,1,0,0,22.6239,Gabbro_rect,13,0,13,0,1,
6673535da412b0139c83fa31,SCR,2024-06-24_13h46.41.970,LearnStrategy,2023.2.3,Win32,59.88023952,3,2,15,,,,,,,,6,08,,,,,,,,,,,,,6,11.393,1,,,,,,-0.130555556,-0.387037065,0,0,1,11.3929,Pegmatite_rect,14,0,14,0,1,
6673535da412b0139c83fa31,SCR,2024-06-24_13h46.41.970,LearnStrategy,2023.2.3,Win32,59.88023952,3,2,16,,,,,,,,6,07,,,,,,,,,,,,,6,9.811,1,,,,,,-0.138888889,-0.417592621,1,0,0,9.8107,Pegmatite_rect,15,0,15,0,1,
6673535da412b0139c83fa31,SCR,2024-06-24_13h46.41.970,LearnStrategy,2023.2.3,Win32,59.88023952,4,1,1,-0.073148092,-0.222222222,1,0,0,14.4971,Peridotite_06,7,06,2,4,14.497,1,16,0.459259288,-0.25,1,0,0,5.8632,Gabbro_rect,4,5.863,0,0,0,0,0,1,,,,,,,,,,,,,
6673535da412b0139c83fa31,SCR,2024-06-24_13h46.41.970,LearnStrategy,2023.2.3,Win32,59.88023952,4,1,2,-0.058333333,-0.425,1,0,0,5.3954,Peridotite_10,7,10,1,4,5.395,3,11,-0.416666667,-0.247222222,1,0,0,5.1494,Andesite_rect,1,5.149,0,1,0,1,0,1,,,,,,,,,,,,,
6673535da412b0139c83fa31,SCR,2024-06-24_13h46.41.970,LearnStrategy,2023.2.3,Win32,59.88023952,4,1,3,0.087037065,0.086111111,1,0,0,3.8297,Gabbro_08,4,08,4,5,3.83,3,08,0.38148151,-0.235185242,1,0,0,3.6538,Gabbro_rect,4,3.654,1,2,0,2,0,1,,,,,,,,,,,,,
6673535da412b0139c83fa31,SCR,2024-06-24_13h46.41.970,LearnStrategy,2023.2.3,Win32,59.88023952,4,1,4,0.563888889,0.389814811,1,0,0,8.5288,Andesite_10,1,10,6,8,8.529,3,10,-0.358333333,-0.254629686,1,0,0,5.7998,Andesite_rect,1,5.8,1,3,0,3,0,1,,,,,,,,,,,,,
6673535da412b0139c83fa31,SCR,2024-06-24_13h46.41.970,LearnStrategy,2023.2.3,Win32,59.88023952,4,1,5,0.05,0.069444444,1,0,0,2.0391,Gabbro_08,4,08,4,5,2.039,1,05,-0.406481467,-0.245370399,1,0,0,1.5514,Andesite_rect,1,1.551,0,4,0,4,0,1,,,,,,,,,,,,,
6673535da412b0139c83fa31,SCR,2024-06-24_13h46.41.970,LearnStrategy,2023.2.3,Win32,59.88023952,4,1,6,0.25648151,0.076851824,1,0,0,2.3318,Andesite_05,1,05,4,6,2.332,6,13,-0.362037023,-0.250925954,1,0,0,1.3854,Andesite_rect,1,1.385,1,5,0,5,0,1,,,,,,,,,,,,,
6673535da412b0139c83fa31,SCR,2024-06-24_13h46.41.970,LearnStrategy,2023.2.3,Win32,59.88023952,4,1,7,0.364814843,-0.122222222,1,0,0,1.9124,Basalt_01,2,01,3,7,1.912,7,08,0.360185242,-0.239814843,1,0,0,0.9706,Gabbro_rect,4,0.971,0,6,0,6,0,1,,,,,,,,,,,,,
6673535da412b0139c83fa31,SCR,2024-06-24_13h46.41.970,LearnStrategy,2023.2.3,Win32,59.88023952,4,1,8,-0.357407379,-0.243518575,1,0,0,3.4968,Basalt_09,2,09,2,2,3.497,4,05,-0.092592536,-0.240740797,1,0,0,2.7648,Basalt_rect,2,2.765,1,7,0,7,0,1,,,,,,,,,,,,,
6673535da412b0139c83fa31,SCR,2024-06-24_13h46.41.970,LearnStrategy,2023.2.3,Win32,59.88023952,4,1,9,-0.214814801,-0.253703732,1,0,0,2.2279,Gabbro_12,4,12,2,3,2.228,4,08,-0.417592578,-0.237037065,1,0,0,3.3272,Andesite_rect,1,3.327,0,8,0,8,0,1,,,,,,,,,,,,,
6673535da412b0139c83fa31,SCR,2024-06-24_13h46.41.970,LearnStrategy,2023.2.3,Win32,59.88023952,4,1,10,-0.357407379,-0.386111111,1,0,0,5.9627,Peridotite_07,7,07,1,2,5.963,1,16,-0.380555556,-0.244444444,1,0,0,8.8969,Andesite_rect,1,8.897,0,9,0,9,0,1,,,,,,,,,,,,,
6673535da412b0139c83fa31,SCR,2024-06-24_13h46.41.970,LearnStrategy,2023.2.3,Win32,59.88023952,4,1,11,-0.055555556,-0.436111111,1,0,0,1.347,Peridotite_10,7,10,1,4,1.347,4,08,-0.319444444,-0.230555556,1,0,0,0.9335,Andesite_rect,1,0.934,0,10,0,10,0,1,,,,,,,,,,,,,
6673535da412b0139c83fa31,SCR,2024-06-24_13h46.41.970,LearnStrategy,2023.2.3,Win32,59.88023952,4,1,12,0.403703732,0.091666667,1,0,0,4.7638,Diorite_09,3,09,4,7,4.764,2,16,0.075925954,-0.414814843,1,0,0,3.1507,Peridotite_rect,7,3.151,0,11,0,11,0,1,,,,,,,,,,,,,
6673535da412b0139c83fa31,SCR,2024-06-24_13h46.41.970,LearnStrategy,2023.2.3,Win32,59.88023952,4,1,13,0.073148176,-0.087037065,1,0,0,1.9557,Gabbro_15,4,15,3,5,1.956,7,10,0.128703732,-0.396296353,1,0,0,2.1362,Peridotite_rect,7,2.136,0,12,0,12,0,1,,,,,,,,,,,,,
6673535da412b0139c83fa31,SCR,2024-06-24_13h46.41.970,LearnStrategy,2023.2.3,Win32,59.88023952,4,1,14,0.207407464,0.267592578,1,0,0,10.1303,Diorite_07,3,07,5,6,10.13,7,04,0.074074131,-0.401851908,1,0,0,2.1856,Peridotite_rect,7,2.186,0,13,0,13,0,1,,,,,,,,,,,,,
6673535da412b0139c83fa31,SCR,2024-06-24_13h46.41.970,LearnStrategy,2023.2.3,Win32,59.88023952,4,1,15,-0.110185157,-0.417592621,1,0,0,3.4796,Peridotite_10,7,10,1,4,3.48,6,03,-0.351851824,-0.251851908,1,0,0,4.5841,Andesite_rect,1,4.584,0,14,0,14,0,1,,,,,,,,,,,,,
6673535da412b0139c83fa31,SCR,2024-06-24_13h46.41.970,LearnStrategy,2023.2.3,Win32,59.88023952,4,1,16,0.575,0.411111111,1,0,0,8.5294,Andesite_10,1,10,6,8,8.529,7,07,-0.379629601,-0.253703732,1,0,0,1.896,Andesite_rect,1,1.896,1,15,0,15,0,1,,,,,,,,,,,,,
6673535da412b0139c83fa31,SCR,2024-06-24_13h46.41.970,LearnStrategy,2023.2.3,Win32,59.88023952,4,2,1,,,,,,,,6,16,,,,,,,,,,,,,3,7.385,0,,,,,,0.102777778,-0.245370399,1,0,0,7.3852,Diorite_rect,0,0,0,0,1,
6673535da412b0139c83fa31,SCR,2024-06-24_13h46.41.970,LearnStrategy,2023.2.3,Win32,59.88023952,4,2,2,,,,,,,,4,13,,,,,,,,,,,,,7,10.177,0,,,,,,0.137037065,-0.383333333,1,0,0,10.1773,Peridotite_rect,1,0,1,0,1,
6673535da412b0139c83fa31,SCR,2024-06-24_13h46.41.970,LearnStrategy,2023.2.3,Win32,59.88023952,4,2,3,,,,,,,,8,08,,,,,,,,,,,,,8,1.741,1,,,,,,0.45648151,-0.384259288,1,0,0,1.7406,Pumice_rect,2,0,2,0,1,
6673535da412b0139c83fa31,SCR,2024-06-24_13h46.41.970,LearnStrategy,2023.2.3,Win32,59.88023952,4,2,4,,,,,,,,6,10,,,,,,,,,,,,,6,22.125,1,,,,,,-0.105555556,-0.395370399,1,0,0,22.1255,Pegmatite_rect,3,0,3,0,1,
6673535da412b0139c83fa31,SCR,2024-06-24_13h46.41.970,LearnStrategy,2023.2.3,Win32,59.88023952,4,2,5,,,,,,,,5,05,,,,,,,,,,,,,5,1.617,1,,,,,,-0.402777778,-0.395370399,1,0,0,1.6171,Obsidian_rect,4,0,4,0,1,
6673535da412b0139c83fa31,SCR,2024-06-24_13h46.41.970,LearnStrategy,2023.2.3,Win32,59.88023952,4,2,6,,,,,,,,3,16,,,,,,,,,,,,,3,11.844,1,,,,,,0.115740797,-0.240740797,1,0,0,11.8437,Diorite_rect,5,0,5,0,1,
6673535da412b0139c83fa31,SCR,2024-06-24_13h46.41.970,LearnStrategy,2023.2.3,Win32,59.88023952,4,2,7,,,,,,,,7,15,,,,,,,,,,,,,7,8.69,1,,,,,,0.150925954,-0.403703732,1,0,0,8.6899,Peridotite_rect,6,0,6,0,1,
6673535da412b0139c83fa31,SCR,2024-06-24_13h46.41.970,LearnStrategy,2023.2.3,Win32,59.88023952,4,2,8,,,,,,,,5,10,,,,,,,,,,,,,5,1.62,1,,,,,,-0.40370369,-0.397222222,1,0,0,1.6199,Obsidian_rect,7,0,7,0,1,
6673535da412b0139c83fa31,SCR,2024-06-24_13h46.41.970,LearnStrategy,2023.2.3,Win32,59.88023952,4,2,9,,,,,,,,2,08,,,,,,,,,,,,,2,13.542,1,,,,,,-0.173148092,-0.254629686,1,0,0,13.5416,Basalt_rect,8,0,8,0,1,
6673535da412b0139c83fa31,SCR,2024-06-24_13h46.41.970,LearnStrategy,2023.2.3,Win32,59.88023952,4,2,10,,,,,,,,3,02,,,,,,,,,,,,,1,4.605,0,,,,,,-0.435185157,-0.237963019,1,0,0,4.6054,Andesite_rect,9,0,9,0,1,
6673535da412b0139c83fa31,SCR,2024-06-24_13h46.41.970,LearnStrategy,2023.2.3,Win32,59.88023952,4,2,11,,,,,,,,7,12,,,,,,,,,,,,,3,18.139,0,,,,,,0.121296353,-0.245370399,1,0,0,18.1392,Diorite_rect,10,0,10,0,1,
6673535da412b0139c83fa31,SCR,2024-06-24_13h46.41.970,LearnStrategy,2023.2.3,Win32,59.88023952,4,2,12,,,,,,,,2,05,,,,,,,,,,,,,2,10.233,1,,,,,,-0.117592536,-0.262963019,1,0,0,10.2328,Basalt_rect,11,0,11,0,1,
6673535da412b0139c83fa31,SCR,2024-06-24_13h46.41.970,LearnStrategy,2023.2.3,Win32,59.88023952,4,2,13,,,,,,,,4,10,,,,,,,,,,,,,4,12.342,1,,,,,,0.409259288,-0.233333333,1,0,0,12.3417,Gabbro_rect,12,0,12,0,1,
6673535da412b0139c83fa31,SCR,2024-06-24_13h46.41.970,LearnStrategy,2023.2.3,Win32,59.88023952,4,2,14,,,,,,,,1,06,,,,,,,,,,,,,1,12.26,1,,,,,,-0.391666667,-0.260185242,1,0,0,12.2603,Andesite_rect,13,0,13,0,1,
6673535da412b0139c83fa31,SCR,2024-06-24_13h46.41.970,LearnStrategy,2023.2.3,Win32,59.88023952,4,2,15,,,,,,,,8,10,,,,,,,,,,,,,8,2.095,1,,,,,,0.359259288,-0.382407464,1,0,0,2.0951,Pumice_rect,14,0,14,0,1,
6673535da412b0139c83fa31,SCR,2024-06-24_13h46.41.970,LearnStrategy,2023.2.3,Win32,59.88023952,4,2,16,,,,,,,,1,04,,,,,,,,,,,,,1,17.711,1,,,,,,-0.37870369,-0.238888889,1,0,0,17.7109,Andesite_rect,15,0,15,0,1,
6673535da412b0139c83fa31,SCR,2024-06-24_13h46.41.970,LearnStrategy,2023.2.3,Win32,59.88023952,5,1,1,-0.527777778,0.442592589,1,0,0,3.0069,Peridotite_08,7,08,6,1,3.007,4,12,-0.400925912,-0.241666667,1,0,0,1.1536,Andesite_rect,1,1.154,0,0,0,0,0,1,,,,,,,,,,,,,
6673535da412b0139c83fa31,SCR,2024-06-24_13h46.41.970,LearnStrategy,2023.2.3,Win32,59.88023952,5,1,2,-0.386111111,0.242592578,1,0,0,11.5587,Gabbro_05,4,05,5,2,11.559,6,03,-0.44351849,-0.245370399,1,0,0,4.9074,Andesite_rect,1,4.907,0,1,0,1,0,1,,,,,,,,,,,,,
6673535da412b0139c83fa31,SCR,2024-06-24_13h46.41.970,LearnStrategy,2023.2.3,Win32,59.88023952,5,1,3,-0.386111111,0.121296268,1,0,0,34.979,Andesite_07,1,07,4,2,34.979,1,11,0.162963019,-0.260185242,1,0,0,8.2956,Diorite_rect,3,8.296,0,2,0,2,0,1,,,,,,,,,,,,,
6673535da412b0139c83fa31,SCR,2024-06-24_13h46.41.970,LearnStrategy,2023.2.3,Win32,59.88023952,5,1,4,-0.512962935,-0.084259288,1,0,0,3.2213,Diorite_11,3,11,3,1,3.221,4,08,0.13148151,-0.228703732,1,0,0,5.1122,Diorite_rect,3,5.112,1,3,0,3,0,1,,,,,,,,,,,,,
6673535da412b0139c83fa31,SCR,2024-06-24_13h46.41.970,LearnStrategy,2023.2.3,Win32,59.88023952,5,1,5,0.083333333,0.076851824,1,0,0,12.5806,Gabbro_08,4,08,4,5,12.581,4,16,-0.351851824,-0.260185242,1,0,0,12.2302,Andesite_rect,1,12.23,0,4,0,4,0,1,,,,,,,,,,,,,
6673535da412b0139c83fa31,SCR,2024-06-24_13h46.41.970,LearnStrategy,2023.2.3,Win32,59.88023952,5,1,6,-0.064814758,-0.398148176,1,0,0,3.8666,Peridotite_10,7,10,1,4,3.867,7,06,-0.364814801,-0.240740797,1,0,0,3.7619,Andesite_rect,1,3.762,0,5,0,5,0,1,,,,,,,,,,,,,
6673535da412b0139c83fa31,SCR,2024-06-24_13h46.41.970,LearnStrategy,2023.2.3,Win32,59.88023952,5,1,7,-0.064814758,-0.434259288,1,0,0,4.1428,Peridotite_10,7,10,1,4,4.143,7,07,0.166666667,-0.400925954,1,0,0,3.6814,Peridotite_rect,7,3.681,1,6,0,6,0,1,,,,,,,,,,,,,
6673535da412b0139c83fa31,SCR,2024-06-24_13h46.41.970,LearnStrategy,2023.2.3,Win32,59.88023952,5,1,8,0.542592706,-0.389814843,0,0,1,2.831,Peridotite_04,7,04,1,8,2.831,1,10,0.138888889,-0.408333333,1,0,0,3.2188,Peridotite_rect,7,3.219,1,7,0,7,0,1,,,,,,,,,,,,,
6673535da412b0139c83fa31,SCR,2024-06-24_13h46.41.970,LearnStrategy,2023.2.3,Win32,59.88023952,5,1,9,0.536111111,0.262962956,1,0,0,5.4461,Pegmatite_13,6,13,5,8,5.446,3,10,-0.096296268,-0.395370399,1,0,0,7.0885,Pegmatite_rect,6,7.089,1,8,0,8,0,1,,,,,,,,,,,,,
6673535da412b0139c83fa31,SCR,2024-06-24_13h46.41.970,LearnStrategy,2023.2.3,Win32,59.88023952,5,1,10,-0.375925912,0.090740712,1,0,0,4.0582,Andesite_07,1,07,4,2,4.058,3,14,-0.409259245,-0.252777778,1,0,0,3.5575,Andesite_rect,1,3.557,1,9,0,9,0,1,,,,,,,,,,,,,
6673535da412b0139c83fa31,SCR,2024-06-24_13h46.41.970,LearnStrategy,2023.2.3,Win32,59.88023952,5,1,11,-0.109259203,-0.387963019,1,0,0,8.1877,Peridotite_10,7,10,1,4,8.188,3,10,-0.339814801,-0.248148176,1,0,0,5.6859,Andesite_rect,1,5.686,0,10,0,10,0,1,,,,,,,,,,,,,
6673535da412b0139c83fa31,SCR,2024-06-24_13h46.41.970,LearnStrategy,2023.2.3,Win32,59.88023952,5,1,12,-0.225,0.409259256,1,0,0,7.713,Pumice_02,8,02,6,3,7.713,2,16,0.394444444,-0.384259288,1,0,0,1.531,Pumice_rect,8,1.531,1,11,0,11,0,1,,,,,,,,,,,,,
6673535da412b0139c83fa31,SCR,2024-06-24_13h46.41.970,LearnStrategy,2023.2.3,Win32,59.88023952,5,1,13,-0.562962956,0.418518517,1,0,0,1.915,Peridotite_08,7,08,6,1,1.915,6,15,0.135185242,-0.412037065,1,0,0,4.6392,Peridotite_rect,7,4.639,1,12,0,12,0,1,,,,,,,,,,,,,
6673535da412b0139c83fa31,SCR,2024-06-24_13h46.41.970,LearnStrategy,2023.2.3,Win32,59.88023952,5,1,14,-0.554629623,-0.213888889,1,0,0,3.6963,Peridotite_02,7,02,2,1,3.696,5,02,0.110185242,-0.386111111,1,0,0,2.8707,Peridotite_rect,7,2.871,1,13,0,13,0,1,,,,,,,,,,,,,
6673535da412b0139c83fa31,SCR,2024-06-24_13h46.41.970,LearnStrategy,2023.2.3,Win32,59.88023952,5,1,15,0.107407464,-0.099074088,1,0,0,5.7967,Gabbro_15,4,15,3,5,5.797,7,04,0.340740797,-0.233333333,1,0,0,8.8085,Gabbro_rect,4,8.808,1,14,0,14,0,1,,,,,,,,,,,,,
6673535da412b0139c83fa31,SCR,2024-06-24_13h46.41.970,LearnStrategy,2023.2.3,Win32,59.88023952,5,1,16,-0.055555556,0.102777778,1,0,0,2.5633,Andesite_01,1,01,4,4,2.563,7,10,0.436111111,-0.240740797,1,0,0,1.3095,Gabbro_rect,4,1.31,0,15,0,15,0,1,,,,,,,,,,,,,
6673535da412b0139c83fa31,SCR,2024-06-24_13h46.41.970,LearnStrategy,2023.2.3,Win32,59.88023952,5,2,1,,,,,,,,4,01,,,,,,,,,,,,,3,36.444,0,,,,,,0.099074131,-0.252777778,1,0,0,36.444,Diorite_rect,0,0,0,0,1,
6673535da412b0139c83fa31,SCR,2024-06-24_13h46.41.970,LearnStrategy,2023.2.3,Win32,59.88023952,5,2,2,,,,,,,,5,14,,,,,,,,,,,,,5,2.625,1,,,,,,-0.461111111,-0.420370399,1,0,0,2.6252,Obsidian_rect,1,0,1,0,1,
6673535da412b0139c83fa31,SCR,2024-06-24_13h46.41.970,LearnStrategy,2023.2.3,Win32,59.88023952,5,2,3,,,,,,,,5,08,,,,,,,,,,,,,5,1.253,1,,,,,,-0.461111111,-0.420370399,1,0,0,1.2531,Obsidian_rect,2,0,2,0,1,
6673535da412b0139c83fa31,SCR,2024-06-24_13h46.41.970,LearnStrategy,2023.2.3,Win32,59.88023952,5,2,4,,,,,,,,1,14,,,,,,,,,,,,,7,32.12,0,,,,,,0.168518575,-0.395370399,1,0,0,32.1195,Peridotite_rect,3,0,3,0,1,
6673535da412b0139c83fa31,SCR,2024-06-24_13h46.41.970,LearnStrategy,2023.2.3,Win32,59.88023952,5,2,5,,,,,,,,6,12,,,,,,,,,,,,,6,2.559,1,,,,,,-0.106481425,-0.392592621,1,0,0,2.5594,Pegmatite_rect,4,0,4,0,1,
6673535da412b0139c83fa31,SCR,2024-06-24_13h46.41.970,LearnStrategy,2023.2.3,Win32,59.88023952,5,2,6,,,,,,,,3,13,,,,,,,,,,,,,3,6.086,1,,,,,,0.123148176,-0.246296353,1,0,0,6.0863,Diorite_rect,5,0,5,0,1,
6673535da412b0139c83fa31,SCR,2024-06-24_13h46.41.970,LearnStrategy,2023.2.3,Win32,59.88023952,5,2,7,,,,,,,,6,06,,,,,,,,,,,,,6,7.623,1,,,,,,-0.137962935,-0.408333333,1,0,0,7.6226,Pegmatite_rect,6,0,6,0,1,
6673535da412b0139c83fa31,SCR,2024-06-24_13h46.41.970,LearnStrategy,2023.2.3,Win32,59.88023952,5,2,8,,,,,,,,4,14,,,,,,,,,,,,,4,3.655,1,,,,,,0.379629686,-0.233333333,1,0,0,3.6551,Gabbro_rect,7,0,7,0,1,
6673535da412b0139c83fa31,SCR,2024-06-24_13h46.41.970,LearnStrategy,2023.2.3,Win32,59.88023952,5,2,9,,,,,,,,2,14,,,,,,,,,,,,,8,10.635,0,,,,,,0.439814843,-0.384259288,1,0,0,10.6346,Pumice_rect,8,0,8,0,1,
6673535da412b0139c83fa31,SCR,2024-06-24_13h46.41.970,LearnStrategy,2023.2.3,Win32,59.88023952,5,2,10,,,,,,,,8,15,,,,,,,,,,,,,8,1.075,1,,,,,,0.439814843,-0.384259288,1,0,0,1.0747,Pumice_rect,9,0,9,0,1,
6673535da412b0139c83fa31,SCR,2024-06-24_13h46.41.970,LearnStrategy,2023.2.3,Win32,59.88023952,5,2,11,,,,,,,,7,14,,,,,,,,,,,,,7,15.253,1,,,,,,0.10648151,-0.412037065,1,0,0,15.2528,Peridotite_rect,10,0,10,0,1,
6673535da412b0139c83fa31,SCR,2024-06-24_13h46.41.970,LearnStrategy,2023.2.3,Win32,59.88023952,5,2,12,,,,,,,,3,06,,,,,,,,,,,,,3,8.011,1,,,,,,0.120370399,-0.250925954,1,0,0,8.0109,Diorite_rect,11,0,11,0,1,
6673535da412b0139c83fa31,SCR,2024-06-24_13h46.41.970,LearnStrategy,2023.2.3,Win32,59.88023952,5,2,13,,,,,,,,7,16,,,,,,,,,,,,,4,5.088,0,,,,,,0.45648151,-0.238888889,1,0,0,5.088,Gabbro_rect,12,0,12,0,1,
6673535da412b0139c83fa31,SCR,2024-06-24_13h46.41.970,LearnStrategy,2023.2.3,Win32,59.88023952,5,2,14,,,,,,,,1,09,,,,,,,,,,,,,1,11.342,1,,,,,,-0.425925912,-0.261111111,1,0,0,11.3416,Andesite_rect,13,0,13,0,1,
6673535da412b0139c83fa31,SCR,2024-06-24_13h46.41.970,LearnStrategy,2023.2.3,Win32,59.88023952,5,2,15,,,,,,,,2,02,,,,,,,,,,,,,2,3.138,1,,,,,,-0.124074046,-0.261111111,1,0,0,3.1375,Basalt_rect,14,0,14,0,1,
6673535da412b0139c83fa31,SCR,2024-06-24_13h46.41.970,LearnStrategy,2023.2.3,Win32,59.88023952,5,2,16,,,,,,,,8,03,,,,,,,,,,,,,8,1.59,1,,,,,,0.355555556,-0.398148176,1,0,0,1.5897,Pumice_rect,15,0,15,0,1,
6673535da412b0139c83fa31,SCR,2024-06-24_13h46.41.970,LearnStrategy,2023.2.3,Win32,59.88023952,6,1,1,-0.223148134,-0.073148176,1,0,0,2.113,Basalt_10,2,10,3,3,2.113,2,04,-0.148148092,-0.241666667,1,0,0,2.5822,Basalt_rect,2,2.582,1,0,0,0,0,1,,,,,,,,,,,,,
6673535da412b0139c83fa31,SCR,2024-06-24_13h46.41.970,LearnStrategy,2023.2.3,Win32,59.88023952,6,1,2,0.097222222,0.098148134,1,0,0,3.3962,Gabbro_08,4,08,4,5,3.396,3,14,0.423148176,-0.242592621,1,0,0,6.9983,Gabbro_rect,4,6.998,1,1,0,1,0,1,,,,,,,,,,,,,
6673535da412b0139c83fa31,SCR,2024-06-24_13h46.41.970,LearnStrategy,2023.2.3,Win32,59.88023952,6,1,3,-0.226851824,-0.226851908,1,0,0,2.5459,Gabbro_12,4,12,2,3,2.546,1,01,0.427777778,-0.235185242,1,0,0,2.828,Gabbro_rect,4,2.828,1,2,0,2,0,1,,,,,,,,,,,,,
6673535da412b0139c83fa31,SCR,2024-06-24_13h46.41.970,LearnStrategy,2023.2.3,Win32,59.88023952,6,1,4,-0.417592578,-0.230555556,1,0,0,1.8965,Basalt_09,2,09,2,2,1.897,4,05,-0.126851824,-0.25648151,1,0,0,1.3094,Basalt_rect,2,1.309,1,3,0,3,0,1,,,,,,,,,,,,,
6673535da412b0139c83fa31,SCR,2024-06-24_13h46.41.970,LearnStrategy,2023.2.3,Win32,59.88023952,6,1,5,-0.248148134,0.240740734,1,0,0,2.1474,Diorite_10,3,10,5,3,2.147,6,03,0.117592621,-0.264814843,1,0,0,17.6928,Diorite_rect,3,17.693,1,4,0,4,0,1,,,,,,,,,,,,,
6673535da412b0139c83fa31,SCR,2024-06-24_13h46.41.970,LearnStrategy,2023.2.3,Win32,59.88023952,6,1,6,0.563888889,-0.279629686,1,0,0,9.6301,Pegmatite_09,6,09,2,8,9.63,7,10,0.141666667,-0.393518575,1,0,0,6.1399,Peridotite_rect,7,6.14,0,5,0,5,0,1,,,,,,,,,,,,,
6673535da412b0139c83fa31,SCR,2024-06-24_13h46.41.970,LearnStrategy,2023.2.3,Win32,59.88023952,6,1,7,0.365740797,-0.275,1,0,0,1.7296,Pegmatite_03,6,03,2,7,1.73,3,10,-0.073148092,-0.393518575,1,0,0,2.0269,Pegmatite_rect,6,2.027,1,6,0,6,0,1,,,,,,,,,,,,,
6673535da412b0139c83fa31,SCR,2024-06-24_13h46.41.970,LearnStrategy,2023.2.3,Win32,59.88023952,6,1,8,-0.090740712,-0.259259288,1,0,0,2.2125,Peridotite_06,7,06,2,4,2.212,7,07,0.160185242,-0.408333333,1,0,0,6.9746,Peridotite_rect,7,6.975,1,7,0,7,0,1,,,,,,,,,,,,,
6673535da412b0139c83fa31,SCR,2024-06-24_13h46.41.970,LearnStrategy,2023.2.3,Win32,59.88023952,6,1,9,0.566666667,0.249074067,1,0,0,3.0642,Pegmatite_13,6,13,5,8,3.064,5,16,0.120370399,-0.407407464,1,0,0,2.9276,Peridotite_rect,7,2.928,0,8,0,8,0,1,,,,,,,,,,,,,
6673535da412b0139c83fa31,SCR,2024-06-24_13h46.41.970,LearnStrategy,2023.2.3,Win32,59.88023952,6,1,10,-0.442592578,-0.084259288,1,0,0,8.2457,Pegmatite_05,6,05,3,2,8.246,2,10,0.119444444,-0.401851908,1,0,0,2.6115,Peridotite_rect,7,2.611,0,9,0,9,0,1,,,,,,,,,,,,,
6673535da412b0139c83fa31,SCR,2024-06-24_13h46.41.970,LearnStrategy,2023.2.3,Win32,59.88023952,6,1,11,0.239814843,-0.249074131,1,0,0,7.13,Pegmatite_15,6,15,2,6,7.13,8,13,-0.084259203,-0.402777778,1,0,0,5.1641,Pegmatite_rect,6,5.164,1,10,0,10,0,1,,,,,,,,,,,,,
6673535da412b0139c83fa31,SCR,2024-06-24_13h46.41.970,LearnStrategy,2023.2.3,Win32,59.88023952,6,1,12,-0.52870369,-0.269444444,1,0,0,7.8478,Peridotite_02,7,02,2,1,7.848,1,10,0.102777778,-0.414814843,0,0,1,7.4633,Peridotite_rect,7,7.463,1,11,0,11,0,1,,,,,,,,,,,,,
6673535da412b0139c83fa31,SCR,2024-06-24_13h46.41.970,LearnStrategy,2023.2.3,Win32,59.88023952,6,1,13,-0.416666667,-0.391666667,1,0,0,2.5682,Peridotite_07,7,07,1,2,2.568,6,09,0.109259288,-0.420370399,0,0,1,3.5569,Peridotite_rect,7,3.557,1,12,0,12,0,1,,,,,,,,,,,,,
6673535da412b0139c83fa31,SCR,2024-06-24_13h46.41.970,LearnStrategy,2023.2.3,Win32,59.88023952,6,1,14,-0.25370369,0.224074067,1,0,0,7.2404,Diorite_10,3,10,5,3,7.24,7,06,0.208333333,-0.258333333,1,0,0,16.6565,Diorite_rect,3,16.657,1,13,0,13,0,1,,,,,,,,,,,,,
6673535da412b0139c83fa31,SCR,2024-06-24_13h46.41.970,LearnStrategy,2023.2.3,Win32,59.88023952,6,1,15,0.533333333,0.413888889,1,0,0,4.2557,Andesite_10,1,10,6,8,4.256,4,16,-0.426851824,-0.251851908,1,0,0,3.7469,Andesite_rect,1,3.747,1,14,0,14,0,1,,,,,,,,,,,,,
6673535da412b0139c83fa31,SCR,2024-06-24_13h46.41.970,LearnStrategy,2023.2.3,Win32,59.88023952,6,1,16,-0.081481425,-0.122222222,1,0,0,2.4275,Basalt_12,2,12,3,4,2.427,4,15,-0.120370314,-0.239814843,1,0,0,2.7818,Basalt_rect,2,2.782,1,15,0,15,0,1,,,,,,,,,,,,,
6673535da412b0139c83fa31,SCR,2024-06-24_13h46.41.970,LearnStrategy,2023.2.3,Win32,59.88023952,6,2,1,,,,,,,,7,05,,,,,,,,,,,,,7,25.593,1,,,,,,0.107407464,-0.387037065,1,0,0,25.5933,Peridotite_rect,0,0,0,0,1,
6673535da412b0139c83fa31,SCR,2024-06-24_13h46.41.970,LearnStrategy,2023.2.3,Win32,59.88023952,6,2,2,,,,,,,,8,05,,,,,,,,,,,,,8,2.309,1,,,,,,0.379629686,-0.420370399,0,0,1,2.3091,Pumice_rect,1,0,1,0,1,
6673535da412b0139c83fa31,SCR,2024-06-24_13h46.41.970,LearnStrategy,2023.2.3,Win32,59.88023952,6,2,3,,,,,,,,6,08,,,,,,,,,,,,,6,3.997,1,,,,,,-0.091666667,-0.393518575,1,0,0,3.9975,Pegmatite_rect,2,0,2,0,1,
6673535da412b0139c83fa31,SCR,2024-06-24_13h46.41.970,LearnStrategy,2023.2.3,Win32,59.88023952,6,2,4,,,,,,,,2,11,,,,,,,,,,,,,2,2.498,1,,,,,,-0.087962935,-0.257407464,1,0,0,2.4976,Basalt_rect,3,0,3,0,1,
6673535da412b0139c83fa31,SCR,2024-06-24_13h46.41.970,LearnStrategy,2023.2.3,Win32,59.88023952,6,2,5,,,,,,,,2,06,,,,,,,,,,,,,2,2.76,1,,,,,,-0.087962935,-0.257407464,1,0,0,2.7603,Basalt_rect,4,0,4,0,1,
6673535da412b0139c83fa31,SCR,2024-06-24_13h46.41.970,LearnStrategy,2023.2.3,Win32,59.88023952,6,2,6,,,,,,,,3,15,,,,,,,,,,,,,3,6.31,1,,,,,,0.134259288,-0.254629686,1,0,0,6.3102,Diorite_rect,5,0,5,0,1,
6673535da412b0139c83fa31,SCR,2024-06-24_13h46.41.970,LearnStrategy,2023.2.3,Win32,59.88023952,6,2,7,,,,,,,,7,13,,,,,,,,,,,,,7,23.293,1,,,,,,0.133333333,-0.400925954,1,0,0,23.293,Peridotite_rect,6,0,6,0,1,
6673535da412b0139c83fa31,SCR,2024-06-24_13h46.41.970,LearnStrategy,2023.2.3,Win32,59.88023952,6,2,8,,,,,,,,3,12,,,,,,,,,,,,,3,19.613,1,,,,,,0.121296353,-0.249074131,1,0,0,19.6134,Diorite_rect,7,0,7,0,1,
6673535da412b0139c83fa31,SCR,2024-06-24_13h46.41.970,LearnStrategy,2023.2.3,Win32,59.88023952,6,2,9,,,,,,,,5,06,,,,,,,,,,,,,5,2.082,1,,,,,,-0.429629601,-0.390740797,1,0,0,2.0818,Obsidian_rect,8,0,8,0,1,
6673535da412b0139c83fa31,SCR,2024-06-24_13h46.41.970,LearnStrategy,2023.2.3,Win32,59.88023952,6,2,10,,,,,,,,6,07,,,,,,,,,,,,,6,5.342,1,,,,,,-0.110185157,-0.382407464,1,0,0,5.3424,Pegmatite_rect,9,0,9,0,1,
6673535da412b0139c83fa31,SCR,2024-06-24_13h46.41.970,LearnStrategy,2023.2.3,Win32,59.88023952,6,2,11,,,,,,,,1,02,,,,,,,,,,,,,1,2.446,1,,,,,,-0.355555556,-0.252777778,1,0,0,2.4457,Andesite_rect,10,0,10,0,1,
6673535da412b0139c83fa31,SCR,2024-06-24_13h46.41.970,LearnStrategy,2023.2.3,Win32,59.88023952,6,2,12,,,,,,,,1,03,,,,,,,,,,,,,1,1.195,1,,,,,,-0.355555556,-0.252777778,1,0,0,1.1946,Andesite_rect,11,0,11,0,1,
6673535da412b0139c83fa31,SCR,2024-06-24_13h46.41.970,LearnStrategy,2023.2.3,Win32,59.88023952,6,2,13,,,,,,,,4,03,,,,,,,,,,,,,3,14.181,0,,,,,,0.15,-0.243518575,1,0,0,14.1809,Diorite_rect,12,0,12,0,1,
6673535da412b0139c83fa31,SCR,2024-06-24_13h46.41.970,LearnStrategy,2023.2.3,Win32,59.88023952,6,2,14,,,,,,,,5,11,,,,,,,,,,,,,5,1.954,1,,,,,,-0.439814801,-0.409259288,1,0,0,1.9542,Obsidian_rect,13,0,13,0,1,
6673535da412b0139c83fa31,SCR,2024-06-24_13h46.41.970,LearnStrategy,2023.2.3,Win32,59.88023952,6,2,15,,,,,,,,4,09,,,,,,,,,,,,,4,7.896,1,,,,,,0.421296353,-0.238888889,1,0,0,7.8963,Gabbro_rect,14,0,14,0,1,
6673535da412b0139c83fa31,SCR,2024-06-24_13h46.41.970,LearnStrategy,2023.2.3,Win32,59.88023952,6,2,16,,,,,,,,8,06,,,,,,,,,,,,,8,2.154,1,,,,,,0.396296353,-0.387963019,1,0,0,2.1541,Pumice_rect,15,0,15,0,1,
6673535da412b0139c83fa31,SCR,2024-06-24_13h46.41.970,LearnStrategy,2023.2.3,Win32,59.88023952,7,1,1,-0.258333333,0.4,1,0,0,3.6637,Pumice_02,8,02,6,3,3.664,7,10,0.398148176,-0.408333333,1,0,0,1.0917,Pumice_rect,8,1.092,1,0,0,0,0,1,,,,,,,,,,,,,
6673535da412b0139c83fa31,SCR,2024-06-24_13h46.41.970,LearnStrategy,2023.2.3,Win32,59.88023952,7,1,2,0.078703732,0.4,1,0,0,1.5464,Gabbro_16,4,16,6,5,1.546,7,02,0.375925954,-0.245370399,1,0,0,1.6141,Gabbro_rect,4,1.614,1,1,0,1,0,1,,,,,,,,,,,,,
6673535da412b0139c83fa31,SCR,2024-06-24_13h46.41.970,LearnStrategy,2023.2.3,Win32,59.88023952,7,1,3,0.520370399,0.415740739,1,0,0,2.4467,Andesite_10,1,10,6,8,2.447,8,04,-0.379629601,-0.245370399,1,0,0,1.5586,Andesite_rect,1,1.559,1,2,0,2,0,1,,,,,,,,,,,,,
6673535da412b0139c83fa31,SCR,2024-06-24_13h46.41.970,LearnStrategy,2023.2.3,Win32,59.88023952,7,1,4,-0.524074046,0.2074074,1,0,0,1.8149,Andesite_16,1,16,5,1,1.815,4,05,-0.387037023,-0.233333333,1,0,0,1.4147,Andesite_rect,1,1.415,1,3,0,3,0,1,,,,,,,,,,,,,
6673535da412b0139c83fa31,SCR,2024-06-24_13h46.41.970,LearnStrategy,2023.2.3,Win32,59.88023952,7,1,5,0.210185242,0.242592578,1,0,0,3.4135,Diorite_07,3,07,5,6,3.414,1,05,0.097222222,-0.252777778,1,0,0,1.267,Diorite_rect,3,1.267,1,4,0,4,0,1,,,,,,,,,,,,,
6673535da412b0139c83fa31,SCR,2024-06-24_13h46.41.970,LearnStrategy,2023.2.3,Win32,59.88023952,7,1,6,-0.358333333,0.057407379,1,0,0,4.3027,Andesite_07,1,07,4,2,4.303,7,07,0.384259288,-0.240740797,1,0,0,3.6051,Gabbro_rect,4,3.605,0,5,0,5,0,1,,,,,,,,,,,,,
6673535da412b0139c83fa31,SCR,2024-06-24_13h46.41.970,LearnStrategy,2023.2.3,Win32,59.88023952,7,1,7,-0.096296268,0.062037023,1,0,0,1.2797,Andesite_01,1,01,4,4,1.28,3,09,0.396296353,-0.254629686,1,0,0,0.6962,Gabbro_rect,4,0.696,0,6,0,6,0,1,,,,,,,,,,,,,
6673535da412b0139c83fa31,SCR,2024-06-24_13h46.41.970,LearnStrategy,2023.2.3,Win32,59.88023952,7,1,8,0.048148176,0.095370356,1,0,0,1.1392,Gabbro_08,4,08,4,5,1.139,1,10,0.358333333,-0.236111111,1,0,0,0.8989,Gabbro_rect,4,0.899,1,7,0,7,0,1,,,,,,,,,,,,,
6673535da412b0139c83fa31,SCR,2024-06-24_13h46.41.970,LearnStrategy,2023.2.3,Win32,59.88023952,7,1,9,0.284259288,0.100925912,1,0,0,2.4146,Andesite_05,1,05,4,6,2.415,2,09,-0.410185157,-0.237963019,1,0,0,1.3817,Andesite_rect,1,1.382,1,8,0,8,0,1,,,,,,,,,,,,,
6673535da412b0139c83fa31,SCR,2024-06-24_13h46.41.970,LearnStrategy,2023.2.3,Win32,59.88023952,7,1,10,-0.36851849,-0.402777778,1,0,0,3.4972,Peridotite_07,7,07,1,2,3.497,5,02,0.057407464,-0.40648151,1,0,0,3.127,Peridotite_rect,7,3.127,1,9,0,9,0,1,,,,,,,,,,,,,
6673535da412b0139c83fa31,SCR,2024-06-24_13h46.41.970,LearnStrategy,2023.2.3,Win32,59.88023952,7,1,11,-0.208333333,-0.424074131,1,0,0,1.1389,Obsidian_07,5,07,1,3,1.139,4,15,-0.383333333,-0.386111111,1,0,0,0.735,Obsidian_rect,5,0.735,1,10,0,10,0,1,,,,,,,,,,,,,
6673535da412b0139c83fa31,SCR,2024-06-24_13h46.41.970,LearnStrategy,2023.2.3,Win32,59.88023952,7,1,12,-0.237037023,-0.244444444,1,0,0,4.3315,Gabbro_12,4,12,2,3,4.331,2,16,-0.074074046,-0.257407464,1,0,0,2.3975,Basalt_rect,2,2.398,0,11,0,11,0,1,,,,,,,,,,,,,
6673535da412b0139c83fa31,SCR,2024-06-24_13h46.41.970,LearnStrategy,2023.2.3,Win32,59.88023952,7,1,13,-0.061111111,-0.116666667,1,0,0,2.7185,Basalt_12,2,12,3,4,2.718,4,11,-0.050925869,-0.23148151,1,0,0,5.6352,Basalt_rect,2,5.635,1,12,0,12,0,1,,,,,,,,,,,,,
6673535da412b0139c83fa31,SCR,2024-06-24_13h46.41.970,LearnStrategy,2023.2.3,Win32,59.88023952,7,1,14,0.082407464,-0.090740755,1,0,0,1.2964,Gabbro_15,4,15,3,5,1.296,6,15,0.425925954,-0.258333333,1,0,0,0.9128,Gabbro_rect,4,0.913,1,13,0,13,0,1,,,,,,,,,,,,,
6673535da412b0139c83fa31,SCR,2024-06-24_13h46.41.970,LearnStrategy,2023.2.3,Win32,59.88023952,7,1,15,0.077777778,0.114814801,1,0,0,1.1309,Gabbro_08,4,08,4,5,1.131,4,12,-0.383333333,-0.261111111,1,0,0,3.4175,Andesite_rect,1,3.418,0,14,0,14,0,1,,,,,,,,,,,,,
6673535da412b0139c83fa31,SCR,2024-06-24_13h46.41.970,LearnStrategy,2023.2.3,Win32,59.88023952,7,1,16,0.237037065,0.087962935,1,0,0,1.0018,Andesite_05,1,05,4,6,1.002,3,11,-0.374074046,-0.243518575,1,0,0,1.7018,Andesite_rect,1,1.702,1,15,0,15,0,1,,,,,,,,,,,,,
6673535da412b0139c83fa31,SCR,2024-06-24_13h46.41.970,LearnStrategy,2023.2.3,Win32,59.88023952,7,2,1,,,,,,,,6,10,,,,,,,,,,,,,6,24.692,1,,,,,,-0.156481425,-0.385185242,1,0,0,24.6919,Pegmatite_rect,0,0,0,0,1,
6673535da412b0139c83fa31,SCR,2024-06-24_13h46.41.970,LearnStrategy,2023.2.3,Win32,59.88023952,7,2,2,,,,,,,,8,10,,,,,,,,,,,,,8,1.637,1,,,,,,0.360185242,-0.387037065,1,0,0,1.6375,Pumice_rect,1,0,1,0,1,
6673535da412b0139c83fa31,SCR,2024-06-24_13h46.41.970,LearnStrategy,2023.2.3,Win32,59.88023952,7,2,3,,,,,,,,2,06,,,,,,,,,,,,,2,4.691,1,,,,,,-0.086111111,-0.229629686,1,0,0,4.6913,Basalt_rect,2,0,2,0,1,
6673535da412b0139c83fa31,SCR,2024-06-24_13h46.41.970,LearnStrategy,2023.2.3,Win32,59.88023952,7,2,4,,,,,,,,4,01,,,,,,,,,,,,,4,9.781,1,,,,,,0.385185242,-0.241666667,1,0,0,9.7814,Gabbro_rect,3,0,3,0,1,
6673535da412b0139c83fa31,SCR,2024-06-24_13h46.41.970,LearnStrategy,2023.2.3,Win32,59.88023952,7,2,5,,,,,,,,1,04,,,,,,,,,,,,,1,2.834,1,,,,,,-0.401851824,-0.239814843,1,0,0,2.834,Andesite_rect,4,0,4,0,1,
6673535da412b0139c83fa31,SCR,2024-06-24_13h46.41.970,LearnStrategy,2023.2.3,Win32,59.88023952,7,2,6,,,,,,,,7,14,,,,,,,,,,,,,7,9.719,1,,,,,,0.120370399,-0.399074131,1,0,0,9.7186,Peridotite_rect,5,0,5,0,1,
6673535da412b0139c83fa31,SCR,2024-06-24_13h46.41.970,LearnStrategy,2023.2.3,Win32,59.88023952,7,2,7,,,,,,,,1,03,,,,,,,,,,,,,1,1.208,1,,,,,,-0.463888889,-0.234259288,1,0,0,1.208,Andesite_rect,6,0,6,0,1,
6673535da412b0139c83fa31,SCR,2024-06-24_13h46.41.970,LearnStrategy,2023.2.3,Win32,59.88023952,7,2,8,,,,,,,,7,12,,,,,,,,,,,,,3,3.85,0,,,,,,0.103703732,-0.248148176,1,0,0,3.8504,Diorite_rect,7,0,7,0,1,
6673535da412b0139c83fa31,SCR,2024-06-24_13h46.41.970,LearnStrategy,2023.2.3,Win32,59.88023952,7,2,9,,,,,,,,3,16,,,,,,,,,,,,,1,4.487,0,,,,,,-0.492592578,-0.240740797,1,0,0,4.4868,Andesite_rect,8,0,8,0,1,
6673535da412b0139c83fa31,SCR,2024-06-24_13h46.41.970,LearnStrategy,2023.2.3,Win32,59.88023952,7,2,10,,,,,,,,4,10,,,,,,,,,,,,,4,16.884,1,,,,,,0.345370399,-0.264814843,1,0,0,16.884,Gabbro_rect,9,0,9,0,1,
6673535da412b0139c83fa31,SCR,2024-06-24_13h46.41.970,LearnStrategy,2023.2.3,Win32,59.88023952,7,2,11,,,,,,,,3,12,,,,,,,,,,,,,3,12.826,1,,,,,,0.175,-0.270370399,1,0,0,12.826,Diorite_rect,10,0,10,0,1,
6673535da412b0139c83fa31,SCR,2024-06-24_13h46.41.970,LearnStrategy,2023.2.3,Win32,59.88023952,7,2,12,,,,,,,,8,03,,,,,,,,,,,,,8,1.792,1,,,,,,0.403703732,-0.389814843,1,0,0,1.7919,Pumice_rect,11,0,11,0,1,
6673535da412b0139c83fa31,SCR,2024-06-24_13h46.41.970,LearnStrategy,2023.2.3,Win32,59.88023952,7,2,13,,,,,,,,6,07,,,,,,,,,,,,,6,4.777,1,,,,,,-0.096296268,-0.394444444,1,0,0,4.7768,Pegmatite_rect,12,0,12,0,1,
6673535da412b0139c83fa31,SCR,2024-06-24_13h46.41.970,LearnStrategy,2023.2.3,Win32,59.88023952,7,2,14,,,,,,,,5,14,,,,,,,,,,,,,5,1.666,1,,,,,,-0.364814801,-0.399074131,1,0,0,1.6663,Obsidian_rect,13,0,13,0,1,
6673535da412b0139c83fa31,SCR,2024-06-24_13h46.41.970,LearnStrategy,2023.2.3,Win32,59.88023952,7,2,15,,,,,,,,5,08,,,,,,,,,,,,,5,1.764,1,,,,,,-0.420370356,-0.395370399,1,0,0,1.7638,Obsidian_rect,14,0,14,0,1,
6673535da412b0139c83fa31,SCR,2024-06-24_13h46.41.970,LearnStrategy,2023.2.3,Win32,59.88023952,7,2,16,,,,,,,,2,02,,,,,,,,,,,,,2,2.161,1,,,,,,-0.154629601,-0.249074131,1,0,0,2.1606,Basalt_rect,15,0,15,0,1,
6673535da412b0139c83fa31,SCR,2024-06-24_13h46.41.970,LearnStrategy,2023.2.3,Win32,59.88023952,8,1,1,-0.395370356,-0.085185199,1,0,0,2.6557,Pegmatite_05,6,05,3,2,2.656,8,16,-0.164814758,-0.389814843,1,0,0,2.3435,Pegmatite_rect,6,2.343,1,0,0,0,0,1,,,,,,,,,,,,,
6673535da412b0139c83fa31,SCR,2024-06-24_13h46.41.970,LearnStrategy,2023.2.3,Win32,59.88023952,8,1,2,-0.114814758,-0.278703732,1,0,0,6.8072,Peridotite_06,7,06,2,4,6.807,4,11,0.200925954,-0.400925954,1,0,0,7.5692,Peridotite_rect,7,7.569,1,1,0,1,0,1,,,,,,,,,,,,,
6673535da412b0139c83fa31,SCR,2024-06-24_13h46.41.970,LearnStrategy,2023.2.3,Win32,59.88023952,8,1,3,0.094444444,-0.104629644,1,0,0,2.1512,Gabbro_15,4,15,3,5,2.151,2,01,0.434259288,-0.238888889,1,0,0,1.4263,Gabbro_rect,4,1.426,1,2,0,2,0,1,,,,,,,,,,,,,
6673535da412b0139c83fa31,SCR,2024-06-24_13h46.41.970,LearnStrategy,2023.2.3,Win32,59.88023952,8,1,4,0.059259288,0.09351849,1,0,0,4.2558,Gabbro_08,4,08,4,5,4.256,3,08,0.380555556,-0.234259288,1,0,0,2.1919,Gabbro_rect,4,2.192,1,3,0,3,0,1,,,,,,,,,,,,,
6673535da412b0139c83fa31,SCR,2024-06-24_13h46.41.970,LearnStrategy,2023.2.3,Win32,59.88023952,8,1,5,0.546296353,0.086111111,1,0,0,1.179,Basalt_04,2,04,4,8,1.179,7,04,-0.167592536,-0.229629686,1,0,0,1.3746,Basalt_rect,2,1.375,1,4,0,4,0,1,,,,,,,,,,,,,
6673535da412b0139c83fa31,SCR,2024-06-24_13h46.41.970,LearnStrategy,2023.2.3,Win32,59.88023952,8,1,6,0.223148176,0.280555556,1,0,0,1.9652,Diorite_07,3,07,5,6,1.965,6,11,0.173148176,-0.229629686,1,0,0,10.9578,Diorite_rect,3,10.958,1,5,0,5,0,1,,,,,,,,,,,,,
6673535da412b0139c83fa31,SCR,2024-06-24_13h46.41.970,LearnStrategy,2023.2.3,Win32,59.88023952,8,1,7,-0.536111111,-0.093518533,1,0,0,5.1967,Diorite_11,3,11,3,1,5.197,1,11,0.114814843,-0.241666667,1,0,0,13.6536,Diorite_rect,3,13.654,1,6,0,6,0,1,,,,,,,,,,,,,
6673535da412b0139c83fa31,SCR,2024-06-24_13h46.41.970,LearnStrategy,2023.2.3,Win32,59.88023952,8,1,8,-0.554629623,-0.271296353,1,0,0,12.6635,Peridotite_02,7,02,2,1,12.664,1,01,0.099074131,-0.394444444,1,0,0,5.5378,Peridotite_rect,7,5.538,1,7,0,7,0,1,,,,,,,,,,,,,
6673535da412b0139c83fa31,SCR,2024-06-24_13h46.41.970,LearnStrategy,2023.2.3,Win32,59.88023952,8,1,9,-0.508333333,-0.384259288,1,0,0,4.6704,Diorite_08,3,08,1,1,4.67,4,12,-0.405555556,-0.240740797,1,0,0,4.6475,Andesite_rect,1,4.648,0,8,0,8,0,1,,,,,,,,,,,,,
6673535da412b0139c83fa31,SCR,2024-06-24_13h46.41.970,LearnStrategy,2023.2.3,Win32,59.88023952,8,1,10,-0.06851849,-0.375925954,1,0,0,1.6793,Peridotite_10,7,10,1,4,1.679,7,08,0.078703732,-0.412037065,1,0,0,3.7034,Peridotite_rect,7,3.703,1,9,0,9,0,1,,,,,,,,,,,,,
6673535da412b0139c83fa31,SCR,2024-06-24_13h46.41.970,LearnStrategy,2023.2.3,Win32,59.88023952,8,1,11,-0.057407379,0.107407379,1,0,0,4.1892,Andesite_01,1,01,4,4,4.189,4,08,0.424074131,-0.252777778,1,0,0,0.8333,Gabbro_rect,4,0.833,0,10,0,10,0,1,,,,,,,,,,,,,
6673535da412b0139c83fa31,SCR,2024-06-24_13h46.41.970,LearnStrategy,2023.2.3,Win32,59.88023952,8,1,12,0.090740797,0.391666667,1,0,0,4.9152,Gabbro_16,4,16,6,5,4.915,7,07,-0.161111111,-0.232407464,1,0,0,2.5042,Basalt_rect,2,2.504,0,11,0,11,0,1,,,,,,,,,,,,,
6673535da412b0139c83fa31,SCR,2024-06-24_13h46.41.970,LearnStrategy,2023.2.3,Win32,59.88023952,8,1,13,0.514814843,0.075925912,1,0,0,2.8898,Basalt_04,2,04,4,8,2.89,7,07,-0.096296268,-0.252777778,1,0,0,1.697,Basalt_rect,2,1.697,1,12,0,12,0,1,,,,,,,,,,,,,
6673535da412b0139c83fa31,SCR,2024-06-24_13h46.41.970,LearnStrategy,2023.2.3,Win32,59.88023952,8,1,14,0.070370399,-0.260185242,1,0,0,2.2973,Basalt_16,2,16,2,5,2.297,3,09,-0.06851849,-0.233333333,1,0,0,3.0044,Basalt_rect,2,3.004,1,13,0,13,0,1,,,,,,,,,,,,,
6673535da412b0139c83fa31,SCR,2024-06-24_13h46.41.970,LearnStrategy,2023.2.3,Win32,59.88023952,8,1,15,0.082407464,-0.116666667,1,0,0,5.8507,Gabbro_15,4,15,3,5,5.851,5,16,0.425925954,-0.249074131,1,0,0,0.9276,Gabbro_rect,4,0.928,1,14,0,14,0,1,,,,,,,,,,,,,
6673535da412b0139c83fa31,SCR,2024-06-24_13h46.41.970,LearnStrategy,2023.2.3,Win32,59.88023952,8,1,16,-0.379629601,0.229629623,1,0,0,2.8656,Gabbro_05,4,05,5,2,2.866,3,07,0.108333333,-0.403703732,1,0,0,6.9716,Peridotite_rect,7,6.972,0,15,0,15,0,1,,,,,,,,,,,,,
6673535da412b0139c83fa31,SCR,2024-06-24_13h46.41.970,LearnStrategy,2023.2.3,Win32,59.88023952,8,2,1,,,,,,,,1,02,,,,,,,,,,,,,1,13.057,1,,,,,,-0.37870369,-0.241666667,1,0,0,13.0574,Andesite_rect,0,0,0,0,1,
6673535da412b0139c83fa31,SCR,2024-06-24_13h46.41.970,LearnStrategy,2023.2.3,Win32,59.88023952,8,2,2,,,,,,,,8,15,,,,,,,,,,,,,8,2.274,1,,,,,,0.371296353,-0.410185242,1,0,0,2.2736,Pumice_rect,1,0,1,0,1,
6673535da412b0139c83fa31,SCR,2024-06-24_13h46.41.970,LearnStrategy,2023.2.3,Win32,59.88023952,8,2,3,,,,,,,,1,06,,,,,,,,,,,,,1,13.843,1,,,,,,-0.37870369,-0.253703732,1,0,0,13.843,Andesite_rect,2,0,2,0,1,
6673535da412b0139c83fa31,SCR,2024-06-24_13h46.41.970,LearnStrategy,2023.2.3,Win32,59.88023952,8,2,4,,,,,,,,7,05,,,,,,,,,,,,,7,15.018,1,,,,,,0.128703732,-0.4,1,0,0,15.0177,Peridotite_rect,3,0,3,0,1,
6673535da412b0139c83fa31,SCR,2024-06-24_13h46.41.970,LearnStrategy,2023.2.3,Win32,59.88023952,8,2,5,,,,,,,,3,06,,,,,,,,,,,,,3,9.417,1,,,,,,0.199074131,-0.261111111,1,0,0,9.417,Diorite_rect,4,0,4,0,1,
6673535da412b0139c83fa31,SCR,2024-06-24_13h46.41.970,LearnStrategy,2023.2.3,Win32,59.88023952,8,2,6,,,,,,,,2,11,,,,,,,,,,,,,2,5.271,1,,,,,,-0.111111111,-0.234259288,1,0,0,5.2713,Basalt_rect,5,0,5,0,1,
6673535da412b0139c83fa31,SCR,2024-06-24_13h46.41.970,LearnStrategy,2023.2.3,Win32,59.88023952,8,2,7,,,,,,,,6,08,,,,,,,,,,,,,6,5.189,1,,,,,,-0.063888889,-0.403703732,1,0,0,5.1892,Pegmatite_rect,6,0,6,0,1,
6673535da412b0139c83fa31,SCR,2024-06-24_13h46.41.970,LearnStrategy,2023.2.3,Win32,59.88023952,8,2,8,,,,,,,,6,12,,,,,,,,,,,,,6,5.838,1,,,,,,-0.063888889,-0.403703732,1,0,0,5.8377,Pegmatite_rect,7,0,7,0,1,
6673535da412b0139c83fa31,SCR,2024-06-24_13h46.41.970,LearnStrategy,2023.2.3,Win32,59.88023952,8,2,9,,,,,,,,2,05,,,,,,,,,,,,,2,2.155,1,,,,,,-0.05,-0.264814843,1,0,0,2.1547,Basalt_rect,8,0,8,0,1,
6673535da412b0139c83fa31,SCR,2024-06-24_13h46.41.970,LearnStrategy,2023.2.3,Win32,59.88023952,8,2,10,,,,,,,,8,08,,,,,,,,,,,,,8,2.508,1,,,,,,0.437037065,-0.409259288,1,0,0,2.5077,Pumice_rect,9,0,9,0,1,
6673535da412b0139c83fa31,SCR,2024-06-24_13h46.41.970,LearnStrategy,2023.2.3,Win32,59.88023952,8,2,11,,,,,,,,3,13,,,,,,,,,,,,,3,13.311,1,,,,,,0.196296353,-0.260185242,1,0,0,13.3111,Diorite_rect,10,0,10,0,1,
6673535da412b0139c83fa31,SCR,2024-06-24_13h46.41.970,LearnStrategy,2023.2.3,Win32,59.88023952,8,2,12,,,,,,,,4,03,,,,,,,,,,,,,3,14.952,0,,,,,,0.132407464,-0.262037065,1,0,0,14.952,Diorite_rect,11,0,11,0,1,
6673535da412b0139c83fa31,SCR,2024-06-24_13h46.41.970,LearnStrategy,2023.2.3,Win32,59.88023952,8,2,13,,,,,,,,5,11,,,,,,,,,,,,,5,3.153,1,,,,,,-0.354629601,-0.38148151,1,0,0,3.1526,Obsidian_rect,12,0,12,0,1,
6673535da412b0139c83fa31,SCR,2024-06-24_13h46.41.970,LearnStrategy,2023.2.3,Win32,59.88023952,8,2,14,,,,,,,,4,09,,,,,,,,,,,,,4,11.734,1,,,,,,0.40648151,-0.25,1,0,0,11.734,Gabbro_rect,13,0,13,0,1,
6673535da412b0139c83fa31,SCR,2024-06-24_13h46.41.970,LearnStrategy,2023.2.3,Win32,59.88023952,8,2,15,,,,,,,,5,06,,,,,,,,,,,,,5,1.808,1,,,,,,-0.405555556,-0.387963019,1,0,0,1.8078,Obsidian_rect,14,0,14,0,1,
6673535da412b0139c83fa31,SCR,2024-06-24_13h46.41.970,LearnStrategy,2023.2.3,Win32,59.88023952,8,2,16,,,,,,,,7,13,,,,,,,,,,,,,7,8.898,1,,,,,,0.143518575,-0.410185242,1,0,0,8.8983,Peridotite_rect,15,0,15,0,1,
6673535da412b0139c83fa31,SCR,2024-06-24_13h46.41.970,LearnStrategy,2023.2.3,Win32,59.88023952,9,1,1,-0.067592536,-0.249074131,1,0,0,2.5732,Peridotite_06,7,06,2,4,2.573,3,08,0.058333333,-0.399074131,1,0,0,4.0734,Peridotite_rect,7,4.073,1,0,0,0,0,1,,,,,,,,,,,,,
6673535da412b0139c83fa31,SCR,2024-06-24_13h46.41.970,LearnStrategy,2023.2.3,Win32,59.88023952,9,1,2,-0.079629601,-0.414814843,1,0,0,1.4453,Peridotite_10,7,10,1,4,1.445,5,07,0.133333333,-0.402777778,1,0,0,4.1405,Peridotite_rect,7,4.14,1,1,0,1,0,1,,,,,,,,,,,,,
6673535da412b0139c83fa31,SCR,2024-06-24_13h46.41.970,LearnStrategy,2023.2.3,Win32,59.88023952,9,1,3,0.540740797,-0.113888889,1,0,0,2.0228,Pegmatite_11,6,11,3,8,2.023,1,05,-0.100925869,-0.384259288,1,0,0,1.5317,Pegmatite_rect,6,1.532,1,2,0,2,0,1,,,,,,,,,,,,,
6673535da412b0139c83fa31,SCR,2024-06-24_13h46.41.970,LearnStrategy,2023.2.3,Win32,59.88023952,9,1,4,-0.04351849,0.092592578,1,0,0,1.2641,Andesite_01,1,01,4,4,1.264,6,03,0.413888889,-0.25,1,0,0,0.8147,Gabbro_rect,4,0.815,0,3,0,3,0,1,,,,,,,,,,,,,
6673535da412b0139c83fa31,SCR,2024-06-24_13h46.41.970,LearnStrategy,2023.2.3,Win32,59.88023952,9,1,5,0.057407464,0.087037023,1,0,0,1.0228,Gabbro_08,4,08,4,5,1.023,7,02,0.460185242,-0.243518575,1,0,0,0.835,Gabbro_rect,4,0.835,1,4,0,4,0,1,,,,,,,,,,,,,
6673535da412b0139c83fa31,SCR,2024-06-24_13h46.41.970,LearnStrategy,2023.2.3,Win32,59.88023952,9,1,6,0.236111111,0.088888889,1,0,0,1.1311,Andesite_05,1,05,4,6,1.131,1,07,-0.401851824,-0.246296353,1,0,0,0.8352,Andesite_rect,1,0.835,1,5,0,5,0,1,,,,,,,,,,,,,
6673535da412b0139c83fa31,SCR,2024-06-24_13h46.41.970,LearnStrategy,2023.2.3,Win32,59.88023952,9,1,7,0.094444444,0.262037023,1,0,0,1.4845,Gabbro_11,4,11,5,5,1.485,4,15,0.391666667,-0.257407464,1,0,0,4.406,Gabbro_rect,4,4.406,1,6,0,6,0,1,,,,,,,,,,,,,
6673535da412b0139c83fa31,SCR,2024-06-24_13h46.41.970,LearnStrategy,2023.2.3,Win32,59.88023952,9,1,8,-0.55370369,0.254629623,1,0,0,1.2439,Andesite_16,1,16,5,1,1.244,4,05,-0.382407379,-0.240740797,1,0,0,2.2853,Andesite_rect,1,2.285,1,7,0,7,0,1,,,,,,,,,,,,,
6673535da412b0139c83fa31,SCR,2024-06-24_13h46.41.970,LearnStrategy,2023.2.3,Win32,59.88023952,9,1,9,0.38148151,0.245370356,1,0,0,2.6319,Diorite_14,3,14,5,7,2.632,4,11,0.13148151,-0.251851908,1,0,0,0.8998,Diorite_rect,3,0.9,1,8,0,8,0,1,,,,,,,,,,,,,
6673535da412b0139c83fa31,SCR,2024-06-24_13h46.41.970,LearnStrategy,2023.2.3,Win32,59.88023952,9,1,10,-0.256481467,-0.240740797,1,0,0,2.5484,Gabbro_12,4,12,2,3,2.548,4,11,0.394444444,-0.242592621,1,0,0,4.6385,Gabbro_rect,4,4.639,1,9,0,9,0,1,,,,,,,,,,,,,
6673535da412b0139c83fa31,SCR,2024-06-24_13h46.41.970,LearnStrategy,2023.2.3,Win32,59.88023952,9,1,11,-0.075925869,-0.386111111,1,0,0,1.4162,Peridotite_10,7,10,1,4,1.416,7,08,0.110185242,-0.379629686,1,0,0,1.1291,Peridotite_rect,7,1.129,1,10,0,10,0,1,,,,,,,,,,,,,
6673535da412b0139c83fa31,SCR,2024-06-24_13h46.41.970,LearnStrategy,2023.2.3,Win32,59.88023952,9,1,12,-0.568518511,-0.436111111,1,0,0,1.3297,Diorite_08,3,08,1,1,1.33,3,10,0.146296353,-0.246296353,1,0,0,1.6929,Diorite_rect,3,1.693,1,11,0,11,0,1,,,,,,,,,,,,,
6673535da412b0139c83fa31,SCR,2024-06-24_13h46.41.970,LearnStrategy,2023.2.3,Win32,59.88023952,9,1,13,0.575,-0.210185199,1,0,0,3.4762,Pegmatite_09,6,09,2,8,3.476,7,07,-0.083333333,-0.386111111,1,0,0,1.457,Pegmatite_rect,6,1.457,1,12,0,12,0,1,,,,,,,,,,,,,
6673535da412b0139c83fa31,SCR,2024-06-24_13h46.41.970,LearnStrategy,2023.2.3,Win32,59.88023952,9,1,14,0.584259372,-0.43148151,1,0,0,1.2578,Peridotite_04,7,04,1,8,1.258,8,09,0.142592621,-0.411111111,1,0,0,2.7494,Peridotite_rect,7,2.749,1,13,0,13,0,1,,,,,,,,,,,,,
6673535da412b0139c83fa31,SCR,2024-06-24_13h46.41.970,LearnStrategy,2023.2.3,Win32,59.88023952,9,1,15,-0.562962956,0.412037034,1,0,0,2.2353,Peridotite_08,7,08,6,1,2.235,3,09,0.175,-0.417592621,1,0,0,4.6549,Peridotite_rect,7,4.655,1,14,0,14,0,1,,,,,,,,,,,,,
6673535da412b0139c83fa31,SCR,2024-06-24_13h46.41.970,LearnStrategy,2023.2.3,Win32,59.88023952,9,1,16,0.099074131,0.259259245,1,0,0,3.6135,Gabbro_11,4,11,5,5,3.613,2,04,0.403703732,-0.236111111,1,0,0,2.0004,Gabbro_rect,4,2,1,15,0,15,0,1,,,,,,,,,,,,,
6673535da412b0139c83fa31,SCR,2024-06-24_13h46.41.970,LearnStrategy,2023.2.3,Win32,59.88023952,9,2,1,,,,,,,,6,16,,,,,,,,,,,,,6,3.786,1,,,,,,-0.147222222,-0.401851908,1,0,0,3.7859,Pegmatite_rect,0,0,0,0,1,
6673535da412b0139c83fa31,SCR,2024-06-24_13h46.41.970,LearnStrategy,2023.2.3,Win32,59.88023952,9,2,2,,,,,,,,4,14,,,,,,,,,,,,,4,3.086,1,,,,,,0.360185242,-0.268518575,1,0,0,3.0861,Gabbro_rect,1,0,1,0,1,
6673535da412b0139c83fa31,SCR,2024-06-24_13h46.41.970,LearnStrategy,2023.2.3,Win32,59.88023952,9,2,3,,,,,,,,7,15,,,,,,,,,,,,,7,3.869,1,,,,,,0.15,-0.402777778,1,0,0,3.8686,Peridotite_rect,2,0,2,0,1,
6673535da412b0139c83fa31,SCR,2024-06-24_13h46.41.970,LearnStrategy,2023.2.3,Win32,59.88023952,9,2,4,,,,,,,,1,14,,,,,,,,,,,,,6,30.175,0,,,,,,-0.120370314,-0.399074131,1,0,0,30.1747,Pegmatite_rect,3,0,3,0,1,
6673535da412b0139c83fa31,SCR,2024-06-24_13h46.41.970,LearnStrategy,2023.2.3,Win32,59.88023952,9,2,5,,,,,,,,4,13,,,,,,,,,,,,,4,11.406,1,,,,,,0.383333333,-0.241666667,1,0,0,11.4064,Gabbro_rect,4,0,4,0,1,
6673535da412b0139c83fa31,SCR,2024-06-24_13h46.41.970,LearnStrategy,2023.2.3,Win32,59.88023952,9,2,6,,,,,,,,8,05,,,,,,,,,,,,,8,2.173,1,,,,,,0.382407464,-0.382407464,1,0,0,2.1727,Pumice_rect,5,0,5,0,1,
6673535da412b0139c83fa31,SCR,2024-06-24_13h46.41.970,LearnStrategy,2023.2.3,Win32,59.88023952,9,2,7,,,,,,,,2,14,,,,,,,,,,,,,8,2.843,0,,,,,,0.382407464,-0.382407464,1,0,0,2.8429,Pumice_rect,6,0,6,0,1,
6673535da412b0139c83fa31,SCR,2024-06-24_13h46.41.970,LearnStrategy,2023.2.3,Win32,59.88023952,9,2,8,,,,,,,,3,02,,,,,,,,,,,,,3,14.585,1,,,,,,0.123148176,-0.264814843,1,0,0,14.5849,Diorite_rect,7,0,7,0,1,
6673535da412b0139c83fa31,SCR,2024-06-24_13h46.41.970,LearnStrategy,2023.2.3,Win32,59.88023952,9,2,9,,,,,,,,5,10,,,,,,,,,,,,,5,1.671,1,,,,,,-0.4,-0.387963019,1,0,0,1.6706,Obsidian_rect,8,0,8,0,1,
6673535da412b0139c83fa31,SCR,2024-06-24_13h46.41.970,LearnStrategy,2023.2.3,Win32,59.88023952,9,2,10,,,,,,,,2,08,,,,,,,,,,,,,2,2.226,1,,,,,,-0.167592536,-0.237037065,1,0,0,2.226,Basalt_rect,9,0,9,0,1,
6673535da412b0139c83fa31,SCR,2024-06-24_13h46.41.970,LearnStrategy,2023.2.3,Win32,59.88023952,9,2,11,,,,,,,,1,09,,,,,,,,,,,,,1,1.843,1,,,,,,-0.436111111,-0.251851908,1,0,0,1.8435,Andesite_rect,10,0,10,0,1,
6673535da412b0139c83fa31,SCR,2024-06-24_13h46.41.970,LearnStrategy,2023.2.3,Win32,59.88023952,9,2,12,,,,,,,,3,15,,,,,,,,,,,,,7,13.526,0,,,,,,0.164814843,-0.378703732,1,0,0,13.5262,Peridotite_rect,11,0,11,0,1,
6673535da412b0139c83fa31,SCR,2024-06-24_13h46.41.970,LearnStrategy,2023.2.3,Win32,59.88023952,9,2,13,,,,,,,,5,05,,,,,,,,,,,,,5,4.585,1,,,,,,-0.410185157,-0.393518575,1,0,0,4.5851,Obsidian_rect,12,0,12,0,1,
6673535da412b0139c83fa31,SCR,2024-06-24_13h46.41.970,LearnStrategy,2023.2.3,Win32,59.88023952,9,2,14,,,,,,,,8,06,,,,,,,,,,,,,8,2.046,1,,,,,,0.449074131,-0.389814843,1,0,0,2.0456,Pumice_rect,13,0,13,0,1,
6673535da412b0139c83fa31,SCR,2024-06-24_13h46.41.970,LearnStrategy,2023.2.3,Win32,59.88023952,9,2,15,,,,,,,,7,16,,,,,,,,,,,,,4,2.945,0,,,,,,0.419444444,-0.262037065,1,0,0,2.9452,Gabbro_rect,14,0,14,0,1,
6673535da412b0139c83fa31,SCR,2024-06-24_13h46.41.970,LearnStrategy,2023.2.3,Win32,59.88023952,9,2,16,,,,,,,,6,06,,,,,,,,,,,,,6,5.982,1,,,,,,-0.137962935,-0.418518575,1,0,0,5.9818,Pegmatite_rect,15,0,15,0,1,
6673535da412b0139c83fa31,SCR,2024-06-24_13h46.41.970,LearnStrategy,2023.2.3,Win32,59.88023952,,,,,,,,,,,,,,,,,,,,,,,,,,,,,,,,,,,,,,,,,,,,,1
6673535da412b0139c83fa31,SCR,2024-06-24_13h46.41.970,LearnStrategy,2023.2.3,Win32,59.88023952,,,,,,,,,,,,,,,,,,,,,,,,,,,,,,,,,,,,,,,,,,,,,
6673535da412b0139c83fa31,SCR,2024-06-24_13h46.41.970,LearnStrategy,2023.2.3,Win32,59.88023952,,,,,,,,,,,3,08,1,1,,,,,,,,,,,,,,,,,,,,,,,,,,,,,,,
6673535da412b0139c83fa31,SCR,2024-06-24_13h46.41.970,LearnStrategy,2023.2.3,Win32,59.88023952,,,,,,,,,,,7,07,1,2,,,,,,,,,,,,,,,,,,,,,,,,,,,,,,,
6673535da412b0139c83fa31,SCR,2024-06-24_13h46.41.970,LearnStrategy,2023.2.3,Win32,59.88023952,,,,,,,,,,,5,07,1,3,,,,,,,,,,,,,,,,,,,,,,,,,,,,,,,
6673535da412b0139c83fa31,SCR,2024-06-24_13h46.41.970,LearnStrategy,2023.2.3,Win32,59.88023952,,,,,,,,,,,7,10,1,4,,,,,,,,,,,,,,,,,,,,,,,,,,,,,,,
6673535da412b0139c83fa31,SCR,2024-06-24_13h46.41.970,LearnStrategy,2023.2.3,Win32,59.88023952,,,,,,,,,,,8,09,1,5,,,,,,,,,,,,,,,,,,,,,,,,,,,,,,,
6673535da412b0139c83fa31,SCR,2024-06-24_13h46.41.970,LearnStrategy,2023.2.3,Win32,59.88023952,,,,,,,,,,,8,04,1,6,,,,,,,,,,,,,,,,,,,,,,,,,,,,,,,
6673535da412b0139c83fa31,SCR,2024-06-24_13h46.41.970,LearnStrategy,2023.2.3,Win32,59.88023952,,,,,,,,,,,5,02,1,7,,,,,,,,,,,,,,,,,,,,,,,,,,,,,,,
6673535da412b0139c83fa31,SCR,2024-06-24_13h46.41.970,LearnStrategy,2023.2.3,Win32,59.88023952,,,,,,,,,,,7,04,1,8,,,,,,,,,,,,,,,,,,,,,,,,,,,,,,,
6673535da412b0139c83fa31,SCR,2024-06-24_13h46.41.970,LearnStrategy,2023.2.3,Win32,59.88023952,,,,,,,,,,,7,02,2,1,,,,,,,,,,,,,,,,,,,,,,,,,,,,,,,
6673535da412b0139c83fa31,SCR,2024-06-24_13h46.41.970,LearnStrategy,2023.2.3,Win32,59.88023952,,,,,,,,,,,2,09,2,2,,,,,,,,,,,,,,,,,,,,,,,,,,,,,,,
6673535da412b0139c83fa31,SCR,2024-06-24_13h46.41.970,LearnStrategy,2023.2.3,Win32,59.88023952,,,,,,,,,,,4,12,2,3,,,,,,,,,,,,,,,,,,,,,,,,,,,,,,,
6673535da412b0139c83fa31,SCR,2024-06-24_13h46.41.970,LearnStrategy,2023.2.3,Win32,59.88023952,,,,,,,,,,,7,06,2,4,,,,,,,,,,,,,,,,,,,,,,,,,,,,,,,
6673535da412b0139c83fa31,SCR,2024-06-24_13h46.41.970,LearnStrategy,2023.2.3,Win32,59.88023952,,,,,,,,,,,2,16,2,5,,,,,,,,,,,,,,,,,,,,,,,,,,,,,,,
6673535da412b0139c83fa31,SCR,2024-06-24_13h46.41.970,LearnStrategy,2023.2.3,Win32,59.88023952,,,,,,,,,,,6,15,2,6,,,,,,,,,,,,,,,,,,,,,,,,,,,,,,,
6673535da412b0139c83fa31,SCR,2024-06-24_13h46.41.970,LearnStrategy,2023.2.3,Win32,59.88023952,,,,,,,,,,,6,03,2,7,,,,,,,,,,,,,,,,,,,,,,,,,,,,,,,
6673535da412b0139c83fa31,SCR,2024-06-24_13h46.41.970,LearnStrategy,2023.2.3,Win32,59.88023952,,,,,,,,,,,6,09,2,8,,,,,,,,,,,,,,,,,,,,,,,,,,,,,,,
6673535da412b0139c83fa31,SCR,2024-06-24_13h46.41.970,LearnStrategy,2023.2.3,Win32,59.88023952,,,,,,,,,,,3,11,3,1,,,,,,,,,,,,,,,,,,,,,,,,,,,,,,,
6673535da412b0139c83fa31,SCR,2024-06-24_13h46.41.970,LearnStrategy,2023.2.3,Win32,59.88023952,,,,,,,,,,,6,05,3,2,,,,,,,,,,,,,,,,,,,,,,,,,,,,,,,
6673535da412b0139c83fa31,SCR,2024-06-24_13h46.41.970,LearnStrategy,2023.2.3,Win32,59.88023952,,,,,,,,,,,2,10,3,3,,,,,,,,,,,,,,,,,,,,,,,,,,,,,,,
6673535da412b0139c83fa31,SCR,2024-06-24_13h46.41.970,LearnStrategy,2023.2.3,Win32,59.88023952,,,,,,,,,,,2,12,3,4,,,,,,,,,,,,,,,,,,,,,,,,,,,,,,,
6673535da412b0139c83fa31,SCR,2024-06-24_13h46.41.970,LearnStrategy,2023.2.3,Win32,59.88023952,,,,,,,,,,,4,15,3,5,,,,,,,,,,,,,,,,,,,,,,,,,,,,,,,
6673535da412b0139c83fa31,SCR,2024-06-24_13h46.41.970,LearnStrategy,2023.2.3,Win32,59.88023952,,,,,,,,,,,5,12,3,6,,,,,,,,,,,,,,,,,,,,,,,,,,,,,,,
6673535da412b0139c83fa31,SCR,2024-06-24_13h46.41.970,LearnStrategy,2023.2.3,Win32,59.88023952,,,,,,,,,,,2,01,3,7,,,,,,,,,,,,,,,,,,,,,,,,,,,,,,,
6673535da412b0139c83fa31,SCR,2024-06-24_13h46.41.970,LearnStrategy,2023.2.3,Win32,59.88023952,,,,,,,,,,,6,11,3,8,,,,,,,,,,,,,,,,,,,,,,,,,,,,,,,
6673535da412b0139c83fa31,SCR,2024-06-24_13h46.41.970,LearnStrategy,2023.2.3,Win32,59.88023952,,,,,,,,,,,8,13,4,1,,,,,,,,,,,,,,,,,,,,,,,,,,,,,,,
6673535da412b0139c83fa31,SCR,2024-06-24_13h46.41.970,LearnStrategy,2023.2.3,Win32,59.88023952,,,,,,,,,,,1,07,4,2,,,,,,,,,,,,,,,,,,,,,,,,,,,,,,,
6673535da412b0139c83fa31,SCR,2024-06-24_13h46.41.970,LearnStrategy,2023.2.3,Win32,59.88023952,,,,,,,,,,,5,04,4,3,,,,,,,,,,,,,,,,,,,,,,,,,,,,,,,
6673535da412b0139c83fa31,SCR,2024-06-24_13h46.41.970,LearnStrategy,2023.2.3,Win32,59.88023952,,,,,,,,,,,1,01,4,4,,,,,,,,,,,,,,,,,,,,,,,,,,,,,,,
6673535da412b0139c83fa31,SCR,2024-06-24_13h46.41.970,LearnStrategy,2023.2.3,Win32,59.88023952,,,,,,,,,,,4,08,4,5,,,,,,,,,,,,,,,,,,,,,,,,,,,,,,,
6673535da412b0139c83fa31,SCR,2024-06-24_13h46.41.970,LearnStrategy,2023.2.3,Win32,59.88023952,,,,,,,,,,,1,05,4,6,,,,,,,,,,,,,,,,,,,,,,,,,,,,,,,
6673535da412b0139c83fa31,SCR,2024-06-24_13h46.41.970,LearnStrategy,2023.2.3,Win32,59.88023952,,,,,,,,,,,3,09,4,7,,,,,,,,,,,,,,,,,,,,,,,,,,,,,,,
6673535da412b0139c83fa31,SCR,2024-06-24_13h46.41.970,LearnStrategy,2023.2.3,Win32,59.88023952,,,,,,,,,,,2,04,4,8,,,,,,,,,,,,,,,,,,,,,,,,,,,,,,,
6673535da412b0139c83fa31,SCR,2024-06-24_13h46.41.970,LearnStrategy,2023.2.3,Win32,59.88023952,,,,,,,,,,,1,16,5,1,,,,,,,,,,,,,,,,,,,,,,,,,,,,,,,
6673535da412b0139c83fa31,SCR,2024-06-24_13h46.41.970,LearnStrategy,2023.2.3,Win32,59.88023952,,,,,,,,,,,4,05,5,2,,,,,,,,,,,,,,,,,,,,,,,,,,,,,,,
6673535da412b0139c83fa31,SCR,2024-06-24_13h46.41.970,LearnStrategy,2023.2.3,Win32,59.88023952,,,,,,,,,,,3,10,5,3,,,,,,,,,,,,,,,,,,,,,,,,,,,,,,,
6673535da412b0139c83fa31,SCR,2024-06-24_13h46.41.970,LearnStrategy,2023.2.3,Win32,59.88023952,,,,,,,,,,,1,11,5,4,,,,,,,,,,,,,,,,,,,,,,,,,,,,,,,
6673535da412b0139c83fa31,SCR,2024-06-24_13h46.41.970,LearnStrategy,2023.2.3,Win32,59.88023952,,,,,,,,,,,4,11,5,5,,,,,,,,,,,,,,,,,,,,,,,,,,,,,,,
6673535da412b0139c83fa31,SCR,2024-06-24_13h46.41.970,LearnStrategy,2023.2.3,Win32,59.88023952,,,,,,,,,,,3,07,5,6,,,,,,,,,,,,,,,,,,,,,,,,,,,,,,,
6673535da412b0139c83fa31,SCR,2024-06-24_13h46.41.970,LearnStrategy,2023.2.3,Win32,59.88023952,,,,,,,,,,,3,14,5,7,,,,,,,,,,,,,,,,,,,,,,,,,,,,,,,
6673535da412b0139c83fa31,SCR,2024-06-24_13h46.41.970,LearnStrategy,2023.2.3,Win32,59.88023952,,,,,,,,,,,6,13,5,8,,,,,,,,,,,,,,,,,,,,,,,,,,,,,,,
6673535da412b0139c83fa31,SCR,2024-06-24_13h46.41.970,LearnStrategy,2023.2.3,Win32,59.88023952,,,,,,,,,,,7,08,6,1,,,,,,,,,,,,,,,,,,,,,,,,,,,,,,,
6673535da412b0139c83fa31,SCR,2024-06-24_13h46.41.970,LearnStrategy,2023.2.3,Win32,59.88023952,,,,,,,,,,,5,09,6,2,,,,,,,,,,,,,,,,,,,,,,,,,,,,,,,
6673535da412b0139c83fa31,SCR,2024-06-24_13h46.41.970,LearnStrategy,2023.2.3,Win32,59.88023952,,,,,,,,,,,8,02,6,3,,,,,,,,,,,,,,,,,,,,,,,,,,,,,,,
6673535da412b0139c83fa31,SCR,2024-06-24_13h46.41.970,LearnStrategy,2023.2.3,Win32,59.88023952,,,,,,,,,,,8,14,6,4,,,,,,,,,,,,,,,,,,,,,,,,,,,,,,,
6673535da412b0139c83fa31,SCR,2024-06-24_13h46.41.970,LearnStrategy,2023.2.3,Win32,59.88023952,,,,,,,,,,,4,16,6,5,,,,,,,,,,,,,,,,,,,,,,,,,,,,,,,
6673535da412b0139c83fa31,SCR,2024-06-24_13h46.41.970,LearnStrategy,2023.2.3,Win32,59.88023952,,,,,,,,,,,5,16,6,6,,,,,,,,,,,,,,,,,,,,,,,,,,,,,,,
6673535da412b0139c83fa31,SCR,2024-06-24_13h46.41.970,LearnStrategy,2023.2.3,Win32,59.88023952,,,,,,,,,,,8,16,6,7,,,,,,,,,,,,,,,,,,,,,,,,,,,,,,,
6673535da412b0139c83fa31,SCR,2024-06-24_13h46.41.970,LearnStrategy,2023.2.3,Win32,59.88023952,,,,,,,,,,,1,10,6,8,,,,,,,,,,,,,,,,,,,,,,,,,,,,,,,