participant,condition,date,expName,psychopyVersion,OS,frameRate,block,phase,trial,learn_mouse.x,learn_mouse.y,learn_mouse.leftButton,learn_mouse.midButton,learn_mouse.rightButton,learn_mouse.time,learn_mouse.clicked_name,cat,token,row,col,t_select,cat_rec,token_rec,cat_mouse_l.x,cat_mouse_l.y,cat_mouse_l.leftButton,cat_mouse_l.midButton,cat_mouse_l.rightButton,cat_mouse_l.time,cat_mouse_l.clicked_name,resp,t_resp,corr,train_trials.thisRepN,train_trials.thisTrialN,train_trials.thisN,train_trials.thisIndex,train_trials.ran,cat_mouse_t.x,cat_mouse_t.y,cat_mouse_t.leftButton,cat_mouse_t.midButton,cat_mouse_t.rightButton,cat_mouse_t.time,cat_mouse_t.clicked_name,test_trials.thisRepN,test_trials.thisTrialN,test_trials.thisN,test_trials.thisIndex,test_trials.ran,Bonus
66745b274e5c6af161d9cfcd,SCR,2024-06-25_12h39.35.215,LearnStrategy,2023.2.3,MacIntel,60.24096386,,,,,,,,,,,,,,,,,,,,,,,,,,,,,,,,,,,,,,,,,,,,,
66745b274e5c6af161d9cfcd,SCR,2024-06-25_12h39.35.215,LearnStrategy,2023.2.3,MacIntel,60.24096386,1,1,1,-0.213588448,-0.406018295,1,0,0,4.2924,Andesite_05,1,05,1,3,4.292,1,05,0.126871796,-0.262414932,1,0,0,4.0205,Diorite_rect,3,4.02,0,0,0,0,0,1,,,,,,,,,,,,,
66745b274e5c6af161d9cfcd,SCR,2024-06-25_12h39.35.215,LearnStrategy,2023.2.3,MacIntel,60.24096386,1,1,2,-0.035932388,-0.071090546,1,0,0,1.366,Diorite_14,3,14,3,4,1.366,3,14,0.08178978,-0.238400726,1,0,0,3.5339,Diorite_rect,3,3.534,1,1,0,1,0,1,,,,,,,,,,,,,
66745b274e5c6af161d9cfcd,SCR,2024-06-25_12h39.35.215,LearnStrategy,2023.2.3,MacIntel,60.24096386,1,1,3,-0.068918839,0.231112976,1,0,0,1.2013,Pumice_14,8,14,5,4,1.201,8,14,0.324035416,-0.407509155,1,0,0,1.984,Pumice_rect,8,1.984,1,2,0,2,0,1,,,,,,,,,,,,,
66745b274e5c6af161d9cfcd,SCR,2024-06-25_12h39.35.215,LearnStrategy,2023.2.3,MacIntel,60.24096386,1,1,4,0.544364929,0.40315279,1,0,0,1.5674,Diorite_09,3,09,6,8,1.567,3,09,0.132724075,-0.244208145,1,0,0,1.5953,Diorite_rect,3,1.595,1,3,0,3,0,1,,,,,,,,,,,,,
66745b274e5c6af161d9cfcd,SCR,2024-06-25_12h39.35.215,LearnStrategy,2023.2.3,MacIntel,60.24096386,1,1,5,-0.382104836,0.223623657,1,0,0,1.1658,Peridotite_12,7,12,5,2,1.166,7,12,0.12290123,-0.399545746,1,0,0,4.3857,Peridotite_rect,7,4.386,1,4,0,4,0,1,,,,,,,,,,,,,
66745b274e5c6af161d9cfcd,SCR,2024-06-25_12h39.35.215,LearnStrategy,2023.2.3,MacIntel,60.24096386,1,1,6,0.373290176,0.090814438,1,0,0,1.7486,Pegmatite_12,6,12,4,7,1.749,6,12,-0.163963699,-0.396511993,1,0,0,4.4953,Pegmatite_rect,6,4.495,1,5,0,5,0,1,,,,,,,,,,,,,
66745b274e5c6af161d9cfcd,SCR,2024-06-25_12h39.35.215,LearnStrategy,2023.2.3,MacIntel,60.24096386,1,1,7,0.374949417,-0.256281357,1,0,0,1.2177,Gabbro_01,4,01,2,7,1.218,4,01,0.171654358,-0.254920654,1,0,0,1.9928,Diorite_rect,3,1.993,0,6,0,6,0,1,,,,,,,,,,,,,
66745b274e5c6af161d9cfcd,SCR,2024-06-25_12h39.35.215,LearnStrategy,2023.2.3,MacIntel,60.24096386,1,1,8,0.228508301,-0.07551609,1,0,0,0.8338,Basalt_02,2,02,3,6,0.834,2,02,-0.415746536,-0.413136902,1,0,0,1.2283,Obsidian_rect,5,1.228,0,7,0,7,0,1,,,,,,,,,,,,,
66745b274e5c6af161d9cfcd,SCR,2024-06-25_12h39.35.215,LearnStrategy,2023.2.3,MacIntel,60.24096386,1,1,9,0.074695358,0.091149635,1,0,0,0.9841,Obsidian_05,5,05,4,5,0.984,5,05,-0.381242447,-0.408213043,1,0,0,1.153,Obsidian_rect,5,1.153,1,8,0,8,0,1,,,,,,,,,,,,,
66745b274e5c6af161d9cfcd,SCR,2024-06-25_12h39.35.215,LearnStrategy,2023.2.3,MacIntel,60.24096386,1,1,10,-0.080074234,0.102190781,1,0,0,0.8972,Gabbro_14,4,14,4,4,0.897,4,14,0.351888428,-0.247667236,1,0,0,3.8018,Gabbro_rect,4,3.802,1,9,0,9,0,1,,,,,,,,,,,,,
66745b274e5c6af161d9cfcd,SCR,2024-06-25_12h39.35.215,LearnStrategy,2023.2.3,MacIntel,60.24096386,1,1,11,0.359379272,0.239113998,1,0,0,1.0982,Obsidian_14,5,14,5,7,1.098,5,14,-0.33241291,-0.378708649,1,0,0,1.1629,Obsidian_rect,5,1.163,1,10,0,10,0,1,,,,,,,,,,,,,
66745b274e5c6af161d9cfcd,SCR,2024-06-25_12h39.35.215,LearnStrategy,2023.2.3,MacIntel,60.24096386,1,1,12,-0.526860447,-0.131322098,1,0,0,1.1185,Basalt_14,2,14,3,1,1.119,2,14,-0.134348755,-0.242542496,1,0,0,7.6113,Basalt_rect,2,7.611,1,11,0,11,0,1,,,,,,,,,,,,,
66745b274e5c6af161d9cfcd,SCR,2024-06-25_12h39.35.215,LearnStrategy,2023.2.3,MacIntel,60.24096386,1,1,13,0.540973663,-0.074327087,1,0,0,1.6323,Andesite_09,1,09,3,8,1.632,1,09,-0.319645882,-0.265422287,1,0,0,2.0349,Andesite_rect,1,2.035,1,12,0,12,0,1,,,,,,,,,,,,,
66745b274e5c6af161d9cfcd,SCR,2024-06-25_12h39.35.215,LearnStrategy,2023.2.3,MacIntel,60.24096386,1,1,14,0.385852432,-0.082988853,1,0,0,1.754,Pumice_05,8,05,3,7,1.754,8,05,0.410180664,-0.388325806,1,0,0,0.9635,Pumice_rect,8,0.963,1,13,0,13,0,1,,,,,,,,,,,,,
66745b274e5c6af161d9cfcd,SCR,2024-06-25_12h39.35.215,LearnStrategy,2023.2.3,MacIntel,60.24096386,1,1,15,0.041692581,0.399032936,1,0,0,1.3186,Pegmatite_06,6,06,6,5,1.319,6,06,-0.088995743,-0.24121254,1,0,0,5.5493,Basalt_rect,2,5.549,0,14,0,14,0,1,,,,,,,,,,,,,
66745b274e5c6af161d9cfcd,SCR,2024-06-25_12h39.35.215,LearnStrategy,2023.2.3,MacIntel,60.24096386,1,1,16,-0.044552002,-0.227676239,1,0,0,0.8667,Peridotite_06,7,06,2,4,0.867,7,06,0.12377533,-0.384046936,1,0,0,1.988,Peridotite_rect,7,1.988,1,15,0,15,0,1,,,,,,,,,,,,,
66745b274e5c6af161d9cfcd,SCR,2024-06-25_12h39.35.215,LearnStrategy,2023.2.3,MacIntel,60.24096386,1,2,1,,,,,,,,7,02,,,,,,,,,,,,,7,2.191,1,,,,,,0.164706192,-0.403102951,1,0,0,2.1906,Peridotite_rect,0,0,0,0,1,
66745b274e5c6af161d9cfcd,SCR,2024-06-25_12h39.35.215,LearnStrategy,2023.2.3,MacIntel,60.24096386,1,2,2,,,,,,,,3,16,,,,,,,,,,,,,3,1.405,1,,,,,,0.140684967,-0.253809433,1,0,0,1.4054,Diorite_rect,1,0,1,0,1,
66745b274e5c6af161d9cfcd,SCR,2024-06-25_12h39.35.215,LearnStrategy,2023.2.3,MacIntel,60.24096386,1,2,3,,,,,,,,6,07,,,,,,,,,,,,,6,2.289,1,,,,,,-0.143865051,-0.403799362,1,0,0,2.2894,Pegmatite_rect,2,0,2,0,1,
66745b274e5c6af161d9cfcd,SCR,2024-06-25_12h39.35.215,LearnStrategy,2023.2.3,MacIntel,60.24096386,1,2,4,,,,,,,,3,11,,,,,,,,,,,,,3,1.349,1,,,,,,0.113185883,-0.236876678,1,0,0,1.3489,Diorite_rect,3,0,3,0,1,
66745b274e5c6af161d9cfcd,SCR,2024-06-25_12h39.35.215,LearnStrategy,2023.2.3,MacIntel,60.24096386,1,2,5,,,,,,,,8,09,,,,,,,,,,,,,8,1.415,1,,,,,,0.372300339,-0.384987259,1,0,0,1.415,Pumice_rect,4,0,4,0,1,
66745b274e5c6af161d9cfcd,SCR,2024-06-25_12h39.35.215,LearnStrategy,2023.2.3,MacIntel,60.24096386,1,2,6,,,,,,,,8,03,,,,,,,,,,,,,8,1.197,1,,,,,,0.376482773,-0.394313812,1,0,0,1.1966,Pumice_rect,5,0,5,0,1,
66745b274e5c6af161d9cfcd,SCR,2024-06-25_12h39.35.215,LearnStrategy,2023.2.3,MacIntel,60.24096386,1,2,7,,,,,,,,5,04,,,,,,,,,,,,,5,1.134,1,,,,,,-0.367288857,-0.405966263,1,0,0,1.1339,Obsidian_rect,6,0,6,0,1,
66745b274e5c6af161d9cfcd,SCR,2024-06-25_12h39.35.215,LearnStrategy,2023.2.3,MacIntel,60.24096386,1,2,8,,,,,,,,2,04,,,,,,,,,,,,,4,1.889,0,,,,,,0.399309692,-0.241932602,1,0,0,1.8889,Gabbro_rect,7,0,7,0,1,
66745b274e5c6af161d9cfcd,SCR,2024-06-25_12h39.35.215,LearnStrategy,2023.2.3,MacIntel,60.24096386,1,2,9,,,,,,,,1,03,,,,,,,,,,,,,2,5.439,0,,,,,,-0.174021492,-0.254013824,1,0,0,5.4386,Basalt_rect,8,0,8,0,1,
66745b274e5c6af161d9cfcd,SCR,2024-06-25_12h39.35.215,LearnStrategy,2023.2.3,MacIntel,60.24096386,1,2,10,,,,,,,,4,08,,,,,,,,,,,,,6,3.354,0,,,,,,-0.153071289,-0.380235748,1,0,0,3.3541,Pegmatite_rect,9,0,9,0,1,
66745b274e5c6af161d9cfcd,SCR,2024-06-25_12h39.35.215,LearnStrategy,2023.2.3,MacIntel,60.24096386,1,2,11,,,,,,,,5,08,,,,,,,,,,,,,5,1.19,1,,,,,,-0.39949379,-0.416266632,1,0,0,1.1896,Obsidian_rect,10,0,10,0,1,
66745b274e5c6af161d9cfcd,SCR,2024-06-25_12h39.35.215,LearnStrategy,2023.2.3,MacIntel,60.24096386,1,2,12,,,,,,,,6,03,,,,,,,,,,,,,6,2.496,1,,,,,,-0.085809555,-0.404293365,1,0,0,2.4964,Pegmatite_rect,11,0,11,0,1,
66745b274e5c6af161d9cfcd,SCR,2024-06-25_12h39.35.215,LearnStrategy,2023.2.3,MacIntel,60.24096386,1,2,13,,,,,,,,1,04,,,,,,,,,,,,,1,1.608,1,,,,,,-0.336747017,-0.253617172,1,0,0,1.6078,Andesite_rect,12,0,12,0,1,
66745b274e5c6af161d9cfcd,SCR,2024-06-25_12h39.35.215,LearnStrategy,2023.2.3,MacIntel,60.24096386,1,2,14,,,,,,,,4,09,,,,,,,,,,,,,4,2.762,1,,,,,,0.381805573,-0.245275269,1,0,0,2.7619,Gabbro_rect,13,0,13,0,1,
66745b274e5c6af161d9cfcd,SCR,2024-06-25_12h39.35.215,LearnStrategy,2023.2.3,MacIntel,60.24096386,1,2,15,,,,,,,,7,10,,,,,,,,,,,,,7,1.271,1,,,,,,0.096667252,-0.412109756,1,0,0,1.2709,Peridotite_rect,14,0,14,0,1,
66745b274e5c6af161d9cfcd,SCR,2024-06-25_12h39.35.215,LearnStrategy,2023.2.3,MacIntel,60.24096386,1,2,16,,,,,,,,2,06,,,,,,,,,,,,,4,1.597,0,,,,,,0.337046738,-0.242189941,1,0,0,1.5966,Gabbro_rect,15,0,15,0,1,
66745b274e5c6af161d9cfcd,SCR,2024-06-25_12h39.35.215,LearnStrategy,2023.2.3,MacIntel,60.24096386,2,1,1,-0.373398972,0.395239201,1,0,0,1.8883,Andesite_06,1,06,6,2,1.888,1,06,-0.368695107,-0.244830322,1,0,0,2.2755,Andesite_rect,1,2.276,1,0,0,0,0,1,,,,,,,,,,,,,
66745b274e5c6af161d9cfcd,SCR,2024-06-25_12h39.35.215,LearnStrategy,2023.2.3,MacIntel,60.24096386,2,1,2,0.217471771,-0.088497429,1,0,0,0.885,Basalt_02,2,02,3,6,0.885,2,02,0.410286255,-0.236557388,1,0,0,1.0602,Gabbro_rect,4,1.06,0,1,0,1,0,1,,,,,,,,,,,,,
66745b274e5c6af161d9cfcd,SCR,2024-06-25_12h39.35.215,LearnStrategy,2023.2.3,MacIntel,60.24096386,2,1,3,-0.379101181,-0.367535324,1,0,0,1.1358,Basalt_05,2,05,1,2,1.136,2,05,0.382562866,-0.25020607,1,0,0,1.7266,Gabbro_rect,4,1.727,0,2,0,2,0,1,,,,,,,,,,,,,
66745b274e5c6af161d9cfcd,SCR,2024-06-25_12h39.35.215,LearnStrategy,2023.2.3,MacIntel,60.24096386,2,1,4,0.558567047,-0.107008286,1,0,0,3.7894,Andesite_09,1,09,3,8,3.789,1,09,-0.350442924,-0.23093605,1,0,0,1.1673,Andesite_rect,1,1.167,1,3,0,3,0,1,,,,,,,,,,,,,
66745b274e5c6af161d9cfcd,SCR,2024-06-25_12h39.35.215,LearnStrategy,2023.2.3,MacIntel,60.24096386,2,1,5,0.556422272,-0.083670921,1,0,0,2.2191,Andesite_09,1,09,3,8,2.219,1,09,-0.41848423,-0.247097549,1,0,0,1.7637,Andesite_rect,1,1.764,1,4,0,4,0,1,,,,,,,,,,,,,
66745b274e5c6af161d9cfcd,SCR,2024-06-25_12h39.35.215,LearnStrategy,2023.2.3,MacIntel,60.24096386,2,1,6,0.564524384,-0.417394562,1,0,0,1.1849,Gabbro_12,4,12,1,8,1.185,4,12,-0.100838165,-0.256522064,1,0,0,1.9782,Basalt_rect,2,1.978,0,5,0,5,0,1,,,,,,,,,,,,,
66745b274e5c6af161d9cfcd,SCR,2024-06-25_12h39.35.215,LearnStrategy,2023.2.3,MacIntel,60.24096386,2,1,7,-0.550693378,-0.116856232,1,0,0,1.2195,Basalt_14,2,14,3,1,1.22,2,14,0.389614944,-0.238706818,1,0,0,2.094,Gabbro_rect,4,2.094,0,6,0,6,0,1,,,,,,,,,,,,,
66745b274e5c6af161d9cfcd,SCR,2024-06-25_12h39.35.215,LearnStrategy,2023.2.3,MacIntel,60.24096386,2,1,8,-0.564631443,-0.276868439,1,0,0,1.1676,Gabbro_11,4,11,2,1,1.168,4,11,-0.367114258,-0.253481216,1,0,0,2.0732,Andesite_rect,1,2.073,0,7,0,7,0,1,,,,,,,,,,,,,
66745b274e5c6af161d9cfcd,SCR,2024-06-25_12h39.35.215,LearnStrategy,2023.2.3,MacIntel,60.24096386,2,1,9,-0.379391861,0.233339157,1,0,0,1.1222,Peridotite_12,7,12,5,2,1.122,7,12,0.121907196,-0.382529602,1,0,0,1.1064,Peridotite_rect,7,1.106,1,8,0,8,0,1,,,,,,,,,,,,,
66745b274e5c6af161d9cfcd,SCR,2024-06-25_12h39.35.215,LearnStrategy,2023.2.3,MacIntel,60.24096386,2,1,10,-0.085212479,-0.091969643,1,0,0,0.8036,Diorite_14,3,14,3,4,0.804,3,14,0.172153168,-0.248865814,1,0,0,0.7789,Diorite_rect,3,0.779,1,9,0,9,0,1,,,,,,,,,,,,,
66745b274e5c6af161d9cfcd,SCR,2024-06-25_12h39.35.215,LearnStrategy,2023.2.3,MacIntel,60.24096386,2,1,11,-0.240909576,0.397981167,1,0,0,1.1191,Basalt_09,2,09,6,3,1.119,2,09,0.361088638,-0.231889038,1,0,0,1.6582,Gabbro_rect,4,1.658,0,10,0,10,0,1,,,,,,,,,,,,,
66745b274e5c6af161d9cfcd,SCR,2024-06-25_12h39.35.215,LearnStrategy,2023.2.3,MacIntel,60.24096386,2,1,12,0.184805603,-0.12429554,1,0,0,0.8877,Basalt_02,2,02,3,6,0.888,2,02,-0.113253174,-0.252645874,1,0,0,2.9901,Basalt_rect,2,2.99,1,11,0,11,0,1,,,,,,,,,,,,,
66745b274e5c6af161d9cfcd,SCR,2024-06-25_12h39.35.215,LearnStrategy,2023.2.3,MacIntel,60.24096386,2,1,13,-0.071845169,0.113919868,1,0,0,0.8365,Gabbro_14,4,14,4,4,0.837,4,14,0.358791885,-0.248018723,1,0,0,2.4144,Gabbro_rect,4,2.414,1,12,0,12,0,1,,,,,,,,,,,,,
66745b274e5c6af161d9cfcd,SCR,2024-06-25_12h39.35.215,LearnStrategy,2023.2.3,MacIntel,60.24096386,2,1,14,0.385914154,-0.260621262,1,0,0,1.1525,Gabbro_01,4,01,2,7,1.152,4,01,0.1516082,-0.245067749,1,0,0,0.7974,Diorite_rect,3,0.797,0,13,0,13,0,1,,,,,,,,,,,,,
66745b274e5c6af161d9cfcd,SCR,2024-06-25_12h39.35.215,LearnStrategy,2023.2.3,MacIntel,60.24096386,2,1,15,-0.236998405,0.379000092,1,0,0,1.8182,Basalt_09,2,09,6,3,1.818,2,09,-0.121572266,-0.241435089,1,0,0,0.9139,Basalt_rect,2,0.914,1,14,0,14,0,1,,,,,,,,,,,,,
66745b274e5c6af161d9cfcd,SCR,2024-06-25_12h39.35.215,LearnStrategy,2023.2.3,MacIntel,60.24096386,2,1,16,0.363076553,0.096956444,1,0,0,0.9622,Pegmatite_12,6,12,4,7,0.962,6,12,-0.121048737,-0.385560074,1,0,0,1.1051,Pegmatite_rect,6,1.105,1,15,0,15,0,1,,,,,,,,,,,,,
66745b274e5c6af161d9cfcd,SCR,2024-06-25_12h39.35.215,LearnStrategy,2023.2.3,MacIntel,60.24096386,2,2,1,,,,,,,,1,10,,,,,,,,,,,,,1,5.267,1,,,,,,-0.374643707,-0.243768234,1,0,0,5.2665,Andesite_rect,0,0,0,0,1,
66745b274e5c6af161d9cfcd,SCR,2024-06-25_12h39.35.215,LearnStrategy,2023.2.3,MacIntel,60.24096386,2,2,2,,,,,,,,5,07,,,,,,,,,,,,,5,1.648,1,,,,,,-0.385620384,-0.420433121,1,0,0,1.648,Obsidian_rect,1,0,1,0,1,
66745b274e5c6af161d9cfcd,SCR,2024-06-25_12h39.35.215,LearnStrategy,2023.2.3,MacIntel,60.24096386,2,2,3,,,,,,,,6,13,,,,,,,,,,,,,6,1.5,1,,,,,,-0.13991066,-0.399451752,1,0,0,1.4998,Pegmatite_rect,2,0,2,0,1,
66745b274e5c6af161d9cfcd,SCR,2024-06-25_12h39.35.215,LearnStrategy,2023.2.3,MacIntel,60.24096386,2,2,4,,,,,,,,8,16,,,,,,,,,,,,,4,1.6,0,,,,,,0.400211868,-0.24526207,1,0,0,1.5997,Gabbro_rect,3,0,3,0,1,
66745b274e5c6af161d9cfcd,SCR,2024-06-25_12h39.35.215,LearnStrategy,2023.2.3,MacIntel,60.24096386,2,2,5,,,,,,,,7,16,,,,,,,,,,,,,6,3.3,0,,,,,,-0.093883972,-0.394459229,1,0,0,3.3003,Pegmatite_rect,4,0,4,0,1,
66745b274e5c6af161d9cfcd,SCR,2024-06-25_12h39.35.215,LearnStrategy,2023.2.3,MacIntel,60.24096386,2,2,6,,,,,,,,3,08,,,,,,,,,,,,,3,1.62,1,,,,,,0.168583069,-0.260639954,1,0,0,1.6202,Diorite_rect,5,0,5,0,1,
66745b274e5c6af161d9cfcd,SCR,2024-06-25_12h39.35.215,LearnStrategy,2023.2.3,MacIntel,60.24096386,2,2,7,,,,,,,,5,11,,,,,,,,,,,,,5,1.122,1,,,,,,-0.372408257,-0.403208771,1,0,0,1.1222,Obsidian_rect,6,0,6,0,1,
66745b274e5c6af161d9cfcd,SCR,2024-06-25_12h39.35.215,LearnStrategy,2023.2.3,MacIntel,60.24096386,2,2,8,,,,,,,,7,08,,,,,,,,,,,,,7,1.173,1,,,,,,0.095248795,-0.399964066,1,0,0,1.1734,Peridotite_rect,7,0,7,0,1,
66745b274e5c6af161d9cfcd,SCR,2024-06-25_12h39.35.215,LearnStrategy,2023.2.3,MacIntel,60.24096386,2,2,9,,,,,,,,8,06,,,,,,,,,,,,,8,1.333,1,,,,,,0.412956696,-0.411615906,1,0,0,1.3328,Pumice_rect,8,0,8,0,1,
66745b274e5c6af161d9cfcd,SCR,2024-06-25_12h39.35.215,LearnStrategy,2023.2.3,MacIntel,60.24096386,2,2,10,,,,,,,,3,02,,,,,,,,,,,,,3,1.166,1,,,,,,0.16911438,-0.236574783,1,0,0,1.166,Diorite_rect,9,0,9,0,1,
66745b274e5c6af161d9cfcd,SCR,2024-06-25_12h39.35.215,LearnStrategy,2023.2.3,MacIntel,60.24096386,2,2,11,,,,,,,,1,14,,,,,,,,,,,,,1,2.087,1,,,,,,-0.382845345,-0.270678864,1,0,0,2.0869,Andesite_rect,10,0,10,0,1,
66745b274e5c6af161d9cfcd,SCR,2024-06-25_12h39.35.215,LearnStrategy,2023.2.3,MacIntel,60.24096386,2,2,12,,,,,,,,2,08,,,,,,,,,,,,,2,2.577,1,,,,,,-0.059060669,-0.262261353,1,0,0,2.5766,Basalt_rect,11,0,11,0,1,
66745b274e5c6af161d9cfcd,SCR,2024-06-25_12h39.35.215,LearnStrategy,2023.2.3,MacIntel,60.24096386,2,2,13,,,,,,,,4,03,,,,,,,,,,,,,4,5.985,1,,,,,,0.36535614,-0.247513046,1,0,0,5.9848,Gabbro_rect,12,0,12,0,1,
66745b274e5c6af161d9cfcd,SCR,2024-06-25_12h39.35.215,LearnStrategy,2023.2.3,MacIntel,60.24096386,2,2,14,,,,,,,,6,15,,,,,,,,,,,,,6,1.26,1,,,,,,-0.174276657,-0.403893356,1,0,0,1.2599,Pegmatite_rect,13,0,13,0,1,
66745b274e5c6af161d9cfcd,SCR,2024-06-25_12h39.35.215,LearnStrategy,2023.2.3,MacIntel,60.24096386,2,2,15,,,,,,,,4,05,,,,,,,,,,,,,4,2.678,1,,,,,,0.366572952,-0.256643143,1,0,0,2.6782,Gabbro_rect,14,0,14,0,1,
66745b274e5c6af161d9cfcd,SCR,2024-06-25_12h39.35.215,LearnStrategy,2023.2.3,MacIntel,60.24096386,2,2,16,,,,,,,,2,12,,,,,,,,,,,,,8,3.286,0,,,,,,0.419681168,-0.407448578,1,0,0,3.2856,Pumice_rect,15,0,15,0,1,
66745b274e5c6af161d9cfcd,SCR,2024-06-25_12h39.35.215,LearnStrategy,2023.2.3,MacIntel,60.24096386,3,1,1,-0.522579975,0.07937439,1,0,0,1.0865,Pumice_04,8,04,4,1,1.087,8,04,0.38413414,-0.395956116,1,0,0,0.9976,Pumice_rect,8,0.998,1,0,0,0,0,1,,,,,,,,,,,,,
66745b274e5c6af161d9cfcd,SCR,2024-06-25_12h39.35.215,LearnStrategy,2023.2.3,MacIntel,60.24096386,3,1,2,-0.402454109,-0.450497589,1,0,0,0.9865,Basalt_05,2,05,1,2,0.987,2,05,-0.111455078,-0.269177017,1,0,0,1.4375,Basalt_rect,2,1.438,1,1,0,1,0,1,,,,,,,,,,,,,
66745b274e5c6af161d9cfcd,SCR,2024-06-25_12h39.35.215,LearnStrategy,2023.2.3,MacIntel,60.24096386,3,1,3,-0.563513622,-0.266224899,1,0,0,1.069,Gabbro_11,4,11,2,1,1.069,4,11,0.352884293,-0.242516632,1,0,0,1.3302,Gabbro_rect,4,1.33,1,2,0,2,0,1,,,,,,,,,,,,,
66745b274e5c6af161d9cfcd,SCR,2024-06-25_12h39.35.215,LearnStrategy,2023.2.3,MacIntel,60.24096386,3,1,4,-0.241843414,-0.110784798,1,0,0,0.9018,Pumice_10,8,10,3,3,0.902,8,10,0.388236389,-0.402426682,1,0,0,1.4312,Pumice_rect,8,1.431,1,3,0,3,0,1,,,,,,,,,,,,,
66745b274e5c6af161d9cfcd,SCR,2024-06-25_12h39.35.215,LearnStrategy,2023.2.3,MacIntel,60.24096386,3,1,5,-0.344817734,-0.231451645,1,0,0,0.8996,Basalt_01,2,01,2,2,0.9,2,01,-0.117619247,-0.244795532,1,0,0,1.9524,Basalt_rect,2,1.952,1,4,0,4,0,1,,,,,,,,,,,,,
66745b274e5c6af161d9cfcd,SCR,2024-06-25_12h39.35.215,LearnStrategy,2023.2.3,MacIntel,60.24096386,3,1,6,-0.521016865,0.394919968,1,0,0,1.7004,Basalt_11,2,11,6,1,1.7,2,11,0.404643173,-0.388294296,1,0,0,1.8215,Pumice_rect,8,1.821,0,5,0,5,0,1,,,,,,,,,,,,,
66745b274e5c6af161d9cfcd,SCR,2024-06-25_12h39.35.215,LearnStrategy,2023.2.3,MacIntel,60.24096386,3,1,7,0.398428574,-0.28488121,1,0,0,1.0544,Gabbro_01,4,01,2,7,1.054,4,01,0.143110733,-0.245406113,1,0,0,0.9219,Diorite_rect,3,0.922,0,6,0,6,0,1,,,,,,,,,,,,,
66745b274e5c6af161d9cfcd,SCR,2024-06-25_12h39.35.215,LearnStrategy,2023.2.3,MacIntel,60.24096386,3,1,8,0.428784256,-0.464066162,1,0,0,1.0138,Obsidian_09,5,09,1,7,1.014,5,09,-0.423430099,-0.389743347,1,0,0,1.1119,Obsidian_rect,5,1.112,1,7,0,7,0,1,,,,,,,,,,,,,
66745b274e5c6af161d9cfcd,SCR,2024-06-25_12h39.35.215,LearnStrategy,2023.2.3,MacIntel,60.24096386,3,1,9,0.545382996,-0.263108597,1,0,0,1.1165,Peridotite_05,7,05,2,8,1.117,7,05,0.173851852,-0.409155197,1,0,0,1.8351,Peridotite_rect,7,1.835,1,8,0,8,0,1,,,,,,,,,,,,,
66745b274e5c6af161d9cfcd,SCR,2024-06-25_12h39.35.215,LearnStrategy,2023.2.3,MacIntel,60.24096386,3,1,10,-0.354318848,0.117898026,1,0,0,2.0674,Diorite_13,3,13,4,2,2.067,3,13,0.165210419,-0.262167206,1,0,0,1.3657,Diorite_rect,3,1.366,1,9,0,9,0,1,,,,,,,,,,,,,
66745b274e5c6af161d9cfcd,SCR,2024-06-25_12h39.35.215,LearnStrategy,2023.2.3,MacIntel,60.24096386,3,1,11,0.101399841,-0.274980011,1,0,0,0.7664,Pegmatite_05,6,05,2,5,0.766,6,05,0.118053818,-0.239052887,1,0,0,0.9245,Diorite_rect,3,0.925,0,10,0,10,0,1,,,,,,,,,,,,,
66745b274e5c6af161d9cfcd,SCR,2024-06-25_12h39.35.215,LearnStrategy,2023.2.3,MacIntel,60.24096386,3,1,12,-0.37432251,0.244661865,1,0,0,2.5558,Peridotite_12,7,12,5,2,2.556,7,12,0.155715408,-0.410315933,1,0,0,1.6796,Peridotite_rect,7,1.68,1,11,0,11,0,1,,,,,,,,,,,,,
66745b274e5c6af161d9cfcd,SCR,2024-06-25_12h39.35.215,LearnStrategy,2023.2.3,MacIntel,60.24096386,3,1,13,-0.224910736,0.078614273,1,0,0,0.7664,Pegmatite_10,6,10,4,3,0.766,1,11,-0.107917938,-0.411708603,1,0,0,1.917,Pegmatite_rect,6,1.917,1,12,0,12,0,1,,,,,,,,,,,,,
66745b274e5c6af161d9cfcd,SCR,2024-06-25_12h39.35.215,LearnStrategy,2023.2.3,MacIntel,60.24096386,3,1,14,-0.505320835,-0.132996979,1,0,0,1.1513,Basalt_14,2,14,3,1,1.151,2,14,0.408781357,-0.228467789,1,0,0,1.1949,Gabbro_rect,4,1.195,0,13,0,13,0,1,,,,,,,,,,,,,
66745b274e5c6af161d9cfcd,SCR,2024-06-25_12h39.35.215,LearnStrategy,2023.2.3,MacIntel,60.24096386,3,1,15,0.547634125,-0.071724701,1,0,0,1.4871,Andesite_09,1,09,3,8,1.487,1,09,-0.384971581,-0.248743896,1,0,0,1.4057,Andesite_rect,1,1.406,1,14,0,14,0,1,,,,,,,,,,,,,
66745b274e5c6af161d9cfcd,SCR,2024-06-25_12h39.35.215,LearnStrategy,2023.2.3,MacIntel,60.24096386,3,1,16,-0.511930962,0.082096062,1,0,0,0.9895,Pumice_04,8,04,4,1,0.989,8,04,0.326614227,-0.405942917,1,0,0,1.0386,Pumice_rect,8,1.039,1,15,0,15,0,1,,,,,,,,,,,,,
66745b274e5c6af161d9cfcd,SCR,2024-06-25_12h39.35.215,LearnStrategy,2023.2.3,MacIntel,60.24096386,3,2,1,,,,,,,,1,02,,,,,,,,,,,,,1,6.627,1,,,,,,-0.350342255,-0.245381012,1,0,0,6.6271,Andesite_rect,0,0,0,0,1,
66745b274e5c6af161d9cfcd,SCR,2024-06-25_12h39.35.215,LearnStrategy,2023.2.3,MacIntel,60.24096386,3,2,2,,,,,,,,3,07,,,,,,,,,,,,,3,1.171,1,,,,,,0.071190872,-0.247973328,1,0,0,1.171,Diorite_rect,1,0,1,0,1,
66745b274e5c6af161d9cfcd,SCR,2024-06-25_12h39.35.215,LearnStrategy,2023.2.3,MacIntel,60.24096386,3,2,3,,,,,,,,8,15,,,,,,,,,,,,,8,2.985,1,,,,,,0.415467606,-0.395619888,1,0,0,2.9847,Pumice_rect,2,0,2,0,1,
66745b274e5c6af161d9cfcd,SCR,2024-06-25_12h39.35.215,LearnStrategy,2023.2.3,MacIntel,60.24096386,3,2,4,,,,,,,,7,14,,,,,,,,,,,,,7,1.13,1,,,,,,0.128049622,-0.414072342,1,0,0,1.1305,Peridotite_rect,3,0,3,0,1,
66745b274e5c6af161d9cfcd,SCR,2024-06-25_12h39.35.215,LearnStrategy,2023.2.3,MacIntel,60.24096386,3,2,5,,,,,,,,8,13,,,,,,,,,,,,,8,2.832,1,,,,,,0.351314926,-0.405346909,1,0,0,2.8325,Pumice_rect,4,0,4,0,1,
66745b274e5c6af161d9cfcd,SCR,2024-06-25_12h39.35.215,LearnStrategy,2023.2.3,MacIntel,60.24096386,3,2,6,,,,,,,,6,08,,,,,,,,,,,,,6,1.768,1,,,,,,-0.159068375,-0.3908741,1,0,0,1.7684,Pegmatite_rect,5,0,5,0,1,
66745b274e5c6af161d9cfcd,SCR,2024-06-25_12h39.35.215,LearnStrategy,2023.2.3,MacIntel,60.24096386,3,2,7,,,,,,,,4,15,,,,,,,,,,,,,3,2.754,0,,,,,,0.109363785,-0.237751465,1,0,0,2.7537,Diorite_rect,6,0,6,0,1,
66745b274e5c6af161d9cfcd,SCR,2024-06-25_12h39.35.215,LearnStrategy,2023.2.3,MacIntel,60.24096386,3,2,8,,,,,,,,5,02,,,,,,,,,,,,,5,1.303,1,,,,,,-0.362152214,-0.417082367,1,0,0,1.3029,Obsidian_rect,7,0,7,0,1,
66745b274e5c6af161d9cfcd,SCR,2024-06-25_12h39.35.215,LearnStrategy,2023.2.3,MacIntel,60.24096386,3,2,9,,,,,,,,1,01,,,,,,,,,,,,,1,4.352,1,,,,,,-0.436350403,-0.236065369,1,0,0,4.3524,Andesite_rect,8,0,8,0,1,
66745b274e5c6af161d9cfcd,SCR,2024-06-25_12h39.35.215,LearnStrategy,2023.2.3,MacIntel,60.24096386,3,2,10,,,,,,,,4,13,,,,,,,,,,,,,1,1.702,0,,,,,,-0.379611206,-0.256173553,1,0,0,1.7022,Andesite_rect,9,0,9,0,1,
66745b274e5c6af161d9cfcd,SCR,2024-06-25_12h39.35.215,LearnStrategy,2023.2.3,MacIntel,60.24096386,3,2,11,,,,,,,,2,10,,,,,,,,,,,,,2,1.824,1,,,,,,-0.092846375,-0.248265915,1,0,0,1.8235,Basalt_rect,10,0,10,0,1,
66745b274e5c6af161d9cfcd,SCR,2024-06-25_12h39.35.215,LearnStrategy,2023.2.3,MacIntel,60.24096386,3,2,12,,,,,,,,7,13,,,,,,,,,,,,,7,1.288,1,,,,,,0.168449631,-0.408660507,1,0,0,1.2877,Peridotite_rect,11,0,11,0,1,
66745b274e5c6af161d9cfcd,SCR,2024-06-25_12h39.35.215,LearnStrategy,2023.2.3,MacIntel,60.24096386,3,2,13,,,,,,,,6,09,,,,,,,,,,,,,6,1.919,1,,,,,,-0.182146263,-0.382078705,1,0,0,1.9186,Pegmatite_rect,12,0,12,0,1,
66745b274e5c6af161d9cfcd,SCR,2024-06-25_12h39.35.215,LearnStrategy,2023.2.3,MacIntel,60.24096386,3,2,14,,,,,,,,2,16,,,,,,,,,,,,,4,4.019,0,,,,,,0.393824081,-0.245814438,1,0,0,4.0192,Gabbro_rect,13,0,13,0,1,
66745b274e5c6af161d9cfcd,SCR,2024-06-25_12h39.35.215,LearnStrategy,2023.2.3,MacIntel,60.24096386,3,2,15,,,,,,,,3,06,,,,,,,,,,,,,3,1.43,1,,,,,,0.115380554,-0.257969284,1,0,0,1.4296,Diorite_rect,14,0,14,0,1,
66745b274e5c6af161d9cfcd,SCR,2024-06-25_12h39.35.215,LearnStrategy,2023.2.3,MacIntel,60.24096386,3,2,16,,,,,,,,5,10,,,,,,,,,,,,,5,1.315,1,,,,,,-0.401263351,-0.387238922,1,0,0,1.3155,Obsidian_rect,15,0,15,0,1,
66745b274e5c6af161d9cfcd,SCR,2024-06-25_12h39.35.215,LearnStrategy,2023.2.3,MacIntel,60.24096386,4,1,1,-0.54200655,0.390912685,1,0,0,1.2514,Basalt_11,2,11,6,1,1.251,2,11,-0.095817795,-0.252190399,1,0,0,2.5836,Basalt_rect,2,2.584,1,0,0,0,0,1,,,,,,,,,,,,,
66745b274e5c6af161d9cfcd,SCR,2024-06-25_12h39.35.215,LearnStrategy,2023.2.3,MacIntel,60.24096386,4,1,2,-0.061752319,-0.201455994,1,0,0,0.9199,Peridotite_06,7,06,2,4,0.92,7,06,0.142086029,-0.396123886,1,0,0,0.856,Peridotite_rect,7,0.856,1,1,0,1,0,1,,,,,,,,,,,,,
66745b274e5c6af161d9cfcd,SCR,2024-06-25_12h39.35.215,LearnStrategy,2023.2.3,MacIntel,60.24096386,4,1,3,0.528773346,-0.401315842,1,0,0,1.1387,Gabbro_12,4,12,1,8,1.139,4,12,-0.091978226,-0.251542587,1,0,0,1.3895,Basalt_rect,2,1.389,0,2,0,2,0,1,,,,,,,,,,,,,
66745b274e5c6af161d9cfcd,SCR,2024-06-25_12h39.35.215,LearnStrategy,2023.2.3,MacIntel,60.24096386,4,1,4,-0.253450584,0.413182182,1,0,0,1.1206,Basalt_09,2,09,6,3,1.121,2,09,-0.10205574,-0.253589249,1,0,0,1.8656,Basalt_rect,2,1.866,1,3,0,3,0,1,,,,,,,,,,,,,
66745b274e5c6af161d9cfcd,SCR,2024-06-25_12h39.35.215,LearnStrategy,2023.2.3,MacIntel,60.24096386,4,1,5,0.372942123,0.419514847,1,0,0,1.0522,Pegmatite_16,6,16,6,7,1.052,6,16,-0.12594986,-0.406160278,1,0,0,1.162,Pegmatite_rect,6,1.162,1,4,0,4,0,1,,,,,,,,,,,,,
66745b274e5c6af161d9cfcd,SCR,2024-06-25_12h39.35.215,LearnStrategy,2023.2.3,MacIntel,60.24096386,4,1,6,-0.566014767,0.099253922,1,0,0,1.1365,Pumice_04,8,04,4,1,1.136,8,04,0.391099472,-0.415098419,1,0,0,1.0562,Pumice_rect,8,1.056,1,5,0,5,0,1,,,,,,,,,,,,,
66745b274e5c6af161d9cfcd,SCR,2024-06-25_12h39.35.215,LearnStrategy,2023.2.3,MacIntel,60.24096386,4,1,7,-0.536389503,-0.250856781,1,0,0,0.8898,Gabbro_11,4,11,2,1,0.89,4,11,-0.098768387,-0.238030853,1,0,0,1.2695,Basalt_rect,2,1.269,0,6,0,6,0,1,,,,,,,,,,,,,
66745b274e5c6af161d9cfcd,SCR,2024-06-25_12h39.35.215,LearnStrategy,2023.2.3,MacIntel,60.24096386,4,1,8,-0.43598156,0.110439835,1,0,0,1.1517,Diorite_13,3,13,4,2,1.152,3,13,0.175762177,-0.244254227,1,0,0,1.117,Diorite_rect,3,1.117,1,7,0,7,0,1,,,,,,,,,,,,,
66745b274e5c6af161d9cfcd,SCR,2024-06-25_12h39.35.215,LearnStrategy,2023.2.3,MacIntel,60.24096386,4,1,9,0.556204987,-0.104377136,1,0,0,1.4666,Andesite_09,1,09,3,8,1.467,1,09,-0.104363708,-0.247436981,1,0,0,1.4556,Basalt_rect,2,1.456,0,8,0,8,0,1,,,,,,,,,,,,,
66745b274e5c6af161d9cfcd,SCR,2024-06-25_12h39.35.215,LearnStrategy,2023.2.3,MacIntel,60.24096386,4,1,10,0.076879578,0.276218624,1,0,0,1.3016,Pumice_08,8,08,5,5,1.302,8,08,0.39999176,-0.409398193,1,0,0,0.8623,Pumice_rect,8,0.862,1,9,0,9,0,1,,,,,,,,,,,,,
66745b274e5c6af161d9cfcd,SCR,2024-06-25_12h39.35.215,LearnStrategy,2023.2.3,MacIntel,60.24096386,4,1,11,0.246247406,-0.424557724,1,0,0,1.1032,Obsidian_12,5,12,1,6,1.103,5,12,-0.440899506,-0.404505463,1,0,0,0.7033,Obsidian_rect,5,0.703,1,10,0,10,0,1,,,,,,,,,,,,,
66745b274e5c6af161d9cfcd,SCR,2024-06-25_12h39.35.215,LearnStrategy,2023.2.3,MacIntel,60.24096386,4,1,12,0.396243134,-0.240097961,1,0,0,1.0197,Gabbro_01,4,01,2,7,1.02,4,01,0.149923248,-0.261483459,1,0,0,2.1269,Diorite_rect,3,2.127,0,11,0,11,0,1,,,,,,,,,,,,,
66745b274e5c6af161d9cfcd,SCR,2024-06-25_12h39.35.215,LearnStrategy,2023.2.3,MacIntel,60.24096386,4,1,13,-0.06638176,0.102140198,1,0,0,0.6871,Gabbro_14,4,14,4,4,0.687,4,14,0.381894226,-0.242803192,1,0,0,2.042,Gabbro_rect,4,2.042,1,12,0,12,0,1,,,,,,,,,,,,,
66745b274e5c6af161d9cfcd,SCR,2024-06-25_12h39.35.215,LearnStrategy,2023.2.3,MacIntel,60.24096386,4,1,14,-0.568377819,-0.110648003,1,0,0,0.9687,Basalt_14,2,14,3,1,0.969,2,14,0.383308029,-0.23763504,1,0,0,1.2998,Gabbro_rect,4,1.3,0,13,0,13,0,1,,,,,,,,,,,,,
66745b274e5c6af161d9cfcd,SCR,2024-06-25_12h39.35.215,LearnStrategy,2023.2.3,MacIntel,60.24096386,4,1,15,-0.079827042,0.088033752,1,0,0,1.0009,Gabbro_14,4,14,4,4,1.001,2,09,0.358555908,-0.254135666,1,0,0,1.2261,Gabbro_rect,4,1.226,1,14,0,14,0,1,,,,,,,,,,,,,
66745b274e5c6af161d9cfcd,SCR,2024-06-25_12h39.35.215,LearnStrategy,2023.2.3,MacIntel,60.24096386,4,1,16,-0.58129425,-0.089411812,1,0,0,0.8306,Basalt_14,2,14,3,1,0.831,4,10,-0.150940933,-0.242638016,1,0,0,0.7491,Basalt_rect,2,0.749,1,15,0,15,0,1,,,,,,,,,,,,,
66745b274e5c6af161d9cfcd,SCR,2024-06-25_12h39.35.215,LearnStrategy,2023.2.3,MacIntel,60.24096386,4,2,1,,,,,,,,1,04,,,,,,,,,,,,,1,2.782,1,,,,,,-0.386922073,-0.256696777,1,0,0,2.7818,Andesite_rect,0,0,0,0,1,
66745b274e5c6af161d9cfcd,SCR,2024-06-25_12h39.35.215,LearnStrategy,2023.2.3,MacIntel,60.24096386,4,2,2,,,,,,,,8,16,,,,,,,,,,,,,8,1.247,1,,,,,,0.329670029,-0.390878983,1,0,0,1.2471,Pumice_rect,1,0,1,0,1,
66745b274e5c6af161d9cfcd,SCR,2024-06-25_12h39.35.215,LearnStrategy,2023.2.3,MacIntel,60.24096386,4,2,3,,,,,,,,1,03,,,,,,,,,,,,,1,1.763,1,,,,,,-0.328853989,-0.248930054,1,0,0,1.763,Andesite_rect,2,0,2,0,1,
66745b274e5c6af161d9cfcd,SCR,2024-06-25_12h39.35.215,LearnStrategy,2023.2.3,MacIntel,60.24096386,4,2,4,,,,,,,,8,15,,,,,,,,,,,,,8,1.221,1,,,,,,0.370484848,-0.41481575,1,0,0,1.2206,Pumice_rect,3,0,3,0,1,
66745b274e5c6af161d9cfcd,SCR,2024-06-25_12h39.35.215,LearnStrategy,2023.2.3,MacIntel,60.24096386,4,2,5,,,,,,,,7,08,,,,,,,,,,,,,7,1.625,1,,,,,,0.126366806,-0.409527893,1,0,0,1.625,Peridotite_rect,4,0,4,0,1,
66745b274e5c6af161d9cfcd,SCR,2024-06-25_12h39.35.215,LearnStrategy,2023.2.3,MacIntel,60.24096386,4,2,6,,,,,,,,2,04,,,,,,,,,,,,,2,2.468,1,,,,,,-0.092081757,-0.249287796,1,0,0,2.4679,Basalt_rect,5,0,5,0,1,
66745b274e5c6af161d9cfcd,SCR,2024-06-25_12h39.35.215,LearnStrategy,2023.2.3,MacIntel,60.24096386,4,2,7,,,,,,,,5,11,,,,,,,,,,,,,5,0.982,1,,,,,,-0.346514854,-0.393858871,1,0,0,0.9818,Obsidian_rect,6,0,6,0,1,
66745b274e5c6af161d9cfcd,SCR,2024-06-25_12h39.35.215,LearnStrategy,2023.2.3,MacIntel,60.24096386,4,2,8,,,,,,,,2,12,,,,,,,,,,,,,8,1.541,0,,,,,,0.436822739,-0.407937698,1,0,0,1.5406,Pumice_rect,7,0,7,0,1,
66745b274e5c6af161d9cfcd,SCR,2024-06-25_12h39.35.215,LearnStrategy,2023.2.3,MacIntel,60.24096386,4,2,9,,,,,,,,5,07,,,,,,,,,,,,,5,1.701,1,,,,,,-0.350852814,-0.418773804,1,0,0,1.7007,Obsidian_rect,8,0,8,0,1,
66745b274e5c6af161d9cfcd,SCR,2024-06-25_12h39.35.215,LearnStrategy,2023.2.3,MacIntel,60.24096386,4,2,10,,,,,,,,3,02,,,,,,,,,,,,,3,1.539,1,,,,,,0.120628967,-0.242044754,1,0,0,1.5395,Diorite_rect,9,0,9,0,1,
66745b274e5c6af161d9cfcd,SCR,2024-06-25_12h39.35.215,LearnStrategy,2023.2.3,MacIntel,60.24096386,4,2,11,,,,,,,,6,09,,,,,,,,,,,,,6,1.586,1,,,,,,-0.135743103,-0.405109482,1,0,0,1.5864,Pegmatite_rect,10,0,10,0,1,
66745b274e5c6af161d9cfcd,SCR,2024-06-25_12h39.35.215,LearnStrategy,2023.2.3,MacIntel,60.24096386,4,2,12,,,,,,,,4,08,,,,,,,,,,,,,4,1.736,1,,,,,,0.3807827,-0.255628891,1,0,0,1.7356,Gabbro_rect,11,0,11,0,1,
66745b274e5c6af161d9cfcd,SCR,2024-06-25_12h39.35.215,LearnStrategy,2023.2.3,MacIntel,60.24096386,4,2,13,,,,,,,,6,08,,,,,,,,,,,,,6,2.454,1,,,,,,-0.101797791,-0.386982574,1,0,0,2.4541,Pegmatite_rect,12,0,12,0,1,
66745b274e5c6af161d9cfcd,SCR,2024-06-25_12h39.35.215,LearnStrategy,2023.2.3,MacIntel,60.24096386,4,2,14,,,,,,,,7,13,,,,,,,,,,,,,7,1.098,1,,,,,,0.169892502,-0.384474411,1,0,0,1.0985,Peridotite_rect,13,0,13,0,1,
66745b274e5c6af161d9cfcd,SCR,2024-06-25_12h39.35.215,LearnStrategy,2023.2.3,MacIntel,60.24096386,4,2,15,,,,,,,,3,07,,,,,,,,,,,,,3,3.054,1,,,,,,0.140608597,-0.233969879,1,0,0,3.0541,Diorite_rect,14,0,14,0,1,
66745b274e5c6af161d9cfcd,SCR,2024-06-25_12h39.35.215,LearnStrategy,2023.2.3,MacIntel,60.24096386,4,2,16,,,,,,,,4,09,,,,,,,,,,,,,4,2.767,1,,,,,,0.367775955,-0.246225357,1,0,0,2.7671,Gabbro_rect,15,0,15,0,1,
66745b274e5c6af161d9cfcd,SCR,2024-06-25_12h39.35.215,LearnStrategy,2023.2.3,MacIntel,60.24096386,5,1,1,-0.2410952,0.411242695,1,0,0,5.2709,Basalt_09,2,09,6,3,5.271,2,09,-0.10374382,-0.24703331,1,0,0,1.5836,Basalt_rect,2,1.584,1,0,0,0,0,1,,,,,,,,,,,,,
66745b274e5c6af161d9cfcd,SCR,2024-06-25_12h39.35.215,LearnStrategy,2023.2.3,MacIntel,60.24096386,5,1,2,0.231258469,0.421814156,1,0,0,0.9817,Gabbro_16,4,16,6,6,0.982,7,06,0.393589401,-0.237635803,1,0,0,1.1219,Gabbro_rect,4,1.122,1,1,0,1,0,1,,,,,,,,,,,,,
66745b274e5c6af161d9cfcd,SCR,2024-06-25_12h39.35.215,LearnStrategy,2023.2.3,MacIntel,60.24096386,5,1,3,-0.085794907,0.126883888,1,0,0,0.7141,Gabbro_14,4,14,4,4,0.714,2,05,0.325888138,-0.244352341,1,0,0,2.2063,Gabbro_rect,4,2.206,1,2,0,2,0,1,,,,,,,,,,,,,
66745b274e5c6af161d9cfcd,SCR,2024-06-25_12h39.35.215,LearnStrategy,2023.2.3,MacIntel,60.24096386,5,1,4,0.374046173,0.281716003,1,0,0,0.8035,Obsidian_14,5,14,5,7,0.804,5,05,-0.416812134,-0.402465591,1,0,0,1.0647,Obsidian_rect,5,1.065,1,3,0,3,0,1,,,,,,,,,,,,,
66745b274e5c6af161d9cfcd,SCR,2024-06-25_12h39.35.215,LearnStrategy,2023.2.3,MacIntel,60.24096386,5,1,5,-0.063204727,0.090882683,1,0,0,0.7735,Gabbro_14,4,14,4,4,0.774,2,11,0.404000626,-0.246415482,1,0,0,1.3797,Gabbro_rect,4,1.38,1,4,0,4,0,1,,,,,,,,,,,,,
66745b274e5c6af161d9cfcd,SCR,2024-06-25_12h39.35.215,LearnStrategy,2023.2.3,MacIntel,60.24096386,5,1,6,-0.530918427,-0.268230133,1,0,0,0.8506,Gabbro_11,4,11,2,1,0.851,6,11,0.34899559,-0.238148041,1,0,0,2.9088,Gabbro_rect,4,2.909,1,5,0,5,0,1,,,,,,,,,,,,,
66745b274e5c6af161d9cfcd,SCR,2024-06-25_12h39.35.215,LearnStrategy,2023.2.3,MacIntel,60.24096386,5,1,7,-0.395003014,-0.265457458,1,0,0,1.1197,Basalt_01,2,01,2,2,1.12,8,10,-0.109163437,-0.246289673,1,0,0,2.3982,Basalt_rect,2,2.398,1,6,0,6,0,1,,,,,,,,,,,,,
66745b274e5c6af161d9cfcd,SCR,2024-06-25_12h39.35.215,LearnStrategy,2023.2.3,MacIntel,60.24096386,5,1,8,0.575970459,-0.102600212,1,0,0,0.901,Andesite_09,1,09,3,8,0.901,8,02,-0.372074966,-0.230731049,1,0,0,1.7961,Andesite_rect,1,1.796,1,7,0,7,0,1,,,,,,,,,,,,,
66745b274e5c6af161d9cfcd,SCR,2024-06-25_12h39.35.215,LearnStrategy,2023.2.3,MacIntel,60.24096386,5,1,9,0.225541458,-0.104841156,1,0,0,2.2478,Basalt_02,2,02,3,6,2.248,2,05,-0.125268936,-0.257791595,1,0,0,1.1635,Basalt_rect,2,1.163,1,8,0,8,0,1,,,,,,,,,,,,,
66745b274e5c6af161d9cfcd,SCR,2024-06-25_12h39.35.215,LearnStrategy,2023.2.3,MacIntel,60.24096386,5,1,10,0.5207341,0.080061607,1,0,0,1.0997,Gabbro_10,4,10,4,8,1.1,4,01,0.405429382,-0.250329742,1,0,0,1.9335,Gabbro_rect,4,1.933,1,9,0,9,0,1,,,,,,,,,,,,,
66745b274e5c6af161d9cfcd,SCR,2024-06-25_12h39.35.215,LearnStrategy,2023.2.3,MacIntel,60.24096386,5,1,11,-0.568182888,-0.0606036,1,0,0,4.9326,Basalt_14,2,14,3,1,4.933,4,10,-0.082212982,-0.249955978,1,0,0,1.6295,Basalt_rect,2,1.63,1,10,0,10,0,1,,,,,,,,,,,,,
66745b274e5c6af161d9cfcd,SCR,2024-06-25_12h39.35.215,LearnStrategy,2023.2.3,MacIntel,60.24096386,5,1,12,-0.551340504,0.404217548,1,0,0,2.2557,Basalt_11,2,11,6,1,2.256,1,16,0.397818298,-0.389393616,1,0,0,2.4139,Pumice_rect,8,2.414,0,11,0,11,0,1,,,,,,,,,,,,,
66745b274e5c6af161d9cfcd,SCR,2024-06-25_12h39.35.215,LearnStrategy,2023.2.3,MacIntel,60.24096386,5,1,13,-0.250922089,0.422033672,1,0,0,1.9515,Basalt_09,2,09,6,3,1.952,4,12,-0.09570694,-0.250483017,1,0,0,1.1947,Basalt_rect,2,1.195,1,12,0,12,0,1,,,,,,,,,,,,,
66745b274e5c6af161d9cfcd,SCR,2024-06-25_12h39.35.215,LearnStrategy,2023.2.3,MacIntel,60.24096386,5,1,14,-0.541875381,0.400254459,1,0,0,0.8968,Basalt_11,2,11,6,1,0.897,4,01,-0.107217636,-0.252984848,1,0,0,1.1012,Basalt_rect,2,1.101,1,13,0,13,0,1,,,,,,,,,,,,,
66745b274e5c6af161d9cfcd,SCR,2024-06-25_12h39.35.215,LearnStrategy,2023.2.3,MacIntel,60.24096386,5,1,15,-0.218264389,-0.413778,1,0,0,1.8044,Andesite_05,1,05,1,3,1.804,2,01,-0.380692177,-0.240215073,1,0,0,1.5799,Andesite_rect,1,1.58,1,14,0,14,0,1,,,,,,,,,,,,,
66745b274e5c6af161d9cfcd,SCR,2024-06-25_12h39.35.215,LearnStrategy,2023.2.3,MacIntel,60.24096386,5,1,16,-0.419643021,-0.271675491,1,0,0,0.9362,Basalt_01,2,01,2,2,0.936,3,12,-0.186442223,-0.256886673,1,0,0,1.2568,Basalt_rect,2,1.257,1,15,0,15,0,1,,,,,,,,,,,,,
66745b274e5c6af161d9cfcd,SCR,2024-06-25_12h39.35.215,LearnStrategy,2023.2.3,MacIntel,60.24096386,5,2,1,,,,,,,,2,10,,,,,,,,,,,,,2,1.655,1,,,,,,-0.133880234,-0.246958008,1,0,0,1.6551,Basalt_rect,0,0,0,0,1,
66745b274e5c6af161d9cfcd,SCR,2024-06-25_12h39.35.215,LearnStrategy,2023.2.3,MacIntel,60.24096386,5,2,2,,,,,,,,3,16,,,,,,,,,,,,,3,7.105,1,,,,,,0.20867012,-0.251584778,1,0,0,7.1049,Diorite_rect,1,0,1,0,1,
66745b274e5c6af161d9cfcd,SCR,2024-06-25_12h39.35.215,LearnStrategy,2023.2.3,MacIntel,60.24096386,5,2,3,,,,,,,,5,02,,,,,,,,,,,,,5,3.816,1,,,,,,-0.344157104,-0.394273453,1,0,0,3.8156,Obsidian_rect,2,0,2,0,1,
66745b274e5c6af161d9cfcd,SCR,2024-06-25_12h39.35.215,LearnStrategy,2023.2.3,MacIntel,60.24096386,5,2,4,,,,,,,,4,15,,,,,,,,,,,,,3,1.233,0,,,,,,0.096785812,-0.237063293,1,0,0,1.2334,Diorite_rect,3,0,3,0,1,
66745b274e5c6af161d9cfcd,SCR,2024-06-25_12h39.35.215,LearnStrategy,2023.2.3,MacIntel,60.24096386,5,2,5,,,,,,,,6,13,,,,,,,,,,,,,6,1.441,1,,,,,,-0.152488708,-0.382551041,1,0,0,1.4409,Pegmatite_rect,4,0,4,0,1,
66745b274e5c6af161d9cfcd,SCR,2024-06-25_12h39.35.215,LearnStrategy,2023.2.3,MacIntel,60.24096386,5,2,6,,,,,,,,5,04,,,,,,,,,,,,,5,0.988,1,,,,,,-0.358244781,-0.402451324,1,0,0,0.9877,Obsidian_rect,5,0,5,0,1,
66745b274e5c6af161d9cfcd,SCR,2024-06-25_12h39.35.215,LearnStrategy,2023.2.3,MacIntel,60.24096386,5,2,7,,,,,,,,2,16,,,,,,,,,,,,,4,2.664,0,,,,,,0.431502457,-0.250795364,1,0,0,2.6644,Gabbro_rect,6,0,6,0,1,
66745b274e5c6af161d9cfcd,SCR,2024-06-25_12h39.35.215,LearnStrategy,2023.2.3,MacIntel,60.24096386,5,2,8,,,,,,,,7,16,,,,,,,,,,,,,4,1.511,0,,,,,,0.411990051,-0.254243546,1,0,0,1.5108,Gabbro_rect,7,0,7,0,1,
66745b274e5c6af161d9cfcd,SCR,2024-06-25_12h39.35.215,LearnStrategy,2023.2.3,MacIntel,60.24096386,5,2,9,,,,,,,,4,05,,,,,,,,,,,,,4,1.298,1,,,,,,0.401693954,-0.250608292,1,0,0,1.2985,Gabbro_rect,8,0,8,0,1,
66745b274e5c6af161d9cfcd,SCR,2024-06-25_12h39.35.215,LearnStrategy,2023.2.3,MacIntel,60.24096386,5,2,10,,,,,,,,6,07,,,,,,,,,,,,,6,1.217,1,,,,,,-0.140950775,-0.38641922,1,0,0,1.2172,Pegmatite_rect,9,0,9,0,1,
66745b274e5c6af161d9cfcd,SCR,2024-06-25_12h39.35.215,LearnStrategy,2023.2.3,MacIntel,60.24096386,5,2,11,,,,,,,,7,10,,,,,,,,,,,,,7,1.166,1,,,,,,0.140717697,-0.389346237,1,0,0,1.1658,Peridotite_rect,10,0,10,0,1,
66745b274e5c6af161d9cfcd,SCR,2024-06-25_12h39.35.215,LearnStrategy,2023.2.3,MacIntel,60.24096386,5,2,12,,,,,,,,8,03,,,,,,,,,,,,,8,0.93,1,,,,,,0.305106964,-0.401198883,1,0,0,0.9303,Pumice_rect,11,0,11,0,1,
66745b274e5c6af161d9cfcd,SCR,2024-06-25_12h39.35.215,LearnStrategy,2023.2.3,MacIntel,60.24096386,5,2,13,,,,,,,,3,06,,,,,,,,,,,,,3,1.289,1,,,,,,0.137512741,-0.250376816,1,0,0,1.2888,Diorite_rect,12,0,12,0,1,
66745b274e5c6af161d9cfcd,SCR,2024-06-25_12h39.35.215,LearnStrategy,2023.2.3,MacIntel,60.24096386,5,2,14,,,,,,,,1,01,,,,,,,,,,,,,1,1.039,1,,,,,,-0.338628502,-0.241942368,1,0,0,1.0387,Andesite_rect,13,0,13,0,1,
66745b274e5c6af161d9cfcd,SCR,2024-06-25_12h39.35.215,LearnStrategy,2023.2.3,MacIntel,60.24096386,5,2,15,,,,,,,,1,02,,,,,,,,,,,,,1,1.867,1,,,,,,-0.391414948,-0.269442673,1,0,0,1.8667,Andesite_rect,14,0,14,0,1,
66745b274e5c6af161d9cfcd,SCR,2024-06-25_12h39.35.215,LearnStrategy,2023.2.3,MacIntel,60.24096386,5,2,16,,,,,,,,8,13,,,,,,,,,,,,,8,1.208,1,,,,,,0.404581223,-0.404191132,1,0,0,1.208,Pumice_rect,15,0,15,0,1,
66745b274e5c6af161d9cfcd,SCR,2024-06-25_12h39.35.215,LearnStrategy,2023.2.3,MacIntel,60.24096386,6,1,1,-0.37022583,0.240352859,1,0,0,0.9565,Peridotite_12,7,12,5,2,0.957,7,12,0.147505875,-0.384532089,1,0,0,0.915,Peridotite_rect,7,0.915,1,0,0,0,0,1,,,,,,,,,,,,,
66745b274e5c6af161d9cfcd,SCR,2024-06-25_12h39.35.215,LearnStrategy,2023.2.3,MacIntel,60.24096386,6,1,2,0.073086929,-0.085991058,1,0,0,0.7362,Pumice_02,8,02,3,5,0.736,3,14,0.382290497,-0.378245239,1,0,0,1.4561,Pumice_rect,8,1.456,1,1,0,1,0,1,,,,,,,,,,,,,
66745b274e5c6af161d9cfcd,SCR,2024-06-25_12h39.35.215,LearnStrategy,2023.2.3,MacIntel,60.24096386,6,1,3,0.237541122,-0.097581253,1,0,0,1.1695,Basalt_02,2,02,3,6,1.169,5,06,-0.104172897,-0.271705856,1,0,0,1.3606,Basalt_rect,2,1.361,1,2,0,2,0,1,,,,,,,,,,,,,
66745b274e5c6af161d9cfcd,SCR,2024-06-25_12h39.35.215,LearnStrategy,2023.2.3,MacIntel,60.24096386,6,1,4,0.070150986,-0.392597656,1,0,0,0.7222,Obsidian_06,5,06,1,5,0.722,4,11,-0.384624596,-0.389710922,1,0,0,1.0003,Obsidian_rect,5,1,1,3,0,3,0,1,,,,,,,,,,,,,
66745b274e5c6af161d9cfcd,SCR,2024-06-25_12h39.35.215,LearnStrategy,2023.2.3,MacIntel,60.24096386,6,1,5,-0.240839767,0.097870102,1,0,0,1.0982,Pegmatite_10,6,10,4,3,1.098,2,14,-0.03619606,-0.382651672,1,0,0,1.591,Pegmatite_rect,6,1.591,1,4,0,4,0,1,,,,,,,,,,,,,
66745b274e5c6af161d9cfcd,SCR,2024-06-25_12h39.35.215,LearnStrategy,2023.2.3,MacIntel,60.24096386,6,1,6,-0.072408295,0.114494019,1,0,0,0.7185,Gabbro_14,4,14,4,4,0.719,8,02,0.379948273,-0.245666199,1,0,0,0.9813,Gabbro_rect,4,0.981,1,5,0,5,0,1,,,,,,,,,,,,,
66745b274e5c6af161d9cfcd,SCR,2024-06-25_12h39.35.215,LearnStrategy,2023.2.3,MacIntel,60.24096386,6,1,7,0.100866852,0.081763611,1,0,0,0.5869,Obsidian_05,5,05,4,5,0.587,2,02,-0.41846508,-0.401513672,1,0,0,0.7653,Obsidian_rect,5,0.765,1,6,0,6,0,1,,,,,,,,,,,,,
66745b274e5c6af161d9cfcd,SCR,2024-06-25_12h39.35.215,LearnStrategy,2023.2.3,MacIntel,60.24096386,6,1,8,0.267005539,-0.117046547,1,0,0,0.6833,Basalt_02,2,02,3,6,0.683,7,07,-0.137323532,-0.244999008,1,0,0,0.7122,Basalt_rect,2,0.712,1,7,0,7,0,1,,,,,,,,,,,,,
66745b274e5c6af161d9cfcd,SCR,2024-06-25_12h39.35.215,LearnStrategy,2023.2.3,MacIntel,60.24096386,6,1,9,0.503477631,-0.092322426,1,0,0,0.6556,Andesite_09,1,09,3,8,0.656,6,16,-0.39780056,-0.239651489,1,0,0,1.7919,Andesite_rect,1,1.792,1,8,0,8,0,1,,,,,,,,,,,,,
66745b274e5c6af161d9cfcd,SCR,2024-06-25_12h39.35.215,LearnStrategy,2023.2.3,MacIntel,60.24096386,6,1,10,-0.348497963,0.11574276,1,0,0,1.1132,Diorite_13,3,13,4,2,1.113,4,16,0.087183609,-0.236269836,1,0,0,1.4632,Diorite_rect,3,1.463,1,9,0,9,0,1,,,,,,,,,,,,,
66745b274e5c6af161d9cfcd,SCR,2024-06-25_12h39.35.215,LearnStrategy,2023.2.3,MacIntel,60.24096386,6,1,11,-0.537750702,0.425412388,1,0,0,1.0878,Basalt_11,2,11,6,1,1.088,4,16,-0.092532578,-0.242404022,1,0,0,1.295,Basalt_rect,2,1.295,1,10,0,10,0,1,,,,,,,,,,,,,
66745b274e5c6af161d9cfcd,SCR,2024-06-25_12h39.35.215,LearnStrategy,2023.2.3,MacIntel,60.24096386,6,1,12,-0.226859512,0.42260746,1,0,0,0.8455,Basalt_09,2,09,6,3,0.846,4,12,-0.187864799,-0.267191467,1,0,0,1.2027,Basalt_rect,2,1.203,1,11,0,11,0,1,,,,,,,,,,,,,
66745b274e5c6af161d9cfcd,SCR,2024-06-25_12h39.35.215,LearnStrategy,2023.2.3,MacIntel,60.24096386,6,1,13,-0.387729225,0.428255177,1,0,0,0.8532,Andesite_06,1,06,6,2,0.853,2,11,-0.402981987,-0.261543427,1,0,0,1.3612,Andesite_rect,1,1.361,1,12,0,12,0,1,,,,,,,,,,,,,
66745b274e5c6af161d9cfcd,SCR,2024-06-25_12h39.35.215,LearnStrategy,2023.2.3,MacIntel,60.24096386,6,1,14,-0.371521835,0.115529175,1,0,0,0.9682,Diorite_13,3,13,4,2,0.968,1,07,0.130045395,-0.230803757,1,0,0,0.7923,Diorite_rect,3,0.792,1,13,0,13,0,1,,,,,,,,,,,,,
66745b274e5c6af161d9cfcd,SCR,2024-06-25_12h39.35.215,LearnStrategy,2023.2.3,MacIntel,60.24096386,6,1,15,-0.087878799,-0.246599426,1,0,0,0.6848,Peridotite_06,7,06,2,4,0.685,2,14,0.154771652,-0.405002899,1,0,0,1.0054,Peridotite_rect,7,1.005,1,14,0,14,0,1,,,,,,,,,,,,,
66745b274e5c6af161d9cfcd,SCR,2024-06-25_12h39.35.215,LearnStrategy,2023.2.3,MacIntel,60.24096386,6,1,16,0.252653656,-0.138791351,1,0,0,0.686,Basalt_02,2,02,3,6,0.686,7,07,-0.106072617,-0.238246689,1,0,0,1.5789,Basalt_rect,2,1.579,1,15,0,15,0,1,,,,,,,,,,,,,
66745b274e5c6af161d9cfcd,SCR,2024-06-25_12h39.35.215,LearnStrategy,2023.2.3,MacIntel,60.24096386,6,2,1,,,,,,,,3,08,,,,,,,,,,,,,3,1.075,1,,,,,,0.104538879,-0.237919235,1,0,0,1.0749,Diorite_rect,0,0,0,0,1,
66745b274e5c6af161d9cfcd,SCR,2024-06-25_12h39.35.215,LearnStrategy,2023.2.3,MacIntel,60.24096386,6,2,2,,,,,,,,8,06,,,,,,,,,,,,,8,1.192,1,,,,,,0.405984726,-0.41381218,1,0,0,1.1925,Pumice_rect,1,0,1,0,1,
66745b274e5c6af161d9cfcd,SCR,2024-06-25_12h39.35.215,LearnStrategy,2023.2.3,MacIntel,60.24096386,6,2,3,,,,,,,,4,03,,,,,,,,,,,,,4,4.773,1,,,,,,0.377247238,-0.236061401,1,0,0,4.7729,Gabbro_rect,2,0,2,0,1,
66745b274e5c6af161d9cfcd,SCR,2024-06-25_12h39.35.215,LearnStrategy,2023.2.3,MacIntel,60.24096386,6,2,4,,,,,,,,7,02,,,,,,,,,,,,,7,1.074,1,,,,,,0.118167343,-0.421928787,1,0,0,1.0735,Peridotite_rect,3,0,3,0,1,
66745b274e5c6af161d9cfcd,SCR,2024-06-25_12h39.35.215,LearnStrategy,2023.2.3,MacIntel,60.24096386,6,2,5,,,,,,,,3,11,,,,,,,,,,,,,3,1.224,1,,,,,,0.138897552,-0.243751221,1,0,0,1.2238,Diorite_rect,4,0,4,0,1,
66745b274e5c6af161d9cfcd,SCR,2024-06-25_12h39.35.215,LearnStrategy,2023.2.3,MacIntel,60.24096386,6,2,6,,,,,,,,6,15,,,,,,,,,,,,,6,1.12,1,,,,,,-0.115447006,-0.418687363,1,0,0,1.1199,Pegmatite_rect,5,0,5,0,1,
66745b274e5c6af161d9cfcd,SCR,2024-06-25_12h39.35.215,LearnStrategy,2023.2.3,MacIntel,60.24096386,6,2,7,,,,,,,,5,08,,,,,,,,,,,,,5,1.104,1,,,,,,-0.353201714,-0.395000458,1,0,0,1.1036,Obsidian_rect,6,0,6,0,1,
66745b274e5c6af161d9cfcd,SCR,2024-06-25_12h39.35.215,LearnStrategy,2023.2.3,MacIntel,60.24096386,6,2,8,,,,,,,,2,06,,,,,,,,,,,,,2,1.065,1,,,,,,-0.114617462,-0.261806717,1,0,0,1.0651,Basalt_rect,7,0,7,0,1,
66745b274e5c6af161d9cfcd,SCR,2024-06-25_12h39.35.215,LearnStrategy,2023.2.3,MacIntel,60.24096386,6,2,9,,,,,,,,5,10,,,,,,,,,,,,,5,1.098,1,,,,,,-0.339176369,-0.403025131,1,0,0,1.0981,Obsidian_rect,8,0,8,0,1,
66745b274e5c6af161d9cfcd,SCR,2024-06-25_12h39.35.215,LearnStrategy,2023.2.3,MacIntel,60.24096386,6,2,10,,,,,,,,7,14,,,,,,,,,,,,,7,1.482,1,,,,,,0.106707382,-0.400522003,1,0,0,1.4816,Peridotite_rect,9,0,9,0,1,
66745b274e5c6af161d9cfcd,SCR,2024-06-25_12h39.35.215,LearnStrategy,2023.2.3,MacIntel,60.24096386,6,2,11,,,,,,,,4,13,,,,,,,,,,,,,3,4.669,0,,,,,,0.088275757,-0.246661072,1,0,0,4.6692,Diorite_rect,10,0,10,0,1,
66745b274e5c6af161d9cfcd,SCR,2024-06-25_12h39.35.215,LearnStrategy,2023.2.3,MacIntel,60.24096386,6,2,12,,,,,,,,1,10,,,,,,,,,,,,,4,2.419,0,,,,,,0.380194321,-0.240572739,1,0,0,2.4192,Gabbro_rect,11,0,11,0,1,
66745b274e5c6af161d9cfcd,SCR,2024-06-25_12h39.35.215,LearnStrategy,2023.2.3,MacIntel,60.24096386,6,2,13,,,,,,,,2,08,,,,,,,,,,,,,2,1.203,1,,,,,,-0.200165749,-0.257897186,1,0,0,1.2027,Basalt_rect,12,0,12,0,1,
66745b274e5c6af161d9cfcd,SCR,2024-06-25_12h39.35.215,LearnStrategy,2023.2.3,MacIntel,60.24096386,6,2,14,,,,,,,,6,03,,,,,,,,,,,,,6,1.368,1,,,,,,-0.103878708,-0.400432358,1,0,0,1.3677,Pegmatite_rect,13,0,13,0,1,
66745b274e5c6af161d9cfcd,SCR,2024-06-25_12h39.35.215,LearnStrategy,2023.2.3,MacIntel,60.24096386,6,2,15,,,,,,,,8,09,,,,,,,,,,,,,8,1.55,1,,,,,,0.373856277,-0.402501144,1,0,0,1.5497,Pumice_rect,14,0,14,0,1,
66745b274e5c6af161d9cfcd,SCR,2024-06-25_12h39.35.215,LearnStrategy,2023.2.3,MacIntel,60.24096386,6,2,16,,,,,,,,1,14,,,,,,,,,,,,,1,2.202,1,,,,,,-0.477107468,-0.234302292,1,0,0,2.2019,Andesite_rect,15,0,15,0,1,
66745b274e5c6af161d9cfcd,SCR,2024-06-25_12h39.35.215,LearnStrategy,2023.2.3,MacIntel,60.24096386,7,1,1,-0.547001743,-0.401728516,1,0,0,1.2863,Diorite_15,3,15,1,1,1.286,2,05,0.061977921,-0.229527893,1,0,0,1.2461,Diorite_rect,3,1.246,1,0,0,0,0,1,,,,,,,,,,,,,
66745b274e5c6af161d9cfcd,SCR,2024-06-25_12h39.35.215,LearnStrategy,2023.2.3,MacIntel,60.24096386,7,1,2,0.098375168,0.083403053,1,0,0,0.8061,Obsidian_05,5,05,4,5,0.806,4,14,-0.426852188,-0.391259842,1,0,0,0.9504,Obsidian_rect,5,0.95,1,1,0,1,0,1,,,,,,,,,,,,,
66745b274e5c6af161d9cfcd,SCR,2024-06-25_12h39.35.215,LearnStrategy,2023.2.3,MacIntel,60.24096386,7,1,3,-0.427641335,-0.443274307,1,0,0,0.751,Basalt_05,2,05,1,2,0.751,2,02,-0.139972458,-0.245349579,1,0,0,1.2986,Basalt_rect,2,1.299,1,2,0,2,0,1,,,,,,,,,,,,,
66745b274e5c6af161d9cfcd,SCR,2024-06-25_12h39.35.215,LearnStrategy,2023.2.3,MacIntel,60.24096386,7,1,4,-0.243966446,-0.42818924,1,0,0,0.7547,Andesite_05,1,05,1,3,0.755,1,11,-0.390519753,-0.260272293,1,0,0,1.1758,Andesite_rect,1,1.176,1,3,0,3,0,1,,,,,,,,,,,,,
66745b274e5c6af161d9cfcd,SCR,2024-06-25_12h39.35.215,LearnStrategy,2023.2.3,MacIntel,60.24096386,7,1,5,-0.060346298,-0.437758255,1,0,0,0.6887,Peridotite_04,7,04,1,4,0.689,8,08,-0.159658051,-0.396363297,1,0,0,4.1223,Pegmatite_rect,6,4.122,0,4,0,4,0,1,,,,,,,,,,,,,
66745b274e5c6af161d9cfcd,SCR,2024-06-25_12h39.35.215,LearnStrategy,2023.2.3,MacIntel,60.24096386,7,1,6,0.520762634,-0.361265869,1,0,0,1.3876,Gabbro_12,4,12,1,8,1.388,4,14,0.433562393,-0.242839813,1,0,0,1.51,Gabbro_rect,4,1.51,1,5,0,5,0,1,,,,,,,,,,,,,
66745b274e5c6af161d9cfcd,SCR,2024-06-25_12h39.35.215,LearnStrategy,2023.2.3,MacIntel,60.24096386,7,1,7,0.535735931,-0.110424423,1,0,0,0.7204,Andesite_09,1,09,3,8,0.72,6,06,-0.410215836,-0.247893524,1,0,0,1.846,Andesite_rect,1,1.846,1,6,0,6,0,1,,,,,,,,,,,,,
66745b274e5c6af161d9cfcd,SCR,2024-06-25_12h39.35.215,LearnStrategy,2023.2.3,MacIntel,60.24096386,7,1,8,0.343026047,-0.089519501,1,0,0,1.5843,Pumice_05,8,05,3,7,1.584,4,10,0.395462494,-0.420048981,1,0,0,1.2211,Pumice_rect,8,1.221,1,7,0,7,0,1,,,,,,,,,,,,,
66745b274e5c6af161d9cfcd,SCR,2024-06-25_12h39.35.215,LearnStrategy,2023.2.3,MacIntel,60.24096386,7,1,9,0.282383881,-0.147954178,1,0,0,0.5899,Basalt_02,2,02,3,6,0.59,1,07,-0.132830887,-0.238889618,1,0,0,0.9599,Basalt_rect,2,0.96,1,8,0,8,0,1,,,,,,,,,,,,,
66745b274e5c6af161d9cfcd,SCR,2024-06-25_12h39.35.215,LearnStrategy,2023.2.3,MacIntel,60.24096386,7,1,10,0.063816681,-0.101538467,1,0,0,0.7155,Pumice_02,8,02,3,5,0.716,7,04,0.33581543,-0.380698242,1,0,0,0.9978,Pumice_rect,8,0.998,1,9,0,9,0,1,,,,,,,,,,,,,
66745b274e5c6af161d9cfcd,SCR,2024-06-25_12h39.35.215,LearnStrategy,2023.2.3,MacIntel,60.24096386,7,1,11,-0.382338715,-0.095535774,1,0,0,1.3869,Andesite_11,1,11,3,2,1.387,5,16,-0.368845444,-0.253998413,1,0,0,1.6078,Andesite_rect,1,1.608,1,10,0,10,0,1,,,,,,,,,,,,,
66745b274e5c6af161d9cfcd,SCR,2024-06-25_12h39.35.215,LearnStrategy,2023.2.3,MacIntel,60.24096386,7,1,12,-0.402793922,0.388484859,1,0,0,0.9665,Andesite_06,1,06,6,2,0.966,4,10,-0.348185997,-0.237451248,1,0,0,2.7447,Andesite_rect,1,2.745,1,11,0,11,0,1,,,,,,,,,,,,,
66745b274e5c6af161d9cfcd,SCR,2024-06-25_12h39.35.215,LearnStrategy,2023.2.3,MacIntel,60.24096386,7,1,13,0.241113052,0.141274338,1,0,0,0.8835,Peridotite_07,7,07,4,6,0.884,3,15,0.123320923,-0.385827789,1,0,0,1.5672,Peridotite_rect,7,1.567,1,12,0,12,0,1,,,,,,,,,,,,,
66745b274e5c6af161d9cfcd,SCR,2024-06-25_12h39.35.215,LearnStrategy,2023.2.3,MacIntel,60.24096386,7,1,14,-0.281917725,-0.436195068,1,0,0,1.0295,Andesite_05,1,05,1,3,1.029,2,09,-0.348776207,-0.233502045,1,0,0,1.1814,Andesite_rect,1,1.181,1,13,0,13,0,1,,,,,,,,,,,,,
66745b274e5c6af161d9cfcd,SCR,2024-06-25_12h39.35.215,LearnStrategy,2023.2.3,MacIntel,60.24096386,7,1,15,-0.522976131,-0.257298584,1,0,0,1.3481,Gabbro_11,4,11,2,1,1.348,4,16,0.401978912,-0.256436844,1,0,0,1.9066,Gabbro_rect,4,1.907,1,14,0,14,0,1,,,,,,,,,,,,,
66745b274e5c6af161d9cfcd,SCR,2024-06-25_12h39.35.215,LearnStrategy,2023.2.3,MacIntel,60.24096386,7,1,16,-0.392724419,0.094356537,1,0,0,0.9351,Diorite_13,3,13,4,2,0.935,7,12,0.123925934,-0.238646088,1,0,0,1.9195,Diorite_rect,3,1.919,1,15,0,15,0,1,,,,,,,,,,,,,
66745b274e5c6af161d9cfcd,SCR,2024-06-25_12h39.35.215,LearnStrategy,2023.2.3,MacIntel,60.24096386,7,2,1,,,,,,,,5,11,,,,,,,,,,,,,5,1.132,1,,,,,,-0.325484505,-0.381256256,1,0,0,1.1323,Obsidian_rect,0,0,0,0,1,
66745b274e5c6af161d9cfcd,SCR,2024-06-25_12h39.35.215,LearnStrategy,2023.2.3,MacIntel,60.24096386,7,2,2,,,,,,,,6,03,,,,,,,,,,,,,6,1.498,1,,,,,,-0.113351288,-0.390739365,1,0,0,1.4981,Pegmatite_rect,1,0,1,0,1,
66745b274e5c6af161d9cfcd,SCR,2024-06-25_12h39.35.215,LearnStrategy,2023.2.3,MacIntel,60.24096386,7,2,3,,,,,,,,7,02,,,,,,,,,,,,,7,0.941,1,,,,,,0.146088257,-0.410462418,1,0,0,0.9413,Peridotite_rect,2,0,2,0,1,
66745b274e5c6af161d9cfcd,SCR,2024-06-25_12h39.35.215,LearnStrategy,2023.2.3,MacIntel,60.24096386,7,2,4,,,,,,,,4,08,,,,,,,,,,,,,4,2.238,1,,,,,,0.351558533,-0.254439621,1,0,0,2.2381,Gabbro_rect,3,0,3,0,1,
66745b274e5c6af161d9cfcd,SCR,2024-06-25_12h39.35.215,LearnStrategy,2023.2.3,MacIntel,60.24096386,7,2,5,,,,,,,,6,08,,,,,,,,,,,,,6,1.447,1,,,,,,-0.191393585,-0.408532028,1,0,0,1.4465,Pegmatite_rect,4,0,4,0,1,
66745b274e5c6af161d9cfcd,SCR,2024-06-25_12h39.35.215,LearnStrategy,2023.2.3,MacIntel,60.24096386,7,2,6,,,,,,,,3,07,,,,,,,,,,,,,3,1.187,1,,,,,,0.095044785,-0.252786713,1,0,0,1.1869,Diorite_rect,5,0,5,0,1,
66745b274e5c6af161d9cfcd,SCR,2024-06-25_12h39.35.215,LearnStrategy,2023.2.3,MacIntel,60.24096386,7,2,7,,,,,,,,4,03,,,,,,,,,,,,,4,3.447,1,,,,,,0.42880867,-0.229205856,1,0,0,3.4474,Gabbro_rect,6,0,6,0,1,
66745b274e5c6af161d9cfcd,SCR,2024-06-25_12h39.35.215,LearnStrategy,2023.2.3,MacIntel,60.24096386,7,2,8,,,,,,,,1,02,,,,,,,,,,,,,1,1.538,1,,,,,,-0.438767242,-0.252445526,1,0,0,1.5381,Andesite_rect,7,0,7,0,1,
66745b274e5c6af161d9cfcd,SCR,2024-06-25_12h39.35.215,LearnStrategy,2023.2.3,MacIntel,60.24096386,7,2,9,,,,,,,,5,08,,,,,,,,,,,,,5,0.904,1,,,,,,-0.380531693,-0.396888809,1,0,0,0.9043,Obsidian_rect,8,0,8,0,1,
66745b274e5c6af161d9cfcd,SCR,2024-06-25_12h39.35.215,LearnStrategy,2023.2.3,MacIntel,60.24096386,7,2,10,,,,,,,,7,14,,,,,,,,,,,,,7,1.223,1,,,,,,0.107077789,-0.391540833,1,0,0,1.2226,Peridotite_rect,9,0,9,0,1,
66745b274e5c6af161d9cfcd,SCR,2024-06-25_12h39.35.215,LearnStrategy,2023.2.3,MacIntel,60.24096386,7,2,11,,,,,,,,3,02,,,,,,,,,,,,,3,0.869,1,,,,,,0.081670532,-0.235807495,1,0,0,0.8693,Diorite_rect,10,0,10,0,1,
66745b274e5c6af161d9cfcd,SCR,2024-06-25_12h39.35.215,LearnStrategy,2023.2.3,MacIntel,60.24096386,7,2,12,,,,,,,,1,03,,,,,,,,,,,,,1,0.985,1,,,,,,-0.447770958,-0.251791382,1,0,0,0.9848,Andesite_rect,11,0,11,0,1,
66745b274e5c6af161d9cfcd,SCR,2024-06-25_12h39.35.215,LearnStrategy,2023.2.3,MacIntel,60.24096386,7,2,13,,,,,,,,2,10,,,,,,,,,,,,,2,1.498,1,,,,,,-0.121505203,-0.243878632,1,0,0,1.4983,Basalt_rect,12,0,12,0,1,
66745b274e5c6af161d9cfcd,SCR,2024-06-25_12h39.35.215,LearnStrategy,2023.2.3,MacIntel,60.24096386,7,2,14,,,,,,,,2,06,,,,,,,,,,,,,2,1.814,1,,,,,,-0.103416519,-0.245898895,1,0,0,1.8138,Basalt_rect,13,0,13,0,1,
66745b274e5c6af161d9cfcd,SCR,2024-06-25_12h39.35.215,LearnStrategy,2023.2.3,MacIntel,60.24096386,7,2,15,,,,,,,,8,16,,,,,,,,,,,,,8,1.25,1,,,,,,0.396579895,-0.391357574,1,0,0,1.2503,Pumice_rect,14,0,14,0,1,
66745b274e5c6af161d9cfcd,SCR,2024-06-25_12h39.35.215,LearnStrategy,2023.2.3,MacIntel,60.24096386,7,2,16,,,,,,,,8,13,,,,,,,,,,,,,8,0.98,1,,,,,,0.347796249,-0.383626099,1,0,0,0.9804,Pumice_rect,15,0,15,0,1,
66745b274e5c6af161d9cfcd,SCR,2024-06-25_12h39.35.215,LearnStrategy,2023.2.3,MacIntel,60.24096386,8,1,1,-0.549809666,0.255182858,1,0,0,0.8682,Pegmatite_11,6,11,5,1,0.868,4,10,-0.154198227,-0.401389084,1,0,0,2.4518,Pegmatite_rect,6,2.452,1,0,0,0,0,1,,,,,,,,,,,,,
66745b274e5c6af161d9cfcd,SCR,2024-06-25_12h39.35.215,LearnStrategy,2023.2.3,MacIntel,60.24096386,8,1,2,-0.368337898,0.094812164,1,0,0,1.0871,Diorite_13,3,13,4,2,1.087,4,16,0.104634018,-0.245159607,1,0,0,1.3163,Diorite_rect,3,1.316,1,1,0,1,0,1,,,,,,,,,,,,,
66745b274e5c6af161d9cfcd,SCR,2024-06-25_12h39.35.215,LearnStrategy,2023.2.3,MacIntel,60.24096386,8,1,3,-0.529560871,-0.107385063,1,0,0,1.1185,Basalt_14,2,14,3,1,1.119,1,16,-0.07353508,-0.232760468,1,0,0,1.5294,Basalt_rect,2,1.529,1,2,0,2,0,1,,,,,,,,,,,,,
66745b274e5c6af161d9cfcd,SCR,2024-06-25_12h39.35.215,LearnStrategy,2023.2.3,MacIntel,60.24096386,8,1,4,-0.107920532,-0.098243942,1,0,0,1.6831,Diorite_14,3,14,3,4,1.683,4,11,0.121335297,-0.244500732,1,0,0,1.0653,Diorite_rect,3,1.065,1,3,0,3,0,1,,,,,,,,,,,,,
66745b274e5c6af161d9cfcd,SCR,2024-06-25_12h39.35.215,LearnStrategy,2023.2.3,MacIntel,60.24096386,8,1,5,0.122856979,-0.124030151,1,0,0,0.5039,Pumice_02,8,02,3,5,0.504,7,12,0.394159164,-0.40642334,1,0,0,1.1508,Pumice_rect,8,1.151,1,4,0,4,0,1,,,,,,,,,,,,,
66745b274e5c6af161d9cfcd,SCR,2024-06-25_12h39.35.215,LearnStrategy,2023.2.3,MacIntel,60.24096386,8,1,6,-0.274183235,-0.097842941,1,0,0,0.9006,Pumice_10,8,10,3,3,0.901,3,12,0.402917404,-0.406477814,1,0,0,1.0086,Pumice_rect,8,1.009,1,5,0,5,0,1,,,,,,,,,,,,,
66745b274e5c6af161d9cfcd,SCR,2024-06-25_12h39.35.215,LearnStrategy,2023.2.3,MacIntel,60.24096386,8,1,7,-0.242817039,-0.387015381,1,0,0,0.6338,Andesite_05,1,05,1,3,0.634,4,10,-0.454123116,-0.233029251,1,0,0,1.1698,Andesite_rect,1,1.17,1,6,0,6,0,1,,,,,,,,,,,,,
66745b274e5c6af161d9cfcd,SCR,2024-06-25_12h39.35.215,LearnStrategy,2023.2.3,MacIntel,60.24096386,8,1,8,0.552577667,-0.118614922,1,0,0,0.7837,Andesite_09,1,09,3,8,0.784,8,14,-0.347056885,-0.231794891,1,0,0,1.5903,Andesite_rect,1,1.59,1,7,0,7,0,1,,,,,,,,,,,,,
66745b274e5c6af161d9cfcd,SCR,2024-06-25_12h39.35.215,LearnStrategy,2023.2.3,MacIntel,60.24096386,8,1,9,-0.069431229,0.085814743,1,0,0,1.6102,Gabbro_14,4,14,4,4,1.61,3,13,0.389013824,-0.263142853,1,0,0,1.0505,Gabbro_rect,4,1.051,1,8,0,8,0,1,,,,,,,,,,,,,
66745b274e5c6af161d9cfcd,SCR,2024-06-25_12h39.35.215,LearnStrategy,2023.2.3,MacIntel,60.24096386,8,1,10,-0.224982872,0.422938957,1,0,0,0.8378,Basalt_09,2,09,6,3,0.838,6,12,-0.088394775,-0.234229431,1,0,0,1.5998,Basalt_rect,2,1.6,1,9,0,9,0,1,,,,,,,,,,,,,
66745b274e5c6af161d9cfcd,SCR,2024-06-25_12h39.35.215,LearnStrategy,2023.2.3,MacIntel,60.24096386,8,1,11,0.215890884,0.439102001,1,0,0,0.6866,Gabbro_16,4,16,6,6,0.687,2,02,0.376018524,-0.261053162,1,0,0,1.729,Gabbro_rect,4,1.729,1,10,0,10,0,1,,,,,,,,,,,,,
66745b274e5c6af161d9cfcd,SCR,2024-06-25_12h39.35.215,LearnStrategy,2023.2.3,MacIntel,60.24096386,8,1,12,0.400813293,0.396372814,1,0,0,1.1842,Pegmatite_16,6,16,6,7,1.184,1,06,-0.115653381,-0.397553329,1,0,0,0.9117,Pegmatite_rect,6,0.912,1,11,0,11,0,1,,,,,,,,,,,,,
66745b274e5c6af161d9cfcd,SCR,2024-06-25_12h39.35.215,LearnStrategy,2023.2.3,MacIntel,60.24096386,8,1,13,0.569682617,0.458581314,1,0,0,0.7238,Diorite_09,3,09,6,8,0.724,2,02,0.060535202,-0.24148819,1,0,0,1.7527,Diorite_rect,3,1.753,1,12,0,12,0,1,,,,,,,,,,,,,
66745b274e5c6af161d9cfcd,SCR,2024-06-25_12h39.35.215,LearnStrategy,2023.2.3,MacIntel,60.24096386,8,1,14,0.539254913,0.069749146,1,0,0,0.789,Gabbro_10,4,10,4,8,0.789,5,09,0.376656265,-0.250065536,1,0,0,0.9127,Gabbro_rect,4,0.913,1,13,0,13,0,1,,,,,,,,,,,,,
66745b274e5c6af161d9cfcd,SCR,2024-06-25_12h39.35.215,LearnStrategy,2023.2.3,MacIntel,60.24096386,8,1,15,0.527722626,-0.10757061,1,0,0,0.781,Andesite_09,1,09,3,8,0.781,7,05,-0.311617584,-0.240106201,1,0,0,1.0238,Andesite_rect,1,1.024,1,14,0,14,0,1,,,,,,,,,,,,,
66745b274e5c6af161d9cfcd,SCR,2024-06-25_12h39.35.215,LearnStrategy,2023.2.3,MacIntel,60.24096386,8,1,16,0.401988525,0.10598526,1,0,0,0.6927,Pegmatite_12,6,12,4,7,0.693,2,05,-0.133173141,-0.392528229,1,0,0,0.941,Pegmatite_rect,6,0.941,1,15,0,15,0,1,,,,,,,,,,,,,
66745b274e5c6af161d9cfcd,SCR,2024-06-25_12h39.35.215,LearnStrategy,2023.2.3,MacIntel,60.24096386,8,2,1,,,,,,,,8,09,,,,,,,,,,,,,8,1.307,1,,,,,,0.38459259,-0.382585602,1,0,0,1.3071,Pumice_rect,0,0,0,0,1,
66745b274e5c6af161d9cfcd,SCR,2024-06-25_12h39.35.215,LearnStrategy,2023.2.3,MacIntel,60.24096386,8,2,2,,,,,,,,5,04,,,,,,,,,,,,,5,1.667,1,,,,,,-0.437720718,-0.393744507,1,0,0,1.6671,Obsidian_rect,1,0,1,0,1,
66745b274e5c6af161d9cfcd,SCR,2024-06-25_12h39.35.215,LearnStrategy,2023.2.3,MacIntel,60.24096386,8,2,3,,,,,,,,2,04,,,,,,,,,,,,,2,1.079,1,,,,,,-0.092046204,-0.260181198,1,0,0,1.0789,Basalt_rect,2,0,2,0,1,
66745b274e5c6af161d9cfcd,SCR,2024-06-25_12h39.35.215,LearnStrategy,2023.2.3,MacIntel,60.24096386,8,2,4,,,,,,,,2,08,,,,,,,,,,,,,2,1.118,1,,,,,,-0.101989441,-0.255212326,1,0,0,1.1183,Basalt_rect,3,0,3,0,1,
66745b274e5c6af161d9cfcd,SCR,2024-06-25_12h39.35.215,LearnStrategy,2023.2.3,MacIntel,60.24096386,8,2,5,,,,,,,,3,08,,,,,,,,,,,,,3,1.131,1,,,,,,0.124143143,-0.24913559,1,0,0,1.1314,Diorite_rect,4,0,4,0,1,
66745b274e5c6af161d9cfcd,SCR,2024-06-25_12h39.35.215,LearnStrategy,2023.2.3,MacIntel,60.24096386,8,2,6,,,,,,,,1,04,,,,,,,,,,,,,1,1.282,1,,,,,,-0.370374794,-0.228881607,1,0,0,1.2819,Andesite_rect,5,0,5,0,1,
66745b274e5c6af161d9cfcd,SCR,2024-06-25_12h39.35.215,LearnStrategy,2023.2.3,MacIntel,60.24096386,8,2,7,,,,,,,,1,14,,,,,,,,,,,,,1,1.192,1,,,,,,-0.375896721,-0.245031281,1,0,0,1.1917,Andesite_rect,6,0,6,0,1,
66745b274e5c6af161d9cfcd,SCR,2024-06-25_12h39.35.215,LearnStrategy,2023.2.3,MacIntel,60.24096386,8,2,8,,,,,,,,7,13,,,,,,,,,,,,,7,1.368,1,,,,,,0.070445709,-0.387132797,1,0,0,1.3684,Peridotite_rect,7,0,7,0,1,
66745b274e5c6af161d9cfcd,SCR,2024-06-25_12h39.35.215,LearnStrategy,2023.2.3,MacIntel,60.24096386,8,2,9,,,,,,,,6,15,,,,,,,,,,,,,6,0.922,1,,,,,,-0.125481033,-0.379883575,1,0,0,0.922,Pegmatite_rect,8,0,8,0,1,
66745b274e5c6af161d9cfcd,SCR,2024-06-25_12h39.35.215,LearnStrategy,2023.2.3,MacIntel,60.24096386,8,2,10,,,,,,,,8,06,,,,,,,,,,,,,8,1.546,1,,,,,,0.330752029,-0.400544128,1,0,0,1.5458,Pumice_rect,9,0,9,0,1,
66745b274e5c6af161d9cfcd,SCR,2024-06-25_12h39.35.215,LearnStrategy,2023.2.3,MacIntel,60.24096386,8,2,11,,,,,,,,5,10,,,,,,,,,,,,,5,1.169,1,,,,,,-0.482235107,-0.400114517,1,0,0,1.1693,Obsidian_rect,10,0,10,0,1,
66745b274e5c6af161d9cfcd,SCR,2024-06-25_12h39.35.215,LearnStrategy,2023.2.3,MacIntel,60.24096386,8,2,12,,,,,,,,4,09,,,,,,,,,,,,,4,1.507,1,,,,,,0.392242661,-0.249682312,1,0,0,1.5071,Gabbro_rect,11,0,11,0,1,
66745b274e5c6af161d9cfcd,SCR,2024-06-25_12h39.35.215,LearnStrategy,2023.2.3,MacIntel,60.24096386,8,2,13,,,,,,,,7,16,,,,,,,,,,,,,4,1.515,0,,,,,,0.386947708,-0.229550476,1,0,0,1.5147,Gabbro_rect,12,0,12,0,1,
66745b274e5c6af161d9cfcd,SCR,2024-06-25_12h39.35.215,LearnStrategy,2023.2.3,MacIntel,60.24096386,8,2,14,,,,,,,,3,06,,,,,,,,,,,,,3,2.588,1,,,,,,0.092294769,-0.23677063,1,0,0,2.5881,Diorite_rect,13,0,13,0,1,
66745b274e5c6af161d9cfcd,SCR,2024-06-25_12h39.35.215,LearnStrategy,2023.2.3,MacIntel,60.24096386,8,2,15,,,,,,,,4,13,,,,,,,,,,,,,3,0.989,0,,,,,,0.092294769,-0.237836304,1,0,0,0.9892,Diorite_rect,14,0,14,0,1,
66745b274e5c6af161d9cfcd,SCR,2024-06-25_12h39.35.215,LearnStrategy,2023.2.3,MacIntel,60.24096386,8,2,16,,,,,,,,6,13,,,,,,,,,,,,,6,1.4,1,,,,,,-0.149321747,-0.378505936,1,0,0,1.3997,Pegmatite_rect,15,0,15,0,1,
66745b274e5c6af161d9cfcd,SCR,2024-06-25_12h39.35.215,LearnStrategy,2023.2.3,MacIntel,60.24096386,9,1,1,-0.541495399,-0.264970398,1,0,0,1.1447,Gabbro_11,4,11,2,1,1.145,4,12,0.361513367,-0.238316956,1,0,0,2.6902,Gabbro_rect,4,2.69,1,0,0,0,0,1,,,,,,,,,,,,,
66745b274e5c6af161d9cfcd,SCR,2024-06-25_12h39.35.215,LearnStrategy,2023.2.3,MacIntel,60.24096386,9,1,2,-0.399265099,-0.098006287,1,0,0,0.7713,Andesite_11,1,11,3,2,0.771,4,16,-0.412111511,-0.253547592,1,0,0,0.6299,Andesite_rect,1,0.63,1,1,0,1,0,1,,,,,,,,,,,,,
66745b274e5c6af161d9cfcd,SCR,2024-06-25_12h39.35.215,LearnStrategy,2023.2.3,MacIntel,60.24096386,9,1,3,-0.370679207,-0.259817047,1,0,0,1.3044,Basalt_01,2,01,2,2,1.304,3,10,-0.086114426,-0.25452034,1,0,0,1.4505,Basalt_rect,2,1.451,1,2,0,2,0,1,,,,,,,,,,,,,
66745b274e5c6af161d9cfcd,SCR,2024-06-25_12h39.35.215,LearnStrategy,2023.2.3,MacIntel,60.24096386,9,1,4,-0.496515541,-0.401953735,1,0,0,1.167,Diorite_15,3,15,1,1,1.167,7,15,0.064921646,-0.255541153,1,0,0,1.2581,Diorite_rect,3,1.258,1,3,0,3,0,1,,,,,,,,,,,,,
66745b274e5c6af161d9cfcd,SCR,2024-06-25_12h39.35.215,LearnStrategy,2023.2.3,MacIntel,60.24096386,9,1,5,-0.38682251,0.101015053,1,0,0,1.0165,Diorite_13,3,13,4,2,1.017,5,09,0.120876694,-0.258130341,1,0,0,1.1549,Diorite_rect,3,1.155,1,4,0,4,0,1,,,,,,,,,,,,,
66745b274e5c6af161d9cfcd,SCR,2024-06-25_12h39.35.215,LearnStrategy,2023.2.3,MacIntel,60.24096386,9,1,6,-0.078164597,-0.428687515,1,0,0,0.8997,Peridotite_04,7,04,1,4,0.9,2,11,-0.150387955,-0.249704208,1,0,0,0.8817,Basalt_rect,2,0.882,0,5,0,5,0,1,,,,,,,,,,,,,
66745b274e5c6af161d9cfcd,SCR,2024-06-25_12h39.35.215,LearnStrategy,2023.2.3,MacIntel,60.24096386,9,1,7,0.22583168,-0.272051544,1,0,0,1.8705,Diorite_10,3,10,2,6,1.87,6,12,0.138360748,-0.267221603,1,0,0,0.9623,Diorite_rect,3,0.962,1,6,0,6,0,1,,,,,,,,,,,,,
66745b274e5c6af161d9cfcd,SCR,2024-06-25_12h39.35.215,LearnStrategy,2023.2.3,MacIntel,60.24096386,9,1,8,0.403718567,-0.237082596,1,0,0,0.7288,Gabbro_01,4,01,2,7,0.729,4,12,0.178148651,-0.390147858,1,0,0,2.169,Peridotite_rect,7,2.169,0,7,0,7,0,1,,,,,,,,,,,,,
66745b274e5c6af161d9cfcd,SCR,2024-06-25_12h39.35.215,LearnStrategy,2023.2.3,MacIntel,60.24096386,9,1,9,0.513561707,-0.27932251,1,0,0,0.7365,Peridotite_05,7,05,2,8,0.736,8,02,0.158377914,-0.407102737,1,0,0,1.2406,Peridotite_rect,7,1.241,1,8,0,8,0,1,,,,,,,,,,,,,
66745b274e5c6af161d9cfcd,SCR,2024-06-25_12h39.35.215,LearnStrategy,2023.2.3,MacIntel,60.24096386,9,1,10,-0.075949631,0.275922031,1,0,0,0.9604,Pumice_14,8,14,5,4,0.96,1,06,0.369681549,-0.402675018,1,0,0,1.6435,Pumice_rect,8,1.644,1,9,0,9,0,1,,,,,,,,,,,,,
66745b274e5c6af161d9cfcd,SCR,2024-06-25_12h39.35.215,LearnStrategy,2023.2.3,MacIntel,60.24096386,9,1,11,0.251878891,0.267222538,1,0,0,0.9217,Diorite_12,3,12,5,6,0.922,2,11,0.158128815,-0.2447995,1,0,0,0.909,Diorite_rect,3,0.909,1,10,0,10,0,1,,,,,,,,,,,,,
66745b274e5c6af161d9cfcd,SCR,2024-06-25_12h39.35.215,LearnStrategy,2023.2.3,MacIntel,60.24096386,9,1,12,0.53204834,0.252933426,1,0,0,1.2282,Peridotite_15,7,15,5,8,1.228,7,07,0.13180191,-0.406185379,1,0,0,0.8854,Peridotite_rect,7,0.885,1,11,0,11,0,1,,,,,,,,,,,,,
66745b274e5c6af161d9cfcd,SCR,2024-06-25_12h39.35.215,LearnStrategy,2023.2.3,MacIntel,60.24096386,9,1,13,-0.108465729,-0.404433136,1,0,0,0.9247,Peridotite_04,7,04,1,4,0.925,7,07,0.163002396,-0.389616699,1,0,0,0.7465,Peridotite_rect,7,0.747,1,12,0,12,0,1,,,,,,,,,,,,,
66745b274e5c6af161d9cfcd,SCR,2024-06-25_12h39.35.215,LearnStrategy,2023.2.3,MacIntel,60.24096386,9,1,14,-0.369034805,0.097600212,1,0,0,0.9251,Diorite_13,3,13,4,2,0.925,4,14,0.132824249,-0.246699371,1,0,0,1.2729,Diorite_rect,3,1.273,1,13,0,13,0,1,,,,,,,,,,,,,
66745b274e5c6af161d9cfcd,SCR,2024-06-25_12h39.35.215,LearnStrategy,2023.2.3,MacIntel,60.24096386,9,1,15,-0.228825912,0.26497736,1,0,0,0.7641,Andesite_16,1,16,5,3,0.764,4,11,-0.38189579,-0.22962822,1,0,0,1.3162,Andesite_rect,1,1.316,1,14,0,14,0,1,,,,,,,,,,,,,
66745b274e5c6af161d9cfcd,SCR,2024-06-25_12h39.35.215,LearnStrategy,2023.2.3,MacIntel,60.24096386,9,1,16,0.111331024,0.258776226,1,0,0,1.7337,Pumice_08,8,08,5,5,1.734,1,09,0.373211365,-0.382422638,1,0,0,1.2638,Pumice_rect,8,1.264,1,15,0,15,0,1,,,,,,,,,,,,,
66745b274e5c6af161d9cfcd,SCR,2024-06-25_12h39.35.215,LearnStrategy,2023.2.3,MacIntel,60.24096386,9,2,1,,,,,,,,7,10,,,,,,,,,,,,,7,1.484,1,,,,,,0.131534195,-0.397725906,1,0,0,1.4841,Peridotite_rect,0,0,0,0,1,
66745b274e5c6af161d9cfcd,SCR,2024-06-25_12h39.35.215,LearnStrategy,2023.2.3,MacIntel,60.24096386,9,2,2,,,,,,,,3,11,,,,,,,,,,,,,3,1.145,1,,,,,,0.120076828,-0.256394882,1,0,0,1.145,Diorite_rect,1,0,1,0,1,
66745b274e5c6af161d9cfcd,SCR,2024-06-25_12h39.35.215,LearnStrategy,2023.2.3,MacIntel,60.24096386,9,2,3,,,,,,,,1,01,,,,,,,,,,,,,4,7.442,0,,,,,,0.318947906,-0.255029449,1,0,0,7.4419,Gabbro_rect,2,0,2,0,1,
66745b274e5c6af161d9cfcd,SCR,2024-06-25_12h39.35.215,LearnStrategy,2023.2.3,MacIntel,60.24096386,9,2,4,,,,,,,,8,15,,,,,,,,,,,,,8,1.305,1,,,,,,0.406207733,-0.415902634,1,0,0,1.3047,Pumice_rect,3,0,3,0,1,
66745b274e5c6af161d9cfcd,SCR,2024-06-25_12h39.35.215,LearnStrategy,2023.2.3,MacIntel,60.24096386,9,2,5,,,,,,,,5,07,,,,,,,,,,,,,5,1.122,1,,,,,,-0.404344826,-0.395577087,1,0,0,1.1217,Obsidian_rect,4,0,4,0,1,
66745b274e5c6af161d9cfcd,SCR,2024-06-25_12h39.35.215,LearnStrategy,2023.2.3,MacIntel,60.24096386,9,2,6,,,,,,,,8,03,,,,,,,,,,,,,8,1.322,1,,,,,,0.438350372,-0.383661575,1,0,0,1.3223,Pumice_rect,5,0,5,0,1,
66745b274e5c6af161d9cfcd,SCR,2024-06-25_12h39.35.215,LearnStrategy,2023.2.3,MacIntel,60.24096386,9,2,7,,,,,,,,6,07,,,,,,,,,,,,,6,6.125,1,,,,,,-0.124436035,-0.400084076,1,0,0,6.125,Pegmatite_rect,6,0,6,0,1,
66745b274e5c6af161d9cfcd,SCR,2024-06-25_12h39.35.215,LearnStrategy,2023.2.3,MacIntel,60.24096386,9,2,8,,,,,,,,3,16,,,,,,,,,,,,,3,1.052,1,,,,,,0.138254242,-0.265257797,1,0,0,1.0517,Diorite_rect,7,0,7,0,1,
66745b274e5c6af161d9cfcd,SCR,2024-06-25_12h39.35.215,LearnStrategy,2023.2.3,MacIntel,60.24096386,9,2,9,,,,,,,,4,05,,,,,,,,,,,,,4,1.68,1,,,,,,0.351623993,-0.236213913,1,0,0,1.6803,Gabbro_rect,8,0,8,0,1,
66745b274e5c6af161d9cfcd,SCR,2024-06-25_12h39.35.215,LearnStrategy,2023.2.3,MacIntel,60.24096386,9,2,10,,,,,,,,4,15,,,,,,,,,,,,,3,1.233,0,,,,,,0.166406937,-0.257428436,1,0,0,1.2326,Diorite_rect,9,0,9,0,1,
66745b274e5c6af161d9cfcd,SCR,2024-06-25_12h39.35.215,LearnStrategy,2023.2.3,MacIntel,60.24096386,9,2,11,,,,,,,,6,09,,,,,,,,,,,,,7,2.504,0,,,,,,0.112637482,-0.408631439,1,0,0,2.5042,Peridotite_rect,10,0,10,0,1,
66745b274e5c6af161d9cfcd,SCR,2024-06-25_12h39.35.215,LearnStrategy,2023.2.3,MacIntel,60.24096386,9,2,12,,,,,,,,2,12,,,,,,,,,,,,,8,1.771,0,,,,,,0.318881912,-0.414369507,1,0,0,1.7714,Pumice_rect,11,0,11,0,1,
66745b274e5c6af161d9cfcd,SCR,2024-06-25_12h39.35.215,LearnStrategy,2023.2.3,MacIntel,60.24096386,9,2,13,,,,,,,,5,02,,,,,,,,,,,,,5,2.018,1,,,,,,-0.403651848,-0.399936142,1,0,0,2.0181,Obsidian_rect,12,0,12,0,1,
66745b274e5c6af161d9cfcd,SCR,2024-06-25_12h39.35.215,LearnStrategy,2023.2.3,MacIntel,60.24096386,9,2,14,,,,,,,,2,16,,,,,,,,,,,,,4,2.804,0,,,,,,0.427348633,-0.238277435,1,0,0,2.8043,Gabbro_rect,13,0,13,0,1,
66745b274e5c6af161d9cfcd,SCR,2024-06-25_12h39.35.215,LearnStrategy,2023.2.3,MacIntel,60.24096386,9,2,15,,,,,,,,7,08,,,,,,,,,,,,,7,1.18,1,,,,,,0.073973389,-0.402184601,1,0,0,1.1803,Peridotite_rect,14,0,14,0,1,
66745b274e5c6af161d9cfcd,SCR,2024-06-25_12h39.35.215,LearnStrategy,2023.2.3,MacIntel,60.24096386,9,2,16,,,,,,,,1,10,,,,,,,,,,,,,1,1.73,1,,,,,,-0.390830803,-0.2540242,1,0,0,1.7303,Andesite_rect,15,0,15,0,1,
66745b274e5c6af161d9cfcd,SCR,2024-06-25_12h39.35.215,LearnStrategy,2023.2.3,MacIntel,60.24096386,,,,,,,,,,,,,,,,,,,,,,,,,,,,,,,,,,,,,,,,,,,,,1
66745b274e5c6af161d9cfcd,SCR,2024-06-25_12h39.35.215,LearnStrategy,2023.2.3,MacIntel,60.24096386,,,,,,,,,,,,,,,,,,,,,,,,,,,,,,,,,,,,,,,,,,,,,
66745b274e5c6af161d9cfcd,SCR,2024-06-25_12h39.35.215,LearnStrategy,2023.2.3,MacIntel,60.24096386,,,,,,,,,,,3,15,1,1,,,,,,,,,,,,,,,,,,,,,,,,,,,,,,,
66745b274e5c6af161d9cfcd,SCR,2024-06-25_12h39.35.215,LearnStrategy,2023.2.3,MacIntel,60.24096386,,,,,,,,,,,2,05,1,2,,,,,,,,,,,,,,,,,,,,,,,,,,,,,,,
66745b274e5c6af161d9cfcd,SCR,2024-06-25_12h39.35.215,LearnStrategy,2023.2.3,MacIntel,60.24096386,,,,,,,,,,,1,05,1,3,,,,,,,,,,,,,,,,,,,,,,,,,,,,,,,
66745b274e5c6af161d9cfcd,SCR,2024-06-25_12h39.35.215,LearnStrategy,2023.2.3,MacIntel,60.24096386,,,,,,,,,,,7,04,1,4,,,,,,,,,,,,,,,,,,,,,,,,,,,,,,,
66745b274e5c6af161d9cfcd,SCR,2024-06-25_12h39.35.215,LearnStrategy,2023.2.3,MacIntel,60.24096386,,,,,,,,,,,5,06,1,5,,,,,,,,,,,,,,,,,,,,,,,,,,,,,,,
66745b274e5c6af161d9cfcd,SCR,2024-06-25_12h39.35.215,LearnStrategy,2023.2.3,MacIntel,60.24096386,,,,,,,,,,,5,12,1,6,,,,,,,,,,,,,,,,,,,,,,,,,,,,,,,
66745b274e5c6af161d9cfcd,SCR,2024-06-25_12h39.35.215,LearnStrategy,2023.2.3,MacIntel,60.24096386,,,,,,,,,,,5,09,1,7,,,,,,,,,,,,,,,,,,,,,,,,,,,,,,,
66745b274e5c6af161d9cfcd,SCR,2024-06-25_12h39.35.215,LearnStrategy,2023.2.3,MacIntel,60.24096386,,,,,,,,,,,4,12,1,8,,,,,,,,,,,,,,,,,,,,,,,,,,,,,,,
66745b274e5c6af161d9cfcd,SCR,2024-06-25_12h39.35.215,LearnStrategy,2023.2.3,MacIntel,60.24096386,,,,,,,,,,,4,11,2,1,,,,,,,,,,,,,,,,,,,,,,,,,,,,,,,
66745b274e5c6af161d9cfcd,SCR,2024-06-25_12h39.35.215,LearnStrategy,2023.2.3,MacIntel,60.24096386,,,,,,,,,,,2,01,2,2,,,,,,,,,,,,,,,,,,,,,,,,,,,,,,,
66745b274e5c6af161d9cfcd,SCR,2024-06-25_12h39.35.215,LearnStrategy,2023.2.3,MacIntel,60.24096386,,,,,,,,,,,5,16,2,3,,,,,,,,,,,,,,,,,,,,,,,,,,,,,,,
66745b274e5c6af161d9cfcd,SCR,2024-06-25_12h39.35.215,LearnStrategy,2023.2.3,MacIntel,60.24096386,,,,,,,,,,,7,06,2,4,,,,,,,,,,,,,,,,,,,,,,,,,,,,,,,
66745b274e5c6af161d9cfcd,SCR,2024-06-25_12h39.35.215,LearnStrategy,2023.2.3,MacIntel,60.24096386,,,,,,,,,,,6,05,2,5,,,,,,,,,,,,,,,,,,,,,,,,,,,,,,,
66745b274e5c6af161d9cfcd,SCR,2024-06-25_12h39.35.215,LearnStrategy,2023.2.3,MacIntel,60.24096386,,,,,,,,,,,3,10,2,6,,,,,,,,,,,,,,,,,,,,,,,,,,,,,,,
66745b274e5c6af161d9cfcd,SCR,2024-06-25_12h39.35.215,LearnStrategy,2023.2.3,MacIntel,60.24096386,,,,,,,,,,,4,01,2,7,,,,,,,,,,,,,,,,,,,,,,,,,,,,,,,
66745b274e5c6af161d9cfcd,SCR,2024-06-25_12h39.35.215,LearnStrategy,2023.2.3,MacIntel,60.24096386,,,,,,,,,,,7,05,2,8,,,,,,,,,,,,,,,,,,,,,,,,,,,,,,,
66745b274e5c6af161d9cfcd,SCR,2024-06-25_12h39.35.215,LearnStrategy,2023.2.3,MacIntel,60.24096386,,,,,,,,,,,2,14,3,1,,,,,,,,,,,,,,,,,,,,,,,,,,,,,,,
66745b274e5c6af161d9cfcd,SCR,2024-06-25_12h39.35.215,LearnStrategy,2023.2.3,MacIntel,60.24096386,,,,,,,,,,,1,11,3,2,,,,,,,,,,,,,,,,,,,,,,,,,,,,,,,
66745b274e5c6af161d9cfcd,SCR,2024-06-25_12h39.35.215,LearnStrategy,2023.2.3,MacIntel,60.24096386,,,,,,,,,,,8,10,3,3,,,,,,,,,,,,,,,,,,,,,,,,,,,,,,,
66745b274e5c6af161d9cfcd,SCR,2024-06-25_12h39.35.215,LearnStrategy,2023.2.3,MacIntel,60.24096386,,,,,,,,,,,3,14,3,4,,,,,,,,,,,,,,,,,,,,,,,,,,,,,,,
66745b274e5c6af161d9cfcd,SCR,2024-06-25_12h39.35.215,LearnStrategy,2023.2.3,MacIntel,60.24096386,,,,,,,,,,,8,02,3,5,,,,,,,,,,,,,,,,,,,,,,,,,,,,,,,
66745b274e5c6af161d9cfcd,SCR,2024-06-25_12h39.35.215,LearnStrategy,2023.2.3,MacIntel,60.24096386,,,,,,,,,,,2,02,3,6,,,,,,,,,,,,,,,,,,,,,,,,,,,,,,,
66745b274e5c6af161d9cfcd,SCR,2024-06-25_12h39.35.215,LearnStrategy,2023.2.3,MacIntel,60.24096386,,,,,,,,,,,8,05,3,7,,,,,,,,,,,,,,,,,,,,,,,,,,,,,,,
66745b274e5c6af161d9cfcd,SCR,2024-06-25_12h39.35.215,LearnStrategy,2023.2.3,MacIntel,60.24096386,,,,,,,,,,,1,09,3,8,,,,,,,,,,,,,,,,,,,,,,,,,,,,,,,
66745b274e5c6af161d9cfcd,SCR,2024-06-25_12h39.35.215,LearnStrategy,2023.2.3,MacIntel,60.24096386,,,,,,,,,,,8,04,4,1,,,,,,,,,,,,,,,,,,,,,,,,,,,,,,,
66745b274e5c6af161d9cfcd,SCR,2024-06-25_12h39.35.215,LearnStrategy,2023.2.3,MacIntel,60.24096386,,,,,,,,,,,3,13,4,2,,,,,,,,,,,,,,,,,,,,,,,,,,,,,,,
66745b274e5c6af161d9cfcd,SCR,2024-06-25_12h39.35.215,LearnStrategy,2023.2.3,MacIntel,60.24096386,,,,,,,,,,,6,10,4,3,,,,,,,,,,,,,,,,,,,,,,,,,,,,,,,
66745b274e5c6af161d9cfcd,SCR,2024-06-25_12h39.35.215,LearnStrategy,2023.2.3,MacIntel,60.24096386,,,,,,,,,,,4,14,4,4,,,,,,,,,,,,,,,,,,,,,,,,,,,,,,,
66745b274e5c6af161d9cfcd,SCR,2024-06-25_12h39.35.215,LearnStrategy,2023.2.3,MacIntel,60.24096386,,,,,,,,,,,5,05,4,5,,,,,,,,,,,,,,,,,,,,,,,,,,,,,,,
66745b274e5c6af161d9cfcd,SCR,2024-06-25_12h39.35.215,LearnStrategy,2023.2.3,MacIntel,60.24096386,,,,,,,,,,,7,07,4,6,,,,,,,,,,,,,,,,,,,,,,,,,,,,,,,
66745b274e5c6af161d9cfcd,SCR,2024-06-25_12h39.35.215,LearnStrategy,2023.2.3,MacIntel,60.24096386,,,,,,,,,,,6,12,4,7,,,,,,,,,,,,,,,,,,,,,,,,,,,,,,,
66745b274e5c6af161d9cfcd,SCR,2024-06-25_12h39.35.215,LearnStrategy,2023.2.3,MacIntel,60.24096386,,,,,,,,,,,4,10,4,8,,,,,,,,,,,,,,,,,,,,,,,,,,,,,,,
66745b274e5c6af161d9cfcd,SCR,2024-06-25_12h39.35.215,LearnStrategy,2023.2.3,MacIntel,60.24096386,,,,,,,,,,,6,11,5,1,,,,,,,,,,,,,,,,,,,,,,,,,,,,,,,
66745b274e5c6af161d9cfcd,SCR,2024-06-25_12h39.35.215,LearnStrategy,2023.2.3,MacIntel,60.24096386,,,,,,,,,,,7,12,5,2,,,,,,,,,,,,,,,,,,,,,,,,,,,,,,,
66745b274e5c6af161d9cfcd,SCR,2024-06-25_12h39.35.215,LearnStrategy,2023.2.3,MacIntel,60.24096386,,,,,,,,,,,1,16,5,3,,,,,,,,,,,,,,,,,,,,,,,,,,,,,,,
66745b274e5c6af161d9cfcd,SCR,2024-06-25_12h39.35.215,LearnStrategy,2023.2.3,MacIntel,60.24096386,,,,,,,,,,,8,14,5,4,,,,,,,,,,,,,,,,,,,,,,,,,,,,,,,
66745b274e5c6af161d9cfcd,SCR,2024-06-25_12h39.35.215,LearnStrategy,2023.2.3,MacIntel,60.24096386,,,,,,,,,,,8,08,5,5,,,,,,,,,,,,,,,,,,,,,,,,,,,,,,,
66745b274e5c6af161d9cfcd,SCR,2024-06-25_12h39.35.215,LearnStrategy,2023.2.3,MacIntel,60.24096386,,,,,,,,,,,3,12,5,6,,,,,,,,,,,,,,,,,,,,,,,,,,,,,,,
66745b274e5c6af161d9cfcd,SCR,2024-06-25_12h39.35.215,LearnStrategy,2023.2.3,MacIntel,60.24096386,,,,,,,,,,,5,14,5,7,,,,,,,,,,,,,,,,,,,,,,,,,,,,,,,
66745b274e5c6af161d9cfcd,SCR,2024-06-25_12h39.35.215,LearnStrategy,2023.2.3,MacIntel,60.24096386,,,,,,,,,,,7,15,5,8,,,,,,,,,,,,,,,,,,,,,,,,,,,,,,,
66745b274e5c6af161d9cfcd,SCR,2024-06-25_12h39.35.215,LearnStrategy,2023.2.3,MacIntel,60.24096386,,,,,,,,,,,2,11,6,1,,,,,,,,,,,,,,,,,,,,,,,,,,,,,,,
66745b274e5c6af161d9cfcd,SCR,2024-06-25_12h39.35.215,LearnStrategy,2023.2.3,MacIntel,60.24096386,,,,,,,,,,,1,06,6,2,,,,,,,,,,,,,,,,,,,,,,,,,,,,,,,
66745b274e5c6af161d9cfcd,SCR,2024-06-25_12h39.35.215,LearnStrategy,2023.2.3,MacIntel,60.24096386,,,,,,,,,,,2,09,6,3,,,,,,,,,,,,,,,,,,,,,,,,,,,,,,,
66745b274e5c6af161d9cfcd,SCR,2024-06-25_12h39.35.215,LearnStrategy,2023.2.3,MacIntel,60.24096386,,,,,,,,,,,1,07,6,4,,,,,,,,,,,,,,,,,,,,,,,,,,,,,,,
66745b274e5c6af161d9cfcd,SCR,2024-06-25_12h39.35.215,LearnStrategy,2023.2.3,MacIntel,60.24096386,,,,,,,,,,,6,06,6,5,,,,,,,,,,,,,,,,,,,,,,,,,,,,,,,
66745b274e5c6af161d9cfcd,SCR,2024-06-25_12h39.35.215,LearnStrategy,2023.2.3,MacIntel,60.24096386,,,,,,,,,,,4,16,6,6,,,,,,,,,,,,,,,,,,,,,,,,,,,,,,,
66745b274e5c6af161d9cfcd,SCR,2024-06-25_12h39.35.215,LearnStrategy,2023.2.3,MacIntel,60.24096386,,,,,,,,,,,6,16,6,7,,,,,,,,,,,,,,,,,,,,,,,,,,,,,,,
66745b274e5c6af161d9cfcd,SCR,2024-06-25_12h39.35.215,LearnStrategy,2023.2.3,MacIntel,60.24096386,,,,,,,,,,,3,09,6,8,,,,,,,,,,,,,,,,,,,,,,,,,,,,,,,