participant,condition,date,expName,psychopyVersion,OS,frameRate,block,phase,trial,learn_mouse_2.x,learn_mouse_2.y,learn_mouse_2.leftButton,learn_mouse_2.midButton,learn_mouse_2.rightButton,learn_mouse_2.time,learn_mouse_2.clicked_name,cat,token,row,col,t_select,cat_mouse_l.x,cat_mouse_l.y,cat_mouse_l.leftButton,cat_mouse_l.midButton,cat_mouse_l.rightButton,cat_mouse_l.time,cat_mouse_l.clicked_name,resp,t_resp,corr,train_trials.thisRepN,train_trials.thisTrialN,train_trials.thisN,train_trials.thisIndex,train_trials.ran,cat_mouse_t.x,cat_mouse_t.y,cat_mouse_t.leftButton,cat_mouse_t.midButton,cat_mouse_t.rightButton,cat_mouse_t.time,cat_mouse_t.clicked_name,test_trials.thisRepN,test_trials.thisTrialN,test_trials.thisN,test_trials.thisIndex,test_trials.ran,Bonus
6677627ceb0f9e2e3f5fc5be,TCR,2024-06-26_12h39.36.449,LearnStrategy,2023.2.3,Win32,123.4567901,,,,,,,,,,,,,,,,,,,,,,,,,,,,,,,,,,,,,,,,,,,
6677627ceb0f9e2e3f5fc5be,TCR,2024-06-26_12h39.36.449,LearnStrategy,2023.2.3,Win32,123.4567901,1,1,1,-0.036979167,-0.003472233,1,0,0,2.8776,rock_grid_rect_2,8,16,-1,-1,2.878,0.0734375,-0.238194466,1,0,0,7.9978,Diorite_rect,3,7.998,0,0,0,0,0,1,,,,,,,,,,,,,
6677627ceb0f9e2e3f5fc5be,TCR,2024-06-26_12h39.36.449,LearnStrategy,2023.2.3,Win32,123.4567901,1,1,2,0.022743098,-0.002777799,1,0,0,1.7989,rock_grid_rect_2,2,05,-1,-1,1.799,-0.142534701,-0.265277799,1,0,0,9.1777,Basalt_rect,2,9.178,1,1,0,1,0,1,,,,,,,,,,,,,
6677627ceb0f9e2e3f5fc5be,TCR,2024-06-26_12h39.36.449,LearnStrategy,2023.2.3,Win32,123.4567901,1,1,3,-0.019618034,0.004166667,1,0,0,1.1245,rock_grid_rect_2,6,06,-1,-1,1.124,-0.178645833,-0.417361132,1,0,0,4.6545,Pegmatite_rect,6,4.654,1,2,0,2,0,1,,,,,,,,,,,,,
6677627ceb0f9e2e3f5fc5be,TCR,2024-06-26_12h39.36.449,LearnStrategy,2023.2.3,Win32,123.4567901,1,1,4,-0.096701368,0.008333333,1,0,0,0.8692,rock_grid_rect_2,7,07,-1,-1,0.869,0.165798632,-0.247916667,1,0,0,7.5693,Diorite_rect,3,7.569,0,3,0,3,0,1,,,,,,,,,,,,,
6677627ceb0f9e2e3f5fc5be,TCR,2024-06-26_12h39.36.449,LearnStrategy,2023.2.3,Win32,123.4567901,1,1,5,-0.015451368,0.002777767,1,0,0,1.1241,rock_grid_rect_2,4,15,-1,-1,1.124,-0.346006902,-0.258333333,1,0,0,7.7306,Andesite_rect,1,7.731,0,4,0,4,0,1,,,,,,,,,,,,,
6677627ceb0f9e2e3f5fc5be,TCR,2024-06-26_12h39.36.449,LearnStrategy,2023.2.3,Win32,123.4567901,1,1,6,-0.0265625,-0.021527799,1,0,0,1.0907,rock_grid_rect_2,8,08,-1,-1,1.091,-0.3515625,-0.382638931,1,0,0,1.9889,Obsidian_rect,5,1.989,0,5,0,5,0,1,,,,,,,,,,,,,
6677627ceb0f9e2e3f5fc5be,TCR,2024-06-26_12h39.36.449,LearnStrategy,2023.2.3,Win32,123.4567901,1,1,7,-0.023784701,-0.014583333,1,0,0,0.9742,rock_grid_rect_2,5,16,-1,-1,0.974,-0.369618034,-0.391666667,1,0,0,2.8607,Obsidian_rect,5,2.861,1,6,0,6,0,1,,,,,,,,,,,,,
6677627ceb0f9e2e3f5fc5be,TCR,2024-06-26_12h39.36.449,LearnStrategy,2023.2.3,Win32,123.4567901,1,1,8,-0.104340235,0,1,0,0,0.7145,rock_grid_rect_2,3,14,-1,-1,0.715,-0.3890625,-0.255555598,1,0,0,1.5206,Andesite_rect,1,1.521,0,7,0,7,0,1,,,,,,,,,,,,,
6677627ceb0f9e2e3f5fc5be,TCR,2024-06-26_12h39.36.449,LearnStrategy,2023.2.3,Win32,123.4567901,1,1,9,-0.003645833,-0.022222233,1,0,0,0.8161,rock_grid_rect_2,1,02,-1,-1,0.816,-0.166840235,-0.265972265,1,0,0,3.9112,Basalt_rect,2,3.911,0,8,0,8,0,1,,,,,,,,,,,,,
6677627ceb0f9e2e3f5fc5be,TCR,2024-06-26_12h39.36.449,LearnStrategy,2023.2.3,Win32,123.4567901,1,1,10,-0.002951368,0.013888868,1,0,0,0.6577,rock_grid_rect_2,1,05,-1,-1,0.658,-0.099479167,-0.379166667,1,0,0,2.2192,Pegmatite_rect,6,2.219,0,9,0,9,0,1,,,,,,,,,,,,,
6677627ceb0f9e2e3f5fc5be,TCR,2024-06-26_12h39.36.449,LearnStrategy,2023.2.3,Win32,123.4567901,1,1,11,-0.032118034,-0.008333333,1,0,0,0.6992,rock_grid_rect_2,2,08,-1,-1,0.699,0.084548632,-0.258333333,1,0,0,2.8473,Diorite_rect,3,2.847,0,10,0,10,0,1,,,,,,,,,,,,,
6677627ceb0f9e2e3f5fc5be,TCR,2024-06-26_12h39.36.449,LearnStrategy,2023.2.3,Win32,123.4567901,1,1,12,-0.061284701,-0.006944466,1,0,0,0.6242,rock_grid_rect_2,6,10,-1,-1,0.624,0.045659765,-0.401388931,1,0,0,3.3139,Peridotite_rect,7,3.314,0,11,0,11,0,1,,,,,,,,,,,,,
6677627ceb0f9e2e3f5fc5be,TCR,2024-06-26_12h39.36.449,LearnStrategy,2023.2.3,Win32,123.4567901,1,1,13,-0.025173569,-0.008333333,1,0,0,0.6987,rock_grid_rect_2,7,05,-1,-1,0.699,-0.091840235,-0.410416667,1,0,0,1.4057,Pegmatite_rect,6,1.406,0,12,0,12,0,1,,,,,,,,,,,,,
6677627ceb0f9e2e3f5fc5be,TCR,2024-06-26_12h39.36.449,LearnStrategy,2023.2.3,Win32,123.4567901,1,1,14,-0.050868034,0.009722201,1,0,0,0.6745,rock_grid_rect_2,4,11,-1,-1,0.674,-0.135590235,-0.240972265,1,0,0,2.9383,Basalt_rect,2,2.938,0,13,0,13,0,1,,,,,,,,,,,,,
6677627ceb0f9e2e3f5fc5be,TCR,2024-06-26_12h39.36.449,LearnStrategy,2023.2.3,Win32,123.4567901,1,1,15,-0.044618034,-0.009722233,1,0,0,0.8324,rock_grid_rect_2,5,06,-1,-1,0.832,-0.393229167,-0.381944466,1,0,0,1.4808,Obsidian_rect,5,1.481,1,14,0,14,0,1,,,,,,,,,,,,,
6677627ceb0f9e2e3f5fc5be,TCR,2024-06-26_12h39.36.449,LearnStrategy,2023.2.3,Win32,123.4567901,1,1,16,-0.038368034,-0.01875,1,0,0,0.8414,rock_grid_rect_2,3,16,-1,-1,0.841,-0.111284701,-0.404861132,1,0,0,4.5636,Pegmatite_rect,6,4.564,0,15,0,15,0,1,,,,,,,,,,,,,
6677627ceb0f9e2e3f5fc5be,TCR,2024-06-26_12h39.36.449,LearnStrategy,2023.2.3,Win32,123.4567901,1,2,1,,,,,,,,1,10,,,,,,,,,,,2,5.321,0,,,,,,-0.1203125,-0.249305598,1,0,0,5.3213,Basalt_rect,0,0,0,0,1,
6677627ceb0f9e2e3f5fc5be,TCR,2024-06-26_12h39.36.449,LearnStrategy,2023.2.3,Win32,123.4567901,1,2,2,,,,,,,,8,14,,,,,,,,,,,7,7.055,0,,,,,,0.101909765,-0.4,1,0,0,7.0555,Peridotite_rect,1,0,1,0,1,
6677627ceb0f9e2e3f5fc5be,TCR,2024-06-26_12h39.36.449,LearnStrategy,2023.2.3,Win32,123.4567901,1,2,3,,,,,,,,3,06,,,,,,,,,,,2,2.839,0,,,,,,-0.110590235,-0.245138931,1,0,0,2.8387,Basalt_rect,2,0,2,0,1,
6677627ceb0f9e2e3f5fc5be,TCR,2024-06-26_12h39.36.449,LearnStrategy,2023.2.3,Win32,123.4567901,1,2,4,,,,,,,,8,02,,,,,,,,,,,8,3.822,1,,,,,,0.3421875,-0.396527799,1,0,0,3.8221,Pumice_rect,3,0,3,0,1,
6677627ceb0f9e2e3f5fc5be,TCR,2024-06-26_12h39.36.449,LearnStrategy,2023.2.3,Win32,123.4567901,1,2,5,,,,,,,,4,09,,,,,,,,,,,5,1.88,0,,,,,,-0.3890625,-0.403472265,1,0,0,1.8803,Obsidian_rect,4,0,4,0,1,
6677627ceb0f9e2e3f5fc5be,TCR,2024-06-26_12h39.36.449,LearnStrategy,2023.2.3,Win32,123.4567901,1,2,6,,,,,,,,7,08,,,,,,,,,,,6,2.016,0,,,,,,-0.143229167,-0.421527799,1,0,0,2.0158,Pegmatite_rect,5,0,5,0,1,
6677627ceb0f9e2e3f5fc5be,TCR,2024-06-26_12h39.36.449,LearnStrategy,2023.2.3,Win32,123.4567901,1,2,7,,,,,,,,1,16,,,,,,,,,,,2,3.252,0,,,,,,-0.141145833,-0.263888931,1,0,0,3.2523,Basalt_rect,6,0,6,0,1,
6677627ceb0f9e2e3f5fc5be,TCR,2024-06-26_12h39.36.449,LearnStrategy,2023.2.3,Win32,123.4567901,1,2,8,,,,,,,,2,02,,,,,,,,,,,3,2.272,0,,,,,,0.202604167,-0.249305598,1,0,0,2.2719,Diorite_rect,7,0,7,0,1,
6677627ceb0f9e2e3f5fc5be,TCR,2024-06-26_12h39.36.449,LearnStrategy,2023.2.3,Win32,123.4567901,1,2,9,,,,,,,,7,06,,,,,,,,,,,8,2.922,0,,,,,,0.3796875,-0.401388931,1,0,0,2.9219,Pumice_rect,8,0,8,0,1,
6677627ceb0f9e2e3f5fc5be,TCR,2024-06-26_12h39.36.449,LearnStrategy,2023.2.3,Win32,123.4567901,1,2,10,,,,,,,,4,05,,,,,,,,,,,1,2.122,0,,,,,,-0.396006934,-0.265277799,1,0,0,2.1217,Andesite_rect,9,0,9,0,1,
6677627ceb0f9e2e3f5fc5be,TCR,2024-06-26_12h39.36.449,LearnStrategy,2023.2.3,Win32,123.4567901,1,2,11,,,,,,,,6,15,,,,,,,,,,,4,3.897,0,,,,,,0.325520833,-0.23125,1,0,0,3.8971,Gabbro_rect,10,0,10,0,1,
6677627ceb0f9e2e3f5fc5be,TCR,2024-06-26_12h39.36.449,LearnStrategy,2023.2.3,Win32,123.4567901,1,2,12,,,,,,,,3,08,,,,,,,,,,,2,2.197,0,,,,,,-0.087673569,-0.266666667,1,0,0,2.1968,Basalt_rect,11,0,11,0,1,
6677627ceb0f9e2e3f5fc5be,TCR,2024-06-26_12h39.36.449,LearnStrategy,2023.2.3,Win32,123.4567901,1,2,13,,,,,,,,6,09,,,,,,,,,,,8,1.916,0,,,,,,0.339409765,-0.386805598,1,0,0,1.9158,Pumice_rect,12,0,12,0,1,
6677627ceb0f9e2e3f5fc5be,TCR,2024-06-26_12h39.36.449,LearnStrategy,2023.2.3,Win32,123.4567901,1,2,14,,,,,,,,2,10,,,,,,,,,,,6,3.276,0,,,,,,-0.109201368,-0.378472265,1,0,0,3.2763,Pegmatite_rect,13,0,13,0,1,
6677627ceb0f9e2e3f5fc5be,TCR,2024-06-26_12h39.36.449,LearnStrategy,2023.2.3,Win32,123.4567901,1,2,15,,,,,,,,5,05,,,,,,,,,,,5,1.437,1,,,,,,-0.3453125,-0.393055598,1,0,0,1.4372,Obsidian_rect,14,0,14,0,1,
6677627ceb0f9e2e3f5fc5be,TCR,2024-06-26_12h39.36.449,LearnStrategy,2023.2.3,Win32,123.4567901,1,2,16,,,,,,,,5,12,,,,,,,,,,,5,0.989,1,,,,,,-0.386979167,-0.400694466,1,0,0,0.9889,Obsidian_rect,15,0,15,0,1,
6677627ceb0f9e2e3f5fc5be,TCR,2024-06-26_12h39.36.449,LearnStrategy,2023.2.3,Win32,123.4567901,2,1,1,-0.017534701,-0.015972233,1,0,0,0.8756,rock_grid_rect_2,6,10,-1,-1,0.876,0.155381966,-0.260416667,1,0,0,6.3293,Diorite_rect,3,6.329,0,0,0,0,0,1,,,,,,,,,,,,,
6677627ceb0f9e2e3f5fc5be,TCR,2024-06-26_12h39.36.449,LearnStrategy,2023.2.3,Win32,123.4567901,2,1,2,-0.021006902,-0.019444466,1,0,0,0.849,rock_grid_rect_2,1,05,-1,-1,0.849,0.311632029,-0.240972265,1,0,0,1.9136,Gabbro_rect,4,1.914,0,1,0,1,0,1,,,,,,,,,,,,,
6677627ceb0f9e2e3f5fc5be,TCR,2024-06-26_12h39.36.449,LearnStrategy,2023.2.3,Win32,123.4567901,2,1,3,-0.0078125,-0.003472233,1,0,0,0.9324,rock_grid_rect_2,4,11,-1,-1,0.932,-0.3953125,-0.249305598,1,0,0,1.4056,Andesite_rect,1,1.406,0,2,0,2,0,1,,,,,,,,,,,,,
6677627ceb0f9e2e3f5fc5be,TCR,2024-06-26_12h39.36.449,LearnStrategy,2023.2.3,Win32,123.4567901,2,1,4,-0.023784701,-0.000694466,1,0,0,0.9489,rock_grid_rect_2,7,12,-1,-1,0.949,0.065798632,-0.398611132,1,0,0,2.8138,Peridotite_rect,7,2.814,1,3,0,3,0,1,,,,,,,,,,,,,
6677627ceb0f9e2e3f5fc5be,TCR,2024-06-26_12h39.36.449,LearnStrategy,2023.2.3,Win32,123.4567901,2,1,5,-0.0828125,-0.000694466,1,0,0,0.6492,rock_grid_rect_2,1,05,-1,-1,0.649,0.1296875,-0.396527799,1,0,0,1.7722,Peridotite_rect,7,1.772,0,4,0,4,0,1,,,,,,,,,,,,,
6677627ceb0f9e2e3f5fc5be,TCR,2024-06-26_12h39.36.449,LearnStrategy,2023.2.3,Win32,123.4567901,2,1,6,-0.034895833,0.01875,1,0,0,0.7409,rock_grid_rect_2,3,10,-1,-1,0.741,0.353298696,-0.257638931,1,0,0,2.7053,Gabbro_rect,4,2.705,0,5,0,5,0,1,,,,,,,,,,,,,
6677627ceb0f9e2e3f5fc5be,TCR,2024-06-26_12h39.36.449,LearnStrategy,2023.2.3,Win32,123.4567901,2,1,7,0.003298632,-0.014583333,1,0,0,1.0075,rock_grid_rect_2,6,05,-1,-1,1.007,-0.384895833,-0.405555598,1,0,0,1.3555,Obsidian_rect,5,1.356,0,6,0,6,0,1,,,,,,,,,,,,,
6677627ceb0f9e2e3f5fc5be,TCR,2024-06-26_12h39.36.449,LearnStrategy,2023.2.3,Win32,123.4567901,2,1,8,0.031076431,0.019444434,1,0,0,0.5908,rock_grid_rect_2,3,14,-1,-1,0.591,0.188715363,-0.250694466,1,0,0,2.3222,Diorite_rect,3,2.322,1,7,0,7,0,1,,,,,,,,,,,,,
6677627ceb0f9e2e3f5fc5be,TCR,2024-06-26_12h39.36.449,LearnStrategy,2023.2.3,Win32,123.4567901,2,1,9,-0.013368034,0.022916667,1,0,0,0.599,rock_grid_rect_2,2,12,-1,-1,0.599,0.392882029,-0.254166667,1,0,0,3.5718,Gabbro_rect,4,3.572,0,8,0,8,0,1,,,,,,,,,,,,,
6677627ceb0f9e2e3f5fc5be,TCR,2024-06-26_12h39.36.449,LearnStrategy,2023.2.3,Win32,123.4567901,2,1,10,-0.031423569,-0.011111132,1,0,0,0.5576,rock_grid_rect_2,2,01,-1,-1,0.558,-0.098090235,-0.406944466,1,0,0,2.2386,Pegmatite_rect,6,2.239,0,9,0,9,0,1,,,,,,,,,,,,,
6677627ceb0f9e2e3f5fc5be,TCR,2024-06-26_12h39.36.449,LearnStrategy,2023.2.3,Win32,123.4567901,2,1,11,0.0171875,0.013888868,1,0,0,0.8406,rock_grid_rect_2,7,15,-1,-1,0.841,0.343576431,-0.402083333,1,0,0,1.3639,Pumice_rect,8,1.364,0,10,0,10,0,1,,,,,,,,,,,,,
6677627ceb0f9e2e3f5fc5be,TCR,2024-06-26_12h39.36.449,LearnStrategy,2023.2.3,Win32,123.4567901,2,1,12,-0.034201368,-0.025,1,0,0,0.4823,rock_grid_rect_2,8,03,-1,-1,0.482,-0.378645833,-0.252777799,1,0,0,2.0137,Andesite_rect,1,2.014,0,11,0,11,0,1,,,,,,,,,,,,,
6677627ceb0f9e2e3f5fc5be,TCR,2024-06-26_12h39.36.449,LearnStrategy,2023.2.3,Win32,123.4567901,2,1,13,-0.036284701,0.018055534,1,0,0,0.8156,rock_grid_rect_2,2,01,-1,-1,0.816,-0.0890625,-0.236805598,1,0,0,3.2305,Basalt_rect,2,3.231,1,12,0,12,0,1,,,,,,,,,,,,,
6677627ceb0f9e2e3f5fc5be,TCR,2024-06-26_12h39.36.449,LearnStrategy,2023.2.3,Win32,123.4567901,2,1,14,0.009548632,0.010416667,1,0,0,1.1489,rock_grid_rect_2,6,06,-1,-1,1.149,0.327604167,-0.388194466,1,0,0,1.6888,Pumice_rect,8,1.689,0,13,0,13,0,1,,,,,,,,,,,,,
6677627ceb0f9e2e3f5fc5be,TCR,2024-06-26_12h39.36.449,LearnStrategy,2023.2.3,Win32,123.4567901,2,1,15,0.016493098,-0.005555566,1,0,0,0.6906,rock_grid_rect_2,4,11,-1,-1,0.691,-0.322395833,-0.239583333,1,0,0,2.0225,Andesite_rect,1,2.022,0,14,0,14,0,1,,,,,,,,,,,,,
6677627ceb0f9e2e3f5fc5be,TCR,2024-06-26_12h39.36.449,LearnStrategy,2023.2.3,Win32,123.4567901,2,1,16,0.007465299,-0.007638899,1,0,0,0.7738,rock_grid_rect_2,8,10,-1,-1,0.774,0.372048696,-0.406944466,1,0,0,1.5056,Pumice_rect,8,1.506,1,15,0,15,0,1,,,,,,,,,,,,,
6677627ceb0f9e2e3f5fc5be,TCR,2024-06-26_12h39.36.449,LearnStrategy,2023.2.3,Win32,123.4567901,2,2,1,,,,,,,,7,13,,,,,,,,,,,8,2.681,0,,,,,,0.330382029,-0.383333333,1,0,0,2.6809,Pumice_rect,0,0,0,0,1,
6677627ceb0f9e2e3f5fc5be,TCR,2024-06-26_12h39.36.449,LearnStrategy,2023.2.3,Win32,123.4567901,2,2,2,,,,,,,,2,06,,,,,,,,,,,3,11.164,0,,,,,,0.071354167,-0.250694466,1,0,0,11.1641,Diorite_rect,1,0,1,0,1,
6677627ceb0f9e2e3f5fc5be,TCR,2024-06-26_12h39.36.449,LearnStrategy,2023.2.3,Win32,123.4567901,2,2,3,,,,,,,,2,16,,,,,,,,,,,6,3.377,0,,,,,,-0.110590235,-0.420833333,1,0,0,3.3768,Pegmatite_rect,2,0,2,0,1,
6677627ceb0f9e2e3f5fc5be,TCR,2024-06-26_12h39.36.449,LearnStrategy,2023.2.3,Win32,123.4567901,2,2,4,,,,,,,,3,07,,,,,,,,,,,4,2.247,0,,,,,,0.377604167,-0.245833333,1,0,0,2.2471,Gabbro_rect,3,0,3,0,1,
6677627ceb0f9e2e3f5fc5be,TCR,2024-06-26_12h39.36.449,LearnStrategy,2023.2.3,Win32,123.4567901,2,2,5,,,,,,,,5,08,,,,,,,,,,,5,1.072,1,,,,,,-0.439756934,-0.390277799,1,0,0,1.072,Obsidian_rect,4,0,4,0,1,
6677627ceb0f9e2e3f5fc5be,TCR,2024-06-26_12h39.36.449,LearnStrategy,2023.2.3,Win32,123.4567901,2,2,6,,,,,,,,6,07,,,,,,,,,,,2,3.853,0,,,,,,-0.1890625,-0.25,1,0,0,3.8526,Basalt_rect,5,0,5,0,1,
6677627ceb0f9e2e3f5fc5be,TCR,2024-06-26_12h39.36.449,LearnStrategy,2023.2.3,Win32,123.4567901,2,2,7,,,,,,,,1,07,,,,,,,,,,,3,1.394,0,,,,,,0.141493098,-0.251388931,1,0,0,1.3938,Diorite_rect,6,0,6,0,1,
6677627ceb0f9e2e3f5fc5be,TCR,2024-06-26_12h39.36.449,LearnStrategy,2023.2.3,Win32,123.4567901,2,2,8,,,,,,,,8,15,,,,,,,,,,,4,1.753,0,,,,,,0.387326431,-0.228472265,1,0,0,1.7529,Gabbro_rect,7,0,7,0,1,
6677627ceb0f9e2e3f5fc5be,TCR,2024-06-26_12h39.36.449,LearnStrategy,2023.2.3,Win32,123.4567901,2,2,9,,,,,,,,5,04,,,,,,,,,,,5,1.156,1,,,,,,-0.402256934,-0.410416667,1,0,0,1.1556,Obsidian_rect,8,0,8,0,1,
6677627ceb0f9e2e3f5fc5be,TCR,2024-06-26_12h39.36.449,LearnStrategy,2023.2.3,Win32,123.4567901,2,2,10,,,,,,,,6,08,,,,,,,,,,,5,1.402,0,,,,,,-0.398090267,-0.385416667,1,0,0,1.4025,Obsidian_rect,9,0,9,0,1,
6677627ceb0f9e2e3f5fc5be,TCR,2024-06-26_12h39.36.449,LearnStrategy,2023.2.3,Win32,123.4567901,2,2,11,,,,,,,,1,09,,,,,,,,,,,2,4.164,0,,,,,,-0.0453125,-0.247916667,1,0,0,4.1643,Basalt_rect,10,0,10,0,1,
6677627ceb0f9e2e3f5fc5be,TCR,2024-06-26_12h39.36.449,LearnStrategy,2023.2.3,Win32,123.4567901,2,2,12,,,,,,,,3,12,,,,,,,,,,,7,3.069,0,,,,,,0.069270833,-0.406944466,1,0,0,3.0692,Peridotite_rect,11,0,11,0,1,
6677627ceb0f9e2e3f5fc5be,TCR,2024-06-26_12h39.36.449,LearnStrategy,2023.2.3,Win32,123.4567901,2,2,13,,,,,,,,7,04,,,,,,,,,,,6,1.478,0,,,,,,-0.111284701,-0.40625,1,0,0,1.4777,Pegmatite_rect,12,0,12,0,1,
6677627ceb0f9e2e3f5fc5be,TCR,2024-06-26_12h39.36.449,LearnStrategy,2023.2.3,Win32,123.4567901,2,2,14,,,,,,,,4,10,,,,,,,,,,,5,1.946,0,,,,,,-0.398090267,-0.392361132,1,0,0,1.9464,Obsidian_rect,13,0,13,0,1,
6677627ceb0f9e2e3f5fc5be,TCR,2024-06-26_12h39.36.449,LearnStrategy,2023.2.3,Win32,123.4567901,2,2,15,,,,,,,,8,05,,,,,,,,,,,3,1.12,0,,,,,,0.140104167,-0.250694466,1,0,0,1.1196,Diorite_rect,14,0,14,0,1,
6677627ceb0f9e2e3f5fc5be,TCR,2024-06-26_12h39.36.449,LearnStrategy,2023.2.3,Win32,123.4567901,2,2,16,,,,,,,,4,03,,,,,,,,,,,1,1.606,0,,,,,,-0.346701368,-0.233333333,1,0,0,1.6057,Andesite_rect,15,0,15,0,1,
6677627ceb0f9e2e3f5fc5be,TCR,2024-06-26_12h39.36.449,LearnStrategy,2023.2.3,Win32,123.4567901,3,1,1,0.0546875,0.002777767,1,0,0,0.7745,rock_grid_rect_2,5,16,-1,-1,0.774,-0.375173601,-0.4,1,0,0,1.3639,Obsidian_rect,5,1.364,1,0,0,0,0,1,,,,,,,,,,,,,
6677627ceb0f9e2e3f5fc5be,TCR,2024-06-26_12h39.36.449,LearnStrategy,2023.2.3,Win32,123.4567901,3,1,2,0.020659765,0.003472201,1,0,0,0.6741,rock_grid_rect_2,8,09,-1,-1,0.674,-0.041145833,-0.266666667,1,0,0,1.3924,Basalt_rect,2,1.392,0,1,0,1,0,1,,,,,,,,,,,,,
6677627ceb0f9e2e3f5fc5be,TCR,2024-06-26_12h39.36.449,LearnStrategy,2023.2.3,Win32,123.4567901,3,1,3,-0.086979167,-0.007638899,1,0,0,0.8156,rock_grid_rect_2,6,10,-1,-1,0.816,0.3734375,-0.409722265,1,0,0,1.2056,Pumice_rect,8,1.206,0,2,0,2,0,1,,,,,,,,,,,,,
6677627ceb0f9e2e3f5fc5be,TCR,2024-06-26_12h39.36.449,LearnStrategy,2023.2.3,Win32,123.4567901,3,1,4,-0.002951368,0.011805534,1,0,0,0.8159,rock_grid_rect_2,1,06,-1,-1,0.816,0.169270833,-0.242361132,1,0,0,1.239,Diorite_rect,3,1.239,0,3,0,3,0,1,,,,,,,,,,,,,
6677627ceb0f9e2e3f5fc5be,TCR,2024-06-26_12h39.36.449,LearnStrategy,2023.2.3,Win32,123.4567901,3,1,5,0.001215299,-0.007638899,1,0,0,0.5326,rock_grid_rect_2,3,09,-1,-1,0.533,0.060243098,-0.388888931,1,0,0,1.4139,Peridotite_rect,7,1.414,0,4,0,4,0,1,,,,,,,,,,,,,
6677627ceb0f9e2e3f5fc5be,TCR,2024-06-26_12h39.36.449,LearnStrategy,2023.2.3,Win32,123.4567901,3,1,6,0.009548632,0.010416667,1,0,0,0.7154,rock_grid_rect_2,7,15,-1,-1,0.715,-0.087673569,-0.396527799,1,0,0,1.6389,Pegmatite_rect,6,1.639,0,5,0,5,0,1,,,,,,,,,,,,,
6677627ceb0f9e2e3f5fc5be,TCR,2024-06-26_12h39.36.449,LearnStrategy,2023.2.3,Win32,123.4567901,3,1,7,0.036631966,-0.011111132,1,0,0,0.8159,rock_grid_rect_2,2,11,-1,-1,0.816,0.369270833,-0.261111132,1,0,0,1.8305,Gabbro_rect,4,1.83,0,6,0,6,0,1,,,,,,,,,,,,,
6677627ceb0f9e2e3f5fc5be,TCR,2024-06-26_12h39.36.449,LearnStrategy,2023.2.3,Win32,123.4567901,3,1,8,0.001909765,0.002083333,1,0,0,0.6577,rock_grid_rect_2,6,11,-1,-1,0.658,0.103993098,-0.23125,1,0,0,0.4475,Diorite_rect,3,0.447,0,7,0,7,0,1,,,,,,,,,,,,,
6677627ceb0f9e2e3f5fc5be,TCR,2024-06-26_12h39.36.449,LearnStrategy,2023.2.3,Win32,123.4567901,3,1,9,-0.018229167,-0.018055566,1,0,0,0.6077,rock_grid_rect_2,4,08,-1,-1,0.608,-0.375173601,-0.240972265,1,0,0,0.5891,Andesite_rect,1,0.589,0,8,0,8,0,1,,,,,,,,,,,,,
6677627ceb0f9e2e3f5fc5be,TCR,2024-06-26_12h39.36.449,LearnStrategy,2023.2.3,Win32,123.4567901,3,1,10,0.028993098,-0.015972233,1,0,0,0.6074,rock_grid_rect_2,7,05,-1,-1,0.607,-0.086979167,-0.245138931,1,0,0,0.5723,Basalt_rect,2,0.572,0,9,0,9,0,1,,,,,,,,,,,,,
6677627ceb0f9e2e3f5fc5be,TCR,2024-06-26_12h39.36.449,LearnStrategy,2023.2.3,Win32,123.4567901,3,1,11,0.055381966,-0.011805566,1,0,0,0.4828,rock_grid_rect_2,2,05,-1,-1,0.483,-0.305034701,-0.381944466,1,0,0,0.7641,Obsidian_rect,5,0.764,0,10,0,10,0,1,,,,,,,,,,,,,
6677627ceb0f9e2e3f5fc5be,TCR,2024-06-26_12h39.36.449,LearnStrategy,2023.2.3,Win32,123.4567901,3,1,12,-0.004340235,-0.017361132,1,0,0,1.5412,rock_grid_rect_2,3,15,-1,-1,1.541,0.068576431,-0.242361132,1,0,0,1.2642,Diorite_rect,3,1.264,1,11,0,11,0,1,,,,,,,,,,,,,
6677627ceb0f9e2e3f5fc5be,TCR,2024-06-26_12h39.36.449,LearnStrategy,2023.2.3,Win32,123.4567901,3,1,13,-0.0015625,-0.022222233,1,0,0,0.6155,rock_grid_rect_2,1,11,-1,-1,0.615,-0.075173569,-0.240277799,1,0,0,1.7054,Basalt_rect,2,1.705,0,12,0,12,0,1,,,,,,,,,,,,,
6677627ceb0f9e2e3f5fc5be,TCR,2024-06-26_12h39.36.449,LearnStrategy,2023.2.3,Win32,123.4567901,3,1,14,-0.086284701,0.010416667,1,0,0,1.0166,rock_grid_rect_2,4,16,-1,-1,1.017,0.322048696,-0.395138931,1,0,0,2.4771,Pumice_rect,8,2.477,0,13,0,13,0,1,,,,,,,,,,,,,
6677627ceb0f9e2e3f5fc5be,TCR,2024-06-26_12h39.36.449,LearnStrategy,2023.2.3,Win32,123.4567901,3,1,15,0.0484375,-0.018055566,1,0,0,0.5856,rock_grid_rect_2,8,04,-1,-1,0.586,0.111631966,-0.418055598,1,0,0,2.196,Peridotite_rect,7,2.196,0,14,0,14,0,1,,,,,,,,,,,,,
6677627ceb0f9e2e3f5fc5be,TCR,2024-06-26_12h39.36.449,LearnStrategy,2023.2.3,Win32,123.4567901,3,1,16,0.024826431,0.002777767,1,0,0,0.4494,rock_grid_rect_2,2,14,-1,-1,0.449,0.085243098,-0.395833333,1,0,0,2.4919,Peridotite_rect,7,2.492,0,15,0,15,0,1,,,,,,,,,,,,,
6677627ceb0f9e2e3f5fc5be,TCR,2024-06-26_12h39.36.449,LearnStrategy,2023.2.3,Win32,123.4567901,3,2,1,,,,,,,,5,07,,,,,,,,,,,5,1.422,1,,,,,,-0.402256934,-0.40625,1,0,0,1.4221,Obsidian_rect,0,0,0,0,1,
6677627ceb0f9e2e3f5fc5be,TCR,2024-06-26_12h39.36.449,LearnStrategy,2023.2.3,Win32,123.4567901,3,2,2,,,,,,,,4,14,,,,,,,,,,,4,2.78,1,,,,,,0.351909765,-0.25,1,0,0,2.7798,Gabbro_rect,1,0,1,0,1,
6677627ceb0f9e2e3f5fc5be,TCR,2024-06-26_12h39.36.449,LearnStrategy,2023.2.3,Win32,123.4567901,3,2,3,,,,,,,,8,13,,,,,,,,,,,4,1.905,0,,,,,,0.367882029,-0.25625,1,0,0,1.9054,Gabbro_rect,2,0,2,0,1,
6677627ceb0f9e2e3f5fc5be,TCR,2024-06-26_12h39.36.449,LearnStrategy,2023.2.3,Win32,123.4567901,3,2,4,,,,,,,,6,12,,,,,,,,,,,8,2.589,0,,,,,,0.330382029,-0.397222265,1,0,0,2.589,Pumice_rect,3,0,3,0,1,
6677627ceb0f9e2e3f5fc5be,TCR,2024-06-26_12h39.36.449,LearnStrategy,2023.2.3,Win32,123.4567901,3,2,5,,,,,,,,1,01,,,,,,,,,,,1,4.096,1,,,,,,-0.311979167,-0.25,1,0,0,4.096,Andesite_rect,4,0,4,0,1,
6677627ceb0f9e2e3f5fc5be,TCR,2024-06-26_12h39.36.449,LearnStrategy,2023.2.3,Win32,123.4567901,3,2,6,,,,,,,,8,06,,,,,,,,,,,2,4.969,0,,,,,,-0.071701368,-0.254166667,1,0,0,4.9691,Basalt_rect,5,0,5,0,1,
6677627ceb0f9e2e3f5fc5be,TCR,2024-06-26_12h39.36.449,LearnStrategy,2023.2.3,Win32,123.4567901,3,2,7,,,,,,,,7,10,,,,,,,,,,,8,7.269,0,,,,,,0.346354167,-0.386805598,1,0,0,7.2692,Pumice_rect,6,0,6,0,1,
6677627ceb0f9e2e3f5fc5be,TCR,2024-06-26_12h39.36.449,LearnStrategy,2023.2.3,Win32,123.4567901,3,2,8,,,,,,,,2,04,,,,,,,,,,,3,2.647,0,,,,,,0.050520833,-0.245833333,1,0,0,2.6467,Diorite_rect,7,0,7,0,1,
6677627ceb0f9e2e3f5fc5be,TCR,2024-06-26_12h39.36.449,LearnStrategy,2023.2.3,Win32,123.4567901,3,2,9,,,,,,,,4,01,,,,,,,,,,,7,1.38,0,,,,,,0.093576431,-0.411805598,1,0,0,1.3796,Peridotite_rect,8,0,8,0,1,
6677627ceb0f9e2e3f5fc5be,TCR,2024-06-26_12h39.36.449,LearnStrategy,2023.2.3,Win32,123.4567901,3,2,10,,,,,,,,7,02,,,,,,,,,,,2,0.988,0,,,,,,-0.098784701,-0.247916667,1,0,0,0.9883,Basalt_rect,9,0,9,0,1,
6677627ceb0f9e2e3f5fc5be,TCR,2024-06-26_12h39.36.449,LearnStrategy,2023.2.3,Win32,123.4567901,3,2,11,,,,,,,,3,11,,,,,,,,,,,3,0.927,1,,,,,,0.072743098,-0.235416667,1,0,0,0.9269,Diorite_rect,10,0,10,0,1,
6677627ceb0f9e2e3f5fc5be,TCR,2024-06-26_12h39.36.449,LearnStrategy,2023.2.3,Win32,123.4567901,3,2,12,,,,,,,,3,13,,,,,,,,,,,6,0.994,0,,,,,,-0.037673569,-0.383333333,1,0,0,0.9937,Pegmatite_rect,11,0,11,0,1,
6677627ceb0f9e2e3f5fc5be,TCR,2024-06-26_12h39.36.449,LearnStrategy,2023.2.3,Win32,123.4567901,3,2,13,,,,,,,,6,03,,,,,,,,,,,7,2.13,0,,,,,,0.195659765,-0.390972265,1,0,0,2.1304,Peridotite_rect,12,0,12,0,1,
6677627ceb0f9e2e3f5fc5be,TCR,2024-06-26_12h39.36.449,LearnStrategy,2023.2.3,Win32,123.4567901,3,2,14,,,,,,,,1,14,,,,,,,,,,,4,1.505,0,,,,,,0.347743098,-0.249305598,1,0,0,1.505,Gabbro_rect,13,0,13,0,1,
6677627ceb0f9e2e3f5fc5be,TCR,2024-06-26_12h39.36.449,LearnStrategy,2023.2.3,Win32,123.4567901,3,2,15,,,,,,,,2,09,,,,,,,,,,,2,2.638,1,,,,,,-0.048090235,-0.259027799,1,0,0,2.6384,Basalt_rect,14,0,14,0,1,
6677627ceb0f9e2e3f5fc5be,TCR,2024-06-26_12h39.36.449,LearnStrategy,2023.2.3,Win32,123.4567901,3,2,16,,,,,,,,5,09,,,,,,,,,,,5,1.089,1,,,,,,-0.373784701,-0.393055598,1,0,0,1.0886,Obsidian_rect,15,0,15,0,1,
6677627ceb0f9e2e3f5fc5be,TCR,2024-06-26_12h39.36.449,LearnStrategy,2023.2.3,Win32,123.4567901,4,1,1,0.036631966,-0.014583333,1,0,0,1.0464,rock_grid_rect_2,8,10,-1,-1,1.046,0.380382029,-0.261805598,1,0,0,1.9474,Gabbro_rect,4,1.947,0,0,0,0,0,1,,,,,,,,,,,,,
6677627ceb0f9e2e3f5fc5be,TCR,2024-06-26_12h39.36.449,LearnStrategy,2023.2.3,Win32,123.4567901,4,1,2,0.015104167,-0.013194466,1,0,0,0.5405,rock_grid_rect_2,4,15,-1,-1,0.541,0.096354167,-0.252777799,1,0,0,3.1307,Diorite_rect,3,3.131,0,1,0,1,0,1,,,,,,,,,,,,,
6677627ceb0f9e2e3f5fc5be,TCR,2024-06-26_12h39.36.449,LearnStrategy,2023.2.3,Win32,123.4567901,4,1,3,-0.021701368,-0.023611132,1,0,0,0.4656,rock_grid_rect_2,2,08,-1,-1,0.466,-0.084895833,-0.402083333,1,0,0,1.464,Pegmatite_rect,6,1.464,0,2,0,2,0,1,,,,,,,,,,,,,
6677627ceb0f9e2e3f5fc5be,TCR,2024-06-26_12h39.36.449,LearnStrategy,2023.2.3,Win32,123.4567901,4,1,4,0.018576431,0.000694434,1,0,0,0.716,rock_grid_rect_2,6,10,-1,-1,0.716,0.1171875,-0.236111132,1,0,0,1.3137,Diorite_rect,3,1.314,0,3,0,3,0,1,,,,,,,,,,,,,
6677627ceb0f9e2e3f5fc5be,TCR,2024-06-26_12h39.36.449,LearnStrategy,2023.2.3,Win32,123.4567901,4,1,5,-0.002951368,0.004861101,1,0,0,0.5571,rock_grid_rect_2,1,11,-1,-1,0.557,0.092881966,-0.379861132,1,0,0,1.5393,Peridotite_rect,7,1.539,0,4,0,4,0,1,,,,,,,,,,,,,
6677627ceb0f9e2e3f5fc5be,TCR,2024-06-26_12h39.36.449,LearnStrategy,2023.2.3,Win32,123.4567901,4,1,6,0.017881966,0.003472201,1,0,0,0.5155,rock_grid_rect_2,3,10,-1,-1,0.515,0.378298696,-0.411111132,1,0,0,1.3886,Pumice_rect,8,1.389,0,5,0,5,0,1,,,,,,,,,,,,,
6677627ceb0f9e2e3f5fc5be,TCR,2024-06-26_12h39.36.449,LearnStrategy,2023.2.3,Win32,123.4567901,4,1,7,-0.030729167,0.021527767,1,0,0,0.6822,rock_grid_rect_2,2,08,-1,-1,0.682,0.376215363,-0.250694466,1,0,0,1.9145,Gabbro_rect,4,1.914,0,6,0,6,0,1,,,,,,,,,,,,,
6677627ceb0f9e2e3f5fc5be,TCR,2024-06-26_12h39.36.449,LearnStrategy,2023.2.3,Win32,123.4567901,4,1,8,0.003993098,-0.013888899,1,0,0,0.5074,rock_grid_rect_2,4,11,-1,-1,0.507,-0.119618034,-0.24375,1,0,0,1.4472,Basalt_rect,2,1.447,0,7,0,7,0,1,,,,,,,,,,,,,
6677627ceb0f9e2e3f5fc5be,TCR,2024-06-26_12h39.36.449,LearnStrategy,2023.2.3,Win32,123.4567901,4,1,9,-0.039756902,-0.015277799,1,0,0,0.5992,rock_grid_rect_2,7,14,-1,-1,0.599,0.133159765,-0.234722265,1,0,0,0.8304,Diorite_rect,3,0.83,0,8,0,8,0,1,,,,,,,,,,,,,
6677627ceb0f9e2e3f5fc5be,TCR,2024-06-26_12h39.36.449,LearnStrategy,2023.2.3,Win32,123.4567901,4,1,10,-0.012673569,0.000694434,1,0,0,0.4407,rock_grid_rect_2,8,04,-1,-1,0.441,-0.0953125,-0.402083333,1,0,0,1.0676,Pegmatite_rect,6,1.068,0,9,0,9,0,1,,,,,,,,,,,,,
6677627ceb0f9e2e3f5fc5be,TCR,2024-06-26_12h39.36.449,LearnStrategy,2023.2.3,Win32,123.4567901,4,1,11,0.039409765,-0.018055566,1,0,0,1.0241,rock_grid_rect_2,6,06,-1,-1,1.024,0.164409765,-0.401388931,1,0,0,2.1722,Peridotite_rect,7,2.172,0,10,0,10,0,1,,,,,,,,,,,,,
6677627ceb0f9e2e3f5fc5be,TCR,2024-06-26_12h39.36.449,LearnStrategy,2023.2.3,Win32,123.4567901,4,1,12,-0.085590235,0.01875,1,0,0,0.6076,rock_grid_rect_2,1,04,-1,-1,0.608,-0.1328125,-0.239583333,1,0,0,0.9991,Basalt_rect,2,0.999,0,11,0,11,0,1,,,,,,,,,,,,,
6677627ceb0f9e2e3f5fc5be,TCR,2024-06-26_12h39.36.449,LearnStrategy,2023.2.3,Win32,123.4567901,4,1,13,0.031770833,0.002083333,1,0,0,0.4441,rock_grid_rect_2,7,05,-1,-1,0.444,-0.123090235,-0.267361132,1,0,0,1.966,Basalt_rect,2,1.966,0,12,0,12,0,1,,,,,,,,,,,,,
6677627ceb0f9e2e3f5fc5be,TCR,2024-06-26_12h39.36.449,LearnStrategy,2023.2.3,Win32,123.4567901,4,1,14,-0.054340235,-0.010416667,1,0,0,0.4913,rock_grid_rect_2,3,16,-1,-1,0.491,0.067881966,-0.236111132,1,0,0,0.6269,Diorite_rect,3,0.627,1,13,0,13,0,1,,,,,,,,,,,,,
6677627ceb0f9e2e3f5fc5be,TCR,2024-06-26_12h39.36.449,LearnStrategy,2023.2.3,Win32,123.4567901,4,1,15,0.003993098,0.013194434,1,0,0,0.7242,rock_grid_rect_2,7,16,-1,-1,0.724,-0.061979167,-0.256944466,1,0,0,1.1804,Basalt_rect,2,1.18,0,14,0,14,0,1,,,,,,,,,,,,,
6677627ceb0f9e2e3f5fc5be,TCR,2024-06-26_12h39.36.449,LearnStrategy,2023.2.3,Win32,123.4567901,4,1,16,0.022743098,0.004861101,1,0,0,0.482,rock_grid_rect_2,6,11,-1,-1,0.482,-0.334895833,-0.388194466,1,0,0,2.289,Obsidian_rect,5,2.289,0,15,0,15,0,1,,,,,,,,,,,,,
6677627ceb0f9e2e3f5fc5be,TCR,2024-06-26_12h39.36.449,LearnStrategy,2023.2.3,Win32,123.4567901,4,2,1,,,,,,,,6,08,,,,,,,,,,,5,1.655,0,,,,,,-0.363368034,-0.401388931,1,0,0,1.6554,Obsidian_rect,0,0,0,0,1,
6677627ceb0f9e2e3f5fc5be,TCR,2024-06-26_12h39.36.449,LearnStrategy,2023.2.3,Win32,123.4567901,4,2,2,,,,,,,,3,12,,,,,,,,,,,8,1.539,0,,,,,,0.392882029,-0.413888931,1,0,0,1.5389,Pumice_rect,1,0,1,0,1,
6677627ceb0f9e2e3f5fc5be,TCR,2024-06-26_12h39.36.449,LearnStrategy,2023.2.3,Win32,123.4567901,4,2,3,,,,,,,,6,12,,,,,,,,,,,2,1.355,0,,,,,,-0.142534701,-0.245138931,1,0,0,1.3553,Basalt_rect,2,0,2,0,1,
6677627ceb0f9e2e3f5fc5be,TCR,2024-06-26_12h39.36.449,LearnStrategy,2023.2.3,Win32,123.4567901,4,2,4,,,,,,,,5,04,,,,,,,,,,,5,1.038,1,,,,,,-0.375173601,-0.421527799,1,0,0,1.0385,Obsidian_rect,3,0,3,0,1,
6677627ceb0f9e2e3f5fc5be,TCR,2024-06-26_12h39.36.449,LearnStrategy,2023.2.3,Win32,123.4567901,4,2,5,,,,,,,,2,16,,,,,,,,,,,7,3.93,0,,,,,,0.074131966,-0.382638931,1,0,0,3.9305,Peridotite_rect,4,0,4,0,1,
6677627ceb0f9e2e3f5fc5be,TCR,2024-06-26_12h39.36.449,LearnStrategy,2023.2.3,Win32,123.4567901,4,2,6,,,,,,,,1,09,,,,,,,,,,,4,2.263,0,,,,,,0.356076431,-0.252083333,1,0,0,2.2634,Gabbro_rect,5,0,5,0,1,
6677627ceb0f9e2e3f5fc5be,TCR,2024-06-26_12h39.36.449,LearnStrategy,2023.2.3,Win32,123.4567901,4,2,7,,,,,,,,4,10,,,,,,,,,,,2,1.48,0,,,,,,-0.113368034,-0.24375,1,0,0,1.4805,Basalt_rect,6,0,6,0,1,
6677627ceb0f9e2e3f5fc5be,TCR,2024-06-26_12h39.36.449,LearnStrategy,2023.2.3,Win32,123.4567901,4,2,8,,,,,,,,4,09,,,,,,,,,,,2,2.797,0,,,,,,-0.102951368,-0.238888931,1,0,0,2.797,Basalt_rect,7,0,7,0,1,
6677627ceb0f9e2e3f5fc5be,TCR,2024-06-26_12h39.36.449,LearnStrategy,2023.2.3,Win32,123.4567901,4,2,9,,,,,,,,8,05,,,,,,,,,,,8,2.433,1,,,,,,0.368576431,-0.398611132,1,0,0,2.4329,Pumice_rect,8,0,8,0,1,
6677627ceb0f9e2e3f5fc5be,TCR,2024-06-26_12h39.36.449,LearnStrategy,2023.2.3,Win32,123.4567901,4,2,10,,,,,,,,1,10,,,,,,,,,,,4,2.128,0,,,,,,0.3171875,-0.270138931,1,0,0,2.1284,Gabbro_rect,9,0,9,0,1,
6677627ceb0f9e2e3f5fc5be,TCR,2024-06-26_12h39.36.449,LearnStrategy,2023.2.3,Win32,123.4567901,4,2,11,,,,,,,,3,13,,,,,,,,,,,3,1.397,1,,,,,,0.0859375,-0.240277799,1,0,0,1.397,Diorite_rect,10,0,10,0,1,
6677627ceb0f9e2e3f5fc5be,TCR,2024-06-26_12h39.36.449,LearnStrategy,2023.2.3,Win32,123.4567901,4,2,12,,,,,,,,7,04,,,,,,,,,,,1,1.73,0,,,,,,-0.411979167,-0.234027799,1,0,0,1.7296,Andesite_rect,11,0,11,0,1,
6677627ceb0f9e2e3f5fc5be,TCR,2024-06-26_12h39.36.449,LearnStrategy,2023.2.3,Win32,123.4567901,4,2,13,,,,,,,,2,02,,,,,,,,,,,2,3.181,1,,,,,,-0.100868034,-0.246527799,1,0,0,3.1807,Basalt_rect,12,0,12,0,1,
6677627ceb0f9e2e3f5fc5be,TCR,2024-06-26_12h39.36.449,LearnStrategy,2023.2.3,Win32,123.4567901,4,2,14,,,,,,,,5,12,,,,,,,,,,,5,1.371,1,,,,,,-0.381423601,-0.384722265,1,0,0,1.3712,Obsidian_rect,13,0,13,0,1,
6677627ceb0f9e2e3f5fc5be,TCR,2024-06-26_12h39.36.449,LearnStrategy,2023.2.3,Win32,123.4567901,4,2,15,,,,,,,,8,13,,,,,,,,,,,6,1.522,0,,,,,,-0.084201368,-0.403472265,1,0,0,1.522,Pegmatite_rect,14,0,14,0,1,
6677627ceb0f9e2e3f5fc5be,TCR,2024-06-26_12h39.36.449,LearnStrategy,2023.2.3,Win32,123.4567901,4,2,16,,,,,,,,7,06,,,,,,,,,,,7,0.638,1,,,,,,0.038020833,-0.395833333,1,0,0,0.6381,Peridotite_rect,15,0,15,0,1,
6677627ceb0f9e2e3f5fc5be,TCR,2024-06-26_12h39.36.449,LearnStrategy,2023.2.3,Win32,123.4567901,5,1,1,0.0296875,-0.006944466,1,0,0,0.7227,rock_grid_rect_2,3,16,-1,-1,0.723,0.353298696,-0.248611132,1,0,0,1.7002,Gabbro_rect,4,1.7,0,0,0,0,0,1,,,,,,,,,,,,,
6677627ceb0f9e2e3f5fc5be,TCR,2024-06-26_12h39.36.449,LearnStrategy,2023.2.3,Win32,123.4567901,5,1,2,0.002604167,-0.009722233,1,0,0,0.5852,rock_grid_rect_2,6,06,-1,-1,0.585,-0.057118034,-0.252777799,1,0,0,1.5117,Basalt_rect,2,1.512,0,1,0,1,0,1,,,,,,,,,,,,,
6677627ceb0f9e2e3f5fc5be,TCR,2024-06-26_12h39.36.449,LearnStrategy,2023.2.3,Win32,123.4567901,5,1,3,-0.034895833,0.009027767,1,0,0,0.4491,rock_grid_rect_2,4,11,-1,-1,0.449,0.093576431,-0.2625,1,0,0,1.4389,Diorite_rect,3,1.439,0,2,0,2,0,1,,,,,,,,,,,,,
6677627ceb0f9e2e3f5fc5be,TCR,2024-06-26_12h39.36.449,LearnStrategy,2023.2.3,Win32,123.4567901,5,1,4,-0.022395833,0.004166667,1,0,0,0.5575,rock_grid_rect_2,2,05,-1,-1,0.558,-0.123784701,-0.238888931,1,0,0,1.0805,Basalt_rect,2,1.081,1,3,0,3,0,1,,,,,,,,,,,,,
6677627ceb0f9e2e3f5fc5be,TCR,2024-06-26_12h39.36.449,LearnStrategy,2023.2.3,Win32,123.4567901,5,1,5,0.031076431,-0.022916667,1,0,0,0.5993,rock_grid_rect_2,7,07,-1,-1,0.599,-0.343923569,-0.261111132,1,0,0,1.789,Andesite_rect,1,1.789,0,4,0,4,0,1,,,,,,,,,,,,,
6677627ceb0f9e2e3f5fc5be,TCR,2024-06-26_12h39.36.449,LearnStrategy,2023.2.3,Win32,123.4567901,5,1,6,-0.054340235,-0.011111132,1,0,0,0.7408,rock_grid_rect_2,6,16,-1,-1,0.741,-0.071701368,-0.260416667,1,0,0,2.0053,Basalt_rect,2,2.005,0,5,0,5,0,1,,,,,,,,,,,,,
6677627ceb0f9e2e3f5fc5be,TCR,2024-06-26_12h39.36.449,LearnStrategy,2023.2.3,Win32,123.4567901,5,1,7,-0.040451368,-0.020833333,1,0,0,0.9824,rock_grid_rect_2,2,12,-1,-1,0.982,-0.0640625,-0.253472265,1,0,0,1.5225,Basalt_rect,2,1.523,1,6,0,6,0,1,,,,,,,,,,,,,
6677627ceb0f9e2e3f5fc5be,TCR,2024-06-26_12h39.36.449,LearnStrategy,2023.2.3,Win32,123.4567901,5,1,8,-0.011979167,0.009027767,1,0,0,0.4906,rock_grid_rect_2,1,03,-1,-1,0.491,-0.075173569,-0.245833333,1,0,0,1.214,Basalt_rect,2,1.214,0,7,0,7,0,1,,,,,,,,,,,,,
6677627ceb0f9e2e3f5fc5be,TCR,2024-06-26_12h39.36.449,LearnStrategy,2023.2.3,Win32,123.4567901,5,1,9,-0.061979167,0.013194434,1,0,0,0.641,rock_grid_rect_2,4,15,-1,-1,0.641,0.360243098,-0.252777799,1,0,0,2.7221,Gabbro_rect,4,2.722,1,8,0,8,0,1,,,,,,,,,,,,,
6677627ceb0f9e2e3f5fc5be,TCR,2024-06-26_12h39.36.449,LearnStrategy,2023.2.3,Win32,123.4567901,5,1,10,-0.004340235,0.004166667,1,0,0,0.4665,rock_grid_rect_2,7,05,-1,-1,0.466,0.327604167,-0.247222265,1,0,0,1.3379,Gabbro_rect,4,1.338,0,9,0,9,0,1,,,,,,,,,,,,,
6677627ceb0f9e2e3f5fc5be,TCR,2024-06-26_12h39.36.449,LearnStrategy,2023.2.3,Win32,123.4567901,5,1,11,-0.025173569,-0.018055566,1,0,0,0.5656,rock_grid_rect_2,6,13,-1,-1,0.566,0.359548696,-0.233333333,1,0,0,1.0051,Gabbro_rect,4,1.005,0,10,0,10,0,1,,,,,,,,,,,,,
6677627ceb0f9e2e3f5fc5be,TCR,2024-06-26_12h39.36.449,LearnStrategy,2023.2.3,Win32,123.4567901,5,1,12,-0.024479167,-0.002083333,1,0,0,0.5578,rock_grid_rect_2,3,10,-1,-1,0.558,0.343576431,-0.248611132,1,0,0,0.9968,Gabbro_rect,4,0.997,0,11,0,11,0,1,,,,,,,,,,,,,
6677627ceb0f9e2e3f5fc5be,TCR,2024-06-26_12h39.36.449,LearnStrategy,2023.2.3,Win32,123.4567901,5,1,13,-0.103645833,0.0125,1,0,0,0.4742,rock_grid_rect_2,1,04,-1,-1,0.474,0.358159765,-0.248611132,1,0,0,1.8889,Gabbro_rect,4,1.889,0,12,0,12,0,1,,,,,,,,,,,,,
6677627ceb0f9e2e3f5fc5be,TCR,2024-06-26_12h39.36.449,LearnStrategy,2023.2.3,Win32,123.4567901,5,1,14,0.006770833,0.013888868,1,0,0,0.524,rock_grid_rect_2,8,08,-1,-1,0.524,-0.3265625,-0.259722265,1,0,0,1.6902,Andesite_rect,1,1.69,0,13,0,13,0,1,,,,,,,,,,,,,
6677627ceb0f9e2e3f5fc5be,TCR,2024-06-26_12h39.36.449,LearnStrategy,2023.2.3,Win32,123.4567901,5,1,15,-0.073784701,-0.001388899,1,0,0,0.4241,rock_grid_rect_2,4,08,-1,-1,0.424,0.3859375,-0.229166667,1,0,0,1.1638,Gabbro_rect,4,1.164,1,14,0,14,0,1,,,,,,,,,,,,,
6677627ceb0f9e2e3f5fc5be,TCR,2024-06-26_12h39.36.449,LearnStrategy,2023.2.3,Win32,123.4567901,5,1,16,-0.030729167,-0.013888899,1,0,0,0.6658,rock_grid_rect_2,8,10,-1,-1,0.666,-0.074479167,-0.243055598,1,0,0,1.3642,Basalt_rect,2,1.364,0,15,0,15,0,1,,,,,,,,,,,,,
6677627ceb0f9e2e3f5fc5be,TCR,2024-06-26_12h39.36.449,LearnStrategy,2023.2.3,Win32,123.4567901,5,2,1,,,,,,,,3,08,,,,,,,,,,,2,0.869,0,,,,,,-0.093923569,-0.259722265,1,0,0,0.8687,Basalt_rect,0,0,0,0,1,
6677627ceb0f9e2e3f5fc5be,TCR,2024-06-26_12h39.36.449,LearnStrategy,2023.2.3,Win32,123.4567901,5,2,2,,,,,,,,2,06,,,,,,,,,,,1,3.237,0,,,,,,-0.443923601,-0.256944466,1,0,0,3.2367,Andesite_rect,1,0,1,0,1,
6677627ceb0f9e2e3f5fc5be,TCR,2024-06-26_12h39.36.449,LearnStrategy,2023.2.3,Win32,123.4567901,5,2,3,,,,,,,,6,03,,,,,,,,,,,7,3.963,0,,,,,,0.067881966,-0.397916667,1,0,0,3.9632,Peridotite_rect,2,0,2,0,1,
6677627ceb0f9e2e3f5fc5be,TCR,2024-06-26_12h39.36.449,LearnStrategy,2023.2.3,Win32,123.4567901,5,2,4,,,,,,,,8,02,,,,,,,,,,,6,1.172,0,,,,,,-0.084895833,-0.385416667,1,0,0,1.1716,Pegmatite_rect,3,0,3,0,1,
6677627ceb0f9e2e3f5fc5be,TCR,2024-06-26_12h39.36.449,LearnStrategy,2023.2.3,Win32,123.4567901,5,2,5,,,,,,,,4,03,,,,,,,,,,,6,0.73,0,,,,,,-0.068923569,-0.386111132,1,0,0,0.7299,Pegmatite_rect,4,0,4,0,1,
6677627ceb0f9e2e3f5fc5be,TCR,2024-06-26_12h39.36.449,LearnStrategy,2023.2.3,Win32,123.4567901,5,2,6,,,,,,,,1,07,,,,,,,,,,,2,1.163,0,,,,,,-0.068923569,-0.256944466,1,0,0,1.1633,Basalt_rect,5,0,5,0,1,
6677627ceb0f9e2e3f5fc5be,TCR,2024-06-26_12h39.36.449,LearnStrategy,2023.2.3,Win32,123.4567901,5,2,7,,,,,,,,7,08,,,,,,,,,,,7,2.611,1,,,,,,0.116493098,-0.385416667,1,0,0,2.6109,Peridotite_rect,6,0,6,0,1,
6677627ceb0f9e2e3f5fc5be,TCR,2024-06-26_12h39.36.449,LearnStrategy,2023.2.3,Win32,123.4567901,5,2,8,,,,,,,,5,09,,,,,,,,,,,5,0.957,1,,,,,,-0.430729167,-0.419444466,1,0,0,0.9573,Obsidian_rect,7,0,7,0,1,
6677627ceb0f9e2e3f5fc5be,TCR,2024-06-26_12h39.36.449,LearnStrategy,2023.2.3,Win32,123.4567901,5,2,9,,,,,,,,5,07,,,,,,,,,,,5,0.972,1,,,,,,-0.4015625,-0.403472265,1,0,0,0.9725,Obsidian_rect,8,0,8,0,1,
6677627ceb0f9e2e3f5fc5be,TCR,2024-06-26_12h39.36.449,LearnStrategy,2023.2.3,Win32,123.4567901,5,2,10,,,,,,,,4,01,,,,,,,,,,,4,0.756,1,,,,,,0.478993098,-0.265972265,1,0,0,0.7555,Gabbro_rect,9,0,9,0,1,
6677627ceb0f9e2e3f5fc5be,TCR,2024-06-26_12h39.36.449,LearnStrategy,2023.2.3,Win32,123.4567901,5,2,11,,,,,,,,2,10,,,,,,,,,,,3,0.73,0,,,,,,0.090798632,-0.253472265,1,0,0,0.7299,Diorite_rect,10,0,10,0,1,
6677627ceb0f9e2e3f5fc5be,TCR,2024-06-26_12h39.36.449,LearnStrategy,2023.2.3,Win32,123.4567901,5,2,12,,,,,,,,8,06,,,,,,,,,,,2,0.755,0,,,,,,-0.111979167,-0.269444466,1,0,0,0.7553,Basalt_rect,11,0,11,0,1,
6677627ceb0f9e2e3f5fc5be,TCR,2024-06-26_12h39.36.449,LearnStrategy,2023.2.3,Win32,123.4567901,5,2,13,,,,,,,,7,02,,,,,,,,,,,6,0.563,0,,,,,,-0.078645833,-0.394444466,1,0,0,0.5631,Pegmatite_rect,12,0,12,0,1,
6677627ceb0f9e2e3f5fc5be,TCR,2024-06-26_12h39.36.449,LearnStrategy,2023.2.3,Win32,123.4567901,5,2,14,,,,,,,,3,07,,,,,,,,,,,7,0.322,0,,,,,,0.169270833,-0.390277799,1,0,0,0.3218,Peridotite_rect,13,0,13,0,1,
6677627ceb0f9e2e3f5fc5be,TCR,2024-06-26_12h39.36.449,LearnStrategy,2023.2.3,Win32,123.4567901,5,2,15,,,,,,,,1,16,,,,,,,,,,,3,1.164,0,,,,,,0.105381966,-0.247222265,1,0,0,1.1638,Diorite_rect,14,0,14,0,1,
6677627ceb0f9e2e3f5fc5be,TCR,2024-06-26_12h39.36.449,LearnStrategy,2023.2.3,Win32,123.4567901,5,2,16,,,,,,,,6,09,,,,,,,,,,,2,0.355,0,,,,,,-0.085590235,-0.238888931,1,0,0,0.3553,Basalt_rect,15,0,15,0,1,
6677627ceb0f9e2e3f5fc5be,TCR,2024-06-26_12h39.36.449,LearnStrategy,2023.2.3,Win32,123.4567901,6,1,1,-0.041840235,0.014583333,1,0,0,0.7085,rock_grid_rect_2,4,16,-1,-1,0.709,0.374826431,-0.254861132,1,0,0,1.2128,Gabbro_rect,4,1.213,1,0,0,0,0,1,,,,,,,,,,,,,
6677627ceb0f9e2e3f5fc5be,TCR,2024-06-26_12h39.36.449,LearnStrategy,2023.2.3,Win32,123.4567901,6,1,2,-0.023090235,-0.002083333,1,0,0,0.6156,rock_grid_rect_2,6,13,-1,-1,0.616,0.109548632,-0.244444466,1,0,0,0.7391,Diorite_rect,3,0.739,0,1,0,1,0,1,,,,,,,,,,,,,
6677627ceb0f9e2e3f5fc5be,TCR,2024-06-26_12h39.36.449,LearnStrategy,2023.2.3,Win32,123.4567901,6,1,3,-0.048784701,-0.011805566,1,0,0,0.466,rock_grid_rect_2,7,16,-1,-1,0.466,-0.096701368,-0.265972265,1,0,0,0.9805,Basalt_rect,2,0.981,0,2,0,2,0,1,,,,,,,,,,,,,
6677627ceb0f9e2e3f5fc5be,TCR,2024-06-26_12h39.36.449,LearnStrategy,2023.2.3,Win32,123.4567901,6,1,4,-0.0515625,0.009027767,1,0,0,0.5571,rock_grid_rect_2,8,10,-1,-1,0.557,0.091493098,-0.386111132,1,0,0,0.7724,Peridotite_rect,7,0.772,0,3,0,3,0,1,,,,,,,,,,,,,
6677627ceb0f9e2e3f5fc5be,TCR,2024-06-26_12h39.36.449,LearnStrategy,2023.2.3,Win32,123.4567901,6,1,5,-0.014756902,0.0125,1,0,0,0.5159,rock_grid_rect_2,3,09,-1,-1,0.516,-0.303645833,-0.238194466,1,0,0,1.0519,Andesite_rect,1,1.052,0,4,0,4,0,1,,,,,,,,,,,,,
6677627ceb0f9e2e3f5fc5be,TCR,2024-06-26_12h39.36.449,LearnStrategy,2023.2.3,Win32,123.4567901,6,1,6,-0.037673569,0,1,0,0,0.6578,rock_grid_rect_2,2,14,-1,-1,0.658,-0.080034701,-0.390972265,1,0,0,0.5071,Pegmatite_rect,6,0.507,0,5,0,5,0,1,,,,,,,,,,,,,
6677627ceb0f9e2e3f5fc5be,TCR,2024-06-26_12h39.36.449,LearnStrategy,2023.2.3,Win32,123.4567901,6,1,7,-0.044618034,0.008333333,1,0,0,0.6342,rock_grid_rect_2,2,11,-1,-1,0.634,0.431770833,-0.420833333,1,0,0,0.484,Pumice_rect,8,0.484,0,6,0,6,0,1,,,,,,,,,,,,,
6677627ceb0f9e2e3f5fc5be,TCR,2024-06-26_12h39.36.449,LearnStrategy,2023.2.3,Win32,123.4567901,6,1,8,0.091493098,-0.01875,1,0,0,0.4663,rock_grid_rect_2,2,11,-1,-1,0.466,0.334548696,-0.260416667,1,0,0,0.7075,Gabbro_rect,4,0.707,0,7,0,7,0,1,,,,,,,,,,,,,
6677627ceb0f9e2e3f5fc5be,TCR,2024-06-26_12h39.36.449,LearnStrategy,2023.2.3,Win32,123.4567901,6,1,9,-0.029340235,-0.019444466,1,0,0,0.6833,rock_grid_rect_2,6,06,-1,-1,0.683,0.0734375,-0.230555598,1,0,0,0.5023,Diorite_rect,3,0.502,0,8,0,8,0,1,,,,,,,,,,,,,
6677627ceb0f9e2e3f5fc5be,TCR,2024-06-26_12h39.36.449,LearnStrategy,2023.2.3,Win32,123.4567901,6,1,10,-0.011979167,-0.011111132,1,0,0,0.961,rock_grid_rect_2,6,16,-1,-1,0.961,0.124131966,-0.402777799,1,0,0,0.4239,Peridotite_rect,7,0.424,0,9,0,9,0,1,,,,,,,,,,,,,
6677627ceb0f9e2e3f5fc5be,TCR,2024-06-26_12h39.36.449,LearnStrategy,2023.2.3,Win32,123.4567901,6,1,11,0.034548632,-0.002777799,1,0,0,0.4252,rock_grid_rect_2,7,14,-1,-1,0.425,-0.067534701,-0.252083333,1,0,0,0.9906,Basalt_rect,2,0.991,0,10,0,10,0,1,,,,,,,,,,,,,
6677627ceb0f9e2e3f5fc5be,TCR,2024-06-26_12h39.36.449,LearnStrategy,2023.2.3,Win32,123.4567901,6,1,12,0.008854167,-0.00625,1,0,0,0.6414,rock_grid_rect_2,3,16,-1,-1,0.641,0.084548632,-0.271527799,1,0,0,0.4405,Diorite_rect,3,0.44,1,11,0,11,0,1,,,,,,,,,,,,,
6677627ceb0f9e2e3f5fc5be,TCR,2024-06-26_12h39.36.449,LearnStrategy,2023.2.3,Win32,123.4567901,6,1,13,0.018576431,-0.015277799,1,0,0,0.5582,rock_grid_rect_2,4,15,-1,-1,0.558,-0.071006902,-0.400694466,1,0,0,0.8996,Pegmatite_rect,6,0.9,0,12,0,12,0,1,,,,,,,,,,,,,
6677627ceb0f9e2e3f5fc5be,TCR,2024-06-26_12h39.36.449,LearnStrategy,2023.2.3,Win32,123.4567901,6,1,14,0.028298632,-0.00625,1,0,0,0.5579,rock_grid_rect_2,1,03,-1,-1,0.558,-0.159895833,-0.269444466,1,0,0,1.0188,Basalt_rect,2,1.019,0,13,0,13,0,1,,,,,,,,,,,,,
6677627ceb0f9e2e3f5fc5be,TCR,2024-06-26_12h39.36.449,LearnStrategy,2023.2.3,Win32,123.4567901,6,1,15,0.109548632,-0.021527799,1,0,0,1.1855,rock_grid_rect_2,8,08,-1,-1,1.186,-0.188368034,-0.413888931,1,0,0,1.344,Pegmatite_rect,6,1.344,0,14,0,14,0,1,,,,,,,,,,,,,
6677627ceb0f9e2e3f5fc5be,TCR,2024-06-26_12h39.36.449,LearnStrategy,2023.2.3,Win32,123.4567901,6,1,16,-0.022395833,-0.019444466,1,0,0,0.5356,rock_grid_rect_2,1,02,-1,-1,0.536,0.063020833,-0.397916667,1,0,0,1.0524,Peridotite_rect,7,1.052,0,15,0,15,0,1,,,,,,,,,,,,,
6677627ceb0f9e2e3f5fc5be,TCR,2024-06-26_12h39.36.449,LearnStrategy,2023.2.3,Win32,123.4567901,6,2,1,,,,,,,,1,14,,,,,,,,,,,4,1.221,0,,,,,,0.325520833,-0.23125,1,0,0,1.2215,Gabbro_rect,0,0,0,0,1,
6677627ceb0f9e2e3f5fc5be,TCR,2024-06-26_12h39.36.449,LearnStrategy,2023.2.3,Win32,123.4567901,6,2,2,,,,,,,,4,05,,,,,,,,,,,3,0.805,0,,,,,,0.146354167,-0.240277799,1,0,0,0.805,Diorite_rect,1,0,1,0,1,
6677627ceb0f9e2e3f5fc5be,TCR,2024-06-26_12h39.36.449,LearnStrategy,2023.2.3,Win32,123.4567901,6,2,3,,,,,,,,3,06,,,,,,,,,,,7,2.144,0,,,,,,0.139409765,-0.398611132,1,0,0,2.1436,Peridotite_rect,2,0,2,0,1,
6677627ceb0f9e2e3f5fc5be,TCR,2024-06-26_12h39.36.449,LearnStrategy,2023.2.3,Win32,123.4567901,6,2,4,,,,,,,,6,07,,,,,,,,,,,8,2.2,0,,,,,,0.350520833,-0.378472265,1,0,0,2.2002,Pumice_rect,3,0,3,0,1,
6677627ceb0f9e2e3f5fc5be,TCR,2024-06-26_12h39.36.449,LearnStrategy,2023.2.3,Win32,123.4567901,6,2,5,,,,,,,,7,13,,,,,,,,,,,4,1.617,0,,,,,,0.338715363,-0.228472265,1,0,0,1.6172,Gabbro_rect,4,0,4,0,1,
6677627ceb0f9e2e3f5fc5be,TCR,2024-06-26_12h39.36.449,LearnStrategy,2023.2.3,Win32,123.4567901,6,2,6,,,,,,,,1,01,,,,,,,,,,,1,1.389,1,,,,,,-0.410590267,-0.25,1,0,0,1.3888,Andesite_rect,5,0,5,0,1,
6677627ceb0f9e2e3f5fc5be,TCR,2024-06-26_12h39.36.449,LearnStrategy,2023.2.3,Win32,123.4567901,6,2,7,,,,,,,,8,14,,,,,,,,,,,2,1.897,0,,,,,,-0.0828125,-0.268055598,1,0,0,1.8968,Basalt_rect,6,0,6,0,1,
6677627ceb0f9e2e3f5fc5be,TCR,2024-06-26_12h39.36.449,LearnStrategy,2023.2.3,Win32,123.4567901,6,2,8,,,,,,,,8,15,,,,,,,,,,,2,1.002,0,,,,,,-0.118229167,-0.269444466,1,0,0,1.002,Basalt_rect,7,0,7,0,1,
6677627ceb0f9e2e3f5fc5be,TCR,2024-06-26_12h39.36.449,LearnStrategy,2023.2.3,Win32,123.4567901,6,2,9,,,,,,,,4,14,,,,,,,,,,,3,1.208,0,,,,,,0.171354167,-0.271527799,1,0,0,1.2079,Diorite_rect,8,0,8,0,1,
6677627ceb0f9e2e3f5fc5be,TCR,2024-06-26_12h39.36.449,LearnStrategy,2023.2.3,Win32,123.4567901,6,2,10,,,,,,,,6,15,,,,,,,,,,,7,0.847,0,,,,,,0.101909765,-0.407638931,1,0,0,0.8472,Peridotite_rect,9,0,9,0,1,
6677627ceb0f9e2e3f5fc5be,TCR,2024-06-26_12h39.36.449,LearnStrategy,2023.2.3,Win32,123.4567901,6,2,11,,,,,,,,3,11,,,,,,,,,,,1,1.189,0,,,,,,-0.312673569,-0.245138931,1,0,0,1.1885,Andesite_rect,10,0,10,0,1,
6677627ceb0f9e2e3f5fc5be,TCR,2024-06-26_12h39.36.449,LearnStrategy,2023.2.3,Win32,123.4567901,6,2,12,,,,,,,,2,09,,,,,,,,,,,1,0.931,0,,,,,,-0.350868034,-0.25625,1,0,0,0.9306,Andesite_rect,11,0,11,0,1,
6677627ceb0f9e2e3f5fc5be,TCR,2024-06-26_12h39.36.449,LearnStrategy,2023.2.3,Win32,123.4567901,6,2,13,,,,,,,,5,08,,,,,,,,,,,5,0.918,1,,,,,,-0.402256934,-0.395138931,1,0,0,0.9183,Obsidian_rect,12,0,12,0,1,
6677627ceb0f9e2e3f5fc5be,TCR,2024-06-26_12h39.36.449,LearnStrategy,2023.2.3,Win32,123.4567901,6,2,14,,,,,,,,5,05,,,,,,,,,,,5,1.788,1,,,,,,-0.385590267,-0.409722265,1,0,0,1.7884,Obsidian_rect,13,0,13,0,1,
6677627ceb0f9e2e3f5fc5be,TCR,2024-06-26_12h39.36.449,LearnStrategy,2023.2.3,Win32,123.4567901,6,2,15,,,,,,,,2,04,,,,,,,,,,,2,1.168,1,,,,,,-0.092534701,-0.2375,1,0,0,1.1682,Basalt_rect,14,0,14,0,1,
6677627ceb0f9e2e3f5fc5be,TCR,2024-06-26_12h39.36.449,LearnStrategy,2023.2.3,Win32,123.4567901,6,2,16,,,,,,,,7,10,,,,,,,,,,,4,0.836,0,,,,,,0.356076431,-0.235416667,1,0,0,0.836,Gabbro_rect,15,0,15,0,1,
6677627ceb0f9e2e3f5fc5be,TCR,2024-06-26_12h39.36.449,LearnStrategy,2023.2.3,Win32,123.4567901,7,1,1,0.066493098,-0.001388899,1,0,0,1.092,rock_grid_rect_2,6,11,-1,-1,1.092,-0.316145833,-0.404166667,1,0,0,1.4415,Obsidian_rect,5,1.442,0,0,0,0,0,1,,,,,,,,,,,,,
6677627ceb0f9e2e3f5fc5be,TCR,2024-06-26_12h39.36.449,LearnStrategy,2023.2.3,Win32,123.4567901,7,1,2,0.019965299,-0.005555566,1,0,0,0.5171,rock_grid_rect_2,1,05,-1,-1,0.517,0.061631966,-0.385416667,1,0,0,1.2492,Peridotite_rect,7,1.249,0,1,0,1,0,1,,,,,,,,,,,,,
6677627ceb0f9e2e3f5fc5be,TCR,2024-06-26_12h39.36.449,LearnStrategy,2023.2.3,Win32,123.4567901,7,1,3,0.014409765,-0.015972233,1,0,0,0.6834,rock_grid_rect_2,3,14,-1,-1,0.683,0.3734375,-0.234722265,1,0,0,0.7105,Gabbro_rect,4,0.711,0,2,0,2,0,1,,,,,,,,,,,,,
6677627ceb0f9e2e3f5fc5be,TCR,2024-06-26_12h39.36.449,LearnStrategy,2023.2.3,Win32,123.4567901,7,1,4,0.008854167,0.007638868,1,0,0,0.5656,rock_grid_rect_2,6,11,-1,-1,0.566,0.053298632,-0.247222265,1,0,0,0.9722,Diorite_rect,3,0.972,0,3,0,3,0,1,,,,,,,,,,,,,
6677627ceb0f9e2e3f5fc5be,TCR,2024-06-26_12h39.36.449,LearnStrategy,2023.2.3,Win32,123.4567901,7,1,5,-0.002256902,0.011805534,1,0,0,0.5821,rock_grid_rect_2,1,11,-1,-1,0.582,-0.069618034,-0.245833333,1,0,0,1.289,Basalt_rect,2,1.289,0,4,0,4,0,1,,,,,,,,,,,,,
6677627ceb0f9e2e3f5fc5be,TCR,2024-06-26_12h39.36.449,LearnStrategy,2023.2.3,Win32,123.4567901,7,1,6,0.022048632,-0.023611132,1,0,0,0.499,rock_grid_rect_2,7,14,-1,-1,0.499,0.090798632,-0.391666667,1,0,0,0.6975,Peridotite_rect,7,0.697,1,5,0,5,0,1,,,,,,,,,,,,,
6677627ceb0f9e2e3f5fc5be,TCR,2024-06-26_12h39.36.449,LearnStrategy,2023.2.3,Win32,123.4567901,7,1,7,0.030381966,-0.0125,1,0,0,0.4994,rock_grid_rect_2,4,08,-1,-1,0.499,-0.3265625,-0.234027799,1,0,0,1.2802,Andesite_rect,1,1.28,0,6,0,6,0,1,,,,,,,,,,,,,
6677627ceb0f9e2e3f5fc5be,TCR,2024-06-26_12h39.36.449,LearnStrategy,2023.2.3,Win32,123.4567901,7,1,8,-0.0203125,-0.000694466,1,0,0,0.4572,rock_grid_rect_2,3,15,-1,-1,0.457,0.365104167,-0.233333333,1,0,0,0.8803,Gabbro_rect,4,0.88,0,7,0,7,0,1,,,,,,,,,,,,,
6677627ceb0f9e2e3f5fc5be,TCR,2024-06-26_12h39.36.449,LearnStrategy,2023.2.3,Win32,123.4567901,7,1,9,0.030381966,-0.002083333,1,0,0,0.5574,rock_grid_rect_2,7,15,-1,-1,0.557,0.113020833,-0.240277799,1,0,0,0.722,Diorite_rect,3,0.722,0,8,0,8,0,1,,,,,,,,,,,,,
6677627ceb0f9e2e3f5fc5be,TCR,2024-06-26_12h39.36.449,LearnStrategy,2023.2.3,Win32,123.4567901,7,1,10,-0.007118034,0.005555534,1,0,0,1.3577,rock_grid_rect_2,4,12,-1,-1,1.358,-0.085590235,-0.250694466,1,0,0,0.4887,Basalt_rect,2,0.489,0,9,0,9,0,1,,,,,,,,,,,,,
6677627ceb0f9e2e3f5fc5be,TCR,2024-06-26_12h39.36.449,LearnStrategy,2023.2.3,Win32,123.4567901,7,1,11,0.010243098,-0.018055566,1,0,0,0.574,rock_grid_rect_2,8,08,-1,-1,0.574,-0.086979167,-0.403472265,1,0,0,0.4888,Pegmatite_rect,6,0.489,0,10,0,10,0,1,,,,,,,,,,,,,
6677627ceb0f9e2e3f5fc5be,TCR,2024-06-26_12h39.36.449,LearnStrategy,2023.2.3,Win32,123.4567901,7,1,12,0.021354167,-0.020138899,1,0,0,0.7241,rock_grid_rect_2,2,11,-1,-1,0.724,-0.321701368,-0.228472265,1,0,0,1.7081,Andesite_rect,1,1.708,0,11,0,11,0,1,,,,,,,,,,,,,
6677627ceb0f9e2e3f5fc5be,TCR,2024-06-26_12h39.36.449,LearnStrategy,2023.2.3,Win32,123.4567901,7,1,13,0.006076431,-0.01875,1,0,0,0.6991,rock_grid_rect_2,8,04,-1,-1,0.699,-0.115451368,-0.228472265,1,0,0,0.8056,Basalt_rect,2,0.806,0,12,0,12,0,1,,,,,,,,,,,,,
6677627ceb0f9e2e3f5fc5be,TCR,2024-06-26_12h39.36.449,LearnStrategy,2023.2.3,Win32,123.4567901,7,1,14,0.012326431,-0.014583333,1,0,0,0.6071,rock_grid_rect_2,6,05,-1,-1,0.607,-0.374479167,-0.379166667,1,0,0,1.3973,Obsidian_rect,5,1.397,0,13,0,13,0,1,,,,,,,,,,,,,
6677627ceb0f9e2e3f5fc5be,TCR,2024-06-26_12h39.36.449,LearnStrategy,2023.2.3,Win32,123.4567901,7,1,15,-0.039756902,-0.006944466,1,0,0,1.0239,rock_grid_rect_2,3,02,-1,-1,1.024,-0.125868034,-0.404861132,1,0,0,1.6135,Pegmatite_rect,6,1.613,0,14,0,14,0,1,,,,,,,,,,,,,
6677627ceb0f9e2e3f5fc5be,TCR,2024-06-26_12h39.36.449,LearnStrategy,2023.2.3,Win32,123.4567901,7,1,16,0.020659765,0.013194434,1,0,0,0.466,rock_grid_rect_2,2,08,-1,-1,0.466,-0.347395833,-0.261111132,1,0,0,1.0888,Andesite_rect,1,1.089,0,15,0,15,0,1,,,,,,,,,,,,,
6677627ceb0f9e2e3f5fc5be,TCR,2024-06-26_12h39.36.449,LearnStrategy,2023.2.3,Win32,123.4567901,7,2,1,,,,,,,,1,09,,,,,,,,,,,6,2.805,0,,,,,,-0.112673569,-0.408333333,1,0,0,2.8051,Pegmatite_rect,0,0,0,0,1,
6677627ceb0f9e2e3f5fc5be,TCR,2024-06-26_12h39.36.449,LearnStrategy,2023.2.3,Win32,123.4567901,7,2,2,,,,,,,,6,12,,,,,,,,,,,2,1.347,0,,,,,,-0.086979167,-0.264583333,1,0,0,1.3472,Basalt_rect,1,0,1,0,1,
6677627ceb0f9e2e3f5fc5be,TCR,2024-06-26_12h39.36.449,LearnStrategy,2023.2.3,Win32,123.4567901,7,2,3,,,,,,,,5,09,,,,,,,,,,,5,1.188,1,,,,,,-0.405729167,-0.39375,1,0,0,1.1885,Obsidian_rect,2,0,2,0,1,
6677627ceb0f9e2e3f5fc5be,TCR,2024-06-26_12h39.36.449,LearnStrategy,2023.2.3,Win32,123.4567901,7,2,4,,,,,,,,1,01,,,,,,,,,,,6,1.739,0,,,,,,-0.081423569,-0.400694466,1,0,0,1.7387,Pegmatite_rect,3,0,3,0,1,
6677627ceb0f9e2e3f5fc5be,TCR,2024-06-26_12h39.36.449,LearnStrategy,2023.2.3,Win32,123.4567901,7,2,5,,,,,,,,2,16,,,,,,,,,,,4,1.488,0,,,,,,0.3421875,-0.25,1,0,0,1.4884,Gabbro_rect,4,0,4,0,1,
6677627ceb0f9e2e3f5fc5be,TCR,2024-06-26_12h39.36.449,LearnStrategy,2023.2.3,Win32,123.4567901,7,2,6,,,,,,,,5,07,,,,,,,,,,,5,1.105,1,,,,,,-0.394618034,-0.390972265,1,0,0,1.1048,Obsidian_rect,5,0,5,0,1,
6677627ceb0f9e2e3f5fc5be,TCR,2024-06-26_12h39.36.449,LearnStrategy,2023.2.3,Win32,123.4567901,7,2,7,,,,,,,,3,06,,,,,,,,,,,2,0.935,0,,,,,,-0.110590235,-0.240972265,1,0,0,0.9355,Basalt_rect,6,0,6,0,1,
6677627ceb0f9e2e3f5fc5be,TCR,2024-06-26_12h39.36.449,LearnStrategy,2023.2.3,Win32,123.4567901,7,2,8,,,,,,,,4,09,,,,,,,,,,,6,1.508,0,,,,,,-0.118229167,-0.413888931,1,0,0,1.508,Pegmatite_rect,7,0,7,0,1,
6677627ceb0f9e2e3f5fc5be,TCR,2024-06-26_12h39.36.449,LearnStrategy,2023.2.3,Win32,123.4567901,7,2,9,,,,,,,,3,11,,,,,,,,,,,1,1.245,0,,,,,,-0.358506934,-0.251388931,1,0,0,1.2448,Andesite_rect,8,0,8,0,1,
6677627ceb0f9e2e3f5fc5be,TCR,2024-06-26_12h39.36.449,LearnStrategy,2023.2.3,Win32,123.4567901,7,2,10,,,,,,,,8,13,,,,,,,,,,,7,1.097,0,,,,,,0.108159765,-0.399305598,1,0,0,1.0967,Peridotite_rect,9,0,9,0,1,
6677627ceb0f9e2e3f5fc5be,TCR,2024-06-26_12h39.36.449,LearnStrategy,2023.2.3,Win32,123.4567901,7,2,11,,,,,,,,8,02,,,,,,,,,,,8,0.756,1,,,,,,0.386632029,-0.409722265,1,0,0,0.7562,Pumice_rect,10,0,10,0,1,
6677627ceb0f9e2e3f5fc5be,TCR,2024-06-26_12h39.36.449,LearnStrategy,2023.2.3,Win32,123.4567901,7,2,12,,,,,,,,6,08,,,,,,,,,,,8,2.031,0,,,,,,0.383854167,-0.384722265,1,0,0,2.0308,Pumice_rect,11,0,11,0,1,
6677627ceb0f9e2e3f5fc5be,TCR,2024-06-26_12h39.36.449,LearnStrategy,2023.2.3,Win32,123.4567901,7,2,13,,,,,,,,2,09,,,,,,,,,,,3,0.882,0,,,,,,0.082465299,-0.252083333,1,0,0,0.8818,Diorite_rect,12,0,12,0,1,
6677627ceb0f9e2e3f5fc5be,TCR,2024-06-26_12h39.36.449,LearnStrategy,2023.2.3,Win32,123.4567901,7,2,14,,,,,,,,4,05,,,,,,,,,,,6,1.447,0,,,,,,-0.063368034,-0.388888931,1,0,0,1.4466,Pegmatite_rect,13,0,13,0,1,
6677627ceb0f9e2e3f5fc5be,TCR,2024-06-26_12h39.36.449,LearnStrategy,2023.2.3,Win32,123.4567901,7,2,15,,,,,,,,7,06,,,,,,,,,,,2,0.672,0,,,,,,-0.118923569,-0.247916667,1,0,0,0.6718,Basalt_rect,14,0,14,0,1,
6677627ceb0f9e2e3f5fc5be,TCR,2024-06-26_12h39.36.449,LearnStrategy,2023.2.3,Win32,123.4567901,7,2,16,,,,,,,,7,02,,,,,,,,,,,7,0.373,1,,,,,,0.0734375,-0.380555598,1,0,0,0.373,Peridotite_rect,15,0,15,0,1,
6677627ceb0f9e2e3f5fc5be,TCR,2024-06-26_12h39.36.449,LearnStrategy,2023.2.3,Win32,123.4567901,8,1,1,0.0296875,-0.013194466,1,0,0,57.2194,rock_grid_rect_2,6,11,-1,-1,57.219,0.409548696,-0.415277799,1,0,0,2.2436,Pumice_rect,8,2.244,0,0,0,0,0,1,,,,,,,,,,,,,
6677627ceb0f9e2e3f5fc5be,TCR,2024-06-26_12h39.36.449,LearnStrategy,2023.2.3,Win32,123.4567901,8,1,2,0.003993098,0.009027767,1,0,0,0.9492,rock_grid_rect_2,2,01,-1,-1,0.949,-0.066145833,-0.246527799,1,0,0,0.6137,Basalt_rect,2,0.614,1,1,0,1,0,1,,,,,,,,,,,,,
6677627ceb0f9e2e3f5fc5be,TCR,2024-06-26_12h39.36.449,LearnStrategy,2023.2.3,Win32,123.4567901,8,1,3,0.000520833,0.000694434,1,0,0,0.5993,rock_grid_rect_2,2,14,-1,-1,0.599,0.158854167,-0.257638931,1,0,0,0.5387,Diorite_rect,3,0.539,0,2,0,2,0,1,,,,,,,,,,,,,
6677627ceb0f9e2e3f5fc5be,TCR,2024-06-26_12h39.36.449,LearnStrategy,2023.2.3,Win32,123.4567901,8,1,4,-0.054340235,-0.011111132,1,0,0,0.6158,rock_grid_rect_2,6,13,-1,-1,0.616,0.401215363,-0.388888931,1,0,0,3.2224,Pumice_rect,8,3.222,0,3,0,3,0,1,,,,,,,,,,,,,
6677627ceb0f9e2e3f5fc5be,TCR,2024-06-26_12h39.36.449,LearnStrategy,2023.2.3,Win32,123.4567901,8,1,5,-0.054340235,0.005555534,1,0,0,0.5573,rock_grid_rect_2,8,09,-1,-1,0.557,-0.109201368,-0.3875,1,0,0,0.8802,Pegmatite_rect,6,0.88,0,4,0,4,0,1,,,,,,,,,,,,,
6677627ceb0f9e2e3f5fc5be,TCR,2024-06-26_12h39.36.449,LearnStrategy,2023.2.3,Win32,123.4567901,8,1,6,-0.023090235,0.0125,1,0,0,0.5944,rock_grid_rect_2,6,11,-1,-1,0.594,0.108159765,-0.230555598,1,0,0,0.6437,Diorite_rect,3,0.644,0,5,0,5,0,1,,,,,,,,,,,,,
6677627ceb0f9e2e3f5fc5be,TCR,2024-06-26_12h39.36.449,LearnStrategy,2023.2.3,Win32,123.4567901,8,1,7,-0.052256902,-0.013888899,1,0,0,0.8578,rock_grid_rect_2,8,10,-1,-1,0.858,0.368576431,-0.384722265,1,0,0,2.7221,Pumice_rect,8,2.722,1,6,0,6,0,1,,,,,,,,,,,,,
6677627ceb0f9e2e3f5fc5be,TCR,2024-06-26_12h39.36.449,LearnStrategy,2023.2.3,Win32,123.4567901,8,1,8,0.002604167,0.005555534,1,0,0,0.4965,rock_grid_rect_2,7,14,-1,-1,0.497,0.346354167,-0.245138931,1,0,0,1.3766,Gabbro_rect,4,1.377,0,7,0,7,0,1,,,,,,,,,,,,,
6677627ceb0f9e2e3f5fc5be,TCR,2024-06-26_12h39.36.449,LearnStrategy,2023.2.3,Win32,123.4567901,8,1,9,-0.061284701,-0.013888899,1,0,0,0.4415,rock_grid_rect_2,7,15,-1,-1,0.441,0.143576431,-0.255555598,1,0,0,0.8281,Diorite_rect,3,0.828,0,8,0,8,0,1,,,,,,,,,,,,,
6677627ceb0f9e2e3f5fc5be,TCR,2024-06-26_12h39.36.449,LearnStrategy,2023.2.3,Win32,123.4567901,8,1,10,-0.011284701,-0.002083333,1,0,0,0.4491,rock_grid_rect_2,3,10,-1,-1,0.449,-0.088368034,-0.242361132,1,0,0,0.6387,Basalt_rect,2,0.639,0,9,0,9,0,1,,,,,,,,,,,,,
6677627ceb0f9e2e3f5fc5be,TCR,2024-06-26_12h39.36.449,LearnStrategy,2023.2.3,Win32,123.4567901,8,1,11,0.016493098,-0.011111132,1,0,0,0.4909,rock_grid_rect_2,4,11,-1,-1,0.491,0.317882029,-0.406944466,1,0,0,2.5644,Pumice_rect,8,2.564,0,10,0,10,0,1,,,,,,,,,,,,,
6677627ceb0f9e2e3f5fc5be,TCR,2024-06-26_12h39.36.449,LearnStrategy,2023.2.3,Win32,123.4567901,8,1,12,0.069965299,-0.010416667,1,0,0,0.4243,rock_grid_rect_2,1,03,-1,-1,0.424,0.119270833,-0.398611132,1,0,0,2.6404,Peridotite_rect,7,2.64,0,11,0,11,0,1,,,,,,,,,,,,,
6677627ceb0f9e2e3f5fc5be,TCR,2024-06-26_12h39.36.449,LearnStrategy,2023.2.3,Win32,123.4567901,8,1,13,-0.072395833,-0.020833333,1,0,0,1.0246,rock_grid_rect_2,3,14,-1,-1,1.025,0.0484375,-0.259027799,1,0,0,1.2104,Diorite_rect,3,1.21,1,12,0,12,0,1,,,,,,,,,,,,,
6677627ceb0f9e2e3f5fc5be,TCR,2024-06-26_12h39.36.449,LearnStrategy,2023.2.3,Win32,123.4567901,8,1,14,-0.022395833,-0.011111132,1,0,0,0.6743,rock_grid_rect_2,4,15,-1,-1,0.674,-0.139756902,-0.229861132,1,0,0,0.6975,Basalt_rect,2,0.697,0,13,0,13,0,1,,,,,,,,,,,,,
6677627ceb0f9e2e3f5fc5be,TCR,2024-06-26_12h39.36.449,LearnStrategy,2023.2.3,Win32,123.4567901,8,1,15,0.021354167,0.002777767,1,0,0,0.6744,rock_grid_rect_2,3,02,-1,-1,0.674,-0.3203125,-0.255555598,1,0,0,1.0726,Andesite_rect,1,1.073,0,14,0,14,0,1,,,,,,,,,,,,,
6677627ceb0f9e2e3f5fc5be,TCR,2024-06-26_12h39.36.449,LearnStrategy,2023.2.3,Win32,123.4567901,8,1,16,-0.0453125,-0.010416667,1,0,0,0.6742,rock_grid_rect_2,1,02,-1,-1,0.674,0.347743098,-0.409027799,1,0,0,1.2225,Pumice_rect,8,1.222,0,15,0,15,0,1,,,,,,,,,,,,,
6677627ceb0f9e2e3f5fc5be,TCR,2024-06-26_12h39.36.449,LearnStrategy,2023.2.3,Win32,123.4567901,8,2,1,,,,,,,,1,07,,,,,,,,,,,8,1.597,0,,,,,,0.338715363,-0.390972265,1,0,0,1.5968,Pumice_rect,0,0,0,0,1,
6677627ceb0f9e2e3f5fc5be,TCR,2024-06-26_12h39.36.449,LearnStrategy,2023.2.3,Win32,123.4567901,8,2,2,,,,,,,,4,14,,,,,,,,,,,2,0.831,0,,,,,,-0.109895833,-0.265972265,1,0,0,0.8305,Basalt_rect,1,0,1,0,1,
6677627ceb0f9e2e3f5fc5be,TCR,2024-06-26_12h39.36.449,LearnStrategy,2023.2.3,Win32,123.4567901,8,2,3,,,,,,,,1,14,,,,,,,,,,,7,1.097,0,,,,,,0.144965299,-0.414583333,1,0,0,1.0969,Peridotite_rect,2,0,2,0,1,
6677627ceb0f9e2e3f5fc5be,TCR,2024-06-26_12h39.36.449,LearnStrategy,2023.2.3,Win32,123.4567901,8,2,4,,,,,,,,6,15,,,,,,,,,,,7,1.672,0,,,,,,0.044270833,-0.411805598,1,0,0,1.6719,Peridotite_rect,3,0,3,0,1,
6677627ceb0f9e2e3f5fc5be,TCR,2024-06-26_12h39.36.449,LearnStrategy,2023.2.3,Win32,123.4567901,8,2,5,,,,,,,,2,02,,,,,,,,,,,4,1.055,0,,,,,,0.346354167,-0.248611132,1,0,0,1.0553,Gabbro_rect,4,0,4,0,1,
6677627ceb0f9e2e3f5fc5be,TCR,2024-06-26_12h39.36.449,LearnStrategy,2023.2.3,Win32,123.4567901,8,2,6,,,,,,,,8,06,,,,,,,,,,,3,1.174,0,,,,,,0.0609375,-0.258333333,1,0,0,1.1743,Diorite_rect,5,0,5,0,1,
6677627ceb0f9e2e3f5fc5be,TCR,2024-06-26_12h39.36.449,LearnStrategy,2023.2.3,Win32,123.4567901,8,2,7,,,,,,,,3,12,,,,,,,,,,,2,0.693,0,,,,,,-0.059895833,-0.270833333,1,0,0,0.6926,Basalt_rect,6,0,6,0,1,
6677627ceb0f9e2e3f5fc5be,TCR,2024-06-26_12h39.36.449,LearnStrategy,2023.2.3,Win32,123.4567901,8,2,8,,,,,,,,5,12,,,,,,,,,,,5,0.889,1,,,,,,-0.4015625,-0.38125,1,0,0,0.8887,Obsidian_rect,7,0,7,0,1,
6677627ceb0f9e2e3f5fc5be,TCR,2024-06-26_12h39.36.449,LearnStrategy,2023.2.3,Win32,123.4567901,8,2,9,,,,,,,,7,08,,,,,,,,,,,6,0.614,0,,,,,,-0.1640625,-0.386805598,1,0,0,0.6139,Pegmatite_rect,8,0,8,0,1,
6677627ceb0f9e2e3f5fc5be,TCR,2024-06-26_12h39.36.449,LearnStrategy,2023.2.3,Win32,123.4567901,8,2,10,,,,,,,,7,13,,,,,,,,,,,8,1.288,0,,,,,,0.356770833,-0.416666667,1,0,0,1.2885,Pumice_rect,9,0,9,0,1,
6677627ceb0f9e2e3f5fc5be,TCR,2024-06-26_12h39.36.449,LearnStrategy,2023.2.3,Win32,123.4567901,8,2,11,,,,,,,,5,05,,,,,,,,,,,5,1.081,1,,,,,,-0.3140625,-0.392361132,1,0,0,1.0805,Obsidian_rect,10,0,10,0,1,
6677627ceb0f9e2e3f5fc5be,TCR,2024-06-26_12h39.36.449,LearnStrategy,2023.2.3,Win32,123.4567901,8,2,12,,,,,,,,3,13,,,,,,,,,,,4,4.648,0,,,,,,0.314409765,-0.246527799,1,0,0,4.6476,Gabbro_rect,11,0,11,0,1,
6677627ceb0f9e2e3f5fc5be,TCR,2024-06-26_12h39.36.449,LearnStrategy,2023.2.3,Win32,123.4567901,8,2,13,,,,,,,,4,10,,,,,,,,,,,7,2.076,0,,,,,,0.083159765,-0.406944466,1,0,0,2.0764,Peridotite_rect,12,0,12,0,1,
6677627ceb0f9e2e3f5fc5be,TCR,2024-06-26_12h39.36.449,LearnStrategy,2023.2.3,Win32,123.4567901,8,2,14,,,,,,,,6,09,,,,,,,,,,,6,1.013,1,,,,,,-0.121006902,-0.392361132,1,0,0,1.013,Pegmatite_rect,13,0,13,0,1,
6677627ceb0f9e2e3f5fc5be,TCR,2024-06-26_12h39.36.449,LearnStrategy,2023.2.3,Win32,123.4567901,8,2,15,,,,,,,,2,04,,,,,,,,,,,4,0.672,0,,,,,,0.406076431,-0.247916667,1,0,0,0.6724,Gabbro_rect,14,0,14,0,1,
6677627ceb0f9e2e3f5fc5be,TCR,2024-06-26_12h39.36.449,LearnStrategy,2023.2.3,Win32,123.4567901,8,2,16,,,,,,,,8,14,,,,,,,,,,,3,0.588,0,,,,,,0.099131966,-0.266666667,1,0,0,0.5882,Diorite_rect,15,0,15,0,1,
6677627ceb0f9e2e3f5fc5be,TCR,2024-06-26_12h39.36.449,LearnStrategy,2023.2.3,Win32,123.4567901,9,1,1,0.091493098,-0.015277799,1,0,0,0.916,rock_grid_rect_2,3,09,-1,-1,0.916,0.1671875,-0.2375,1,0,0,0.5808,Diorite_rect,3,0.581,1,0,0,0,0,1,,,,,,,,,,,,,
6677627ceb0f9e2e3f5fc5be,TCR,2024-06-26_12h39.36.449,LearnStrategy,2023.2.3,Win32,123.4567901,9,1,2,-0.004340235,0.000694434,1,0,0,0.541,rock_grid_rect_2,8,08,-1,-1,0.541,-0.155729167,-0.241666667,1,0,0,0.8142,Basalt_rect,2,0.814,0,1,0,1,0,1,,,,,,,,,,,,,
6677627ceb0f9e2e3f5fc5be,TCR,2024-06-26_12h39.36.449,LearnStrategy,2023.2.3,Win32,123.4567901,9,1,3,-0.030034701,0.000694434,1,0,0,0.6246,rock_grid_rect_2,3,02,-1,-1,0.625,0.3234375,-0.406944466,1,0,0,2.2405,Pumice_rect,8,2.24,0,2,0,2,0,1,,,,,,,,,,,,,
6677627ceb0f9e2e3f5fc5be,TCR,2024-06-26_12h39.36.449,LearnStrategy,2023.2.3,Win32,123.4567901,9,1,4,-0.066840235,0.009722201,1,0,0,0.549,rock_grid_rect_2,3,14,-1,-1,0.549,0.338020833,-0.254166667,1,0,0,0.9219,Gabbro_rect,4,0.922,0,3,0,3,0,1,,,,,,,,,,,,,
6677627ceb0f9e2e3f5fc5be,TCR,2024-06-26_12h39.36.449,LearnStrategy,2023.2.3,Win32,123.4567901,9,1,5,-0.019618034,-0.008333333,1,0,0,0.491,rock_grid_rect_2,4,13,-1,-1,0.491,-0.103645833,-0.386805598,1,0,0,0.8718,Pegmatite_rect,6,0.872,0,4,0,4,0,1,,,,,,,,,,,,,
6677627ceb0f9e2e3f5fc5be,TCR,2024-06-26_12h39.36.449,LearnStrategy,2023.2.3,Win32,123.4567901,9,1,6,-0.027256902,-0.005555566,1,0,0,0.466,rock_grid_rect_2,6,13,-1,-1,0.466,-0.360590267,-0.253472265,1,0,0,0.5224,Andesite_rect,1,0.522,0,5,0,5,0,1,,,,,,,,,,,,,
6677627ceb0f9e2e3f5fc5be,TCR,2024-06-26_12h39.36.449,LearnStrategy,2023.2.3,Win32,123.4567901,9,1,7,-0.032118034,-0.004166667,1,0,0,0.4659,rock_grid_rect_2,4,15,-1,-1,0.466,0.095659765,-0.240972265,1,0,0,0.7556,Diorite_rect,3,0.756,0,6,0,6,0,1,,,,,,,,,,,,,
6677627ceb0f9e2e3f5fc5be,TCR,2024-06-26_12h39.36.449,LearnStrategy,2023.2.3,Win32,123.4567901,9,1,8,0.028993098,0.000694434,1,0,0,0.4824,rock_grid_rect_2,1,02,-1,-1,0.482,0.290798696,-0.228472265,1,0,0,0.9137,Gabbro_rect,4,0.914,0,7,0,7,0,1,,,,,,,,,,,,,
6677627ceb0f9e2e3f5fc5be,TCR,2024-06-26_12h39.36.449,LearnStrategy,2023.2.3,Win32,123.4567901,9,1,9,0.0421875,0.000694434,1,0,0,0.4575,rock_grid_rect_2,4,08,-1,-1,0.457,0.138020833,-0.420138931,1,0,0,0.522,Peridotite_rect,7,0.522,0,8,0,8,0,1,,,,,,,,,,,,,
6677627ceb0f9e2e3f5fc5be,TCR,2024-06-26_12h39.36.449,LearnStrategy,2023.2.3,Win32,123.4567901,9,1,10,0.024131966,0.011805534,1,0,0,0.4409,rock_grid_rect_2,6,05,-1,-1,0.441,0.331770833,-0.390972265,1,0,0,1.572,Pumice_rect,8,1.572,0,9,0,9,0,1,,,,,,,,,,,,,
6677627ceb0f9e2e3f5fc5be,TCR,2024-06-26_12h39.36.449,LearnStrategy,2023.2.3,Win32,123.4567901,9,1,11,0.027604167,0.004166667,1,0,0,0.4825,rock_grid_rect_2,8,08,-1,-1,0.483,0.121354167,-0.256944466,1,0,0,0.747,Diorite_rect,3,0.747,0,10,0,10,0,1,,,,,,,,,,,,,
6677627ceb0f9e2e3f5fc5be,TCR,2024-06-26_12h39.36.449,LearnStrategy,2023.2.3,Win32,123.4567901,9,1,12,0.058159765,-0.0125,1,0,0,0.7328,rock_grid_rect_2,2,05,-1,-1,0.733,0.381076431,-0.266666667,1,0,0,0.5642,Gabbro_rect,4,0.564,0,11,0,11,0,1,,,,,,,,,,,,,
6677627ceb0f9e2e3f5fc5be,TCR,2024-06-26_12h39.36.449,LearnStrategy,2023.2.3,Win32,123.4567901,9,1,13,-0.0140625,0.007638868,1,0,0,0.6494,rock_grid_rect_2,7,12,-1,-1,0.649,-0.085590235,-0.23125,1,0,0,1.0805,Basalt_rect,2,1.081,0,12,0,12,0,1,,,,,,,,,,,,,
6677627ceb0f9e2e3f5fc5be,TCR,2024-06-26_12h39.36.449,LearnStrategy,2023.2.3,Win32,123.4567901,9,1,14,0.038020833,-0.002777799,1,0,0,0.5406,rock_grid_rect_2,2,08,-1,-1,0.541,0.132465299,-0.245138931,1,0,0,0.4253,Diorite_rect,3,0.425,0,13,0,13,0,1,,,,,,,,,,,,,
6677627ceb0f9e2e3f5fc5be,TCR,2024-06-26_12h39.36.449,LearnStrategy,2023.2.3,Win32,123.4567901,9,1,15,0.021354167,-0.015277799,1,0,0,0.6161,rock_grid_rect_2,1,03,-1,-1,0.616,0.327604167,-0.233333333,1,0,0,1.6973,Gabbro_rect,4,1.697,0,14,0,14,0,1,,,,,,,,,,,,,
6677627ceb0f9e2e3f5fc5be,TCR,2024-06-26_12h39.36.449,LearnStrategy,2023.2.3,Win32,123.4567901,9,1,16,-0.027951368,-0.013194466,1,0,0,0.5075,rock_grid_rect_2,7,05,-1,-1,0.507,0.063715299,-0.397222265,1,0,0,1.864,Peridotite_rect,7,1.864,1,15,0,15,0,1,,,,,,,,,,,,,
6677627ceb0f9e2e3f5fc5be,TCR,2024-06-26_12h39.36.449,LearnStrategy,2023.2.3,Win32,123.4567901,9,2,1,,,,,,,,5,04,,,,,,,,,,,5,0.813,1,,,,,,-0.375868034,-0.397916667,1,0,0,0.8132,Obsidian_rect,0,0,0,0,1,
6677627ceb0f9e2e3f5fc5be,TCR,2024-06-26_12h39.36.449,LearnStrategy,2023.2.3,Win32,123.4567901,9,2,2,,,,,,,,5,08,,,,,,,,,,,5,2.43,1,,,,,,-0.3640625,-0.408333333,1,0,0,2.4305,Obsidian_rect,1,0,1,0,1,
6677627ceb0f9e2e3f5fc5be,TCR,2024-06-26_12h39.36.449,LearnStrategy,2023.2.3,Win32,123.4567901,9,2,3,,,,,,,,3,08,,,,,,,,,,,7,2.614,0,,,,,,0.091493098,-0.398611132,1,0,0,2.6135,Peridotite_rect,2,0,2,0,1,
6677627ceb0f9e2e3f5fc5be,TCR,2024-06-26_12h39.36.449,LearnStrategy,2023.2.3,Win32,123.4567901,9,2,4,,,,,,,,2,06,,,,,,,,,,,8,4.21,0,,,,,,0.369965363,-0.409027799,1,0,0,4.2097,Pumice_rect,3,0,3,0,1,
6677627ceb0f9e2e3f5fc5be,TCR,2024-06-26_12h39.36.449,LearnStrategy,2023.2.3,Win32,123.4567901,9,2,5,,,,,,,,2,10,,,,,,,,,,,3,1.952,0,,,,,,0.132465299,-0.250694466,1,0,0,1.9517,Diorite_rect,4,0,4,0,1,
6677627ceb0f9e2e3f5fc5be,TCR,2024-06-26_12h39.36.449,LearnStrategy,2023.2.3,Win32,123.4567901,9,2,6,,,,,,,,8,05,,,,,,,,,,,1,1.185,0,,,,,,-0.333506902,-0.229166667,1,0,0,1.1849,Andesite_rect,5,0,5,0,1,
6677627ceb0f9e2e3f5fc5be,TCR,2024-06-26_12h39.36.449,LearnStrategy,2023.2.3,Win32,123.4567901,9,2,7,,,,,,,,6,07,,,,,,,,,,,7,3.095,0,,,,,,0.0796875,-0.400694466,1,0,0,3.0948,Peridotite_rect,6,0,6,0,1,
6677627ceb0f9e2e3f5fc5be,TCR,2024-06-26_12h39.36.449,LearnStrategy,2023.2.3,Win32,123.4567901,9,2,8,,,,,,,,7,10,,,,,,,,,,,2,2.21,0,,,,,,-0.113368034,-0.244444466,1,0,0,2.2102,Basalt_rect,7,0,7,0,1,
6677627ceb0f9e2e3f5fc5be,TCR,2024-06-26_12h39.36.449,LearnStrategy,2023.2.3,Win32,123.4567901,9,2,9,,,,,,,,4,03,,,,,,,,,,,2,1.788,0,,,,,,-0.137673569,-0.246527799,1,0,0,1.7881,Basalt_rect,8,0,8,0,1,
6677627ceb0f9e2e3f5fc5be,TCR,2024-06-26_12h39.36.449,LearnStrategy,2023.2.3,Win32,123.4567901,9,2,10,,,,,,,,4,01,,,,,,,,,,,7,2.768,0,,,,,,0.072743098,-0.409027799,1,0,0,2.7677,Peridotite_rect,9,0,9,0,1,
6677627ceb0f9e2e3f5fc5be,TCR,2024-06-26_12h39.36.449,LearnStrategy,2023.2.3,Win32,123.4567901,9,2,11,,,,,,,,7,04,,,,,,,,,,,6,3.822,0,,,,,,-0.114756902,-0.419444466,1,0,0,3.8216,Pegmatite_rect,10,0,10,0,1,
6677627ceb0f9e2e3f5fc5be,TCR,2024-06-26_12h39.36.449,LearnStrategy,2023.2.3,Win32,123.4567901,9,2,12,,,,,,,,1,10,,,,,,,,,,,1,1.36,1,,,,,,-0.389756934,-0.252083333,1,0,0,1.3595,Andesite_rect,11,0,11,0,1,
6677627ceb0f9e2e3f5fc5be,TCR,2024-06-26_12h39.36.449,LearnStrategy,2023.2.3,Win32,123.4567901,9,2,13,,,,,,,,3,07,,,,,,,,,,,8,1.985,0,,,,,,0.381076431,-0.404166667,1,0,0,1.9852,Pumice_rect,12,0,12,0,1,
6677627ceb0f9e2e3f5fc5be,TCR,2024-06-26_12h39.36.449,LearnStrategy,2023.2.3,Win32,123.4567901,9,2,14,,,,,,,,6,03,,,,,,,,,,,4,1.971,0,,,,,,0.351215363,-0.265972265,1,0,0,1.9706,Gabbro_rect,13,0,13,0,1,
6677627ceb0f9e2e3f5fc5be,TCR,2024-06-26_12h39.36.449,LearnStrategy,2023.2.3,Win32,123.4567901,9,2,15,,,,,,,,1,16,,,,,,,,,,,2,1.356,0,,,,,,-0.118923569,-0.234027799,1,0,0,1.3555,Basalt_rect,14,0,14,0,1,
6677627ceb0f9e2e3f5fc5be,TCR,2024-06-26_12h39.36.449,LearnStrategy,2023.2.3,Win32,123.4567901,9,2,16,,,,,,,,8,15,,,,,,,,,,,1,0.988,0,,,,,,-0.333506902,-0.24375,1,0,0,0.9882,Andesite_rect,15,0,15,0,1,
6677627ceb0f9e2e3f5fc5be,TCR,2024-06-26_12h39.36.449,LearnStrategy,2023.2.3,Win32,123.4567901,,,,,,,,,,,,,,,,,,,,,,,,,,,,,,,,,,,,,,,,,,,0
6677627ceb0f9e2e3f5fc5be,TCR,2024-06-26_12h39.36.449,LearnStrategy,2023.2.3,Win32,123.4567901,,,,,,,,,,,,,,,,,,,,,,,,,,,,,,,,,,,,,,,,,,,
6677627ceb0f9e2e3f5fc5be,TCR,2024-06-26_12h39.36.449,LearnStrategy,2023.2.3,Win32,123.4567901,,,,,,,,,,,3,09,1,1,,,,,,,,,,,,,,,,,,,,,,,,,,,,,
6677627ceb0f9e2e3f5fc5be,TCR,2024-06-26_12h39.36.449,LearnStrategy,2023.2.3,Win32,123.4567901,,,,,,,,,,,8,09,1,2,,,,,,,,,,,,,,,,,,,,,,,,,,,,,
6677627ceb0f9e2e3f5fc5be,TCR,2024-06-26_12h39.36.449,LearnStrategy,2023.2.3,Win32,123.4567901,,,,,,,,,,,4,11,1,3,,,,,,,,,,,,,,,,,,,,,,,,,,,,,
6677627ceb0f9e2e3f5fc5be,TCR,2024-06-26_12h39.36.449,LearnStrategy,2023.2.3,Win32,123.4567901,,,,,,,,,,,3,14,1,4,,,,,,,,,,,,,,,,,,,,,,,,,,,,,
6677627ceb0f9e2e3f5fc5be,TCR,2024-06-26_12h39.36.449,LearnStrategy,2023.2.3,Win32,123.4567901,,,,,,,,,,,5,16,1,5,,,,,,,,,,,,,,,,,,,,,,,,,,,,,
6677627ceb0f9e2e3f5fc5be,TCR,2024-06-26_12h39.36.449,LearnStrategy,2023.2.3,Win32,123.4567901,,,,,,,,,,,7,15,1,6,,,,,,,,,,,,,,,,,,,,,,,,,,,,,
6677627ceb0f9e2e3f5fc5be,TCR,2024-06-26_12h39.36.449,LearnStrategy,2023.2.3,Win32,123.4567901,,,,,,,,,,,6,11,1,7,,,,,,,,,,,,,,,,,,,,,,,,,,,,,
6677627ceb0f9e2e3f5fc5be,TCR,2024-06-26_12h39.36.449,LearnStrategy,2023.2.3,Win32,123.4567901,,,,,,,,,,,1,04,1,8,,,,,,,,,,,,,,,,,,,,,,,,,,,,,
6677627ceb0f9e2e3f5fc5be,TCR,2024-06-26_12h39.36.449,LearnStrategy,2023.2.3,Win32,123.4567901,,,,,,,,,,,2,14,2,1,,,,,,,,,,,,,,,,,,,,,,,,,,,,,
6677627ceb0f9e2e3f5fc5be,TCR,2024-06-26_12h39.36.449,LearnStrategy,2023.2.3,Win32,123.4567901,,,,,,,,,,,2,08,2,2,,,,,,,,,,,,,,,,,,,,,,,,,,,,,
6677627ceb0f9e2e3f5fc5be,TCR,2024-06-26_12h39.36.449,LearnStrategy,2023.2.3,Win32,123.4567901,,,,,,,,,,,6,05,2,3,,,,,,,,,,,,,,,,,,,,,,,,,,,,,
6677627ceb0f9e2e3f5fc5be,TCR,2024-06-26_12h39.36.449,LearnStrategy,2023.2.3,Win32,123.4567901,,,,,,,,,,,3,02,2,4,,,,,,,,,,,,,,,,,,,,,,,,,,,,,
6677627ceb0f9e2e3f5fc5be,TCR,2024-06-26_12h39.36.449,LearnStrategy,2023.2.3,Win32,123.4567901,,,,,,,,,,,4,12,2,5,,,,,,,,,,,,,,,,,,,,,,,,,,,,,
6677627ceb0f9e2e3f5fc5be,TCR,2024-06-26_12h39.36.449,LearnStrategy,2023.2.3,Win32,123.4567901,,,,,,,,,,,6,06,2,6,,,,,,,,,,,,,,,,,,,,,,,,,,,,,
6677627ceb0f9e2e3f5fc5be,TCR,2024-06-26_12h39.36.449,LearnStrategy,2023.2.3,Win32,123.4567901,,,,,,,,,,,3,15,2,7,,,,,,,,,,,,,,,,,,,,,,,,,,,,,
6677627ceb0f9e2e3f5fc5be,TCR,2024-06-26_12h39.36.449,LearnStrategy,2023.2.3,Win32,123.4567901,,,,,,,,,,,8,04,2,8,,,,,,,,,,,,,,,,,,,,,,,,,,,,,
6677627ceb0f9e2e3f5fc5be,TCR,2024-06-26_12h39.36.449,LearnStrategy,2023.2.3,Win32,123.4567901,,,,,,,,,,,5,06,3,1,,,,,,,,,,,,,,,,,,,,,,,,,,,,,
6677627ceb0f9e2e3f5fc5be,TCR,2024-06-26_12h39.36.449,LearnStrategy,2023.2.3,Win32,123.4567901,,,,,,,,,,,7,16,3,2,,,,,,,,,,,,,,,,,,,,,,,,,,,,,
6677627ceb0f9e2e3f5fc5be,TCR,2024-06-26_12h39.36.449,LearnStrategy,2023.2.3,Win32,123.4567901,,,,,,,,,,,1,05,3,3,,,,,,,,,,,,,,,,,,,,,,,,,,,,,
6677627ceb0f9e2e3f5fc5be,TCR,2024-06-26_12h39.36.449,LearnStrategy,2023.2.3,Win32,123.4567901,,,,,,,,,,,8,10,3,4,,,,,,,,,,,,,,,,,,,,,,,,,,,,,
6677627ceb0f9e2e3f5fc5be,TCR,2024-06-26_12h39.36.449,LearnStrategy,2023.2.3,Win32,123.4567901,,,,,,,,,,,8,16,3,5,,,,,,,,,,,,,,,,,,,,,,,,,,,,,
6677627ceb0f9e2e3f5fc5be,TCR,2024-06-26_12h39.36.449,LearnStrategy,2023.2.3,Win32,123.4567901,,,,,,,,,,,1,11,3,6,,,,,,,,,,,,,,,,,,,,,,,,,,,,,
6677627ceb0f9e2e3f5fc5be,TCR,2024-06-26_12h39.36.449,LearnStrategy,2023.2.3,Win32,123.4567901,,,,,,,,,,,5,02,3,7,,,,,,,,,,,,,,,,,,,,,,,,,,,,,
6677627ceb0f9e2e3f5fc5be,TCR,2024-06-26_12h39.36.449,LearnStrategy,2023.2.3,Win32,123.4567901,,,,,,,,,,,2,12,3,8,,,,,,,,,,,,,,,,,,,,,,,,,,,,,
6677627ceb0f9e2e3f5fc5be,TCR,2024-06-26_12h39.36.449,LearnStrategy,2023.2.3,Win32,123.4567901,,,,,,,,,,,1,02,4,1,,,,,,,,,,,,,,,,,,,,,,,,,,,,,
6677627ceb0f9e2e3f5fc5be,TCR,2024-06-26_12h39.36.449,LearnStrategy,2023.2.3,Win32,123.4567901,,,,,,,,,,,4,15,4,2,,,,,,,,,,,,,,,,,,,,,,,,,,,,,
6677627ceb0f9e2e3f5fc5be,TCR,2024-06-26_12h39.36.449,LearnStrategy,2023.2.3,Win32,123.4567901,,,,,,,,,,,2,01,4,3,,,,,,,,,,,,,,,,,,,,,,,,,,,,,
6677627ceb0f9e2e3f5fc5be,TCR,2024-06-26_12h39.36.449,LearnStrategy,2023.2.3,Win32,123.4567901,,,,,,,,,,,4,08,4,4,,,,,,,,,,,,,,,,,,,,,,,,,,,,,
6677627ceb0f9e2e3f5fc5be,TCR,2024-06-26_12h39.36.449,LearnStrategy,2023.2.3,Win32,123.4567901,,,,,,,,,,,5,11,4,5,,,,,,,,,,,,,,,,,,,,,,,,,,,,,
6677627ceb0f9e2e3f5fc5be,TCR,2024-06-26_12h39.36.449,LearnStrategy,2023.2.3,Win32,123.4567901,,,,,,,,,,,3,16,4,6,,,,,,,,,,,,,,,,,,,,,,,,,,,,,
6677627ceb0f9e2e3f5fc5be,TCR,2024-06-26_12h39.36.449,LearnStrategy,2023.2.3,Win32,123.4567901,,,,,,,,,,,5,14,4,7,,,,,,,,,,,,,,,,,,,,,,,,,,,,,
6677627ceb0f9e2e3f5fc5be,TCR,2024-06-26_12h39.36.449,LearnStrategy,2023.2.3,Win32,123.4567901,,,,,,,,,,,7,07,4,8,,,,,,,,,,,,,,,,,,,,,,,,,,,,,
6677627ceb0f9e2e3f5fc5be,TCR,2024-06-26_12h39.36.449,LearnStrategy,2023.2.3,Win32,123.4567901,,,,,,,,,,,8,08,5,1,,,,,,,,,,,,,,,,,,,,,,,,,,,,,
6677627ceb0f9e2e3f5fc5be,TCR,2024-06-26_12h39.36.449,LearnStrategy,2023.2.3,Win32,123.4567901,,,,,,,,,,,1,03,5,2,,,,,,,,,,,,,,,,,,,,,,,,,,,,,
6677627ceb0f9e2e3f5fc5be,TCR,2024-06-26_12h39.36.449,LearnStrategy,2023.2.3,Win32,123.4567901,,,,,,,,,,,1,06,5,3,,,,,,,,,,,,,,,,,,,,,,,,,,,,,
6677627ceb0f9e2e3f5fc5be,TCR,2024-06-26_12h39.36.449,LearnStrategy,2023.2.3,Win32,123.4567901,,,,,,,,,,,8,03,5,4,,,,,,,,,,,,,,,,,,,,,,,,,,,,,
6677627ceb0f9e2e3f5fc5be,TCR,2024-06-26_12h39.36.449,LearnStrategy,2023.2.3,Win32,123.4567901,,,,,,,,,,,3,10,5,5,,,,,,,,,,,,,,,,,,,,,,,,,,,,,
6677627ceb0f9e2e3f5fc5be,TCR,2024-06-26_12h39.36.449,LearnStrategy,2023.2.3,Win32,123.4567901,,,,,,,,,,,7,05,5,6,,,,,,,,,,,,,,,,,,,,,,,,,,,,,
6677627ceb0f9e2e3f5fc5be,TCR,2024-06-26_12h39.36.449,LearnStrategy,2023.2.3,Win32,123.4567901,,,,,,,,,,,4,16,5,7,,,,,,,,,,,,,,,,,,,,,,,,,,,,,
6677627ceb0f9e2e3f5fc5be,TCR,2024-06-26_12h39.36.449,LearnStrategy,2023.2.3,Win32,123.4567901,,,,,,,,,,,2,11,5,8,,,,,,,,,,,,,,,,,,,,,,,,,,,,,
6677627ceb0f9e2e3f5fc5be,TCR,2024-06-26_12h39.36.449,LearnStrategy,2023.2.3,Win32,123.4567901,,,,,,,,,,,2,05,6,1,,,,,,,,,,,,,,,,,,,,,,,,,,,,,
6677627ceb0f9e2e3f5fc5be,TCR,2024-06-26_12h39.36.449,LearnStrategy,2023.2.3,Win32,123.4567901,,,,,,,,,,,4,13,6,2,,,,,,,,,,,,,,,,,,,,,,,,,,,,,
6677627ceb0f9e2e3f5fc5be,TCR,2024-06-26_12h39.36.449,LearnStrategy,2023.2.3,Win32,123.4567901,,,,,,,,,,,6,13,6,3,,,,,,,,,,,,,,,,,,,,,,,,,,,,,
6677627ceb0f9e2e3f5fc5be,TCR,2024-06-26_12h39.36.449,LearnStrategy,2023.2.3,Win32,123.4567901,,,,,,,,,,,7,14,6,4,,,,,,,,,,,,,,,,,,,,,,,,,,,,,
6677627ceb0f9e2e3f5fc5be,TCR,2024-06-26_12h39.36.449,LearnStrategy,2023.2.3,Win32,123.4567901,,,,,,,,,,,5,10,6,5,,,,,,,,,,,,,,,,,,,,,,,,,,,,,
6677627ceb0f9e2e3f5fc5be,TCR,2024-06-26_12h39.36.449,LearnStrategy,2023.2.3,Win32,123.4567901,,,,,,,,,,,6,16,6,6,,,,,,,,,,,,,,,,,,,,,,,,,,,,,
6677627ceb0f9e2e3f5fc5be,TCR,2024-06-26_12h39.36.449,LearnStrategy,2023.2.3,Win32,123.4567901,,,,,,,,,,,7,12,6,7,,,,,,,,,,,,,,,,,,,,,,,,,,,,,
6677627ceb0f9e2e3f5fc5be,TCR,2024-06-26_12h39.36.449,LearnStrategy,2023.2.3,Win32,123.4567901,,,,,,,,,,,6,10,6,8,,,,,,,,,,,,,,,,,,,,,,,,,,,,,