participant,condition,date,expName,psychopyVersion,OS,frameRate,block,phase,trial,learn_mouse_2.x,learn_mouse_2.y,learn_mouse_2.leftButton,learn_mouse_2.midButton,learn_mouse_2.rightButton,learn_mouse_2.time,learn_mouse_2.clicked_name,cat,token,row,col,t_select,cat_mouse_l.x,cat_mouse_l.y,cat_mouse_l.leftButton,cat_mouse_l.midButton,cat_mouse_l.rightButton,cat_mouse_l.time,cat_mouse_l.clicked_name,resp,t_resp,corr,train_trials.thisRepN,train_trials.thisTrialN,train_trials.thisN,train_trials.thisIndex,train_trials.ran,cat_mouse_t.x,cat_mouse_t.y,cat_mouse_t.leftButton,cat_mouse_t.midButton,cat_mouse_t.rightButton,cat_mouse_t.time,cat_mouse_t.clicked_name,test_trials.thisRepN,test_trials.thisTrialN,test_trials.thisN,test_trials.thisIndex,test_trials.ran,Bonus
66771c55c52537f3ee41e51c,TCN,2024-06-25_09h41.55.796,LearnStrategy,2023.2.3,MacIntel,71.42857143,,,,,,,,,,,,,,,,,,,,,,,,,,,,,,,,,,,,,,,,,,,
66771c55c52537f3ee41e51c,TCN,2024-06-25_09h41.55.796,LearnStrategy,2023.2.3,MacIntel,71.42857143,1,1,1,0.08125,-0.0025,1,0,0,6.928,rock_grid_rect_2,5,02,-1,-1,6.928,-0.37375,-0.4125,1,0,0,4.351,Obsidian_rect,5,4.351,1,0,0,0,0,1,,,,,,,,,,,,,
66771c55c52537f3ee41e51c,TCN,2024-06-25_09h41.55.796,LearnStrategy,2023.2.3,MacIntel,71.42857143,1,1,2,-0.0025,-0.00875,1,0,0,1.491,rock_grid_rect_2,3,07,-1,-1,1.491,0.18125,-0.40375,1,0,0,7.617,Peridotite_rect,7,7.617,0,1,0,1,0,1,,,,,,,,,,,,,
66771c55c52537f3ee41e51c,TCN,2024-06-25_09h41.55.796,LearnStrategy,2023.2.3,MacIntel,71.42857143,1,1,3,0.02375,-0.0025,1,0,0,1.276,rock_grid_rect_2,8,02,-1,-1,1.276,0.3775,-0.3875,1,0,0,4.869,Pumice_rect,8,4.869,1,2,0,2,0,1,,,,,,,,,,,,,
66771c55c52537f3ee41e51c,TCN,2024-06-25_09h41.55.796,LearnStrategy,2023.2.3,MacIntel,71.42857143,1,1,4,0.04125,-0.00625,1,0,0,1.258,rock_grid_rect_2,5,10,-1,-1,1.258,-0.40875,-0.41125,1,0,0,5.022,Obsidian_rect,5,5.022,1,3,0,3,0,1,,,,,,,,,,,,,
66771c55c52537f3ee41e51c,TCN,2024-06-25_09h41.55.796,LearnStrategy,2023.2.3,MacIntel,71.42857143,1,1,5,0.07375,-0.0175,1,0,0,1.039,rock_grid_rect_2,1,03,-1,-1,1.039,-0.16125,-0.26,1,0,0,5.386,Basalt_rect,2,5.386,0,4,0,4,0,1,,,,,,,,,,,,,
66771c55c52537f3ee41e51c,TCN,2024-06-25_09h41.55.796,LearnStrategy,2023.2.3,MacIntel,71.42857143,1,1,6,0.0225,-0.00875,1,0,0,1.151,rock_grid_rect_2,6,11,-1,-1,1.151,0.435,-0.2425,1,0,0,8.506,Gabbro_rect,4,8.506,0,5,0,5,0,1,,,,,,,,,,,,,
66771c55c52537f3ee41e51c,TCN,2024-06-25_09h41.55.796,LearnStrategy,2023.2.3,MacIntel,71.42857143,1,1,7,0.0175,0.005,1,0,0,1.172,rock_grid_rect_2,8,10,-1,-1,1.172,0.40875,-0.4175,1,0,0,3.621,Pumice_rect,8,3.621,1,6,0,6,0,1,,,,,,,,,,,,,
66771c55c52537f3ee41e51c,TCN,2024-06-25_09h41.55.796,LearnStrategy,2023.2.3,MacIntel,71.42857143,1,1,8,0.01375,-0.01375,1,0,0,1.257,rock_grid_rect_2,4,09,-1,-1,1.257,0.155,-0.26375,1,0,0,22.669,Diorite_rect,3,22.669,0,7,0,7,0,1,,,,,,,,,,,,,
66771c55c52537f3ee41e51c,TCN,2024-06-25_09h41.55.796,LearnStrategy,2023.2.3,MacIntel,71.42857143,1,1,9,0.04625,-0.0075,1,0,0,1.18,rock_grid_rect_2,4,15,-1,-1,1.18,0.18,-0.2475,1,0,0,5.329,Diorite_rect,3,5.329,0,8,0,8,0,1,,,,,,,,,,,,,
66771c55c52537f3ee41e51c,TCN,2024-06-25_09h41.55.796,LearnStrategy,2023.2.3,MacIntel,71.42857143,1,1,10,0.01875,-0.00625,1,0,0,1.583,rock_grid_rect_2,3,02,-1,-1,1.583,0.08625,-0.24875,1,0,0,6.602,Diorite_rect,3,6.602,1,9,0,9,0,1,,,,,,,,,,,,,
66771c55c52537f3ee41e51c,TCN,2024-06-25_09h41.55.796,LearnStrategy,2023.2.3,MacIntel,71.42857143,1,1,11,0.03125,-0.0125,1,0,0,1.363,rock_grid_rect_2,2,06,-1,-1,1.363,-0.3425,-0.4125,1,0,0,2.061,Obsidian_rect,5,2.061,0,10,0,10,0,1,,,,,,,,,,,,,
66771c55c52537f3ee41e51c,TCN,2024-06-25_09h41.55.796,LearnStrategy,2023.2.3,MacIntel,71.42857143,1,1,12,0.0025,0.01625,1,0,0,1.37,rock_grid_rect_2,2,12,-1,-1,1.37,0.3975,-0.405,1,0,0,2.109,Pumice_rect,8,2.109,0,11,0,11,0,1,,,,,,,,,,,,,
66771c55c52537f3ee41e51c,TCN,2024-06-25_09h41.55.796,LearnStrategy,2023.2.3,MacIntel,71.42857143,1,1,13,0.0075,-0.0125,1,0,0,1.282,rock_grid_rect_2,6,03,-1,-1,1.282,-0.1075,-0.40125,1,0,0,6.013,Pegmatite_rect,6,6.013,1,12,0,12,0,1,,,,,,,,,,,,,
66771c55c52537f3ee41e51c,TCN,2024-06-25_09h41.55.796,LearnStrategy,2023.2.3,MacIntel,71.42857143,1,1,14,0.02375,-0.015,1,0,0,1.124,rock_grid_rect_2,7,05,-1,-1,1.124,0.43625,-0.25375,1,0,0,6.673,Gabbro_rect,4,6.673,0,13,0,13,0,1,,,,,,,,,,,,,
66771c55c52537f3ee41e51c,TCN,2024-06-25_09h41.55.796,LearnStrategy,2023.2.3,MacIntel,71.42857143,1,1,15,0.02125,0.005,1,0,0,0.969,rock_grid_rect_2,7,14,-1,-1,0.969,0.11625,-0.405,1,0,0,2.451,Peridotite_rect,7,2.451,1,14,0,14,0,1,,,,,,,,,,,,,
66771c55c52537f3ee41e51c,TCN,2024-06-25_09h41.55.796,LearnStrategy,2023.2.3,MacIntel,71.42857143,1,1,16,-0.01,-0.0175,1,0,0,1.16,rock_grid_rect_2,1,05,-1,-1,1.16,0.11625,-0.4025,1,0,0,18.315,Peridotite_rect,7,18.315,0,15,0,15,0,1,,,,,,,,,,,,,
66771c55c52537f3ee41e51c,TCN,2024-06-25_09h41.55.796,LearnStrategy,2023.2.3,MacIntel,71.42857143,1,2,1,,,,,,,,7,12,,,,,,,,,,,3,31.892,0,,,,,,0.13125,-0.2425,1,0,0,31.892,Diorite_rect,0,0,0,0,1,
66771c55c52537f3ee41e51c,TCN,2024-06-25_09h41.55.796,LearnStrategy,2023.2.3,MacIntel,71.42857143,1,2,2,,,,,,,,8,15,,,,,,,,,,,8,6.59,1,,,,,,0.4225,-0.40625,1,0,0,6.59,Pumice_rect,1,0,1,0,1,
66771c55c52537f3ee41e51c,TCN,2024-06-25_09h41.55.796,LearnStrategy,2023.2.3,MacIntel,71.42857143,1,2,3,,,,,,,,3,11,,,,,,,,,,,3,3.597,1,,,,,,0.15375,-0.25375,1,0,0,3.597,Diorite_rect,2,0,2,0,1,
66771c55c52537f3ee41e51c,TCN,2024-06-25_09h41.55.796,LearnStrategy,2023.2.3,MacIntel,71.42857143,1,2,4,,,,,,,,3,10,,,,,,,,,,,3,1.983,1,,,,,,0.15375,-0.25375,1,0,0,1.983,Diorite_rect,3,0,3,0,1,
66771c55c52537f3ee41e51c,TCN,2024-06-25_09h41.55.796,LearnStrategy,2023.2.3,MacIntel,71.42857143,1,2,5,,,,,,,,8,03,,,,,,,,,,,8,1.62,1,,,,,,0.37875,-0.40375,1,0,0,1.62,Pumice_rect,4,0,4,0,1,
66771c55c52537f3ee41e51c,TCN,2024-06-25_09h41.55.796,LearnStrategy,2023.2.3,MacIntel,71.42857143,1,2,6,,,,,,,,5,08,,,,,,,,,,,5,4.218,1,,,,,,-0.42125,-0.3975,1,0,0,4.218,Obsidian_rect,5,0,5,0,1,
66771c55c52537f3ee41e51c,TCN,2024-06-25_09h41.55.796,LearnStrategy,2023.2.3,MacIntel,71.42857143,1,2,7,,,,,,,,2,05,,,,,,,,,,,2,7.917,1,,,,,,-0.10375,-0.255,1,0,0,7.917,Basalt_rect,6,0,6,0,1,
66771c55c52537f3ee41e51c,TCN,2024-06-25_09h41.55.796,LearnStrategy,2023.2.3,MacIntel,71.42857143,1,2,8,,,,,,,,1,02,,,,,,,,,,,2,7.169,0,,,,,,-0.0875,-0.26375,1,0,0,7.169,Basalt_rect,7,0,7,0,1,
66771c55c52537f3ee41e51c,TCN,2024-06-25_09h41.55.796,LearnStrategy,2023.2.3,MacIntel,71.42857143,1,2,9,,,,,,,,6,08,,,,,,,,,,,6,5.099,1,,,,,,-0.09625,-0.41,1,0,0,5.099,Pegmatite_rect,8,0,8,0,1,
66771c55c52537f3ee41e51c,TCN,2024-06-25_09h41.55.796,LearnStrategy,2023.2.3,MacIntel,71.42857143,1,2,10,,,,,,,,4,05,,,,,,,,,,,4,8.653,1,,,,,,0.44,-0.25125,1,0,0,8.653,Gabbro_rect,9,0,9,0,1,
66771c55c52537f3ee41e51c,TCN,2024-06-25_09h41.55.796,LearnStrategy,2023.2.3,MacIntel,71.42857143,1,2,11,,,,,,,,2,10,,,,,,,,,,,2,4.303,1,,,,,,-0.12,-0.255,1,0,0,4.303,Basalt_rect,10,0,10,0,1,
66771c55c52537f3ee41e51c,TCN,2024-06-25_09h41.55.796,LearnStrategy,2023.2.3,MacIntel,71.42857143,1,2,12,,,,,,,,5,05,,,,,,,,,,,5,3.386,1,,,,,,-0.37375,-0.40125,1,0,0,3.386,Obsidian_rect,11,0,11,0,1,
66771c55c52537f3ee41e51c,TCN,2024-06-25_09h41.55.796,LearnStrategy,2023.2.3,MacIntel,71.42857143,1,2,13,,,,,,,,7,16,,,,,,,,,,,1,10.739,0,,,,,,-0.3575,-0.24625,1,0,0,10.739,Andesite_rect,12,0,12,0,1,
66771c55c52537f3ee41e51c,TCN,2024-06-25_09h41.55.796,LearnStrategy,2023.2.3,MacIntel,71.42857143,1,2,14,,,,,,,,6,12,,,,,,,,,,,3,4.337,0,,,,,,0.15,-0.255,1,0,0,4.337,Diorite_rect,13,0,13,0,1,
66771c55c52537f3ee41e51c,TCN,2024-06-25_09h41.55.796,LearnStrategy,2023.2.3,MacIntel,71.42857143,1,2,15,,,,,,,,4,11,,,,,,,,,,,2,3.28,0,,,,,,-0.11,-0.26875,1,0,0,3.28,Basalt_rect,14,0,14,0,1,
66771c55c52537f3ee41e51c,TCN,2024-06-25_09h41.55.796,LearnStrategy,2023.2.3,MacIntel,71.42857143,1,2,16,,,,,,,,1,09,,,,,,,,,,,2,2.382,0,,,,,,-0.105,-0.25625,1,0,0,2.382,Basalt_rect,15,0,15,0,1,
66771c55c52537f3ee41e51c,TCN,2024-06-25_09h41.55.796,LearnStrategy,2023.2.3,MacIntel,71.42857143,2,1,1,0.005,-0.00125,1,0,0,2.176,rock_grid_rect_2,4,10,-1,-1,2.176,0.42375,-0.235,1,0,0,6.441,Gabbro_rect,4,6.441,1,0,0,0,0,1,,,,,,,,,,,,,
66771c55c52537f3ee41e51c,TCN,2024-06-25_09h41.55.796,LearnStrategy,2023.2.3,MacIntel,71.42857143,2,1,2,0.00125,-0.0225,1,0,0,1.17,rock_grid_rect_2,6,13,-1,-1,1.17,0.08875,-0.4075,1,0,0,6.349,Peridotite_rect,7,6.349,0,1,0,1,0,1,,,,,,,,,,,,,
66771c55c52537f3ee41e51c,TCN,2024-06-25_09h41.55.796,LearnStrategy,2023.2.3,MacIntel,71.42857143,2,1,3,0.025,-0.02375,1,0,0,1.464,rock_grid_rect_2,2,14,-1,-1,1.464,0.43125,-0.41,1,0,0,4.97,Pumice_rect,8,4.97,0,2,0,2,0,1,,,,,,,,,,,,,
66771c55c52537f3ee41e51c,TCN,2024-06-25_09h41.55.796,LearnStrategy,2023.2.3,MacIntel,71.42857143,2,1,4,0.01125,-0.01,1,0,0,1.751,rock_grid_rect_2,8,14,-1,-1,1.751,0.4175,-0.40375,1,0,0,6.29,Pumice_rect,8,6.29,1,3,0,3,0,1,,,,,,,,,,,,,
66771c55c52537f3ee41e51c,TCN,2024-06-25_09h41.55.796,LearnStrategy,2023.2.3,MacIntel,71.42857143,2,1,5,-0.00375,0,1,0,0,4.908,rock_grid_rect_2,3,09,-1,-1,4.908,0.1325,-0.24625,1,0,0,4.302,Diorite_rect,3,4.302,1,4,0,4,0,1,,,,,,,,,,,,,
66771c55c52537f3ee41e51c,TCN,2024-06-25_09h41.55.796,LearnStrategy,2023.2.3,MacIntel,71.42857143,2,1,6,0.00625,0.0025,1,0,0,3.543,rock_grid_rect_2,5,09,-1,-1,3.543,-0.38125,-0.40875,1,0,0,4.479,Obsidian_rect,5,4.479,1,5,0,5,0,1,,,,,,,,,,,,,
66771c55c52537f3ee41e51c,TCN,2024-06-25_09h41.55.796,LearnStrategy,2023.2.3,MacIntel,71.42857143,2,1,7,-0.03375,0.005,1,0,0,1.703,rock_grid_rect_2,8,06,-1,-1,1.703,0.4075,-0.39875,1,0,0,3.169,Pumice_rect,8,3.169,1,6,0,6,0,1,,,,,,,,,,,,,
66771c55c52537f3ee41e51c,TCN,2024-06-25_09h41.55.796,LearnStrategy,2023.2.3,MacIntel,71.42857143,2,1,8,-0.00125,0.00125,1,0,0,1.605,rock_grid_rect_2,1,07,-1,-1,1.605,0.13125,-0.24625,1,0,0,1.824,Diorite_rect,3,1.824,0,7,0,7,0,1,,,,,,,,,,,,,
66771c55c52537f3ee41e51c,TCN,2024-06-25_09h41.55.796,LearnStrategy,2023.2.3,MacIntel,71.42857143,2,1,9,-0.02,0.00125,1,0,0,1.363,rock_grid_rect_2,4,12,-1,-1,1.363,-0.1125,-0.27,1,0,0,3.935,Basalt_rect,2,3.935,0,8,0,8,0,1,,,,,,,,,,,,,
66771c55c52537f3ee41e51c,TCN,2024-06-25_09h41.55.796,LearnStrategy,2023.2.3,MacIntel,71.42857143,2,1,10,-0.02125,0.00875,1,0,0,1.22,rock_grid_rect_2,1,01,-1,-1,1.22,0.1575,-0.40875,1,0,0,6.02,Peridotite_rect,7,6.02,0,9,0,9,0,1,,,,,,,,,,,,,
66771c55c52537f3ee41e51c,TCN,2024-06-25_09h41.55.796,LearnStrategy,2023.2.3,MacIntel,71.42857143,2,1,11,-0.005,0.00125,1,0,0,1.234,rock_grid_rect_2,3,08,-1,-1,1.234,0.145,-0.27,1,0,0,2.378,Diorite_rect,3,2.378,1,10,0,10,0,1,,,,,,,,,,,,,
66771c55c52537f3ee41e51c,TCN,2024-06-25_09h41.55.796,LearnStrategy,2023.2.3,MacIntel,71.42857143,2,1,12,-0.005,-0.0025,1,0,0,1.487,rock_grid_rect_2,2,09,-1,-1,1.487,-0.11,-0.2475,1,0,0,1.95,Basalt_rect,2,1.95,1,11,0,11,0,1,,,,,,,,,,,,,
66771c55c52537f3ee41e51c,TCN,2024-06-25_09h41.55.796,LearnStrategy,2023.2.3,MacIntel,71.42857143,2,1,13,-0.00625,-0.00125,1,0,0,1.116,rock_grid_rect_2,5,14,-1,-1,1.116,-0.37375,-0.38,1,0,0,1.318,Obsidian_rect,5,1.318,1,12,0,12,0,1,,,,,,,,,,,,,
66771c55c52537f3ee41e51c,TCN,2024-06-25_09h41.55.796,LearnStrategy,2023.2.3,MacIntel,71.42857143,2,1,14,0.00125,0.0025,1,0,0,1.071,rock_grid_rect_2,7,13,-1,-1,1.071,-0.10625,-0.25375,1,0,0,7.487,Basalt_rect,2,7.487,0,13,0,13,0,1,,,,,,,,,,,,,
66771c55c52537f3ee41e51c,TCN,2024-06-25_09h41.55.796,LearnStrategy,2023.2.3,MacIntel,71.42857143,2,1,15,-0.015,0.00875,1,0,0,1.237,rock_grid_rect_2,6,16,-1,-1,1.237,-0.06125,-0.385,1,0,0,9.671,Pegmatite_rect,6,9.671,1,14,0,14,0,1,,,,,,,,,,,,,
66771c55c52537f3ee41e51c,TCN,2024-06-25_09h41.55.796,LearnStrategy,2023.2.3,MacIntel,71.42857143,2,1,16,-0.02875,-0.01875,1,0,0,1.125,rock_grid_rect_2,7,04,-1,-1,1.125,-0.34625,-0.245,1,0,0,5.922,Andesite_rect,1,5.922,0,15,0,15,0,1,,,,,,,,,,,,,
66771c55c52537f3ee41e51c,TCN,2024-06-25_09h41.55.796,LearnStrategy,2023.2.3,MacIntel,71.42857143,2,2,1,,,,,,,,5,07,,,,,,,,,,,5,4.384,1,,,,,,-0.41375,-0.41,1,0,0,4.384,Obsidian_rect,0,0,0,0,1,
66771c55c52537f3ee41e51c,TCN,2024-06-25_09h41.55.796,LearnStrategy,2023.2.3,MacIntel,71.42857143,2,2,2,,,,,,,,6,09,,,,,,,,,,,6,4.693,1,,,,,,-0.17375,-0.38875,1,0,0,4.693,Pegmatite_rect,1,0,1,0,1,
66771c55c52537f3ee41e51c,TCN,2024-06-25_09h41.55.796,LearnStrategy,2023.2.3,MacIntel,71.42857143,2,2,3,,,,,,,,7,07,,,,,,,,,,,1,7.456,0,,,,,,-0.38125,-0.26875,1,0,0,7.456,Andesite_rect,2,0,2,0,1,
66771c55c52537f3ee41e51c,TCN,2024-06-25_09h41.55.796,LearnStrategy,2023.2.3,MacIntel,71.42857143,2,2,4,,,,,,,,1,14,,,,,,,,,,,3,5.438,0,,,,,,0.13875,-0.25125,1,0,0,5.438,Diorite_rect,3,0,3,0,1,
66771c55c52537f3ee41e51c,TCN,2024-06-25_09h41.55.796,LearnStrategy,2023.2.3,MacIntel,71.42857143,2,2,5,,,,,,,,6,05,,,,,,,,,,,6,2.748,1,,,,,,-0.11875,-0.42,1,0,0,2.748,Pegmatite_rect,4,0,4,0,1,
66771c55c52537f3ee41e51c,TCN,2024-06-25_09h41.55.796,LearnStrategy,2023.2.3,MacIntel,71.42857143,2,2,6,,,,,,,,8,16,,,,,,,,,,,8,1.922,1,,,,,,0.42625,-0.4075,1,0,0,1.922,Pumice_rect,5,0,5,0,1,
66771c55c52537f3ee41e51c,TCN,2024-06-25_09h41.55.796,LearnStrategy,2023.2.3,MacIntel,71.42857143,2,2,7,,,,,,,,3,06,,,,,,,,,,,3,11.527,1,,,,,,0.17625,-0.26875,1,0,0,11.527,Diorite_rect,6,0,6,0,1,
66771c55c52537f3ee41e51c,TCN,2024-06-25_09h41.55.796,LearnStrategy,2023.2.3,MacIntel,71.42857143,2,2,8,,,,,,,,2,11,,,,,,,,,,,2,8.818,1,,,,,,-0.08375,-0.25125,1,0,0,8.818,Basalt_rect,7,0,7,0,1,
66771c55c52537f3ee41e51c,TCN,2024-06-25_09h41.55.796,LearnStrategy,2023.2.3,MacIntel,71.42857143,2,2,9,,,,,,,,2,04,,,,,,,,,,,2,2.002,1,,,,,,-0.13,-0.26125,1,0,0,2.002,Basalt_rect,8,0,8,0,1,
66771c55c52537f3ee41e51c,TCN,2024-06-25_09h41.55.796,LearnStrategy,2023.2.3,MacIntel,71.42857143,2,2,10,,,,,,,,1,04,,,,,,,,,,,1,3.455,1,,,,,,-0.36125,-0.25,1,0,0,3.455,Andesite_rect,9,0,9,0,1,
66771c55c52537f3ee41e51c,TCN,2024-06-25_09h41.55.796,LearnStrategy,2023.2.3,MacIntel,71.42857143,2,2,11,,,,,,,,4,01,,,,,,,,,,,1,1.89,0,,,,,,-0.36125,-0.25,1,0,0,1.89,Andesite_rect,10,0,10,0,1,
66771c55c52537f3ee41e51c,TCN,2024-06-25_09h41.55.796,LearnStrategy,2023.2.3,MacIntel,71.42857143,2,2,12,,,,,,,,5,06,,,,,,,,,,,5,4.591,1,,,,,,-0.36625,-0.40125,1,0,0,4.591,Obsidian_rect,11,0,11,0,1,
66771c55c52537f3ee41e51c,TCN,2024-06-25_09h41.55.796,LearnStrategy,2023.2.3,MacIntel,71.42857143,2,2,13,,,,,,,,4,08,,,,,,,,,,,4,28.173,1,,,,,,0.42,-0.2575,1,0,0,28.173,Gabbro_rect,12,0,12,0,1,
66771c55c52537f3ee41e51c,TCN,2024-06-25_09h41.55.796,LearnStrategy,2023.2.3,MacIntel,71.42857143,2,2,14,,,,,,,,7,15,,,,,,,,,,,7,4.614,1,,,,,,0.12875,-0.40375,1,0,0,4.614,Peridotite_rect,13,0,13,0,1,
66771c55c52537f3ee41e51c,TCN,2024-06-25_09h41.55.796,LearnStrategy,2023.2.3,MacIntel,71.42857143,2,2,15,,,,,,,,3,13,,,,,,,,,,,3,2.122,1,,,,,,0.11875,-0.2325,1,0,0,2.122,Diorite_rect,14,0,14,0,1,
66771c55c52537f3ee41e51c,TCN,2024-06-25_09h41.55.796,LearnStrategy,2023.2.3,MacIntel,71.42857143,2,2,16,,,,,,,,8,09,,,,,,,,,,,8,1.429,1,,,,,,0.43125,-0.4075,1,0,0,1.429,Pumice_rect,15,0,15,0,1,
66771c55c52537f3ee41e51c,TCN,2024-06-25_09h41.55.796,LearnStrategy,2023.2.3,MacIntel,71.42857143,3,1,1,0.01875,0.005,1,0,0,1.723,rock_grid_rect_2,4,16,-1,-1,1.723,0.42,-0.2375,1,0,0,2.762,Gabbro_rect,4,2.762,1,0,0,0,0,1,,,,,,,,,,,,,
66771c55c52537f3ee41e51c,TCN,2024-06-25_09h41.55.796,LearnStrategy,2023.2.3,MacIntel,71.42857143,3,1,2,0.01375,-0.0075,1,0,0,1.185,rock_grid_rect_2,2,08,-1,-1,1.185,-0.10125,-0.25375,1,0,0,5.165,Basalt_rect,2,5.165,1,1,0,1,0,1,,,,,,,,,,,,,
66771c55c52537f3ee41e51c,TCN,2024-06-25_09h41.55.796,LearnStrategy,2023.2.3,MacIntel,71.42857143,3,1,3,0.0075,-0.00875,1,0,0,1.133,rock_grid_rect_2,3,12,-1,-1,1.133,0.13875,-0.23875,1,0,0,1.395,Diorite_rect,3,1.395,1,2,0,2,0,1,,,,,,,,,,,,,
66771c55c52537f3ee41e51c,TCN,2024-06-25_09h41.55.796,LearnStrategy,2023.2.3,MacIntel,71.42857143,3,1,4,0.00875,0.00125,1,0,0,1.171,rock_grid_rect_2,1,10,-1,-1,1.171,-0.35625,-0.24375,1,0,0,5.693,Andesite_rect,1,5.693,1,3,0,3,0,1,,,,,,,,,,,,,
66771c55c52537f3ee41e51c,TCN,2024-06-25_09h41.55.796,LearnStrategy,2023.2.3,MacIntel,71.42857143,3,1,5,0.01125,-0.005,1,0,0,0.973,rock_grid_rect_2,7,08,-1,-1,0.973,0.12625,-0.3975,1,0,0,2.906,Peridotite_rect,7,2.906,1,4,0,4,0,1,,,,,,,,,,,,,
66771c55c52537f3ee41e51c,TCN,2024-06-25_09h41.55.796,LearnStrategy,2023.2.3,MacIntel,71.42857143,3,1,6,-0.005,0.0075,1,0,0,1.255,rock_grid_rect_2,8,08,-1,-1,1.255,0.3775,-0.39375,1,0,0,1.747,Pumice_rect,8,1.747,1,5,0,5,0,1,,,,,,,,,,,,,
66771c55c52537f3ee41e51c,TCN,2024-06-25_09h41.55.796,LearnStrategy,2023.2.3,MacIntel,71.42857143,3,1,7,0.05875,0.00375,1,0,0,0.724,rock_grid_rect_2,6,10,-1,-1,0.724,0.16125,-0.3925,1,0,0,1.109,Peridotite_rect,7,1.109,0,6,0,6,0,1,,,,,,,,,,,,,
66771c55c52537f3ee41e51c,TCN,2024-06-25_09h41.55.796,LearnStrategy,2023.2.3,MacIntel,71.42857143,3,1,8,0.005,-0.0025,1,0,0,1.29,rock_grid_rect_2,1,11,-1,-1,1.29,-0.3425,-0.24875,1,0,0,6.3,Andesite_rect,1,6.3,1,7,0,7,0,1,,,,,,,,,,,,,
66771c55c52537f3ee41e51c,TCN,2024-06-25_09h41.55.796,LearnStrategy,2023.2.3,MacIntel,71.42857143,3,1,9,0.07875,-0.02375,1,0,0,0.938,rock_grid_rect_2,5,12,-1,-1,0.938,-0.38125,-0.38875,1,0,0,1.277,Obsidian_rect,5,1.277,1,8,0,8,0,1,,,,,,,,,,,,,
66771c55c52537f3ee41e51c,TCN,2024-06-25_09h41.55.796,LearnStrategy,2023.2.3,MacIntel,71.42857143,3,1,10,0.01125,0.0125,1,0,0,1.32,rock_grid_rect_2,4,13,-1,-1,1.32,-0.35375,-0.25125,1,0,0,6.563,Andesite_rect,1,6.563,0,9,0,9,0,1,,,,,,,,,,,,,
66771c55c52537f3ee41e51c,TCN,2024-06-25_09h41.55.796,LearnStrategy,2023.2.3,MacIntel,71.42857143,3,1,11,0.00875,-0.01375,1,0,0,1.572,rock_grid_rect_2,7,10,-1,-1,1.572,0.15125,-0.39625,1,0,0,1.706,Peridotite_rect,7,1.706,1,10,0,10,0,1,,,,,,,,,,,,,
66771c55c52537f3ee41e51c,TCN,2024-06-25_09h41.55.796,LearnStrategy,2023.2.3,MacIntel,71.42857143,3,1,12,0.025,-0.02125,1,0,0,0.987,rock_grid_rect_2,5,04,-1,-1,0.987,-0.34,-0.39625,1,0,0,1.268,Obsidian_rect,5,1.268,1,11,0,11,0,1,,,,,,,,,,,,,
66771c55c52537f3ee41e51c,TCN,2024-06-25_09h41.55.796,LearnStrategy,2023.2.3,MacIntel,71.42857143,3,1,13,0.01,-0.01125,1,0,0,1.026,rock_grid_rect_2,3,14,-1,-1,1.026,0.13375,-0.2375,1,0,0,1.393,Diorite_rect,3,1.393,1,12,0,12,0,1,,,,,,,,,,,,,
66771c55c52537f3ee41e51c,TCN,2024-06-25_09h41.55.796,LearnStrategy,2023.2.3,MacIntel,71.42857143,3,1,14,0.0075,-0.00125,1,0,0,1.337,rock_grid_rect_2,2,02,-1,-1,1.337,-0.10625,-0.2575,1,0,0,4.219,Basalt_rect,2,4.219,1,13,0,13,0,1,,,,,,,,,,,,,
66771c55c52537f3ee41e51c,TCN,2024-06-25_09h41.55.796,LearnStrategy,2023.2.3,MacIntel,71.42857143,3,1,15,0.015,-0.0075,1,0,0,1.106,rock_grid_rect_2,8,05,-1,-1,1.106,0.4325,-0.395,1,0,0,2.814,Pumice_rect,8,2.814,1,14,0,14,0,1,,,,,,,,,,,,,
66771c55c52537f3ee41e51c,TCN,2024-06-25_09h41.55.796,LearnStrategy,2023.2.3,MacIntel,71.42857143,3,1,16,0.0625,-0.02125,1,0,0,10.327,rock_grid_rect_2,6,15,-1,-1,10.327,-0.09625,-0.3925,1,0,0,2.221,Pegmatite_rect,6,2.221,1,15,0,15,0,1,,,,,,,,,,,,,
66771c55c52537f3ee41e51c,TCN,2024-06-25_09h41.55.796,LearnStrategy,2023.2.3,MacIntel,71.42857143,3,2,1,,,,,,,,1,06,,,,,,,,,,,1,4.617,1,,,,,,-0.3975,-0.23625,1,0,0,4.617,Andesite_rect,0,0,0,0,1,
66771c55c52537f3ee41e51c,TCN,2024-06-25_09h41.55.796,LearnStrategy,2023.2.3,MacIntel,71.42857143,3,2,2,,,,,,,,4,14,,,,,,,,,,,4,1.733,1,,,,,,0.44875,-0.2675,1,0,0,1.733,Gabbro_rect,1,0,1,0,1,
66771c55c52537f3ee41e51c,TCN,2024-06-25_09h41.55.796,LearnStrategy,2023.2.3,MacIntel,71.42857143,3,2,3,,,,,,,,5,11,,,,,,,,,,,5,1.274,1,,,,,,-0.36875,-0.39125,1,0,0,1.274,Obsidian_rect,2,0,2,0,1,
66771c55c52537f3ee41e51c,TCN,2024-06-25_09h41.55.796,LearnStrategy,2023.2.3,MacIntel,71.42857143,3,2,4,,,,,,,,2,01,,,,,,,,,,,2,2.765,1,,,,,,-0.11375,-0.265,1,0,0,2.765,Basalt_rect,3,0,3,0,1,
66771c55c52537f3ee41e51c,TCN,2024-06-25_09h41.55.796,LearnStrategy,2023.2.3,MacIntel,71.42857143,3,2,5,,,,,,,,3,15,,,,,,,,,,,1,3.735,0,,,,,,-0.36625,-0.23875,1,0,0,3.735,Andesite_rect,4,0,4,0,1,
66771c55c52537f3ee41e51c,TCN,2024-06-25_09h41.55.796,LearnStrategy,2023.2.3,MacIntel,71.42857143,3,2,6,,,,,,,,4,03,,,,,,,,,,,1,4.598,0,,,,,,-0.44375,-0.22875,1,0,0,4.598,Andesite_rect,5,0,5,0,1,
66771c55c52537f3ee41e51c,TCN,2024-06-25_09h41.55.796,LearnStrategy,2023.2.3,MacIntel,71.42857143,3,2,7,,,,,,,,7,06,,,,,,,,,,,7,1.757,1,,,,,,0.125,-0.40625,1,0,0,1.757,Peridotite_rect,6,0,6,0,1,
66771c55c52537f3ee41e51c,TCN,2024-06-25_09h41.55.796,LearnStrategy,2023.2.3,MacIntel,71.42857143,3,2,8,,,,,,,,5,16,,,,,,,,,,,5,1.39,1,,,,,,-0.41,-0.39625,1,0,0,1.39,Obsidian_rect,7,0,7,0,1,
66771c55c52537f3ee41e51c,TCN,2024-06-25_09h41.55.796,LearnStrategy,2023.2.3,MacIntel,71.42857143,3,2,9,,,,,,,,3,16,,,,,,,,,,,3,3.168,1,,,,,,0.1475,-0.255,1,0,0,3.168,Diorite_rect,8,0,8,0,1,
66771c55c52537f3ee41e51c,TCN,2024-06-25_09h41.55.796,LearnStrategy,2023.2.3,MacIntel,71.42857143,3,2,10,,,,,,,,8,04,,,,,,,,,,,8,1.265,1,,,,,,0.39375,-0.385,1,0,0,1.265,Pumice_rect,9,0,9,0,1,
66771c55c52537f3ee41e51c,TCN,2024-06-25_09h41.55.796,LearnStrategy,2023.2.3,MacIntel,71.42857143,3,2,11,,,,,,,,6,07,,,,,,,,,,,6,2,1,,,,,,-0.15,-0.40375,1,0,0,2,Pegmatite_rect,10,0,10,0,1,
66771c55c52537f3ee41e51c,TCN,2024-06-25_09h41.55.796,LearnStrategy,2023.2.3,MacIntel,71.42857143,3,2,12,,,,,,,,6,06,,,,,,,,,,,7,3.847,0,,,,,,0.14875,-0.41625,1,0,0,3.847,Peridotite_rect,11,0,11,0,1,
66771c55c52537f3ee41e51c,TCN,2024-06-25_09h41.55.796,LearnStrategy,2023.2.3,MacIntel,71.42857143,3,2,13,,,,,,,,1,16,,,,,,,,,,,1,1.834,1,,,,,,-0.37375,-0.25,1,0,0,1.834,Andesite_rect,12,0,12,0,1,
66771c55c52537f3ee41e51c,TCN,2024-06-25_09h41.55.796,LearnStrategy,2023.2.3,MacIntel,71.42857143,3,2,14,,,,,,,,7,02,,,,,,,,,,,6,3.319,0,,,,,,-0.10625,-0.3975,1,0,0,3.319,Pegmatite_rect,13,0,13,0,1,
66771c55c52537f3ee41e51c,TCN,2024-06-25_09h41.55.796,LearnStrategy,2023.2.3,MacIntel,71.42857143,3,2,15,,,,,,,,2,16,,,,,,,,,,,4,1.391,0,,,,,,0.45875,-0.26125,1,0,0,1.391,Gabbro_rect,14,0,14,0,1,
66771c55c52537f3ee41e51c,TCN,2024-06-25_09h41.55.796,LearnStrategy,2023.2.3,MacIntel,71.42857143,3,2,16,,,,,,,,8,13,,,,,,,,,,,8,2.833,1,,,,,,0.42,-0.4,1,0,0,2.833,Pumice_rect,15,0,15,0,1,
66771c55c52537f3ee41e51c,TCN,2024-06-25_09h41.55.796,LearnStrategy,2023.2.3,MacIntel,71.42857143,4,1,1,-0.01375,0.00125,1,0,0,1.14,rock_grid_rect_2,5,14,-1,-1,1.14,-0.4075,-0.41375,1,0,0,1.354,Obsidian_rect,5,1.354,1,0,0,0,0,1,,,,,,,,,,,,,
66771c55c52537f3ee41e51c,TCN,2024-06-25_09h41.55.796,LearnStrategy,2023.2.3,MacIntel,71.42857143,4,1,2,0.025,0.01375,1,0,0,3.405,rock_grid_rect_2,1,10,-1,-1,3.405,-0.3975,-0.23625,1,0,0,2.392,Andesite_rect,1,2.392,1,1,0,1,0,1,,,,,,,,,,,,,
66771c55c52537f3ee41e51c,TCN,2024-06-25_09h41.55.796,LearnStrategy,2023.2.3,MacIntel,71.42857143,4,1,3,0.00625,-0.0175,1,0,0,1.116,rock_grid_rect_2,1,11,-1,-1,1.116,-0.38875,-0.2475,1,0,0,1.824,Andesite_rect,1,1.824,1,2,0,2,0,1,,,,,,,,,,,,,
66771c55c52537f3ee41e51c,TCN,2024-06-25_09h41.55.796,LearnStrategy,2023.2.3,MacIntel,71.42857143,4,1,4,0.0075,0.00375,1,0,0,0.953,rock_grid_rect_2,4,16,-1,-1,0.953,0.4025,-0.23375,1,0,0,1.367,Gabbro_rect,4,1.367,1,3,0,3,0,1,,,,,,,,,,,,,
66771c55c52537f3ee41e51c,TCN,2024-06-25_09h41.55.796,LearnStrategy,2023.2.3,MacIntel,71.42857143,4,1,5,0.03,0.00625,1,0,0,0.749,rock_grid_rect_2,7,13,-1,-1,0.749,0.14125,-0.405,1,0,0,1.24,Peridotite_rect,7,1.24,1,4,0,4,0,1,,,,,,,,,,,,,
66771c55c52537f3ee41e51c,TCN,2024-06-25_09h41.55.796,LearnStrategy,2023.2.3,MacIntel,71.42857143,4,1,6,0.02375,0.00875,1,0,0,1.086,rock_grid_rect_2,6,16,-1,-1,1.086,-0.12375,-0.385,1,0,0,6.655,Pegmatite_rect,6,6.655,1,5,0,5,0,1,,,,,,,,,,,,,
66771c55c52537f3ee41e51c,TCN,2024-06-25_09h41.55.796,LearnStrategy,2023.2.3,MacIntel,71.42857143,4,1,7,0.0075,-0.01375,1,0,0,3.696,rock_grid_rect_2,2,06,-1,-1,3.696,-0.1275,-0.24875,1,0,0,3.531,Basalt_rect,2,3.531,1,6,0,6,0,1,,,,,,,,,,,,,
66771c55c52537f3ee41e51c,TCN,2024-06-25_09h41.55.796,LearnStrategy,2023.2.3,MacIntel,71.42857143,4,1,8,0.0125,-0.005,1,0,0,1.043,rock_grid_rect_2,3,12,-1,-1,1.043,0.16,-0.2425,1,0,0,1.123,Diorite_rect,3,1.123,1,7,0,7,0,1,,,,,,,,,,,,,
66771c55c52537f3ee41e51c,TCN,2024-06-25_09h41.55.796,LearnStrategy,2023.2.3,MacIntel,71.42857143,4,1,9,0.04625,-0.0125,1,0,0,0.954,rock_grid_rect_2,4,15,-1,-1,0.954,0.405,-0.2575,1,0,0,1.509,Gabbro_rect,4,1.509,1,8,0,8,0,1,,,,,,,,,,,,,
66771c55c52537f3ee41e51c,TCN,2024-06-25_09h41.55.796,LearnStrategy,2023.2.3,MacIntel,71.42857143,4,1,10,0.00125,-0.01375,1,0,0,0.856,rock_grid_rect_2,7,04,-1,-1,0.856,-0.10375,-0.415,1,0,0,2.394,Pegmatite_rect,6,2.394,0,9,0,9,0,1,,,,,,,,,,,,,
66771c55c52537f3ee41e51c,TCN,2024-06-25_09h41.55.796,LearnStrategy,2023.2.3,MacIntel,71.42857143,4,1,11,-0.02,-0.01125,1,0,0,0.899,rock_grid_rect_2,8,08,-1,-1,0.899,0.41625,-0.4075,1,0,0,1.237,Pumice_rect,8,1.237,1,10,0,10,0,1,,,,,,,,,,,,,
66771c55c52537f3ee41e51c,TCN,2024-06-25_09h41.55.796,LearnStrategy,2023.2.3,MacIntel,71.42857143,4,1,12,0.03,-0.0125,1,0,0,0.75,rock_grid_rect_2,8,02,-1,-1,0.75,0.39375,-0.38625,1,0,0,1.887,Pumice_rect,8,1.887,1,11,0,11,0,1,,,,,,,,,,,,,
66771c55c52537f3ee41e51c,TCN,2024-06-25_09h41.55.796,LearnStrategy,2023.2.3,MacIntel,71.42857143,4,1,13,0.00125,0,1,0,0,0.877,rock_grid_rect_2,2,09,-1,-1,0.877,-0.2175,-0.24,1,0,0,2.326,Basalt_rect,2,2.326,1,12,0,12,0,1,,,,,,,,,,,,,
66771c55c52537f3ee41e51c,TCN,2024-06-25_09h41.55.796,LearnStrategy,2023.2.3,MacIntel,71.42857143,4,1,14,-0.015,-0.01,1,0,0,0.755,rock_grid_rect_2,3,07,-1,-1,0.755,0.1625,-0.25375,1,0,0,3.2,Diorite_rect,3,3.2,1,13,0,13,0,1,,,,,,,,,,,,,
66771c55c52537f3ee41e51c,TCN,2024-06-25_09h41.55.796,LearnStrategy,2023.2.3,MacIntel,71.42857143,4,1,15,-0.01625,-0.015,1,0,0,0.754,rock_grid_rect_2,5,02,-1,-1,0.754,-0.37125,-0.40125,1,0,0,1.162,Obsidian_rect,5,1.162,1,14,0,14,0,1,,,,,,,,,,,,,
66771c55c52537f3ee41e51c,TCN,2024-06-25_09h41.55.796,LearnStrategy,2023.2.3,MacIntel,71.42857143,4,1,16,0.00875,-0.01,1,0,0,1.055,rock_grid_rect_2,6,15,-1,-1,1.055,-0.17,-0.38625,1,0,0,1.516,Pegmatite_rect,6,1.516,1,15,0,15,0,1,,,,,,,,,,,,,
66771c55c52537f3ee41e51c,TCN,2024-06-25_09h41.55.796,LearnStrategy,2023.2.3,MacIntel,71.42857143,4,2,1,,,,,,,,2,11,,,,,,,,,,,2,12.085,1,,,,,,-0.1425,-0.25625,1,0,0,12.085,Basalt_rect,0,0,0,0,1,
66771c55c52537f3ee41e51c,TCN,2024-06-25_09h41.55.796,LearnStrategy,2023.2.3,MacIntel,71.42857143,4,2,2,,,,,,,,7,02,,,,,,,,,,,7,1.663,1,,,,,,0.155,-0.42,1,0,0,1.663,Peridotite_rect,1,0,1,0,1,
66771c55c52537f3ee41e51c,TCN,2024-06-25_09h41.55.796,LearnStrategy,2023.2.3,MacIntel,71.42857143,4,2,3,,,,,,,,6,07,,,,,,,,,,,6,3.819,1,,,,,,-0.08375,-0.3975,1,0,0,3.819,Pegmatite_rect,2,0,2,0,1,
66771c55c52537f3ee41e51c,TCN,2024-06-25_09h41.55.796,LearnStrategy,2023.2.3,MacIntel,71.42857143,4,2,4,,,,,,,,2,05,,,,,,,,,,,2,3.062,1,,,,,,-0.12875,-0.2525,1,0,0,3.062,Basalt_rect,3,0,3,0,1,
66771c55c52537f3ee41e51c,TCN,2024-06-25_09h41.55.796,LearnStrategy,2023.2.3,MacIntel,71.42857143,4,2,5,,,,,,,,1,14,,,,,,,,,,,1,4.218,1,,,,,,-0.3875,-0.25,1,0,0,4.218,Andesite_rect,4,0,4,0,1,
66771c55c52537f3ee41e51c,TCN,2024-06-25_09h41.55.796,LearnStrategy,2023.2.3,MacIntel,71.42857143,4,2,6,,,,,,,,7,15,,,,,,,,,,,7,1.441,1,,,,,,0.175,-0.3975,1,0,0,1.441,Peridotite_rect,5,0,5,0,1,
66771c55c52537f3ee41e51c,TCN,2024-06-25_09h41.55.796,LearnStrategy,2023.2.3,MacIntel,71.42857143,4,2,7,,,,,,,,4,08,,,,,,,,,,,2,3.905,0,,,,,,-0.1225,-0.26125,1,0,0,3.905,Basalt_rect,6,0,6,0,1,
66771c55c52537f3ee41e51c,TCN,2024-06-25_09h41.55.796,LearnStrategy,2023.2.3,MacIntel,71.42857143,4,2,8,,,,,,,,8,15,,,,,,,,,,,8,1.377,1,,,,,,0.4225,-0.41375,1,0,0,1.377,Pumice_rect,7,0,7,0,1,
66771c55c52537f3ee41e51c,TCN,2024-06-25_09h41.55.796,LearnStrategy,2023.2.3,MacIntel,71.42857143,4,2,9,,,,,,,,5,08,,,,,,,,,,,5,2.508,1,,,,,,-0.41875,-0.40875,1,0,0,2.508,Obsidian_rect,8,0,8,0,1,
66771c55c52537f3ee41e51c,TCN,2024-06-25_09h41.55.796,LearnStrategy,2023.2.3,MacIntel,71.42857143,4,2,10,,,,,,,,5,07,,,,,,,,,,,5,1.928,1,,,,,,-0.37875,-0.3925,1,0,0,1.928,Obsidian_rect,9,0,9,0,1,
66771c55c52537f3ee41e51c,TCN,2024-06-25_09h41.55.796,LearnStrategy,2023.2.3,MacIntel,71.42857143,4,2,11,,,,,,,,4,01,,,,,,,,,,,1,4.979,0,,,,,,-0.39,-0.25375,1,0,0,4.979,Andesite_rect,10,0,10,0,1,
66771c55c52537f3ee41e51c,TCN,2024-06-25_09h41.55.796,LearnStrategy,2023.2.3,MacIntel,71.42857143,4,2,12,,,,,,,,6,08,,,,,,,,,,,6,3.15,1,,,,,,-0.1,-0.405,1,0,0,3.15,Pegmatite_rect,11,0,11,0,1,
66771c55c52537f3ee41e51c,TCN,2024-06-25_09h41.55.796,LearnStrategy,2023.2.3,MacIntel,71.42857143,4,2,13,,,,,,,,3,06,,,,,,,,,,,1,3.565,0,,,,,,-0.38625,-0.26125,1,0,0,3.565,Andesite_rect,12,0,12,0,1,
66771c55c52537f3ee41e51c,TCN,2024-06-25_09h41.55.796,LearnStrategy,2023.2.3,MacIntel,71.42857143,4,2,14,,,,,,,,1,09,,,,,,,,,,,2,1.132,0,,,,,,-0.1475,-0.2625,1,0,0,1.132,Basalt_rect,13,0,13,0,1,
66771c55c52537f3ee41e51c,TCN,2024-06-25_09h41.55.796,LearnStrategy,2023.2.3,MacIntel,71.42857143,4,2,15,,,,,,,,3,10,,,,,,,,,,,3,1.732,1,,,,,,0.085,-0.2675,1,0,0,1.732,Diorite_rect,14,0,14,0,1,
66771c55c52537f3ee41e51c,TCN,2024-06-25_09h41.55.796,LearnStrategy,2023.2.3,MacIntel,71.42857143,4,2,16,,,,,,,,8,13,,,,,,,,,,,8,1.308,1,,,,,,0.43,-0.405,1,0,0,1.308,Pumice_rect,15,0,15,0,1,
66771c55c52537f3ee41e51c,TCN,2024-06-25_09h41.55.796,LearnStrategy,2023.2.3,MacIntel,71.42857143,5,1,1,-0.02625,-0.02125,1,0,0,1.289,rock_grid_rect_2,5,04,-1,-1,1.289,-0.3675,-0.4,1,0,0,3.403,Obsidian_rect,5,3.403,1,0,0,0,0,1,,,,,,,,,,,,,
66771c55c52537f3ee41e51c,TCN,2024-06-25_09h41.55.796,LearnStrategy,2023.2.3,MacIntel,71.42857143,5,1,2,-0.02375,-0.01,1,0,0,0.976,rock_grid_rect_2,7,05,-1,-1,0.976,0.17125,-0.4,1,0,0,3.383,Peridotite_rect,7,3.383,1,1,0,1,0,1,,,,,,,,,,,,,
66771c55c52537f3ee41e51c,TCN,2024-06-25_09h41.55.796,LearnStrategy,2023.2.3,MacIntel,71.42857143,5,1,3,0.01,-0.00375,1,0,0,0.929,rock_grid_rect_2,1,05,-1,-1,0.929,-0.3575,-0.24625,1,0,0,2.988,Andesite_rect,1,2.988,1,2,0,2,0,1,,,,,,,,,,,,,
66771c55c52537f3ee41e51c,TCN,2024-06-25_09h41.55.796,LearnStrategy,2023.2.3,MacIntel,71.42857143,5,1,4,0.025,-0.01125,1,0,0,0.903,rock_grid_rect_2,6,10,-1,-1,0.903,0.1375,-0.40375,1,0,0,1.359,Peridotite_rect,7,1.359,0,3,0,3,0,1,,,,,,,,,,,,,
66771c55c52537f3ee41e51c,TCN,2024-06-25_09h41.55.796,LearnStrategy,2023.2.3,MacIntel,71.42857143,5,1,5,0.02125,-0.01125,1,0,0,1.004,rock_grid_rect_2,8,14,-1,-1,1.004,0.3775,-0.415,1,0,0,1.183,Pumice_rect,8,1.183,1,4,0,4,0,1,,,,,,,,,,,,,
66771c55c52537f3ee41e51c,TCN,2024-06-25_09h41.55.796,LearnStrategy,2023.2.3,MacIntel,71.42857143,5,1,6,0.045,-0.005,1,0,0,0.736,rock_grid_rect_2,2,02,-1,-1,0.736,-0.3525,-0.24125,1,0,0,1.424,Andesite_rect,1,1.424,0,5,0,5,0,1,,,,,,,,,,,,,
66771c55c52537f3ee41e51c,TCN,2024-06-25_09h41.55.796,LearnStrategy,2023.2.3,MacIntel,71.42857143,5,1,7,0.00875,-0.00875,1,0,0,0.887,rock_grid_rect_2,1,01,-1,-1,0.887,0.10375,-0.2525,1,0,0,3.71,Diorite_rect,3,3.71,0,6,0,6,0,1,,,,,,,,,,,,,
66771c55c52537f3ee41e51c,TCN,2024-06-25_09h41.55.796,LearnStrategy,2023.2.3,MacIntel,71.42857143,5,1,8,0.03,-0.01875,1,0,0,0.729,rock_grid_rect_2,6,11,-1,-1,0.729,-0.07375,-0.40875,1,0,0,2.024,Pegmatite_rect,6,2.024,1,7,0,7,0,1,,,,,,,,,,,,,
66771c55c52537f3ee41e51c,TCN,2024-06-25_09h41.55.796,LearnStrategy,2023.2.3,MacIntel,71.42857143,5,1,9,0.02,0.00625,1,0,0,0.735,rock_grid_rect_2,2,12,-1,-1,0.735,0.36125,-0.42125,1,0,0,3.134,Pumice_rect,8,3.134,0,8,0,8,0,1,,,,,,,,,,,,,
66771c55c52537f3ee41e51c,TCN,2024-06-25_09h41.55.796,LearnStrategy,2023.2.3,MacIntel,71.42857143,5,1,10,0.0025,-0.00125,1,0,0,1.476,rock_grid_rect_2,5,10,-1,-1,1.476,-0.3675,-0.39,1,0,0,1.414,Obsidian_rect,5,1.414,1,9,0,9,0,1,,,,,,,,,,,,,
66771c55c52537f3ee41e51c,TCN,2024-06-25_09h41.55.796,LearnStrategy,2023.2.3,MacIntel,71.42857143,5,1,11,-0.01375,-0.01125,1,0,0,1.059,rock_grid_rect_2,8,06,-1,-1,1.059,0.45,-0.42,1,0,0,2.579,Pumice_rect,8,2.579,1,10,0,10,0,1,,,,,,,,,,,,,
66771c55c52537f3ee41e51c,TCN,2024-06-25_09h41.55.796,LearnStrategy,2023.2.3,MacIntel,71.42857143,5,1,12,0.00625,-0.00875,1,0,0,0.787,rock_grid_rect_2,3,14,-1,-1,0.787,0.16,-0.25,1,0,0,1.348,Diorite_rect,3,1.348,1,11,0,11,0,1,,,,,,,,,,,,,
66771c55c52537f3ee41e51c,TCN,2024-06-25_09h41.55.796,LearnStrategy,2023.2.3,MacIntel,71.42857143,5,1,13,0.01125,-0.01875,1,0,0,1.055,rock_grid_rect_2,7,14,-1,-1,1.055,0.12125,-0.25125,1,0,0,2.076,Diorite_rect,3,2.076,0,12,0,12,0,1,,,,,,,,,,,,,
66771c55c52537f3ee41e51c,TCN,2024-06-25_09h41.55.796,LearnStrategy,2023.2.3,MacIntel,71.42857143,5,1,14,0.01375,-0.005,1,0,0,0.923,rock_grid_rect_2,3,08,-1,-1,0.923,0.11,-0.25875,1,0,0,1.566,Diorite_rect,3,1.566,1,13,0,13,0,1,,,,,,,,,,,,,
66771c55c52537f3ee41e51c,TCN,2024-06-25_09h41.55.796,LearnStrategy,2023.2.3,MacIntel,71.42857143,5,1,15,0.02875,-0.005,1,0,0,0.973,rock_grid_rect_2,4,12,-1,-1,0.973,-0.11,-0.2325,1,0,0,1.34,Basalt_rect,2,1.34,0,14,0,14,0,1,,,,,,,,,,,,,
66771c55c52537f3ee41e51c,TCN,2024-06-25_09h41.55.796,LearnStrategy,2023.2.3,MacIntel,71.42857143,5,1,16,-0.0175,-0.00875,1,0,0,1.609,rock_grid_rect_2,4,09,-1,-1,1.609,-0.11,-0.25125,1,0,0,3.021,Basalt_rect,2,3.021,0,15,0,15,0,1,,,,,,,,,,,,,
66771c55c52537f3ee41e51c,TCN,2024-06-25_09h41.55.796,LearnStrategy,2023.2.3,MacIntel,71.42857143,5,2,1,,,,,,,,1,02,,,,,,,,,,,2,3.407,0,,,,,,-0.0975,-0.255,1,0,0,3.407,Basalt_rect,0,0,0,0,1,
66771c55c52537f3ee41e51c,TCN,2024-06-25_09h41.55.796,LearnStrategy,2023.2.3,MacIntel,71.42857143,5,2,2,,,,,,,,7,12,,,,,,,,,,,7,3.973,1,,,,,,0.14125,-0.405,1,0,0,3.973,Peridotite_rect,1,0,1,0,1,
66771c55c52537f3ee41e51c,TCN,2024-06-25_09h41.55.796,LearnStrategy,2023.2.3,MacIntel,71.42857143,5,2,3,,,,,,,,4,05,,,,,,,,,,,4,13.271,1,,,,,,0.38125,-0.26875,1,0,0,13.271,Gabbro_rect,2,0,2,0,1,
66771c55c52537f3ee41e51c,TCN,2024-06-25_09h41.55.796,LearnStrategy,2023.2.3,MacIntel,71.42857143,5,2,4,,,,,,,,1,06,,,,,,,,,,,2,2.618,0,,,,,,-0.0925,-0.24875,1,0,0,2.618,Basalt_rect,3,0,3,0,1,
66771c55c52537f3ee41e51c,TCN,2024-06-25_09h41.55.796,LearnStrategy,2023.2.3,MacIntel,71.42857143,5,2,5,,,,,,,,8,16,,,,,,,,,,,8,1.302,1,,,,,,0.3975,-0.41,1,0,0,1.302,Pumice_rect,4,0,4,0,1,
66771c55c52537f3ee41e51c,TCN,2024-06-25_09h41.55.796,LearnStrategy,2023.2.3,MacIntel,71.42857143,5,2,6,,,,,,,,3,13,,,,,,,,,,,3,1.272,1,,,,,,0.16125,-0.25625,1,0,0,1.272,Diorite_rect,5,0,5,0,1,
66771c55c52537f3ee41e51c,TCN,2024-06-25_09h41.55.796,LearnStrategy,2023.2.3,MacIntel,71.42857143,5,2,7,,,,,,,,3,11,,,,,,,,,,,3,1.158,1,,,,,,0.16125,-0.25625,1,0,0,1.158,Diorite_rect,6,0,6,0,1,
66771c55c52537f3ee41e51c,TCN,2024-06-25_09h41.55.796,LearnStrategy,2023.2.3,MacIntel,71.42857143,5,2,8,,,,,,,,2,16,,,,,,,,,,,4,2.139,0,,,,,,0.4125,-0.25375,1,0,0,2.139,Gabbro_rect,7,0,7,0,1,
66771c55c52537f3ee41e51c,TCN,2024-06-25_09h41.55.796,LearnStrategy,2023.2.3,MacIntel,71.42857143,5,2,9,,,,,,,,6,06,,,,,,,,,,,7,4.452,0,,,,,,0.1325,-0.38,1,0,0,4.452,Peridotite_rect,8,0,8,0,1,
66771c55c52537f3ee41e51c,TCN,2024-06-25_09h41.55.796,LearnStrategy,2023.2.3,MacIntel,71.42857143,5,2,10,,,,,,,,2,10,,,,,,,,,,,4,4.205,0,,,,,,0.4175,-0.25875,1,0,0,4.205,Gabbro_rect,9,0,9,0,1,
66771c55c52537f3ee41e51c,TCN,2024-06-25_09h41.55.796,LearnStrategy,2023.2.3,MacIntel,71.42857143,5,2,11,,,,,,,,4,03,,,,,,,,,,,1,4.433,0,,,,,,-0.32,-0.265,1,0,0,4.433,Andesite_rect,10,0,10,0,1,
66771c55c52537f3ee41e51c,TCN,2024-06-25_09h41.55.796,LearnStrategy,2023.2.3,MacIntel,71.42857143,5,2,12,,,,,,,,6,12,,,,,,,,,,,1,4.905,0,,,,,,-0.32,-0.265,1,0,0,4.905,Andesite_rect,11,0,11,0,1,
66771c55c52537f3ee41e51c,TCN,2024-06-25_09h41.55.796,LearnStrategy,2023.2.3,MacIntel,71.42857143,5,2,13,,,,,,,,5,05,,,,,,,,,,,5,2.541,1,,,,,,-0.3925,-0.39875,1,0,0,2.541,Obsidian_rect,12,0,12,0,1,
66771c55c52537f3ee41e51c,TCN,2024-06-25_09h41.55.796,LearnStrategy,2023.2.3,MacIntel,71.42857143,5,2,14,,,,,,,,8,04,,,,,,,,,,,8,1.495,1,,,,,,0.4075,-0.385,1,0,0,1.495,Pumice_rect,13,0,13,0,1,
66771c55c52537f3ee41e51c,TCN,2024-06-25_09h41.55.796,LearnStrategy,2023.2.3,MacIntel,71.42857143,5,2,15,,,,,,,,7,16,,,,,,,,,,,7,2.758,1,,,,,,0.14125,-0.4025,1,0,0,2.758,Peridotite_rect,14,0,14,0,1,
66771c55c52537f3ee41e51c,TCN,2024-06-25_09h41.55.796,LearnStrategy,2023.2.3,MacIntel,71.42857143,5,2,16,,,,,,,,5,06,,,,,,,,,,,5,1.372,1,,,,,,-0.36125,-0.38875,1,0,0,1.372,Obsidian_rect,15,0,15,0,1,
66771c55c52537f3ee41e51c,TCN,2024-06-25_09h41.55.796,LearnStrategy,2023.2.3,MacIntel,71.42857143,6,1,1,-0.00625,0.00625,1,0,0,1.139,rock_grid_rect_2,6,13,-1,-1,1.139,-0.105,-0.3975,1,0,0,9.388,Pegmatite_rect,6,9.388,1,0,0,0,0,1,,,,,,,,,,,,,
66771c55c52537f3ee41e51c,TCN,2024-06-25_09h41.55.796,LearnStrategy,2023.2.3,MacIntel,71.42857143,6,1,2,0.02875,-0.02375,1,0,0,1.141,rock_grid_rect_2,7,10,-1,-1,1.141,0.1425,-0.39875,1,0,0,2.124,Peridotite_rect,7,2.124,1,1,0,1,0,1,,,,,,,,,,,,,
66771c55c52537f3ee41e51c,TCN,2024-06-25_09h41.55.796,LearnStrategy,2023.2.3,MacIntel,71.42857143,6,1,3,-0.0125,0.00375,1,0,0,0.845,rock_grid_rect_2,6,03,-1,-1,0.845,-0.10125,-0.39625,1,0,0,4.495,Pegmatite_rect,6,4.495,1,2,0,2,0,1,,,,,,,,,,,,,
66771c55c52537f3ee41e51c,TCN,2024-06-25_09h41.55.796,LearnStrategy,2023.2.3,MacIntel,71.42857143,6,1,4,-0.00375,-0.005,1,0,0,0.842,rock_grid_rect_2,4,10,-1,-1,0.842,0.44125,-0.24875,1,0,0,2.14,Gabbro_rect,4,2.14,1,3,0,3,0,1,,,,,,,,,,,,,
66771c55c52537f3ee41e51c,TCN,2024-06-25_09h41.55.796,LearnStrategy,2023.2.3,MacIntel,71.42857143,6,1,5,0.01,-0.015,1,0,0,0.899,rock_grid_rect_2,5,09,-1,-1,0.899,-0.36,-0.38875,1,0,0,1.282,Obsidian_rect,5,1.282,1,4,0,4,0,1,,,,,,,,,,,,,
66771c55c52537f3ee41e51c,TCN,2024-06-25_09h41.55.796,LearnStrategy,2023.2.3,MacIntel,71.42857143,6,1,6,0.05,-0.02375,1,0,0,0.691,rock_grid_rect_2,1,03,-1,-1,0.691,-0.105,-0.235,1,0,0,1.628,Basalt_rect,2,1.628,0,5,0,5,0,1,,,,,,,,,,,,,
66771c55c52537f3ee41e51c,TCN,2024-06-25_09h41.55.796,LearnStrategy,2023.2.3,MacIntel,71.42857143,6,1,7,0.005,-0.0175,1,0,0,0.94,rock_grid_rect_2,3,09,-1,-1,0.94,0.14125,-0.255,1,0,0,1.175,Diorite_rect,3,1.175,1,6,0,6,0,1,,,,,,,,,,,,,
66771c55c52537f3ee41e51c,TCN,2024-06-25_09h41.55.796,LearnStrategy,2023.2.3,MacIntel,71.42857143,6,1,8,-0.0075,0.02,1,0,0,0.721,rock_grid_rect_2,2,08,-1,-1,0.721,-0.11625,-0.23625,1,0,0,1.206,Basalt_rect,2,1.206,1,7,0,7,0,1,,,,,,,,,,,,,
66771c55c52537f3ee41e51c,TCN,2024-06-25_09h41.55.796,LearnStrategy,2023.2.3,MacIntel,71.42857143,6,1,9,0.0025,-0.01625,1,0,0,0.971,rock_grid_rect_2,3,02,-1,-1,0.971,0.10875,-0.26375,1,0,0,1.296,Diorite_rect,3,1.296,1,8,0,8,0,1,,,,,,,,,,,,,
66771c55c52537f3ee41e51c,TCN,2024-06-25_09h41.55.796,LearnStrategy,2023.2.3,MacIntel,71.42857143,6,1,10,0.025,0.02125,1,0,0,0.657,rock_grid_rect_2,5,12,-1,-1,0.657,-0.33375,-0.395,1,0,0,1.215,Obsidian_rect,5,1.215,1,9,0,9,0,1,,,,,,,,,,,,,
66771c55c52537f3ee41e51c,TCN,2024-06-25_09h41.55.796,LearnStrategy,2023.2.3,MacIntel,71.42857143,6,1,11,0.02875,-0.005,1,0,0,0.651,rock_grid_rect_2,8,05,-1,-1,0.651,0.39625,-0.41125,1,0,0,1.323,Pumice_rect,8,1.323,1,10,0,10,0,1,,,,,,,,,,,,,
66771c55c52537f3ee41e51c,TCN,2024-06-25_09h41.55.796,LearnStrategy,2023.2.3,MacIntel,71.42857143,6,1,12,0.01375,0.01625,1,0,0,0.766,rock_grid_rect_2,7,08,-1,-1,0.766,0.1475,-0.3875,1,0,0,1.409,Peridotite_rect,7,1.409,1,11,0,11,0,1,,,,,,,,,,,,,
66771c55c52537f3ee41e51c,TCN,2024-06-25_09h41.55.796,LearnStrategy,2023.2.3,MacIntel,71.42857143,6,1,13,0.00875,0.01375,1,0,0,0.904,rock_grid_rect_2,2,14,-1,-1,0.904,0.35875,-0.40375,1,0,0,1.63,Pumice_rect,8,1.63,0,12,0,12,0,1,,,,,,,,,,,,,
66771c55c52537f3ee41e51c,TCN,2024-06-25_09h41.55.796,LearnStrategy,2023.2.3,MacIntel,71.42857143,6,1,14,-0.005,-0.015,1,0,0,1.056,rock_grid_rect_2,1,07,-1,-1,1.056,0.1375,-0.2325,1,0,0,1.759,Diorite_rect,3,1.759,0,13,0,13,0,1,,,,,,,,,,,,,
66771c55c52537f3ee41e51c,TCN,2024-06-25_09h41.55.796,LearnStrategy,2023.2.3,MacIntel,71.42857143,6,1,15,0.05,-0.0125,1,0,0,0.895,rock_grid_rect_2,8,10,-1,-1,0.895,0.38375,-0.4,1,0,0,1.103,Pumice_rect,8,1.103,1,14,0,14,0,1,,,,,,,,,,,,,
66771c55c52537f3ee41e51c,TCN,2024-06-25_09h41.55.796,LearnStrategy,2023.2.3,MacIntel,71.42857143,6,1,16,-0.04375,-0.00625,1,0,0,0.97,rock_grid_rect_2,4,13,-1,-1,0.97,0.39875,-0.25875,1,0,0,1.524,Gabbro_rect,4,1.524,1,15,0,15,0,1,,,,,,,,,,,,,
66771c55c52537f3ee41e51c,TCN,2024-06-25_09h41.55.796,LearnStrategy,2023.2.3,MacIntel,71.42857143,6,2,1,,,,,,,,3,15,,,,,,,,,,,1,5.356,0,,,,,,-0.36125,-0.25125,1,0,0,5.356,Andesite_rect,0,0,0,0,1,
66771c55c52537f3ee41e51c,TCN,2024-06-25_09h41.55.796,LearnStrategy,2023.2.3,MacIntel,71.42857143,6,2,2,,,,,,,,5,11,,,,,,,,,,,5,1.103,1,,,,,,-0.3775,-0.40875,1,0,0,1.103,Obsidian_rect,1,0,1,0,1,
66771c55c52537f3ee41e51c,TCN,2024-06-25_09h41.55.796,LearnStrategy,2023.2.3,MacIntel,71.42857143,6,2,3,,,,,,,,7,07,,,,,,,,,,,7,1.507,1,,,,,,0.055,-0.39625,1,0,0,1.507,Peridotite_rect,2,0,2,0,1,
66771c55c52537f3ee41e51c,TCN,2024-06-25_09h41.55.796,LearnStrategy,2023.2.3,MacIntel,71.42857143,6,2,4,,,,,,,,1,04,,,,,,,,,,,1,4.658,1,,,,,,-0.35,-0.24875,1,0,0,4.658,Andesite_rect,3,0,3,0,1,
66771c55c52537f3ee41e51c,TCN,2024-06-25_09h41.55.796,LearnStrategy,2023.2.3,MacIntel,71.42857143,6,2,5,,,,,,,,8,09,,,,,,,,,,,8,2.287,1,,,,,,0.43125,-0.41625,1,0,0,2.287,Pumice_rect,4,0,4,0,1,
66771c55c52537f3ee41e51c,TCN,2024-06-25_09h41.55.796,LearnStrategy,2023.2.3,MacIntel,71.42857143,6,2,6,,,,,,,,7,06,,,,,,,,,,,7,2.196,1,,,,,,0.14,-0.3825,1,0,0,2.196,Peridotite_rect,5,0,5,0,1,
66771c55c52537f3ee41e51c,TCN,2024-06-25_09h41.55.796,LearnStrategy,2023.2.3,MacIntel,71.42857143,6,2,7,,,,,,,,1,16,,,,,,,,,,,1,6.299,1,,,,,,-0.38875,-0.27,1,0,0,6.299,Andesite_rect,6,0,6,0,1,
66771c55c52537f3ee41e51c,TCN,2024-06-25_09h41.55.796,LearnStrategy,2023.2.3,MacIntel,71.42857143,6,2,8,,,,,,,,8,03,,,,,,,,,,,8,1.364,1,,,,,,0.41125,-0.4025,1,0,0,1.364,Pumice_rect,7,0,7,0,1,
66771c55c52537f3ee41e51c,TCN,2024-06-25_09h41.55.796,LearnStrategy,2023.2.3,MacIntel,71.42857143,6,2,9,,,,,,,,3,16,,,,,,,,,,,1,2.151,0,,,,,,-0.39625,-0.2675,1,0,0,2.151,Andesite_rect,8,0,8,0,1,
66771c55c52537f3ee41e51c,TCN,2024-06-25_09h41.55.796,LearnStrategy,2023.2.3,MacIntel,71.42857143,6,2,10,,,,,,,,2,04,,,,,,,,,,,4,2.32,0,,,,,,0.42,-0.245,1,0,0,2.32,Gabbro_rect,9,0,9,0,1,
66771c55c52537f3ee41e51c,TCN,2024-06-25_09h41.55.796,LearnStrategy,2023.2.3,MacIntel,71.42857143,6,2,11,,,,,,,,4,14,,,,,,,,,,,4,1.15,1,,,,,,0.435,-0.2625,1,0,0,1.15,Gabbro_rect,10,0,10,0,1,
66771c55c52537f3ee41e51c,TCN,2024-06-25_09h41.55.796,LearnStrategy,2023.2.3,MacIntel,71.42857143,6,2,12,,,,,,,,2,01,,,,,,,,,,,2,2.12,1,,,,,,-0.11,-0.26125,1,0,0,2.12,Basalt_rect,11,0,11,0,1,
66771c55c52537f3ee41e51c,TCN,2024-06-25_09h41.55.796,LearnStrategy,2023.2.3,MacIntel,71.42857143,6,2,13,,,,,,,,6,05,,,,,,,,,,,6,2.376,1,,,,,,-0.13875,-0.4075,1,0,0,2.376,Pegmatite_rect,12,0,12,0,1,
66771c55c52537f3ee41e51c,TCN,2024-06-25_09h41.55.796,LearnStrategy,2023.2.3,MacIntel,71.42857143,6,2,14,,,,,,,,6,09,,,,,,,,,,,7,3.309,0,,,,,,0.105,-0.41,1,0,0,3.309,Peridotite_rect,13,0,13,0,1,
66771c55c52537f3ee41e51c,TCN,2024-06-25_09h41.55.796,LearnStrategy,2023.2.3,MacIntel,71.42857143,6,2,15,,,,,,,,4,11,,,,,,,,,,,2,2.036,0,,,,,,-0.1,-0.2575,1,0,0,2.036,Basalt_rect,14,0,14,0,1,
66771c55c52537f3ee41e51c,TCN,2024-06-25_09h41.55.796,LearnStrategy,2023.2.3,MacIntel,71.42857143,6,2,16,,,,,,,,5,16,,,,,,,,,,,5,1.509,1,,,,,,-0.395,-0.4075,1,0,0,1.509,Obsidian_rect,15,0,15,0,1,
66771c55c52537f3ee41e51c,TCN,2024-06-25_09h41.55.796,LearnStrategy,2023.2.3,MacIntel,71.42857143,7,1,1,-0.01375,-0.00875,1,0,0,1.575,rock_grid_rect_2,6,03,-1,-1,1.575,-0.07875,-0.40875,1,0,0,3.319,Pegmatite_rect,6,3.319,1,0,0,0,0,1,,,,,,,,,,,,,
66771c55c52537f3ee41e51c,TCN,2024-06-25_09h41.55.796,LearnStrategy,2023.2.3,MacIntel,71.42857143,7,1,2,0.0025,-0.00875,1,0,0,1.046,rock_grid_rect_2,1,11,-1,-1,1.046,-0.1125,-0.23875,1,0,0,2.132,Basalt_rect,2,2.132,0,1,0,1,0,1,,,,,,,,,,,,,
66771c55c52537f3ee41e51c,TCN,2024-06-25_09h41.55.796,LearnStrategy,2023.2.3,MacIntel,71.42857143,7,1,3,0.01375,0.01625,1,0,0,0.834,rock_grid_rect_2,2,12,-1,-1,0.834,0.39125,-0.4,1,0,0,1.928,Pumice_rect,8,1.928,0,2,0,2,0,1,,,,,,,,,,,,,
66771c55c52537f3ee41e51c,TCN,2024-06-25_09h41.55.796,LearnStrategy,2023.2.3,MacIntel,71.42857143,7,1,4,0.0075,0,1,0,0,1.034,rock_grid_rect_2,1,07,-1,-1,1.034,-0.36875,-0.2575,1,0,0,2.182,Andesite_rect,1,2.182,1,3,0,3,0,1,,,,,,,,,,,,,
66771c55c52537f3ee41e51c,TCN,2024-06-25_09h41.55.796,LearnStrategy,2023.2.3,MacIntel,71.42857143,7,1,5,-0.015,0.0075,1,0,0,0.703,rock_grid_rect_2,5,14,-1,-1,0.703,-0.39125,-0.39875,1,0,0,1.367,Obsidian_rect,5,1.367,1,4,0,4,0,1,,,,,,,,,,,,,
66771c55c52537f3ee41e51c,TCN,2024-06-25_09h41.55.796,LearnStrategy,2023.2.3,MacIntel,71.42857143,7,1,6,0.0125,-0.015,1,0,0,1.118,rock_grid_rect_2,7,08,-1,-1,1.118,0.1625,-0.3925,1,0,0,1.136,Peridotite_rect,7,1.136,1,5,0,5,0,1,,,,,,,,,,,,,
66771c55c52537f3ee41e51c,TCN,2024-06-25_09h41.55.796,LearnStrategy,2023.2.3,MacIntel,71.42857143,7,1,7,0.00375,-0.00625,1,0,0,1.067,rock_grid_rect_2,8,05,-1,-1,1.067,0.4175,-0.40875,1,0,0,0.984,Pumice_rect,8,0.984,1,6,0,6,0,1,,,,,,,,,,,,,
66771c55c52537f3ee41e51c,TCN,2024-06-25_09h41.55.796,LearnStrategy,2023.2.3,MacIntel,71.42857143,7,1,8,-0.00375,0.005,1,0,0,1.342,rock_grid_rect_2,6,16,-1,-1,1.342,-0.1025,-0.4025,1,0,0,3.2,Pegmatite_rect,6,3.2,1,7,0,7,0,1,,,,,,,,,,,,,
66771c55c52537f3ee41e51c,TCN,2024-06-25_09h41.55.796,LearnStrategy,2023.2.3,MacIntel,71.42857143,7,1,9,0.035,-0.02,1,0,0,0.756,rock_grid_rect_2,8,06,-1,-1,0.756,0.4375,-0.39,1,0,0,0.985,Pumice_rect,8,0.985,1,8,0,8,0,1,,,,,,,,,,,,,
66771c55c52537f3ee41e51c,TCN,2024-06-25_09h41.55.796,LearnStrategy,2023.2.3,MacIntel,71.42857143,7,1,10,0.0275,-0.0075,1,0,0,0.639,rock_grid_rect_2,3,02,-1,-1,0.639,0.1125,-0.25875,1,0,0,1.707,Diorite_rect,3,1.707,1,9,0,9,0,1,,,,,,,,,,,,,
66771c55c52537f3ee41e51c,TCN,2024-06-25_09h41.55.796,LearnStrategy,2023.2.3,MacIntel,71.42857143,7,1,11,0.01625,0.0025,1,0,0,0.842,rock_grid_rect_2,4,09,-1,-1,0.842,0.4375,-0.2425,1,0,0,3.783,Gabbro_rect,4,3.783,1,10,0,10,0,1,,,,,,,,,,,,,
66771c55c52537f3ee41e51c,TCN,2024-06-25_09h41.55.796,LearnStrategy,2023.2.3,MacIntel,71.42857143,7,1,12,-0.02125,-0.00125,1,0,0,1.039,rock_grid_rect_2,7,05,-1,-1,1.039,0.15,-0.4125,1,0,0,2.722,Peridotite_rect,7,2.722,1,11,0,11,0,1,,,,,,,,,,,,,
66771c55c52537f3ee41e51c,TCN,2024-06-25_09h41.55.796,LearnStrategy,2023.2.3,MacIntel,71.42857143,7,1,13,-0.02375,-0.01125,1,0,0,1.063,rock_grid_rect_2,5,10,-1,-1,1.063,-0.365,-0.395,1,0,0,1.46,Obsidian_rect,5,1.46,1,12,0,12,0,1,,,,,,,,,,,,,
66771c55c52537f3ee41e51c,TCN,2024-06-25_09h41.55.796,LearnStrategy,2023.2.3,MacIntel,71.42857143,7,1,14,-0.02,-0.00125,1,0,0,1.066,rock_grid_rect_2,3,12,-1,-1,1.066,-0.39,-0.26875,1,0,0,2.404,Andesite_rect,1,2.404,0,13,0,13,0,1,,,,,,,,,,,,,
66771c55c52537f3ee41e51c,TCN,2024-06-25_09h41.55.796,LearnStrategy,2023.2.3,MacIntel,71.42857143,7,1,15,-0.0075,-0.00125,1,0,0,0.888,rock_grid_rect_2,4,10,-1,-1,0.888,0.44375,-0.26,1,0,0,2.106,Gabbro_rect,4,2.106,1,14,0,14,0,1,,,,,,,,,,,,,
66771c55c52537f3ee41e51c,TCN,2024-06-25_09h41.55.796,LearnStrategy,2023.2.3,MacIntel,71.42857143,7,1,16,0.00125,0,1,0,0,0.94,rock_grid_rect_2,2,08,-1,-1,0.94,-0.10375,-0.22875,1,0,0,1.307,Basalt_rect,2,1.307,1,15,0,15,0,1,,,,,,,,,,,,,
66771c55c52537f3ee41e51c,TCN,2024-06-25_09h41.55.796,LearnStrategy,2023.2.3,MacIntel,71.42857143,7,2,1,,,,,,,,8,16,,,,,,,,,,,8,2.409,1,,,,,,0.40375,-0.405,1,0,0,2.409,Pumice_rect,0,0,0,0,1,
66771c55c52537f3ee41e51c,TCN,2024-06-25_09h41.55.796,LearnStrategy,2023.2.3,MacIntel,71.42857143,7,2,2,,,,,,,,4,03,,,,,,,,,,,1,3.245,0,,,,,,-0.36125,-0.24,1,0,0,3.245,Andesite_rect,1,0,1,0,1,
66771c55c52537f3ee41e51c,TCN,2024-06-25_09h41.55.796,LearnStrategy,2023.2.3,MacIntel,71.42857143,7,2,3,,,,,,,,7,12,,,,,,,,,,,7,2.498,1,,,,,,0.12125,-0.3975,1,0,0,2.498,Peridotite_rect,2,0,2,0,1,
66771c55c52537f3ee41e51c,TCN,2024-06-25_09h41.55.796,LearnStrategy,2023.2.3,MacIntel,71.42857143,7,2,4,,,,,,,,1,16,,,,,,,,,,,1,2.49,1,,,,,,-0.40125,-0.24125,1,0,0,2.49,Andesite_rect,3,0,3,0,1,
66771c55c52537f3ee41e51c,TCN,2024-06-25_09h41.55.796,LearnStrategy,2023.2.3,MacIntel,71.42857143,7,2,5,,,,,,,,3,11,,,,,,,,,,,3,2.344,1,,,,,,0.11875,-0.24375,1,0,0,2.344,Diorite_rect,4,0,4,0,1,
66771c55c52537f3ee41e51c,TCN,2024-06-25_09h41.55.796,LearnStrategy,2023.2.3,MacIntel,71.42857143,7,2,6,,,,,,,,2,04,,,,,,,,,,,2,2.194,1,,,,,,-0.0975,-0.25875,1,0,0,2.194,Basalt_rect,5,0,5,0,1,
66771c55c52537f3ee41e51c,TCN,2024-06-25_09h41.55.796,LearnStrategy,2023.2.3,MacIntel,71.42857143,7,2,7,,,,,,,,5,06,,,,,,,,,,,5,1.447,1,,,,,,-0.39375,-0.42,1,0,0,1.447,Obsidian_rect,6,0,6,0,1,
66771c55c52537f3ee41e51c,TCN,2024-06-25_09h41.55.796,LearnStrategy,2023.2.3,MacIntel,71.42857143,7,2,8,,,,,,,,7,06,,,,,,,,,,,7,2.65,1,,,,,,0.14375,-0.40875,1,0,0,2.65,Peridotite_rect,7,0,7,0,1,
66771c55c52537f3ee41e51c,TCN,2024-06-25_09h41.55.796,LearnStrategy,2023.2.3,MacIntel,71.42857143,7,2,9,,,,,,,,6,06,,,,,,,,,,,6,1.819,1,,,,,,-0.10625,-0.41875,1,0,0,1.819,Pegmatite_rect,8,0,8,0,1,
66771c55c52537f3ee41e51c,TCN,2024-06-25_09h41.55.796,LearnStrategy,2023.2.3,MacIntel,71.42857143,7,2,10,,,,,,,,1,06,,,,,,,,,,,1,3.517,1,,,,,,-0.36,-0.23875,1,0,0,3.517,Andesite_rect,9,0,9,0,1,
66771c55c52537f3ee41e51c,TCN,2024-06-25_09h41.55.796,LearnStrategy,2023.2.3,MacIntel,71.42857143,7,2,11,,,,,,,,4,08,,,,,,,,,,,2,4.252,0,,,,,,-0.15125,-0.26875,1,0,0,4.252,Basalt_rect,10,0,10,0,1,
66771c55c52537f3ee41e51c,TCN,2024-06-25_09h41.55.796,LearnStrategy,2023.2.3,MacIntel,71.42857143,7,2,12,,,,,,,,8,03,,,,,,,,,,,8,1.399,1,,,,,,0.4,-0.395,1,0,0,1.399,Pumice_rect,11,0,11,0,1,
66771c55c52537f3ee41e51c,TCN,2024-06-25_09h41.55.796,LearnStrategy,2023.2.3,MacIntel,71.42857143,7,2,13,,,,,,,,6,05,,,,,,,,,,,6,2.002,1,,,,,,-0.12,-0.4175,1,0,0,2.002,Pegmatite_rect,12,0,12,0,1,
66771c55c52537f3ee41e51c,TCN,2024-06-25_09h41.55.796,LearnStrategy,2023.2.3,MacIntel,71.42857143,7,2,14,,,,,,,,3,13,,,,,,,,,,,3,2.453,1,,,,,,0.15125,-0.26125,1,0,0,2.453,Diorite_rect,13,0,13,0,1,
66771c55c52537f3ee41e51c,TCN,2024-06-25_09h41.55.796,LearnStrategy,2023.2.3,MacIntel,71.42857143,7,2,15,,,,,,,,5,07,,,,,,,,,,,5,1.467,1,,,,,,-0.36375,-0.4025,1,0,0,1.467,Obsidian_rect,14,0,14,0,1,
66771c55c52537f3ee41e51c,TCN,2024-06-25_09h41.55.796,LearnStrategy,2023.2.3,MacIntel,71.42857143,7,2,16,,,,,,,,2,11,,,,,,,,,,,2,6.423,1,,,,,,-0.13625,-0.26125,1,0,0,6.423,Basalt_rect,15,0,15,0,1,
66771c55c52537f3ee41e51c,TCN,2024-06-25_09h41.55.796,LearnStrategy,2023.2.3,MacIntel,71.42857143,8,1,1,-0.00375,-0.00625,1,0,0,6.241,rock_grid_rect_2,2,02,-1,-1,6.241,-0.1,-0.25,1,0,0,3.256,Basalt_rect,2,3.256,1,0,0,0,0,1,,,,,,,,,,,,,
66771c55c52537f3ee41e51c,TCN,2024-06-25_09h41.55.796,LearnStrategy,2023.2.3,MacIntel,71.42857143,8,1,2,-0.015,-0.0025,1,0,0,1.174,rock_grid_rect_2,8,08,-1,-1,1.174,0.395,-0.40125,1,0,0,1.443,Pumice_rect,8,1.443,1,1,0,1,0,1,,,,,,,,,,,,,
66771c55c52537f3ee41e51c,TCN,2024-06-25_09h41.55.796,LearnStrategy,2023.2.3,MacIntel,71.42857143,8,1,3,-0.0025,-0.00625,1,0,0,0.986,rock_grid_rect_2,1,03,-1,-1,0.986,-0.3275,-0.23125,1,0,0,1.748,Andesite_rect,1,1.748,1,2,0,2,0,1,,,,,,,,,,,,,
66771c55c52537f3ee41e51c,TCN,2024-06-25_09h41.55.796,LearnStrategy,2023.2.3,MacIntel,71.42857143,8,1,4,0.015,-0.01125,1,0,0,0.638,rock_grid_rect_2,3,07,-1,-1,0.638,0.14,-0.23875,1,0,0,1.283,Diorite_rect,3,1.283,1,3,0,3,0,1,,,,,,,,,,,,,
66771c55c52537f3ee41e51c,TCN,2024-06-25_09h41.55.796,LearnStrategy,2023.2.3,MacIntel,71.42857143,8,1,5,-0.015,-0.01375,1,0,0,0.835,rock_grid_rect_2,6,15,-1,-1,0.835,-0.1,-0.39375,1,0,0,1.563,Pegmatite_rect,6,1.563,1,4,0,4,0,1,,,,,,,,,,,,,
66771c55c52537f3ee41e51c,TCN,2024-06-25_09h41.55.796,LearnStrategy,2023.2.3,MacIntel,71.42857143,8,1,6,-0.015,-0.01625,1,0,0,0.667,rock_grid_rect_2,7,13,-1,-1,0.667,0.16,-0.3975,1,0,0,1.161,Peridotite_rect,7,1.161,1,5,0,5,0,1,,,,,,,,,,,,,
66771c55c52537f3ee41e51c,TCN,2024-06-25_09h41.55.796,LearnStrategy,2023.2.3,MacIntel,71.42857143,8,1,7,-0.02125,0.005,1,0,0,0.821,rock_grid_rect_2,5,04,-1,-1,0.821,-0.41125,-0.3925,1,0,0,1.311,Obsidian_rect,5,1.311,1,6,0,6,0,1,,,,,,,,,,,,,
66771c55c52537f3ee41e51c,TCN,2024-06-25_09h41.55.796,LearnStrategy,2023.2.3,MacIntel,71.42857143,8,1,8,0.00125,0,1,0,0,1.573,rock_grid_rect_2,7,14,-1,-1,1.573,0.15875,-0.40125,1,0,0,5.704,Peridotite_rect,7,5.704,1,7,0,7,0,1,,,,,,,,,,,,,
66771c55c52537f3ee41e51c,TCN,2024-06-25_09h41.55.796,LearnStrategy,2023.2.3,MacIntel,71.42857143,8,1,9,0.02625,-0.0025,1,0,0,1.771,rock_grid_rect_2,6,10,-1,-1,1.771,-0.08875,-0.4025,1,0,0,7.351,Pegmatite_rect,6,7.351,1,8,0,8,0,1,,,,,,,,,,,,,
66771c55c52537f3ee41e51c,TCN,2024-06-25_09h41.55.796,LearnStrategy,2023.2.3,MacIntel,71.42857143,8,1,10,0.085,-0.0025,1,0,0,9.574,rock_grid_rect_2,5,09,-1,-1,9.574,-0.4225,-0.40375,1,0,0,1.523,Obsidian_rect,5,1.523,1,9,0,9,0,1,,,,,,,,,,,,,
66771c55c52537f3ee41e51c,TCN,2024-06-25_09h41.55.796,LearnStrategy,2023.2.3,MacIntel,71.42857143,8,1,11,-0.01625,-0.00875,1,0,0,1.64,rock_grid_rect_2,1,01,-1,-1,1.64,-0.40375,-0.23875,1,0,0,10.114,Andesite_rect,1,10.114,1,10,0,10,0,1,,,,,,,,,,,,,
66771c55c52537f3ee41e51c,TCN,2024-06-25_09h41.55.796,LearnStrategy,2023.2.3,MacIntel,71.42857143,8,1,12,0.01375,-0.00875,1,0,0,2.904,rock_grid_rect_2,2,06,-1,-1,2.904,-0.15,-0.25375,1,0,0,3.216,Basalt_rect,2,3.216,1,11,0,11,0,1,,,,,,,,,,,,,
66771c55c52537f3ee41e51c,TCN,2024-06-25_09h41.55.796,LearnStrategy,2023.2.3,MacIntel,71.42857143,8,1,13,-0.00125,-0.01,1,0,0,1.075,rock_grid_rect_2,8,02,-1,-1,1.075,0.4175,-0.3975,1,0,0,1.266,Pumice_rect,8,1.266,1,12,0,12,0,1,,,,,,,,,,,,,
66771c55c52537f3ee41e51c,TCN,2024-06-25_09h41.55.796,LearnStrategy,2023.2.3,MacIntel,71.42857143,8,1,14,0,-0.0225,1,0,0,0.986,rock_grid_rect_2,4,15,-1,-1,0.986,0.41625,-0.25625,1,0,0,3.204,Gabbro_rect,4,3.204,1,13,0,13,0,1,,,,,,,,,,,,,
66771c55c52537f3ee41e51c,TCN,2024-06-25_09h41.55.796,LearnStrategy,2023.2.3,MacIntel,71.42857143,8,1,15,0.00625,0.00375,1,0,0,1.062,rock_grid_rect_2,4,12,-1,-1,1.062,-0.11625,-0.26375,1,0,0,1.284,Basalt_rect,2,1.284,0,14,0,14,0,1,,,,,,,,,,,,,
66771c55c52537f3ee41e51c,TCN,2024-06-25_09h41.55.796,LearnStrategy,2023.2.3,MacIntel,71.42857143,8,1,16,-0.00375,-0.01,1,0,0,1.125,rock_grid_rect_2,3,14,-1,-1,1.125,0.12375,-0.25125,1,0,0,1.319,Diorite_rect,3,1.319,1,15,0,15,0,1,,,,,,,,,,,,,
66771c55c52537f3ee41e51c,TCN,2024-06-25_09h41.55.796,LearnStrategy,2023.2.3,MacIntel,71.42857143,8,2,1,,,,,,,,2,16,,,,,,,,,,,4,4.901,0,,,,,,0.4125,-0.24625,1,0,0,4.901,Gabbro_rect,0,0,0,0,1,
66771c55c52537f3ee41e51c,TCN,2024-06-25_09h41.55.796,LearnStrategy,2023.2.3,MacIntel,71.42857143,8,2,2,,,,,,,,3,15,,,,,,,,,,,3,2.402,1,,,,,,0.17875,-0.24,1,0,0,2.402,Diorite_rect,1,0,1,0,1,
66771c55c52537f3ee41e51c,TCN,2024-06-25_09h41.55.796,LearnStrategy,2023.2.3,MacIntel,71.42857143,8,2,3,,,,,,,,7,16,,,,,,,,,,,7,2.716,1,,,,,,0.125,-0.41125,1,0,0,2.716,Peridotite_rect,2,0,2,0,1,
66771c55c52537f3ee41e51c,TCN,2024-06-25_09h41.55.796,LearnStrategy,2023.2.3,MacIntel,71.42857143,8,2,4,,,,,,,,4,05,,,,,,,,,,,4,2.785,1,,,,,,0.3975,-0.2425,1,0,0,2.785,Gabbro_rect,3,0,3,0,1,
66771c55c52537f3ee41e51c,TCN,2024-06-25_09h41.55.796,LearnStrategy,2023.2.3,MacIntel,71.42857143,8,2,5,,,,,,,,5,05,,,,,,,,,,,5,1.381,1,,,,,,-0.35625,-0.42,1,0,0,1.381,Obsidian_rect,4,0,4,0,1,
66771c55c52537f3ee41e51c,TCN,2024-06-25_09h41.55.796,LearnStrategy,2023.2.3,MacIntel,71.42857143,8,2,6,,,,,,,,1,14,,,,,,,,,,,1,2.593,1,,,,,,-0.36875,-0.2475,1,0,0,2.593,Andesite_rect,5,0,5,0,1,
66771c55c52537f3ee41e51c,TCN,2024-06-25_09h41.55.796,LearnStrategy,2023.2.3,MacIntel,71.42857143,8,2,7,,,,,,,,1,04,,,,,,,,,,,1,2.164,1,,,,,,-0.43375,-0.2375,1,0,0,2.164,Andesite_rect,6,0,6,0,1,
66771c55c52537f3ee41e51c,TCN,2024-06-25_09h41.55.796,LearnStrategy,2023.2.3,MacIntel,71.42857143,8,2,8,,,,,,,,7,07,,,,,,,,,,,7,2.527,1,,,,,,0.13875,-0.41125,1,0,0,2.527,Peridotite_rect,7,0,7,0,1,
66771c55c52537f3ee41e51c,TCN,2024-06-25_09h41.55.796,LearnStrategy,2023.2.3,MacIntel,71.42857143,8,2,9,,,,,,,,5,08,,,,,,,,,,,5,1.122,1,,,,,,-0.33875,-0.40625,1,0,0,1.122,Obsidian_rect,8,0,8,0,1,
66771c55c52537f3ee41e51c,TCN,2024-06-25_09h41.55.796,LearnStrategy,2023.2.3,MacIntel,71.42857143,8,2,10,,,,,,,,3,06,,,,,,,,,,,3,2.643,1,,,,,,0.1475,-0.2525,1,0,0,2.643,Diorite_rect,9,0,9,0,1,
66771c55c52537f3ee41e51c,TCN,2024-06-25_09h41.55.796,LearnStrategy,2023.2.3,MacIntel,71.42857143,8,2,11,,,,,,,,8,13,,,,,,,,,,,8,1.85,1,,,,,,0.42,-0.41875,1,0,0,1.85,Pumice_rect,10,0,10,0,1,
66771c55c52537f3ee41e51c,TCN,2024-06-25_09h41.55.796,LearnStrategy,2023.2.3,MacIntel,71.42857143,8,2,12,,,,,,,,6,07,,,,,,,,,,,6,1.785,1,,,,,,-0.05875,-0.40125,1,0,0,1.785,Pegmatite_rect,11,0,11,0,1,
66771c55c52537f3ee41e51c,TCN,2024-06-25_09h41.55.796,LearnStrategy,2023.2.3,MacIntel,71.42857143,8,2,13,,,,,,,,2,05,,,,,,,,,,,2,1.467,1,,,,,,-0.085,-0.25625,1,0,0,1.467,Basalt_rect,12,0,12,0,1,
66771c55c52537f3ee41e51c,TCN,2024-06-25_09h41.55.796,LearnStrategy,2023.2.3,MacIntel,71.42857143,8,2,14,,,,,,,,6,08,,,,,,,,,,,6,1.314,1,,,,,,-0.1125,-0.39375,1,0,0,1.314,Pegmatite_rect,13,0,13,0,1,
66771c55c52537f3ee41e51c,TCN,2024-06-25_09h41.55.796,LearnStrategy,2023.2.3,MacIntel,71.42857143,8,2,15,,,,,,,,4,01,,,,,,,,,,,1,17.337,0,,,,,,-0.36,-0.22875,1,0,0,17.337,Andesite_rect,14,0,14,0,1,
66771c55c52537f3ee41e51c,TCN,2024-06-25_09h41.55.796,LearnStrategy,2023.2.3,MacIntel,71.42857143,8,2,16,,,,,,,,8,09,,,,,,,,,,,8,1.42,1,,,,,,0.42,-0.405,1,0,0,1.42,Pumice_rect,15,0,15,0,1,
66771c55c52537f3ee41e51c,TCN,2024-06-25_09h41.55.796,LearnStrategy,2023.2.3,MacIntel,71.42857143,9,1,1,0.10125,-0.01625,1,0,0,1.358,rock_grid_rect_2,8,14,-1,-1,1.358,0.39375,-0.39625,1,0,0,1.265,Pumice_rect,8,1.265,1,0,0,0,0,1,,,,,,,,,,,,,
66771c55c52537f3ee41e51c,TCN,2024-06-25_09h41.55.796,LearnStrategy,2023.2.3,MacIntel,71.42857143,9,1,2,-0.0125,-0.0025,1,0,0,1.108,rock_grid_rect_2,6,13,-1,-1,1.108,-0.10625,-0.40625,1,0,0,2.688,Pegmatite_rect,6,2.688,1,1,0,1,0,1,,,,,,,,,,,,,
66771c55c52537f3ee41e51c,TCN,2024-06-25_09h41.55.796,LearnStrategy,2023.2.3,MacIntel,71.42857143,9,1,3,-0.0025,-0.0025,1,0,0,1.716,rock_grid_rect_2,7,10,-1,-1,1.716,0.14375,-0.39375,1,0,0,3.041,Peridotite_rect,7,3.041,1,2,0,2,0,1,,,,,,,,,,,,,
66771c55c52537f3ee41e51c,TCN,2024-06-25_09h41.55.796,LearnStrategy,2023.2.3,MacIntel,71.42857143,9,1,4,0.02625,-0.01,1,0,0,0.796,rock_grid_rect_2,7,04,-1,-1,0.796,0.15625,-0.40125,1,0,0,3.219,Peridotite_rect,7,3.219,1,3,0,3,0,1,,,,,,,,,,,,,
66771c55c52537f3ee41e51c,TCN,2024-06-25_09h41.55.796,LearnStrategy,2023.2.3,MacIntel,71.42857143,9,1,5,0.02,-0.00125,1,0,0,1.036,rock_grid_rect_2,5,12,-1,-1,1.036,-0.3825,-0.3875,1,0,0,1.034,Obsidian_rect,5,1.034,1,4,0,4,0,1,,,,,,,,,,,,,
66771c55c52537f3ee41e51c,TCN,2024-06-25_09h41.55.796,LearnStrategy,2023.2.3,MacIntel,71.42857143,9,1,6,0.02,0.0025,1,0,0,0.691,rock_grid_rect_2,3,09,-1,-1,0.691,0.135,-0.2375,1,0,0,1.052,Diorite_rect,3,1.052,1,5,0,5,0,1,,,,,,,,,,,,,
66771c55c52537f3ee41e51c,TCN,2024-06-25_09h41.55.796,LearnStrategy,2023.2.3,MacIntel,71.42857143,9,1,7,0.0525,0.00875,1,0,0,0.672,rock_grid_rect_2,4,13,-1,-1,0.672,0.4,-0.23625,1,0,0,1.454,Gabbro_rect,4,1.454,1,6,0,6,0,1,,,,,,,,,,,,,
66771c55c52537f3ee41e51c,TCN,2024-06-25_09h41.55.796,LearnStrategy,2023.2.3,MacIntel,71.42857143,9,1,8,0.02125,-0.00625,1,0,0,0.621,rock_grid_rect_2,8,10,-1,-1,0.621,0.40625,-0.39875,1,0,0,1.352,Pumice_rect,8,1.352,1,7,0,7,0,1,,,,,,,,,,,,,
66771c55c52537f3ee41e51c,TCN,2024-06-25_09h41.55.796,LearnStrategy,2023.2.3,MacIntel,71.42857143,9,1,9,0.04375,0.00875,1,0,0,0.61,rock_grid_rect_2,5,02,-1,-1,0.61,-0.33875,-0.40875,1,0,0,1.081,Obsidian_rect,5,1.081,1,8,0,8,0,1,,,,,,,,,,,,,
66771c55c52537f3ee41e51c,TCN,2024-06-25_09h41.55.796,LearnStrategy,2023.2.3,MacIntel,71.42857143,9,1,10,-0.00875,-0.015,1,0,0,0.836,rock_grid_rect_2,2,14,-1,-1,0.836,0.42125,-0.2525,1,0,0,1.21,Gabbro_rect,4,1.21,0,9,0,9,0,1,,,,,,,,,,,,,
66771c55c52537f3ee41e51c,TCN,2024-06-25_09h41.55.796,LearnStrategy,2023.2.3,MacIntel,71.42857143,9,1,11,0.0075,-0.005,1,0,0,1.351,rock_grid_rect_2,3,08,-1,-1,1.351,0.1425,-0.2425,1,0,0,1.198,Diorite_rect,3,1.198,1,10,0,10,0,1,,,,,,,,,,,,,
66771c55c52537f3ee41e51c,TCN,2024-06-25_09h41.55.796,LearnStrategy,2023.2.3,MacIntel,71.42857143,9,1,12,0.025,0,1,0,0,0.652,rock_grid_rect_2,4,16,-1,-1,0.652,0.4125,-0.25125,1,0,0,2.471,Gabbro_rect,4,2.471,1,11,0,11,0,1,,,,,,,,,,,,,
66771c55c52537f3ee41e51c,TCN,2024-06-25_09h41.55.796,LearnStrategy,2023.2.3,MacIntel,71.42857143,9,1,13,0.00625,-0.00875,1,0,0,0.907,rock_grid_rect_2,6,11,-1,-1,0.907,-0.12125,-0.3825,1,0,0,1.11,Pegmatite_rect,6,1.11,1,12,0,12,0,1,,,,,,,,,,,,,
66771c55c52537f3ee41e51c,TCN,2024-06-25_09h41.55.796,LearnStrategy,2023.2.3,MacIntel,71.42857143,9,1,14,-0.0075,0.00875,1,0,0,0.852,rock_grid_rect_2,1,05,-1,-1,0.852,-0.37625,-0.23125,1,0,0,2.967,Andesite_rect,1,2.967,1,13,0,13,0,1,,,,,,,,,,,,,
66771c55c52537f3ee41e51c,TCN,2024-06-25_09h41.55.796,LearnStrategy,2023.2.3,MacIntel,71.42857143,9,1,15,0.01125,-0.005,1,0,0,1.338,rock_grid_rect_2,2,09,-1,-1,1.338,-0.12875,-0.23125,1,0,0,1.829,Basalt_rect,2,1.829,1,14,0,14,0,1,,,,,,,,,,,,,
66771c55c52537f3ee41e51c,TCN,2024-06-25_09h41.55.796,LearnStrategy,2023.2.3,MacIntel,71.42857143,9,1,16,0.06125,-0.015,1,0,0,0.953,rock_grid_rect_2,1,10,-1,-1,0.953,-0.32625,-0.25125,1,0,0,5.223,Andesite_rect,1,5.223,1,15,0,15,0,1,,,,,,,,,,,,,
66771c55c52537f3ee41e51c,TCN,2024-06-25_09h41.55.796,LearnStrategy,2023.2.3,MacIntel,71.42857143,9,2,1,,,,,,,,2,10,,,,,,,,,,,4,3.239,0,,,,,,0.40875,-0.2525,1,0,0,3.239,Gabbro_rect,0,0,0,0,1,
66771c55c52537f3ee41e51c,TCN,2024-06-25_09h41.55.796,LearnStrategy,2023.2.3,MacIntel,71.42857143,9,2,2,,,,,,,,3,16,,,,,,,,,,,3,1.849,1,,,,,,0.155,-0.24625,1,0,0,1.849,Diorite_rect,1,0,1,0,1,
66771c55c52537f3ee41e51c,TCN,2024-06-25_09h41.55.796,LearnStrategy,2023.2.3,MacIntel,71.42857143,9,2,3,,,,,,,,8,15,,,,,,,,,,,8,1.366,1,,,,,,0.37875,-0.42,1,0,0,1.366,Pumice_rect,2,0,2,0,1,
66771c55c52537f3ee41e51c,TCN,2024-06-25_09h41.55.796,LearnStrategy,2023.2.3,MacIntel,71.42857143,9,2,4,,,,,,,,3,10,,,,,,,,,,,3,2.091,1,,,,,,0.14,-0.24,1,0,0,2.091,Diorite_rect,3,0,3,0,1,
66771c55c52537f3ee41e51c,TCN,2024-06-25_09h41.55.796,LearnStrategy,2023.2.3,MacIntel,71.42857143,9,2,5,,,,,,,,5,16,,,,,,,,,,,5,4.164,1,,,,,,-0.44375,-0.40125,1,0,0,4.164,Obsidian_rect,4,0,4,0,1,
66771c55c52537f3ee41e51c,TCN,2024-06-25_09h41.55.796,LearnStrategy,2023.2.3,MacIntel,71.42857143,9,2,6,,,,,,,,1,09,,,,,,,,,,,1,4.191,1,,,,,,-0.41625,-0.24625,1,0,0,4.191,Andesite_rect,5,0,5,0,1,
66771c55c52537f3ee41e51c,TCN,2024-06-25_09h41.55.796,LearnStrategy,2023.2.3,MacIntel,71.42857143,9,2,7,,,,,,,,8,04,,,,,,,,,,,8,1.64,1,,,,,,0.40125,-0.405,1,0,0,1.64,Pumice_rect,6,0,6,0,1,
66771c55c52537f3ee41e51c,TCN,2024-06-25_09h41.55.796,LearnStrategy,2023.2.3,MacIntel,71.42857143,9,2,8,,,,,,,,1,02,,,,,,,,,,,1,2.053,1,,,,,,-0.32125,-0.2575,1,0,0,2.053,Andesite_rect,7,0,7,0,1,
66771c55c52537f3ee41e51c,TCN,2024-06-25_09h41.55.796,LearnStrategy,2023.2.3,MacIntel,71.42857143,9,2,9,,,,,,,,6,09,,,,,,,,,,,6,1.789,1,,,,,,-0.11125,-0.39,1,0,0,1.789,Pegmatite_rect,8,0,8,0,1,
66771c55c52537f3ee41e51c,TCN,2024-06-25_09h41.55.796,LearnStrategy,2023.2.3,MacIntel,71.42857143,9,2,10,,,,,,,,7,15,,,,,,,,,,,7,1.897,1,,,,,,0.12125,-0.40875,1,0,0,1.897,Peridotite_rect,9,0,9,0,1,
66771c55c52537f3ee41e51c,TCN,2024-06-25_09h41.55.796,LearnStrategy,2023.2.3,MacIntel,71.42857143,9,2,11,,,,,,,,7,02,,,,,,,,,,,7,1.23,1,,,,,,0.1075,-0.395,1,0,0,1.23,Peridotite_rect,10,0,10,0,1,
66771c55c52537f3ee41e51c,TCN,2024-06-25_09h41.55.796,LearnStrategy,2023.2.3,MacIntel,71.42857143,9,2,12,,,,,,,,2,01,,,,,,,,,,,2,2.027,1,,,,,,-0.11125,-0.235,1,0,0,2.027,Basalt_rect,11,0,11,0,1,
66771c55c52537f3ee41e51c,TCN,2024-06-25_09h41.55.796,LearnStrategy,2023.2.3,MacIntel,71.42857143,9,2,13,,,,,,,,5,11,,,,,,,,,,,5,1.118,1,,,,,,-0.36,-0.4125,1,0,0,1.118,Obsidian_rect,12,0,12,0,1,
66771c55c52537f3ee41e51c,TCN,2024-06-25_09h41.55.796,LearnStrategy,2023.2.3,MacIntel,71.42857143,9,2,14,,,,,,,,4,11,,,,,,,,,,,1,3.663,0,,,,,,-0.36125,-0.245,1,0,0,3.663,Andesite_rect,13,0,13,0,1,
66771c55c52537f3ee41e51c,TCN,2024-06-25_09h41.55.796,LearnStrategy,2023.2.3,MacIntel,71.42857143,9,2,15,,,,,,,,4,14,,,,,,,,,,,4,1.452,1,,,,,,0.35875,-0.27,1,0,0,1.452,Gabbro_rect,14,0,14,0,1,
66771c55c52537f3ee41e51c,TCN,2024-06-25_09h41.55.796,LearnStrategy,2023.2.3,MacIntel,71.42857143,9,2,16,,,,,,,,6,12,,,,,,,,,,,1,2.623,0,,,,,,-0.36625,-0.255,1,0,0,2.623,Andesite_rect,15,0,15,0,1,
66771c55c52537f3ee41e51c,TCN,2024-06-25_09h41.55.796,LearnStrategy,2023.2.3,MacIntel,71.42857143,,,,,,,,,,,,,,,,,,,,,,,,,,,,,,,,,,,,,,,,,,,1
66771c55c52537f3ee41e51c,TCN,2024-06-25_09h41.55.796,LearnStrategy,2023.2.3,MacIntel,71.42857143,,,,,,,,,,,,,,,,,,,,,,,,,,,,,,,,,,,,,,,,,,,
66771c55c52537f3ee41e51c,TCN,2024-06-25_09h41.55.796,LearnStrategy,2023.2.3,MacIntel,71.42857143,,,,,,,,,,,4,09,1,1,,,,,,,,,,,,,,,,,,,,,,,,,,,,,
66771c55c52537f3ee41e51c,TCN,2024-06-25_09h41.55.796,LearnStrategy,2023.2.3,MacIntel,71.42857143,,,,,,,,,,,4,15,1,2,,,,,,,,,,,,,,,,,,,,,,,,,,,,,
66771c55c52537f3ee41e51c,TCN,2024-06-25_09h41.55.796,LearnStrategy,2023.2.3,MacIntel,71.42857143,,,,,,,,,,,6,10,1,3,,,,,,,,,,,,,,,,,,,,,,,,,,,,,
66771c55c52537f3ee41e51c,TCN,2024-06-25_09h41.55.796,LearnStrategy,2023.2.3,MacIntel,71.42857143,,,,,,,,,,,1,11,1,4,,,,,,,,,,,,,,,,,,,,,,,,,,,,,
66771c55c52537f3ee41e51c,TCN,2024-06-25_09h41.55.796,LearnStrategy,2023.2.3,MacIntel,71.42857143,,,,,,,,,,,8,10,1,5,,,,,,,,,,,,,,,,,,,,,,,,,,,,,
66771c55c52537f3ee41e51c,TCN,2024-06-25_09h41.55.796,LearnStrategy,2023.2.3,MacIntel,71.42857143,,,,,,,,,,,3,08,1,6,,,,,,,,,,,,,,,,,,,,,,,,,,,,,
66771c55c52537f3ee41e51c,TCN,2024-06-25_09h41.55.796,LearnStrategy,2023.2.3,MacIntel,71.42857143,,,,,,,,,,,1,05,1,7,,,,,,,,,,,,,,,,,,,,,,,,,,,,,
66771c55c52537f3ee41e51c,TCN,2024-06-25_09h41.55.796,LearnStrategy,2023.2.3,MacIntel,71.42857143,,,,,,,,,,,4,16,1,8,,,,,,,,,,,,,,,,,,,,,,,,,,,,,
66771c55c52537f3ee41e51c,TCN,2024-06-25_09h41.55.796,LearnStrategy,2023.2.3,MacIntel,71.42857143,,,,,,,,,,,2,02,2,1,,,,,,,,,,,,,,,,,,,,,,,,,,,,,
66771c55c52537f3ee41e51c,TCN,2024-06-25_09h41.55.796,LearnStrategy,2023.2.3,MacIntel,71.42857143,,,,,,,,,,,3,02,2,2,,,,,,,,,,,,,,,,,,,,,,,,,,,,,
66771c55c52537f3ee41e51c,TCN,2024-06-25_09h41.55.796,LearnStrategy,2023.2.3,MacIntel,71.42857143,,,,,,,,,,,6,13,2,3,,,,,,,,,,,,,,,,,,,,,,,,,,,,,
66771c55c52537f3ee41e51c,TCN,2024-06-25_09h41.55.796,LearnStrategy,2023.2.3,MacIntel,71.42857143,,,,,,,,,,,4,10,2,4,,,,,,,,,,,,,,,,,,,,,,,,,,,,,
66771c55c52537f3ee41e51c,TCN,2024-06-25_09h41.55.796,LearnStrategy,2023.2.3,MacIntel,71.42857143,,,,,,,,,,,7,10,2,5,,,,,,,,,,,,,,,,,,,,,,,,,,,,,
66771c55c52537f3ee41e51c,TCN,2024-06-25_09h41.55.796,LearnStrategy,2023.2.3,MacIntel,71.42857143,,,,,,,,,,,6,11,2,6,,,,,,,,,,,,,,,,,,,,,,,,,,,,,
66771c55c52537f3ee41e51c,TCN,2024-06-25_09h41.55.796,LearnStrategy,2023.2.3,MacIntel,71.42857143,,,,,,,,,,,2,08,2,7,,,,,,,,,,,,,,,,,,,,,,,,,,,,,
66771c55c52537f3ee41e51c,TCN,2024-06-25_09h41.55.796,LearnStrategy,2023.2.3,MacIntel,71.42857143,,,,,,,,,,,2,06,2,8,,,,,,,,,,,,,,,,,,,,,,,,,,,,,
66771c55c52537f3ee41e51c,TCN,2024-06-25_09h41.55.796,LearnStrategy,2023.2.3,MacIntel,71.42857143,,,,,,,,,,,1,07,3,1,,,,,,,,,,,,,,,,,,,,,,,,,,,,,
66771c55c52537f3ee41e51c,TCN,2024-06-25_09h41.55.796,LearnStrategy,2023.2.3,MacIntel,71.42857143,,,,,,,,,,,7,14,3,2,,,,,,,,,,,,,,,,,,,,,,,,,,,,,
66771c55c52537f3ee41e51c,TCN,2024-06-25_09h41.55.796,LearnStrategy,2023.2.3,MacIntel,71.42857143,,,,,,,,,,,6,15,3,3,,,,,,,,,,,,,,,,,,,,,,,,,,,,,
66771c55c52537f3ee41e51c,TCN,2024-06-25_09h41.55.796,LearnStrategy,2023.2.3,MacIntel,71.42857143,,,,,,,,,,,4,13,3,4,,,,,,,,,,,,,,,,,,,,,,,,,,,,,
66771c55c52537f3ee41e51c,TCN,2024-06-25_09h41.55.796,LearnStrategy,2023.2.3,MacIntel,71.42857143,,,,,,,,,,,2,09,3,5,,,,,,,,,,,,,,,,,,,,,,,,,,,,,
66771c55c52537f3ee41e51c,TCN,2024-06-25_09h41.55.796,LearnStrategy,2023.2.3,MacIntel,71.42857143,,,,,,,,,,,1,01,3,6,,,,,,,,,,,,,,,,,,,,,,,,,,,,,
66771c55c52537f3ee41e51c,TCN,2024-06-25_09h41.55.796,LearnStrategy,2023.2.3,MacIntel,71.42857143,,,,,,,,,,,8,05,3,7,,,,,,,,,,,,,,,,,,,,,,,,,,,,,
66771c55c52537f3ee41e51c,TCN,2024-06-25_09h41.55.796,LearnStrategy,2023.2.3,MacIntel,71.42857143,,,,,,,,,,,8,02,3,8,,,,,,,,,,,,,,,,,,,,,,,,,,,,,
66771c55c52537f3ee41e51c,TCN,2024-06-25_09h41.55.796,LearnStrategy,2023.2.3,MacIntel,71.42857143,,,,,,,,,,,1,03,4,1,,,,,,,,,,,,,,,,,,,,,,,,,,,,,
66771c55c52537f3ee41e51c,TCN,2024-06-25_09h41.55.796,LearnStrategy,2023.2.3,MacIntel,71.42857143,,,,,,,,,,,2,12,4,2,,,,,,,,,,,,,,,,,,,,,,,,,,,,,
66771c55c52537f3ee41e51c,TCN,2024-06-25_09h41.55.796,LearnStrategy,2023.2.3,MacIntel,71.42857143,,,,,,,,,,,6,16,4,3,,,,,,,,,,,,,,,,,,,,,,,,,,,,,
66771c55c52537f3ee41e51c,TCN,2024-06-25_09h41.55.796,LearnStrategy,2023.2.3,MacIntel,71.42857143,,,,,,,,,,,3,12,4,4,,,,,,,,,,,,,,,,,,,,,,,,,,,,,
66771c55c52537f3ee41e51c,TCN,2024-06-25_09h41.55.796,LearnStrategy,2023.2.3,MacIntel,71.42857143,,,,,,,,,,,1,10,4,5,,,,,,,,,,,,,,,,,,,,,,,,,,,,,
66771c55c52537f3ee41e51c,TCN,2024-06-25_09h41.55.796,LearnStrategy,2023.2.3,MacIntel,71.42857143,,,,,,,,,,,7,05,4,6,,,,,,,,,,,,,,,,,,,,,,,,,,,,,
66771c55c52537f3ee41e51c,TCN,2024-06-25_09h41.55.796,LearnStrategy,2023.2.3,MacIntel,71.42857143,,,,,,,,,,,5,02,4,7,,,,,,,,,,,,,,,,,,,,,,,,,,,,,
66771c55c52537f3ee41e51c,TCN,2024-06-25_09h41.55.796,LearnStrategy,2023.2.3,MacIntel,71.42857143,,,,,,,,,,,7,13,4,8,,,,,,,,,,,,,,,,,,,,,,,,,,,,,
66771c55c52537f3ee41e51c,TCN,2024-06-25_09h41.55.796,LearnStrategy,2023.2.3,MacIntel,71.42857143,,,,,,,,,,,8,06,5,1,,,,,,,,,,,,,,,,,,,,,,,,,,,,,
66771c55c52537f3ee41e51c,TCN,2024-06-25_09h41.55.796,LearnStrategy,2023.2.3,MacIntel,71.42857143,,,,,,,,,,,5,09,5,2,,,,,,,,,,,,,,,,,,,,,,,,,,,,,
66771c55c52537f3ee41e51c,TCN,2024-06-25_09h41.55.796,LearnStrategy,2023.2.3,MacIntel,71.42857143,,,,,,,,,,,7,04,5,3,,,,,,,,,,,,,,,,,,,,,,,,,,,,,
66771c55c52537f3ee41e51c,TCN,2024-06-25_09h41.55.796,LearnStrategy,2023.2.3,MacIntel,71.42857143,,,,,,,,,,,8,14,5,4,,,,,,,,,,,,,,,,,,,,,,,,,,,,,
66771c55c52537f3ee41e51c,TCN,2024-06-25_09h41.55.796,LearnStrategy,2023.2.3,MacIntel,71.42857143,,,,,,,,,,,7,08,5,5,,,,,,,,,,,,,,,,,,,,,,,,,,,,,
66771c55c52537f3ee41e51c,TCN,2024-06-25_09h41.55.796,LearnStrategy,2023.2.3,MacIntel,71.42857143,,,,,,,,,,,5,04,5,6,,,,,,,,,,,,,,,,,,,,,,,,,,,,,
66771c55c52537f3ee41e51c,TCN,2024-06-25_09h41.55.796,LearnStrategy,2023.2.3,MacIntel,71.42857143,,,,,,,,,,,5,10,5,7,,,,,,,,,,,,,,,,,,,,,,,,,,,,,
66771c55c52537f3ee41e51c,TCN,2024-06-25_09h41.55.796,LearnStrategy,2023.2.3,MacIntel,71.42857143,,,,,,,,,,,3,07,5,8,,,,,,,,,,,,,,,,,,,,,,,,,,,,,
66771c55c52537f3ee41e51c,TCN,2024-06-25_09h41.55.796,LearnStrategy,2023.2.3,MacIntel,71.42857143,,,,,,,,,,,8,08,6,1,,,,,,,,,,,,,,,,,,,,,,,,,,,,,
66771c55c52537f3ee41e51c,TCN,2024-06-25_09h41.55.796,LearnStrategy,2023.2.3,MacIntel,71.42857143,,,,,,,,,,,4,12,6,2,,,,,,,,,,,,,,,,,,,,,,,,,,,,,
66771c55c52537f3ee41e51c,TCN,2024-06-25_09h41.55.796,LearnStrategy,2023.2.3,MacIntel,71.42857143,,,,,,,,,,,2,14,6,3,,,,,,,,,,,,,,,,,,,,,,,,,,,,,
66771c55c52537f3ee41e51c,TCN,2024-06-25_09h41.55.796,LearnStrategy,2023.2.3,MacIntel,71.42857143,,,,,,,,,,,5,12,6,4,,,,,,,,,,,,,,,,,,,,,,,,,,,,,
66771c55c52537f3ee41e51c,TCN,2024-06-25_09h41.55.796,LearnStrategy,2023.2.3,MacIntel,71.42857143,,,,,,,,,,,3,14,6,5,,,,,,,,,,,,,,,,,,,,,,,,,,,,,
66771c55c52537f3ee41e51c,TCN,2024-06-25_09h41.55.796,LearnStrategy,2023.2.3,MacIntel,71.42857143,,,,,,,,,,,6,03,6,6,,,,,,,,,,,,,,,,,,,,,,,,,,,,,
66771c55c52537f3ee41e51c,TCN,2024-06-25_09h41.55.796,LearnStrategy,2023.2.3,MacIntel,71.42857143,,,,,,,,,,,5,14,6,7,,,,,,,,,,,,,,,,,,,,,,,,,,,,,
66771c55c52537f3ee41e51c,TCN,2024-06-25_09h41.55.796,LearnStrategy,2023.2.3,MacIntel,71.42857143,,,,,,,,,,,3,09,6,8,,,,,,,,,,,,,,,,,,,,,,,,,,,,,