participant,condition,date,expName,psychopyVersion,OS,frameRate,block,phase,trial,learn_mouse_2.x,learn_mouse_2.y,learn_mouse_2.leftButton,learn_mouse_2.midButton,learn_mouse_2.rightButton,learn_mouse_2.time,learn_mouse_2.clicked_name,cat,token,row,col,t_select,cat_mouse_l.x,cat_mouse_l.y,cat_mouse_l.leftButton,cat_mouse_l.midButton,cat_mouse_l.rightButton,cat_mouse_l.time,cat_mouse_l.clicked_name,resp,t_resp,corr,train_trials.thisRepN,train_trials.thisTrialN,train_trials.thisN,train_trials.thisIndex,train_trials.ran,cat_mouse_t.x,cat_mouse_t.y,cat_mouse_t.leftButton,cat_mouse_t.midButton,cat_mouse_t.rightButton,cat_mouse_t.time,cat_mouse_t.clicked_name,test_trials.thisRepN,test_trials.thisTrialN,test_trials.thisN,test_trials.thisIndex,test_trials.ran,Bonus
667738cf3ba707b3ca359a59,TCR,2024-06-24_14h35.47.431,LearnStrategy,2023.2.3,MacIntel,29.94011976,,,,,,,,,,,,,,,,,,,,,,,,,,,,,,,,,,,,,,,,,,,
667738cf3ba707b3ca359a59,TCR,2024-06-24_14h35.47.431,LearnStrategy,2023.2.3,MacIntel,29.94011976,1,1,1,0.066815476,-0.007390873,1,0,0,2.9907,rock_grid_rect_2,4,05,-1,-1,2.991,-0.149627976,-0.266732804,1,0,0,19.7789,Basalt_rect,2,19.779,0,0,0,0,0,1,,,,,,,,,,,,,
667738cf3ba707b3ca359a59,TCR,2024-06-24_14h35.47.431,LearnStrategy,2023.2.3,MacIntel,29.94011976,1,1,2,-0.043816138,0.006320271,1,0,0,52.8523,rock_grid_rect_2,7,12,-1,-1,52.852,0.189719742,-0.411896495,1,0,0,4.4459,Peridotite_rect,7,4.446,1,1,0,1,0,1,,,,,,,,,,,,,
667738cf3ba707b3ca359a59,TCR,2024-06-24_14h35.47.431,LearnStrategy,2023.2.3,MacIntel,29.94011976,1,1,3,0.008854167,0.005266204,1,0,0,2.3858,rock_grid_rect_2,8,05,-1,-1,2.386,0.448652447,-0.385495205,1,0,0,3.7803,Pumice_rect,8,3.78,1,2,0,2,0,1,,,,,,,,,,,,,
667738cf3ba707b3ca359a59,TCR,2024-06-24_14h35.47.431,LearnStrategy,2023.2.3,MacIntel,29.94011976,1,1,4,-0.003062996,0.019068287,1,0,0,0.996,rock_grid_rect_2,4,16,-1,-1,0.996,-0.120552249,-0.388029101,1,0,0,9.7479,Pegmatite_rect,6,9.748,0,3,0,3,0,1,,,,,,,,,,,,,
667738cf3ba707b3ca359a59,TCR,2024-06-24_14h35.47.431,LearnStrategy,2023.2.3,MacIntel,29.94011976,1,1,5,-0.046982474,-0.001731978,1,0,0,0.9291,rock_grid_rect_2,1,11,-1,-1,0.929,0.130295139,-0.247044478,1,0,0,4.9853,Diorite_rect,3,4.985,0,4,0,4,0,1,,,,,,,,,,,,,
667738cf3ba707b3ca359a59,TCR,2024-06-24_14h35.47.431,LearnStrategy,2023.2.3,MacIntel,29.94011976,1,1,6,0.000578704,0.022639716,1,0,0,1.1643,rock_grid_rect_2,3,09,-1,-1,1.164,0.10890377,-0.23786789,1,0,0,5.0351,Diorite_rect,3,5.035,1,5,0,5,0,1,,,,,,,,,,,,,
667738cf3ba707b3ca359a59,TCR,2024-06-24_14h35.47.431,LearnStrategy,2023.2.3,MacIntel,29.94011976,1,1,7,-0.044965278,-0.020176091,1,0,0,1.3239,rock_grid_rect_2,1,10,-1,-1,1.324,0.411702216,-0.246606316,1,0,0,6.1897,Gabbro_rect,4,6.19,0,6,0,6,0,1,,,,,,,,,,,,,
667738cf3ba707b3ca359a59,TCR,2024-06-24_14h35.47.431,LearnStrategy,2023.2.3,MacIntel,29.94011976,1,1,8,-0.016158234,0.019915675,1,0,0,1.1641,rock_grid_rect_2,3,11,-1,-1,1.164,0.131084656,-0.239484127,1,0,0,3.7585,Diorite_rect,3,3.758,1,7,0,7,0,1,,,,,,,,,,,,,
667738cf3ba707b3ca359a59,TCR,2024-06-24_14h35.47.431,LearnStrategy,2023.2.3,MacIntel,29.94011976,1,1,9,-0.054712302,-0.015806878,1,0,0,1.2622,rock_grid_rect_2,6,16,-1,-1,1.262,-0.142960483,-0.253145668,1,0,0,8.4234,Basalt_rect,2,8.423,0,8,0,8,0,1,,,,,,,,,,,,,
667738cf3ba707b3ca359a59,TCR,2024-06-24_14h35.47.431,LearnStrategy,2023.2.3,MacIntel,29.94011976,1,1,10,0.032783565,-0.012834821,1,0,0,0.9992,rock_grid_rect_2,2,10,-1,-1,0.999,0.398317626,-0.245200893,1,0,0,3.5176,Gabbro_rect,4,3.518,0,9,0,9,0,1,,,,,,,,,,,,,
667738cf3ba707b3ca359a59,TCR,2024-06-24_14h35.47.431,LearnStrategy,2023.2.3,MacIntel,29.94011976,1,1,11,-0.055394345,0.010474537,1,0,0,2.598,rock_grid_rect_2,5,07,-1,-1,2.598,-0.396077216,-0.390608466,1,0,0,9.4503,Obsidian_rect,5,9.45,1,10,0,10,0,1,,,,,,,,,,,,,
667738cf3ba707b3ca359a59,TCR,2024-06-24_14h35.47.431,LearnStrategy,2023.2.3,MacIntel,29.94011976,1,1,12,0.138210979,-0.001942791,1,0,0,2.0594,rock_grid_rect_2,6,03,-1,-1,2.059,0.145754795,-0.393427579,1,0,0,19.9342,Peridotite_rect,7,19.934,0,11,0,11,0,1,,,,,,,,,,,,,
667738cf3ba707b3ca359a59,TCR,2024-06-24_14h35.47.431,LearnStrategy,2023.2.3,MacIntel,29.94011976,1,1,13,-0.055315807,-0.003881448,1,0,0,1.1884,rock_grid_rect_2,7,06,-1,-1,1.188,-0.348619378,-0.238810351,1,0,0,4.9213,Andesite_rect,1,4.921,0,12,0,12,0,1,,,,,,,,,,,,,
667738cf3ba707b3ca359a59,TCR,2024-06-24_14h35.47.431,LearnStrategy,2023.2.3,MacIntel,29.94011976,1,1,14,0.071378968,0.001223545,1,0,0,3.2267,rock_grid_rect_2,5,11,-1,-1,3.227,-0.342253638,-0.402211475,1,0,0,1.9262,Obsidian_rect,5,1.926,1,13,0,13,0,1,,,,,,,,,,,,,
667738cf3ba707b3ca359a59,TCR,2024-06-24_14h35.47.431,LearnStrategy,2023.2.3,MacIntel,29.94011976,1,1,15,0.085073578,0.003062996,1,0,0,1.0632,rock_grid_rect_2,2,11,-1,-1,1.063,0.385958168,-0.409722222,1,0,0,2.2245,Pumice_rect,8,2.224,0,14,0,14,0,1,,,,,,,,,,,,,
667738cf3ba707b3ca359a59,TCR,2024-06-24_14h35.47.431,LearnStrategy,2023.2.3,MacIntel,29.94011976,1,1,16,-0.024289021,0.004365079,1,0,0,1.2971,rock_grid_rect_2,8,10,-1,-1,1.297,-0.351231812,-0.25297619,1,0,0,4.9161,Andesite_rect,1,4.916,0,15,0,15,0,1,,,,,,,,,,,,,
667738cf3ba707b3ca359a59,TCR,2024-06-24_14h35.47.431,LearnStrategy,2023.2.3,MacIntel,29.94011976,1,2,1,,,,,,,,1,16,,,,,,,,,,,3,148.25,0,,,,,,0.154071594,-0.270895337,1,0,0,148.25,Diorite_rect,0,0,0,0,1,
667738cf3ba707b3ca359a59,TCR,2024-06-24_14h35.47.431,LearnStrategy,2023.2.3,MacIntel,29.94011976,1,2,2,,,,,,,,3,12,,,,,,,,,,,6,50.885,0,,,,,,-0.157291667,-0.399611442,1,0,0,50.8848,Pegmatite_rect,1,0,1,0,1,
667738cf3ba707b3ca359a59,TCR,2024-06-24_14h35.47.431,LearnStrategy,2023.2.3,MacIntel,29.94011976,1,2,3,,,,,,,,8,02,,,,,,,,,,,8,5.512,1,,,,,,0.361057374,-0.40396412,1,0,0,5.5117,Pumice_rect,2,0,2,0,1,
667738cf3ba707b3ca359a59,TCR,2024-06-24_14h35.47.431,LearnStrategy,2023.2.3,MacIntel,29.94011976,1,2,4,,,,,,,,8,15,,,,,,,,,,,8,27.861,1,,,,,,0.333577216,-0.396891534,1,0,0,27.8612,Pumice_rect,3,0,3,0,1,
667738cf3ba707b3ca359a59,TCR,2024-06-24_14h35.47.431,LearnStrategy,2023.2.3,MacIntel,29.94011976,1,2,5,,,,,,,,2,09,,,,,,,,,,,2,39.689,1,,,,,,-0.150281085,-0.245188492,1,0,0,39.6895,Basalt_rect,4,0,4,0,1,
667738cf3ba707b3ca359a59,TCR,2024-06-24_14h35.47.431,LearnStrategy,2023.2.3,MacIntel,29.94011976,1,2,6,,,,,,,,5,04,,,,,,,,,,,5,1.424,1,,,,,,-0.458428406,-0.409970238,1,0,0,1.4241,Obsidian_rect,5,0,5,0,1,
667738cf3ba707b3ca359a59,TCR,2024-06-24_14h35.47.431,LearnStrategy,2023.2.3,MacIntel,29.94011976,1,2,7,,,,,,,,5,12,,,,,,,,,,,5,1.692,1,,,,,,-0.458428406,-0.409970238,1,0,0,1.6922,Obsidian_rect,6,0,6,0,1,
667738cf3ba707b3ca359a59,TCR,2024-06-24_14h35.47.431,LearnStrategy,2023.2.3,MacIntel,29.94011976,1,2,8,,,,,,,,4,03,,,,,,,,,,,3,30.984,0,,,,,,0.197937335,-0.257233796,1,0,0,30.9841,Diorite_rect,7,0,7,0,1,
667738cf3ba707b3ca359a59,TCR,2024-06-24_14h35.47.431,LearnStrategy,2023.2.3,MacIntel,29.94011976,1,2,9,,,,,,,,3,08,,,,,,,,,,,6,36.321,0,,,,,,-0.137107308,-0.389765212,1,0,0,36.321,Pegmatite_rect,8,0,8,0,1,
667738cf3ba707b3ca359a59,TCR,2024-06-24_14h35.47.431,LearnStrategy,2023.2.3,MacIntel,29.94011976,1,2,10,,,,,,,,7,14,,,,,,,,,,,7,19.709,1,,,,,,0.04609375,-0.390835813,1,0,0,19.7091,Peridotite_rect,9,0,9,0,1,
667738cf3ba707b3ca359a59,TCR,2024-06-24_14h35.47.431,LearnStrategy,2023.2.3,MacIntel,29.94011976,1,2,11,,,,,,,,1,06,,,,,,,,,,,1,101.449,1,,,,,,-0.308788029,-0.260652282,1,0,0,101.4489,Andesite_rect,10,0,10,0,1,
667738cf3ba707b3ca359a59,TCR,2024-06-24_14h35.47.431,LearnStrategy,2023.2.3,MacIntel,29.94011976,1,2,12,,,,,,,,6,08,,,,,,,,,,,6,21.792,1,,,,,,-0.200868056,-0.389277447,1,0,0,21.7916,Pegmatite_rect,11,0,11,0,1,
667738cf3ba707b3ca359a59,TCR,2024-06-24_14h35.47.431,LearnStrategy,2023.2.3,MacIntel,29.94011976,1,2,13,,,,,,,,7,07,,,,,,,,,,,7,14.45,1,,,,,,0.100748181,-0.392365245,1,0,0,14.4503,Peridotite_rect,12,0,12,0,1,
667738cf3ba707b3ca359a59,TCR,2024-06-24_14h35.47.431,LearnStrategy,2023.2.3,MacIntel,29.94011976,1,2,14,,,,,,,,6,09,,,,,,,,,,,6,2.021,1,,,,,,-0.084937169,-0.388500331,1,0,0,2.0209,Pegmatite_rect,13,0,13,0,1,
667738cf3ba707b3ca359a59,TCR,2024-06-24_14h35.47.431,LearnStrategy,2023.2.3,MacIntel,29.94011976,1,2,15,,,,,,,,2,02,,,,,,,,,,,1,3.382,0,,,,,,-0.340914352,-0.244584987,1,0,0,3.3819,Andesite_rect,14,0,14,0,1,
667738cf3ba707b3ca359a59,TCR,2024-06-24_14h35.47.431,LearnStrategy,2023.2.3,MacIntel,29.94011976,1,2,16,,,,,,,,4,08,,,,,,,,,,,3,18.327,0,,,,,,0.088380456,-0.251880787,1,0,0,18.3274,Diorite_rect,15,0,15,0,1,
667738cf3ba707b3ca359a59,TCR,2024-06-24_14h35.47.431,LearnStrategy,2023.2.3,MacIntel,29.94011976,2,1,1,-0.107713294,-0.007436343,1,0,0,11.6224,rock_grid_rect_2,4,05,-1,-1,11.622,0.097061012,-0.406258267,1,0,0,21.9256,Peridotite_rect,7,21.926,0,0,0,0,0,1,,,,,,,,,,,,,
667738cf3ba707b3ca359a59,TCR,2024-06-24_14h35.47.431,LearnStrategy,2023.2.3,MacIntel,29.94011976,2,1,2,-0.007027116,0.003141534,1,0,0,1.1211,rock_grid_rect_2,6,03,-1,-1,1.121,-0.142873677,-0.415815146,1,0,0,21.3776,Pegmatite_rect,6,21.378,1,1,0,1,0,1,,,,,,,,,,,,,
667738cf3ba707b3ca359a59,TCR,2024-06-24_14h35.47.431,LearnStrategy,2023.2.3,MacIntel,29.94011976,2,1,3,-0.082899306,0.001326885,1,0,0,1.0913,rock_grid_rect_2,4,13,-1,-1,1.091,-0.139860284,-0.234759425,1,0,0,13.2577,Basalt_rect,2,13.258,0,2,0,2,0,1,,,,,,,,,,,,,
667738cf3ba707b3ca359a59,TCR,2024-06-24_14h35.47.431,LearnStrategy,2023.2.3,MacIntel,29.94011976,2,1,4,-0.047858796,-0.000768849,1,0,0,1.0992,rock_grid_rect_2,4,14,-1,-1,1.099,0.383924438,-0.257477679,1,0,0,13.9597,Gabbro_rect,4,13.96,1,3,0,3,0,1,,,,,,,,,,,,,
667738cf3ba707b3ca359a59,TCR,2024-06-24_14h35.47.431,LearnStrategy,2023.2.3,MacIntel,29.94011976,2,1,5,-0.011280589,-0.016691468,1,0,0,1.0207,rock_grid_rect_2,1,07,-1,-1,1.021,0.117514054,-0.242873677,1,0,0,19.2209,Diorite_rect,3,19.221,0,4,0,4,0,1,,,,,,,,,,,,,
667738cf3ba707b3ca359a59,TCR,2024-06-24_14h35.47.431,LearnStrategy,2023.2.3,MacIntel,29.94011976,2,1,6,0.031762566,-0.019874339,1,0,0,0.9635,rock_grid_rect_2,3,14,-1,-1,0.963,0.114033565,-0.247019676,1,0,0,15.5163,Diorite_rect,3,15.516,1,5,0,5,0,1,,,,,,,,,,,,,
667738cf3ba707b3ca359a59,TCR,2024-06-24_14h35.47.431,LearnStrategy,2023.2.3,MacIntel,29.94011976,2,1,7,0.046548446,-0.009379134,1,0,0,1.5543,rock_grid_rect_2,3,07,-1,-1,1.554,0.127132937,-0.238409392,1,0,0,0.9896,Diorite_rect,3,0.99,1,6,0,6,0,1,,,,,,,,,,,,,
667738cf3ba707b3ca359a59,TCR,2024-06-24_14h35.47.431,LearnStrategy,2023.2.3,MacIntel,29.94011976,2,1,8,-0.014293981,-0.014260913,1,0,0,1.0277,rock_grid_rect_2,8,14,-1,-1,1.028,0.39255539,-0.388058036,1,0,0,4.5519,Pumice_rect,8,4.552,1,7,0,7,0,1,,,,,,,,,,,,,
667738cf3ba707b3ca359a59,TCR,2024-06-24_14h35.47.431,LearnStrategy,2023.2.3,MacIntel,29.94011976,2,1,9,0.008829365,-0.008308532,1,0,0,0.7959,rock_grid_rect_2,1,03,-1,-1,0.796,-0.186164848,-0.242100694,1,0,0,10.8715,Basalt_rect,2,10.871,0,8,0,8,0,1,,,,,,,,,,,,,
667738cf3ba707b3ca359a59,TCR,2024-06-24_14h35.47.431,LearnStrategy,2023.2.3,MacIntel,29.94011976,2,1,10,0.013479663,-0.00306713,1,0,0,1.5253,rock_grid_rect_2,2,06,-1,-1,1.525,-0.051426091,-0.231051587,1,0,0,1.9588,Basalt_rect,2,1.959,1,9,0,9,0,1,,,,,,,,,,,,,
667738cf3ba707b3ca359a59,TCR,2024-06-24_14h35.47.431,LearnStrategy,2023.2.3,MacIntel,29.94011976,2,1,11,0.055824239,0.013603671,1,0,0,0.799,rock_grid_rect_2,3,09,-1,-1,0.799,0.172375165,-0.230679563,1,0,0,1.359,Diorite_rect,3,1.359,1,10,0,10,0,1,,,,,,,,,,,,,
667738cf3ba707b3ca359a59,TCR,2024-06-24_14h35.47.431,LearnStrategy,2023.2.3,MacIntel,29.94011976,2,1,12,-0.005510086,0.019704861,1,0,0,0.7667,rock_grid_rect_2,3,09,-1,-1,0.767,0.085090112,-0.228885582,1,0,0,0.8615,Diorite_rect,3,0.861,1,11,0,11,0,1,,,,,,,,,,,,,
667738cf3ba707b3ca359a59,TCR,2024-06-24_14h35.47.431,LearnStrategy,2023.2.3,MacIntel,29.94011976,2,1,13,0.035846561,0.006105324,1,0,0,1.0623,rock_grid_rect_2,1,05,-1,-1,1.062,-0.345180225,-0.257105655,1,0,0,5.3506,Andesite_rect,1,5.351,1,12,0,12,0,1,,,,,,,,,,,,,
667738cf3ba707b3ca359a59,TCR,2024-06-24_14h35.47.431,LearnStrategy,2023.2.3,MacIntel,29.94011976,2,1,14,-0.022672784,0.019303902,1,0,0,1.1303,rock_grid_rect_2,3,11,-1,-1,1.13,0.136904762,-0.270858135,1,0,0,1.1903,Diorite_rect,3,1.19,1,13,0,13,0,1,,,,,,,,,,,,,
667738cf3ba707b3ca359a59,TCR,2024-06-24_14h35.47.431,LearnStrategy,2023.2.3,MacIntel,29.94011976,2,1,15,0.025462963,-0.010557209,1,0,0,0.823,rock_grid_rect_2,2,05,-1,-1,0.823,-0.113764881,-0.254774306,1,0,0,4.4084,Basalt_rect,2,4.408,1,14,0,14,0,1,,,,,,,,,,,,,
667738cf3ba707b3ca359a59,TCR,2024-06-24_14h35.47.431,LearnStrategy,2023.2.3,MacIntel,29.94011976,2,1,16,-0.009511409,-0.005853175,1,0,0,0.8574,rock_grid_rect_2,4,12,-1,-1,0.857,0.13921131,-0.250710979,1,0,0,8.8381,Diorite_rect,3,8.838,0,15,0,15,0,1,,,,,,,,,,,,,
667738cf3ba707b3ca359a59,TCR,2024-06-24_14h35.47.431,LearnStrategy,2023.2.3,MacIntel,29.94011976,2,2,1,,,,,,,,5,14,,,,,,,,,,,5,1.029,1,,,,,,-0.39468006,-0.417687665,1,0,0,1.0285,Obsidian_rect,0,0,0,0,1,
667738cf3ba707b3ca359a59,TCR,2024-06-24_14h35.47.431,LearnStrategy,2023.2.3,MacIntel,29.94011976,2,2,2,,,,,,,,5,02,,,,,,,,,,,5,1.63,1,,,,,,-0.397387566,-0.414099702,1,0,0,1.6297,Obsidian_rect,1,0,1,0,1,
667738cf3ba707b3ca359a59,TCR,2024-06-24_14h35.47.431,LearnStrategy,2023.2.3,MacIntel,29.94011976,2,2,3,,,,,,,,4,15,,,,,,,,,,,4,1.924,1,,,,,,0.351508763,-0.264794147,1,0,0,1.9236,Gabbro_rect,2,0,2,0,1,
667738cf3ba707b3ca359a59,TCR,2024-06-24_14h35.47.431,LearnStrategy,2023.2.3,MacIntel,29.94011976,2,2,4,,,,,,,,1,01,,,,,,,,,,,4,3.22,0,,,,,,0.34458912,-0.245043816,1,0,0,3.22,Gabbro_rect,3,0,3,0,1,
667738cf3ba707b3ca359a59,TCR,2024-06-24_14h35.47.431,LearnStrategy,2023.2.3,MacIntel,29.94011976,2,2,5,,,,,,,,8,03,,,,,,,,,,,8,1.258,1,,,,,,0.361805556,-0.403955853,1,0,0,1.2575,Pumice_rect,4,0,4,0,1,
667738cf3ba707b3ca359a59,TCR,2024-06-24_14h35.47.431,LearnStrategy,2023.2.3,MacIntel,29.94011976,2,2,6,,,,,,,,3,10,,,,,,,,,,,3,0.862,1,,,,,,0.114256779,-0.261288856,1,0,0,0.8618,Diorite_rect,5,0,5,0,1,
667738cf3ba707b3ca359a59,TCR,2024-06-24_14h35.47.431,LearnStrategy,2023.2.3,MacIntel,29.94011976,2,2,7,,,,,,,,7,05,,,,,,,,,,,7,1.154,1,,,,,,0.140472057,-0.391054894,1,0,0,1.1539,Peridotite_rect,6,0,6,0,1,
667738cf3ba707b3ca359a59,TCR,2024-06-24_14h35.47.431,LearnStrategy,2023.2.3,MacIntel,29.94011976,2,2,8,,,,,,,,8,06,,,,,,,,,,,8,1.285,1,,,,,,0.370027282,-0.415141369,1,0,0,1.2852,Pumice_rect,7,0,7,0,1,
667738cf3ba707b3ca359a59,TCR,2024-06-24_14h35.47.431,LearnStrategy,2023.2.3,MacIntel,29.94011976,2,2,9,,,,,,,,4,01,,,,,,,,,,,4,25.568,1,,,,,,0.394560185,-0.270605985,1,0,0,25.5684,Gabbro_rect,8,0,8,0,1,
667738cf3ba707b3ca359a59,TCR,2024-06-24_14h35.47.431,LearnStrategy,2023.2.3,MacIntel,29.94011976,2,2,10,,,,,,,,3,15,,,,,,,,,,,3,1.995,1,,,,,,0.084656085,-0.239174107,1,0,0,1.9952,Diorite_rect,9,0,9,0,1,
667738cf3ba707b3ca359a59,TCR,2024-06-24_14h35.47.431,LearnStrategy,2023.2.3,MacIntel,29.94011976,2,2,11,,,,,,,,6,07,,,,,,,,,,,6,1.276,1,,,,,,-0.113450728,-0.403749173,1,0,0,1.2764,Pegmatite_rect,10,0,10,0,1,
667738cf3ba707b3ca359a59,TCR,2024-06-24_14h35.47.431,LearnStrategy,2023.2.3,MacIntel,29.94011976,2,2,12,,,,,,,,6,13,,,,,,,,,,,6,1.128,1,,,,,,-0.079774306,-0.414984292,1,0,0,1.1281,Pegmatite_rect,11,0,11,0,1,
667738cf3ba707b3ca359a59,TCR,2024-06-24_14h35.47.431,LearnStrategy,2023.2.3,MacIntel,29.94011976,2,2,13,,,,,,,,7,02,,,,,,,,,,,7,1.164,1,,,,,,0.10442295,-0.412909226,1,0,0,1.1637,Peridotite_rect,12,0,12,0,1,
667738cf3ba707b3ca359a59,TCR,2024-06-24_14h35.47.431,LearnStrategy,2023.2.3,MacIntel,29.94011976,2,2,14,,,,,,,,1,09,,,,,,,,,,,1,2.026,1,,,,,,-0.387723214,-0.236499669,1,0,0,2.0257,Andesite_rect,13,0,13,0,1,
667738cf3ba707b3ca359a59,TCR,2024-06-24_14h35.47.431,LearnStrategy,2023.2.3,MacIntel,29.94011976,2,2,15,,,,,,,,2,04,,,,,,,,,,,2,1.155,1,,,,,,-0.142795139,-0.253856647,1,0,0,1.1546,Basalt_rect,14,0,14,0,1,
667738cf3ba707b3ca359a59,TCR,2024-06-24_14h35.47.431,LearnStrategy,2023.2.3,MacIntel,29.94011976,2,2,16,,,,,,,,2,12,,,,,,,,,,,2,18.484,1,,,,,,-0.190856481,-0.260838294,1,0,0,18.4835,Basalt_rect,15,0,15,0,1,
667738cf3ba707b3ca359a59,TCR,2024-06-24_14h35.47.431,LearnStrategy,2023.2.3,MacIntel,29.94011976,3,1,1,0.125099206,0.005030589,1,0,0,2.7929,rock_grid_rect_2,1,02,-1,-1,2.793,-0.379344411,-0.234606481,1,0,0,12.4909,Andesite_rect,1,12.491,1,0,0,0,0,1,,,,,,,,,,,,,
667738cf3ba707b3ca359a59,TCR,2024-06-24_14h35.47.431,LearnStrategy,2023.2.3,MacIntel,29.94011976,3,1,2,0.063888889,0.022234623,1,0,0,0.8607,rock_grid_rect_2,1,07,-1,-1,0.861,-0.33968254,-0.237996032,1,0,0,4.1231,Andesite_rect,1,4.123,1,1,0,1,0,1,,,,,,,,,,,,,
667738cf3ba707b3ca359a59,TCR,2024-06-24_14h35.47.431,LearnStrategy,2023.2.3,MacIntel,29.94011976,3,1,3,0.018444114,-0.005038856,1,0,0,0.8621,rock_grid_rect_2,7,16,-1,-1,0.862,0.16020172,-0.400442295,1,0,0,1.187,Peridotite_rect,7,1.187,1,2,0,2,0,1,,,,,,,,,,,,,
667738cf3ba707b3ca359a59,TCR,2024-06-24_14h35.47.431,LearnStrategy,2023.2.3,MacIntel,29.94011976,3,1,4,0.037330522,-0.005481151,1,0,0,1.4329,rock_grid_rect_2,4,14,-1,-1,1.433,0.4,-0.246155754,1,0,0,1.0606,Gabbro_rect,4,1.061,1,3,0,3,0,1,,,,,,,,,,,,,
667738cf3ba707b3ca359a59,TCR,2024-06-24_14h35.47.431,LearnStrategy,2023.2.3,MacIntel,29.94011976,3,1,5,0.030683697,0.006659226,1,0,0,0.9312,rock_grid_rect_2,3,06,-1,-1,0.931,0.114777612,-0.229026124,1,0,0,1.4285,Diorite_rect,3,1.428,1,4,0,4,0,1,,,,,,,,,,,,,
667738cf3ba707b3ca359a59,TCR,2024-06-24_14h35.47.431,LearnStrategy,2023.2.3,MacIntel,29.94011976,3,1,6,0.041778274,0.008337467,1,0,0,0.8317,rock_grid_rect_2,2,16,-1,-1,0.832,0.40057457,-0.238227513,1,0,0,1.0163,Gabbro_rect,4,1.016,0,5,0,5,0,1,,,,,,,,,,,,,
667738cf3ba707b3ca359a59,TCR,2024-06-24_14h35.47.431,LearnStrategy,2023.2.3,MacIntel,29.94011976,3,1,7,0.030295139,-0.009093915,1,0,0,0.7925,rock_grid_rect_2,3,06,-1,-1,0.793,-0.403616898,-0.236164848,1,0,0,1.5934,Andesite_rect,1,1.593,0,6,0,6,0,1,,,,,,,,,,,,,
667738cf3ba707b3ca359a59,TCR,2024-06-24_14h35.47.431,LearnStrategy,2023.2.3,MacIntel,29.94011976,3,1,8,0.029394015,-0.020849868,1,0,0,0.6994,rock_grid_rect_2,4,12,-1,-1,0.699,-0.07041584,-0.247635582,1,0,0,2.8891,Basalt_rect,2,2.889,0,7,0,7,0,1,,,,,,,,,,,,,
667738cf3ba707b3ca359a59,TCR,2024-06-24_14h35.47.431,LearnStrategy,2023.2.3,MacIntel,29.94011976,3,1,9,0.090761409,0.01848545,1,0,0,0.9267,rock_grid_rect_2,2,06,-1,-1,0.927,-0.108155589,-0.237574405,1,0,0,0.8909,Basalt_rect,2,0.891,1,8,0,8,0,1,,,,,,,,,,,,,
667738cf3ba707b3ca359a59,TCR,2024-06-24_14h35.47.431,LearnStrategy,2023.2.3,MacIntel,29.94011976,3,1,10,0.046651786,0.000785384,1,0,0,0.9609,rock_grid_rect_2,1,07,-1,-1,0.961,-0.415997024,-0.23077877,1,0,0,3.0578,Andesite_rect,1,3.058,1,9,0,9,0,1,,,,,,,,,,,,,
667738cf3ba707b3ca359a59,TCR,2024-06-24_14h35.47.431,LearnStrategy,2023.2.3,MacIntel,29.94011976,3,1,11,0.058746693,-0.017195767,1,0,0,1.2626,rock_grid_rect_2,1,10,-1,-1,1.263,0.360912698,-0.264041832,1,0,0,3.689,Gabbro_rect,4,3.689,0,10,0,10,0,1,,,,,,,,,,,,,
667738cf3ba707b3ca359a59,TCR,2024-06-24_14h35.47.431,LearnStrategy,2023.2.3,MacIntel,29.94011976,3,1,12,0.077972057,0.019535384,1,0,0,0.7906,rock_grid_rect_2,4,16,-1,-1,0.791,0.388760747,-0.237785218,1,0,0,2.0576,Gabbro_rect,4,2.058,1,11,0,11,0,1,,,,,,,,,,,,,
667738cf3ba707b3ca359a59,TCR,2024-06-24_14h35.47.431,LearnStrategy,2023.2.3,MacIntel,29.94011976,3,1,13,-0.005596892,-0.000657242,1,0,0,0.8007,rock_grid_rect_2,8,14,-1,-1,0.801,0.342414848,-0.41343006,1,0,0,1.4919,Pumice_rect,8,1.492,1,12,0,12,0,1,,,,,,,,,,,,,
667738cf3ba707b3ca359a59,TCR,2024-06-24_14h35.47.431,LearnStrategy,2023.2.3,MacIntel,29.94011976,3,1,14,0.08813244,-0.011214451,1,0,0,1.2319,rock_grid_rect_2,5,06,-1,-1,1.232,-0.369212963,-0.395233962,1,0,0,1.1239,Obsidian_rect,5,1.124,1,13,0,13,0,1,,,,,,,,,,,,,
667738cf3ba707b3ca359a59,TCR,2024-06-24_14h35.47.431,LearnStrategy,2023.2.3,MacIntel,29.94011976,3,1,15,0.07593006,-0.000450562,1,0,0,1.1218,rock_grid_rect_2,3,16,-1,-1,1.122,0.089190642,-0.254447751,1,0,0,1.8923,Diorite_rect,3,1.892,1,14,0,14,0,1,,,,,,,,,,,,,
667738cf3ba707b3ca359a59,TCR,2024-06-24_14h35.47.431,LearnStrategy,2023.2.3,MacIntel,29.94011976,3,1,16,0.016832011,-0.023830192,1,0,0,1.1208,rock_grid_rect_2,6,15,-1,-1,1.121,-0.100132275,-0.402872851,1,0,0,1.1557,Pegmatite_rect,6,1.156,1,15,0,15,0,1,,,,,,,,,,,,,
667738cf3ba707b3ca359a59,TCR,2024-06-24_14h35.47.431,LearnStrategy,2023.2.3,MacIntel,29.94011976,3,2,1,,,,,,,,3,02,,,,,,,,,,,3,5.18,1,,,,,,0.11312004,-0.237487599,1,0,0,5.1801,Diorite_rect,0,0,0,0,1,
667738cf3ba707b3ca359a59,TCR,2024-06-24_14h35.47.431,LearnStrategy,2023.2.3,MacIntel,29.94011976,3,2,2,,,,,,,,6,05,,,,,,,,,,,6,1.185,1,,,,,,-0.1078125,-0.394866071,1,0,0,1.1846,Pegmatite_rect,1,0,1,0,1,
667738cf3ba707b3ca359a59,TCR,2024-06-24_14h35.47.431,LearnStrategy,2023.2.3,MacIntel,29.94011976,3,2,3,,,,,,,,1,04,,,,,,,,,,,1,2.122,1,,,,,,-0.335763889,-0.236875827,1,0,0,2.1224,Andesite_rect,2,0,2,0,1,
667738cf3ba707b3ca359a59,TCR,2024-06-24_14h35.47.431,LearnStrategy,2023.2.3,MacIntel,29.94011976,3,2,4,,,,,,,,2,14,,,,,,,,,,,4,1.218,0,,,,,,0.503608631,-0.246412037,1,0,0,1.2183,Gabbro_rect,3,0,3,0,1,
667738cf3ba707b3ca359a59,TCR,2024-06-24_14h35.47.431,LearnStrategy,2023.2.3,MacIntel,29.94011976,3,2,5,,,,,,,,5,05,,,,,,,,,,,5,3.354,1,,,,,,-0.325396825,-0.379662698,1,0,0,3.3543,Obsidian_rect,4,0,4,0,1,
667738cf3ba707b3ca359a59,TCR,2024-06-24_14h35.47.431,LearnStrategy,2023.2.3,MacIntel,29.94011976,3,2,6,,,,,,,,7,10,,,,,,,,,,,7,1.422,1,,,,,,0.156018519,-0.404050926,1,0,0,1.4221,Peridotite_rect,5,0,5,0,1,
667738cf3ba707b3ca359a59,TCR,2024-06-24_14h35.47.431,LearnStrategy,2023.2.3,MacIntel,29.94011976,3,2,7,,,,,,,,5,09,,,,,,,,,,,5,1.059,1,,,,,,-0.347424769,-0.390319114,1,0,0,1.059,Obsidian_rect,6,0,6,0,1,
667738cf3ba707b3ca359a59,TCR,2024-06-24_14h35.47.431,LearnStrategy,2023.2.3,MacIntel,29.94011976,3,2,8,,,,,,,,2,01,,,,,,,,,,,2,1.054,1,,,,,,-0.131969246,-0.259002976,1,0,0,1.054,Basalt_rect,7,0,7,0,1,
667738cf3ba707b3ca359a59,TCR,2024-06-24_14h35.47.431,LearnStrategy,2023.2.3,MacIntel,29.94011976,3,2,9,,,,,,,,4,11,,,,,,,,,,,1,5.959,0,,,,,,-0.347213955,-0.239678406,1,0,0,5.9594,Andesite_rect,8,0,8,0,1,
667738cf3ba707b3ca359a59,TCR,2024-06-24_14h35.47.431,LearnStrategy,2023.2.3,MacIntel,29.94011976,3,2,10,,,,,,,,6,06,,,,,,,,,,,6,2.488,1,,,,,,-0.118096892,-0.405663029,1,0,0,2.4879,Pegmatite_rect,9,0,9,0,1,
667738cf3ba707b3ca359a59,TCR,2024-06-24_14h35.47.431,LearnStrategy,2023.2.3,MacIntel,29.94011976,3,2,11,,,,,,,,1,14,,,,,,,,,,,1,2.049,1,,,,,,-0.336590608,-0.245300099,1,0,0,2.0486,Andesite_rect,10,0,10,0,1,
667738cf3ba707b3ca359a59,TCR,2024-06-24_14h35.47.431,LearnStrategy,2023.2.3,MacIntel,29.94011976,3,2,12,,,,,,,,8,09,,,,,,,,,,,8,1.252,1,,,,,,0.391811343,-0.407382606,1,0,0,1.2519,Pumice_rect,11,0,11,0,1,
667738cf3ba707b3ca359a59,TCR,2024-06-24_14h35.47.431,LearnStrategy,2023.2.3,MacIntel,29.94011976,3,2,13,,,,,,,,7,15,,,,,,,,,,,7,1.092,1,,,,,,0.215128968,-0.386094577,1,0,0,1.0924,Peridotite_rect,12,0,12,0,1,
667738cf3ba707b3ca359a59,TCR,2024-06-24_14h35.47.431,LearnStrategy,2023.2.3,MacIntel,29.94011976,3,2,14,,,,,,,,8,04,,,,,,,,,,,8,6.191,1,,,,,,0.369159226,-0.392311508,1,0,0,6.191,Pumice_rect,13,0,13,0,1,
667738cf3ba707b3ca359a59,TCR,2024-06-24_14h35.47.431,LearnStrategy,2023.2.3,MacIntel,29.94011976,3,2,15,,,,,,,,3,13,,,,,,,,,,,3,1.054,1,,,,,,0.049731316,-0.266282242,1,0,0,1.0544,Diorite_rect,14,0,14,0,1,
667738cf3ba707b3ca359a59,TCR,2024-06-24_14h35.47.431,LearnStrategy,2023.2.3,MacIntel,29.94011976,3,2,16,,,,,,,,4,10,,,,,,,,,,,4,8.37,1,,,,,,0.391112765,-0.243005952,1,0,0,8.3701,Gabbro_rect,15,0,15,0,1,
667738cf3ba707b3ca359a59,TCR,2024-06-24_14h35.47.431,LearnStrategy,2023.2.3,MacIntel,29.94011976,4,1,1,0.060755622,-0.009585813,1,0,0,2.8887,rock_grid_rect_2,1,05,-1,-1,2.889,-0.390972222,-0.260528274,1,0,0,4.6979,Andesite_rect,1,4.698,1,0,0,0,0,1,,,,,,,,,,,,,
667738cf3ba707b3ca359a59,TCR,2024-06-24_14h35.47.431,LearnStrategy,2023.2.3,MacIntel,29.94011976,4,1,2,-0.023569775,0.00026455,1,0,0,0.8319,rock_grid_rect_2,3,16,-1,-1,0.832,0.083647487,-0.24604828,1,0,0,2.0892,Diorite_rect,3,2.089,1,1,0,1,0,1,,,,,,,,,,,,,
667738cf3ba707b3ca359a59,TCR,2024-06-24_14h35.47.431,LearnStrategy,2023.2.3,MacIntel,29.94011976,4,1,3,0.018944279,0.001599702,1,0,0,1.1292,rock_grid_rect_2,4,14,-1,-1,1.129,0.379704034,-0.242514054,1,0,0,1.2834,Gabbro_rect,4,1.283,1,2,0,2,0,1,,,,,,,,,,,,,
667738cf3ba707b3ca359a59,TCR,2024-06-24_14h35.47.431,LearnStrategy,2023.2.3,MacIntel,29.94011976,4,1,4,0.003426753,0.0213583,1,0,0,0.7615,rock_grid_rect_2,2,11,-1,-1,0.762,-0.1427042,-0.250128142,1,0,0,6.2204,Basalt_rect,2,6.22,1,3,0,3,0,1,,,,,,,,,,,,,
667738cf3ba707b3ca359a59,TCR,2024-06-24_14h35.47.431,LearnStrategy,2023.2.3,MacIntel,29.94011976,4,1,5,-0.014058366,-0.007572751,1,0,0,0.8285,rock_grid_rect_2,2,08,-1,-1,0.829,0.296688988,-0.261412864,1,0,0,3.1355,Gabbro_rect,4,3.136,0,4,0,4,0,1,,,,,,,,,,,,,
667738cf3ba707b3ca359a59,TCR,2024-06-24_14h35.47.431,LearnStrategy,2023.2.3,MacIntel,29.94011976,4,1,6,0.099243552,0.008440807,1,0,0,1.057,rock_grid_rect_2,6,16,-1,-1,1.057,-0.090641534,-0.379567626,1,0,0,1.2301,Pegmatite_rect,6,1.23,1,5,0,5,0,1,,,,,,,,,,,,,
667738cf3ba707b3ca359a59,TCR,2024-06-24_14h35.47.431,LearnStrategy,2023.2.3,MacIntel,29.94011976,4,1,7,0.07328869,-0.022788525,1,0,0,0.9979,rock_grid_rect_2,3,11,-1,-1,0.998,0.167993552,-0.245593585,1,0,0,8.3261,Diorite_rect,3,8.326,1,6,0,6,0,1,,,,,,,,,,,,,
667738cf3ba707b3ca359a59,TCR,2024-06-24_14h35.47.431,LearnStrategy,2023.2.3,MacIntel,29.94011976,4,1,8,0.061024306,-0.012326389,1,0,0,0.999,rock_grid_rect_2,7,06,-1,-1,0.999,0.113657407,-0.389885086,1,0,0,3.3876,Peridotite_rect,7,3.388,1,7,0,7,0,1,,,,,,,,,,,,,
667738cf3ba707b3ca359a59,TCR,2024-06-24_14h35.47.431,LearnStrategy,2023.2.3,MacIntel,29.94011976,4,1,9,-0.021110284,-0.003798776,1,0,0,0.8567,rock_grid_rect_2,5,10,-1,-1,0.857,-0.384474206,-0.400305886,1,0,0,1.754,Obsidian_rect,5,1.754,1,8,0,8,0,1,,,,,,,,,,,,,
667738cf3ba707b3ca359a59,TCR,2024-06-24_14h35.47.431,LearnStrategy,2023.2.3,MacIntel,29.94011976,4,1,10,0.074061673,-0.002376819,1,0,0,1.0641,rock_grid_rect_2,8,13,-1,-1,1.064,0.404695767,-0.413140708,1,0,0,5.8209,Pumice_rect,8,5.821,1,9,0,9,0,1,,,,,,,,,,,,,
667738cf3ba707b3ca359a59,TCR,2024-06-24_14h35.47.431,LearnStrategy,2023.2.3,MacIntel,29.94011976,4,1,11,0.037247851,0.006287202,1,0,0,1.1228,rock_grid_rect_2,1,10,-1,-1,1.123,-0.326653439,-0.230663029,1,0,0,2.4471,Andesite_rect,1,2.447,1,10,0,10,0,1,,,,,,,,,,,,,
667738cf3ba707b3ca359a59,TCR,2024-06-24_14h35.47.431,LearnStrategy,2023.2.3,MacIntel,29.94011976,4,1,12,0.019932209,-0.013256448,1,0,0,1.0322,rock_grid_rect_2,4,16,-1,-1,1.032,0.403282077,-0.240414187,1,0,0,3.1508,Gabbro_rect,4,3.151,1,11,0,11,0,1,,,,,,,,,,,,,
667738cf3ba707b3ca359a59,TCR,2024-06-24_14h35.47.431,LearnStrategy,2023.2.3,MacIntel,29.94011976,4,1,13,0.041724537,0.002885251,1,0,0,7.9257,rock_grid_rect_2,4,13,-1,-1,7.926,0.386094577,-0.25166584,1,0,0,2.0923,Gabbro_rect,4,2.092,1,12,0,12,0,1,,,,,,,,,,,,,
667738cf3ba707b3ca359a59,TCR,2024-06-24_14h35.47.431,LearnStrategy,2023.2.3,MacIntel,29.94011976,4,1,14,-0.032022983,-0.0072958,1,0,0,9.3504,rock_grid_rect_2,4,05,-1,-1,9.35,0.1411417,-0.398478836,1,0,0,1.4612,Peridotite_rect,7,1.461,0,13,0,13,0,1,,,,,,,,,,,,,
667738cf3ba707b3ca359a59,TCR,2024-06-24_14h35.47.431,LearnStrategy,2023.2.3,MacIntel,29.94011976,4,1,15,0.036090443,-0.009602348,1,0,0,1.0548,rock_grid_rect_2,1,02,-1,-1,1.055,-0.361681548,-0.253616898,1,0,0,2.9236,Andesite_rect,1,2.924,1,14,0,14,0,1,,,,,,,,,,,,,
667738cf3ba707b3ca359a59,TCR,2024-06-24_14h35.47.431,LearnStrategy,2023.2.3,MacIntel,29.94011976,4,1,16,0.093204365,-0.010486938,1,0,0,1.0591,rock_grid_rect_2,2,16,-1,-1,1.059,0.381374008,-0.25458416,1,0,0,1.0941,Gabbro_rect,4,1.094,0,15,0,15,0,1,,,,,,,,,,,,,
667738cf3ba707b3ca359a59,TCR,2024-06-24_14h35.47.431,LearnStrategy,2023.2.3,MacIntel,29.94011976,4,2,1,,,,,,,,2,02,,,,,,,,,,,2,3.121,1,,,,,,-0.158998843,-0.24500248,1,0,0,3.1213,Basalt_rect,0,0,0,0,1,
667738cf3ba707b3ca359a59,TCR,2024-06-24_14h35.47.431,LearnStrategy,2023.2.3,MacIntel,29.94011976,4,2,2,,,,,,,,3,10,,,,,,,,,,,3,1.358,1,,,,,,0.128831845,-0.248594577,1,0,0,1.3578,Diorite_rect,1,0,1,0,1,
667738cf3ba707b3ca359a59,TCR,2024-06-24_14h35.47.431,LearnStrategy,2023.2.3,MacIntel,29.94011976,4,2,3,,,,,,,,7,14,,,,,,,,,,,7,1.126,1,,,,,,0.088124173,-0.397647983,1,0,0,1.1259,Peridotite_rect,2,0,2,0,1,
667738cf3ba707b3ca359a59,TCR,2024-06-24_14h35.47.431,LearnStrategy,2023.2.3,MacIntel,29.94011976,4,2,4,,,,,,,,1,06,,,,,,,,,,,3,1.026,0,,,,,,0.083221726,-0.248970734,1,0,0,1.0259,Diorite_rect,3,0,3,0,1,
667738cf3ba707b3ca359a59,TCR,2024-06-24_14h35.47.431,LearnStrategy,2023.2.3,MacIntel,29.94011976,4,2,5,,,,,,,,8,09,,,,,,,,,,,8,1.024,1,,,,,,0.336321925,-0.385057044,1,0,0,1.0241,Pumice_rect,4,0,4,0,1,
667738cf3ba707b3ca359a59,TCR,2024-06-24_14h35.47.431,LearnStrategy,2023.2.3,MacIntel,29.94011976,4,2,6,,,,,,,,6,06,,,,,,,,,,,6,0.925,1,,,,,,-0.141439319,-0.420403439,1,0,0,0.925,Pegmatite_rect,5,0,5,0,1,
667738cf3ba707b3ca359a59,TCR,2024-06-24_14h35.47.431,LearnStrategy,2023.2.3,MacIntel,29.94011976,4,2,7,,,,,,,,5,09,,,,,,,,,,,5,0.959,1,,,,,,-0.414541997,-0.392666997,1,0,0,0.9592,Obsidian_rect,6,0,6,0,1,
667738cf3ba707b3ca359a59,TCR,2024-06-24_14h35.47.431,LearnStrategy,2023.2.3,MacIntel,29.94011976,4,2,8,,,,,,,,6,13,,,,,,,,,,,6,2.114,1,,,,,,-0.153236607,-0.402331349,1,0,0,2.114,Pegmatite_rect,7,0,7,0,1,
667738cf3ba707b3ca359a59,TCR,2024-06-24_14h35.47.431,LearnStrategy,2023.2.3,MacIntel,29.94011976,4,2,9,,,,,,,,3,12,,,,,,,,,,,3,1.192,1,,,,,,0.103240741,-0.268716931,1,0,0,1.1918,Diorite_rect,8,0,8,0,1,
667738cf3ba707b3ca359a59,TCR,2024-06-24_14h35.47.431,LearnStrategy,2023.2.3,MacIntel,29.94011976,4,2,10,,,,,,,,8,06,,,,,,,,,,,8,2.359,1,,,,,,0.388256448,-0.413818618,1,0,0,2.3591,Pumice_rect,9,0,9,0,1,
667738cf3ba707b3ca359a59,TCR,2024-06-24_14h35.47.431,LearnStrategy,2023.2.3,MacIntel,29.94011976,4,2,11,,,,,,,,4,08,,,,,,,,,,,4,4.708,1,,,,,,0.374785053,-0.232481812,1,0,0,4.708,Gabbro_rect,10,0,10,0,1,
667738cf3ba707b3ca359a59,TCR,2024-06-24_14h35.47.431,LearnStrategy,2023.2.3,MacIntel,29.94011976,4,2,12,,,,,,,,2,14,,,,,,,,,,,4,1.68,0,,,,,,0.452451224,-0.263888889,1,0,0,1.6804,Gabbro_rect,11,0,11,0,1,
667738cf3ba707b3ca359a59,TCR,2024-06-24_14h35.47.431,LearnStrategy,2023.2.3,MacIntel,29.94011976,4,2,13,,,,,,,,4,10,,,,,,,,,,,4,29.512,1,,,,,,0.358320933,-0.269345238,1,0,0,29.512,Gabbro_rect,12,0,12,0,1,
667738cf3ba707b3ca359a59,TCR,2024-06-24_14h35.47.431,LearnStrategy,2023.2.3,MacIntel,29.94011976,4,2,14,,,,,,,,7,05,,,,,,,,,,,7,0.992,1,,,,,,0.127513228,-0.41796875,1,0,0,0.9922,Peridotite_rect,13,0,13,0,1,
667738cf3ba707b3ca359a59,TCR,2024-06-24_14h35.47.431,LearnStrategy,2023.2.3,MacIntel,29.94011976,4,2,15,,,,,,,,5,05,,,,,,,,,,,5,1.293,1,,,,,,-0.357287533,-0.405026455,1,0,0,1.2934,Obsidian_rect,14,0,14,0,1,
667738cf3ba707b3ca359a59,TCR,2024-06-24_14h35.47.431,LearnStrategy,2023.2.3,MacIntel,29.94011976,4,2,16,,,,,,,,1,09,,,,,,,,,,,1,2.982,1,,,,,,-0.378873181,-0.253282077,1,0,0,2.9817,Andesite_rect,15,0,15,0,1,
667738cf3ba707b3ca359a59,TCR,2024-06-24_14h35.47.431,LearnStrategy,2023.2.3,MacIntel,29.94011976,5,1,1,0.027967923,0.015864749,1,0,0,0.6969,rock_grid_rect_2,4,05,-1,-1,0.697,0.397771991,-0.256526951,1,0,0,3.6884,Gabbro_rect,4,3.688,1,0,0,0,0,1,,,,,,,,,,,,,
667738cf3ba707b3ca359a59,TCR,2024-06-24_14h35.47.431,LearnStrategy,2023.2.3,MacIntel,29.94011976,5,1,2,0.058184524,-0.016517857,1,0,0,0.795,rock_grid_rect_2,5,10,-1,-1,0.795,-0.437524802,-0.387123843,1,0,0,0.9571,Obsidian_rect,5,0.957,1,1,0,1,0,1,,,,,,,,,,,,,
667738cf3ba707b3ca359a59,TCR,2024-06-24_14h35.47.431,LearnStrategy,2023.2.3,MacIntel,29.94011976,5,1,3,0.065232308,-0.008039848,1,0,0,1.087,rock_grid_rect_2,3,09,-1,-1,1.087,0.135429067,-0.236933697,1,0,0,3.1528,Diorite_rect,3,3.153,1,2,0,2,0,1,,,,,,,,,,,,,
667738cf3ba707b3ca359a59,TCR,2024-06-24_14h35.47.431,LearnStrategy,2023.2.3,MacIntel,29.94011976,5,1,4,-0.008589616,0.002145337,1,0,0,3.5913,rock_grid_rect_2,1,10,-1,-1,3.591,-0.408060516,-0.256138393,1,0,0,1.7954,Andesite_rect,1,1.795,1,3,0,3,0,1,,,,,,,,,,,,,
667738cf3ba707b3ca359a59,TCR,2024-06-24_14h35.47.431,LearnStrategy,2023.2.3,MacIntel,29.94011976,5,1,5,-0.004782573,-0.008300265,1,0,0,4.9669,rock_grid_rect_2,2,11,-1,-1,4.967,-0.340711806,-0.253947586,1,0,0,1.6579,Andesite_rect,1,1.658,0,4,0,4,0,1,,,,,,,,,,,,,
667738cf3ba707b3ca359a59,TCR,2024-06-24_14h35.47.431,LearnStrategy,2023.2.3,MacIntel,29.94011976,5,1,6,-0.001744378,-0.007986111,1,0,0,1.121,rock_grid_rect_2,3,07,-1,-1,1.121,0.165286045,-0.260619213,1,0,0,0.9625,Diorite_rect,3,0.963,1,5,0,5,0,1,,,,,,,,,,,,,
667738cf3ba707b3ca359a59,TCR,2024-06-24_14h35.47.431,LearnStrategy,2023.2.3,MacIntel,29.94011976,5,1,7,0.00322834,0.006820437,1,0,0,0.8984,rock_grid_rect_2,1,05,-1,-1,0.898,-0.362475198,-0.264595734,1,0,0,3.6889,Andesite_rect,1,3.689,1,6,0,6,0,1,,,,,,,,,,,,,
667738cf3ba707b3ca359a59,TCR,2024-06-24_14h35.47.431,LearnStrategy,2023.2.3,MacIntel,29.94011976,5,1,8,-0.006407077,-0.016906415,1,0,0,0.9287,rock_grid_rect_2,2,05,-1,-1,0.929,-0.127509094,-0.266501323,1,0,0,0.9893,Basalt_rect,2,0.989,1,7,0,7,0,1,,,,,,,,,,,,,
667738cf3ba707b3ca359a59,TCR,2024-06-24_14h35.47.431,LearnStrategy,2023.2.3,MacIntel,29.94011976,5,1,9,0.013277116,0.000793651,1,0,0,0.8317,rock_grid_rect_2,1,11,-1,-1,0.832,-0.372573578,-0.239599868,1,0,0,3.6838,Andesite_rect,1,3.684,1,8,0,8,0,1,,,,,,,,,,,,,
667738cf3ba707b3ca359a59,TCR,2024-06-24_14h35.47.431,LearnStrategy,2023.2.3,MacIntel,29.94011976,5,1,10,-0.017943948,-0.01479828,1,0,0,0.7979,rock_grid_rect_2,4,13,-1,-1,0.798,0.350363757,-0.24036045,1,0,0,1.0918,Gabbro_rect,4,1.092,1,9,0,9,0,1,,,,,,,,,,,,,
667738cf3ba707b3ca359a59,TCR,2024-06-24_14h35.47.431,LearnStrategy,2023.2.3,MacIntel,29.94011976,5,1,11,0.054679233,-0.001140873,1,0,0,0.697,rock_grid_rect_2,8,05,-1,-1,0.697,0.36235119,-0.40734127,1,0,0,1.5954,Pumice_rect,8,1.595,1,10,0,10,0,1,,,,,,,,,,,,,
667738cf3ba707b3ca359a59,TCR,2024-06-24_14h35.47.431,LearnStrategy,2023.2.3,MacIntel,29.94011976,5,1,12,0.006324405,-0.016621197,1,0,0,0.7934,rock_grid_rect_2,2,10,-1,-1,0.793,0.37557457,-0.252538029,1,0,0,3.4882,Gabbro_rect,4,3.488,0,11,0,11,0,1,,,,,,,,,,,,,
667738cf3ba707b3ca359a59,TCR,2024-06-24_14h35.47.431,LearnStrategy,2023.2.3,MacIntel,29.94011976,5,1,13,0.022800926,0.022751323,1,0,0,0.9617,rock_grid_rect_2,7,16,-1,-1,0.962,0.113310185,-0.391608796,1,0,0,2.1444,Peridotite_rect,7,2.144,1,12,0,12,0,1,,,,,,,,,,,,,
667738cf3ba707b3ca359a59,TCR,2024-06-24_14h35.47.431,LearnStrategy,2023.2.3,MacIntel,29.94011976,5,1,14,-0.009974372,0.000429894,1,0,0,0.731,rock_grid_rect_2,4,14,-1,-1,0.731,0.429220403,-0.247780258,1,0,0,2.2931,Gabbro_rect,4,2.293,1,13,0,13,0,1,,,,,,,,,,,,,
667738cf3ba707b3ca359a59,TCR,2024-06-24_14h35.47.431,LearnStrategy,2023.2.3,MacIntel,29.94011976,5,1,15,0.025388558,-0.0177042,1,0,0,0.6626,rock_grid_rect_2,6,12,-1,-1,0.663,-0.117935681,-0.400996197,1,0,0,1.2551,Pegmatite_rect,6,1.255,1,14,0,14,0,1,,,,,,,,,,,,,
667738cf3ba707b3ca359a59,TCR,2024-06-24_14h35.47.431,LearnStrategy,2023.2.3,MacIntel,29.94011976,5,1,16,0.070982143,-0.018315972,1,0,0,0.9584,rock_grid_rect_2,2,16,-1,-1,0.958,-0.065873016,-0.248635913,1,0,0,2.9835,Basalt_rect,2,2.984,1,15,0,15,0,1,,,,,,,,,,,,,
667738cf3ba707b3ca359a59,TCR,2024-06-24_14h35.47.431,LearnStrategy,2023.2.3,MacIntel,29.94011976,5,2,1,,,,,,,,2,01,,,,,,,,,,,2,1.358,1,,,,,,-0.105485284,-0.253240741,1,0,0,1.3576,Basalt_rect,0,0,0,0,1,
667738cf3ba707b3ca359a59,TCR,2024-06-24_14h35.47.431,LearnStrategy,2023.2.3,MacIntel,29.94011976,5,2,2,,,,,,,,1,04,,,,,,,,,,,1,1.09,1,,,,,,-0.344932209,-0.234441138,1,0,0,1.0897,Andesite_rect,1,0,1,0,1,
667738cf3ba707b3ca359a59,TCR,2024-06-24_14h35.47.431,LearnStrategy,2023.2.3,MacIntel,29.94011976,5,2,3,,,,,,,,7,02,,,,,,,,,,,7,0.96,1,,,,,,0.134151786,-0.401153274,1,0,0,0.9601,Peridotite_rect,2,0,2,0,1,
667738cf3ba707b3ca359a59,TCR,2024-06-24_14h35.47.431,LearnStrategy,2023.2.3,MacIntel,29.94011976,5,2,4,,,,,,,,3,08,,,,,,,,,,,3,1.461,1,,,,,,0.108523479,-0.232531415,1,0,0,1.461,Diorite_rect,3,0,3,0,1,
667738cf3ba707b3ca359a59,TCR,2024-06-24_14h35.47.431,LearnStrategy,2023.2.3,MacIntel,29.94011976,5,2,5,,,,,,,,6,08,,,,,,,,,,,6,0.986,1,,,,,,-0.215306713,-0.419456845,1,0,0,0.9865,Pegmatite_rect,4,0,4,0,1,
667738cf3ba707b3ca359a59,TCR,2024-06-24_14h35.47.431,LearnStrategy,2023.2.3,MacIntel,29.94011976,5,2,6,,,,,,,,3,02,,,,,,,,,,,3,1.261,1,,,,,,0.142042824,-0.257056052,1,0,0,1.2611,Diorite_rect,5,0,5,0,1,
667738cf3ba707b3ca359a59,TCR,2024-06-24_14h35.47.431,LearnStrategy,2023.2.3,MacIntel,29.94011976,5,2,7,,,,,,,,8,04,,,,,,,,,,,8,1.092,1,,,,,,0.421804729,-0.38656994,1,0,0,1.0925,Pumice_rect,6,0,6,0,1,
667738cf3ba707b3ca359a59,TCR,2024-06-24_14h35.47.431,LearnStrategy,2023.2.3,MacIntel,29.94011976,5,2,8,,,,,,,,4,11,,,,,,,,,,,1,3.589,0,,,,,,-0.389467593,-0.243535053,1,0,0,3.5889,Andesite_rect,7,0,7,0,1,
667738cf3ba707b3ca359a59,TCR,2024-06-24_14h35.47.431,LearnStrategy,2023.2.3,MacIntel,29.94011976,5,2,9,,,,,,,,6,05,,,,,,,,,,,6,1.679,1,,,,,,-0.12113922,-0.413711144,1,0,0,1.6792,Pegmatite_rect,8,0,8,0,1,
667738cf3ba707b3ca359a59,TCR,2024-06-24_14h35.47.431,LearnStrategy,2023.2.3,MacIntel,29.94011976,5,2,10,,,,,,,,2,12,,,,,,,,,,,1,2.893,0,,,,,,-0.353922784,-0.240116567,1,0,0,2.893,Andesite_rect,9,0,9,0,1,
667738cf3ba707b3ca359a59,TCR,2024-06-24_14h35.47.431,LearnStrategy,2023.2.3,MacIntel,29.94011976,5,2,11,,,,,,,,1,01,,,,,,,,,,,3,2.812,0,,,,,,0.081452546,-0.247461971,1,0,0,2.8123,Diorite_rect,10,0,10,0,1,
667738cf3ba707b3ca359a59,TCR,2024-06-24_14h35.47.431,LearnStrategy,2023.2.3,MacIntel,29.94011976,5,2,12,,,,,,,,8,02,,,,,,,,,,,8,1.08,1,,,,,,0.408602017,-0.384784226,1,0,0,1.0805,Pumice_rect,11,0,11,0,1,
667738cf3ba707b3ca359a59,TCR,2024-06-24_14h35.47.431,LearnStrategy,2023.2.3,MacIntel,29.94011976,5,2,13,,,,,,,,5,12,,,,,,,,,,,5,1.123,1,,,,,,-0.377339616,-0.391935351,1,0,0,1.1232,Obsidian_rect,12,0,12,0,1,
667738cf3ba707b3ca359a59,TCR,2024-06-24_14h35.47.431,LearnStrategy,2023.2.3,MacIntel,29.94011976,5,2,14,,,,,,,,5,14,,,,,,,,,,,5,0.959,1,,,,,,-0.412929894,-0.417948082,1,0,0,0.9595,Obsidian_rect,13,0,13,0,1,
667738cf3ba707b3ca359a59,TCR,2024-06-24_14h35.47.431,LearnStrategy,2023.2.3,MacIntel,29.94011976,5,2,15,,,,,,,,7,15,,,,,,,,,,,7,0.889,1,,,,,,0.099809854,-0.382093254,1,0,0,0.8895,Peridotite_rect,14,0,14,0,1,
667738cf3ba707b3ca359a59,TCR,2024-06-24_14h35.47.431,LearnStrategy,2023.2.3,MacIntel,29.94011976,5,2,16,,,,,,,,4,03,,,,,,,,,,,3,12.983,0,,,,,,0.156336806,-0.255510086,1,0,0,12.9834,Diorite_rect,15,0,15,0,1,
667738cf3ba707b3ca359a59,TCR,2024-06-24_14h35.47.431,LearnStrategy,2023.2.3,MacIntel,29.94011976,6,1,1,-0.10880043,-0.022685185,1,0,0,0.73,rock_grid_rect_2,4,05,-1,-1,0.73,0.366294643,-0.23776455,1,0,0,2.4885,Gabbro_rect,4,2.488,1,0,0,0,0,1,,,,,,,,,,,,,
667738cf3ba707b3ca359a59,TCR,2024-06-24_14h35.47.431,LearnStrategy,2023.2.3,MacIntel,29.94011976,6,1,2,0.018287037,-0.018452381,1,0,0,1.1576,rock_grid_rect_2,2,10,-1,-1,1.158,-0.151359954,-0.260011574,1,0,0,4.2592,Basalt_rect,2,4.259,1,1,0,1,0,1,,,,,,,,,,,,,
667738cf3ba707b3ca359a59,TCR,2024-06-24_14h35.47.431,LearnStrategy,2023.2.3,MacIntel,29.94011976,6,1,3,-0.025834987,-0.020597718,1,0,0,0.8533,rock_grid_rect_2,1,07,-1,-1,0.853,0.132370205,-0.250967262,1,0,0,2.7864,Diorite_rect,3,2.786,0,2,0,2,0,1,,,,,,,,,,,,,
667738cf3ba707b3ca359a59,TCR,2024-06-24_14h35.47.431,LearnStrategy,2023.2.3,MacIntel,29.94011976,6,1,4,0.024495701,-0.007105655,1,0,0,0.7654,rock_grid_rect_2,2,10,-1,-1,0.765,-0.122333829,-0.254493221,1,0,0,3.2201,Basalt_rect,2,3.22,1,3,0,3,0,1,,,,,,,,,,,,,
667738cf3ba707b3ca359a59,TCR,2024-06-24_14h35.47.431,LearnStrategy,2023.2.3,MacIntel,29.94011976,6,1,5,-0.015691138,0.021965939,1,0,0,0.8251,rock_grid_rect_2,5,16,-1,-1,0.825,-0.372094081,-0.402715774,1,0,0,0.8959,Obsidian_rect,5,0.896,1,4,0,4,0,1,,,,,,,,,,,,,
667738cf3ba707b3ca359a59,TCR,2024-06-24_14h35.47.431,LearnStrategy,2023.2.3,MacIntel,29.94011976,6,1,6,0.027732308,0.015149636,1,0,0,0.7214,rock_grid_rect_2,4,12,-1,-1,0.721,0.134098049,-0.246705522,1,0,0,2.5208,Diorite_rect,3,2.521,0,5,0,5,0,1,,,,,,,,,,,,,
667738cf3ba707b3ca359a59,TCR,2024-06-24_14h35.47.431,LearnStrategy,2023.2.3,MacIntel,29.94011976,6,1,7,0.030820106,-0.021337632,1,0,0,0.7213,rock_grid_rect_2,4,05,-1,-1,0.721,0.362111442,-0.234602348,1,0,0,1.1889,Gabbro_rect,4,1.189,1,6,0,6,0,1,,,,,,,,,,,,,
667738cf3ba707b3ca359a59,TCR,2024-06-24_14h35.47.431,LearnStrategy,2023.2.3,MacIntel,29.94011976,6,1,8,0.02536789,0.004389881,1,0,0,1.0543,rock_grid_rect_2,6,10,-1,-1,1.054,0.148317626,-0.393138228,1,0,0,1.2256,Peridotite_rect,7,1.226,0,7,0,7,0,1,,,,,,,,,,,,,
667738cf3ba707b3ca359a59,TCR,2024-06-24_14h35.47.431,LearnStrategy,2023.2.3,MacIntel,29.94011976,6,1,9,0.037020503,-0.017030423,1,0,0,0.9593,rock_grid_rect_2,1,07,-1,-1,0.959,-0.317121362,-0.246110284,1,0,0,1.2574,Andesite_rect,1,1.257,1,8,0,8,0,1,,,,,,,,,,,,,
667738cf3ba707b3ca359a59,TCR,2024-06-24_14h35.47.431,LearnStrategy,2023.2.3,MacIntel,29.94011976,6,1,10,-0.027856316,-0.003608631,1,0,0,0.8294,rock_grid_rect_2,8,10,-1,-1,0.829,0.353980655,-0.400405093,1,0,0,1.529,Pumice_rect,8,1.529,1,9,0,9,0,1,,,,,,,,,,,,,
667738cf3ba707b3ca359a59,TCR,2024-06-24_14h35.47.431,LearnStrategy,2023.2.3,MacIntel,29.94011976,6,1,11,-0.003327546,-0.017377646,1,0,0,0.856,rock_grid_rect_2,3,11,-1,-1,0.856,0.133705357,-0.23463955,1,0,0,1.9311,Diorite_rect,3,1.931,1,10,0,10,0,1,,,,,,,,,,,,,
667738cf3ba707b3ca359a59,TCR,2024-06-24_14h35.47.431,LearnStrategy,2023.2.3,MacIntel,29.94011976,6,1,12,0.047974537,-0.019770999,1,0,0,0.7938,rock_grid_rect_2,2,08,-1,-1,0.794,-0.117059358,-0.259486607,1,0,0,2.1215,Basalt_rect,2,2.121,1,11,0,11,0,1,,,,,,,,,,,,,
667738cf3ba707b3ca359a59,TCR,2024-06-24_14h35.47.431,LearnStrategy,2023.2.3,MacIntel,29.94011976,6,1,13,0.033192791,-0.013091104,1,0,0,0.6992,rock_grid_rect_2,7,04,-1,-1,0.699,-0.10114914,-0.387136243,1,0,0,2.6207,Pegmatite_rect,6,2.621,0,12,0,12,0,1,,,,,,,,,,,,,
667738cf3ba707b3ca359a59,TCR,2024-06-24_14h35.47.431,LearnStrategy,2023.2.3,MacIntel,29.94011976,6,1,14,0.006956845,-0.015666336,1,0,0,0.9586,rock_grid_rect_2,1,05,-1,-1,0.959,-0.358263062,-0.247358631,1,0,0,0.9914,Andesite_rect,1,0.991,1,13,0,13,0,1,,,,,,,,,,,,,
667738cf3ba707b3ca359a59,TCR,2024-06-24_14h35.47.431,LearnStrategy,2023.2.3,MacIntel,29.94011976,6,1,15,-0.043510251,-0.011168981,1,0,0,1.0578,rock_grid_rect_2,1,05,-1,-1,1.058,-0.412198247,-0.253029927,1,0,0,1.2547,Andesite_rect,1,1.255,1,14,0,14,0,1,,,,,,,,,,,,,
667738cf3ba707b3ca359a59,TCR,2024-06-24_14h35.47.431,LearnStrategy,2023.2.3,MacIntel,29.94011976,6,1,16,0.016782407,-0.007907573,1,0,0,0.7549,rock_grid_rect_2,4,14,-1,-1,0.755,0.363578869,-0.262177579,1,0,0,1.8272,Gabbro_rect,4,1.827,1,15,0,15,0,1,,,,,,,,,,,,,
667738cf3ba707b3ca359a59,TCR,2024-06-24_14h35.47.431,LearnStrategy,2023.2.3,MacIntel,29.94011976,6,2,1,,,,,,,,7,07,,,,,,,,,,,7,2.478,1,,,,,,0.136379795,-0.409734623,1,0,0,2.4784,Peridotite_rect,0,0,0,0,1,
667738cf3ba707b3ca359a59,TCR,2024-06-24_14h35.47.431,LearnStrategy,2023.2.3,MacIntel,29.94011976,6,2,2,,,,,,,,4,01,,,,,,,,,,,4,5.274,1,,,,,,0.389918155,-0.254257606,1,0,0,5.2745,Gabbro_rect,1,0,1,0,1,
667738cf3ba707b3ca359a59,TCR,2024-06-24_14h35.47.431,LearnStrategy,2023.2.3,MacIntel,29.94011976,6,2,3,,,,,,,,6,07,,,,,,,,,,,6,1.32,1,,,,,,-0.158110119,-0.394386574,1,0,0,1.3204,Pegmatite_rect,2,0,2,0,1,
667738cf3ba707b3ca359a59,TCR,2024-06-24_14h35.47.431,LearnStrategy,2023.2.3,MacIntel,29.94011976,6,2,4,,,,,,,,5,02,,,,,,,,,,,5,1.093,1,,,,,,-0.367489253,-0.391170635,1,0,0,1.0933,Obsidian_rect,3,0,3,0,1,
667738cf3ba707b3ca359a59,TCR,2024-06-24_14h35.47.431,LearnStrategy,2023.2.3,MacIntel,29.94011976,6,2,5,,,,,,,,6,09,,,,,,,,,,,6,1.887,1,,,,,,-0.138735946,-0.41297123,1,0,0,1.8871,Pegmatite_rect,4,0,4,0,1,
667738cf3ba707b3ca359a59,TCR,2024-06-24_14h35.47.431,LearnStrategy,2023.2.3,MacIntel,29.94011976,6,2,6,,,,,,,,1,14,,,,,,,,,,,1,1.029,1,,,,,,-0.381808036,-0.259556878,1,0,0,1.0291,Andesite_rect,5,0,5,0,1,
667738cf3ba707b3ca359a59,TCR,2024-06-24_14h35.47.431,LearnStrategy,2023.2.3,MacIntel,29.94011976,6,2,7,,,,,,,,5,04,,,,,,,,,,,5,1.295,1,,,,,,-0.344122024,-0.389703208,1,0,0,1.2947,Obsidian_rect,6,0,6,0,1,
667738cf3ba707b3ca359a59,TCR,2024-06-24_14h35.47.431,LearnStrategy,2023.2.3,MacIntel,29.94011976,6,2,8,,,,,,,,3,13,,,,,,,,,,,3,1.326,1,,,,,,0.137719081,-0.250640708,1,0,0,1.326,Diorite_rect,7,0,7,0,1,
667738cf3ba707b3ca359a59,TCR,2024-06-24_14h35.47.431,LearnStrategy,2023.2.3,MacIntel,29.94011976,6,2,9,,,,,,,,2,04,,,,,,,,,,,2,2.054,1,,,,,,-0.103773975,-0.25203373,1,0,0,2.0542,Basalt_rect,8,0,8,0,1,
667738cf3ba707b3ca359a59,TCR,2024-06-24_14h35.47.431,LearnStrategy,2023.2.3,MacIntel,29.94011976,6,2,10,,,,,,,,1,16,,,,,,,,,,,1,4.213,1,,,,,,-0.422015542,-0.23219246,1,0,0,4.2127,Andesite_rect,9,0,9,0,1,
667738cf3ba707b3ca359a59,TCR,2024-06-24_14h35.47.431,LearnStrategy,2023.2.3,MacIntel,29.94011976,6,2,11,,,,,,,,2,09,,,,,,,,,,,2,1.277,1,,,,,,-0.101946925,-0.24568039,1,0,0,1.2773,Basalt_rect,10,0,10,0,1,
667738cf3ba707b3ca359a59,TCR,2024-06-24_14h35.47.431,LearnStrategy,2023.2.3,MacIntel,29.94011976,6,2,12,,,,,,,,7,10,,,,,,,,,,,7,1.224,1,,,,,,0.122408234,-0.415550595,1,0,0,1.2243,Peridotite_rect,11,0,11,0,1,
667738cf3ba707b3ca359a59,TCR,2024-06-24_14h35.47.431,LearnStrategy,2023.2.3,MacIntel,29.94011976,6,2,13,,,,,,,,4,15,,,,,,,,,,,4,3.114,1,,,,,,0.411702216,-0.247519841,1,0,0,3.1137,Gabbro_rect,12,0,12,0,1,
667738cf3ba707b3ca359a59,TCR,2024-06-24_14h35.47.431,LearnStrategy,2023.2.3,MacIntel,29.94011976,6,2,14,,,,,,,,3,15,,,,,,,,,,,3,1.521,1,,,,,,0.123759921,-0.254501488,1,0,0,1.5209,Diorite_rect,13,0,13,0,1,
667738cf3ba707b3ca359a59,TCR,2024-06-24_14h35.47.431,LearnStrategy,2023.2.3,MacIntel,29.94011976,6,2,15,,,,,,,,8,03,,,,,,,,,,,8,1.125,1,,,,,,0.347222222,-0.379013724,1,0,0,1.1254,Pumice_rect,14,0,14,0,1,
667738cf3ba707b3ca359a59,TCR,2024-06-24_14h35.47.431,LearnStrategy,2023.2.3,MacIntel,29.94011976,6,2,16,,,,,,,,8,15,,,,,,,,,,,8,4.292,1,,,,,,0.337900959,-0.396440972,1,0,0,4.2923,Pumice_rect,15,0,15,0,1,
667738cf3ba707b3ca359a59,TCR,2024-06-24_14h35.47.431,LearnStrategy,2023.2.3,MacIntel,29.94011976,7,1,1,0.008213459,-0.005993717,1,0,0,0.9977,rock_grid_rect_2,4,05,-1,-1,0.998,0.395849868,-0.258043981,1,0,0,1.5923,Gabbro_rect,4,1.592,1,0,0,0,0,1,,,,,,,,,,,,,
667738cf3ba707b3ca359a59,TCR,2024-06-24_14h35.47.431,LearnStrategy,2023.2.3,MacIntel,29.94011976,7,1,2,0.026397156,-0.007618221,1,0,0,0.8602,rock_grid_rect_2,1,10,-1,-1,0.86,-0.421387235,-0.265298446,1,0,0,1.3923,Andesite_rect,1,1.392,1,1,0,1,0,1,,,,,,,,,,,,,
667738cf3ba707b3ca359a59,TCR,2024-06-24_14h35.47.431,LearnStrategy,2023.2.3,MacIntel,29.94011976,7,1,3,0.051748512,0.000859788,1,0,0,0.964,rock_grid_rect_2,1,03,-1,-1,0.964,-0.366282242,-0.256345073,1,0,0,3.0828,Andesite_rect,1,3.083,1,2,0,2,0,1,,,,,,,,,,,,,
667738cf3ba707b3ca359a59,TCR,2024-06-24_14h35.47.431,LearnStrategy,2023.2.3,MacIntel,29.94011976,7,1,4,0.015290179,0.011586475,1,0,0,1.1991,rock_grid_rect_2,2,06,-1,-1,1.199,-0.142257771,-0.241249173,1,0,0,3.6578,Basalt_rect,2,3.658,1,3,0,3,0,1,,,,,,,,,,,,,
667738cf3ba707b3ca359a59,TCR,2024-06-24_14h35.47.431,LearnStrategy,2023.2.3,MacIntel,29.94011976,7,1,5,-0.097664517,-0.016162368,1,0,0,1.2297,rock_grid_rect_2,4,14,-1,-1,1.23,0.423387897,-0.241712136,1,0,0,10.909,Gabbro_rect,4,10.909,1,4,0,4,0,1,,,,,,,,,,,,,
667738cf3ba707b3ca359a59,TCR,2024-06-24_14h35.47.431,LearnStrategy,2023.2.3,MacIntel,29.94011976,7,1,6,-0.080125661,-0.007837302,1,0,0,0.9661,rock_grid_rect_2,4,13,-1,-1,0.966,0.404782573,-0.256283069,1,0,0,1.0237,Gabbro_rect,4,1.024,1,5,0,5,0,1,,,,,,,,,,,,,
667738cf3ba707b3ca359a59,TCR,2024-06-24_14h35.47.431,LearnStrategy,2023.2.3,MacIntel,29.94011976,7,1,7,-0.020548115,0.000425761,1,0,0,0.8339,rock_grid_rect_2,7,13,-1,-1,0.834,0.136797288,-0.410945767,1,0,0,4.546,Peridotite_rect,7,4.546,1,6,0,6,0,1,,,,,,,,,,,,,
667738cf3ba707b3ca359a59,TCR,2024-06-24_14h35.47.431,LearnStrategy,2023.2.3,MacIntel,29.94011976,7,1,8,-0.018878142,0.010825893,1,0,0,0.7329,rock_grid_rect_2,8,16,-1,-1,0.733,0.448685516,-0.421808862,1,0,0,1.4573,Pumice_rect,8,1.457,1,7,0,7,0,1,,,,,,,,,,,,,
667738cf3ba707b3ca359a59,TCR,2024-06-24_14h35.47.431,LearnStrategy,2023.2.3,MacIntel,29.94011976,7,1,9,0.073263889,0.012690146,1,0,0,0.6297,rock_grid_rect_2,3,14,-1,-1,0.63,0.119076554,-0.247143684,1,0,0,1.7589,Diorite_rect,3,1.759,1,8,0,8,0,1,,,,,,,,,,,,,
667738cf3ba707b3ca359a59,TCR,2024-06-24_14h35.47.431,LearnStrategy,2023.2.3,MacIntel,29.94011976,7,1,10,-0.018146495,0.009780093,1,0,0,0.6628,rock_grid_rect_2,3,11,-1,-1,0.663,0.12265625,-0.244514716,1,0,0,1.8925,Diorite_rect,3,1.892,1,9,0,9,0,1,,,,,,,,,,,,,
667738cf3ba707b3ca359a59,TCR,2024-06-24_14h35.47.431,LearnStrategy,2023.2.3,MacIntel,29.94011976,7,1,11,0.055915179,0.001868386,1,0,0,0.7877,rock_grid_rect_2,6,15,-1,-1,0.788,-0.142034557,-0.394394841,1,0,0,1.062,Pegmatite_rect,6,1.062,1,10,0,10,0,1,,,,,,,,,,,,,
667738cf3ba707b3ca359a59,TCR,2024-06-24_14h35.47.431,LearnStrategy,2023.2.3,MacIntel,29.94011976,7,1,12,0.017559524,0.007105655,1,0,0,0.9962,rock_grid_rect_2,4,05,-1,-1,0.996,0.380671296,-0.25614666,1,0,0,2.36,Gabbro_rect,4,2.36,1,11,0,11,0,1,,,,,,,,,,,,,
667738cf3ba707b3ca359a59,TCR,2024-06-24_14h35.47.431,LearnStrategy,2023.2.3,MacIntel,29.94011976,7,1,13,-0.022127149,-0.004575893,1,0,0,0.8621,rock_grid_rect_2,2,10,-1,-1,0.862,-0.163161376,-0.25859375,1,0,0,2.8127,Basalt_rect,2,2.813,1,12,0,12,0,1,,,,,,,,,,,,,
667738cf3ba707b3ca359a59,TCR,2024-06-24_14h35.47.431,LearnStrategy,2023.2.3,MacIntel,29.94011976,7,1,14,-0.055646495,-0.008523479,1,0,0,0.6946,rock_grid_rect_2,2,10,-1,-1,0.695,-0.08702877,-0.232841435,1,0,0,1.0273,Basalt_rect,2,1.027,1,13,0,13,0,1,,,,,,,,,,,,,
667738cf3ba707b3ca359a59,TCR,2024-06-24_14h35.47.431,LearnStrategy,2023.2.3,MacIntel,29.94011976,7,1,15,-0.015162037,0.010015708,1,0,0,1.2966,rock_grid_rect_2,5,11,-1,-1,1.297,-0.36385582,-0.399867725,1,0,0,1.0261,Obsidian_rect,5,1.026,1,14,0,14,0,1,,,,,,,,,,,,,
667738cf3ba707b3ca359a59,TCR,2024-06-24_14h35.47.431,LearnStrategy,2023.2.3,MacIntel,29.94011976,7,1,16,-0.018349041,-0.007490079,1,0,0,0.7986,rock_grid_rect_2,1,03,-1,-1,0.799,-0.317406581,-0.233056382,1,0,0,1.2592,Andesite_rect,1,1.259,1,15,0,15,0,1,,,,,,,,,,,,,
667738cf3ba707b3ca359a59,TCR,2024-06-24_14h35.47.431,LearnStrategy,2023.2.3,MacIntel,29.94011976,7,2,1,,,,,,,,6,07,,,,,,,,,,,6,1.159,1,,,,,,-0.123106812,-0.394605655,1,0,0,1.1591,Pegmatite_rect,0,0,0,0,1,
667738cf3ba707b3ca359a59,TCR,2024-06-24_14h35.47.431,LearnStrategy,2023.2.3,MacIntel,29.94011976,7,2,2,,,,,,,,3,08,,,,,,,,,,,3,1.459,1,,,,,,0.13151455,-0.254654431,1,0,0,1.4587,Diorite_rect,1,0,1,0,1,
667738cf3ba707b3ca359a59,TCR,2024-06-24_14h35.47.431,LearnStrategy,2023.2.3,MacIntel,29.94011976,7,2,3,,,,,,,,8,03,,,,,,,,,,,8,1.391,1,,,,,,0.440058697,-0.397697586,1,0,0,1.3907,Pumice_rect,2,0,2,0,1,
667738cf3ba707b3ca359a59,TCR,2024-06-24_14h35.47.431,LearnStrategy,2023.2.3,MacIntel,29.94011976,7,2,4,,,,,,,,5,14,,,,,,,,,,,5,1.891,1,,,,,,-0.392580192,-0.406216931,1,0,0,1.891,Obsidian_rect,3,0,3,0,1,
667738cf3ba707b3ca359a59,TCR,2024-06-24_14h35.47.431,LearnStrategy,2023.2.3,MacIntel,29.94011976,7,2,5,,,,,,,,6,05,,,,,,,,,,,6,7.553,1,,,,,,-0.083420139,-0.386421131,1,0,0,7.5534,Pegmatite_rect,4,0,4,0,1,
667738cf3ba707b3ca359a59,TCR,2024-06-24_14h35.47.431,LearnStrategy,2023.2.3,MacIntel,29.94011976,7,2,6,,,,,,,,7,14,,,,,,,,,,,7,1.013,1,,,,,,0.167294974,-0.417307374,1,0,0,1.0131,Peridotite_rect,5,0,5,0,1,
667738cf3ba707b3ca359a59,TCR,2024-06-24_14h35.47.431,LearnStrategy,2023.2.3,MacIntel,29.94011976,7,2,7,,,,,,,,7,15,,,,,,,,,,,7,2.649,1,,,,,,0.123995536,-0.413723545,1,0,0,2.6494,Peridotite_rect,6,0,6,0,1,
667738cf3ba707b3ca359a59,TCR,2024-06-24_14h35.47.431,LearnStrategy,2023.2.3,MacIntel,29.94011976,7,2,8,,,,,,,,8,15,,,,,,,,,,,8,1.631,1,,,,,,0.391369048,-0.383006779,1,0,0,1.6312,Pumice_rect,7,0,7,0,1,
667738cf3ba707b3ca359a59,TCR,2024-06-24_14h35.47.431,LearnStrategy,2023.2.3,MacIntel,29.94011976,7,2,9,,,,,,,,1,04,,,,,,,,,,,1,1.293,1,,,,,,-0.441381448,-0.260102513,1,0,0,1.2928,Andesite_rect,8,0,8,0,1,
667738cf3ba707b3ca359a59,TCR,2024-06-24_14h35.47.431,LearnStrategy,2023.2.3,MacIntel,29.94011976,7,2,10,,,,,,,,1,09,,,,,,,,,,,1,1.917,1,,,,,,-0.349541171,-0.257333003,1,0,0,1.9169,Andesite_rect,9,0,9,0,1,
667738cf3ba707b3ca359a59,TCR,2024-06-24_14h35.47.431,LearnStrategy,2023.2.3,MacIntel,29.94011976,7,2,11,,,,,,,,2,04,,,,,,,,,,,2,1.045,1,,,,,,-0.089190642,-0.259999173,1,0,0,1.0448,Basalt_rect,10,0,10,0,1,
667738cf3ba707b3ca359a59,TCR,2024-06-24_14h35.47.431,LearnStrategy,2023.2.3,MacIntel,29.94011976,7,2,12,,,,,,,,4,03,,,,,,,,,,,4,3.08,1,,,,,,0.386739418,-0.248730985,1,0,0,3.0801,Gabbro_rect,11,0,11,0,1,
667738cf3ba707b3ca359a59,TCR,2024-06-24_14h35.47.431,LearnStrategy,2023.2.3,MacIntel,29.94011976,7,2,13,,,,,,,,2,02,,,,,,,,,,,2,1.645,1,,,,,,-0.104398148,-0.243253968,1,0,0,1.6448,Basalt_rect,12,0,12,0,1,
667738cf3ba707b3ca359a59,TCR,2024-06-24_14h35.47.431,LearnStrategy,2023.2.3,MacIntel,29.94011976,7,2,14,,,,,,,,4,10,,,,,,,,,,,4,2.021,1,,,,,,0.367274306,-0.259837963,1,0,0,2.0207,Gabbro_rect,13,0,13,0,1,
667738cf3ba707b3ca359a59,TCR,2024-06-24_14h35.47.431,LearnStrategy,2023.2.3,MacIntel,29.94011976,7,2,15,,,,,,,,5,09,,,,,,,,,,,5,1.207,1,,,,,,-0.347296627,-0.39192295,1,0,0,1.2071,Obsidian_rect,14,0,14,0,1,
667738cf3ba707b3ca359a59,TCR,2024-06-24_14h35.47.431,LearnStrategy,2023.2.3,MacIntel,29.94011976,7,2,16,,,,,,,,3,02,,,,,,,,,,,3,2.292,1,,,,,,0.146664187,-0.26895668,1,0,0,2.2923,Diorite_rect,15,0,15,0,1,
667738cf3ba707b3ca359a59,TCR,2024-06-24_14h35.47.431,LearnStrategy,2023.2.3,MacIntel,29.94011976,8,1,1,-0.028430886,0.014087302,1,0,0,0.9261,rock_grid_rect_2,5,10,-1,-1,0.926,-0.386954365,-0.386503803,1,0,0,0.9984,Obsidian_rect,5,0.998,1,0,0,0,0,1,,,,,,,,,,,,,
667738cf3ba707b3ca359a59,TCR,2024-06-24_14h35.47.431,LearnStrategy,2023.2.3,MacIntel,29.94011976,8,1,2,0.041286376,-0.009676753,1,0,0,0.8217,rock_grid_rect_2,1,10,-1,-1,0.822,-0.40176918,-0.259871032,1,0,0,1.4543,Andesite_rect,1,1.454,1,1,0,1,0,1,,,,,,,,,,,,,
667738cf3ba707b3ca359a59,TCR,2024-06-24_14h35.47.431,LearnStrategy,2023.2.3,MacIntel,29.94011976,8,1,3,0.070531581,-0.017274306,1,0,0,0.8302,rock_grid_rect_2,2,08,-1,-1,0.83,-0.13375496,-0.239281581,1,0,0,2.6928,Basalt_rect,2,2.693,1,2,0,2,0,1,,,,,,,,,,,,,
667738cf3ba707b3ca359a59,TCR,2024-06-24_14h35.47.431,LearnStrategy,2023.2.3,MacIntel,29.94011976,8,1,4,0.030621693,-0.010119048,1,0,0,0.863,rock_grid_rect_2,8,08,-1,-1,0.863,0.394440311,-0.394026951,1,0,0,1.8499,Pumice_rect,8,1.85,1,3,0,3,0,1,,,,,,,,,,,,,
667738cf3ba707b3ca359a59,TCR,2024-06-24_14h35.47.431,LearnStrategy,2023.2.3,MacIntel,29.94011976,8,1,5,0.04281994,-0.009899967,1,0,0,0.799,rock_grid_rect_2,1,03,-1,-1,0.799,-0.375227348,-0.239248512,1,0,0,1.0905,Andesite_rect,1,1.091,1,4,0,4,0,1,,,,,,,,,,,,,
667738cf3ba707b3ca359a59,TCR,2024-06-24_14h35.47.431,LearnStrategy,2023.2.3,MacIntel,29.94011976,8,1,6,-0.005179398,0.017638062,1,0,0,1.0986,rock_grid_rect_2,4,09,-1,-1,1.099,0.436665013,-0.242191634,1,0,0,1.9183,Gabbro_rect,4,1.918,1,5,0,5,0,1,,,,,,,,,,,,,
667738cf3ba707b3ca359a59,TCR,2024-06-24_14h35.47.431,LearnStrategy,2023.2.3,MacIntel,29.94011976,8,1,7,-0.000376157,0.010710152,1,0,0,0.6651,rock_grid_rect_2,6,11,-1,-1,0.665,-0.112355324,-0.408370536,1,0,0,1.8588,Pegmatite_rect,6,1.859,1,6,0,6,0,1,,,,,,,,,,,,,
667738cf3ba707b3ca359a59,TCR,2024-06-24_14h35.47.431,LearnStrategy,2023.2.3,MacIntel,29.94011976,8,1,8,0.036698082,0.014835483,1,0,0,0.8999,rock_grid_rect_2,1,02,-1,-1,0.9,-0.361400463,-0.263268849,1,0,0,17.5502,Andesite_rect,1,17.55,1,7,0,7,0,1,,,,,,,,,,,,,
667738cf3ba707b3ca359a59,TCR,2024-06-24_14h35.47.431,LearnStrategy,2023.2.3,MacIntel,29.94011976,8,1,9,-0.120147156,0.005605159,1,0,0,1.7221,rock_grid_rect_2,7,04,-1,-1,1.722,0.149371693,-0.395973876,1,0,0,1.3935,Peridotite_rect,7,1.394,1,8,0,8,0,1,,,,,,,,,,,,,
667738cf3ba707b3ca359a59,TCR,2024-06-24_14h35.47.431,LearnStrategy,2023.2.3,MacIntel,29.94011976,8,1,10,0.015009094,-0.020812665,1,0,0,0.964,rock_grid_rect_2,2,06,-1,-1,0.964,-0.053835979,-0.230270337,1,0,0,1.9852,Basalt_rect,2,1.985,1,9,0,9,0,1,,,,,,,,,,,,,
667738cf3ba707b3ca359a59,TCR,2024-06-24_14h35.47.431,LearnStrategy,2023.2.3,MacIntel,29.94011976,8,1,11,0.016426918,-0.01078869,1,0,0,0.8308,rock_grid_rect_2,4,14,-1,-1,0.831,0.364715608,-0.253133267,1,0,0,1.3887,Gabbro_rect,4,1.389,1,10,0,10,0,1,,,,,,,,,,,,,
667738cf3ba707b3ca359a59,TCR,2024-06-24_14h35.47.431,LearnStrategy,2023.2.3,MacIntel,29.94011976,8,1,12,0.045891204,0.007436343,1,0,0,0.9579,rock_grid_rect_2,3,11,-1,-1,0.958,0.138434193,-0.244646991,1,0,0,6.329,Diorite_rect,3,6.329,1,11,0,11,0,1,,,,,,,,,,,,,
667738cf3ba707b3ca359a59,TCR,2024-06-24_14h35.47.431,LearnStrategy,2023.2.3,MacIntel,29.94011976,8,1,13,-0.023499504,-0.01000744,1,0,0,0.7962,rock_grid_rect_2,3,16,-1,-1,0.796,0.193018353,-0.25614666,1,0,0,0.9629,Diorite_rect,3,0.963,1,12,0,12,0,1,,,,,,,,,,,,,
667738cf3ba707b3ca359a59,TCR,2024-06-24_14h35.47.431,LearnStrategy,2023.2.3,MacIntel,29.94011976,8,1,14,-0.06286789,-0.012636409,1,0,0,0.8287,rock_grid_rect_2,4,16,-1,-1,0.829,0.443427579,-0.250462963,1,0,0,9.7622,Gabbro_rect,4,9.762,1,13,0,13,0,1,,,,,,,,,,,,,
667738cf3ba707b3ca359a59,TCR,2024-06-24_14h35.47.431,LearnStrategy,2023.2.3,MacIntel,29.94011976,8,1,15,-0.119675926,-0.020039683,1,0,0,1.4271,rock_grid_rect_2,4,05,-1,-1,1.427,0.34140625,-0.250764716,1,0,0,2.1554,Gabbro_rect,4,2.155,1,14,0,14,0,1,,,,,,,,,,,,,
667738cf3ba707b3ca359a59,TCR,2024-06-24_14h35.47.431,LearnStrategy,2023.2.3,MacIntel,29.94011976,8,1,16,0.02119709,-0.006588955,1,0,0,0.7322,rock_grid_rect_2,2,08,-1,-1,0.732,-0.140029762,-0.242576058,1,0,0,1.9516,Basalt_rect,2,1.952,1,15,0,15,0,1,,,,,,,,,,,,,
667738cf3ba707b3ca359a59,TCR,2024-06-24_14h35.47.431,LearnStrategy,2023.2.3,MacIntel,29.94011976,8,2,1,,,,,,,,3,15,,,,,,,,,,,3,1.35,1,,,,,,0.187003968,-0.229468419,1,0,0,1.3501,Diorite_rect,0,0,0,0,1,
667738cf3ba707b3ca359a59,TCR,2024-06-24_14h35.47.431,LearnStrategy,2023.2.3,MacIntel,29.94011976,8,2,2,,,,,,,,5,04,,,,,,,,,,,5,1.086,1,,,,,,-0.411834491,-0.399475033,1,0,0,1.0865,Obsidian_rect,1,0,1,0,1,
667738cf3ba707b3ca359a59,TCR,2024-06-24_14h35.47.431,LearnStrategy,2023.2.3,MacIntel,29.94011976,8,2,3,,,,,,,,8,06,,,,,,,,,,,8,0.957,1,,,,,,0.349458499,-0.396647652,1,0,0,0.9571,Pumice_rect,2,0,2,0,1,
667738cf3ba707b3ca359a59,TCR,2024-06-24_14h35.47.431,LearnStrategy,2023.2.3,MacIntel,29.94011976,8,2,4,,,,,,,,2,09,,,,,,,,,,,2,1.192,1,,,,,,-0.15474537,-0.24432457,1,0,0,1.1915,Basalt_rect,3,0,3,0,1,
667738cf3ba707b3ca359a59,TCR,2024-06-24_14h35.47.431,LearnStrategy,2023.2.3,MacIntel,29.94011976,8,2,5,,,,,,,,6,08,,,,,,,,,,,6,1.821,1,,,,,,-0.101777447,-0.39068287,1,0,0,1.8208,Pegmatite_rect,4,0,4,0,1,
667738cf3ba707b3ca359a59,TCR,2024-06-24_14h35.47.431,LearnStrategy,2023.2.3,MacIntel,29.94011976,8,2,6,,,,,,,,6,09,,,,,,,,,,,7,1.045,0,,,,,,0.135478671,-0.387446263,1,0,0,1.0449,Peridotite_rect,5,0,5,0,1,
667738cf3ba707b3ca359a59,TCR,2024-06-24_14h35.47.431,LearnStrategy,2023.2.3,MacIntel,29.94011976,8,2,7,,,,,,,,8,09,,,,,,,,,,,8,2.259,1,,,,,,0.455634094,-0.403145668,1,0,0,2.2589,Pumice_rect,6,0,6,0,1,
667738cf3ba707b3ca359a59,TCR,2024-06-24_14h35.47.431,LearnStrategy,2023.2.3,MacIntel,29.94011976,8,2,8,,,,,,,,7,05,,,,,,,,,,,7,1.75,1,,,,,,0.142480985,-0.396519511,1,0,0,1.7497,Peridotite_rect,7,0,7,0,1,
667738cf3ba707b3ca359a59,TCR,2024-06-24_14h35.47.431,LearnStrategy,2023.2.3,MacIntel,29.94011976,8,2,9,,,,,,,,4,11,,,,,,,,,,,4,3.116,1,,,,,,0.367877811,-0.246812996,1,0,0,3.1156,Gabbro_rect,8,0,8,0,1,
667738cf3ba707b3ca359a59,TCR,2024-06-24_14h35.47.431,LearnStrategy,2023.2.3,MacIntel,29.94011976,8,2,10,,,,,,,,3,10,,,,,,,,,,,3,0.752,1,,,,,,0.133349868,-0.265170304,1,0,0,0.7521,Diorite_rect,9,0,9,0,1,
667738cf3ba707b3ca359a59,TCR,2024-06-24_14h35.47.431,LearnStrategy,2023.2.3,MacIntel,29.94011976,8,2,11,,,,,,,,1,01,,,,,,,,,,,4,4.787,0,,,,,,0.347767857,-0.268200231,1,0,0,4.7874,Gabbro_rect,10,0,10,0,1,
667738cf3ba707b3ca359a59,TCR,2024-06-24_14h35.47.431,LearnStrategy,2023.2.3,MacIntel,29.94011976,8,2,12,,,,,,,,7,02,,,,,,,,,,,7,0.948,1,,,,,,0.135474537,-0.412834821,1,0,0,0.9484,Peridotite_rect,11,0,11,0,1,
667738cf3ba707b3ca359a59,TCR,2024-06-24_14h35.47.431,LearnStrategy,2023.2.3,MacIntel,29.94011976,8,2,13,,,,,,,,2,01,,,,,,,,,,,2,2.524,1,,,,,,-0.173466435,-0.253269676,1,0,0,2.5239,Basalt_rect,12,0,12,0,1,
667738cf3ba707b3ca359a59,TCR,2024-06-24_14h35.47.431,LearnStrategy,2023.2.3,MacIntel,29.94011976,8,2,14,,,,,,,,4,15,,,,,,,,,,,4,1.884,1,,,,,,0.41860119,-0.259656085,1,0,0,1.8842,Gabbro_rect,13,0,13,0,1,
667738cf3ba707b3ca359a59,TCR,2024-06-24_14h35.47.431,LearnStrategy,2023.2.3,MacIntel,29.94011976,8,2,15,,,,,,,,1,14,,,,,,,,,,,1,1.517,1,,,,,,-0.330679563,-0.239149306,1,0,0,1.517,Andesite_rect,14,0,14,0,1,
667738cf3ba707b3ca359a59,TCR,2024-06-24_14h35.47.431,LearnStrategy,2023.2.3,MacIntel,29.94011976,8,2,16,,,,,,,,5,12,,,,,,,,,,,5,1.027,1,,,,,,-0.365492725,-0.411123512,1,0,0,1.0273,Obsidian_rect,15,0,15,0,1,
667738cf3ba707b3ca359a59,TCR,2024-06-24_14h35.47.431,LearnStrategy,2023.2.3,MacIntel,29.94011976,9,1,1,0.071585648,-0.01364914,1,0,0,0.86,rock_grid_rect_2,6,16,-1,-1,0.86,-0.185412533,-0.40020668,1,0,0,2.7257,Pegmatite_rect,6,2.726,1,0,0,0,0,1,,,,,,,,,,,,,
667738cf3ba707b3ca359a59,TCR,2024-06-24_14h35.47.431,LearnStrategy,2023.2.3,MacIntel,29.94011976,9,1,2,0.013657407,0.006915509,1,0,0,0.8317,rock_grid_rect_2,7,04,-1,-1,0.832,0.08322586,-0.384503142,1,0,0,1.1272,Peridotite_rect,7,1.127,1,1,0,1,0,1,,,,,,,,,,,,,
667738cf3ba707b3ca359a59,TCR,2024-06-24_14h35.47.431,LearnStrategy,2023.2.3,MacIntel,29.94011976,9,1,3,0.000396825,-0.007990245,1,0,0,0.8228,rock_grid_rect_2,6,15,-1,-1,0.823,-0.083155589,-0.392224702,1,0,0,1.1274,Pegmatite_rect,6,1.127,1,2,0,2,0,1,,,,,,,,,,,,,
667738cf3ba707b3ca359a59,TCR,2024-06-24_14h35.47.431,LearnStrategy,2023.2.3,MacIntel,29.94011976,9,1,4,-0.059126984,0.009370866,1,0,0,1.296,rock_grid_rect_2,4,05,-1,-1,1.296,0.360813492,-0.233577216,1,0,0,1.2212,Gabbro_rect,4,1.221,1,3,0,3,0,1,,,,,,,,,,,,,
667738cf3ba707b3ca359a59,TCR,2024-06-24_14h35.47.431,LearnStrategy,2023.2.3,MacIntel,29.94011976,9,1,5,0.029162533,-0.016658399,1,0,0,0.9659,rock_grid_rect_2,5,08,-1,-1,0.966,-0.379141865,-0.402186673,1,0,0,1.0151,Obsidian_rect,5,1.015,1,4,0,4,0,1,,,,,,,,,,,,,
667738cf3ba707b3ca359a59,TCR,2024-06-24_14h35.47.431,LearnStrategy,2023.2.3,MacIntel,29.94011976,9,1,6,-0.056861772,-0.017423115,1,0,0,0.6602,rock_grid_rect_2,2,08,-1,-1,0.66,-0.124297288,-0.244233631,1,0,0,1.0579,Basalt_rect,2,1.058,1,5,0,5,0,1,,,,,,,,,,,,,
667738cf3ba707b3ca359a59,TCR,2024-06-24_14h35.47.431,LearnStrategy,2023.2.3,MacIntel,29.94011976,9,1,7,-0.02458664,0.003509425,1,0,0,1.397,rock_grid_rect_2,4,12,-1,-1,1.397,0.367803406,-0.245585317,1,0,0,1.4952,Gabbro_rect,4,1.495,1,6,0,6,0,1,,,,,,,,,,,,,
667738cf3ba707b3ca359a59,TCR,2024-06-24_14h35.47.431,LearnStrategy,2023.2.3,MacIntel,29.94011976,9,1,8,0.093270503,-0.010830026,1,0,0,1.0311,rock_grid_rect_2,4,05,-1,-1,1.031,0.41599289,-0.256638558,1,0,0,1.7551,Gabbro_rect,4,1.755,1,7,0,7,0,1,,,,,,,,,,,,,
667738cf3ba707b3ca359a59,TCR,2024-06-24_14h35.47.431,LearnStrategy,2023.2.3,MacIntel,29.94011976,9,1,9,-0.094845403,-0.009668485,1,0,0,0.8329,rock_grid_rect_2,2,10,-1,-1,0.833,-0.119043485,-0.265364583,1,0,0,1.0837,Basalt_rect,2,1.084,1,8,0,8,0,1,,,,,,,,,,,,,
667738cf3ba707b3ca359a59,TCR,2024-06-24_14h35.47.431,LearnStrategy,2023.2.3,MacIntel,29.94011976,9,1,10,0.047151951,-0.002781911,1,0,0,0.6305,rock_grid_rect_2,1,07,-1,-1,0.63,-0.380344742,-0.229873512,1,0,0,2.354,Andesite_rect,1,2.354,1,9,0,9,0,1,,,,,,,,,,,,,
667738cf3ba707b3ca359a59,TCR,2024-06-24_14h35.47.431,LearnStrategy,2023.2.3,MacIntel,29.94011976,9,1,11,-0.010706019,0.002161872,1,0,0,0.7261,rock_grid_rect_2,1,11,-1,-1,0.726,-0.358114253,-0.254257606,1,0,0,1.3938,Andesite_rect,1,1.394,1,10,0,10,0,1,,,,,,,,,,,,,
667738cf3ba707b3ca359a59,TCR,2024-06-24_14h35.47.431,LearnStrategy,2023.2.3,MacIntel,29.94011976,9,1,12,0.039112103,-0.002496693,1,0,0,0.6654,rock_grid_rect_2,1,03,-1,-1,0.665,-0.341621197,-0.249867725,1,0,0,1.4504,Andesite_rect,1,1.45,1,11,0,11,0,1,,,,,,,,,,,,,
667738cf3ba707b3ca359a59,TCR,2024-06-24_14h35.47.431,LearnStrategy,2023.2.3,MacIntel,29.94011976,9,1,13,-0.046788194,-0.021680721,1,0,0,0.7351,rock_grid_rect_2,1,05,-1,-1,0.735,-0.345568783,-0.263566468,1,0,0,0.8591,Andesite_rect,1,0.859,1,12,0,12,0,1,,,,,,,,,,,,,
667738cf3ba707b3ca359a59,TCR,2024-06-24_14h35.47.431,LearnStrategy,2023.2.3,MacIntel,29.94011976,9,1,14,-0.016745205,0.017191634,1,0,0,0.7305,rock_grid_rect_2,6,11,-1,-1,0.731,-0.122660384,-0.387528935,1,0,0,1.3922,Pegmatite_rect,6,1.392,1,13,0,13,0,1,,,,,,,,,,,,,
667738cf3ba707b3ca359a59,TCR,2024-06-24_14h35.47.431,LearnStrategy,2023.2.3,MacIntel,29.94011976,9,1,15,-0.020229828,0.005737434,1,0,0,0.8318,rock_grid_rect_2,8,05,-1,-1,0.832,0.386288856,-0.386863426,1,0,0,1.6281,Pumice_rect,8,1.628,1,14,0,14,0,1,,,,,,,,,,,,,
667738cf3ba707b3ca359a59,TCR,2024-06-24_14h35.47.431,LearnStrategy,2023.2.3,MacIntel,29.94011976,9,1,16,0.039054233,-0.002752976,1,0,0,0.7979,rock_grid_rect_2,3,16,-1,-1,0.798,0.121469907,-0.257366071,1,0,0,2.5941,Diorite_rect,3,2.594,1,15,0,15,0,1,,,,,,,,,,,,,
667738cf3ba707b3ca359a59,TCR,2024-06-24_14h35.47.431,LearnStrategy,2023.2.3,MacIntel,29.94011976,9,2,1,,,,,,,,2,12,,,,,,,,,,,1,2.579,0,,,,,,-0.430625827,-0.264736276,1,0,0,2.579,Andesite_rect,0,0,0,0,1,
667738cf3ba707b3ca359a59,TCR,2024-06-24_14h35.47.431,LearnStrategy,2023.2.3,MacIntel,29.94011976,9,2,2,,,,,,,,2,14,,,,,,,,,,,4,2.127,0,,,,,,0.373330026,-0.243555721,1,0,0,2.1273,Gabbro_rect,1,0,1,0,1,
667738cf3ba707b3ca359a59,TCR,2024-06-24_14h35.47.431,LearnStrategy,2023.2.3,MacIntel,29.94011976,9,2,3,,,,,,,,5,02,,,,,,,,,,,5,5.354,1,,,,,,-0.42099041,-0.399524636,1,0,0,5.3541,Obsidian_rect,2,0,2,0,1,
667738cf3ba707b3ca359a59,TCR,2024-06-24_14h35.47.431,LearnStrategy,2023.2.3,MacIntel,29.94011976,9,2,4,,,,,,,,5,05,,,,,,,,,,,5,2.508,1,,,,,,-0.339996693,-0.389690807,1,0,0,2.5084,Obsidian_rect,3,0,3,0,1,
667738cf3ba707b3ca359a59,TCR,2024-06-24_14h35.47.431,LearnStrategy,2023.2.3,MacIntel,29.94011976,9,2,5,,,,,,,,7,10,,,,,,,,,,,7,1.624,1,,,,,,0.136235119,-0.383850033,1,0,0,1.6243,Peridotite_rect,4,0,4,0,1,
667738cf3ba707b3ca359a59,TCR,2024-06-24_14h35.47.431,LearnStrategy,2023.2.3,MacIntel,29.94011976,9,2,6,,,,,,,,3,13,,,,,,,,,,,3,7.554,1,,,,,,0.13901703,-0.252587632,1,0,0,7.5544,Diorite_rect,5,0,5,0,1,
667738cf3ba707b3ca359a59,TCR,2024-06-24_14h35.47.431,LearnStrategy,2023.2.3,MacIntel,29.94011976,9,2,7,,,,,,,,6,06,,,,,,,,,,,6,1.222,1,,,,,,-0.137735615,-0.396965939,1,0,0,1.2221,Pegmatite_rect,6,0,6,0,1,
667738cf3ba707b3ca359a59,TCR,2024-06-24_14h35.47.431,LearnStrategy,2023.2.3,MacIntel,29.94011976,9,2,8,,,,,,,,6,13,,,,,,,,,,,6,1.624,1,,,,,,-0.138215112,-0.396635251,1,0,0,1.6241,Pegmatite_rect,7,0,7,0,1,
667738cf3ba707b3ca359a59,TCR,2024-06-24_14h35.47.431,LearnStrategy,2023.2.3,MacIntel,29.94011976,9,2,9,,,,,,,,7,07,,,,,,,,,,,7,1.125,1,,,,,,0.092018022,-0.4135458,1,0,0,1.1253,Peridotite_rect,8,0,8,0,1,
667738cf3ba707b3ca359a59,TCR,2024-06-24_14h35.47.431,LearnStrategy,2023.2.3,MacIntel,29.94011976,9,2,10,,,,,,,,8,04,,,,,,,,,,,8,1.055,1,,,,,,0.377864583,-0.40479084,1,0,0,1.0547,Pumice_rect,9,0,9,0,1,
667738cf3ba707b3ca359a59,TCR,2024-06-24_14h35.47.431,LearnStrategy,2023.2.3,MacIntel,29.94011976,9,2,11,,,,,,,,3,12,,,,,,,,,,,3,0.859,1,,,,,,0.193105159,-0.253422619,1,0,0,0.8593,Diorite_rect,10,0,10,0,1,
667738cf3ba707b3ca359a59,TCR,2024-06-24_14h35.47.431,LearnStrategy,2023.2.3,MacIntel,29.94011976,9,2,12,,,,,,,,4,01,,,,,,,,,,,4,2.691,1,,,,,,0.370391038,-0.260784557,1,0,0,2.691,Gabbro_rect,11,0,11,0,1,
667738cf3ba707b3ca359a59,TCR,2024-06-24_14h35.47.431,LearnStrategy,2023.2.3,MacIntel,29.94011976,9,2,13,,,,,,,,1,06,,,,,,,,,,,1,1.072,1,,,,,,-0.410701885,-0.247160218,1,0,0,1.0722,Andesite_rect,12,0,12,0,1,
667738cf3ba707b3ca359a59,TCR,2024-06-24_14h35.47.431,LearnStrategy,2023.2.3,MacIntel,29.94011976,9,2,14,,,,,,,,8,02,,,,,,,,,,,8,1.291,1,,,,,,0.376124339,-0.415430721,1,0,0,1.2905,Pumice_rect,13,0,13,0,1,
667738cf3ba707b3ca359a59,TCR,2024-06-24_14h35.47.431,LearnStrategy,2023.2.3,MacIntel,29.94011976,9,2,15,,,,,,,,4,08,,,,,,,,,,,4,2.652,1,,,,,,0.345093419,-0.232457011,1,0,0,2.6519,Gabbro_rect,14,0,14,0,1,
667738cf3ba707b3ca359a59,TCR,2024-06-24_14h35.47.431,LearnStrategy,2023.2.3,MacIntel,29.94011976,9,2,16,,,,,,,,1,16,,,,,,,,,,,1,0.988,1,,,,,,-0.326831184,-0.26167328,1,0,0,0.9876,Andesite_rect,15,0,15,0,1,
667738cf3ba707b3ca359a59,TCR,2024-06-24_14h35.47.431,LearnStrategy,2023.2.3,MacIntel,29.94011976,,,,,,,,,,,,,,,,,,,,,,,,,,,,,,,,,,,,,,,,,,,1
667738cf3ba707b3ca359a59,TCR,2024-06-24_14h35.47.431,LearnStrategy,2023.2.3,MacIntel,29.94011976,,,,,,,,,,,,,,,,,,,,,,,,,,,,,,,,,,,,,,,,,,,
667738cf3ba707b3ca359a59,TCR,2024-06-24_14h35.47.431,LearnStrategy,2023.2.3,MacIntel,29.94011976,,,,,,,,,,,5,07,1,1,,,,,,,,,,,,,,,,,,,,,,,,,,,,,
667738cf3ba707b3ca359a59,TCR,2024-06-24_14h35.47.431,LearnStrategy,2023.2.3,MacIntel,29.94011976,,,,,,,,,,,4,14,1,2,,,,,,,,,,,,,,,,,,,,,,,,,,,,,
667738cf3ba707b3ca359a59,TCR,2024-06-24_14h35.47.431,LearnStrategy,2023.2.3,MacIntel,29.94011976,,,,,,,,,,,5,06,1,3,,,,,,,,,,,,,,,,,,,,,,,,,,,,,
667738cf3ba707b3ca359a59,TCR,2024-06-24_14h35.47.431,LearnStrategy,2023.2.3,MacIntel,29.94011976,,,,,,,,,,,5,16,1,4,,,,,,,,,,,,,,,,,,,,,,,,,,,,,
667738cf3ba707b3ca359a59,TCR,2024-06-24_14h35.47.431,LearnStrategy,2023.2.3,MacIntel,29.94011976,,,,,,,,,,,6,12,1,5,,,,,,,,,,,,,,,,,,,,,,,,,,,,,
667738cf3ba707b3ca359a59,TCR,2024-06-24_14h35.47.431,LearnStrategy,2023.2.3,MacIntel,29.94011976,,,,,,,,,,,3,07,1,6,,,,,,,,,,,,,,,,,,,,,,,,,,,,,
667738cf3ba707b3ca359a59,TCR,2024-06-24_14h35.47.431,LearnStrategy,2023.2.3,MacIntel,29.94011976,,,,,,,,,,,1,11,1,7,,,,,,,,,,,,,,,,,,,,,,,,,,,,,
667738cf3ba707b3ca359a59,TCR,2024-06-24_14h35.47.431,LearnStrategy,2023.2.3,MacIntel,29.94011976,,,,,,,,,,,1,07,1,8,,,,,,,,,,,,,,,,,,,,,,,,,,,,,
667738cf3ba707b3ca359a59,TCR,2024-06-24_14h35.47.431,LearnStrategy,2023.2.3,MacIntel,29.94011976,,,,,,,,,,,1,10,2,1,,,,,,,,,,,,,,,,,,,,,,,,,,,,,
667738cf3ba707b3ca359a59,TCR,2024-06-24_14h35.47.431,LearnStrategy,2023.2.3,MacIntel,29.94011976,,,,,,,,,,,3,14,2,2,,,,,,,,,,,,,,,,,,,,,,,,,,,,,
667738cf3ba707b3ca359a59,TCR,2024-06-24_14h35.47.431,LearnStrategy,2023.2.3,MacIntel,29.94011976,,,,,,,,,,,4,12,2,3,,,,,,,,,,,,,,,,,,,,,,,,,,,,,
667738cf3ba707b3ca359a59,TCR,2024-06-24_14h35.47.431,LearnStrategy,2023.2.3,MacIntel,29.94011976,,,,,,,,,,,8,14,2,4,,,,,,,,,,,,,,,,,,,,,,,,,,,,,
667738cf3ba707b3ca359a59,TCR,2024-06-24_14h35.47.431,LearnStrategy,2023.2.3,MacIntel,29.94011976,,,,,,,,,,,6,10,2,5,,,,,,,,,,,,,,,,,,,,,,,,,,,,,
667738cf3ba707b3ca359a59,TCR,2024-06-24_14h35.47.431,LearnStrategy,2023.2.3,MacIntel,29.94011976,,,,,,,,,,,7,06,2,6,,,,,,,,,,,,,,,,,,,,,,,,,,,,,
667738cf3ba707b3ca359a59,TCR,2024-06-24_14h35.47.431,LearnStrategy,2023.2.3,MacIntel,29.94011976,,,,,,,,,,,6,15,2,7,,,,,,,,,,,,,,,,,,,,,,,,,,,,,
667738cf3ba707b3ca359a59,TCR,2024-06-24_14h35.47.431,LearnStrategy,2023.2.3,MacIntel,29.94011976,,,,,,,,,,,3,06,2,8,,,,,,,,,,,,,,,,,,,,,,,,,,,,,
667738cf3ba707b3ca359a59,TCR,2024-06-24_14h35.47.431,LearnStrategy,2023.2.3,MacIntel,29.94011976,,,,,,,,,,,1,02,3,1,,,,,,,,,,,,,,,,,,,,,,,,,,,,,
667738cf3ba707b3ca359a59,TCR,2024-06-24_14h35.47.431,LearnStrategy,2023.2.3,MacIntel,29.94011976,,,,,,,,,,,5,11,3,2,,,,,,,,,,,,,,,,,,,,,,,,,,,,,
667738cf3ba707b3ca359a59,TCR,2024-06-24_14h35.47.431,LearnStrategy,2023.2.3,MacIntel,29.94011976,,,,,,,,,,,5,10,3,3,,,,,,,,,,,,,,,,,,,,,,,,,,,,,
667738cf3ba707b3ca359a59,TCR,2024-06-24_14h35.47.431,LearnStrategy,2023.2.3,MacIntel,29.94011976,,,,,,,,,,,4,13,3,4,,,,,,,,,,,,,,,,,,,,,,,,,,,,,
667738cf3ba707b3ca359a59,TCR,2024-06-24_14h35.47.431,LearnStrategy,2023.2.3,MacIntel,29.94011976,,,,,,,,,,,6,11,3,5,,,,,,,,,,,,,,,,,,,,,,,,,,,,,
667738cf3ba707b3ca359a59,TCR,2024-06-24_14h35.47.431,LearnStrategy,2023.2.3,MacIntel,29.94011976,,,,,,,,,,,3,09,3,6,,,,,,,,,,,,,,,,,,,,,,,,,,,,,
667738cf3ba707b3ca359a59,TCR,2024-06-24_14h35.47.431,LearnStrategy,2023.2.3,MacIntel,29.94011976,,,,,,,,,,,8,10,3,7,,,,,,,,,,,,,,,,,,,,,,,,,,,,,
667738cf3ba707b3ca359a59,TCR,2024-06-24_14h35.47.431,LearnStrategy,2023.2.3,MacIntel,29.94011976,,,,,,,,,,,3,16,3,8,,,,,,,,,,,,,,,,,,,,,,,,,,,,,
667738cf3ba707b3ca359a59,TCR,2024-06-24_14h35.47.431,LearnStrategy,2023.2.3,MacIntel,29.94011976,,,,,,,,,,,7,08,4,1,,,,,,,,,,,,,,,,,,,,,,,,,,,,,
667738cf3ba707b3ca359a59,TCR,2024-06-24_14h35.47.431,LearnStrategy,2023.2.3,MacIntel,29.94011976,,,,,,,,,,,2,06,4,2,,,,,,,,,,,,,,,,,,,,,,,,,,,,,
667738cf3ba707b3ca359a59,TCR,2024-06-24_14h35.47.431,LearnStrategy,2023.2.3,MacIntel,29.94011976,,,,,,,,,,,4,16,4,3,,,,,,,,,,,,,,,,,,,,,,,,,,,,,
667738cf3ba707b3ca359a59,TCR,2024-06-24_14h35.47.431,LearnStrategy,2023.2.3,MacIntel,29.94011976,,,,,,,,,,,1,05,4,4,,,,,,,,,,,,,,,,,,,,,,,,,,,,,
667738cf3ba707b3ca359a59,TCR,2024-06-24_14h35.47.431,LearnStrategy,2023.2.3,MacIntel,29.94011976,,,,,,,,,,,7,12,4,5,,,,,,,,,,,,,,,,,,,,,,,,,,,,,
667738cf3ba707b3ca359a59,TCR,2024-06-24_14h35.47.431,LearnStrategy,2023.2.3,MacIntel,29.94011976,,,,,,,,,,,7,13,4,6,,,,,,,,,,,,,,,,,,,,,,,,,,,,,
667738cf3ba707b3ca359a59,TCR,2024-06-24_14h35.47.431,LearnStrategy,2023.2.3,MacIntel,29.94011976,,,,,,,,,,,8,08,4,7,,,,,,,,,,,,,,,,,,,,,,,,,,,,,
667738cf3ba707b3ca359a59,TCR,2024-06-24_14h35.47.431,LearnStrategy,2023.2.3,MacIntel,29.94011976,,,,,,,,,,,2,16,4,8,,,,,,,,,,,,,,,,,,,,,,,,,,,,,
667738cf3ba707b3ca359a59,TCR,2024-06-24_14h35.47.431,LearnStrategy,2023.2.3,MacIntel,29.94011976,,,,,,,,,,,8,16,5,1,,,,,,,,,,,,,,,,,,,,,,,,,,,,,
667738cf3ba707b3ca359a59,TCR,2024-06-24_14h35.47.431,LearnStrategy,2023.2.3,MacIntel,29.94011976,,,,,,,,,,,7,04,5,2,,,,,,,,,,,,,,,,,,,,,,,,,,,,,
667738cf3ba707b3ca359a59,TCR,2024-06-24_14h35.47.431,LearnStrategy,2023.2.3,MacIntel,29.94011976,,,,,,,,,,,3,11,5,3,,,,,,,,,,,,,,,,,,,,,,,,,,,,,
667738cf3ba707b3ca359a59,TCR,2024-06-24_14h35.47.431,LearnStrategy,2023.2.3,MacIntel,29.94011976,,,,,,,,,,,4,09,5,4,,,,,,,,,,,,,,,,,,,,,,,,,,,,,
667738cf3ba707b3ca359a59,TCR,2024-06-24_14h35.47.431,LearnStrategy,2023.2.3,MacIntel,29.94011976,,,,,,,,,,,8,13,5,5,,,,,,,,,,,,,,,,,,,,,,,,,,,,,
667738cf3ba707b3ca359a59,TCR,2024-06-24_14h35.47.431,LearnStrategy,2023.2.3,MacIntel,29.94011976,,,,,,,,,,,7,16,5,6,,,,,,,,,,,,,,,,,,,,,,,,,,,,,
667738cf3ba707b3ca359a59,TCR,2024-06-24_14h35.47.431,LearnStrategy,2023.2.3,MacIntel,29.94011976,,,,,,,,,,,6,16,5,7,,,,,,,,,,,,,,,,,,,,,,,,,,,,,
667738cf3ba707b3ca359a59,TCR,2024-06-24_14h35.47.431,LearnStrategy,2023.2.3,MacIntel,29.94011976,,,,,,,,,,,2,08,5,8,,,,,,,,,,,,,,,,,,,,,,,,,,,,,
667738cf3ba707b3ca359a59,TCR,2024-06-24_14h35.47.431,LearnStrategy,2023.2.3,MacIntel,29.94011976,,,,,,,,,,,4,05,6,1,,,,,,,,,,,,,,,,,,,,,,,,,,,,,
667738cf3ba707b3ca359a59,TCR,2024-06-24_14h35.47.431,LearnStrategy,2023.2.3,MacIntel,29.94011976,,,,,,,,,,,2,05,6,2,,,,,,,,,,,,,,,,,,,,,,,,,,,,,
667738cf3ba707b3ca359a59,TCR,2024-06-24_14h35.47.431,LearnStrategy,2023.2.3,MacIntel,29.94011976,,,,,,,,,,,2,11,6,3,,,,,,,,,,,,,,,,,,,,,,,,,,,,,
667738cf3ba707b3ca359a59,TCR,2024-06-24_14h35.47.431,LearnStrategy,2023.2.3,MacIntel,29.94011976,,,,,,,,,,,5,08,6,4,,,,,,,,,,,,,,,,,,,,,,,,,,,,,
667738cf3ba707b3ca359a59,TCR,2024-06-24_14h35.47.431,LearnStrategy,2023.2.3,MacIntel,29.94011976,,,,,,,,,,,6,03,6,5,,,,,,,,,,,,,,,,,,,,,,,,,,,,,
667738cf3ba707b3ca359a59,TCR,2024-06-24_14h35.47.431,LearnStrategy,2023.2.3,MacIntel,29.94011976,,,,,,,,,,,2,10,6,6,,,,,,,,,,,,,,,,,,,,,,,,,,,,,
667738cf3ba707b3ca359a59,TCR,2024-06-24_14h35.47.431,LearnStrategy,2023.2.3,MacIntel,29.94011976,,,,,,,,,,,1,03,6,7,,,,,,,,,,,,,,,,,,,,,,,,,,,,,
667738cf3ba707b3ca359a59,TCR,2024-06-24_14h35.47.431,LearnStrategy,2023.2.3,MacIntel,29.94011976,,,,,,,,,,,8,05,6,8,,,,,,,,,,,,,,,,,,,,,,,,,,,,,