"width","height","webaudio","browser","browser_version","mobile","os","fullscreen","vsync_rate","webcam","microphone","trial_type","trial_index","plugin_version","time_elapsed","subjID","condition","stimID","rt","url","success","value","timeout","failed_images","failed_audio","failed_video","view_history","stimulus","response","trialType","cycle","phase","trial","resp","cat","token","corr","resp_num","cat_num","time_fb1","time_fb2"
"1920","911","true","chrome","130.0.0","false","Windows 10","true","60.61","true","true","browser-check","0","2.0.0","1000","61643eae0b4de3c67744a15f","2","1","","","","","","","","","","","","","","","","","","","","","","",""
"","","","","","","","","","","","external-html","1","2.0.0","7149","61643eae0b4de3c67744a15f","2","1","6065","consent_form.html","","","","","","","","","","","","","","","","","","","","",""
"","","","","","","","","","","","fullscreen","2","2.0.0","9716","61643eae0b4de3c67744a15f","2","1","1566","","true","","","","","","","","","","","","","","","","","","","",""
"","","","","","","","","","","","call-function","3","2.0.0","9718","61643eae0b4de3c67744a15f","2","1","","","","{}","","","","","","","","","","","","","","","","","","",""
"","","","","","","","","","","","preload","4","2.0.0","11938","61643eae0b4de3c67744a15f","2","1","","","true","","false","[]","[]","[]","","","","","","","","","","","","","","",""
"","","","","","","","","","","","instructions","5","2.0.0","28456","61643eae0b4de3c67744a15f","2","1","16517","","","","","","","","[{""page_index"":0,""viewing_time"":6211},{""page_index"":1,""viewing_time"":7763},{""page_index"":2,""viewing_time"":2543}]","","","","","","","","","","","","","",""
"","","","","","","","","","","","html-button-response","6","2.0.0","29341","61643eae0b4de3c67744a15f","2","1","884","","","","","","","","","","0","start_test","","","","","","","","","","",""
"","","","","","","","","","","","html-button-response","7","2.0.0","36121","61643eae0b4de3c67744a15f","2","1","6779","","","","","","","","","<img src= ""rock_img/I_Diorite_02.jpg"" style=""width:8cm; height:6.27cm;""><p>What type of rock is this?</p>","1","class_response","0","test","1","Basalt","Diorite","02","false","2","3","",""
"","","","","","","","","","","","html-keyboard-response","8","2.0.0","36634","61643eae0b4de3c67744a15f","2","1","null","","","","","","","","","<p style='font-size: 30px;'><strong>Okay</strong></p>","null","neutral_feedback","0","test","1","","","","","","","",""
"","","","","","","","","","","","html-button-response","9","2.0.0","39023","61643eae0b4de3c67744a15f","2","1","2388","","","","","","","","","<img src= ""rock_img/I_Gabbro_09.jpg"" style=""width:8cm; height:7.279999999999999cm;""><p>What type of rock is this?</p>","1","class_response","0","test","2","Basalt","Gabbro","09","false","2","4","",""
"","","","","","","","","","","","html-keyboard-response","10","2.0.0","39524","61643eae0b4de3c67744a15f","2","1","null","","","","","","","","","<p style='font-size: 30px;'><strong>Okay</strong></p>","null","neutral_feedback","0","test","2","","","","","","","",""
"","","","","","","","","","","","html-button-response","11","2.0.0","45803","61643eae0b4de3c67744a15f","2","1","6277","","","","","","","","","<img src= ""rock_img/I_Diorite_06.jpg"" style=""width:8cm; height:6.03cm;""><p>What type of rock is this?</p>","6","class_response","0","test","3","Peridotite","Diorite","06","false","7","3","",""
"","","","","","","","","","","","html-keyboard-response","12","2.0.0","46319","61643eae0b4de3c67744a15f","2","1","null","","","","","","","","","<p style='font-size: 30px;'><strong>Okay</strong></p>","null","neutral_feedback","0","test","3","","","","","","","",""
"","","","","","","","","","","","html-button-response","13","2.0.0","50423","61643eae0b4de3c67744a15f","2","1","4103","","","","","","","","","<img src= ""rock_img/I_Andesite_09.jpg"" style=""width:8cm; height:6cm;""><p>What type of rock is this?</p>","3","class_response","0","test","4","Gabbro","Andesite","09","false","4","1","",""
"","","","","","","","","","","","html-keyboard-response","14","2.0.0","50926","61643eae0b4de3c67744a15f","2","1","null","","","","","","","","","<p style='font-size: 30px;'><strong>Okay</strong></p>","null","neutral_feedback","0","test","4","","","","","","","",""
"","","","","","","","","","","","html-button-response","15","2.0.0","51728","61643eae0b4de3c67744a15f","2","1","801","","","","","","","","","<img src= ""rock_img/I_Pumice_14.jpg"" style=""width:8cm; height:6.39cm;""><p>What type of rock is this?</p>","7","class_response","0","test","5","Pumice","Pumice","14","true","8","8","",""
"","","","","","","","","","","","html-keyboard-response","16","2.0.0","52234","61643eae0b4de3c67744a15f","2","1","null","","","","","","","","","<p style='font-size: 30px;'><strong>Okay</strong></p>","null","neutral_feedback","0","test","5","","","","","","","",""
"","","","","","","","","","","","html-button-response","17","2.0.0","54578","61643eae0b4de3c67744a15f","2","1","2343","","","","","","","","","<img src= ""rock_img/I_Obsidian_16.jpg"" style=""width:8cm; height:9.3cm;""><p>What type of rock is this?</p>","4","class_response","0","test","6","Obsidian","Obsidian","16","true","5","5","",""
"","","","","","","","","","","","html-keyboard-response","18","2.0.0","55079","61643eae0b4de3c67744a15f","2","1","null","","","","","","","","","<p style='font-size: 30px;'><strong>Okay</strong></p>","null","neutral_feedback","0","test","6","","","","","","","",""
"","","","","","","","","","","","html-button-response","19","2.0.0","56460","61643eae0b4de3c67744a15f","2","1","1380","","","","","","","","","<img src= ""rock_img/I_Obsidian_11.jpg"" style=""width:8cm; height:6.05cm;""><p>What type of rock is this?</p>","4","class_response","0","test","7","Obsidian","Obsidian","11","true","5","5","",""
"","","","","","","","","","","","html-keyboard-response","20","2.0.0","56962","61643eae0b4de3c67744a15f","2","1","null","","","","","","","","","<p style='font-size: 30px;'><strong>Okay</strong></p>","null","neutral_feedback","0","test","7","","","","","","","",""
"","","","","","","","","","","","html-button-response","21","2.0.0","61636","61643eae0b4de3c67744a15f","2","1","4673","","","","","","","","","<img src= ""rock_img/I_Basalt_12.jpg"" style=""width:8cm; height:6.010000000000001cm;""><p>What type of rock is this?</p>","5","class_response","0","test","8","Pegmatite","Basalt","12","false","6","2","",""
"","","","","","","","","","","","html-keyboard-response","22","2.0.0","62146","61643eae0b4de3c67744a15f","2","1","null","","","","","","","","","<p style='font-size: 30px;'><strong>Okay</strong></p>","null","neutral_feedback","0","test","8","","","","","","","",""
"","","","","","","","","","","","html-button-response","23","2.0.0","66870","61643eae0b4de3c67744a15f","2","1","4723","","","","","","","","","<img src= ""rock_img/I_Gabbro_15.jpg"" style=""width:8cm; height:6.29cm;""><p>What type of rock is this?</p>","6","class_response","0","test","9","Peridotite","Gabbro","15","false","7","4","",""
"","","","","","","","","","","","html-keyboard-response","24","2.0.0","67380","61643eae0b4de3c67744a15f","2","1","null","","","","","","","","","<p style='font-size: 30px;'><strong>Okay</strong></p>","null","neutral_feedback","0","test","9","","","","","","","",""
"","","","","","","","","","","","html-button-response","25","2.0.0","70567","61643eae0b4de3c67744a15f","2","1","3186","","","","","","","","","<img src= ""rock_img/I_Pegmatite_12.jpg"" style=""width:8cm; height:5.7cm;""><p>What type of rock is this?</p>","0","class_response","0","test","10","Andesite","Pegmatite","12","false","1","6","",""
"","","","","","","","","","","","html-keyboard-response","26","2.0.0","71081","61643eae0b4de3c67744a15f","2","1","null","","","","","","","","","<p style='font-size: 30px;'><strong>Okay</strong></p>","null","neutral_feedback","0","test","10","","","","","","","",""
"","","","","","","","","","","","html-button-response","27","2.0.0","72870","61643eae0b4de3c67744a15f","2","1","1789","","","","","","","","","<img src= ""rock_img/I_Pumice_09.jpg"" style=""width:8cm; height:6.44cm;""><p>What type of rock is this?</p>","7","class_response","0","test","11","Pumice","Pumice","09","true","8","8","",""
"","","","","","","","","","","","html-keyboard-response","28","2.0.0","73383","61643eae0b4de3c67744a15f","2","1","null","","","","","","","","","<p style='font-size: 30px;'><strong>Okay</strong></p>","null","neutral_feedback","0","test","11","","","","","","","",""
"","","","","","","","","","","","html-button-response","29","2.0.0","74752","61643eae0b4de3c67744a15f","2","1","1368","","","","","","","","","<img src= ""rock_img/I_Obsidian_12.jpg"" style=""width:8cm; height:6.53cm;""><p>What type of rock is this?</p>","4","class_response","0","test","12","Obsidian","Obsidian","12","true","5","5","",""
"","","","","","","","","","","","html-keyboard-response","30","2.0.0","75254","61643eae0b4de3c67744a15f","2","1","null","","","","","","","","","<p style='font-size: 30px;'><strong>Okay</strong></p>","null","neutral_feedback","0","test","12","","","","","","","",""
"","","","","","","","","","","","html-button-response","31","2.0.0","77655","61643eae0b4de3c67744a15f","2","1","2400","","","","","","","","","<img src= ""rock_img/I_Pegmatite_16.jpg"" style=""width:8cm; height:5.8cm;""><p>What type of rock is this?</p>","2","class_response","0","test","13","Diorite","Pegmatite","16","false","3","6","",""
"","","","","","","","","","","","html-keyboard-response","32","2.0.0","78163","61643eae0b4de3c67744a15f","2","1","null","","","","","","","","","<p style='font-size: 30px;'><strong>Okay</strong></p>","null","neutral_feedback","0","test","13","","","","","","","",""
"","","","","","","","","","","","html-button-response","33","2.0.0","80558","61643eae0b4de3c67744a15f","2","1","2394","","","","","","","","","<img src= ""rock_img/I_Peridotite_13.jpg"" style=""width:8cm; height:7.58cm;""><p>What type of rock is this?</p>","1","class_response","0","test","14","Basalt","Peridotite","13","false","2","7","",""
"","","","","","","","","","","","html-keyboard-response","34","2.0.0","81069","61643eae0b4de3c67744a15f","2","1","null","","","","","","","","","<p style='font-size: 30px;'><strong>Okay</strong></p>","null","neutral_feedback","0","test","14","","","","","","","",""
"","","","","","","","","","","","html-button-response","35","2.0.0","83212","61643eae0b4de3c67744a15f","2","1","2142","","","","","","","","","<img src= ""rock_img/I_Peridotite_15.jpg"" style=""width:8cm; height:6cm;""><p>What type of rock is this?</p>","3","class_response","0","test","15","Gabbro","Peridotite","15","false","4","7","",""
"","","","","","","","","","","","html-keyboard-response","36","2.0.0","83718","61643eae0b4de3c67744a15f","2","1","null","","","","","","","","","<p style='font-size: 30px;'><strong>Okay</strong></p>","null","neutral_feedback","0","test","15","","","","","","","",""
"","","","","","","","","","","","html-button-response","37","2.0.0","85695","61643eae0b4de3c67744a15f","2","1","1976","","","","","","","","","<img src= ""rock_img/I_Diorite_09.jpg"" style=""width:8cm; height:5.27cm;""><p>What type of rock is this?</p>","6","class_response","0","test","16","Peridotite","Diorite","09","false","7","3","",""
"","","","","","","","","","","","html-keyboard-response","38","2.0.0","86210","61643eae0b4de3c67744a15f","2","1","null","","","","","","","","","<p style='font-size: 30px;'><strong>Okay</strong></p>","null","neutral_feedback","0","test","16","","","","","","","",""
"","","","","","","","","","","","html-button-response","39","2.0.0","88987","61643eae0b4de3c67744a15f","2","1","2775","","","","","","","","","<img src= ""rock_img/I_Gabbro_16.jpg"" style=""width:8cm; height:6.44cm;""><p>What type of rock is this?</p>","5","class_response","0","test","17","Pegmatite","Gabbro","16","false","6","4","",""
"","","","","","","","","","","","html-keyboard-response","40","2.0.0","89496","61643eae0b4de3c67744a15f","2","1","null","","","","","","","","","<p style='font-size: 30px;'><strong>Okay</strong></p>","null","neutral_feedback","0","test","17","","","","","","","",""
"","","","","","","","","","","","html-button-response","41","2.0.0","91072","61643eae0b4de3c67744a15f","2","1","1576","","","","","","","","","<img src= ""rock_img/I_Andesite_07.jpg"" style=""width:8cm; height:5.93cm;""><p>What type of rock is this?</p>","1","class_response","0","test","18","Basalt","Andesite","07","false","2","1","",""
"","","","","","","","","","","","html-keyboard-response","42","2.0.0","91582","61643eae0b4de3c67744a15f","2","1","null","","","","","","","","","<p style='font-size: 30px;'><strong>Okay</strong></p>","null","neutral_feedback","0","test","18","","","","","","","",""
"","","","","","","","","","","","html-button-response","43","2.0.0","93345","61643eae0b4de3c67744a15f","2","1","1762","","","","","","","","","<img src= ""rock_img/I_Peridotite_04.jpg"" style=""width:8cm; height:6.680000000000001cm;""><p>What type of rock is this?</p>","5","class_response","0","test","19","Pegmatite","Peridotite","04","false","6","7","",""
"","","","","","","","","","","","html-keyboard-response","44","2.0.0","93849","61643eae0b4de3c67744a15f","2","1","null","","","","","","","","","<p style='font-size: 30px;'><strong>Okay</strong></p>","null","neutral_feedback","0","test","19","","","","","","","",""
"","","","","","","","","","","","html-button-response","45","2.0.0","94972","61643eae0b4de3c67744a15f","2","1","1122","","","","","","","","","<img src= ""rock_img/I_Gabbro_13.jpg"" style=""width:8cm; height:5.08cm;""><p>What type of rock is this?</p>","2","class_response","0","test","20","Diorite","Gabbro","13","false","3","4","",""
"","","","","","","","","","","","html-keyboard-response","46","2.0.0","95483","61643eae0b4de3c67744a15f","2","1","null","","","","","","","","","<p style='font-size: 30px;'><strong>Okay</strong></p>","null","neutral_feedback","0","test","20","","","","","","","",""
"","","","","","","","","","","","html-button-response","47","2.0.0","96892","61643eae0b4de3c67744a15f","2","1","1408","","","","","","","","","<img src= ""rock_img/I_Obsidian_06.jpg"" style=""width:8cm; height:6.8cm;""><p>What type of rock is this?</p>","4","class_response","0","test","21","Obsidian","Obsidian","06","true","5","5","",""
"","","","","","","","","","","","html-keyboard-response","48","2.0.0","97394","61643eae0b4de3c67744a15f","2","1","null","","","","","","","","","<p style='font-size: 30px;'><strong>Okay</strong></p>","null","neutral_feedback","0","test","21","","","","","","","",""
"","","","","","","","","","","","html-button-response","49","2.0.0","99210","61643eae0b4de3c67744a15f","2","1","1814","","","","","","","","","<img src= ""rock_img/I_Andesite_01.jpg"" style=""width:8cm; height:5.87cm;""><p>What type of rock is this?</p>","2","class_response","0","test","22","Diorite","Andesite","01","false","3","1","",""
"","","","","","","","","","","","html-keyboard-response","50","2.0.0","99713","61643eae0b4de3c67744a15f","2","1","null","","","","","","","","","<p style='font-size: 30px;'><strong>Okay</strong></p>","null","neutral_feedback","0","test","22","","","","","","","",""
"","","","","","","","","","","","html-button-response","51","2.0.0","101407","61643eae0b4de3c67744a15f","2","1","1693","","","","","","","","","<img src= ""rock_img/I_Andesite_05.jpg"" style=""width:8cm; height:4.12cm;""><p>What type of rock is this?</p>","5","class_response","0","test","23","Pegmatite","Andesite","05","false","6","1","",""
"","","","","","","","","","","","html-keyboard-response","52","2.0.0","101916","61643eae0b4de3c67744a15f","2","1","null","","","","","","","","","<p style='font-size: 30px;'><strong>Okay</strong></p>","null","neutral_feedback","0","test","23","","","","","","","",""
"","","","","","","","","","","","html-button-response","53","2.0.0","103613","61643eae0b4de3c67744a15f","2","1","1695","","","","","","","","","<img src= ""rock_img/I_Peridotite_10.jpg"" style=""width:8cm; height:5.390000000000001cm;""><p>What type of rock is this?</p>","7","class_response","0","test","24","Pumice","Peridotite","10","false","8","7","",""
"","","","","","","","","","","","html-keyboard-response","54","2.0.0","104125","61643eae0b4de3c67744a15f","2","1","null","","","","","","","","","<p style='font-size: 30px;'><strong>Okay</strong></p>","null","neutral_feedback","0","test","24","","","","","","","",""
"","","","","","","","","","","","html-button-response","55","2.0.0","105406","61643eae0b4de3c67744a15f","2","1","1280","","","","","","","","","<img src= ""rock_img/I_Obsidian_08.jpg"" style=""width:8cm; height:7.39cm;""><p>What type of rock is this?</p>","4","class_response","0","test","25","Obsidian","Obsidian","08","true","5","5","",""
"","","","","","","","","","","","html-keyboard-response","56","2.0.0","105916","61643eae0b4de3c67744a15f","2","1","null","","","","","","","","","<p style='font-size: 30px;'><strong>Okay</strong></p>","null","neutral_feedback","0","test","25","","","","","","","",""
"","","","","","","","","","","","html-button-response","57","2.0.0","107970","61643eae0b4de3c67744a15f","2","1","2053","","","","","","","","","<img src= ""rock_img/I_Diorite_10.jpg"" style=""width:8cm; height:5.949999999999999cm;""><p>What type of rock is this?</p>","2","class_response","0","test","26","Diorite","Diorite","10","true","3","3","",""
"","","","","","","","","","","","html-keyboard-response","58","2.0.0","108472","61643eae0b4de3c67744a15f","2","1","null","","","","","","","","","<p style='font-size: 30px;'><strong>Okay</strong></p>","null","neutral_feedback","0","test","26","","","","","","","",""
"","","","","","","","","","","","html-button-response","59","2.0.0","109583","61643eae0b4de3c67744a15f","2","1","1110","","","","","","","","","<img src= ""rock_img/I_Pumice_05.jpg"" style=""width:8cm; height:7.25cm;""><p>What type of rock is this?</p>","7","class_response","0","test","27","Pumice","Pumice","05","true","8","8","",""
"","","","","","","","","","","","html-keyboard-response","60","2.0.0","110097","61643eae0b4de3c67744a15f","2","1","null","","","","","","","","","<p style='font-size: 30px;'><strong>Okay</strong></p>","null","neutral_feedback","0","test","27","","","","","","","",""
"","","","","","","","","","","","html-button-response","61","2.0.0","110917","61643eae0b4de3c67744a15f","2","1","819","","","","","","","","","<img src= ""rock_img/I_Pumice_13.jpg"" style=""width:8cm; height:8.200000000000001cm;""><p>What type of rock is this?</p>","7","class_response","0","test","28","Pumice","Pumice","13","true","8","8","",""
"","","","","","","","","","","","html-keyboard-response","62","2.0.0","111421","61643eae0b4de3c67744a15f","2","1","null","","","","","","","","","<p style='font-size: 30px;'><strong>Okay</strong></p>","null","neutral_feedback","0","test","28","","","","","","","",""
"","","","","","","","","","","","html-button-response","63","2.0.0","112696","61643eae0b4de3c67744a15f","2","1","1275","","","","","","","","","<img src= ""rock_img/I_Diorite_11.jpg"" style=""width:8cm; height:7.11cm;""><p>What type of rock is this?</p>","2","class_response","0","test","29","Diorite","Diorite","11","true","3","3","",""
"","","","","","","","","","","","html-keyboard-response","64","2.0.0","113199","61643eae0b4de3c67744a15f","2","1","null","","","","","","","","","<p style='font-size: 30px;'><strong>Okay</strong></p>","null","neutral_feedback","0","test","29","","","","","","","",""
"","","","","","","","","","","","html-button-response","65","2.0.0","114578","61643eae0b4de3c67744a15f","2","1","1378","","","","","","","","","<img src= ""rock_img/I_Pumice_10.jpg"" style=""width:8cm; height:7.609999999999999cm;""><p>What type of rock is this?</p>","7","class_response","0","test","30","Pumice","Pumice","10","true","8","8","",""
"","","","","","","","","","","","html-keyboard-response","66","2.0.0","115092","61643eae0b4de3c67744a15f","2","1","null","","","","","","","","","<p style='font-size: 30px;'><strong>Okay</strong></p>","null","neutral_feedback","0","test","30","","","","","","","",""
"","","","","","","","","","","","html-button-response","67","2.0.0","118702","61643eae0b4de3c67744a15f","2","1","3609","","","","","","","","","<img src= ""rock_img/I_Pegmatite_10.jpg"" style=""width:8cm; height:4.16cm;""><p>What type of rock is this?</p>","3","class_response","0","test","31","Gabbro","Pegmatite","10","false","4","6","",""
"","","","","","","","","","","","html-keyboard-response","68","2.0.0","119211","61643eae0b4de3c67744a15f","2","1","null","","","","","","","","","<p style='font-size: 30px;'><strong>Okay</strong></p>","null","neutral_feedback","0","test","31","","","","","","","",""
"","","","","","","","","","","","html-button-response","69","2.0.0","120315","61643eae0b4de3c67744a15f","2","1","1102","","","","","","","","","<img src= ""rock_img/I_Diorite_15.jpg"" style=""width:8cm; height:5.54cm;""><p>What type of rock is this?</p>","2","class_response","0","test","32","Diorite","Diorite","15","true","3","3","",""
"","","","","","","","","","","","html-keyboard-response","70","2.0.0","120828","61643eae0b4de3c67744a15f","2","1","null","","","","","","","","","<p style='font-size: 30px;'><strong>Okay</strong></p>","null","neutral_feedback","0","test","32","","","","","","","",""
"","","","","","","","","","","","html-button-response","71","2.0.0","122249","61643eae0b4de3c67744a15f","2","1","1421","","","","","","","","","<img src= ""rock_img/I_Basalt_14.jpg"" style=""width:8cm; height:5.82cm;""><p>What type of rock is this?</p>","7","class_response","0","test","33","Pumice","Basalt","14","false","8","2","",""
"","","","","","","","","","","","html-keyboard-response","72","2.0.0","122755","61643eae0b4de3c67744a15f","2","1","null","","","","","","","","","<p style='font-size: 30px;'><strong>Okay</strong></p>","null","neutral_feedback","0","test","33","","","","","","","",""
"","","","","","","","","","","","html-button-response","73","2.0.0","123929","61643eae0b4de3c67744a15f","2","1","1173","","","","","","","","","<img src= ""rock_img/I_Pegmatite_08.jpg"" style=""width:8cm; height:7.68cm;""><p>What type of rock is this?</p>","1","class_response","0","test","34","Basalt","Pegmatite","08","false","2","6","",""
"","","","","","","","","","","","html-keyboard-response","74","2.0.0","124434","61643eae0b4de3c67744a15f","2","1","null","","","","","","","","","<p style='font-size: 30px;'><strong>Okay</strong></p>","null","neutral_feedback","0","test","34","","","","","","","",""
"","","","","","","","","","","","html-button-response","75","2.0.0","126120","61643eae0b4de3c67744a15f","2","1","1685","","","","","","","","","<img src= ""rock_img/I_Obsidian_07.jpg"" style=""width:8cm; height:4.76cm;""><p>What type of rock is this?</p>","4","class_response","0","test","35","Obsidian","Obsidian","07","true","5","5","",""
"","","","","","","","","","","","html-keyboard-response","76","2.0.0","126634","61643eae0b4de3c67744a15f","2","1","null","","","","","","","","","<p style='font-size: 30px;'><strong>Okay</strong></p>","null","neutral_feedback","0","test","35","","","","","","","",""
"","","","","","","","","","","","html-button-response","77","2.0.0","128954","61643eae0b4de3c67744a15f","2","1","2319","","","","","","","","","<img src= ""rock_img/I_Gabbro_10.jpg"" style=""width:8cm; height:5.680000000000001cm;""><p>What type of rock is this?</p>","7","class_response","0","test","36","Pumice","Gabbro","10","false","8","4","",""
"","","","","","","","","","","","html-keyboard-response","78","2.0.0","129456","61643eae0b4de3c67744a15f","2","1","null","","","","","","","","","<p style='font-size: 30px;'><strong>Okay</strong></p>","null","neutral_feedback","0","test","36","","","","","","","",""
"","","","","","","","","","","","html-button-response","79","2.0.0","130259","61643eae0b4de3c67744a15f","2","1","802","","","","","","","","","<img src= ""rock_img/I_Pumice_08.jpg"" style=""width:8cm; height:6.67cm;""><p>What type of rock is this?</p>","7","class_response","0","test","37","Pumice","Pumice","08","true","8","8","",""
"","","","","","","","","","","","html-keyboard-response","80","2.0.0","130768","61643eae0b4de3c67744a15f","2","1","null","","","","","","","","","<p style='font-size: 30px;'><strong>Okay</strong></p>","null","neutral_feedback","0","test","37","","","","","","","",""
"","","","","","","","","","","","html-button-response","81","2.0.0","131737","61643eae0b4de3c67744a15f","2","1","967","","","","","","","","","<img src= ""rock_img/I_Andesite_03.jpg"" style=""width:8cm; height:5.73cm;""><p>What type of rock is this?</p>","6","class_response","0","test","38","Peridotite","Andesite","03","false","7","1","",""
"","","","","","","","","","","","html-keyboard-response","82","2.0.0","132240","61643eae0b4de3c67744a15f","2","1","null","","","","","","","","","<p style='font-size: 30px;'><strong>Okay</strong></p>","null","neutral_feedback","0","test","38","","","","","","","",""
"","","","","","","","","","","","html-button-response","83","2.0.0","133694","61643eae0b4de3c67744a15f","2","1","1453","","","","","","","","","<img src= ""rock_img/I_Pegmatite_06.jpg"" style=""width:8cm; height:5.17cm;""><p>What type of rock is this?</p>","2","class_response","0","test","39","Diorite","Pegmatite","06","false","3","6","",""
"","","","","","","","","","","","html-keyboard-response","84","2.0.0","134196","61643eae0b4de3c67744a15f","2","1","null","","","","","","","","","<p style='font-size: 30px;'><strong>Okay</strong></p>","null","neutral_feedback","0","test","39","","","","","","","",""
"","","","","","","","","","","","html-button-response","85","2.0.0","136237","61643eae0b4de3c67744a15f","2","1","2040","","","","","","","","","<img src= ""rock_img/I_Basalt_08.jpg"" style=""width:8cm; height:10.44cm;""><p>What type of rock is this?</p>","5","class_response","0","test","40","Pegmatite","Basalt","08","false","6","2","",""
"","","","","","","","","","","","html-keyboard-response","86","2.0.0","136745","61643eae0b4de3c67744a15f","2","1","null","","","","","","","","","<p style='font-size: 30px;'><strong>Okay</strong></p>","null","neutral_feedback","0","test","40","","","","","","","",""
"","","","","","","","","","","","html-button-response","87","2.0.0","137573","61643eae0b4de3c67744a15f","2","1","826","","","","","","","","","<img src= ""rock_img/I_Basalt_09.jpg"" style=""width:8cm; height:6.2cm;""><p>What type of rock is this?</p>","5","class_response","0","test","41","Pegmatite","Basalt","09","false","6","2","",""
"","","","","","","","","","","","html-keyboard-response","88","2.0.0","138083","61643eae0b4de3c67744a15f","2","1","null","","","","","","","","","<p style='font-size: 30px;'><strong>Okay</strong></p>","null","neutral_feedback","0","test","41","","","","","","","",""
"","","","","","","","","","","","html-button-response","89","2.0.0","139201","61643eae0b4de3c67744a15f","2","1","1117","","","","","","","","","<img src= ""rock_img/I_Pegmatite_03.jpg"" style=""width:8cm; height:5.239999999999999cm;""><p>What type of rock is this?</p>","1","class_response","0","test","42","Basalt","Pegmatite","03","false","2","6","",""
"","","","","","","","","","","","html-keyboard-response","90","2.0.0","139709","61643eae0b4de3c67744a15f","2","1","null","","","","","","","","","<p style='font-size: 30px;'><strong>Okay</strong></p>","null","neutral_feedback","0","test","42","","","","","","","",""
"","","","","","","","","","","","html-button-response","91","2.0.0","140407","61643eae0b4de3c67744a15f","2","1","697","","","","","","","","","<img src= ""rock_img/I_Basalt_11.jpg"" style=""width:8cm; height:5.359999999999999cm;""><p>What type of rock is this?</p>","2","class_response","0","test","43","Diorite","Basalt","11","false","3","2","",""
"","","","","","","","","","","","html-keyboard-response","92","2.0.0","140909","61643eae0b4de3c67744a15f","2","1","null","","","","","","","","","<p style='font-size: 30px;'><strong>Okay</strong></p>","null","neutral_feedback","0","test","43","","","","","","","",""
"","","","","","","","","","","","html-button-response","93","2.0.0","141382","61643eae0b4de3c67744a15f","2","1","472","","","","","","","","","<img src= ""rock_img/I_Peridotite_07.jpg"" style=""width:8cm; height:4.83cm;""><p>What type of rock is this?</p>","6","class_response","0","test","44","Peridotite","Peridotite","07","true","7","7","",""
"","","","","","","","","","","","html-keyboard-response","94","2.0.0","141885","61643eae0b4de3c67744a15f","2","1","null","","","","","","","","","<p style='font-size: 30px;'><strong>Okay</strong></p>","null","neutral_feedback","0","test","44","","","","","","","",""
"","","","","","","","","","","","html-button-response","95","2.0.0","145930","61643eae0b4de3c67744a15f","2","1","4044","","","","","","","","","<img src= ""rock_img/I_Basalt_10.jpg"" style=""width:8cm; height:5.85cm;""><p>What type of rock is this?</p>","4","class_response","0","test","45","Obsidian","Basalt","10","false","5","2","",""
"","","","","","","","","","","","html-keyboard-response","96","2.0.0","146433","61643eae0b4de3c67744a15f","2","1","null","","","","","","","","","<p style='font-size: 30px;'><strong>Okay</strong></p>","null","neutral_feedback","0","test","45","","","","","","","",""
"","","","","","","","","","","","html-button-response","97","2.0.0","147586","61643eae0b4de3c67744a15f","2","1","1152","","","","","","","","","<img src= ""rock_img/I_Peridotite_14.jpg"" style=""width:8cm; height:5.3cm;""><p>What type of rock is this?</p>","1","class_response","0","test","46","Basalt","Peridotite","14","false","2","7","",""
"","","","","","","","","","","","html-keyboard-response","98","2.0.0","148095","61643eae0b4de3c67744a15f","2","1","null","","","","","","","","","<p style='font-size: 30px;'><strong>Okay</strong></p>","null","neutral_feedback","0","test","46","","","","","","","",""
"","","","","","","","","","","","html-button-response","99","2.0.0","161800","61643eae0b4de3c67744a15f","2","1","13704","","","","","","","","","<img src= ""rock_img/I_Andesite_11.jpg"" style=""width:8cm; height:4.92cm;""><p>What type of rock is this?</p>","3","class_response","0","test","47","Gabbro","Andesite","11","false","4","1","",""
"","","","","","","","","","","","html-keyboard-response","100","2.0.0","162312","61643eae0b4de3c67744a15f","2","1","null","","","","","","","","","<p style='font-size: 30px;'><strong>Okay</strong></p>","null","neutral_feedback","0","test","47","","","","","","","",""
"","","","","","","","","","","","html-button-response","101","2.0.0","163361","61643eae0b4de3c67744a15f","2","1","1048","","","","","","","","","<img src= ""rock_img/I_Gabbro_12.jpg"" style=""width:8cm; height:7.800000000000001cm;""><p>What type of rock is this?</p>","2","class_response","0","test","48","Diorite","Gabbro","12","false","3","4","",""
"","","","","","","","","","","","html-keyboard-response","102","2.0.0","163870","61643eae0b4de3c67744a15f","2","1","null","","","","","","","","","<p style='font-size: 30px;'><strong>Okay</strong></p>","null","neutral_feedback","0","test","48","","","","","","","",""
"","","","","","","","","","","","instructions","103","2.0.0","200487","61643eae0b4de3c67744a15f","2","1","36604","","","","","","","","[{""page_index"":0,""viewing_time"":9775},{""page_index"":1,""viewing_time"":2018},{""page_index"":2,""viewing_time"":24811}]","","","","","","","","","","","","","",""
"","","","","","","","","","","","html-button-response","104","2.0.0","202226","61643eae0b4de3c67744a15f","2","1","1738","","","","","","","","","","0","start_train","","","","","","","","","","",""
"","","","","","","","","","","","html-button-response","105","2.0.0","205114","61643eae0b4de3c67744a15f","2","1","2886","","","","","","","","","<img src= ""rock_img/I_Peridotite_08.jpg"" style=""width:8cm; height:6.7cm;""><p>What type of rock is this?</p>","2","class_response","1","train","1","Diorite","Peridotite","08","false","3","7","",""
"","","","","","","","","","","","html-button-response","106","2.0.0","214234","61643eae0b4de3c67744a15f","2","1","9118","","","","","","","","","<img src= rock_img/I_Peridotite_08.jpg style=""width:8cm; height:6.7cm;""><p style='font-size: 30px; color: red;'><strong>Incorrect!</strong></p><p style='font-size: 30px;'><strong>This rock is peridotite</strong></p>","0","corr_feedback","1","train","1","","","","","","","",""
"","","","","","","","","","","","html-button-response","107","2.0.0","216364","61643eae0b4de3c67744a15f","2","1","2129","","","","","","","","","<img src= ""rock_img/I_Pegmatite_05.jpg"" style=""width:8cm; height:7.300000000000001cm;""><p>What type of rock is this?</p>","0","class_response","1","train","2","Andesite","Pegmatite","05","false","1","6","",""
"","","","","","","","","","","","html-button-response","108","2.0.0","233111","61643eae0b4de3c67744a15f","2","1","16746","","","","","","","","","<img src= rock_img/I_Pegmatite_05.jpg style=""width:8cm; height:7.300000000000001cm;""><p style='font-size: 30px; color: red;'><strong>Incorrect!</strong></p><p style='font-size: 30px;'><strong>This rock is pegmatite</strong></p>","0","corr_feedback","1","train","2","","","","","","","",""
"","","","","","","","","","","","html-button-response","109","2.0.0","234904","61643eae0b4de3c67744a15f","2","1","1791","","","","","","","","","<img src= ""rock_img/I_Peridotite_02.jpg"" style=""width:8cm; height:5.859999999999999cm;""><p>What type of rock is this?</p>","0","class_response","1","train","3","Andesite","Peridotite","02","false","1","7","",""
"","","","","","","","","","","","html-button-response","110","2.0.0","244363","61643eae0b4de3c67744a15f","2","1","9458","","","","","","","","","<img src= rock_img/I_Peridotite_02.jpg style=""width:8cm; height:5.859999999999999cm;""><p style='font-size: 30px; color: red;'><strong>Incorrect!</strong></p><p style='font-size: 30px;'><strong>This rock is peridotite</strong></p>","0","corr_feedback","1","train","3","","","","","","","",""
"","","","","","","","","","","","html-button-response","111","2.0.0","253076","61643eae0b4de3c67744a15f","2","1","8712","","","","","","","","","<img src= ""rock_img/I_Basalt_04.jpg"" style=""width:8cm; height:7.53cm;""><p>What type of rock is this?</p>","5","class_response","1","train","4","Pegmatite","Basalt","04","false","6","2","",""
"","","","","","","","","","","","html-button-response","112","2.0.0","268526","61643eae0b4de3c67744a15f","2","1","15449","","","","","","","","","<img src= rock_img/I_Basalt_04.jpg style=""width:8cm; height:7.53cm;""><p style='font-size: 30px; color: red;'><strong>Incorrect!</strong></p><p style='font-size: 30px;'><strong>This rock is basalt</strong></p>","0","corr_feedback","1","train","4","","","","","","","",""
"","","","","","","","","","","","html-button-response","113","2.0.0","270281","61643eae0b4de3c67744a15f","2","1","1754","","","","","","","","","<img src= ""rock_img/I_Basalt_01.jpg"" style=""width:8cm; height:7.880000000000001cm;""><p>What type of rock is this?</p>","3","class_response","1","train","5","Gabbro","Basalt","01","false","4","2","",""
"","","","","","","","","","","","html-button-response","114","2.0.0","271534","61643eae0b4de3c67744a15f","2","1","1252","","","","","","","","","<img src= rock_img/I_Basalt_01.jpg style=""width:8cm; height:7.880000000000001cm;""><p style='font-size: 30px; color: red;'><strong>Incorrect!</strong></p><p style='font-size: 30px;'><strong>This rock is basalt</strong></p>","0","corr_feedback","1","train","5","","","","","","","",""
"","","","","","","","","","","","html-button-response","115","2.0.0","296239","61643eae0b4de3c67744a15f","2","1","24704","","","","","","","","","<img src= ""rock_img/I_Gabbro_05.jpg"" style=""width:8cm; height:6cm;""><p>What type of rock is this?</p>","2","class_response","1","train","6","Diorite","Gabbro","05","false","3","4","",""
"","","","","","","","","","","","html-button-response","116","2.0.0","297431","61643eae0b4de3c67744a15f","2","1","1191","","","","","","","","","<img src= rock_img/I_Gabbro_05.jpg style=""width:8cm; height:6cm;""><p style='font-size: 30px; color: red;'><strong>Incorrect!</strong></p><p style='font-size: 30px;'><strong>This rock is gabbro</strong></p>","0","corr_feedback","1","train","6","","","","","","","",""
"","","","","","","","","","","","html-button-response","117","2.0.0","299471","61643eae0b4de3c67744a15f","2","1","2039","","","","","","","","","<img src= ""rock_img/I_Gabbro_03.jpg"" style=""width:8cm; height:8.52cm;""><p>What type of rock is this?</p>","5","class_response","1","train","7","Pegmatite","Gabbro","03","false","6","4","",""
"","","","","","","","","","","","html-button-response","118","2.0.0","322737","61643eae0b4de3c67744a15f","2","1","23265","","","","","","","","","<img src= rock_img/I_Gabbro_03.jpg style=""width:8cm; height:8.52cm;""><p style='font-size: 30px; color: red;'><strong>Incorrect!</strong></p><p style='font-size: 30px;'><strong>This rock is gabbro</strong></p>","0","corr_feedback","1","train","7","","","","","","","",""
"","","","","","","","","","","","html-button-response","119","2.0.0","324372","61643eae0b4de3c67744a15f","2","1","1633","","","","","","","","","<img src= ""rock_img/I_Basalt_06.jpg"" style=""width:8cm; height:7.06cm;""><p>What type of rock is this?</p>","1","class_response","1","train","8","Basalt","Basalt","06","true","2","2","",""
"","","","","","","","","","","","html-button-response","120","2.0.0","325227","61643eae0b4de3c67744a15f","2","1","854","","","","","","","","","<img src= rock_img/I_Basalt_06.jpg style=""width:8cm; height:7.06cm;""><p style='font-size: 30px; color: green;'><strong>Correct!</strong></p><p style='font-size: 30px;'><strong>This rock is basalt</strong></p>","0","corr_feedback","1","train","8","","","","","","","",""
"","","","","","","","","","","","html-button-response","121","2.0.0","327394","61643eae0b4de3c67744a15f","2","1","2166","","","","","","","","","<img src= ""rock_img/I_Andesite_02.jpg"" style=""width:8cm; height:8.5cm;""><p>What type of rock is this?</p>","2","class_response","1","train","9","Diorite","Andesite","02","false","3","1","",""
"","","","","","","","","","","","html-button-response","122","2.0.0","371434","61643eae0b4de3c67744a15f","2","1","44039","","","","","","","","","<img src= rock_img/I_Andesite_02.jpg style=""width:8cm; height:8.5cm;""><p style='font-size: 30px; color: red;'><strong>Incorrect!</strong></p><p style='font-size: 30px;'><strong>This rock is andesite</strong></p>","0","corr_feedback","1","train","9","","","","","","","",""
"","","","","","","","","","","","html-button-response","123","2.0.0","374411","61643eae0b4de3c67744a15f","2","1","2976","","","","","","","","","<img src= ""rock_img/I_Peridotite_05.jpg"" style=""width:8cm; height:7.1499999999999995cm;""><p>What type of rock is this?</p>","3","class_response","1","train","10","Gabbro","Peridotite","05","false","4","7","",""
"","","","","","","","","","","","html-button-response","124","2.0.0","378806","61643eae0b4de3c67744a15f","2","1","4394","","","","","","","","","<img src= rock_img/I_Peridotite_05.jpg style=""width:8cm; height:7.1499999999999995cm;""><p style='font-size: 30px; color: red;'><strong>Incorrect!</strong></p><p style='font-size: 30px;'><strong>This rock is peridotite</strong></p>","0","corr_feedback","1","train","10","","","","","","","",""
"","","","","","","","","","","","html-button-response","125","2.0.0","381454","61643eae0b4de3c67744a15f","2","1","2647","","","","","","","","","<img src= ""rock_img/I_Andesite_06.jpg"" style=""width:8cm; height:6.840000000000001cm;""><p>What type of rock is this?</p>","6","class_response","1","train","11","Peridotite","Andesite","06","false","7","1","",""
"","","","","","","","","","","","html-button-response","126","2.0.0","385935","61643eae0b4de3c67744a15f","2","1","4480","","","","","","","","","<img src= rock_img/I_Andesite_06.jpg style=""width:8cm; height:6.840000000000001cm;""><p style='font-size: 30px; color: red;'><strong>Incorrect!</strong></p><p style='font-size: 30px;'><strong>This rock is andesite</strong></p>","0","corr_feedback","1","train","11","","","","","","","",""
"","","","","","","","","","","","html-button-response","127","2.0.0","389033","61643eae0b4de3c67744a15f","2","1","3097","","","","","","","","","<img src= ""rock_img/I_Andesite_10.jpg"" style=""width:8cm; height:4.16cm;""><p>What type of rock is this?</p>","7","class_response","1","train","12","Pumice","Andesite","10","false","8","1","",""
"","","","","","","","","","","","html-button-response","128","2.0.0","391208","61643eae0b4de3c67744a15f","2","1","2174","","","","","","","","","<img src= rock_img/I_Andesite_10.jpg style=""width:8cm; height:4.16cm;""><p style='font-size: 30px; color: red;'><strong>Incorrect!</strong></p><p style='font-size: 30px;'><strong>This rock is andesite</strong></p>","0","corr_feedback","1","train","12","","","","","","","",""
"","","","","","","","","","","","html-button-response","129","2.0.0","395798","61643eae0b4de3c67744a15f","2","1","4588","","","","","","","","","<img src= ""rock_img/I_Peridotite_06.jpg"" style=""width:8cm; height:7.53cm;""><p>What type of rock is this?</p>","5","class_response","1","train","13","Pegmatite","Peridotite","06","false","6","7","",""
"","","","","","","","","","","","html-button-response","130","2.0.0","399363","61643eae0b4de3c67744a15f","2","1","3565","","","","","","","","","<img src= rock_img/I_Peridotite_06.jpg style=""width:8cm; height:7.53cm;""><p style='font-size: 30px; color: red;'><strong>Incorrect!</strong></p><p style='font-size: 30px;'><strong>This rock is peridotite</strong></p>","0","corr_feedback","1","train","13","","","","","","","",""
"","","","","","","","","","","","html-button-response","131","2.0.0","420360","61643eae0b4de3c67744a15f","2","1","20996","","","","","","","","","<img src= ""rock_img/I_Gabbro_01.jpg"" style=""width:8cm; height:5.21cm;""><p>What type of rock is this?</p>","5","class_response","1","train","14","Pegmatite","Gabbro","01","false","6","4","",""
"","","","","","","","","","","","html-button-response","132","2.0.0","424301","61643eae0b4de3c67744a15f","2","1","3940","","","","","","","","","<img src= rock_img/I_Gabbro_01.jpg style=""width:8cm; height:5.21cm;""><p style='font-size: 30px; color: red;'><strong>Incorrect!</strong></p><p style='font-size: 30px;'><strong>This rock is gabbro</strong></p>","0","corr_feedback","1","train","14","","","","","","","",""
"","","","","","","","","","","","html-button-response","133","2.0.0","430620","61643eae0b4de3c67744a15f","2","1","6318","","","","","","","","","<img src= ""rock_img/I_Diorite_12.jpg"" style=""width:8cm; height:4.88cm;""><p>What type of rock is this?</p>","0","class_response","1","train","15","Andesite","Diorite","12","false","1","3","",""
"","","","","","","","","","","","html-button-response","134","2.0.0","461416","61643eae0b4de3c67744a15f","2","1","30795","","","","","","","","","<img src= rock_img/I_Diorite_12.jpg style=""width:8cm; height:4.88cm;""><p style='font-size: 30px; color: red;'><strong>Incorrect!</strong></p><p style='font-size: 30px;'><strong>This rock is diorite</strong></p>","0","corr_feedback","1","train","15","","","","","","","",""
"","","","","","","","","","","","html-button-response","135","2.0.0","491172","61643eae0b4de3c67744a15f","2","1","29753","","","","","","","","","<img src= ""rock_img/I_Basalt_16.jpg"" style=""width:8cm; height:7.659999999999999cm;""><p>What type of rock is this?</p>","0","class_response","1","train","16","Andesite","Basalt","16","false","1","2","",""
"","","","","","","","","","","","html-button-response","136","2.0.0","492432","61643eae0b4de3c67744a15f","2","1","1259","","","","","","","","","<img src= rock_img/I_Basalt_16.jpg style=""width:8cm; height:7.659999999999999cm;""><p style='font-size: 30px; color: red;'><strong>Incorrect!</strong></p><p style='font-size: 30px;'><strong>This rock is basalt</strong></p>","0","corr_feedback","1","train","16","","","","","","","",""
"","","","","","","","","","","","html-button-response","137","2.0.0","493924","61643eae0b4de3c67744a15f","2","1","1491","","","","","","","","","<img src= ""rock_img/I_Basalt_02.jpg"" style=""width:8cm; height:6.45cm;""><p>What type of rock is this?</p>","1","class_response","1","train","17","Basalt","Basalt","02","true","2","2","",""
"","","","","","","","","","","","html-button-response","138","2.0.0","494839","61643eae0b4de3c67744a15f","2","1","914","","","","","","","","","<img src= rock_img/I_Basalt_02.jpg style=""width:8cm; height:6.45cm;""><p style='font-size: 30px; color: green;'><strong>Correct!</strong></p><p style='font-size: 30px;'><strong>This rock is basalt</strong></p>","0","corr_feedback","1","train","17","","","","","","","",""
"","","","","","","","","","","","html-button-response","139","2.0.0","498394","61643eae0b4de3c67744a15f","2","1","3554","","","","","","","","","<img src= ""rock_img/I_Peridotite_12.jpg"" style=""width:8cm; height:4.54cm;""><p>What type of rock is this?</p>","2","class_response","1","train","18","Diorite","Peridotite","12","false","3","7","",""
"","","","","","","","","","","","html-button-response","140","2.0.0","500719","61643eae0b4de3c67744a15f","2","1","2324","","","","","","","","","<img src= rock_img/I_Peridotite_12.jpg style=""width:8cm; height:4.54cm;""><p style='font-size: 30px; color: red;'><strong>Incorrect!</strong></p><p style='font-size: 30px;'><strong>This rock is peridotite</strong></p>","0","corr_feedback","1","train","18","","","","","","","",""
"","","","","","","","","","","","html-button-response","141","2.0.0","502797","61643eae0b4de3c67744a15f","2","1","2076","","","","","","","","","<img src= ""rock_img/I_Gabbro_08.jpg"" style=""width:8cm; height:5.15cm;""><p>What type of rock is this?</p>","7","class_response","1","train","19","Pumice","Gabbro","08","false","8","4","",""
"","","","","","","","","","","","html-button-response","142","2.0.0","504410","61643eae0b4de3c67744a15f","2","1","1612","","","","","","","","","<img src= rock_img/I_Gabbro_08.jpg style=""width:8cm; height:5.15cm;""><p style='font-size: 30px; color: red;'><strong>Incorrect!</strong></p><p style='font-size: 30px;'><strong>This rock is gabbro</strong></p>","0","corr_feedback","1","train","19","","","","","","","",""
"","","","","","","","","","","","html-button-response","143","2.0.0","508152","61643eae0b4de3c67744a15f","2","1","3741","","","","","","","","","<img src= ""rock_img/I_Pegmatite_07.jpg"" style=""width:8cm; height:6.7cm;""><p>What type of rock is this?</p>","5","class_response","1","train","20","Pegmatite","Pegmatite","07","true","6","6","",""
"","","","","","","","","","","","html-button-response","144","2.0.0","509097","61643eae0b4de3c67744a15f","2","1","944","","","","","","","","","<img src= rock_img/I_Pegmatite_07.jpg style=""width:8cm; height:6.7cm;""><p style='font-size: 30px; color: green;'><strong>Correct!</strong></p><p style='font-size: 30px;'><strong>This rock is pegmatite</strong></p>","0","corr_feedback","1","train","20","","","","","","","",""
"","","","","","","","","","","","html-button-response","145","2.0.0","513357","61643eae0b4de3c67744a15f","2","1","4259","","","","","","","","","<img src= ""rock_img/I_Andesite_16.jpg"" style=""width:8cm; height:6.010000000000001cm;""><p>What type of rock is this?</p>","0","class_response","1","train","21","Andesite","Andesite","16","true","1","1","",""
"","","","","","","","","","","","html-button-response","146","2.0.0","514204","61643eae0b4de3c67744a15f","2","1","846","","","","","","","","","<img src= rock_img/I_Andesite_16.jpg style=""width:8cm; height:6.010000000000001cm;""><p style='font-size: 30px; color: green;'><strong>Correct!</strong></p><p style='font-size: 30px;'><strong>This rock is andesite</strong></p>","0","corr_feedback","1","train","21","","","","","","","",""
"","","","","","","","","","","","html-button-response","147","2.0.0","516312","61643eae0b4de3c67744a15f","2","1","2106","","","","","","","","","<img src= ""rock_img/I_Pegmatite_13.jpg"" style=""width:8cm; height:4.95cm;""><p>What type of rock is this?</p>","0","class_response","1","train","22","Andesite","Pegmatite","13","false","1","6","",""
"","","","","","","","","","","","html-button-response","148","2.0.0","519927","61643eae0b4de3c67744a15f","2","1","3614","","","","","","","","","<img src= rock_img/I_Pegmatite_13.jpg style=""width:8cm; height:4.95cm;""><p style='font-size: 30px; color: red;'><strong>Incorrect!</strong></p><p style='font-size: 30px;'><strong>This rock is pegmatite</strong></p>","0","corr_feedback","1","train","22","","","","","","","",""
"","","","","","","","","","","","html-button-response","149","2.0.0","525522","61643eae0b4de3c67744a15f","2","1","5594","","","","","","","","","<img src= ""rock_img/I_Diorite_16.jpg"" style=""width:8cm; height:6.74cm;""><p>What type of rock is this?</p>","2","class_response","1","train","23","Diorite","Diorite","16","true","3","3","",""
"","","","","","","","","","","","html-button-response","150","2.0.0","526467","61643eae0b4de3c67744a15f","2","1","944","","","","","","","","","<img src= rock_img/I_Diorite_16.jpg style=""width:8cm; height:6.74cm;""><p style='font-size: 30px; color: green;'><strong>Correct!</strong></p><p style='font-size: 30px;'><strong>This rock is diorite</strong></p>","0","corr_feedback","1","train","23","","","","","","","",""
"","","","","","","","","","","","html-button-response","151","2.0.0","528072","61643eae0b4de3c67744a15f","2","1","1603","","","","","","","","","<img src= ""rock_img/I_Gabbro_03.jpg"" style=""width:8cm; height:8.52cm;""><p>What type of rock is this?</p>","1","class_response","1","train","24","Basalt","Gabbro","03","false","2","4","",""
"","","","","","","","","","","","html-button-response","152","2.0.0","529054","61643eae0b4de3c67744a15f","2","1","981","","","","","","","","","<img src= rock_img/I_Gabbro_03.jpg style=""width:8cm; height:8.52cm;""><p style='font-size: 30px; color: red;'><strong>Incorrect!</strong></p><p style='font-size: 30px;'><strong>This rock is gabbro</strong></p>","0","corr_feedback","1","train","24","","","","","","","",""
"","","","","","","","","","","","html-button-response","153","2.0.0","531559","61643eae0b4de3c67744a15f","2","1","2504","","","","","","","","","<img src= ""rock_img/I_Gabbro_14.jpg"" style=""width:8cm; height:8.48cm;""><p>What type of rock is this?</p>","3","class_response","1","train","25","Gabbro","Gabbro","14","true","4","4","",""
"","","","","","","","","","","","html-button-response","154","2.0.0","532392","61643eae0b4de3c67744a15f","2","1","831","","","","","","","","","<img src= rock_img/I_Gabbro_14.jpg style=""width:8cm; height:8.48cm;""><p style='font-size: 30px; color: green;'><strong>Correct!</strong></p><p style='font-size: 30px;'><strong>This rock is gabbro</strong></p>","0","corr_feedback","1","train","25","","","","","","","",""
"","","","","","","","","","","","html-button-response","155","2.0.0","536142","61643eae0b4de3c67744a15f","2","1","3749","","","","","","","","","<img src= ""rock_img/I_Andesite_14.jpg"" style=""width:8cm; height:5.449999999999999cm;""><p>What type of rock is this?</p>","0","class_response","1","train","26","Andesite","Andesite","14","true","1","1","",""
"","","","","","","","","","","","html-button-response","156","2.0.0","536832","61643eae0b4de3c67744a15f","2","1","689","","","","","","","","","<img src= rock_img/I_Andesite_14.jpg style=""width:8cm; height:5.449999999999999cm;""><p style='font-size: 30px; color: green;'><strong>Correct!</strong></p><p style='font-size: 30px;'><strong>This rock is andesite</strong></p>","0","corr_feedback","1","train","26","","","","","","","",""
"","","","","","","","","","","","html-button-response","157","2.0.0","541609","61643eae0b4de3c67744a15f","2","1","4776","","","","","","","","","<img src= ""rock_img/I_Pegmatite_15.jpg"" style=""width:8cm; height:6cm;""><p>What type of rock is this?</p>","5","class_response","1","train","27","Pegmatite","Pegmatite","15","true","6","6","",""
"","","","","","","","","","","","html-button-response","158","2.0.0","542435","61643eae0b4de3c67744a15f","2","1","824","","","","","","","","","<img src= rock_img/I_Pegmatite_15.jpg style=""width:8cm; height:6cm;""><p style='font-size: 30px; color: green;'><strong>Correct!</strong></p><p style='font-size: 30px;'><strong>This rock is pegmatite</strong></p>","0","corr_feedback","1","train","27","","","","","","","",""
"","","","","","","","","","","","html-button-response","159","2.0.0","544285","61643eae0b4de3c67744a15f","2","1","1849","","","","","","","","","<img src= ""rock_img/I_Pegmatite_05.jpg"" style=""width:8cm; height:7.300000000000001cm;""><p>What type of rock is this?</p>","5","class_response","1","train","28","Pegmatite","Pegmatite","05","true","6","6","",""
"","","","","","","","","","","","html-button-response","160","2.0.0","544977","61643eae0b4de3c67744a15f","2","1","691","","","","","","","","","<img src= rock_img/I_Pegmatite_05.jpg style=""width:8cm; height:7.300000000000001cm;""><p style='font-size: 30px; color: green;'><strong>Correct!</strong></p><p style='font-size: 30px;'><strong>This rock is pegmatite</strong></p>","0","corr_feedback","1","train","28","","","","","","","",""
"","","","","","","","","","","","html-button-response","161","2.0.0","546972","61643eae0b4de3c67744a15f","2","1","1994","","","","","","","","","<img src= ""rock_img/I_Peridotite_16.jpg"" style=""width:8cm; height:6.989999999999999cm;""><p>What type of rock is this?</p>","1","class_response","1","train","29","Basalt","Peridotite","16","false","2","7","",""
"","","","","","","","","","","","html-button-response","162","2.0.0","549417","61643eae0b4de3c67744a15f","2","1","2444","","","","","","","","","<img src= rock_img/I_Peridotite_16.jpg style=""width:8cm; height:6.989999999999999cm;""><p style='font-size: 30px; color: red;'><strong>Incorrect!</strong></p><p style='font-size: 30px;'><strong>This rock is peridotite</strong></p>","0","corr_feedback","1","train","29","","","","","","","",""
"","","","","","","","","","","","html-button-response","163","2.0.0","552567","61643eae0b4de3c67744a15f","2","1","3149","","","","","","","","","<img src= ""rock_img/I_Andesite_04.jpg"" style=""width:8cm; height:5.96cm;""><p>What type of rock is this?</p>","0","class_response","1","train","30","Andesite","Andesite","04","true","1","1","",""
"","","","","","","","","","","","html-button-response","164","2.0.0","553310","61643eae0b4de3c67744a15f","2","1","742","","","","","","","","","<img src= rock_img/I_Andesite_04.jpg style=""width:8cm; height:5.96cm;""><p style='font-size: 30px; color: green;'><strong>Correct!</strong></p><p style='font-size: 30px;'><strong>This rock is andesite</strong></p>","0","corr_feedback","1","train","30","","","","","","","",""
"","","","","","","","","","","","html-button-response","165","2.0.0","556512","61643eae0b4de3c67744a15f","2","1","3201","","","","","","","","","<img src= ""rock_img/I_Pegmatite_11.jpg"" style=""width:8cm; height:8.14cm;""><p>What type of rock is this?</p>","5","class_response","1","train","31","Pegmatite","Pegmatite","11","true","6","6","",""
"","","","","","","","","","","","html-button-response","166","2.0.0","557337","61643eae0b4de3c67744a15f","2","1","824","","","","","","","","","<img src= rock_img/I_Pegmatite_11.jpg style=""width:8cm; height:8.14cm;""><p style='font-size: 30px; color: green;'><strong>Correct!</strong></p><p style='font-size: 30px;'><strong>This rock is pegmatite</strong></p>","0","corr_feedback","1","train","31","","","","","","","",""
"","","","","","","","","","","","html-button-response","167","2.0.0","558807","61643eae0b4de3c67744a15f","2","1","1470","","","","","","","","","<img src= ""rock_img/I_Basalt_01.jpg"" style=""width:8cm; height:7.880000000000001cm;""><p>What type of rock is this?</p>","1","class_response","1","train","32","Basalt","Basalt","01","true","2","2","",""
"","","","","","","","","","","","html-button-response","168","2.0.0","559535","61643eae0b4de3c67744a15f","2","1","726","","","","","","","","","<img src= rock_img/I_Basalt_01.jpg style=""width:8cm; height:7.880000000000001cm;""><p style='font-size: 30px; color: green;'><strong>Correct!</strong></p><p style='font-size: 30px;'><strong>This rock is basalt</strong></p>","0","corr_feedback","1","train","32","","","","","","","",""
"","","","","","","","","","","","html-button-response","169","2.0.0","560952","61643eae0b4de3c67744a15f","2","1","1416","","","","","","","","","<img src= ""rock_img/I_Basalt_05.jpg"" style=""width:8cm; height:8.18cm;""><p>What type of rock is this?</p>","1","class_response","1","train","33","Basalt","Basalt","05","true","2","2","",""
"","","","","","","","","","","","html-button-response","170","2.0.0","561529","61643eae0b4de3c67744a15f","2","1","576","","","","","","","","","<img src= rock_img/I_Basalt_05.jpg style=""width:8cm; height:8.18cm;""><p style='font-size: 30px; color: green;'><strong>Correct!</strong></p><p style='font-size: 30px;'><strong>This rock is basalt</strong></p>","0","corr_feedback","1","train","33","","","","","","","",""
"","","","","","","","","","","","html-button-response","171","2.0.0","563960","61643eae0b4de3c67744a15f","2","1","2429","","","","","","","","","<img src= ""rock_img/I_Gabbro_11.jpg"" style=""width:8cm; height:6.2cm;""><p>What type of rock is this?</p>","3","class_response","1","train","34","Gabbro","Gabbro","11","true","4","4","",""
"","","","","","","","","","","","html-button-response","172","2.0.0","564672","61643eae0b4de3c67744a15f","2","1","712","","","","","","","","","<img src= rock_img/I_Gabbro_11.jpg style=""width:8cm; height:6.2cm;""><p style='font-size: 30px; color: green;'><strong>Correct!</strong></p><p style='font-size: 30px;'><strong>This rock is gabbro</strong></p>","0","corr_feedback","1","train","34","","","","","","","",""
"","","","","","","","","","","","html-button-response","173","2.0.0","566345","61643eae0b4de3c67744a15f","2","1","1671","","","","","","","","","<img src= ""rock_img/I_Pegmatite_07.jpg"" style=""width:8cm; height:6.7cm;""><p>What type of rock is this?</p>","0","class_response","1","train","35","Andesite","Pegmatite","07","false","1","6","",""
"","","","","","","","","","","","html-button-response","174","2.0.0","568677","61643eae0b4de3c67744a15f","2","1","2332","","","","","","","","","<img src= rock_img/I_Pegmatite_07.jpg style=""width:8cm; height:6.7cm;""><p style='font-size: 30px; color: red;'><strong>Incorrect!</strong></p><p style='font-size: 30px;'><strong>This rock is pegmatite</strong></p>","0","corr_feedback","1","train","35","","","","","","","",""
"","","","","","","","","","","","html-button-response","175","2.0.0","570320","61643eae0b4de3c67744a15f","2","1","1641","","","","","","","","","<img src= ""rock_img/I_Peridotite_05.jpg"" style=""width:8cm; height:7.1499999999999995cm;""><p>What type of rock is this?</p>","1","class_response","1","train","36","Basalt","Peridotite","05","false","2","7","",""
"","","","","","","","","","","","html-button-response","176","2.0.0","571820","61643eae0b4de3c67744a15f","2","1","1499","","","","","","","","","<img src= rock_img/I_Peridotite_05.jpg style=""width:8cm; height:7.1499999999999995cm;""><p style='font-size: 30px; color: red;'><strong>Incorrect!</strong></p><p style='font-size: 30px;'><strong>This rock is peridotite</strong></p>","0","corr_feedback","1","train","36","","","","","","","",""
"","","","","","","","","","","","html-button-response","177","2.0.0","575412","61643eae0b4de3c67744a15f","2","1","3591","","","","","","","","","<img src= ""rock_img/I_Pegmatite_15.jpg"" style=""width:8cm; height:6cm;""><p>What type of rock is this?</p>","5","class_response","1","train","37","Pegmatite","Pegmatite","15","true","6","6","",""
"","","","","","","","","","","","html-button-response","178","2.0.0","576020","61643eae0b4de3c67744a15f","2","1","607","","","","","","","","","<img src= rock_img/I_Pegmatite_15.jpg style=""width:8cm; height:6cm;""><p style='font-size: 30px; color: green;'><strong>Correct!</strong></p><p style='font-size: 30px;'><strong>This rock is pegmatite</strong></p>","0","corr_feedback","1","train","37","","","","","","","",""
"","","","","","","","","","","","html-button-response","179","2.0.0","579987","61643eae0b4de3c67744a15f","2","1","3966","","","","","","","","","<img src= ""rock_img/I_Andesite_10.jpg"" style=""width:8cm; height:4.16cm;""><p>What type of rock is this?</p>","0","class_response","1","train","38","Andesite","Andesite","10","true","1","1","",""
"","","","","","","","","","","","html-button-response","180","2.0.0","580641","61643eae0b4de3c67744a15f","2","1","652","","","","","","","","","<img src= rock_img/I_Andesite_10.jpg style=""width:8cm; height:4.16cm;""><p style='font-size: 30px; color: green;'><strong>Correct!</strong></p><p style='font-size: 30px;'><strong>This rock is andesite</strong></p>","0","corr_feedback","1","train","38","","","","","","","",""
"","","","","","","","","","","","html-button-response","181","2.0.0","581953","61643eae0b4de3c67744a15f","2","1","1311","","","","","","","","","<img src= ""rock_img/I_Diorite_08.jpg"" style=""width:8cm; height:6.37cm;""><p>What type of rock is this?</p>","0","class_response","1","train","39","Andesite","Diorite","08","false","1","3","",""
"","","","","","","","","","","","html-button-response","182","2.0.0","583858","61643eae0b4de3c67744a15f","2","1","1904","","","","","","","","","<img src= rock_img/I_Diorite_08.jpg style=""width:8cm; height:6.37cm;""><p style='font-size: 30px; color: red;'><strong>Incorrect!</strong></p><p style='font-size: 30px;'><strong>This rock is diorite</strong></p>","0","corr_feedback","1","train","39","","","","","","","",""
"","","","","","","","","","","","html-button-response","183","2.0.0","586047","61643eae0b4de3c67744a15f","2","1","2189","","","","","","","","","<img src= ""rock_img/I_Gabbro_14.jpg"" style=""width:8cm; height:8.48cm;""><p>What type of rock is this?</p>","1","class_response","1","train","40","Basalt","Gabbro","14","false","2","4","",""
"","","","","","","","","","","","html-button-response","184","2.0.0","586919","61643eae0b4de3c67744a15f","2","1","871","","","","","","","","","<img src= rock_img/I_Gabbro_14.jpg style=""width:8cm; height:8.48cm;""><p style='font-size: 30px; color: red;'><strong>Incorrect!</strong></p><p style='font-size: 30px;'><strong>This rock is gabbro</strong></p>","0","corr_feedback","1","train","40","","","","","","","",""
"","","","","","","","","","","","html-button-response","185","2.0.0","589100","61643eae0b4de3c67744a15f","2","1","2179","","","","","","","","","<img src= ""rock_img/I_Diorite_13.jpg"" style=""width:8cm; height:6.29cm;""><p>What type of rock is this?</p>","0","class_response","1","train","41","Andesite","Diorite","13","false","1","3","",""
"","","","","","","","","","","","html-button-response","186","2.0.0","592685","61643eae0b4de3c67744a15f","2","1","3584","","","","","","","","","<img src= rock_img/I_Diorite_13.jpg style=""width:8cm; height:6.29cm;""><p style='font-size: 30px; color: red;'><strong>Incorrect!</strong></p><p style='font-size: 30px;'><strong>This rock is diorite</strong></p>","0","corr_feedback","1","train","41","","","","","","","",""
"","","","","","","","","","","","html-button-response","187","2.0.0","593922","61643eae0b4de3c67744a15f","2","1","1237","","","","","","","","","<img src= ""rock_img/I_Basalt_06.jpg"" style=""width:8cm; height:7.06cm;""><p>What type of rock is this?</p>","1","class_response","1","train","42","Basalt","Basalt","06","true","2","2","",""
"","","","","","","","","","","","html-button-response","188","2.0.0","594620","61643eae0b4de3c67744a15f","2","1","697","","","","","","","","","<img src= rock_img/I_Basalt_06.jpg style=""width:8cm; height:7.06cm;""><p style='font-size: 30px; color: green;'><strong>Correct!</strong></p><p style='font-size: 30px;'><strong>This rock is basalt</strong></p>","0","corr_feedback","1","train","42","","","","","","","",""
"","","","","","","","","","","","html-button-response","189","2.0.0","597230","61643eae0b4de3c67744a15f","2","1","2609","","","","","","","","","<img src= ""rock_img/I_Basalt_16.jpg"" style=""width:8cm; height:7.659999999999999cm;""><p>What type of rock is this?</p>","7","class_response","1","train","43","Pumice","Basalt","16","false","8","2","",""
"","","","","","","","","","","","html-button-response","190","2.0.0","598272","61643eae0b4de3c67744a15f","2","1","1041","","","","","","","","","<img src= rock_img/I_Basalt_16.jpg style=""width:8cm; height:7.659999999999999cm;""><p style='font-size: 30px; color: red;'><strong>Incorrect!</strong></p><p style='font-size: 30px;'><strong>This rock is basalt</strong></p>","0","corr_feedback","1","train","43","","","","","","","",""
"","","","","","","","","","","","html-button-response","191","2.0.0","600133","61643eae0b4de3c67744a15f","2","1","1859","","","","","","","","","<img src= ""rock_img/I_Diorite_07.jpg"" style=""width:8cm; height:5.239999999999999cm;""><p>What type of rock is this?</p>","0","class_response","1","train","44","Andesite","Diorite","07","false","1","3","",""
"","","","","","","","","","","","html-button-response","192","2.0.0","605539","61643eae0b4de3c67744a15f","2","1","5406","","","","","","","","","<img src= rock_img/I_Diorite_07.jpg style=""width:8cm; height:5.239999999999999cm;""><p style='font-size: 30px; color: red;'><strong>Incorrect!</strong></p><p style='font-size: 30px;'><strong>This rock is diorite</strong></p>","0","corr_feedback","1","train","44","","","","","","","",""
"","","","","","","","","","","","html-button-response","193","2.0.0","607197","61643eae0b4de3c67744a15f","2","1","1657","","","","","","","","","<img src= ""rock_img/I_Obsidian_10.jpg"" style=""width:8cm; height:6.260000000000001cm;""><p>What type of rock is this?</p>","4","class_response","1","train","45","Obsidian","Obsidian","10","true","5","5","",""
"","","","","","","","","","","","html-button-response","194","2.0.0","607903","61643eae0b4de3c67744a15f","2","1","705","","","","","","","","","<img src= rock_img/I_Obsidian_10.jpg style=""width:8cm; height:6.260000000000001cm;""><p style='font-size: 30px; color: green;'><strong>Correct!</strong></p><p style='font-size: 30px;'><strong>This rock is obsidian</strong></p>","0","corr_feedback","1","train","45","","","","","","","",""
"","","","","","","","","","","","html-button-response","195","2.0.0","609335","61643eae0b4de3c67744a15f","2","1","1431","","","","","","","","","<img src= ""rock_img/I_Pumice_02.jpg"" style=""width:8cm; height:7.3999999999999995cm;""><p>What type of rock is this?</p>","7","class_response","1","train","46","Pumice","Pumice","02","true","8","8","",""
"","","","","","","","","","","","html-button-response","196","2.0.0","610049","61643eae0b4de3c67744a15f","2","1","712","","","","","","","","","<img src= rock_img/I_Pumice_02.jpg style=""width:8cm; height:7.3999999999999995cm;""><p style='font-size: 30px; color: green;'><strong>Correct!</strong></p><p style='font-size: 30px;'><strong>This rock is pumice</strong></p>","0","corr_feedback","1","train","46","","","","","","","",""
"","","","","","","","","","","","html-button-response","197","2.0.0","612545","61643eae0b4de3c67744a15f","2","1","2495","","","","","","","","","<img src= ""rock_img/I_Pegmatite_09.jpg"" style=""width:8cm; height:4.03cm;""><p>What type of rock is this?</p>","0","class_response","1","train","47","Andesite","Pegmatite","09","false","1","6","",""
"","","","","","","","","","","","html-button-response","198","2.0.0","613821","61643eae0b4de3c67744a15f","2","1","1274","","","","","","","","","<img src= rock_img/I_Pegmatite_09.jpg style=""width:8cm; height:4.03cm;""><p style='font-size: 30px; color: red;'><strong>Incorrect!</strong></p><p style='font-size: 30px;'><strong>This rock is pegmatite</strong></p>","0","corr_feedback","1","train","47","","","","","","","",""
"","","","","","","","","","","","html-button-response","199","2.0.0","616595","61643eae0b4de3c67744a15f","2","1","2773","","","","","","","","","<img src= ""rock_img/I_Andesite_14.jpg"" style=""width:8cm; height:5.449999999999999cm;""><p>What type of rock is this?</p>","0","class_response","1","train","48","Andesite","Andesite","14","true","1","1","",""
"","","","","","","","","","","","html-button-response","200","2.0.0","617270","61643eae0b4de3c67744a15f","2","1","674","","","","","","","","","<img src= rock_img/I_Andesite_14.jpg style=""width:8cm; height:5.449999999999999cm;""><p style='font-size: 30px; color: green;'><strong>Correct!</strong></p><p style='font-size: 30px;'><strong>This rock is andesite</strong></p>","0","corr_feedback","1","train","48","","","","","","","",""
"","","","","","","","","","","","instructions","203","2.0.0","623818","61643eae0b4de3c67744a15f","2","1","6548","","","","","","","","[{""page_index"":0,""viewing_time"":4619},{""page_index"":1,""viewing_time"":1928}]","","","","","","","","","","","","","",""
"","","","","","","","","","","","html-button-response","204","2.0.0","624980","61643eae0b4de3c67744a15f","2","1","1161","","","","","","","","","","0","start_test","","","","","","","","","","",""
"","","","","","","","","","","","html-button-response","205","2.0.0","627133","61643eae0b4de3c67744a15f","2","1","2151","","","","","","","","","<img src= ""rock_img/I_Pegmatite_03.jpg"" style=""width:8cm; height:5.239999999999999cm;""><p>What type of rock is this?</p>","0","class_response","1","test","1","Andesite","Pegmatite","03","false","1","6","",""
"","","","","","","","","","","","html-keyboard-response","206","2.0.0","627643","61643eae0b4de3c67744a15f","2","1","null","","","","","","","","","<p style='font-size: 30px;'><strong>Okay</strong></p>","null","neutral_feedback","1","test","1","","","","","","","",""
"","","","","","","","","","","","html-button-response","207","2.0.0","630725","61643eae0b4de3c67744a15f","2","1","3081","","","","","","","","","<img src= ""rock_img/I_Gabbro_12.jpg"" style=""width:8cm; height:7.800000000000001cm;""><p>What type of rock is this?</p>","3","class_response","1","test","2","Gabbro","Gabbro","12","true","4","4","",""
"","","","","","","","","","","","html-keyboard-response","208","2.0.0","631225","61643eae0b4de3c67744a15f","2","1","null","","","","","","","","","<p style='font-size: 30px;'><strong>Okay</strong></p>","null","neutral_feedback","1","test","2","","","","","","","",""
"","","","","","","","","","","","html-button-response","209","2.0.0","632457","61643eae0b4de3c67744a15f","2","1","1231","","","","","","","","","<img src= ""rock_img/I_Obsidian_08.jpg"" style=""width:8cm; height:7.39cm;""><p>What type of rock is this?</p>","4","class_response","1","test","3","Obsidian","Obsidian","08","true","5","5","",""
"","","","","","","","","","","","html-keyboard-response","210","2.0.0","632959","61643eae0b4de3c67744a15f","2","1","null","","","","","","","","","<p style='font-size: 30px;'><strong>Okay</strong></p>","null","neutral_feedback","1","test","3","","","","","","","",""
"","","","","","","","","","","","html-button-response","211","2.0.0","639162","61643eae0b4de3c67744a15f","2","1","6203","","","","","","","","","<img src= ""rock_img/I_Andesite_03.jpg"" style=""width:8cm; height:5.73cm;""><p>What type of rock is this?</p>","1","class_response","1","test","4","Basalt","Andesite","03","false","2","1","",""
"","","","","","","","","","","","html-keyboard-response","212","2.0.0","639666","61643eae0b4de3c67744a15f","2","1","null","","","","","","","","","<p style='font-size: 30px;'><strong>Okay</strong></p>","null","neutral_feedback","1","test","4","","","","","","","",""
"","","","","","","","","","","","html-button-response","213","2.0.0","640895","61643eae0b4de3c67744a15f","2","1","1228","","","","","","","","","<img src= ""rock_img/I_Pumice_13.jpg"" style=""width:8cm; height:8.200000000000001cm;""><p>What type of rock is this?</p>","7","class_response","1","test","5","Pumice","Pumice","13","true","8","8","",""
"","","","","","","","","","","","html-keyboard-response","214","2.0.0","641409","61643eae0b4de3c67744a15f","2","1","null","","","","","","","","","<p style='font-size: 30px;'><strong>Okay</strong></p>","null","neutral_feedback","1","test","5","","","","","","","",""
"","","","","","","","","","","","html-button-response","215","2.0.0","642274","61643eae0b4de3c67744a15f","2","1","864","","","","","","","","","<img src= ""rock_img/I_Pumice_08.jpg"" style=""width:8cm; height:6.67cm;""><p>What type of rock is this?</p>","7","class_response","1","test","6","Pumice","Pumice","08","true","8","8","",""
"","","","","","","","","","","","html-keyboard-response","216","2.0.0","642782","61643eae0b4de3c67744a15f","2","1","null","","","","","","","","","<p style='font-size: 30px;'><strong>Okay</strong></p>","null","neutral_feedback","1","test","6","","","","","","","",""
"","","","","","","","","","","","html-button-response","217","2.0.0","645927","61643eae0b4de3c67744a15f","2","1","3144","","","","","","","","","<img src= ""rock_img/I_Andesite_01.jpg"" style=""width:8cm; height:5.87cm;""><p>What type of rock is this?</p>","1","class_response","1","test","7","Basalt","Andesite","01","false","2","1","",""
"","","","","","","","","","","","html-keyboard-response","218","2.0.0","646440","61643eae0b4de3c67744a15f","2","1","null","","","","","","","","","<p style='font-size: 30px;'><strong>Okay</strong></p>","null","neutral_feedback","1","test","7","","","","","","","",""
"","","","","","","","","","","","html-button-response","219","2.0.0","655040","61643eae0b4de3c67744a15f","2","1","8598","","","","","","","","","<img src= ""rock_img/I_Gabbro_10.jpg"" style=""width:8cm; height:5.680000000000001cm;""><p>What type of rock is this?</p>","7","class_response","1","test","8","Pumice","Gabbro","10","false","8","4","",""
"","","","","","","","","","","","html-keyboard-response","220","2.0.0","655540","61643eae0b4de3c67744a15f","2","1","null","","","","","","","","","<p style='font-size: 30px;'><strong>Okay</strong></p>","null","neutral_feedback","1","test","8","","","","","","","",""
"","","","","","","","","","","","html-button-response","221","2.0.0","659900","61643eae0b4de3c67744a15f","2","1","4358","","","","","","","","","<img src= ""rock_img/I_Pegmatite_16.jpg"" style=""width:8cm; height:5.8cm;""><p>What type of rock is this?</p>","5","class_response","1","test","9","Pegmatite","Pegmatite","16","true","6","6","",""
"","","","","","","","","","","","html-keyboard-response","222","2.0.0","660406","61643eae0b4de3c67744a15f","2","1","null","","","","","","","","","<p style='font-size: 30px;'><strong>Okay</strong></p>","null","neutral_feedback","1","test","9","","","","","","","",""
"","","","","","","","","","","","html-button-response","223","2.0.0","661557","61643eae0b4de3c67744a15f","2","1","1151","","","","","","","","","<img src= ""rock_img/I_Pegmatite_10.jpg"" style=""width:8cm; height:4.16cm;""><p>What type of rock is this?</p>","5","class_response","1","test","10","Pegmatite","Pegmatite","10","true","6","6","",""
"","","","","","","","","","","","html-keyboard-response","224","2.0.0","662067","61643eae0b4de3c67744a15f","2","1","null","","","","","","","","","<p style='font-size: 30px;'><strong>Okay</strong></p>","null","neutral_feedback","1","test","10","","","","","","","",""
"","","","","","","","","","","","html-button-response","225","2.0.0","667453","61643eae0b4de3c67744a15f","2","1","5384","","","","","","","","","<img src= ""rock_img/I_Diorite_10.jpg"" style=""width:8cm; height:5.949999999999999cm;""><p>What type of rock is this?</p>","6","class_response","1","test","11","Peridotite","Diorite","10","false","7","3","",""
"","","","","","","","","","","","html-keyboard-response","226","2.0.0","667966","61643eae0b4de3c67744a15f","2","1","null","","","","","","","","","<p style='font-size: 30px;'><strong>Okay</strong></p>","null","neutral_feedback","1","test","11","","","","","","","",""
"","","","","","","","","","","","html-button-response","227","2.0.0","671653","61643eae0b4de3c67744a15f","2","1","3686","","","","","","","","","<img src= ""rock_img/I_Diorite_09.jpg"" style=""width:8cm; height:5.27cm;""><p>What type of rock is this?</p>","2","class_response","1","test","12","Diorite","Diorite","09","true","3","3","",""
"","","","","","","","","","","","html-keyboard-response","228","2.0.0","672153","61643eae0b4de3c67744a15f","2","1","null","","","","","","","","","<p style='font-size: 30px;'><strong>Okay</strong></p>","null","neutral_feedback","1","test","12","","","","","","","",""
"","","","","","","","","","","","html-button-response","229","2.0.0","673333","61643eae0b4de3c67744a15f","2","1","1178","","","","","","","","","<img src= ""rock_img/I_Pumice_14.jpg"" style=""width:8cm; height:6.39cm;""><p>What type of rock is this?</p>","7","class_response","1","test","13","Pumice","Pumice","14","true","8","8","",""
"","","","","","","","","","","","html-keyboard-response","230","2.0.0","673835","61643eae0b4de3c67744a15f","2","1","null","","","","","","","","","<p style='font-size: 30px;'><strong>Okay</strong></p>","null","neutral_feedback","1","test","13","","","","","","","",""
"","","","","","","","","","","","html-button-response","231","2.0.0","675695","61643eae0b4de3c67744a15f","2","1","1859","","","","","","","","","<img src= ""rock_img/I_Diorite_15.jpg"" style=""width:8cm; height:5.54cm;""><p>What type of rock is this?</p>","2","class_response","1","test","14","Diorite","Diorite","15","true","3","3","",""
"","","","","","","","","","","","html-keyboard-response","232","2.0.0","676197","61643eae0b4de3c67744a15f","2","1","null","","","","","","","","","<p style='font-size: 30px;'><strong>Okay</strong></p>","null","neutral_feedback","1","test","14","","","","","","","",""
"","","","","","","","","","","","html-button-response","233","2.0.0","678650","61643eae0b4de3c67744a15f","2","1","2452","","","","","","","","","<img src= ""rock_img/I_Andesite_07.jpg"" style=""width:8cm; height:5.93cm;""><p>What type of rock is this?</p>","3","class_response","1","test","15","Gabbro","Andesite","07","false","4","1","",""
"","","","","","","","","","","","html-keyboard-response","234","2.0.0","679154","61643eae0b4de3c67744a15f","2","1","null","","","","","","","","","<p style='font-size: 30px;'><strong>Okay</strong></p>","null","neutral_feedback","1","test","15","","","","","","","",""
"","","","","","","","","","","","html-button-response","235","2.0.0","682745","61643eae0b4de3c67744a15f","2","1","3590","","","","","","","","","<img src= ""rock_img/I_Gabbro_09.jpg"" style=""width:8cm; height:7.279999999999999cm;""><p>What type of rock is this?</p>","1","class_response","1","test","16","Basalt","Gabbro","09","false","2","4","",""
"","","","","","","","","","","","html-keyboard-response","236","2.0.0","683257","61643eae0b4de3c67744a15f","2","1","null","","","","","","","","","<p style='font-size: 30px;'><strong>Okay</strong></p>","null","neutral_feedback","1","test","16","","","","","","","",""
"","","","","","","","","","","","html-button-response","237","2.0.0","685933","61643eae0b4de3c67744a15f","2","1","2674","","","","","","","","","<img src= ""rock_img/I_Diorite_11.jpg"" style=""width:8cm; height:7.11cm;""><p>What type of rock is this?</p>","2","class_response","1","test","17","Diorite","Diorite","11","true","3","3","",""
"","","","","","","","","","","","html-keyboard-response","238","2.0.0","686437","61643eae0b4de3c67744a15f","2","1","null","","","","","","","","","<p style='font-size: 30px;'><strong>Okay</strong></p>","null","neutral_feedback","1","test","17","","","","","","","",""
"","","","","","","","","","","","html-button-response","239","2.0.0","689473","61643eae0b4de3c67744a15f","2","1","3035","","","","","","","","","<img src= ""rock_img/I_Peridotite_10.jpg"" style=""width:8cm; height:5.390000000000001cm;""><p>What type of rock is this?</p>","5","class_response","1","test","18","Pegmatite","Peridotite","10","false","6","7","",""
"","","","","","","","","","","","html-keyboard-response","240","2.0.0","689981","61643eae0b4de3c67744a15f","2","1","null","","","","","","","","","<p style='font-size: 30px;'><strong>Okay</strong></p>","null","neutral_feedback","1","test","18","","","","","","","",""
"","","","","","","","","","","","html-button-response","241","2.0.0","691655","61643eae0b4de3c67744a15f","2","1","1672","","","","","","","","","<img src= ""rock_img/I_Basalt_08.jpg"" style=""width:8cm; height:10.44cm;""><p>What type of rock is this?</p>","1","class_response","1","test","19","Basalt","Basalt","08","true","2","2","",""
"","","","","","","","","","","","html-keyboard-response","242","2.0.0","692158","61643eae0b4de3c67744a15f","2","1","null","","","","","","","","","<p style='font-size: 30px;'><strong>Okay</strong></p>","null","neutral_feedback","1","test","19","","","","","","","",""
"","","","","","","","","","","","html-button-response","243","2.0.0","693388","61643eae0b4de3c67744a15f","2","1","1229","","","","","","","","","<img src= ""rock_img/I_Basalt_09.jpg"" style=""width:8cm; height:6.2cm;""><p>What type of rock is this?</p>","1","class_response","1","test","20","Basalt","Basalt","09","true","2","2","",""
"","","","","","","","","","","","html-keyboard-response","244","2.0.0","693889","61643eae0b4de3c67744a15f","2","1","null","","","","","","","","","<p style='font-size: 30px;'><strong>Okay</strong></p>","null","neutral_feedback","1","test","20","","","","","","","",""
"","","","","","","","","","","","html-button-response","245","2.0.0","695150","61643eae0b4de3c67744a15f","2","1","1259","","","","","","","","","<img src= ""rock_img/I_Basalt_12.jpg"" style=""width:8cm; height:6.010000000000001cm;""><p>What type of rock is this?</p>","7","class_response","1","test","21","Pumice","Basalt","12","false","8","2","",""
"","","","","","","","","","","","html-keyboard-response","246","2.0.0","695663","61643eae0b4de3c67744a15f","2","1","null","","","","","","","","","<p style='font-size: 30px;'><strong>Okay</strong></p>","null","neutral_feedback","1","test","21","","","","","","","",""
"","","","","","","","","","","","html-button-response","247","2.0.0","698384","61643eae0b4de3c67744a15f","2","1","2720","","","","","","","","","<img src= ""rock_img/I_Pegmatite_08.jpg"" style=""width:8cm; height:7.68cm;""><p>What type of rock is this?</p>","5","class_response","1","test","22","Pegmatite","Pegmatite","08","true","6","6","",""
"","","","","","","","","","","","html-keyboard-response","248","2.0.0","698885","61643eae0b4de3c67744a15f","2","1","null","","","","","","","","","<p style='font-size: 30px;'><strong>Okay</strong></p>","null","neutral_feedback","1","test","22","","","","","","","",""
"","","","","","","","","","","","html-button-response","249","2.0.0","706107","61643eae0b4de3c67744a15f","2","1","7221","","","","","","","","","<img src= ""rock_img/I_Peridotite_13.jpg"" style=""width:8cm; height:7.58cm;""><p>What type of rock is this?</p>","3","class_response","1","test","23","Gabbro","Peridotite","13","false","4","7","",""
"","","","","","","","","","","","html-keyboard-response","250","2.0.0","706610","61643eae0b4de3c67744a15f","2","1","null","","","","","","","","","<p style='font-size: 30px;'><strong>Okay</strong></p>","null","neutral_feedback","1","test","23","","","","","","","",""
"","","","","","","","","","","","html-button-response","251","2.0.0","707931","61643eae0b4de3c67744a15f","2","1","1319","","","","","","","","","<img src= ""rock_img/I_Basalt_10.jpg"" style=""width:8cm; height:5.85cm;""><p>What type of rock is this?</p>","4","class_response","1","test","24","Obsidian","Basalt","10","false","5","2","",""
"","","","","","","","","","","","html-keyboard-response","252","2.0.0","708432","61643eae0b4de3c67744a15f","2","1","null","","","","","","","","","<p style='font-size: 30px;'><strong>Okay</strong></p>","null","neutral_feedback","1","test","24","","","","","","","",""
"","","","","","","","","","","","html-button-response","253","2.0.0","709670","61643eae0b4de3c67744a15f","2","1","1237","","","","","","","","","<img src= ""rock_img/I_Obsidian_06.jpg"" style=""width:8cm; height:6.8cm;""><p>What type of rock is this?</p>","4","class_response","1","test","25","Obsidian","Obsidian","06","true","5","5","",""
"","","","","","","","","","","","html-keyboard-response","254","2.0.0","710181","61643eae0b4de3c67744a15f","2","1","null","","","","","","","","","<p style='font-size: 30px;'><strong>Okay</strong></p>","null","neutral_feedback","1","test","25","","","","","","","",""
"","","","","","","","","","","","html-button-response","255","2.0.0","711651","61643eae0b4de3c67744a15f","2","1","1469","","","","","","","","","<img src= ""rock_img/I_Basalt_14.jpg"" style=""width:8cm; height:5.82cm;""><p>What type of rock is this?</p>","7","class_response","1","test","26","Pumice","Basalt","14","false","8","2","",""
"","","","","","","","","","","","html-keyboard-response","256","2.0.0","712165","61643eae0b4de3c67744a15f","2","1","null","","","","","","","","","<p style='font-size: 30px;'><strong>Okay</strong></p>","null","neutral_feedback","1","test","26","","","","","","","",""
"","","","","","","","","","","","html-button-response","257","2.0.0","713090","61643eae0b4de3c67744a15f","2","1","924","","","","","","","","","<img src= ""rock_img/I_Obsidian_11.jpg"" style=""width:8cm; height:6.05cm;""><p>What type of rock is this?</p>","4","class_response","1","test","27","Obsidian","Obsidian","11","true","5","5","",""
"","","","","","","","","","","","html-keyboard-response","258","2.0.0","713592","61643eae0b4de3c67744a15f","2","1","null","","","","","","","","","<p style='font-size: 30px;'><strong>Okay</strong></p>","null","neutral_feedback","1","test","27","","","","","","","",""
"","","","","","","","","","","","html-button-response","259","2.0.0","717672","61643eae0b4de3c67744a15f","2","1","4080","","","","","","","","","<img src= ""rock_img/I_Diorite_06.jpg"" style=""width:8cm; height:6.03cm;""><p>What type of rock is this?</p>","0","class_response","1","test","28","Andesite","Diorite","06","false","1","3","",""
"","","","","","","","","","","","html-keyboard-response","260","2.0.0","718182","61643eae0b4de3c67744a15f","2","1","null","","","","","","","","","<p style='font-size: 30px;'><strong>Okay</strong></p>","null","neutral_feedback","1","test","28","","","","","","","",""
"","","","","","","","","","","","html-button-response","261","2.0.0","719615","61643eae0b4de3c67744a15f","2","1","1432","","","","","","","","","<img src= ""rock_img/I_Pumice_10.jpg"" style=""width:8cm; height:7.609999999999999cm;""><p>What type of rock is this?</p>","7","class_response","1","test","29","Pumice","Pumice","10","true","8","8","",""
"","","","","","","","","","","","html-keyboard-response","262","2.0.0","720124","61643eae0b4de3c67744a15f","2","1","null","","","","","","","","","<p style='font-size: 30px;'><strong>Okay</strong></p>","null","neutral_feedback","1","test","29","","","","","","","",""
"","","","","","","","","","","","html-button-response","263","2.0.0","725375","61643eae0b4de3c67744a15f","2","1","5250","","","","","","","","","<img src= ""rock_img/I_Peridotite_07.jpg"" style=""width:8cm; height:4.83cm;""><p>What type of rock is this?</p>","6","class_response","1","test","30","Peridotite","Peridotite","07","true","7","7","",""
"","","","","","","","","","","","html-keyboard-response","264","2.0.0","725878","61643eae0b4de3c67744a15f","2","1","null","","","","","","","","","<p style='font-size: 30px;'><strong>Okay</strong></p>","null","neutral_feedback","1","test","30","","","","","","","",""
"","","","","","","","","","","","html-button-response","265","2.0.0","729312","61643eae0b4de3c67744a15f","2","1","3433","","","","","","","","","<img src= ""rock_img/I_Gabbro_13.jpg"" style=""width:8cm; height:5.08cm;""><p>What type of rock is this?</p>","6","class_response","1","test","31","Peridotite","Gabbro","13","false","7","4","",""
"","","","","","","","","","","","html-keyboard-response","266","2.0.0","729815","61643eae0b4de3c67744a15f","2","1","null","","","","","","","","","<p style='font-size: 30px;'><strong>Okay</strong></p>","null","neutral_feedback","1","test","31","","","","","","","",""
"","","","","","","","","","","","html-button-response","267","2.0.0","733564","61643eae0b4de3c67744a15f","2","1","3749","","","","","","","","","<img src= ""rock_img/I_Andesite_09.jpg"" style=""width:8cm; height:6cm;""><p>What type of rock is this?</p>","0","class_response","1","test","32","Andesite","Andesite","09","true","1","1","",""
"","","","","","","","","","","","html-keyboard-response","268","2.0.0","734069","61643eae0b4de3c67744a15f","2","1","null","","","","","","","","","<p style='font-size: 30px;'><strong>Okay</strong></p>","null","neutral_feedback","1","test","32","","","","","","","",""
"","","","","","","","","","","","html-button-response","269","2.0.0","735306","61643eae0b4de3c67744a15f","2","1","1236","","","","","","","","","<img src= ""rock_img/I_Obsidian_07.jpg"" style=""width:8cm; height:4.76cm;""><p>What type of rock is this?</p>","4","class_response","1","test","33","Obsidian","Obsidian","07","true","5","5","",""
"","","","","","","","","","","","html-keyboard-response","270","2.0.0","735815","61643eae0b4de3c67744a15f","2","1","null","","","","","","","","","<p style='font-size: 30px;'><strong>Okay</strong></p>","null","neutral_feedback","1","test","33","","","","","","","",""
"","","","","","","","","","","","html-button-response","271","2.0.0","736752","61643eae0b4de3c67744a15f","2","1","937","","","","","","","","","<img src= ""rock_img/I_Pumice_09.jpg"" style=""width:8cm; height:6.44cm;""><p>What type of rock is this?</p>","7","class_response","1","test","34","Pumice","Pumice","09","true","8","8","",""
"","","","","","","","","","","","html-keyboard-response","272","2.0.0","737257","61643eae0b4de3c67744a15f","2","1","null","","","","","","","","","<p style='font-size: 30px;'><strong>Okay</strong></p>","null","neutral_feedback","1","test","34","","","","","","","",""
"","","","","","","","","","","","html-button-response","273","2.0.0","738178","61643eae0b4de3c67744a15f","2","1","919","","","","","","","","","<img src= ""rock_img/I_Pumice_05.jpg"" style=""width:8cm; height:7.25cm;""><p>What type of rock is this?</p>","7","class_response","1","test","35","Pumice","Pumice","05","true","8","8","",""
"","","","","","","","","","","","html-keyboard-response","274","2.0.0","738687","61643eae0b4de3c67744a15f","2","1","null","","","","","","","","","<p style='font-size: 30px;'><strong>Okay</strong></p>","null","neutral_feedback","1","test","35","","","","","","","",""
"","","","","","","","","","","","html-button-response","275","2.0.0","740149","61643eae0b4de3c67744a15f","2","1","1462","","","","","","","","","<img src= ""rock_img/I_Gabbro_16.jpg"" style=""width:8cm; height:6.44cm;""><p>What type of rock is this?</p>","1","class_response","1","test","36","Basalt","Gabbro","16","false","2","4","",""
"","","","","","","","","","","","html-keyboard-response","276","2.0.0","740665","61643eae0b4de3c67744a15f","2","1","null","","","","","","","","","<p style='font-size: 30px;'><strong>Okay</strong></p>","null","neutral_feedback","1","test","36","","","","","","","",""
"","","","","","","","","","","","html-button-response","277","2.0.0","741935","61643eae0b4de3c67744a15f","2","1","1269","","","","","","","","","<img src= ""rock_img/I_Obsidian_12.jpg"" style=""width:8cm; height:6.53cm;""><p>What type of rock is this?</p>","4","class_response","1","test","37","Obsidian","Obsidian","12","true","5","5","",""
"","","","","","","","","","","","html-keyboard-response","278","2.0.0","742450","61643eae0b4de3c67744a15f","2","1","null","","","","","","","","","<p style='font-size: 30px;'><strong>Okay</strong></p>","null","neutral_feedback","1","test","37","","","","","","","",""
"","","","","","","","","","","","html-button-response","279","2.0.0","747597","61643eae0b4de3c67744a15f","2","1","5147","","","","","","","","","<img src= ""rock_img/I_Andesite_11.jpg"" style=""width:8cm; height:4.92cm;""><p>What type of rock is this?</p>","0","class_response","1","test","38","Andesite","Andesite","11","true","1","1","",""
"","","","","","","","","","","","html-keyboard-response","280","2.0.0","748104","61643eae0b4de3c67744a15f","2","1","null","","","","","","","","","<p style='font-size: 30px;'><strong>Okay</strong></p>","null","neutral_feedback","1","test","38","","","","","","","",""
"","","","","","","","","","","","html-button-response","281","2.0.0","752933","61643eae0b4de3c67744a15f","2","1","4827","","","","","","","","","<img src= ""rock_img/I_Peridotite_14.jpg"" style=""width:8cm; height:5.3cm;""><p>What type of rock is this?</p>","2","class_response","1","test","39","Diorite","Peridotite","14","false","3","7","",""
"","","","","","","","","","","","html-keyboard-response","282","2.0.0","753439","61643eae0b4de3c67744a15f","2","1","null","","","","","","","","","<p style='font-size: 30px;'><strong>Okay</strong></p>","null","neutral_feedback","1","test","39","","","","","","","",""
"","","","","","","","","","","","html-button-response","283","2.0.0","756102","61643eae0b4de3c67744a15f","2","1","2662","","","","","","","","","<img src= ""rock_img/I_Pegmatite_06.jpg"" style=""width:8cm; height:5.17cm;""><p>What type of rock is this?</p>","5","class_response","1","test","40","Pegmatite","Pegmatite","06","true","6","6","",""
"","","","","","","","","","","","html-keyboard-response","284","2.0.0","756612","61643eae0b4de3c67744a15f","2","1","null","","","","","","","","","<p style='font-size: 30px;'><strong>Okay</strong></p>","null","neutral_feedback","1","test","40","","","","","","","",""
"","","","","","","","","","","","html-button-response","285","2.0.0","759785","61643eae0b4de3c67744a15f","2","1","3172","","","","","","","","","<img src= ""rock_img/I_Diorite_02.jpg"" style=""width:8cm; height:6.27cm;""><p>What type of rock is this?</p>","3","class_response","1","test","41","Gabbro","Diorite","02","false","4","3","",""
"","","","","","","","","","","","html-keyboard-response","286","2.0.0","760297","61643eae0b4de3c67744a15f","2","1","null","","","","","","","","","<p style='font-size: 30px;'><strong>Okay</strong></p>","null","neutral_feedback","1","test","41","","","","","","","",""
"","","","","","","","","","","","html-button-response","287","2.0.0","762470","61643eae0b4de3c67744a15f","2","1","2172","","","","","","","","","<img src= ""rock_img/I_Pegmatite_12.jpg"" style=""width:8cm; height:5.7cm;""><p>What type of rock is this?</p>","5","class_response","1","test","42","Pegmatite","Pegmatite","12","true","6","6","",""
"","","","","","","","","","","","html-keyboard-response","288","2.0.0","762980","61643eae0b4de3c67744a15f","2","1","null","","","","","","","","","<p style='font-size: 30px;'><strong>Okay</strong></p>","null","neutral_feedback","1","test","42","","","","","","","",""
"","","","","","","","","","","","html-button-response","289","2.0.0","766115","61643eae0b4de3c67744a15f","2","1","3134","","","","","","","","","<img src= ""rock_img/I_Andesite_05.jpg"" style=""width:8cm; height:4.12cm;""><p>What type of rock is this?</p>","0","class_response","1","test","43","Andesite","Andesite","05","true","1","1","",""
"","","","","","","","","","","","html-keyboard-response","290","2.0.0","766620","61643eae0b4de3c67744a15f","2","1","null","","","","","","","","","<p style='font-size: 30px;'><strong>Okay</strong></p>","null","neutral_feedback","1","test","43","","","","","","","",""
"","","","","","","","","","","","html-button-response","291","2.0.0","769940","61643eae0b4de3c67744a15f","2","1","3318","","","","","","","","","<img src= ""rock_img/I_Gabbro_15.jpg"" style=""width:8cm; height:6.29cm;""><p>What type of rock is this?</p>","3","class_response","1","test","44","Gabbro","Gabbro","15","true","4","4","",""
"","","","","","","","","","","","html-keyboard-response","292","2.0.0","770442","61643eae0b4de3c67744a15f","2","1","null","","","","","","","","","<p style='font-size: 30px;'><strong>Okay</strong></p>","null","neutral_feedback","1","test","44","","","","","","","",""
"","","","","","","","","","","","html-button-response","293","2.0.0","771530","61643eae0b4de3c67744a15f","2","1","1087","","","","","","","","","<img src= ""rock_img/I_Basalt_11.jpg"" style=""width:8cm; height:5.359999999999999cm;""><p>What type of rock is this?</p>","7","class_response","1","test","45","Pumice","Basalt","11","false","8","2","",""
"","","","","","","","","","","","html-keyboard-response","294","2.0.0","772043","61643eae0b4de3c67744a15f","2","1","null","","","","","","","","","<p style='font-size: 30px;'><strong>Okay</strong></p>","null","neutral_feedback","1","test","45","","","","","","","",""
"","","","","","","","","","","","html-button-response","295","2.0.0","775880","61643eae0b4de3c67744a15f","2","1","3835","","","","","","","","","<img src= ""rock_img/I_Peridotite_04.jpg"" style=""width:8cm; height:6.680000000000001cm;""><p>What type of rock is this?</p>","5","class_response","1","test","46","Pegmatite","Peridotite","04","false","6","7","",""
"","","","","","","","","","","","html-keyboard-response","296","2.0.0","776395","61643eae0b4de3c67744a15f","2","1","null","","","","","","","","","<p style='font-size: 30px;'><strong>Okay</strong></p>","null","neutral_feedback","1","test","46","","","","","","","",""
"","","","","","","","","","","","html-button-response","297","2.0.0","778873","61643eae0b4de3c67744a15f","2","1","2477","","","","","","","","","<img src= ""rock_img/I_Peridotite_15.jpg"" style=""width:8cm; height:6cm;""><p>What type of rock is this?</p>","3","class_response","1","test","47","Gabbro","Peridotite","15","false","4","7","",""
"","","","","","","","","","","","html-keyboard-response","298","2.0.0","779379","61643eae0b4de3c67744a15f","2","1","null","","","","","","","","","<p style='font-size: 30px;'><strong>Okay</strong></p>","null","neutral_feedback","1","test","47","","","","","","","",""
"","","","","","","","","","","","html-button-response","299","2.0.0","780500","61643eae0b4de3c67744a15f","2","1","1120","","","","","","","","","<img src= ""rock_img/I_Obsidian_16.jpg"" style=""width:8cm; height:9.3cm;""><p>What type of rock is this?</p>","4","class_response","1","test","48","Obsidian","Obsidian","16","true","5","5","",""
"","","","","","","","","","","","html-keyboard-response","300","2.0.0","781009","61643eae0b4de3c67744a15f","2","1","null","","","","","","","","","<p style='font-size: 30px;'><strong>Okay</strong></p>","null","neutral_feedback","1","test","48","","","","","","","",""
"","","","","","","","","","","","html-button-response","301","2.0.0","794293","61643eae0b4de3c67744a15f","2","1","","","","","","","","","","","","cycle_feedback","","","","","","","","","","7925.79999999702","5355.4000000059605"
"","","","","","","","","","","","html-button-response","303","2.0.0","799017","61643eae0b4de3c67744a15f","2","1","4723","","","","","","","","","","0","start_train","","","","","","","","","","",""
"","","","","","","","","","","","html-button-response","304","2.0.0","805012","61643eae0b4de3c67744a15f","2","1","5993","","","","","","","","","<img src= ""rock_img/I_Peridotite_12.jpg"" style=""width:8cm; height:4.54cm;""><p>What type of rock is this?</p>","2","class_response","2","train","1","Diorite","Peridotite","12","false","3","7","",""
"","","","","","","","","","","","html-button-response","305","2.0.0","806225","61643eae0b4de3c67744a15f","2","1","1212","","","","","","","","","<img src= rock_img/I_Peridotite_12.jpg style=""width:8cm; height:4.54cm;""><p style='font-size: 30px; color: red;'><strong>Incorrect!</strong></p><p style='font-size: 30px;'><strong>This rock is peridotite</strong></p>","0","corr_feedback","2","train","1","","","","","","","",""
