"width","height","webaudio","browser","browser_version","mobile","os","fullscreen","vsync_rate","webcam","microphone","trial_type","trial_index","plugin_version","time_elapsed","subjID","condition","stimID","rt","url","success","value","timeout","failed_images","failed_audio","failed_video","view_history","stimulus","response","trialType","cycle","phase","trial","resp","cat","token","corr","resp_num","cat_num","time_fb1","time_fb2"
"1920","932","true","chrome","130.0.0","false","Linux","true","59.78","false","false","browser-check","0","2.0.0","1014","631ad5df2dfd6aff965bba6a","1","27","","","","","","","","","","","","","","","","","","","","","","",""
"","","","","","","","","","","","external-html","1","2.0.0","15606","631ad5df2dfd6aff965bba6a","1","27","14452","consent_form.html","","","","","","","","","","","","","","","","","","","","",""
"","","","","","","","","","","","fullscreen","2","2.0.0","18034","631ad5df2dfd6aff965bba6a","1","27","1423","","true","","","","","","","","","","","","","","","","","","","",""
"","","","","","","","","","","","call-function","3","2.0.0","18038","631ad5df2dfd6aff965bba6a","1","27","","","","{}","","","","","","","","","","","","","","","","","","",""
"","","","","","","","","","","","preload","4","2.0.0","21142","631ad5df2dfd6aff965bba6a","1","27","","","true","","false","[]","[]","[]","","","","","","","","","","","","","","",""
"","","","","","","","","","","","instructions","5","2.0.0","52151","631ad5df2dfd6aff965bba6a","1","27","31005","","","","","","","","[{""page_index"":0,""viewing_time"":4814},{""page_index"":1,""viewing_time"":17843},{""page_index"":2,""viewing_time"":8348}]","","","","","","","","","","","","","",""
"","","","","","","","","","","","html-button-response","6","2.0.0","53993","631ad5df2dfd6aff965bba6a","1","27","1837","","","","","","","","","","0","start_test","","","","","","","","","","",""
"","","","","","","","","","","","html-button-response","7","2.0.0","57170","631ad5df2dfd6aff965bba6a","1","27","3171","","","","","","","","","<img src= ""rock_img/I_Andesite_02.jpg"" style=""width:8cm; height:8.5cm;""><p>What type of rock is this?</p>","1","class_response","0","test","1","Basalt","Andesite","02","false","2","1","",""
"","","","","","","","","","","","html-keyboard-response","8","2.0.0","57673","631ad5df2dfd6aff965bba6a","1","27","null","","","","","","","","","<p style='font-size: 30px;'><strong>Okay</strong></p>","null","neutral_feedback","0","test","1","","","","","","","",""
"","","","","","","","","","","","html-button-response","9","2.0.0","65447","631ad5df2dfd6aff965bba6a","1","27","7771","","","","","","","","","<img src= ""rock_img/I_Diorite_11.jpg"" style=""width:8cm; height:7.11cm;""><p>What type of rock is this?</p>","3","class_response","0","test","2","Gabbro","Diorite","11","false","4","3","",""
"","","","","","","","","","","","html-keyboard-response","10","2.0.0","65951","631ad5df2dfd6aff965bba6a","1","27","null","","","","","","","","","<p style='font-size: 30px;'><strong>Okay</strong></p>","null","neutral_feedback","0","test","2","","","","","","","",""
"","","","","","","","","","","","html-button-response","11","2.0.0","69395","631ad5df2dfd6aff965bba6a","1","27","3438","","","","","","","","","<img src= ""rock_img/I_Obsidian_05.jpg"" style=""width:8cm; height:6.33cm;""><p>What type of rock is this?</p>","4","class_response","0","test","3","Obsidian","Obsidian","05","true","5","5","",""
"","","","","","","","","","","","html-keyboard-response","12","2.0.0","69899","631ad5df2dfd6aff965bba6a","1","27","null","","","","","","","","","<p style='font-size: 30px;'><strong>Okay</strong></p>","null","neutral_feedback","0","test","3","","","","","","","",""
"","","","","","","","","","","","html-button-response","13","2.0.0","73505","631ad5df2dfd6aff965bba6a","1","27","3601","","","","","","","","","<img src= ""rock_img/I_Gabbro_15.jpg"" style=""width:8cm; height:6.29cm;""><p>What type of rock is this?</p>","0","class_response","0","test","4","Andesite","Gabbro","15","false","1","4","",""
"","","","","","","","","","","","html-keyboard-response","14","2.0.0","74008","631ad5df2dfd6aff965bba6a","1","27","null","","","","","","","","","<p style='font-size: 30px;'><strong>Okay</strong></p>","null","neutral_feedback","0","test","4","","","","","","","",""
"","","","","","","","","","","","html-button-response","15","2.0.0","75853","631ad5df2dfd6aff965bba6a","1","27","1840","","","","","","","","","<img src= ""rock_img/I_Obsidian_12.jpg"" style=""width:8cm; height:6.53cm;""><p>What type of rock is this?</p>","4","class_response","0","test","5","Obsidian","Obsidian","12","true","5","5","",""
"","","","","","","","","","","","html-keyboard-response","16","2.0.0","76356","631ad5df2dfd6aff965bba6a","1","27","null","","","","","","","","","<p style='font-size: 30px;'><strong>Okay</strong></p>","null","neutral_feedback","0","test","5","","","","","","","",""
"","","","","","","","","","","","html-button-response","17","2.0.0","78389","631ad5df2dfd6aff965bba6a","1","27","2027","","","","","","","","","<img src= ""rock_img/I_Peridotite_02.jpg"" style=""width:8cm; height:5.859999999999999cm;""><p>What type of rock is this?</p>","6","class_response","0","test","6","Peridotite","Peridotite","02","true","7","7","",""
"","","","","","","","","","","","html-keyboard-response","18","2.0.0","78892","631ad5df2dfd6aff965bba6a","1","27","null","","","","","","","","","<p style='font-size: 30px;'><strong>Okay</strong></p>","null","neutral_feedback","0","test","6","","","","","","","",""
"","","","","","","","","","","","html-button-response","19","2.0.0","80317","631ad5df2dfd6aff965bba6a","1","27","1420","","","","","","","","","<img src= ""rock_img/I_Basalt_09.jpg"" style=""width:8cm; height:6.2cm;""><p>What type of rock is this?</p>","7","class_response","0","test","7","Pumice","Basalt","09","false","8","2","",""
"","","","","","","","","","","","html-keyboard-response","20","2.0.0","80820","631ad5df2dfd6aff965bba6a","1","27","null","","","","","","","","","<p style='font-size: 30px;'><strong>Okay</strong></p>","null","neutral_feedback","0","test","7","","","","","","","",""
"","","","","","","","","","","","html-button-response","21","2.0.0","82775","631ad5df2dfd6aff965bba6a","1","27","1950","","","","","","","","","<img src= ""rock_img/I_Gabbro_13.jpg"" style=""width:8cm; height:5.08cm;""><p>What type of rock is this?</p>","5","class_response","0","test","8","Pegmatite","Gabbro","13","false","6","4","",""
"","","","","","","","","","","","html-keyboard-response","22","2.0.0","83278","631ad5df2dfd6aff965bba6a","1","27","null","","","","","","","","","<p style='font-size: 30px;'><strong>Okay</strong></p>","null","neutral_feedback","0","test","8","","","","","","","",""
"","","","","","","","","","","","html-button-response","23","2.0.0","84911","631ad5df2dfd6aff965bba6a","1","27","1628","","","","","","","","","<img src= ""rock_img/I_Pumice_15.jpg"" style=""width:8cm; height:7.86cm;""><p>What type of rock is this?</p>","7","class_response","0","test","9","Pumice","Pumice","15","true","8","8","",""
"","","","","","","","","","","","html-keyboard-response","24","2.0.0","85414","631ad5df2dfd6aff965bba6a","1","27","null","","","","","","","","","<p style='font-size: 30px;'><strong>Okay</strong></p>","null","neutral_feedback","0","test","9","","","","","","","",""
"","","","","","","","","","","","html-button-response","25","2.0.0","88095","631ad5df2dfd6aff965bba6a","1","27","2676","","","","","","","","","<img src= ""rock_img/I_Basalt_12.jpg"" style=""width:8cm; height:6.010000000000001cm;""><p>What type of rock is this?</p>","0","class_response","0","test","10","Andesite","Basalt","12","false","1","2","",""
"","","","","","","","","","","","html-keyboard-response","26","2.0.0","88598","631ad5df2dfd6aff965bba6a","1","27","null","","","","","","","","","<p style='font-size: 30px;'><strong>Okay</strong></p>","null","neutral_feedback","0","test","10","","","","","","","",""
"","","","","","","","","","","","html-button-response","27","2.0.0","91192","631ad5df2dfd6aff965bba6a","1","27","2590","","","","","","","","","<img src= ""rock_img/I_Pumice_13.jpg"" style=""width:8cm; height:8.200000000000001cm;""><p>What type of rock is this?</p>","2","class_response","0","test","11","Diorite","Pumice","13","false","3","8","",""
"","","","","","","","","","","","html-keyboard-response","28","2.0.0","91695","631ad5df2dfd6aff965bba6a","1","27","null","","","","","","","","","<p style='font-size: 30px;'><strong>Okay</strong></p>","null","neutral_feedback","0","test","11","","","","","","","",""
"","","","","","","","","","","","html-button-response","29","2.0.0","94627","631ad5df2dfd6aff965bba6a","1","27","2927","","","","","","","","","<img src= ""rock_img/I_Diorite_15.jpg"" style=""width:8cm; height:5.54cm;""><p>What type of rock is this?</p>","5","class_response","0","test","12","Pegmatite","Diorite","15","false","6","3","",""
"","","","","","","","","","","","html-keyboard-response","30","2.0.0","95129","631ad5df2dfd6aff965bba6a","1","27","null","","","","","","","","","<p style='font-size: 30px;'><strong>Okay</strong></p>","null","neutral_feedback","0","test","12","","","","","","","",""
"","","","","","","","","","","","html-button-response","31","2.0.0","99690","631ad5df2dfd6aff965bba6a","1","27","4556","","","","","","","","","<img src= ""rock_img/I_Pegmatite_08.jpg"" style=""width:8cm; height:7.68cm;""><p>What type of rock is this?</p>","5","class_response","0","test","13","Pegmatite","Pegmatite","08","true","6","6","",""
"","","","","","","","","","","","html-keyboard-response","32","2.0.0","100193","631ad5df2dfd6aff965bba6a","1","27","null","","","","","","","","","<p style='font-size: 30px;'><strong>Okay</strong></p>","null","neutral_feedback","0","test","13","","","","","","","",""
"","","","","","","","","","","","html-button-response","33","2.0.0","101616","631ad5df2dfd6aff965bba6a","1","27","1418","","","","","","","","","<img src= ""rock_img/I_Pumice_03.jpg"" style=""width:8cm; height:6.64cm;""><p>What type of rock is this?</p>","7","class_response","0","test","14","Pumice","Pumice","03","true","8","8","",""
"","","","","","","","","","","","html-keyboard-response","34","2.0.0","102119","631ad5df2dfd6aff965bba6a","1","27","null","","","","","","","","","<p style='font-size: 30px;'><strong>Okay</strong></p>","null","neutral_feedback","0","test","14","","","","","","","",""
"","","","","","","","","","","","html-button-response","35","2.0.0","106524","631ad5df2dfd6aff965bba6a","1","27","4400","","","","","","","","","<img src= ""rock_img/I_Pegmatite_11.jpg"" style=""width:8cm; height:8.14cm;""><p>What type of rock is this?</p>","0","class_response","0","test","15","Andesite","Pegmatite","11","false","1","6","",""
"","","","","","","","","","","","html-keyboard-response","36","2.0.0","107027","631ad5df2dfd6aff965bba6a","1","27","null","","","","","","","","","<p style='font-size: 30px;'><strong>Okay</strong></p>","null","neutral_feedback","0","test","15","","","","","","","",""
"","","","","","","","","","","","html-button-response","37","2.0.0","108740","631ad5df2dfd6aff965bba6a","1","27","1708","","","","","","","","","<img src= ""rock_img/I_Peridotite_15.jpg"" style=""width:8cm; height:6cm;""><p>What type of rock is this?</p>","6","class_response","0","test","16","Peridotite","Peridotite","15","true","7","7","",""
"","","","","","","","","","","","html-keyboard-response","38","2.0.0","109243","631ad5df2dfd6aff965bba6a","1","27","null","","","","","","","","","<p style='font-size: 30px;'><strong>Okay</strong></p>","null","neutral_feedback","0","test","16","","","","","","","",""
"","","","","","","","","","","","html-button-response","39","2.0.0","110559","631ad5df2dfd6aff965bba6a","1","27","1311","","","","","","","","","<img src= ""rock_img/I_Peridotite_12.jpg"" style=""width:8cm; height:4.54cm;""><p>What type of rock is this?</p>","2","class_response","0","test","17","Diorite","Peridotite","12","false","3","7","",""
"","","","","","","","","","","","html-keyboard-response","40","2.0.0","111061","631ad5df2dfd6aff965bba6a","1","27","null","","","","","","","","","<p style='font-size: 30px;'><strong>Okay</strong></p>","null","neutral_feedback","0","test","17","","","","","","","",""
"","","","","","","","","","","","html-button-response","41","2.0.0","112656","631ad5df2dfd6aff965bba6a","1","27","1590","","","","","","","","","<img src= ""rock_img/I_Andesite_06.jpg"" style=""width:8cm; height:6.840000000000001cm;""><p>What type of rock is this?</p>","3","class_response","0","test","18","Gabbro","Andesite","06","false","4","1","",""
"","","","","","","","","","","","html-keyboard-response","42","2.0.0","113159","631ad5df2dfd6aff965bba6a","1","27","null","","","","","","","","","<p style='font-size: 30px;'><strong>Okay</strong></p>","null","neutral_feedback","0","test","18","","","","","","","",""
"","","","","","","","","","","","html-button-response","43","2.0.0","116410","631ad5df2dfd6aff965bba6a","1","27","3247","","","","","","","","","<img src= ""rock_img/I_Basalt_02.jpg"" style=""width:8cm; height:6.45cm;""><p>What type of rock is this?</p>","1","class_response","0","test","19","Basalt","Basalt","02","true","2","2","",""
"","","","","","","","","","","","html-keyboard-response","44","2.0.0","116913","631ad5df2dfd6aff965bba6a","1","27","null","","","","","","","","","<p style='font-size: 30px;'><strong>Okay</strong></p>","null","neutral_feedback","0","test","19","","","","","","","",""
"","","","","","","","","","","","html-button-response","45","2.0.0","118306","631ad5df2dfd6aff965bba6a","1","27","1389","","","","","","","","","<img src= ""rock_img/I_Pegmatite_09.jpg"" style=""width:8cm; height:4.03cm;""><p>What type of rock is this?</p>","0","class_response","0","test","20","Andesite","Pegmatite","09","false","1","6","",""
"","","","","","","","","","","","html-keyboard-response","46","2.0.0","118809","631ad5df2dfd6aff965bba6a","1","27","null","","","","","","","","","<p style='font-size: 30px;'><strong>Okay</strong></p>","null","neutral_feedback","0","test","20","","","","","","","",""
"","","","","","","","","","","","html-button-response","47","2.0.0","120897","631ad5df2dfd6aff965bba6a","1","27","2083","","","","","","","","","<img src= ""rock_img/I_Diorite_16.jpg"" style=""width:8cm; height:6.74cm;""><p>What type of rock is this?</p>","6","class_response","0","test","21","Peridotite","Diorite","16","false","7","3","",""
"","","","","","","","","","","","html-keyboard-response","48","2.0.0","121400","631ad5df2dfd6aff965bba6a","1","27","null","","","","","","","","","<p style='font-size: 30px;'><strong>Okay</strong></p>","null","neutral_feedback","0","test","21","","","","","","","",""
"","","","","","","","","","","","html-button-response","49","2.0.0","122440","631ad5df2dfd6aff965bba6a","1","27","1036","","","","","","","","","<img src= ""rock_img/I_Gabbro_08.jpg"" style=""width:8cm; height:5.15cm;""><p>What type of rock is this?</p>","3","class_response","0","test","22","Gabbro","Gabbro","08","true","4","4","",""
"","","","","","","","","","","","html-keyboard-response","50","2.0.0","122943","631ad5df2dfd6aff965bba6a","1","27","null","","","","","","","","","<p style='font-size: 30px;'><strong>Okay</strong></p>","null","neutral_feedback","0","test","22","","","","","","","",""
"","","","","","","","","","","","html-button-response","51","2.0.0","125920","631ad5df2dfd6aff965bba6a","1","27","2972","","","","","","","","","<img src= ""rock_img/I_Pegmatite_03.jpg"" style=""width:8cm; height:5.239999999999999cm;""><p>What type of rock is this?</p>","6","class_response","0","test","23","Peridotite","Pegmatite","03","false","7","6","",""
"","","","","","","","","","","","html-keyboard-response","52","2.0.0","126423","631ad5df2dfd6aff965bba6a","1","27","null","","","","","","","","","<p style='font-size: 30px;'><strong>Okay</strong></p>","null","neutral_feedback","0","test","23","","","","","","","",""
"","","","","","","","","","","","html-button-response","53","2.0.0","127489","631ad5df2dfd6aff965bba6a","1","27","1061","","","","","","","","","<img src= ""rock_img/I_Obsidian_11.jpg"" style=""width:8cm; height:6.05cm;""><p>What type of rock is this?</p>","4","class_response","0","test","24","Obsidian","Obsidian","11","true","5","5","",""
"","","","","","","","","","","","html-keyboard-response","54","2.0.0","127992","631ad5df2dfd6aff965bba6a","1","27","null","","","","","","","","","<p style='font-size: 30px;'><strong>Okay</strong></p>","null","neutral_feedback","0","test","24","","","","","","","",""
"","","","","","","","","","","","html-button-response","55","2.0.0","129726","631ad5df2dfd6aff965bba6a","1","27","1730","","","","","","","","","<img src= ""rock_img/I_Andesite_01.jpg"" style=""width:8cm; height:5.87cm;""><p>What type of rock is this?</p>","2","class_response","0","test","25","Diorite","Andesite","01","false","3","1","",""
"","","","","","","","","","","","html-keyboard-response","56","2.0.0","130229","631ad5df2dfd6aff965bba6a","1","27","null","","","","","","","","","<p style='font-size: 30px;'><strong>Okay</strong></p>","null","neutral_feedback","0","test","25","","","","","","","",""
"","","","","","","","","","","","html-button-response","57","2.0.0","131428","631ad5df2dfd6aff965bba6a","1","27","1195","","","","","","","","","<img src= ""rock_img/I_Gabbro_03.jpg"" style=""width:8cm; height:8.52cm;""><p>What type of rock is this?</p>","1","class_response","0","test","26","Basalt","Gabbro","03","false","2","4","",""
"","","","","","","","","","","","html-keyboard-response","58","2.0.0","131931","631ad5df2dfd6aff965bba6a","1","27","null","","","","","","","","","<p style='font-size: 30px;'><strong>Okay</strong></p>","null","neutral_feedback","0","test","26","","","","","","","",""
"","","","","","","","","","","","html-button-response","59","2.0.0","133378","631ad5df2dfd6aff965bba6a","1","27","1443","","","","","","","","","<img src= ""rock_img/I_Andesite_04.jpg"" style=""width:8cm; height:5.96cm;""><p>What type of rock is this?</p>","0","class_response","0","test","27","Andesite","Andesite","04","true","1","1","",""
"","","","","","","","","","","","html-keyboard-response","60","2.0.0","133880","631ad5df2dfd6aff965bba6a","1","27","null","","","","","","","","","<p style='font-size: 30px;'><strong>Okay</strong></p>","null","neutral_feedback","0","test","27","","","","","","","",""
"","","","","","","","","","","","html-button-response","61","2.0.0","135070","631ad5df2dfd6aff965bba6a","1","27","1185","","","","","","","","","<img src= ""rock_img/I_Peridotite_05.jpg"" style=""width:8cm; height:7.1499999999999995cm;""><p>What type of rock is this?</p>","6","class_response","0","test","28","Peridotite","Peridotite","05","true","7","7","",""
"","","","","","","","","","","","html-keyboard-response","62","2.0.0","135573","631ad5df2dfd6aff965bba6a","1","27","null","","","","","","","","","<p style='font-size: 30px;'><strong>Okay</strong></p>","null","neutral_feedback","0","test","28","","","","","","","",""
"","","","","","","","","","","","html-button-response","63","2.0.0","136686","631ad5df2dfd6aff965bba6a","1","27","1108","","","","","","","","","<img src= ""rock_img/I_Andesite_16.jpg"" style=""width:8cm; height:6.010000000000001cm;""><p>What type of rock is this?</p>","3","class_response","0","test","29","Gabbro","Andesite","16","false","4","1","",""
"","","","","","","","","","","","html-keyboard-response","64","2.0.0","137189","631ad5df2dfd6aff965bba6a","1","27","null","","","","","","","","","<p style='font-size: 30px;'><strong>Okay</strong></p>","null","neutral_feedback","0","test","29","","","","","","","",""
"","","","","","","","","","","","html-button-response","65","2.0.0","138386","631ad5df2dfd6aff965bba6a","1","27","1193","","","","","","","","","<img src= ""rock_img/I_Obsidian_02.jpg"" style=""width:8cm; height:7.51cm;""><p>What type of rock is this?</p>","4","class_response","0","test","30","Obsidian","Obsidian","02","true","5","5","",""
"","","","","","","","","","","","html-keyboard-response","66","2.0.0","138889","631ad5df2dfd6aff965bba6a","1","27","null","","","","","","","","","<p style='font-size: 30px;'><strong>Okay</strong></p>","null","neutral_feedback","0","test","30","","","","","","","",""
"","","","","","","","","","","","html-button-response","67","2.0.0","140852","631ad5df2dfd6aff965bba6a","1","27","1958","","","","","","","","","<img src= ""rock_img/I_Peridotite_08.jpg"" style=""width:8cm; height:6.7cm;""><p>What type of rock is this?</p>","1","class_response","0","test","31","Basalt","Peridotite","08","false","2","7","",""
"","","","","","","","","","","","html-keyboard-response","68","2.0.0","141355","631ad5df2dfd6aff965bba6a","1","27","null","","","","","","","","","<p style='font-size: 30px;'><strong>Okay</strong></p>","null","neutral_feedback","0","test","31","","","","","","","",""
"","","","","","","","","","","","html-button-response","69","2.0.0","142732","631ad5df2dfd6aff965bba6a","1","27","1372","","","","","","","","","<img src= ""rock_img/I_Gabbro_11.jpg"" style=""width:8cm; height:6.2cm;""><p>What type of rock is this?</p>","2","class_response","0","test","32","Diorite","Gabbro","11","false","3","4","",""
"","","","","","","","","","","","html-keyboard-response","70","2.0.0","143235","631ad5df2dfd6aff965bba6a","1","27","null","","","","","","","","","<p style='font-size: 30px;'><strong>Okay</strong></p>","null","neutral_feedback","0","test","32","","","","","","","",""
"","","","","","","","","","","","html-button-response","71","2.0.0","146618","631ad5df2dfd6aff965bba6a","1","27","3379","","","","","","","","","<img src= ""rock_img/I_Pegmatite_05.jpg"" style=""width:8cm; height:7.300000000000001cm;""><p>What type of rock is this?</p>","5","class_response","0","test","33","Pegmatite","Pegmatite","05","true","6","6","",""
"","","","","","","","","","","","html-keyboard-response","72","2.0.0","147121","631ad5df2dfd6aff965bba6a","1","27","null","","","","","","","","","<p style='font-size: 30px;'><strong>Okay</strong></p>","null","neutral_feedback","0","test","33","","","","","","","",""
"","","","","","","","","","","","html-button-response","73","2.0.0","148249","631ad5df2dfd6aff965bba6a","1","27","1122","","","","","","","","","<img src= ""rock_img/I_Pumice_09.jpg"" style=""width:8cm; height:6.44cm;""><p>What type of rock is this?</p>","7","class_response","0","test","34","Pumice","Pumice","09","true","8","8","",""
"","","","","","","","","","","","html-keyboard-response","74","2.0.0","148751","631ad5df2dfd6aff965bba6a","1","27","null","","","","","","","","","<p style='font-size: 30px;'><strong>Okay</strong></p>","null","neutral_feedback","0","test","34","","","","","","","",""
"","","","","","","","","","","","html-button-response","75","2.0.0","150417","631ad5df2dfd6aff965bba6a","1","27","1662","","","","","","","","","<img src= ""rock_img/I_Basalt_16.jpg"" style=""width:8cm; height:7.659999999999999cm;""><p>What type of rock is this?</p>","7","class_response","0","test","35","Pumice","Basalt","16","false","8","2","",""
"","","","","","","","","","","","html-keyboard-response","76","2.0.0","150920","631ad5df2dfd6aff965bba6a","1","27","null","","","","","","","","","<p style='font-size: 30px;'><strong>Okay</strong></p>","null","neutral_feedback","0","test","35","","","","","","","",""
"","","","","","","","","","","","html-button-response","77","2.0.0","152336","631ad5df2dfd6aff965bba6a","1","27","1411","","","","","","","","","<img src= ""rock_img/I_Gabbro_10.jpg"" style=""width:8cm; height:5.680000000000001cm;""><p>What type of rock is this?</p>","7","class_response","0","test","36","Pumice","Gabbro","10","false","8","4","",""
"","","","","","","","","","","","html-keyboard-response","78","2.0.0","152838","631ad5df2dfd6aff965bba6a","1","27","null","","","","","","","","","<p style='font-size: 30px;'><strong>Okay</strong></p>","null","neutral_feedback","0","test","36","","","","","","","",""
"","","","","","","","","","","","html-button-response","79","2.0.0","154350","631ad5df2dfd6aff965bba6a","1","27","1507","","","","","","","","","<img src= ""rock_img/I_Diorite_10.jpg"" style=""width:8cm; height:5.949999999999999cm;""><p>What type of rock is this?</p>","0","class_response","0","test","37","Andesite","Diorite","10","false","1","3","",""
"","","","","","","","","","","","html-keyboard-response","80","2.0.0","154853","631ad5df2dfd6aff965bba6a","1","27","null","","","","","","","","","<p style='font-size: 30px;'><strong>Okay</strong></p>","null","neutral_feedback","0","test","37","","","","","","","",""
"","","","","","","","","","","","html-button-response","81","2.0.0","155939","631ad5df2dfd6aff965bba6a","1","27","1082","","","","","","","","","<img src= ""rock_img/I_Basalt_01.jpg"" style=""width:8cm; height:7.880000000000001cm;""><p>What type of rock is this?</p>","3","class_response","0","test","38","Gabbro","Basalt","01","false","4","2","",""
"","","","","","","","","","","","html-keyboard-response","82","2.0.0","156442","631ad5df2dfd6aff965bba6a","1","27","null","","","","","","","","","<p style='font-size: 30px;'><strong>Okay</strong></p>","null","neutral_feedback","0","test","38","","","","","","","",""
"","","","","","","","","","","","html-button-response","83","2.0.0","157360","631ad5df2dfd6aff965bba6a","1","27","913","","","","","","","","","<img src= ""rock_img/I_Andesite_10.jpg"" style=""width:8cm; height:4.16cm;""><p>What type of rock is this?</p>","5","class_response","0","test","39","Pegmatite","Andesite","10","false","6","1","",""
"","","","","","","","","","","","html-keyboard-response","84","2.0.0","157863","631ad5df2dfd6aff965bba6a","1","27","null","","","","","","","","","<p style='font-size: 30px;'><strong>Okay</strong></p>","null","neutral_feedback","0","test","39","","","","","","","",""
"","","","","","","","","","","","html-button-response","85","2.0.0","159248","631ad5df2dfd6aff965bba6a","1","27","1381","","","","","","","","","<img src= ""rock_img/I_Pumice_08.jpg"" style=""width:8cm; height:6.67cm;""><p>What type of rock is this?</p>","6","class_response","0","test","40","Peridotite","Pumice","08","false","7","8","",""
"","","","","","","","","","","","html-keyboard-response","86","2.0.0","159751","631ad5df2dfd6aff965bba6a","1","27","null","","","","","","","","","<p style='font-size: 30px;'><strong>Okay</strong></p>","null","neutral_feedback","0","test","40","","","","","","","",""
"","","","","","","","","","","","html-button-response","87","2.0.0","160887","631ad5df2dfd6aff965bba6a","1","27","1132","","","","","","","","","<img src= ""rock_img/I_Diorite_14.jpg"" style=""width:8cm; height:5.71cm;""><p>What type of rock is this?</p>","2","class_response","0","test","41","Diorite","Diorite","14","true","3","3","",""
"","","","","","","","","","","","html-keyboard-response","88","2.0.0","161390","631ad5df2dfd6aff965bba6a","1","27","null","","","","","","","","","<p style='font-size: 30px;'><strong>Okay</strong></p>","null","neutral_feedback","0","test","41","","","","","","","",""
"","","","","","","","","","","","html-button-response","89","2.0.0","162478","631ad5df2dfd6aff965bba6a","1","27","1083","","","","","","","","","<img src= ""rock_img/I_Obsidian_16.jpg"" style=""width:8cm; height:9.3cm;""><p>What type of rock is this?</p>","4","class_response","0","test","42","Obsidian","Obsidian","16","true","5","5","",""
"","","","","","","","","","","","html-keyboard-response","90","2.0.0","162980","631ad5df2dfd6aff965bba6a","1","27","null","","","","","","","","","<p style='font-size: 30px;'><strong>Okay</strong></p>","null","neutral_feedback","0","test","42","","","","","","","",""
"","","","","","","","","","","","html-button-response","91","2.0.0","164546","631ad5df2dfd6aff965bba6a","1","27","1561","","","","","","","","","<img src= ""rock_img/I_Diorite_02.jpg"" style=""width:8cm; height:6.27cm;""><p>What type of rock is this?</p>","2","class_response","0","test","43","Diorite","Diorite","02","true","3","3","",""
"","","","","","","","","","","","html-keyboard-response","92","2.0.0","165048","631ad5df2dfd6aff965bba6a","1","27","null","","","","","","","","","<p style='font-size: 30px;'><strong>Okay</strong></p>","null","neutral_feedback","0","test","43","","","","","","","",""
"","","","","","","","","","","","html-button-response","93","2.0.0","166294","631ad5df2dfd6aff965bba6a","1","27","1241","","","","","","","","","<img src= ""rock_img/I_Pumice_16.jpg"" style=""width:8cm; height:6.79cm;""><p>What type of rock is this?</p>","7","class_response","0","test","44","Pumice","Pumice","16","true","8","8","",""
"","","","","","","","","","","","html-keyboard-response","94","2.0.0","166797","631ad5df2dfd6aff965bba6a","1","27","null","","","","","","","","","<p style='font-size: 30px;'><strong>Okay</strong></p>","null","neutral_feedback","0","test","44","","","","","","","",""
"","","","","","","","","","","","html-button-response","95","2.0.0","168034","631ad5df2dfd6aff965bba6a","1","27","1232","","","","","","","","","<img src= ""rock_img/I_Pegmatite_07.jpg"" style=""width:8cm; height:6.7cm;""><p>What type of rock is this?</p>","3","class_response","0","test","45","Gabbro","Pegmatite","07","false","4","6","",""
"","","","","","","","","","","","html-keyboard-response","96","2.0.0","168536","631ad5df2dfd6aff965bba6a","1","27","null","","","","","","","","","<p style='font-size: 30px;'><strong>Okay</strong></p>","null","neutral_feedback","0","test","45","","","","","","","",""
"","","","","","","","","","","","html-button-response","97","2.0.0","169610","631ad5df2dfd6aff965bba6a","1","27","1069","","","","","","","","","<img src= ""rock_img/I_Basalt_06.jpg"" style=""width:8cm; height:7.06cm;""><p>What type of rock is this?</p>","2","class_response","0","test","46","Diorite","Basalt","06","false","3","2","",""
"","","","","","","","","","","","html-keyboard-response","98","2.0.0","170112","631ad5df2dfd6aff965bba6a","1","27","null","","","","","","","","","<p style='font-size: 30px;'><strong>Okay</strong></p>","null","neutral_feedback","0","test","46","","","","","","","",""
"","","","","","","","","","","","html-button-response","99","2.0.0","170818","631ad5df2dfd6aff965bba6a","1","27","700","","","","","","","","","<img src= ""rock_img/I_Peridotite_06.jpg"" style=""width:8cm; height:7.53cm;""><p>What type of rock is this?</p>","5","class_response","0","test","47","Pegmatite","Peridotite","06","false","6","7","",""
"","","","","","","","","","","","html-keyboard-response","100","2.0.0","171320","631ad5df2dfd6aff965bba6a","1","27","null","","","","","","","","","<p style='font-size: 30px;'><strong>Okay</strong></p>","null","neutral_feedback","0","test","47","","","","","","","",""
"","","","","","","","","","","","html-button-response","101","2.0.0","172721","631ad5df2dfd6aff965bba6a","1","27","1396","","","","","","","","","<img src= ""rock_img/I_Obsidian_14.jpg"" style=""width:8cm; height:7.64cm;""><p>What type of rock is this?</p>","4","class_response","0","test","48","Obsidian","Obsidian","14","true","5","5","",""
"","","","","","","","","","","","html-keyboard-response","102","2.0.0","173224","631ad5df2dfd6aff965bba6a","1","27","null","","","","","","","","","<p style='font-size: 30px;'><strong>Okay</strong></p>","null","neutral_feedback","0","test","48","","","","","","","",""
"","","","","","","","","","","","instructions","103","2.0.0","192299","631ad5df2dfd6aff965bba6a","1","27","19055","","","","","","","","[{""page_index"":0,""viewing_time"":13047},{""page_index"":1,""viewing_time"":3004},{""page_index"":2,""viewing_time"":3004}]","","","","","","","","","","","","","",""
"","","","","","","","","","","","html-button-response","104","2.0.0","193851","631ad5df2dfd6aff965bba6a","1","27","1548","","","","","","","","","","0","start_train","","","","","","","","","","",""
"","","","","","","","","","","","html-button-response","105","2.0.0","195670","631ad5df2dfd6aff965bba6a","1","27","1813","","","","","","","","","<img src= ""rock_img/I_Peridotite_16.jpg"" style=""width:8cm; height:6.989999999999999cm;""><p>What type of rock is this?</p>","2","class_response","1","train","1","Diorite","Peridotite","16","false","3","7","",""
"","","","","","","","","","","","html-button-response","106","2.0.0","201521","631ad5df2dfd6aff965bba6a","1","27","5847","","","","","","","","","<img src= rock_img/I_Peridotite_16.jpg style=""width:8cm; height:6.989999999999999cm;""><p style='font-size: 30px; color: red;'><strong>Incorrect!</strong></p><p style='font-size: 30px;'><strong>This rock is peridotite</strong></p>","0","corr_feedback","1","train","1","","","","","","","",""
"","","","","","","","","","","","html-button-response","107","2.0.0","203395","631ad5df2dfd6aff965bba6a","1","27","1870","","","","","","","","","<img src= ""rock_img/I_Basalt_08.jpg"" style=""width:8cm; height:10.44cm;""><p>What type of rock is this?</p>","1","class_response","1","train","2","Basalt","Basalt","08","true","2","2","",""
"","","","","","","","","","","","html-button-response","108","2.0.0","207745","631ad5df2dfd6aff965bba6a","1","27","4347","","","","","","","","","<img src= rock_img/I_Basalt_08.jpg style=""width:8cm; height:10.44cm;""><p style='font-size: 30px; color: green;'><strong>Correct!</strong></p><p style='font-size: 30px;'><strong>This rock is basalt</strong></p>","0","corr_feedback","1","train","2","","","","","","","",""
"","","","","","","","","","","","html-button-response","109","2.0.0","209083","631ad5df2dfd6aff965bba6a","1","27","1335","","","","","","","","","<img src= ""rock_img/I_Pumice_14.jpg"" style=""width:8cm; height:6.39cm;""><p>What type of rock is this?</p>","7","class_response","1","train","3","Pumice","Pumice","14","true","8","8","",""
"","","","","","","","","","","","html-button-response","110","2.0.0","209925","631ad5df2dfd6aff965bba6a","1","27","837","","","","","","","","","<img src= rock_img/I_Pumice_14.jpg style=""width:8cm; height:6.39cm;""><p style='font-size: 30px; color: green;'><strong>Correct!</strong></p><p style='font-size: 30px;'><strong>This rock is pumice</strong></p>","0","corr_feedback","1","train","3","","","","","","","",""
"","","","","","","","","","","","html-button-response","111","2.0.0","211789","631ad5df2dfd6aff965bba6a","1","27","1860","","","","","","","","","<img src= ""rock_img/I_Pumice_10.jpg"" style=""width:8cm; height:7.609999999999999cm;""><p>What type of rock is this?</p>","3","class_response","1","train","4","Gabbro","Pumice","10","false","4","8","",""
"","","","","","","","","","","","html-button-response","112","2.0.0","214122","631ad5df2dfd6aff965bba6a","1","27","2329","","","","","","","","","<img src= rock_img/I_Pumice_10.jpg style=""width:8cm; height:7.609999999999999cm;""><p style='font-size: 30px; color: red;'><strong>Incorrect!</strong></p><p style='font-size: 30px;'><strong>This rock is pumice</strong></p>","0","corr_feedback","1","train","4","","","","","","","",""
"","","","","","","","","","","","html-button-response","113","2.0.0","215487","631ad5df2dfd6aff965bba6a","1","27","1360","","","","","","","","","<img src= ""rock_img/I_Gabbro_16.jpg"" style=""width:8cm; height:6.44cm;""><p>What type of rock is this?</p>","2","class_response","1","train","5","Diorite","Gabbro","16","false","3","4","",""
"","","","","","","","","","","","html-button-response","114","2.0.0","217669","631ad5df2dfd6aff965bba6a","1","27","2179","","","","","","","","","<img src= rock_img/I_Gabbro_16.jpg style=""width:8cm; height:6.44cm;""><p style='font-size: 30px; color: red;'><strong>Incorrect!</strong></p><p style='font-size: 30px;'><strong>This rock is gabbro</strong></p>","0","corr_feedback","1","train","5","","","","","","","",""
"","","","","","","","","","","","html-button-response","115","2.0.0","219084","631ad5df2dfd6aff965bba6a","1","27","1411","","","","","","","","","<img src= ""rock_img/I_Pegmatite_15.jpg"" style=""width:8cm; height:6cm;""><p>What type of rock is this?</p>","5","class_response","1","train","6","Pegmatite","Pegmatite","15","true","6","6","",""
"","","","","","","","","","","","html-button-response","116","2.0.0","221815","631ad5df2dfd6aff965bba6a","1","27","2726","","","","","","","","","<img src= rock_img/I_Pegmatite_15.jpg style=""width:8cm; height:6cm;""><p style='font-size: 30px; color: green;'><strong>Correct!</strong></p><p style='font-size: 30px;'><strong>This rock is pegmatite</strong></p>","0","corr_feedback","1","train","6","","","","","","","",""
"","","","","","","","","","","","html-button-response","117","2.0.0","223539","631ad5df2dfd6aff965bba6a","1","27","1719","","","","","","","","","<img src= ""rock_img/I_Peridotite_14.jpg"" style=""width:8cm; height:5.3cm;""><p>What type of rock is this?</p>","0","class_response","1","train","7","Andesite","Peridotite","14","false","1","7","",""
"","","","","","","","","","","","html-button-response","118","2.0.0","229751","631ad5df2dfd6aff965bba6a","1","27","6207","","","","","","","","","<img src= rock_img/I_Peridotite_14.jpg style=""width:8cm; height:5.3cm;""><p style='font-size: 30px; color: red;'><strong>Incorrect!</strong></p><p style='font-size: 30px;'><strong>This rock is peridotite</strong></p>","0","corr_feedback","1","train","7","","","","","","","",""
"","","","","","","","","","","","html-button-response","119","2.0.0","233425","631ad5df2dfd6aff965bba6a","1","27","3669","","","","","","","","","<img src= ""rock_img/I_Peridotite_13.jpg"" style=""width:8cm; height:7.58cm;""><p>What type of rock is this?</p>","5","class_response","1","train","8","Pegmatite","Peridotite","13","false","6","7","",""
"","","","","","","","","","","","html-button-response","120","2.0.0","235601","631ad5df2dfd6aff965bba6a","1","27","2171","","","","","","","","","<img src= rock_img/I_Peridotite_13.jpg style=""width:8cm; height:7.58cm;""><p style='font-size: 30px; color: red;'><strong>Incorrect!</strong></p><p style='font-size: 30px;'><strong>This rock is peridotite</strong></p>","0","corr_feedback","1","train","8","","","","","","","",""
"","","","","","","","","","","","html-button-response","121","2.0.0","236984","631ad5df2dfd6aff965bba6a","1","27","1377","","","","","","","","","<img src= ""rock_img/I_Pegmatite_12.jpg"" style=""width:8cm; height:5.7cm;""><p>What type of rock is this?</p>","6","class_response","1","train","9","Peridotite","Pegmatite","12","false","7","6","",""
"","","","","","","","","","","","html-button-response","122","2.0.0","240143","631ad5df2dfd6aff965bba6a","1","27","3154","","","","","","","","","<img src= rock_img/I_Pegmatite_12.jpg style=""width:8cm; height:5.7cm;""><p style='font-size: 30px; color: red;'><strong>Incorrect!</strong></p><p style='font-size: 30px;'><strong>This rock is pegmatite</strong></p>","0","corr_feedback","1","train","9","","","","","","","",""
"","","","","","","","","","","","html-button-response","123","2.0.0","245095","631ad5df2dfd6aff965bba6a","1","27","4947","","","","","","","","","<img src= ""rock_img/I_Obsidian_07.jpg"" style=""width:8cm; height:4.76cm;""><p>What type of rock is this?</p>","5","class_response","1","train","10","Pegmatite","Obsidian","07","false","6","5","",""
"","","","","","","","","","","","html-button-response","124","2.0.0","246530","631ad5df2dfd6aff965bba6a","1","27","1431","","","","","","","","","<img src= rock_img/I_Obsidian_07.jpg style=""width:8cm; height:4.76cm;""><p style='font-size: 30px; color: red;'><strong>Incorrect!</strong></p><p style='font-size: 30px;'><strong>This rock is obsidian</strong></p>","0","corr_feedback","1","train","10","","","","","","","",""
"","","","","","","","","","","","html-button-response","125","2.0.0","247709","631ad5df2dfd6aff965bba6a","1","27","1174","","","","","","","","","<img src= ""rock_img/I_Diorite_13.jpg"" style=""width:8cm; height:6.29cm;""><p>What type of rock is this?</p>","2","class_response","1","train","11","Diorite","Diorite","13","true","3","3","",""
"","","","","","","","","","","","html-button-response","126","2.0.0","250682","631ad5df2dfd6aff965bba6a","1","27","2969","","","","","","","","","<img src= rock_img/I_Diorite_13.jpg style=""width:8cm; height:6.29cm;""><p style='font-size: 30px; color: green;'><strong>Correct!</strong></p><p style='font-size: 30px;'><strong>This rock is diorite</strong></p>","0","corr_feedback","1","train","11","","","","","","","",""
"","","","","","","","","","","","html-button-response","127","2.0.0","252251","631ad5df2dfd6aff965bba6a","1","27","1563","","","","","","","","","<img src= ""rock_img/I_Pumice_02.jpg"" style=""width:8cm; height:7.3999999999999995cm;""><p>What type of rock is this?</p>","7","class_response","1","train","12","Pumice","Pumice","02","true","8","8","",""
"","","","","","","","","","","","html-button-response","128","2.0.0","253076","631ad5df2dfd6aff965bba6a","1","27","822","","","","","","","","","<img src= rock_img/I_Pumice_02.jpg style=""width:8cm; height:7.3999999999999995cm;""><p style='font-size: 30px; color: green;'><strong>Correct!</strong></p><p style='font-size: 30px;'><strong>This rock is pumice</strong></p>","0","corr_feedback","1","train","12","","","","","","","",""
"","","","","","","","","","","","html-button-response","129","2.0.0","256042","631ad5df2dfd6aff965bba6a","1","27","2962","","","","","","","","","<img src= ""rock_img/I_Peridotite_04.jpg"" style=""width:8cm; height:6.680000000000001cm;""><p>What type of rock is this?</p>","2","class_response","1","train","13","Diorite","Peridotite","04","false","3","7","",""
"","","","","","","","","","","","html-button-response","130","2.0.0","258070","631ad5df2dfd6aff965bba6a","1","27","2024","","","","","","","","","<img src= rock_img/I_Peridotite_04.jpg style=""width:8cm; height:6.680000000000001cm;""><p style='font-size: 30px; color: red;'><strong>Incorrect!</strong></p><p style='font-size: 30px;'><strong>This rock is peridotite</strong></p>","0","corr_feedback","1","train","13","","","","","","","",""
"","","","","","","","","","","","html-button-response","131","2.0.0","263024","631ad5df2dfd6aff965bba6a","1","27","4950","","","","","","","","","<img src= ""rock_img/I_Basalt_14.jpg"" style=""width:8cm; height:5.82cm;""><p>What type of rock is this?</p>","0","class_response","1","train","14","Andesite","Basalt","14","false","1","2","",""
"","","","","","","","","","","","html-button-response","132","2.0.0","264202","631ad5df2dfd6aff965bba6a","1","27","1174","","","","","","","","","<img src= rock_img/I_Basalt_14.jpg style=""width:8cm; height:5.82cm;""><p style='font-size: 30px; color: red;'><strong>Incorrect!</strong></p><p style='font-size: 30px;'><strong>This rock is basalt</strong></p>","0","corr_feedback","1","train","14","","","","","","","",""
"","","","","","","","","","","","html-button-response","133","2.0.0","266543","631ad5df2dfd6aff965bba6a","1","27","2336","","","","","","","","","<img src= ""rock_img/I_Pumice_04.jpg"" style=""width:8cm; height:6.819999999999999cm;""><p>What type of rock is this?</p>","7","class_response","1","train","15","Pumice","Pumice","04","true","8","8","",""
"","","","","","","","","","","","html-button-response","134","2.0.0","267518","631ad5df2dfd6aff965bba6a","1","27","971","","","","","","","","","<img src= rock_img/I_Pumice_04.jpg style=""width:8cm; height:6.819999999999999cm;""><p style='font-size: 30px; color: green;'><strong>Correct!</strong></p><p style='font-size: 30px;'><strong>This rock is pumice</strong></p>","0","corr_feedback","1","train","15","","","","","","","",""
"","","","","","","","","","","","html-button-response","135","2.0.0","268542","631ad5df2dfd6aff965bba6a","1","27","1017","","","","","","","","","<img src= ""rock_img/I_Pumice_06.jpg"" style=""width:8cm; height:6.9399999999999995cm;""><p>What type of rock is this?</p>","7","class_response","1","train","16","Pumice","Pumice","06","true","8","8","",""
"","","","","","","","","","","","html-button-response","136","2.0.0","269273","631ad5df2dfd6aff965bba6a","1","27","725","","","","","","","","","<img src= rock_img/I_Pumice_06.jpg style=""width:8cm; height:6.9399999999999995cm;""><p style='font-size: 30px; color: green;'><strong>Correct!</strong></p><p style='font-size: 30px;'><strong>This rock is pumice</strong></p>","0","corr_feedback","1","train","16","","","","","","","",""
"","","","","","","","","","","","html-button-response","137","2.0.0","270771","631ad5df2dfd6aff965bba6a","1","27","1492","","","","","","","","","<img src= ""rock_img/I_Obsidian_08.jpg"" style=""width:8cm; height:7.39cm;""><p>What type of rock is this?</p>","4","class_response","1","train","17","Obsidian","Obsidian","08","true","5","5","",""
"","","","","","","","","","","","html-button-response","138","2.0.0","272096","631ad5df2dfd6aff965bba6a","1","27","1320","","","","","","","","","<img src= rock_img/I_Obsidian_08.jpg style=""width:8cm; height:7.39cm;""><p style='font-size: 30px; color: green;'><strong>Correct!</strong></p><p style='font-size: 30px;'><strong>This rock is obsidian</strong></p>","0","corr_feedback","1","train","17","","","","","","","",""
"","","","","","","","","","","","html-button-response","139","2.0.0","273658","631ad5df2dfd6aff965bba6a","1","27","1558","","","","","","","","","<img src= ""rock_img/I_Basalt_05.jpg"" style=""width:8cm; height:8.18cm;""><p>What type of rock is this?</p>","1","class_response","1","train","18","Basalt","Basalt","05","true","2","2","",""
"","","","","","","","","","","","html-button-response","140","2.0.0","274734","631ad5df2dfd6aff965bba6a","1","27","1072","","","","","","","","","<img src= rock_img/I_Basalt_05.jpg style=""width:8cm; height:8.18cm;""><p style='font-size: 30px; color: green;'><strong>Correct!</strong></p><p style='font-size: 30px;'><strong>This rock is basalt</strong></p>","0","corr_feedback","1","train","18","","","","","","","",""
"","","","","","","","","","","","html-button-response","141","2.0.0","277067","631ad5df2dfd6aff965bba6a","1","27","2328","","","","","","","","","<img src= ""rock_img/I_Pegmatite_13.jpg"" style=""width:8cm; height:4.95cm;""><p>What type of rock is this?</p>","2","class_response","1","train","19","Diorite","Pegmatite","13","false","3","6","",""
"","","","","","","","","","","","html-button-response","142","2.0.0","278476","631ad5df2dfd6aff965bba6a","1","27","1406","","","","","","","","","<img src= rock_img/I_Pegmatite_13.jpg style=""width:8cm; height:4.95cm;""><p style='font-size: 30px; color: red;'><strong>Incorrect!</strong></p><p style='font-size: 30px;'><strong>This rock is pegmatite</strong></p>","0","corr_feedback","1","train","19","","","","","","","",""
"","","","","","","","","","","","html-button-response","143","2.0.0","280812","631ad5df2dfd6aff965bba6a","1","27","2333","","","","","","","","","<img src= ""rock_img/I_Gabbro_01.jpg"" style=""width:8cm; height:5.21cm;""><p>What type of rock is this?</p>","5","class_response","1","train","20","Pegmatite","Gabbro","01","false","6","4","",""
"","","","","","","","","","","","html-button-response","144","2.0.0","282232","631ad5df2dfd6aff965bba6a","1","27","1415","","","","","","","","","<img src= rock_img/I_Gabbro_01.jpg style=""width:8cm; height:5.21cm;""><p style='font-size: 30px; color: red;'><strong>Incorrect!</strong></p><p style='font-size: 30px;'><strong>This rock is gabbro</strong></p>","0","corr_feedback","1","train","20","","","","","","","",""
"","","","","","","","","","","","html-button-response","145","2.0.0","284868","631ad5df2dfd6aff965bba6a","1","27","2632","","","","","","","","","<img src= ""rock_img/I_Andesite_09.jpg"" style=""width:8cm; height:6cm;""><p>What type of rock is this?</p>","1","class_response","1","train","21","Basalt","Andesite","09","false","2","1","",""
"","","","","","","","","","","","html-button-response","146","2.0.0","285992","631ad5df2dfd6aff965bba6a","1","27","1120","","","","","","","","","<img src= rock_img/I_Andesite_09.jpg style=""width:8cm; height:6cm;""><p style='font-size: 30px; color: red;'><strong>Incorrect!</strong></p><p style='font-size: 30px;'><strong>This rock is andesite</strong></p>","0","corr_feedback","1","train","21","","","","","","","",""
"","","","","","","","","","","","html-button-response","147","2.0.0","288856","631ad5df2dfd6aff965bba6a","1","27","2859","","","","","","","","","<img src= ""rock_img/I_Andesite_14.jpg"" style=""width:8cm; height:5.449999999999999cm;""><p>What type of rock is this?</p>","2","class_response","1","train","22","Diorite","Andesite","14","false","3","1","",""
"","","","","","","","","","","","html-button-response","148","2.0.0","290814","631ad5df2dfd6aff965bba6a","1","27","1954","","","","","","","","","<img src= rock_img/I_Andesite_14.jpg style=""width:8cm; height:5.449999999999999cm;""><p style='font-size: 30px; color: red;'><strong>Incorrect!</strong></p><p style='font-size: 30px;'><strong>This rock is andesite</strong></p>","0","corr_feedback","1","train","22","","","","","","","",""
"","","","","","","","","","","","html-button-response","149","2.0.0","293202","631ad5df2dfd6aff965bba6a","1","27","2383","","","","","","","","","<img src= ""rock_img/I_Gabbro_14.jpg"" style=""width:8cm; height:8.48cm;""><p>What type of rock is this?</p>","1","class_response","1","train","23","Basalt","Gabbro","14","false","2","4","",""
"","","","","","","","","","","","html-button-response","150","2.0.0","294816","631ad5df2dfd6aff965bba6a","1","27","1609","","","","","","","","","<img src= rock_img/I_Gabbro_14.jpg style=""width:8cm; height:8.48cm;""><p style='font-size: 30px; color: red;'><strong>Incorrect!</strong></p><p style='font-size: 30px;'><strong>This rock is gabbro</strong></p>","0","corr_feedback","1","train","23","","","","","","","",""
"","","","","","","","","","","","html-button-response","151","2.0.0","295989","631ad5df2dfd6aff965bba6a","1","27","1167","","","","","","","","","<img src= ""rock_img/I_Obsidian_10.jpg"" style=""width:8cm; height:6.260000000000001cm;""><p>What type of rock is this?</p>","4","class_response","1","train","24","Obsidian","Obsidian","10","true","5","5","",""
"","","","","","","","","","","","html-button-response","152","2.0.0","296548","631ad5df2dfd6aff965bba6a","1","27","555","","","","","","","","","<img src= rock_img/I_Obsidian_10.jpg style=""width:8cm; height:6.260000000000001cm;""><p style='font-size: 30px; color: green;'><strong>Correct!</strong></p><p style='font-size: 30px;'><strong>This rock is obsidian</strong></p>","0","corr_feedback","1","train","24","","","","","","","",""
"","","","","","","","","","","","html-button-response","153","2.0.0","299046","631ad5df2dfd6aff965bba6a","1","27","2492","","","","","","","","","<img src= ""rock_img/I_Obsidian_06.jpg"" style=""width:8cm; height:6.8cm;""><p>What type of rock is this?</p>","4","class_response","1","train","25","Obsidian","Obsidian","06","true","5","5","",""
"","","","","","","","","","","","html-button-response","154","2.0.0","299614","631ad5df2dfd6aff965bba6a","1","27","564","","","","","","","","","<img src= rock_img/I_Obsidian_06.jpg style=""width:8cm; height:6.8cm;""><p style='font-size: 30px; color: green;'><strong>Correct!</strong></p><p style='font-size: 30px;'><strong>This rock is obsidian</strong></p>","0","corr_feedback","1","train","25","","","","","","","",""
"","","","","","","","","","","","html-button-response","155","2.0.0","301192","631ad5df2dfd6aff965bba6a","1","27","1574","","","","","","","","","<img src= ""rock_img/I_Diorite_08.jpg"" style=""width:8cm; height:6.37cm;""><p>What type of rock is this?</p>","2","class_response","1","train","26","Diorite","Diorite","08","true","3","3","",""
"","","","","","","","","","","","html-button-response","156","2.0.0","303040","631ad5df2dfd6aff965bba6a","1","27","1843","","","","","","","","","<img src= rock_img/I_Diorite_08.jpg style=""width:8cm; height:6.37cm;""><p style='font-size: 30px; color: green;'><strong>Correct!</strong></p><p style='font-size: 30px;'><strong>This rock is diorite</strong></p>","0","corr_feedback","1","train","26","","","","","","","",""
"","","","","","","","","","","","html-button-response","157","2.0.0","304218","631ad5df2dfd6aff965bba6a","1","27","1173","","","","","","","","","<img src= ""rock_img/I_Basalt_04.jpg"" style=""width:8cm; height:7.53cm;""><p>What type of rock is this?</p>","1","class_response","1","train","27","Basalt","Basalt","04","true","2","2","",""
"","","","","","","","","","","","html-button-response","158","2.0.0","304936","631ad5df2dfd6aff965bba6a","1","27","714","","","","","","","","","<img src= rock_img/I_Basalt_04.jpg style=""width:8cm; height:7.53cm;""><p style='font-size: 30px; color: green;'><strong>Correct!</strong></p><p style='font-size: 30px;'><strong>This rock is basalt</strong></p>","0","corr_feedback","1","train","27","","","","","","","",""
"","","","","","","","","","","","html-button-response","159","2.0.0","306154","631ad5df2dfd6aff965bba6a","1","27","1213","","","","","","","","","<img src= ""rock_img/I_Pumice_05.jpg"" style=""width:8cm; height:7.25cm;""><p>What type of rock is this?</p>","7","class_response","1","train","28","Pumice","Pumice","05","true","8","8","",""
"","","","","","","","","","","","html-button-response","160","2.0.0","306824","631ad5df2dfd6aff965bba6a","1","27","665","","","","","","","","","<img src= rock_img/I_Pumice_05.jpg style=""width:8cm; height:7.25cm;""><p style='font-size: 30px; color: green;'><strong>Correct!</strong></p><p style='font-size: 30px;'><strong>This rock is pumice</strong></p>","0","corr_feedback","1","train","28","","","","","","","",""
"","","","","","","","","","","","html-button-response","161","2.0.0","310944","631ad5df2dfd6aff965bba6a","1","27","4115","","","","","","","","","<img src= ""rock_img/I_Gabbro_09.jpg"" style=""width:8cm; height:7.279999999999999cm;""><p>What type of rock is this?</p>","1","class_response","1","train","29","Basalt","Gabbro","09","false","2","4","",""
"","","","","","","","","","","","html-button-response","162","2.0.0","313339","631ad5df2dfd6aff965bba6a","1","27","2391","","","","","","","","","<img src= rock_img/I_Gabbro_09.jpg style=""width:8cm; height:7.279999999999999cm;""><p style='font-size: 30px; color: red;'><strong>Incorrect!</strong></p><p style='font-size: 30px;'><strong>This rock is gabbro</strong></p>","0","corr_feedback","1","train","29","","","","","","","",""
"","","","","","","","","","","","html-button-response","163","2.0.0","314620","631ad5df2dfd6aff965bba6a","1","27","1276","","","","","","","","","<img src= ""rock_img/I_Diorite_06.jpg"" style=""width:8cm; height:6.03cm;""><p>What type of rock is this?</p>","2","class_response","1","train","30","Diorite","Diorite","06","true","3","3","",""
"","","","","","","","","","","","html-button-response","164","2.0.0","315547","631ad5df2dfd6aff965bba6a","1","27","923","","","","","","","","","<img src= rock_img/I_Diorite_06.jpg style=""width:8cm; height:6.03cm;""><p style='font-size: 30px; color: green;'><strong>Correct!</strong></p><p style='font-size: 30px;'><strong>This rock is diorite</strong></p>","0","corr_feedback","1","train","30","","","","","","","",""
"","","","","","","","","","","","html-button-response","165","2.0.0","318644","631ad5df2dfd6aff965bba6a","1","27","3092","","","","","","","","","<img src= ""rock_img/I_Peridotite_10.jpg"" style=""width:8cm; height:5.390000000000001cm;""><p>What type of rock is this?</p>","5","class_response","1","train","31","Pegmatite","Peridotite","10","false","6","7","",""
"","","","","","","","","","","","html-button-response","166","2.0.0","322024","631ad5df2dfd6aff965bba6a","1","27","3375","","","","","","","","","<img src= rock_img/I_Peridotite_10.jpg style=""width:8cm; height:5.390000000000001cm;""><p style='font-size: 30px; color: red;'><strong>Incorrect!</strong></p><p style='font-size: 30px;'><strong>This rock is peridotite</strong></p>","0","corr_feedback","1","train","31","","","","","","","",""
"","","","","","","","","","","","html-button-response","167","2.0.0","323606","631ad5df2dfd6aff965bba6a","1","27","1577","","","","","","","","","<img src= ""rock_img/I_Andesite_05.jpg"" style=""width:8cm; height:4.12cm;""><p>What type of rock is this?</p>","6","class_response","1","train","32","Peridotite","Andesite","05","false","7","1","",""
"","","","","","","","","","","","html-button-response","168","2.0.0","326190","631ad5df2dfd6aff965bba6a","1","27","2580","","","","","","","","","<img src= rock_img/I_Andesite_05.jpg style=""width:8cm; height:4.12cm;""><p style='font-size: 30px; color: red;'><strong>Incorrect!</strong></p><p style='font-size: 30px;'><strong>This rock is andesite</strong></p>","0","corr_feedback","1","train","32","","","","","","","",""
"","","","","","","","","","","","html-button-response","169","2.0.0","329130","631ad5df2dfd6aff965bba6a","1","27","2935","","","","","","","","","<img src= ""rock_img/I_Pegmatite_16.jpg"" style=""width:8cm; height:5.8cm;""><p>What type of rock is this?</p>","2","class_response","1","train","33","Diorite","Pegmatite","16","false","3","6","",""
"","","","","","","","","","","","html-button-response","170","2.0.0","331214","631ad5df2dfd6aff965bba6a","1","27","2078","","","","","","","","","<img src= rock_img/I_Pegmatite_16.jpg style=""width:8cm; height:5.8cm;""><p style='font-size: 30px; color: red;'><strong>Incorrect!</strong></p><p style='font-size: 30px;'><strong>This rock is pegmatite</strong></p>","0","corr_feedback","1","train","33","","","","","","","",""
"","","","","","","","","","","","html-button-response","171","2.0.0","333952","631ad5df2dfd6aff965bba6a","1","27","2733","","","","","","","","","<img src= ""rock_img/I_Andesite_03.jpg"" style=""width:8cm; height:5.73cm;""><p>What type of rock is this?</p>","2","class_response","1","train","34","Diorite","Andesite","03","false","3","1","",""
"","","","","","","","","","","","html-button-response","172","2.0.0","336135","631ad5df2dfd6aff965bba6a","1","27","2180","","","","","","","","","<img src= rock_img/I_Andesite_03.jpg style=""width:8cm; height:5.73cm;""><p style='font-size: 30px; color: red;'><strong>Incorrect!</strong></p><p style='font-size: 30px;'><strong>This rock is andesite</strong></p>","0","corr_feedback","1","train","34","","","","","","","",""
"","","","","","","","","","","","html-button-response","173","2.0.0","338032","631ad5df2dfd6aff965bba6a","1","27","1892","","","","","","","","","<img src= ""rock_img/I_Gabbro_05.jpg"" style=""width:8cm; height:6cm;""><p>What type of rock is this?</p>","2","class_response","1","train","35","Diorite","Gabbro","05","false","3","4","",""
"","","","","","","","","","","","html-button-response","174","2.0.0","339637","631ad5df2dfd6aff965bba6a","1","27","1601","","","","","","","","","<img src= rock_img/I_Gabbro_05.jpg style=""width:8cm; height:6cm;""><p style='font-size: 30px; color: red;'><strong>Incorrect!</strong></p><p style='font-size: 30px;'><strong>This rock is gabbro</strong></p>","0","corr_feedback","1","train","35","","","","","","","",""
"","","","","","","","","","","","html-button-response","175","2.0.0","342486","631ad5df2dfd6aff965bba6a","1","27","2844","","","","","","","","","<img src= ""rock_img/I_Peridotite_07.jpg"" style=""width:8cm; height:4.83cm;""><p>What type of rock is this?</p>","6","class_response","1","train","36","Peridotite","Peridotite","07","true","7","7","",""
"","","","","","","","","","","","html-button-response","176","2.0.0","343929","631ad5df2dfd6aff965bba6a","1","27","1439","","","","","","","","","<img src= rock_img/I_Peridotite_07.jpg style=""width:8cm; height:4.83cm;""><p style='font-size: 30px; color: green;'><strong>Correct!</strong></p><p style='font-size: 30px;'><strong>This rock is peridotite</strong></p>","0","corr_feedback","1","train","36","","","","","","","",""
"","","","","","","","","","","","html-button-response","177","2.0.0","345278","631ad5df2dfd6aff965bba6a","1","27","1344","","","","","","","","","<img src= ""rock_img/I_Diorite_12.jpg"" style=""width:8cm; height:4.88cm;""><p>What type of rock is this?</p>","2","class_response","1","train","37","Diorite","Diorite","12","true","3","3","",""
"","","","","","","","","","","","html-button-response","178","2.0.0","346425","631ad5df2dfd6aff965bba6a","1","27","1143","","","","","","","","","<img src= rock_img/I_Diorite_12.jpg style=""width:8cm; height:4.88cm;""><p style='font-size: 30px; color: green;'><strong>Correct!</strong></p><p style='font-size: 30px;'><strong>This rock is diorite</strong></p>","0","corr_feedback","1","train","37","","","","","","","",""
"","","","","","","","","","","","html-button-response","179","2.0.0","348906","631ad5df2dfd6aff965bba6a","1","27","2476","","","","","","","","","<img src= ""rock_img/I_Pegmatite_10.jpg"" style=""width:8cm; height:4.16cm;""><p>What type of rock is this?</p>","5","class_response","1","train","38","Pegmatite","Pegmatite","10","true","6","6","",""
"","","","","","","","","","","","html-button-response","180","2.0.0","351371","631ad5df2dfd6aff965bba6a","1","27","2462","","","","","","","","","<img src= rock_img/I_Pegmatite_10.jpg style=""width:8cm; height:4.16cm;""><p style='font-size: 30px; color: green;'><strong>Correct!</strong></p><p style='font-size: 30px;'><strong>This rock is pegmatite</strong></p>","0","corr_feedback","1","train","38","","","","","","","",""
"","","","","","","","","","","","html-button-response","181","2.0.0","352598","631ad5df2dfd6aff965bba6a","1","27","1222","","","","","","","","","<img src= ""rock_img/I_Diorite_07.jpg"" style=""width:8cm; height:5.239999999999999cm;""><p>What type of rock is this?</p>","2","class_response","1","train","39","Diorite","Diorite","07","true","3","3","",""
"","","","","","","","","","","","html-button-response","182","2.0.0","353229","631ad5df2dfd6aff965bba6a","1","27","627","","","","","","","","","<img src= rock_img/I_Diorite_07.jpg style=""width:8cm; height:5.239999999999999cm;""><p style='font-size: 30px; color: green;'><strong>Correct!</strong></p><p style='font-size: 30px;'><strong>This rock is diorite</strong></p>","0","corr_feedback","1","train","39","","","","","","","",""
"","","","","","","","","","","","html-button-response","183","2.0.0","355548","631ad5df2dfd6aff965bba6a","1","27","2313","","","","","","","","","<img src= ""rock_img/I_Gabbro_12.jpg"" style=""width:8cm; height:7.800000000000001cm;""><p>What type of rock is this?</p>","1","class_response","1","train","40","Basalt","Gabbro","12","false","2","4","",""
"","","","","","","","","","","","html-button-response","184","2.0.0","357309","631ad5df2dfd6aff965bba6a","1","27","1758","","","","","","","","","<img src= rock_img/I_Gabbro_12.jpg style=""width:8cm; height:7.800000000000001cm;""><p style='font-size: 30px; color: red;'><strong>Incorrect!</strong></p><p style='font-size: 30px;'><strong>This rock is gabbro</strong></p>","0","corr_feedback","1","train","40","","","","","","","",""
"","","","","","","","","","","","html-button-response","185","2.0.0","359322","631ad5df2dfd6aff965bba6a","1","27","2007","","","","","","","","","<img src= ""rock_img/I_Obsidian_09.jpg"" style=""width:8cm; height:5cm;""><p>What type of rock is this?</p>","4","class_response","1","train","41","Obsidian","Obsidian","09","true","5","5","",""
"","","","","","","","","","","","html-button-response","186","2.0.0","360091","631ad5df2dfd6aff965bba6a","1","27","766","","","","","","","","","<img src= rock_img/I_Obsidian_09.jpg style=""width:8cm; height:5cm;""><p style='font-size: 30px; color: green;'><strong>Correct!</strong></p><p style='font-size: 30px;'><strong>This rock is obsidian</strong></p>","0","corr_feedback","1","train","41","","","","","","","",""
"","","","","","","","","","","","html-button-response","187","2.0.0","361328","631ad5df2dfd6aff965bba6a","1","27","1233","","","","","","","","","<img src= ""rock_img/I_Diorite_09.jpg"" style=""width:8cm; height:5.27cm;""><p>What type of rock is this?</p>","2","class_response","1","train","42","Diorite","Diorite","09","true","3","3","",""
"","","","","","","","","","","","html-button-response","188","2.0.0","362043","631ad5df2dfd6aff965bba6a","1","27","710","","","","","","","","","<img src= rock_img/I_Diorite_09.jpg style=""width:8cm; height:5.27cm;""><p style='font-size: 30px; color: green;'><strong>Correct!</strong></p><p style='font-size: 30px;'><strong>This rock is diorite</strong></p>","0","corr_feedback","1","train","42","","","","","","","",""
"","","","","","","","","","","","html-button-response","189","2.0.0","365298","631ad5df2dfd6aff965bba6a","1","27","3249","","","","","","","","","<img src= ""rock_img/I_Basalt_11.jpg"" style=""width:8cm; height:5.359999999999999cm;""><p>What type of rock is this?</p>","1","class_response","1","train","43","Basalt","Basalt","11","true","2","2","",""
"","","","","","","","","","","","html-button-response","190","2.0.0","366210","631ad5df2dfd6aff965bba6a","1","27","907","","","","","","","","","<img src= rock_img/I_Basalt_11.jpg style=""width:8cm; height:5.359999999999999cm;""><p style='font-size: 30px; color: green;'><strong>Correct!</strong></p><p style='font-size: 30px;'><strong>This rock is basalt</strong></p>","0","corr_feedback","1","train","43","","","","","","","",""
"","","","","","","","","","","","html-button-response","191","2.0.0","368230","631ad5df2dfd6aff965bba6a","1","27","2015","","","","","","","","","<img src= ""rock_img/I_Pegmatite_06.jpg"" style=""width:8cm; height:5.17cm;""><p>What type of rock is this?</p>","5","class_response","1","train","44","Pegmatite","Pegmatite","06","true","6","6","",""
"","","","","","","","","","","","html-button-response","192","2.0.0","369377","631ad5df2dfd6aff965bba6a","1","27","1143","","","","","","","","","<img src= rock_img/I_Pegmatite_06.jpg style=""width:8cm; height:5.17cm;""><p style='font-size: 30px; color: green;'><strong>Correct!</strong></p><p style='font-size: 30px;'><strong>This rock is pegmatite</strong></p>","0","corr_feedback","1","train","44","","","","","","","",""
"","","","","","","","","","","","html-button-response","193","2.0.0","373713","631ad5df2dfd6aff965bba6a","1","27","4331","","","","","","","","","<img src= ""rock_img/I_Basalt_10.jpg"" style=""width:8cm; height:5.85cm;""><p>What type of rock is this?</p>","0","class_response","1","train","45","Andesite","Basalt","10","false","1","2","",""
"","","","","","","","","","","","html-button-response","194","2.0.0","375219","631ad5df2dfd6aff965bba6a","1","27","1501","","","","","","","","","<img src= rock_img/I_Basalt_10.jpg style=""width:8cm; height:5.85cm;""><p style='font-size: 30px; color: red;'><strong>Incorrect!</strong></p><p style='font-size: 30px;'><strong>This rock is basalt</strong></p>","0","corr_feedback","1","train","45","","","","","","","",""
"","","","","","","","","","","","html-button-response","195","2.0.0","377342","631ad5df2dfd6aff965bba6a","1","27","2117","","","","","","","","","<img src= ""rock_img/I_Andesite_07.jpg"" style=""width:8cm; height:5.93cm;""><p>What type of rock is this?</p>","2","class_response","1","train","46","Diorite","Andesite","07","false","3","1","",""
"","","","","","","","","","","","html-button-response","196","2.0.0","379253","631ad5df2dfd6aff965bba6a","1","27","1906","","","","","","","","","<img src= rock_img/I_Andesite_07.jpg style=""width:8cm; height:5.93cm;""><p style='font-size: 30px; color: red;'><strong>Incorrect!</strong></p><p style='font-size: 30px;'><strong>This rock is andesite</strong></p>","0","corr_feedback","1","train","46","","","","","","","",""
"","","","","","","","","","","","html-button-response","197","2.0.0","383387","631ad5df2dfd6aff965bba6a","1","27","4129","","","","","","","","","<img src= ""rock_img/I_Andesite_11.jpg"" style=""width:8cm; height:4.92cm;""><p>What type of rock is this?</p>","2","class_response","1","train","47","Diorite","Andesite","11","false","3","1","",""
"","","","","","","","","","","","html-button-response","198","2.0.0","384533","631ad5df2dfd6aff965bba6a","1","27","1143","","","","","","","","","<img src= rock_img/I_Andesite_11.jpg style=""width:8cm; height:4.92cm;""><p style='font-size: 30px; color: red;'><strong>Incorrect!</strong></p><p style='font-size: 30px;'><strong>This rock is andesite</strong></p>","0","corr_feedback","1","train","47","","","","","","","",""
"","","","","","","","","","","","html-button-response","199","2.0.0","387117","631ad5df2dfd6aff965bba6a","1","27","2580","","","","","","","","","<img src= ""rock_img/I_Obsidian_04.jpg"" style=""width:8cm; height:6.930000000000001cm;""><p>What type of rock is this?</p>","4","class_response","1","train","48","Obsidian","Obsidian","04","true","5","5","",""
"","","","","","","","","","","","html-button-response","200","2.0.0","388559","631ad5df2dfd6aff965bba6a","1","27","1438","","","","","","","","","<img src= rock_img/I_Obsidian_04.jpg style=""width:8cm; height:6.930000000000001cm;""><p style='font-size: 30px; color: green;'><strong>Correct!</strong></p><p style='font-size: 30px;'><strong>This rock is obsidian</strong></p>","0","corr_feedback","1","train","48","","","","","","","",""
"","","","","","","","","","","","instructions","203","2.0.0","401650","631ad5df2dfd6aff965bba6a","1","27","13087","","","","","","","","[{""page_index"":0,""viewing_time"":5909},{""page_index"":1,""viewing_time"":7178}]","","","","","","","","","","","","","",""
"","","","","","","","","","","","html-button-response","204","2.0.0","402899","631ad5df2dfd6aff965bba6a","1","27","1244","","","","","","","","","","0","start_test","","","","","","","","","","",""
"","","","","","","","","","","","html-button-response","205","2.0.0","404529","631ad5df2dfd6aff965bba6a","1","27","1625","","","","","","","","","<img src= ""rock_img/I_Pumice_09.jpg"" style=""width:8cm; height:6.44cm;""><p>What type of rock is this?</p>","7","class_response","1","test","1","Pumice","Pumice","09","true","8","8","",""
"","","","","","","","","","","","html-keyboard-response","206","2.0.0","405033","631ad5df2dfd6aff965bba6a","1","27","null","","","","","","","","","<p style='font-size: 30px;'><strong>Okay</strong></p>","null","neutral_feedback","1","test","1","","","","","","","",""
"","","","","","","","","","","","html-button-response","207","2.0.0","410419","631ad5df2dfd6aff965bba6a","1","27","5381","","","","","","","","","<img src= ""rock_img/I_Andesite_04.jpg"" style=""width:8cm; height:5.96cm;""><p>What type of rock is this?</p>","0","class_response","1","test","2","Andesite","Andesite","04","true","1","1","",""
"","","","","","","","","","","","html-keyboard-response","208","2.0.0","410922","631ad5df2dfd6aff965bba6a","1","27","null","","","","","","","","","<p style='font-size: 30px;'><strong>Okay</strong></p>","null","neutral_feedback","1","test","2","","","","","","","",""
"","","","","","","","","","","","html-button-response","209","2.0.0","414679","631ad5df2dfd6aff965bba6a","1","27","3752","","","","","","","","","<img src= ""rock_img/I_Pegmatite_08.jpg"" style=""width:8cm; height:7.68cm;""><p>What type of rock is this?</p>","4","class_response","1","test","3","Obsidian","Pegmatite","08","false","5","6","",""
"","","","","","","","","","","","html-keyboard-response","210","2.0.0","415182","631ad5df2dfd6aff965bba6a","1","27","null","","","","","","","","","<p style='font-size: 30px;'><strong>Okay</strong></p>","null","neutral_feedback","1","test","3","","","","","","","",""
"","","","","","","","","","","","html-button-response","211","2.0.0","417595","631ad5df2dfd6aff965bba6a","1","27","2408","","","","","","","","","<img src= ""rock_img/I_Basalt_16.jpg"" style=""width:8cm; height:7.659999999999999cm;""><p>What type of rock is this?</p>","1","class_response","1","test","4","Basalt","Basalt","16","true","2","2","",""
"","","","","","","","","","","","html-keyboard-response","212","2.0.0","418098","631ad5df2dfd6aff965bba6a","1","27","null","","","","","","","","","<p style='font-size: 30px;'><strong>Okay</strong></p>","null","neutral_feedback","1","test","4","","","","","","","",""
"","","","","","","","","","","","html-button-response","213","2.0.0","419297","631ad5df2dfd6aff965bba6a","1","27","1195","","","","","","","","","<img src= ""rock_img/I_Obsidian_11.jpg"" style=""width:8cm; height:6.05cm;""><p>What type of rock is this?</p>","4","class_response","1","test","5","Obsidian","Obsidian","11","true","5","5","",""
"","","","","","","","","","","","html-keyboard-response","214","2.0.0","419799","631ad5df2dfd6aff965bba6a","1","27","null","","","","","","","","","<p style='font-size: 30px;'><strong>Okay</strong></p>","null","neutral_feedback","1","test","5","","","","","","","",""
"","","","","","","","","","","","html-button-response","215","2.0.0","423588","631ad5df2dfd6aff965bba6a","1","27","3783","","","","","","","","","<img src= ""rock_img/I_Pegmatite_03.jpg"" style=""width:8cm; height:5.239999999999999cm;""><p>What type of rock is this?</p>","5","class_response","1","test","6","Pegmatite","Pegmatite","03","true","6","6","",""
"","","","","","","","","","","","html-keyboard-response","216","2.0.0","424091","631ad5df2dfd6aff965bba6a","1","27","null","","","","","","","","","<p style='font-size: 30px;'><strong>Okay</strong></p>","null","neutral_feedback","1","test","6","","","","","","","",""
"","","","","","","","","","","","html-button-response","217","2.0.0","427825","631ad5df2dfd6aff965bba6a","1","27","3730","","","","","","","","","<img src= ""rock_img/I_Andesite_01.jpg"" style=""width:8cm; height:5.87cm;""><p>What type of rock is this?</p>","2","class_response","1","test","7","Diorite","Andesite","01","false","3","1","",""
"","","","","","","","","","","","html-keyboard-response","218","2.0.0","428328","631ad5df2dfd6aff965bba6a","1","27","null","","","","","","","","","<p style='font-size: 30px;'><strong>Okay</strong></p>","null","neutral_feedback","1","test","7","","","","","","","",""
"","","","","","","","","","","","html-button-response","219","2.0.0","430719","631ad5df2dfd6aff965bba6a","1","27","2387","","","","","","","","","<img src= ""rock_img/I_Pumice_13.jpg"" style=""width:8cm; height:8.200000000000001cm;""><p>What type of rock is this?</p>","7","class_response","1","test","8","Pumice","Pumice","13","true","8","8","",""
"","","","","","","","","","","","html-keyboard-response","220","2.0.0","431222","631ad5df2dfd6aff965bba6a","1","27","null","","","","","","","","","<p style='font-size: 30px;'><strong>Okay</strong></p>","null","neutral_feedback","1","test","8","","","","","","","",""
"","","","","","","","","","","","html-button-response","221","2.0.0","432948","631ad5df2dfd6aff965bba6a","1","27","1723","","","","","","","","","<img src= ""rock_img/I_Basalt_01.jpg"" style=""width:8cm; height:7.880000000000001cm;""><p>What type of rock is this?</p>","1","class_response","1","test","9","Basalt","Basalt","01","true","2","2","",""
"","","","","","","","","","","","html-keyboard-response","222","2.0.0","433451","631ad5df2dfd6aff965bba6a","1","27","null","","","","","","","","","<p style='font-size: 30px;'><strong>Okay</strong></p>","null","neutral_feedback","1","test","9","","","","","","","",""
"","","","","","","","","","","","html-button-response","223","2.0.0","434813","631ad5df2dfd6aff965bba6a","1","27","1357","","","","","","","","","<img src= ""rock_img/I_Diorite_16.jpg"" style=""width:8cm; height:6.74cm;""><p>What type of rock is this?</p>","2","class_response","1","test","10","Diorite","Diorite","16","true","3","3","",""
"","","","","","","","","","","","html-keyboard-response","224","2.0.0","435315","631ad5df2dfd6aff965bba6a","1","27","null","","","","","","","","","<p style='font-size: 30px;'><strong>Okay</strong></p>","null","neutral_feedback","1","test","10","","","","","","","",""
"","","","","","","","","","","","html-button-response","225","2.0.0","440601","631ad5df2dfd6aff965bba6a","1","27","5281","","","","","","","","","<img src= ""rock_img/I_Pegmatite_09.jpg"" style=""width:8cm; height:4.03cm;""><p>What type of rock is this?</p>","5","class_response","1","test","11","Pegmatite","Pegmatite","09","true","6","6","",""
"","","","","","","","","","","","html-keyboard-response","226","2.0.0","441104","631ad5df2dfd6aff965bba6a","1","27","null","","","","","","","","","<p style='font-size: 30px;'><strong>Okay</strong></p>","null","neutral_feedback","1","test","11","","","","","","","",""
"","","","","","","","","","","","html-button-response","227","2.0.0","444829","631ad5df2dfd6aff965bba6a","1","27","3721","","","","","","","","","<img src= ""rock_img/I_Basalt_12.jpg"" style=""width:8cm; height:6.010000000000001cm;""><p>What type of rock is this?</p>","3","class_response","1","test","12","Gabbro","Basalt","12","false","4","2","",""
"","","","","","","","","","","","html-keyboard-response","228","2.0.0","445331","631ad5df2dfd6aff965bba6a","1","27","null","","","","","","","","","<p style='font-size: 30px;'><strong>Okay</strong></p>","null","neutral_feedback","1","test","12","","","","","","","",""
"","","","","","","","","","","","html-button-response","229","2.0.0","447060","631ad5df2dfd6aff965bba6a","1","27","1725","","","","","","","","","<img src= ""rock_img/I_Basalt_06.jpg"" style=""width:8cm; height:7.06cm;""><p>What type of rock is this?</p>","1","class_response","1","test","13","Basalt","Basalt","06","true","2","2","",""
"","","","","","","","","","","","html-keyboard-response","230","2.0.0","447563","631ad5df2dfd6aff965bba6a","1","27","null","","","","","","","","","<p style='font-size: 30px;'><strong>Okay</strong></p>","null","neutral_feedback","1","test","13","","","","","","","",""
"","","","","","","","","","","","html-button-response","231","2.0.0","450921","631ad5df2dfd6aff965bba6a","1","27","3353","","","","","","","","","<img src= ""rock_img/I_Gabbro_08.jpg"" style=""width:8cm; height:5.15cm;""><p>What type of rock is this?</p>","6","class_response","1","test","14","Peridotite","Gabbro","08","false","7","4","",""
"","","","","","","","","","","","html-keyboard-response","232","2.0.0","451424","631ad5df2dfd6aff965bba6a","1","27","null","","","","","","","","","<p style='font-size: 30px;'><strong>Okay</strong></p>","null","neutral_feedback","1","test","14","","","","","","","",""
"","","","","","","","","","","","html-button-response","233","2.0.0","453292","631ad5df2dfd6aff965bba6a","1","27","1865","","","","","","","","","<img src= ""rock_img/I_Gabbro_15.jpg"" style=""width:8cm; height:6.29cm;""><p>What type of rock is this?</p>","2","class_response","1","test","15","Diorite","Gabbro","15","false","3","4","",""
"","","","","","","","","","","","html-keyboard-response","234","2.0.0","453795","631ad5df2dfd6aff965bba6a","1","27","null","","","","","","","","","<p style='font-size: 30px;'><strong>Okay</strong></p>","null","neutral_feedback","1","test","15","","","","","","","",""
"","","","","","","","","","","","html-button-response","235","2.0.0","454799","631ad5df2dfd6aff965bba6a","1","27","999","","","","","","","","","<img src= ""rock_img/I_Pumice_03.jpg"" style=""width:8cm; height:6.64cm;""><p>What type of rock is this?</p>","7","class_response","1","test","16","Pumice","Pumice","03","true","8","8","",""
"","","","","","","","","","","","html-keyboard-response","236","2.0.0","455302","631ad5df2dfd6aff965bba6a","1","27","null","","","","","","","","","<p style='font-size: 30px;'><strong>Okay</strong></p>","null","neutral_feedback","1","test","16","","","","","","","",""
"","","","","","","","","","","","html-button-response","237","2.0.0","456531","631ad5df2dfd6aff965bba6a","1","27","1224","","","","","","","","","<img src= ""rock_img/I_Peridotite_05.jpg"" style=""width:8cm; height:7.1499999999999995cm;""><p>What type of rock is this?</p>","6","class_response","1","test","17","Peridotite","Peridotite","05","true","7","7","",""
"","","","","","","","","","","","html-keyboard-response","238","2.0.0","457033","631ad5df2dfd6aff965bba6a","1","27","null","","","","","","","","","<p style='font-size: 30px;'><strong>Okay</strong></p>","null","neutral_feedback","1","test","17","","","","","","","",""
"","","","","","","","","","","","html-button-response","239","2.0.0","458239","631ad5df2dfd6aff965bba6a","1","27","1201","","","","","","","","","<img src= ""rock_img/I_Obsidian_05.jpg"" style=""width:8cm; height:6.33cm;""><p>What type of rock is this?</p>","4","class_response","1","test","18","Obsidian","Obsidian","05","true","5","5","",""
"","","","","","","","","","","","html-keyboard-response","240","2.0.0","458741","631ad5df2dfd6aff965bba6a","1","27","null","","","","","","","","","<p style='font-size: 30px;'><strong>Okay</strong></p>","null","neutral_feedback","1","test","18","","","","","","","",""
"","","","","","","","","","","","html-button-response","241","2.0.0","465805","631ad5df2dfd6aff965bba6a","1","27","7059","","","","","","","","","<img src= ""rock_img/I_Gabbro_13.jpg"" style=""width:8cm; height:5.08cm;""><p>What type of rock is this?</p>","2","class_response","1","test","19","Diorite","Gabbro","13","false","3","4","",""
"","","","","","","","","","","","html-keyboard-response","242","2.0.0","466307","631ad5df2dfd6aff965bba6a","1","27","null","","","","","","","","","<p style='font-size: 30px;'><strong>Okay</strong></p>","null","neutral_feedback","1","test","19","","","","","","","",""
"","","","","","","","","","","","html-button-response","243","2.0.0","467848","631ad5df2dfd6aff965bba6a","1","27","1537","","","","","","","","","<img src= ""rock_img/I_Diorite_14.jpg"" style=""width:8cm; height:5.71cm;""><p>What type of rock is this?</p>","2","class_response","1","test","20","Diorite","Diorite","14","true","3","3","",""
"","","","","","","","","","","","html-keyboard-response","244","2.0.0","468351","631ad5df2dfd6aff965bba6a","1","27","null","","","","","","","","","<p style='font-size: 30px;'><strong>Okay</strong></p>","null","neutral_feedback","1","test","20","","","","","","","",""
"","","","","","","","","","","","html-button-response","245","2.0.0","470360","631ad5df2dfd6aff965bba6a","1","27","2005","","","","","","","","","<img src= ""rock_img/I_Peridotite_15.jpg"" style=""width:8cm; height:6cm;""><p>What type of rock is this?</p>","6","class_response","1","test","21","Peridotite","Peridotite","15","true","7","7","",""
"","","","","","","","","","","","html-keyboard-response","246","2.0.0","470863","631ad5df2dfd6aff965bba6a","1","27","null","","","","","","","","","<p style='font-size: 30px;'><strong>Okay</strong></p>","null","neutral_feedback","1","test","21","","","","","","","",""
"","","","","","","","","","","","html-button-response","247","2.0.0","474448","631ad5df2dfd6aff965bba6a","1","27","3581","","","","","","","","","<img src= ""rock_img/I_Basalt_09.jpg"" style=""width:8cm; height:6.2cm;""><p>What type of rock is this?</p>","1","class_response","1","test","22","Basalt","Basalt","09","true","2","2","",""
"","","","","","","","","","","","html-keyboard-response","248","2.0.0","474950","631ad5df2dfd6aff965bba6a","1","27","null","","","","","","","","","<p style='font-size: 30px;'><strong>Okay</strong></p>","null","neutral_feedback","1","test","22","","","","","","","",""
"","","","","","","","","","","","html-button-response","249","2.0.0","476079","631ad5df2dfd6aff965bba6a","1","27","1124","","","","","","","","","<img src= ""rock_img/I_Obsidian_02.jpg"" style=""width:8cm; height:7.51cm;""><p>What type of rock is this?</p>","4","class_response","1","test","23","Obsidian","Obsidian","02","true","5","5","",""
"","","","","","","","","","","","html-keyboard-response","250","2.0.0","476581","631ad5df2dfd6aff965bba6a","1","27","null","","","","","","","","","<p style='font-size: 30px;'><strong>Okay</strong></p>","null","neutral_feedback","1","test","23","","","","","","","",""
"","","","","","","","","","","","html-button-response","251","2.0.0","477732","631ad5df2dfd6aff965bba6a","1","27","1146","","","","","","","","","<img src= ""rock_img/I_Diorite_15.jpg"" style=""width:8cm; height:5.54cm;""><p>What type of rock is this?</p>","2","class_response","1","test","24","Diorite","Diorite","15","true","3","3","",""
"","","","","","","","","","","","html-keyboard-response","252","2.0.0","478235","631ad5df2dfd6aff965bba6a","1","27","null","","","","","","","","","<p style='font-size: 30px;'><strong>Okay</strong></p>","null","neutral_feedback","1","test","24","","","","","","","",""
"","","","","","","","","","","","html-button-response","253","2.0.0","479878","631ad5df2dfd6aff965bba6a","1","27","1639","","","","","","","","","<img src= ""rock_img/I_Pegmatite_11.jpg"" style=""width:8cm; height:8.14cm;""><p>What type of rock is this?</p>","5","class_response","1","test","25","Pegmatite","Pegmatite","11","true","6","6","",""
"","","","","","","","","","","","html-keyboard-response","254","2.0.0","480381","631ad5df2dfd6aff965bba6a","1","27","null","","","","","","","","","<p style='font-size: 30px;'><strong>Okay</strong></p>","null","neutral_feedback","1","test","25","","","","","","","",""
"","","","","","","","","","","","html-button-response","255","2.0.0","483864","631ad5df2dfd6aff965bba6a","1","27","3478","","","","","","","","","<img src= ""rock_img/I_Gabbro_11.jpg"" style=""width:8cm; height:6.2cm;""><p>What type of rock is this?</p>","3","class_response","1","test","26","Gabbro","Gabbro","11","true","4","4","",""
"","","","","","","","","","","","html-keyboard-response","256","2.0.0","484367","631ad5df2dfd6aff965bba6a","1","27","null","","","","","","","","","<p style='font-size: 30px;'><strong>Okay</strong></p>","null","neutral_feedback","1","test","26","","","","","","","",""
"","","","","","","","","","","","html-button-response","257","2.0.0","486758","631ad5df2dfd6aff965bba6a","1","27","2386","","","","","","","","","<img src= ""rock_img/I_Andesite_10.jpg"" style=""width:8cm; height:4.16cm;""><p>What type of rock is this?</p>","0","class_response","1","test","27","Andesite","Andesite","10","true","1","1","",""
"","","","","","","","","","","","html-keyboard-response","258","2.0.0","487261","631ad5df2dfd6aff965bba6a","1","27","null","","","","","","","","","<p style='font-size: 30px;'><strong>Okay</strong></p>","null","neutral_feedback","1","test","27","","","","","","","",""
"","","","","","","","","","","","html-button-response","259","2.0.0","488445","631ad5df2dfd6aff965bba6a","1","27","1179","","","","","","","","","<img src= ""rock_img/I_Obsidian_12.jpg"" style=""width:8cm; height:6.53cm;""><p>What type of rock is this?</p>","4","class_response","1","test","28","Obsidian","Obsidian","12","true","5","5","",""
"","","","","","","","","","","","html-keyboard-response","260","2.0.0","488948","631ad5df2dfd6aff965bba6a","1","27","null","","","","","","","","","<p style='font-size: 30px;'><strong>Okay</strong></p>","null","neutral_feedback","1","test","28","","","","","","","",""
"","","","","","","","","","","","html-button-response","261","2.0.0","490128","631ad5df2dfd6aff965bba6a","1","27","1176","","","","","","","","","<img src= ""rock_img/I_Pumice_08.jpg"" style=""width:8cm; height:6.67cm;""><p>What type of rock is this?</p>","7","class_response","1","test","29","Pumice","Pumice","08","true","8","8","",""
"","","","","","","","","","","","html-keyboard-response","262","2.0.0","490631","631ad5df2dfd6aff965bba6a","1","27","null","","","","","","","","","<p style='font-size: 30px;'><strong>Okay</strong></p>","null","neutral_feedback","1","test","29","","","","","","","",""
"","","","","","","","","","","","html-button-response","263","2.0.0","492024","631ad5df2dfd6aff965bba6a","1","27","1389","","","","","","","","","<img src= ""rock_img/I_Pegmatite_07.jpg"" style=""width:8cm; height:6.7cm;""><p>What type of rock is this?</p>","5","class_response","1","test","30","Pegmatite","Pegmatite","07","true","6","6","",""
"","","","","","","","","","","","html-keyboard-response","264","2.0.0","492527","631ad5df2dfd6aff965bba6a","1","27","null","","","","","","","","","<p style='font-size: 30px;'><strong>Okay</strong></p>","null","neutral_feedback","1","test","30","","","","","","","",""
"","","","","","","","","","","","html-button-response","265","2.0.0","493904","631ad5df2dfd6aff965bba6a","1","27","1372","","","","","","","","","<img src= ""rock_img/I_Pumice_15.jpg"" style=""width:8cm; height:7.86cm;""><p>What type of rock is this?</p>","7","class_response","1","test","31","Pumice","Pumice","15","true","8","8","",""
"","","","","","","","","","","","html-keyboard-response","266","2.0.0","494407","631ad5df2dfd6aff965bba6a","1","27","null","","","","","","","","","<p style='font-size: 30px;'><strong>Okay</strong></p>","null","neutral_feedback","1","test","31","","","","","","","",""
"","","","","","","","","","","","html-button-response","267","2.0.0","496104","631ad5df2dfd6aff965bba6a","1","27","1693","","","","","","","","","<img src= ""rock_img/I_Diorite_10.jpg"" style=""width:8cm; height:5.949999999999999cm;""><p>What type of rock is this?</p>","2","class_response","1","test","32","Diorite","Diorite","10","true","3","3","",""
"","","","","","","","","","","","html-keyboard-response","268","2.0.0","496607","631ad5df2dfd6aff965bba6a","1","27","null","","","","","","","","","<p style='font-size: 30px;'><strong>Okay</strong></p>","null","neutral_feedback","1","test","32","","","","","","","",""
"","","","","","","","","","","","html-button-response","269","2.0.0","497961","631ad5df2dfd6aff965bba6a","1","27","1349","","","","","","","","","<img src= ""rock_img/I_Obsidian_14.jpg"" style=""width:8cm; height:7.64cm;""><p>What type of rock is this?</p>","4","class_response","1","test","33","Obsidian","Obsidian","14","true","5","5","",""
"","","","","","","","","","","","html-keyboard-response","270","2.0.0","498463","631ad5df2dfd6aff965bba6a","1","27","null","","","","","","","","","<p style='font-size: 30px;'><strong>Okay</strong></p>","null","neutral_feedback","1","test","33","","","","","","","",""
"","","","","","","","","","","","html-button-response","271","2.0.0","499700","631ad5df2dfd6aff965bba6a","1","27","1233","","","","","","","","","<img src= ""rock_img/I_Pumice_16.jpg"" style=""width:8cm; height:6.79cm;""><p>What type of rock is this?</p>","7","class_response","1","test","34","Pumice","Pumice","16","true","8","8","",""
"","","","","","","","","","","","html-keyboard-response","272","2.0.0","500203","631ad5df2dfd6aff965bba6a","1","27","null","","","","","","","","","<p style='font-size: 30px;'><strong>Okay</strong></p>","null","neutral_feedback","1","test","34","","","","","","","",""
"","","","","","","","","","","","html-button-response","273","2.0.0","503756","631ad5df2dfd6aff965bba6a","1","27","3548","","","","","","","","","<img src= ""rock_img/I_Peridotite_08.jpg"" style=""width:8cm; height:6.7cm;""><p>What type of rock is this?</p>","6","class_response","1","test","35","Peridotite","Peridotite","08","true","7","7","",""
"","","","","","","","","","","","html-keyboard-response","274","2.0.0","504259","631ad5df2dfd6aff965bba6a","1","27","null","","","","","","","","","<p style='font-size: 30px;'><strong>Okay</strong></p>","null","neutral_feedback","1","test","35","","","","","","","",""
"","","","","","","","","","","","html-button-response","275","2.0.0","505536","631ad5df2dfd6aff965bba6a","1","27","1273","","","","","","","","","<img src= ""rock_img/I_Obsidian_16.jpg"" style=""width:8cm; height:9.3cm;""><p>What type of rock is this?</p>","4","class_response","1","test","36","Obsidian","Obsidian","16","true","5","5","",""
"","","","","","","","","","","","html-keyboard-response","276","2.0.0","506039","631ad5df2dfd6aff965bba6a","1","27","null","","","","","","","","","<p style='font-size: 30px;'><strong>Okay</strong></p>","null","neutral_feedback","1","test","36","","","","","","","",""
"","","","","","","","","","","","html-button-response","277","2.0.0","509584","631ad5df2dfd6aff965bba6a","1","27","3541","","","","","","","","","<img src= ""rock_img/I_Andesite_16.jpg"" style=""width:8cm; height:6.010000000000001cm;""><p>What type of rock is this?</p>","0","class_response","1","test","37","Andesite","Andesite","16","true","1","1","",""
"","","","","","","","","","","","html-keyboard-response","278","2.0.0","510086","631ad5df2dfd6aff965bba6a","1","27","null","","","","","","","","","<p style='font-size: 30px;'><strong>Okay</strong></p>","null","neutral_feedback","1","test","37","","","","","","","",""
"","","","","","","","","","","","html-button-response","279","2.0.0","512230","631ad5df2dfd6aff965bba6a","1","27","2139","","","","","","","","","<img src= ""rock_img/I_Peridotite_12.jpg"" style=""width:8cm; height:4.54cm;""><p>What type of rock is this?</p>","0","class_response","1","test","38","Andesite","Peridotite","12","false","1","7","",""
"","","","","","","","","","","","html-keyboard-response","280","2.0.0","512732","631ad5df2dfd6aff965bba6a","1","27","null","","","","","","","","","<p style='font-size: 30px;'><strong>Okay</strong></p>","null","neutral_feedback","1","test","38","","","","","","","",""
"","","","","","","","","","","","html-button-response","281","2.0.0","515630","631ad5df2dfd6aff965bba6a","1","27","2894","","","","","","","","","<img src= ""rock_img/I_Gabbro_03.jpg"" style=""width:8cm; height:8.52cm;""><p>What type of rock is this?</p>","2","class_response","1","test","39","Diorite","Gabbro","03","false","3","4","",""
"","","","","","","","","","","","html-keyboard-response","282","2.0.0","516132","631ad5df2dfd6aff965bba6a","1","27","null","","","","","","","","","<p style='font-size: 30px;'><strong>Okay</strong></p>","null","neutral_feedback","1","test","39","","","","","","","",""
"","","","","","","","","","","","html-button-response","283","2.0.0","518439","631ad5df2dfd6aff965bba6a","1","27","2302","","","","","","","","","<img src= ""rock_img/I_Gabbro_10.jpg"" style=""width:8cm; height:5.680000000000001cm;""><p>What type of rock is this?</p>","3","class_response","1","test","40","Gabbro","Gabbro","10","true","4","4","",""
"","","","","","","","","","","","html-keyboard-response","284","2.0.0","518942","631ad5df2dfd6aff965bba6a","1","27","null","","","","","","","","","<p style='font-size: 30px;'><strong>Okay</strong></p>","null","neutral_feedback","1","test","40","","","","","","","",""
"","","","","","","","","","","","html-button-response","285","2.0.0","521350","631ad5df2dfd6aff965bba6a","1","27","2403","","","","","","","","","<img src= ""rock_img/I_Peridotite_06.jpg"" style=""width:8cm; height:7.53cm;""><p>What type of rock is this?</p>","6","class_response","1","test","41","Peridotite","Peridotite","06","true","7","7","",""
"","","","","","","","","","","","html-keyboard-response","286","2.0.0","521853","631ad5df2dfd6aff965bba6a","1","27","null","","","","","","","","","<p style='font-size: 30px;'><strong>Okay</strong></p>","null","neutral_feedback","1","test","41","","","","","","","",""
"","","","","","","","","","","","html-button-response","287","2.0.0","523315","631ad5df2dfd6aff965bba6a","1","27","1457","","","","","","","","","<img src= ""rock_img/I_Basalt_02.jpg"" style=""width:8cm; height:6.45cm;""><p>What type of rock is this?</p>","1","class_response","1","test","42","Basalt","Basalt","02","true","2","2","",""
"","","","","","","","","","","","html-keyboard-response","288","2.0.0","523818","631ad5df2dfd6aff965bba6a","1","27","null","","","","","","","","","<p style='font-size: 30px;'><strong>Okay</strong></p>","null","neutral_feedback","1","test","42","","","","","","","",""
"","","","","","","","","","","","html-button-response","289","2.0.0","527006","631ad5df2dfd6aff965bba6a","1","27","3183","","","","","","","","","<img src= ""rock_img/I_Andesite_02.jpg"" style=""width:8cm; height:8.5cm;""><p>What type of rock is this?</p>","0","class_response","1","test","43","Andesite","Andesite","02","true","1","1","",""
"","","","","","","","","","","","html-keyboard-response","290","2.0.0","527508","631ad5df2dfd6aff965bba6a","1","27","null","","","","","","","","","<p style='font-size: 30px;'><strong>Okay</strong></p>","null","neutral_feedback","1","test","43","","","","","","","",""
"","","","","","","","","","","","html-button-response","291","2.0.0","528614","631ad5df2dfd6aff965bba6a","1","27","1101","","","","","","","","","<img src= ""rock_img/I_Diorite_02.jpg"" style=""width:8cm; height:6.27cm;""><p>What type of rock is this?</p>","2","class_response","1","test","44","Diorite","Diorite","02","true","3","3","",""
"","","","","","","","","","","","html-keyboard-response","292","2.0.0","529116","631ad5df2dfd6aff965bba6a","1","27","null","","","","","","","","","<p style='font-size: 30px;'><strong>Okay</strong></p>","null","neutral_feedback","1","test","44","","","","","","","",""
"","","","","","","","","","","","html-button-response","293","2.0.0","529892","631ad5df2dfd6aff965bba6a","1","27","771","","","","","","","","","<img src= ""rock_img/I_Diorite_11.jpg"" style=""width:8cm; height:7.11cm;""><p>What type of rock is this?</p>","2","class_response","1","test","45","Diorite","Diorite","11","true","3","3","",""
"","","","","","","","","","","","html-keyboard-response","294","2.0.0","530394","631ad5df2dfd6aff965bba6a","1","27","null","","","","","","","","","<p style='font-size: 30px;'><strong>Okay</strong></p>","null","neutral_feedback","1","test","45","","","","","","","",""
"","","","","","","","","","","","html-button-response","295","2.0.0","532054","631ad5df2dfd6aff965bba6a","1","27","1656","","","","","","","","","<img src= ""rock_img/I_Andesite_06.jpg"" style=""width:8cm; height:6.840000000000001cm;""><p>What type of rock is this?</p>","0","class_response","1","test","46","Andesite","Andesite","06","true","1","1","",""
"","","","","","","","","","","","html-keyboard-response","296","2.0.0","532556","631ad5df2dfd6aff965bba6a","1","27","null","","","","","","","","","<p style='font-size: 30px;'><strong>Okay</strong></p>","null","neutral_feedback","1","test","46","","","","","","","",""
"","","","","","","","","","","","html-button-response","297","2.0.0","534036","631ad5df2dfd6aff965bba6a","1","27","1475","","","","","","","","","<img src= ""rock_img/I_Peridotite_02.jpg"" style=""width:8cm; height:5.859999999999999cm;""><p>What type of rock is this?</p>","6","class_response","1","test","47","Peridotite","Peridotite","02","true","7","7","",""
"","","","","","","","","","","","html-keyboard-response","298","2.0.0","534538","631ad5df2dfd6aff965bba6a","1","27","null","","","","","","","","","<p style='font-size: 30px;'><strong>Okay</strong></p>","null","neutral_feedback","1","test","47","","","","","","","",""
"","","","","","","","","","","","html-button-response","299","2.0.0","535860","631ad5df2dfd6aff965bba6a","1","27","1317","","","","","","","","","<img src= ""rock_img/I_Pegmatite_05.jpg"" style=""width:8cm; height:7.300000000000001cm;""><p>What type of rock is this?</p>","5","class_response","1","test","48","Pegmatite","Pegmatite","05","true","6","6","",""
"","","","","","","","","","","","html-keyboard-response","300","2.0.0","536362","631ad5df2dfd6aff965bba6a","1","27","null","","","","","","","","","<p style='font-size: 30px;'><strong>Okay</strong></p>","null","neutral_feedback","1","test","48","","","","","","","",""
"","","","","","","","","","","","html-button-response","301","2.0.0","561855","631ad5df2dfd6aff965bba6a","1","27","","","","","","","","","","","","cycle_feedback","","","","","","","","","","9016.40000000596","16469.09999999404"
"","","","","","","","","","","","html-button-response","303","2.0.0","568191","631ad5df2dfd6aff965bba6a","1","27","6331","","","","","","","","","","0","start_train","","","","","","","","","","",""
"","","","","","","","","","","","html-button-response","304","2.0.0","577545","631ad5df2dfd6aff965bba6a","1","27","9349","","","","","","","","","<img src= ""rock_img/I_Peridotite_16.jpg"" style=""width:8cm; height:6.989999999999999cm;""><p>What type of rock is this?</p>","6","class_response","2","train","1","Peridotite","Peridotite","16","true","7","7","",""
