"width","height","webaudio","browser","browser_version","mobile","os","fullscreen","vsync_rate","webcam","microphone","trial_type","trial_index","plugin_version","time_elapsed","subjID","condition","stimID","rt","url","success","value","timeout","failed_images","failed_audio","failed_video","view_history","stimulus","response","trialType","cycle","phase","trial","resp","cat","token","corr","resp_num","cat_num","time_fb1","time_fb2"
"1920","919","true","chrome","130.0.0","false","Windows 10","true","60.07","false","false","browser-check","0","2.0.0","1018","665a86de9e0feaeeb7f061ba","1","3","","","","","","","","","","","","","","","","","","","","","","",""
"","","","","","","","","","","","external-html","1","2.0.0","19358","665a86de9e0feaeeb7f061ba","1","3","18282","consent_form.html","","","","","","","","","","","","","","","","","","","","",""
"","","","","","","","","","","","fullscreen","2","2.0.0","22613","665a86de9e0feaeeb7f061ba","1","3","2253","","true","","","","","","","","","","","","","","","","","","","",""
"","","","","","","","","","","","call-function","3","2.0.0","22616","665a86de9e0feaeeb7f061ba","1","3","","","","{}","","","","","","","","","","","","","","","","","","",""
"","","","","","","","","","","","preload","4","2.0.0","24644","665a86de9e0feaeeb7f061ba","1","3","","","true","","false","[]","[]","[]","","","","","","","","","","","","","","",""
"","","","","","","","","","","","instructions","5","2.0.0","120510","665a86de9e0feaeeb7f061ba","1","3","95864","","","","","","","","[{""page_index"":0,""viewing_time"":6374},{""page_index"":1,""viewing_time"":79926},{""page_index"":2,""viewing_time"":9564}]","","","","","","","","","","","","","",""
"","","","","","","","","","","","html-button-response","6","2.0.0","122542","665a86de9e0feaeeb7f061ba","1","3","2031","","","","","","","","","","0","start_test","","","","","","","","","","",""
"","","","","","","","","","","","html-button-response","7","2.0.0","124242","665a86de9e0feaeeb7f061ba","1","3","1699","","","","","","","","","<img src= ""rock_img/I_Obsidian_10.jpg"" style=""width:8cm; height:6.260000000000001cm;""><p>What type of rock is this?</p>","4","class_response","0","test","1","Obsidian","Obsidian","10","true","5","5","",""
"","","","","","","","","","","","html-keyboard-response","8","2.0.0","124759","665a86de9e0feaeeb7f061ba","1","3","null","","","","","","","","","<p style='font-size: 30px;'><strong>Okay</strong></p>","null","neutral_feedback","0","test","1","","","","","","","",""
"","","","","","","","","","","","html-button-response","9","2.0.0","128884","665a86de9e0feaeeb7f061ba","1","3","4123","","","","","","","","","<img src= ""rock_img/I_Gabbro_12.jpg"" style=""width:8cm; height:7.800000000000001cm;""><p>What type of rock is this?</p>","0","class_response","0","test","2","Andesite","Gabbro","12","false","1","4","",""
"","","","","","","","","","","","html-keyboard-response","10","2.0.0","129396","665a86de9e0feaeeb7f061ba","1","3","null","","","","","","","","","<p style='font-size: 30px;'><strong>Okay</strong></p>","null","neutral_feedback","0","test","2","","","","","","","",""
"","","","","","","","","","","","html-button-response","11","2.0.0","131960","665a86de9e0feaeeb7f061ba","1","3","2561","","","","","","","","","<img src= ""rock_img/I_Pumice_08.jpg"" style=""width:8cm; height:6.67cm;""><p>What type of rock is this?</p>","7","class_response","0","test","3","Pumice","Pumice","08","true","8","8","",""
"","","","","","","","","","","","html-keyboard-response","12","2.0.0","132467","665a86de9e0feaeeb7f061ba","1","3","null","","","","","","","","","<p style='font-size: 30px;'><strong>Okay</strong></p>","null","neutral_feedback","0","test","3","","","","","","","",""
"","","","","","","","","","","","html-button-response","13","2.0.0","138354","665a86de9e0feaeeb7f061ba","1","3","5885","","","","","","","","","<img src= ""rock_img/I_Andesite_06.jpg"" style=""width:8cm; height:6.840000000000001cm;""><p>What type of rock is this?</p>","3","class_response","0","test","4","Gabbro","Andesite","06","false","4","1","",""
"","","","","","","","","","","","html-keyboard-response","14","2.0.0","138857","665a86de9e0feaeeb7f061ba","1","3","null","","","","","","","","","<p style='font-size: 30px;'><strong>Okay</strong></p>","null","neutral_feedback","0","test","4","","","","","","","",""
"","","","","","","","","","","","html-button-response","15","2.0.0","140000","665a86de9e0feaeeb7f061ba","1","3","1141","","","","","","","","","<img src= ""rock_img/I_Pumice_04.jpg"" style=""width:8cm; height:6.819999999999999cm;""><p>What type of rock is this?</p>","7","class_response","0","test","5","Pumice","Pumice","04","true","8","8","",""
"","","","","","","","","","","","html-keyboard-response","16","2.0.0","140509","665a86de9e0feaeeb7f061ba","1","3","null","","","","","","","","","<p style='font-size: 30px;'><strong>Okay</strong></p>","null","neutral_feedback","0","test","5","","","","","","","",""
"","","","","","","","","","","","html-button-response","17","2.0.0","144156","665a86de9e0feaeeb7f061ba","1","3","3645","","","","","","","","","<img src= ""rock_img/I_Peridotite_10.jpg"" style=""width:8cm; height:5.390000000000001cm;""><p>What type of rock is this?</p>","6","class_response","0","test","6","Peridotite","Peridotite","10","true","7","7","",""
"","","","","","","","","","","","html-keyboard-response","18","2.0.0","144663","665a86de9e0feaeeb7f061ba","1","3","null","","","","","","","","","<p style='font-size: 30px;'><strong>Okay</strong></p>","null","neutral_feedback","0","test","6","","","","","","","",""
"","","","","","","","","","","","html-button-response","19","2.0.0","147578","665a86de9e0feaeeb7f061ba","1","3","2913","","","","","","","","","<img src= ""rock_img/I_Andesite_09.jpg"" style=""width:8cm; height:6cm;""><p>What type of rock is this?</p>","7","class_response","0","test","7","Pumice","Andesite","09","false","8","1","",""
"","","","","","","","","","","","html-keyboard-response","20","2.0.0","148080","665a86de9e0feaeeb7f061ba","1","3","null","","","","","","","","","<p style='font-size: 30px;'><strong>Okay</strong></p>","null","neutral_feedback","0","test","7","","","","","","","",""
"","","","","","","","","","","","html-button-response","21","2.0.0","150532","665a86de9e0feaeeb7f061ba","1","3","2451","","","","","","","","","<img src= ""rock_img/I_Basalt_08.jpg"" style=""width:8cm; height:10.44cm;""><p>What type of rock is this?</p>","1","class_response","0","test","8","Basalt","Basalt","08","true","2","2","",""
"","","","","","","","","","","","html-keyboard-response","22","2.0.0","151035","665a86de9e0feaeeb7f061ba","1","3","null","","","","","","","","","<p style='font-size: 30px;'><strong>Okay</strong></p>","null","neutral_feedback","0","test","8","","","","","","","",""
"","","","","","","","","","","","html-button-response","23","2.0.0","152814","665a86de9e0feaeeb7f061ba","1","3","1777","","","","","","","","","<img src= ""rock_img/I_Basalt_06.jpg"" style=""width:8cm; height:7.06cm;""><p>What type of rock is this?</p>","4","class_response","0","test","9","Obsidian","Basalt","06","false","5","2","",""
"","","","","","","","","","","","html-keyboard-response","24","2.0.0","153322","665a86de9e0feaeeb7f061ba","1","3","null","","","","","","","","","<p style='font-size: 30px;'><strong>Okay</strong></p>","null","neutral_feedback","0","test","9","","","","","","","",""
"","","","","","","","","","","","html-button-response","25","2.0.0","158722","665a86de9e0feaeeb7f061ba","1","3","5398","","","","","","","","","<img src= ""rock_img/I_Diorite_10.jpg"" style=""width:8cm; height:5.949999999999999cm;""><p>What type of rock is this?</p>","5","class_response","0","test","10","Pegmatite","Diorite","10","false","6","3","",""
"","","","","","","","","","","","html-keyboard-response","26","2.0.0","159227","665a86de9e0feaeeb7f061ba","1","3","null","","","","","","","","","<p style='font-size: 30px;'><strong>Okay</strong></p>","null","neutral_feedback","0","test","10","","","","","","","",""
"","","","","","","","","","","","html-button-response","27","2.0.0","162864","665a86de9e0feaeeb7f061ba","1","3","3635","","","","","","","","","<img src= ""rock_img/I_Diorite_13.jpg"" style=""width:8cm; height:6.29cm;""><p>What type of rock is this?</p>","3","class_response","0","test","11","Gabbro","Diorite","13","false","4","3","",""
"","","","","","","","","","","","html-keyboard-response","28","2.0.0","163381","665a86de9e0feaeeb7f061ba","1","3","null","","","","","","","","","<p style='font-size: 30px;'><strong>Okay</strong></p>","null","neutral_feedback","0","test","11","","","","","","","",""
"","","","","","","","","","","","html-button-response","29","2.0.0","164504","665a86de9e0feaeeb7f061ba","1","3","1122","","","","","","","","","<img src= ""rock_img/I_Obsidian_12.jpg"" style=""width:8cm; height:6.53cm;""><p>What type of rock is this?</p>","4","class_response","0","test","12","Obsidian","Obsidian","12","true","5","5","",""
"","","","","","","","","","","","html-keyboard-response","30","2.0.0","165016","665a86de9e0feaeeb7f061ba","1","3","null","","","","","","","","","<p style='font-size: 30px;'><strong>Okay</strong></p>","null","neutral_feedback","0","test","12","","","","","","","",""
"","","","","","","","","","","","html-button-response","31","2.0.0","167710","665a86de9e0feaeeb7f061ba","1","3","2692","","","","","","","","","<img src= ""rock_img/I_Basalt_11.jpg"" style=""width:8cm; height:5.359999999999999cm;""><p>What type of rock is this?</p>","6","class_response","0","test","13","Peridotite","Basalt","11","false","7","2","",""
"","","","","","","","","","","","html-keyboard-response","32","2.0.0","168211","665a86de9e0feaeeb7f061ba","1","3","null","","","","","","","","","<p style='font-size: 30px;'><strong>Okay</strong></p>","null","neutral_feedback","0","test","13","","","","","","","",""
"","","","","","","","","","","","html-button-response","33","2.0.0","176922","665a86de9e0feaeeb7f061ba","1","3","8709","","","","","","","","","<img src= ""rock_img/I_Diorite_07.jpg"" style=""width:8cm; height:5.239999999999999cm;""><p>What type of rock is this?</p>","3","class_response","0","test","14","Gabbro","Diorite","07","false","4","3","",""
"","","","","","","","","","","","html-keyboard-response","34","2.0.0","177433","665a86de9e0feaeeb7f061ba","1","3","null","","","","","","","","","<p style='font-size: 30px;'><strong>Okay</strong></p>","null","neutral_feedback","0","test","14","","","","","","","",""
"","","","","","","","","","","","html-button-response","35","2.0.0","184260","665a86de9e0feaeeb7f061ba","1","3","6826","","","","","","","","","<img src= ""rock_img/I_Pegmatite_13.jpg"" style=""width:8cm; height:4.95cm;""><p>What type of rock is this?</p>","5","class_response","0","test","15","Pegmatite","Pegmatite","13","true","6","6","",""
"","","","","","","","","","","","html-keyboard-response","36","2.0.0","184769","665a86de9e0feaeeb7f061ba","1","3","null","","","","","","","","","<p style='font-size: 30px;'><strong>Okay</strong></p>","null","neutral_feedback","0","test","15","","","","","","","",""
"","","","","","","","","","","","html-button-response","37","2.0.0","188316","665a86de9e0feaeeb7f061ba","1","3","3546","","","","","","","","","<img src= ""rock_img/I_Pegmatite_06.jpg"" style=""width:8cm; height:5.17cm;""><p>What type of rock is this?</p>","7","class_response","0","test","16","Pumice","Pegmatite","06","false","8","6","",""
"","","","","","","","","","","","html-keyboard-response","38","2.0.0","188822","665a86de9e0feaeeb7f061ba","1","3","null","","","","","","","","","<p style='font-size: 30px;'><strong>Okay</strong></p>","null","neutral_feedback","0","test","16","","","","","","","",""
"","","","","","","","","","","","html-button-response","39","2.0.0","197344","665a86de9e0feaeeb7f061ba","1","3","8521","","","","","","","","","<img src= ""rock_img/I_Pegmatite_12.jpg"" style=""width:8cm; height:5.7cm;""><p>What type of rock is this?</p>","2","class_response","0","test","17","Diorite","Pegmatite","12","false","3","6","",""
"","","","","","","","","","","","html-keyboard-response","40","2.0.0","197859","665a86de9e0feaeeb7f061ba","1","3","null","","","","","","","","","<p style='font-size: 30px;'><strong>Okay</strong></p>","null","neutral_feedback","0","test","17","","","","","","","",""
"","","","","","","","","","","","html-button-response","41","2.0.0","203390","665a86de9e0feaeeb7f061ba","1","3","5530","","","","","","","","","<img src= ""rock_img/I_Gabbro_13.jpg"" style=""width:8cm; height:5.08cm;""><p>What type of rock is this?</p>","3","class_response","0","test","18","Gabbro","Gabbro","13","true","4","4","",""
"","","","","","","","","","","","html-keyboard-response","42","2.0.0","203892","665a86de9e0feaeeb7f061ba","1","3","null","","","","","","","","","<p style='font-size: 30px;'><strong>Okay</strong></p>","null","neutral_feedback","0","test","18","","","","","","","",""
"","","","","","","","","","","","html-button-response","43","2.0.0","204884","665a86de9e0feaeeb7f061ba","1","3","991","","","","","","","","","<img src= ""rock_img/I_Pumice_16.jpg"" style=""width:8cm; height:6.79cm;""><p>What type of rock is this?</p>","7","class_response","0","test","19","Pumice","Pumice","16","true","8","8","",""
"","","","","","","","","","","","html-keyboard-response","44","2.0.0","205386","665a86de9e0feaeeb7f061ba","1","3","null","","","","","","","","","<p style='font-size: 30px;'><strong>Okay</strong></p>","null","neutral_feedback","0","test","19","","","","","","","",""
"","","","","","","","","","","","html-button-response","45","2.0.0","206836","665a86de9e0feaeeb7f061ba","1","3","1448","","","","","","","","","<img src= ""rock_img/I_Diorite_16.jpg"" style=""width:8cm; height:6.74cm;""><p>What type of rock is this?</p>","6","class_response","0","test","20","Peridotite","Diorite","16","false","7","3","",""
"","","","","","","","","","","","html-keyboard-response","46","2.0.0","207343","665a86de9e0feaeeb7f061ba","1","3","null","","","","","","","","","<p style='font-size: 30px;'><strong>Okay</strong></p>","null","neutral_feedback","0","test","20","","","","","","","",""
"","","","","","","","","","","","html-button-response","47","2.0.0","208302","665a86de9e0feaeeb7f061ba","1","3","957","","","","","","","","","<img src= ""rock_img/I_Pumice_05.jpg"" style=""width:8cm; height:7.25cm;""><p>What type of rock is this?</p>","7","class_response","0","test","21","Pumice","Pumice","05","true","8","8","",""
"","","","","","","","","","","","html-keyboard-response","48","2.0.0","208803","665a86de9e0feaeeb7f061ba","1","3","null","","","","","","","","","<p style='font-size: 30px;'><strong>Okay</strong></p>","null","neutral_feedback","0","test","21","","","","","","","",""
"","","","","","","","","","","","html-button-response","49","2.0.0","212582","665a86de9e0feaeeb7f061ba","1","3","3778","","","","","","","","","<img src= ""rock_img/I_Andesite_04.jpg"" style=""width:8cm; height:5.96cm;""><p>What type of rock is this?</p>","0","class_response","0","test","22","Andesite","Andesite","04","true","1","1","",""
"","","","","","","","","","","","html-keyboard-response","50","2.0.0","213097","665a86de9e0feaeeb7f061ba","1","3","null","","","","","","","","","<p style='font-size: 30px;'><strong>Okay</strong></p>","null","neutral_feedback","0","test","22","","","","","","","",""
"","","","","","","","","","","","html-button-response","51","2.0.0","216560","665a86de9e0feaeeb7f061ba","1","3","3463","","","","","","","","","<img src= ""rock_img/I_Gabbro_10.jpg"" style=""width:8cm; height:5.680000000000001cm;""><p>What type of rock is this?</p>","3","class_response","0","test","23","Gabbro","Gabbro","10","true","4","4","",""
"","","","","","","","","","","","html-keyboard-response","52","2.0.0","217068","665a86de9e0feaeeb7f061ba","1","3","null","","","","","","","","","<p style='font-size: 30px;'><strong>Okay</strong></p>","null","neutral_feedback","0","test","23","","","","","","","",""
"","","","","","","","","","","","html-button-response","53","2.0.0","220732","665a86de9e0feaeeb7f061ba","1","3","3663","","","","","","","","","<img src= ""rock_img/I_Gabbro_16.jpg"" style=""width:8cm; height:6.44cm;""><p>What type of rock is this?</p>","1","class_response","0","test","24","Basalt","Gabbro","16","false","2","4","",""
"","","","","","","","","","","","html-keyboard-response","54","2.0.0","221238","665a86de9e0feaeeb7f061ba","1","3","null","","","","","","","","","<p style='font-size: 30px;'><strong>Okay</strong></p>","null","neutral_feedback","0","test","24","","","","","","","",""
"","","","","","","","","","","","html-button-response","55","2.0.0","224096","665a86de9e0feaeeb7f061ba","1","3","2856","","","","","","","","","<img src= ""rock_img/I_Basalt_02.jpg"" style=""width:8cm; height:6.45cm;""><p>What type of rock is this?</p>","4","class_response","0","test","25","Obsidian","Basalt","02","false","5","2","",""
"","","","","","","","","","","","html-keyboard-response","56","2.0.0","224602","665a86de9e0feaeeb7f061ba","1","3","null","","","","","","","","","<p style='font-size: 30px;'><strong>Okay</strong></p>","null","neutral_feedback","0","test","25","","","","","","","",""
"","","","","","","","","","","","html-button-response","57","2.0.0","227142","665a86de9e0feaeeb7f061ba","1","3","2538","","","","","","","","","<img src= ""rock_img/I_Obsidian_07.jpg"" style=""width:8cm; height:4.76cm;""><p>What type of rock is this?</p>","4","class_response","0","test","26","Obsidian","Obsidian","07","true","5","5","",""
"","","","","","","","","","","","html-keyboard-response","58","2.0.0","227644","665a86de9e0feaeeb7f061ba","1","3","null","","","","","","","","","<p style='font-size: 30px;'><strong>Okay</strong></p>","null","neutral_feedback","0","test","26","","","","","","","",""
"","","","","","","","","","","","html-button-response","59","2.0.0","230243","665a86de9e0feaeeb7f061ba","1","3","2597","","","","","","","","","<img src= ""rock_img/I_Pegmatite_10.jpg"" style=""width:8cm; height:4.16cm;""><p>What type of rock is this?</p>","6","class_response","0","test","27","Peridotite","Pegmatite","10","false","7","6","",""
"","","","","","","","","","","","html-keyboard-response","60","2.0.0","230749","665a86de9e0feaeeb7f061ba","1","3","null","","","","","","","","","<p style='font-size: 30px;'><strong>Okay</strong></p>","null","neutral_feedback","0","test","27","","","","","","","",""
"","","","","","","","","","","","html-button-response","61","2.0.0","232398","665a86de9e0feaeeb7f061ba","1","3","1648","","","","","","","","","<img src= ""rock_img/I_Peridotite_12.jpg"" style=""width:8cm; height:4.54cm;""><p>What type of rock is this?</p>","3","class_response","0","test","28","Gabbro","Peridotite","12","false","4","7","",""
"","","","","","","","","","","","html-keyboard-response","62","2.0.0","232908","665a86de9e0feaeeb7f061ba","1","3","null","","","","","","","","","<p style='font-size: 30px;'><strong>Okay</strong></p>","null","neutral_feedback","0","test","28","","","","","","","",""
"","","","","","","","","","","","html-button-response","63","2.0.0","234332","665a86de9e0feaeeb7f061ba","1","3","1422","","","","","","","","","<img src= ""rock_img/I_Diorite_11.jpg"" style=""width:8cm; height:7.11cm;""><p>What type of rock is this?</p>","3","class_response","0","test","29","Gabbro","Diorite","11","false","4","3","",""
"","","","","","","","","","","","html-keyboard-response","64","2.0.0","234846","665a86de9e0feaeeb7f061ba","1","3","null","","","","","","","","","<p style='font-size: 30px;'><strong>Okay</strong></p>","null","neutral_feedback","0","test","29","","","","","","","",""
"","","","","","","","","","","","html-button-response","65","2.0.0","239964","665a86de9e0feaeeb7f061ba","1","3","5116","","","","","","","","","<img src= ""rock_img/I_Obsidian_05.jpg"" style=""width:8cm; height:6.33cm;""><p>What type of rock is this?</p>","4","class_response","0","test","30","Obsidian","Obsidian","05","true","5","5","",""
"","","","","","","","","","","","html-keyboard-response","66","2.0.0","240466","665a86de9e0feaeeb7f061ba","1","3","null","","","","","","","","","<p style='font-size: 30px;'><strong>Okay</strong></p>","null","neutral_feedback","0","test","30","","","","","","","",""
"","","","","","","","","","","","html-button-response","67","2.0.0","241342","665a86de9e0feaeeb7f061ba","1","3","874","","","","","","","","","<img src= ""rock_img/I_Obsidian_04.jpg"" style=""width:8cm; height:6.930000000000001cm;""><p>What type of rock is this?</p>","4","class_response","0","test","31","Obsidian","Obsidian","04","true","5","5","",""
"","","","","","","","","","","","html-keyboard-response","68","2.0.0","241844","665a86de9e0feaeeb7f061ba","1","3","null","","","","","","","","","<p style='font-size: 30px;'><strong>Okay</strong></p>","null","neutral_feedback","0","test","31","","","","","","","",""
"","","","","","","","","","","","html-button-response","69","2.0.0","244088","665a86de9e0feaeeb7f061ba","1","3","2243","","","","","","","","","<img src= ""rock_img/I_Pumice_13.jpg"" style=""width:8cm; height:8.200000000000001cm;""><p>What type of rock is this?</p>","7","class_response","0","test","32","Pumice","Pumice","13","true","8","8","",""
"","","","","","","","","","","","html-keyboard-response","70","2.0.0","244591","665a86de9e0feaeeb7f061ba","1","3","null","","","","","","","","","<p style='font-size: 30px;'><strong>Okay</strong></p>","null","neutral_feedback","0","test","32","","","","","","","",""
"","","","","","","","","","","","html-button-response","71","2.0.0","245982","665a86de9e0feaeeb7f061ba","1","3","1390","","","","","","","","","<img src= ""rock_img/I_Andesite_05.jpg"" style=""width:8cm; height:4.12cm;""><p>What type of rock is this?</p>","0","class_response","0","test","33","Andesite","Andesite","05","true","1","1","",""
"","","","","","","","","","","","html-keyboard-response","72","2.0.0","246488","665a86de9e0feaeeb7f061ba","1","3","null","","","","","","","","","<p style='font-size: 30px;'><strong>Okay</strong></p>","null","neutral_feedback","0","test","33","","","","","","","",""
"","","","","","","","","","","","html-button-response","73","2.0.0","250220","665a86de9e0feaeeb7f061ba","1","3","3731","","","","","","","","","<img src= ""rock_img/I_Basalt_12.jpg"" style=""width:8cm; height:6.010000000000001cm;""><p>What type of rock is this?</p>","7","class_response","0","test","34","Pumice","Basalt","12","false","8","2","",""
"","","","","","","","","","","","html-keyboard-response","74","2.0.0","250722","665a86de9e0feaeeb7f061ba","1","3","null","","","","","","","","","<p style='font-size: 30px;'><strong>Okay</strong></p>","null","neutral_feedback","0","test","34","","","","","","","",""
"","","","","","","","","","","","html-button-response","75","2.0.0","253320","665a86de9e0feaeeb7f061ba","1","3","2597","","","","","","","","","<img src= ""rock_img/I_Peridotite_13.jpg"" style=""width:8cm; height:7.58cm;""><p>What type of rock is this?</p>","6","class_response","0","test","35","Peridotite","Peridotite","13","true","7","7","",""
"","","","","","","","","","","","html-keyboard-response","76","2.0.0","253833","665a86de9e0feaeeb7f061ba","1","3","null","","","","","","","","","<p style='font-size: 30px;'><strong>Okay</strong></p>","null","neutral_feedback","0","test","35","","","","","","","",""
"","","","","","","","","","","","html-button-response","77","2.0.0","255282","665a86de9e0feaeeb7f061ba","1","3","1448","","","","","","","","","<img src= ""rock_img/I_Gabbro_15.jpg"" style=""width:8cm; height:6.29cm;""><p>What type of rock is this?</p>","3","class_response","0","test","36","Gabbro","Gabbro","15","true","4","4","",""
"","","","","","","","","","","","html-keyboard-response","78","2.0.0","255784","665a86de9e0feaeeb7f061ba","1","3","null","","","","","","","","","<p style='font-size: 30px;'><strong>Okay</strong></p>","null","neutral_feedback","0","test","36","","","","","","","",""
"","","","","","","","","","","","html-button-response","79","2.0.0","261263","665a86de9e0feaeeb7f061ba","1","3","5476","","","","","","","","","<img src= ""rock_img/I_Gabbro_05.jpg"" style=""width:8cm; height:6cm;""><p>What type of rock is this?</p>","3","class_response","0","test","37","Gabbro","Gabbro","05","true","4","4","",""
"","","","","","","","","","","","html-keyboard-response","80","2.0.0","261764","665a86de9e0feaeeb7f061ba","1","3","null","","","","","","","","","<p style='font-size: 30px;'><strong>Okay</strong></p>","null","neutral_feedback","0","test","37","","","","","","","",""
"","","","","","","","","","","","html-button-response","81","2.0.0","262911","665a86de9e0feaeeb7f061ba","1","3","1145","","","","","","","","","<img src= ""rock_img/I_Andesite_16.jpg"" style=""width:8cm; height:6.010000000000001cm;""><p>What type of rock is this?</p>","3","class_response","0","test","38","Gabbro","Andesite","16","false","4","1","",""
"","","","","","","","","","","","html-keyboard-response","82","2.0.0","263420","665a86de9e0feaeeb7f061ba","1","3","null","","","","","","","","","<p style='font-size: 30px;'><strong>Okay</strong></p>","null","neutral_feedback","0","test","38","","","","","","","",""
"","","","","","","","","","","","html-button-response","83","2.0.0","264986","665a86de9e0feaeeb7f061ba","1","3","1565","","","","","","","","","<img src= ""rock_img/I_Peridotite_07.jpg"" style=""width:8cm; height:4.83cm;""><p>What type of rock is this?</p>","5","class_response","0","test","39","Pegmatite","Peridotite","07","false","6","7","",""
"","","","","","","","","","","","html-keyboard-response","84","2.0.0","265490","665a86de9e0feaeeb7f061ba","1","3","null","","","","","","","","","<p style='font-size: 30px;'><strong>Okay</strong></p>","null","neutral_feedback","0","test","39","","","","","","","",""
"","","","","","","","","","","","html-button-response","85","2.0.0","268522","665a86de9e0feaeeb7f061ba","1","3","3031","","","","","","","","","<img src= ""rock_img/I_Andesite_02.jpg"" style=""width:8cm; height:8.5cm;""><p>What type of rock is this?</p>","2","class_response","0","test","40","Diorite","Andesite","02","false","3","1","",""
"","","","","","","","","","","","html-keyboard-response","86","2.0.0","269036","665a86de9e0feaeeb7f061ba","1","3","null","","","","","","","","","<p style='font-size: 30px;'><strong>Okay</strong></p>","null","neutral_feedback","0","test","40","","","","","","","",""
"","","","","","","","","","","","html-button-response","87","2.0.0","271220","665a86de9e0feaeeb7f061ba","1","3","2182","","","","","","","","","<img src= ""rock_img/I_Diorite_14.jpg"" style=""width:8cm; height:5.71cm;""><p>What type of rock is this?</p>","5","class_response","0","test","41","Pegmatite","Diorite","14","false","6","3","",""
"","","","","","","","","","","","html-keyboard-response","88","2.0.0","271721","665a86de9e0feaeeb7f061ba","1","3","null","","","","","","","","","<p style='font-size: 30px;'><strong>Okay</strong></p>","null","neutral_feedback","0","test","41","","","","","","","",""
"","","","","","","","","","","","html-button-response","89","2.0.0","275564","665a86de9e0feaeeb7f061ba","1","3","3841","","","","","","","","","<img src= ""rock_img/I_Basalt_14.jpg"" style=""width:8cm; height:5.82cm;""><p>What type of rock is this?</p>","7","class_response","0","test","42","Pumice","Basalt","14","false","8","2","",""
"","","","","","","","","","","","html-keyboard-response","90","2.0.0","276065","665a86de9e0feaeeb7f061ba","1","3","null","","","","","","","","","<p style='font-size: 30px;'><strong>Okay</strong></p>","null","neutral_feedback","0","test","42","","","","","","","",""
"","","","","","","","","","","","html-button-response","91","2.0.0","280949","665a86de9e0feaeeb7f061ba","1","3","4881","","","","","","","","","<img src= ""rock_img/I_Pegmatite_15.jpg"" style=""width:8cm; height:6cm;""><p>What type of rock is this?</p>","5","class_response","0","test","43","Pegmatite","Pegmatite","15","true","6","6","",""
"","","","","","","","","","","","html-keyboard-response","92","2.0.0","281449","665a86de9e0feaeeb7f061ba","1","3","null","","","","","","","","","<p style='font-size: 30px;'><strong>Okay</strong></p>","null","neutral_feedback","0","test","43","","","","","","","",""
"","","","","","","","","","","","html-button-response","93","2.0.0","282628","665a86de9e0feaeeb7f061ba","1","3","1178","","","","","","","","","<img src= ""rock_img/I_Obsidian_16.jpg"" style=""width:8cm; height:9.3cm;""><p>What type of rock is this?</p>","4","class_response","0","test","44","Obsidian","Obsidian","16","true","5","5","",""
"","","","","","","","","","","","html-keyboard-response","94","2.0.0","283135","665a86de9e0feaeeb7f061ba","1","3","null","","","","","","","","","<p style='font-size: 30px;'><strong>Okay</strong></p>","null","neutral_feedback","0","test","44","","","","","","","",""
"","","","","","","","","","","","html-button-response","95","2.0.0","287897","665a86de9e0feaeeb7f061ba","1","3","4760","","","","","","","","","<img src= ""rock_img/I_Peridotite_08.jpg"" style=""width:8cm; height:6.7cm;""><p>What type of rock is this?</p>","6","class_response","0","test","45","Peridotite","Peridotite","08","true","7","7","",""
"","","","","","","","","","","","html-keyboard-response","96","2.0.0","288406","665a86de9e0feaeeb7f061ba","1","3","null","","","","","","","","","<p style='font-size: 30px;'><strong>Okay</strong></p>","null","neutral_feedback","0","test","45","","","","","","","",""
"","","","","","","","","","","","html-button-response","97","2.0.0","289750","665a86de9e0feaeeb7f061ba","1","3","1342","","","","","","","","","<img src= ""rock_img/I_Pumice_09.jpg"" style=""width:8cm; height:6.44cm;""><p>What type of rock is this?</p>","7","class_response","0","test","46","Pumice","Pumice","09","true","8","8","",""
"","","","","","","","","","","","html-keyboard-response","98","2.0.0","290257","665a86de9e0feaeeb7f061ba","1","3","null","","","","","","","","","<p style='font-size: 30px;'><strong>Okay</strong></p>","null","neutral_feedback","0","test","46","","","","","","","",""
"","","","","","","","","","","","html-button-response","99","2.0.0","291642","665a86de9e0feaeeb7f061ba","1","3","1383","","","","","","","","","<img src= ""rock_img/I_Peridotite_15.jpg"" style=""width:8cm; height:6cm;""><p>What type of rock is this?</p>","6","class_response","0","test","47","Peridotite","Peridotite","15","true","7","7","",""
"","","","","","","","","","","","html-keyboard-response","100","2.0.0","292143","665a86de9e0feaeeb7f061ba","1","3","null","","","","","","","","","<p style='font-size: 30px;'><strong>Okay</strong></p>","null","neutral_feedback","0","test","47","","","","","","","",""
"","","","","","","","","","","","html-button-response","101","2.0.0","300602","665a86de9e0feaeeb7f061ba","1","3","8457","","","","","","","","","<img src= ""rock_img/I_Pegmatite_16.jpg"" style=""width:8cm; height:5.8cm;""><p>What type of rock is this?</p>","1","class_response","0","test","48","Basalt","Pegmatite","16","false","2","6","",""
"","","","","","","","","","","","html-keyboard-response","102","2.0.0","301118","665a86de9e0feaeeb7f061ba","1","3","null","","","","","","","","","<p style='font-size: 30px;'><strong>Okay</strong></p>","null","neutral_feedback","0","test","48","","","","","","","",""
"","","","","","","","","","","","instructions","103","2.0.0","316124","665a86de9e0feaeeb7f061ba","1","3","14987","","","","","","","","[{""page_index"":0,""viewing_time"":9973},{""page_index"":1,""viewing_time"":2510},{""page_index"":2,""viewing_time"":2504}]","","","","","","","","","","","","","",""
"","","","","","","","","","","","html-button-response","104","2.0.0","317696","665a86de9e0feaeeb7f061ba","1","3","1572","","","","","","","","","","0","start_train","","","","","","","","","","",""
"","","","","","","","","","","","html-button-response","105","2.0.0","320804","665a86de9e0feaeeb7f061ba","1","3","3107","","","","","","","","","<img src= ""rock_img/I_Andesite_10.jpg"" style=""width:8cm; height:4.16cm;""><p>What type of rock is this?</p>","7","class_response","1","train","1","Pumice","Andesite","10","false","8","1","",""
"","","","","","","","","","","","html-button-response","106","2.0.0","352513","665a86de9e0feaeeb7f061ba","1","3","31707","","","","","","","","","<img src= rock_img/I_Andesite_10.jpg style=""width:8cm; height:4.16cm;""><p style='font-size: 30px; color: red;'><strong>Incorrect!</strong></p><p style='font-size: 30px;'><strong>This rock is andesite</strong></p>","0","corr_feedback","1","train","1","","","","","","","",""
"","","","","","","","","","","","html-button-response","107","2.0.0","355634","665a86de9e0feaeeb7f061ba","1","3","3121","","","","","","","","","<img src= ""rock_img/I_Basalt_10.jpg"" style=""width:8cm; height:5.85cm;""><p>What type of rock is this?</p>","1","class_response","1","train","2","Basalt","Basalt","10","true","2","2","",""
"","","","","","","","","","","","html-button-response","108","2.0.0","358484","665a86de9e0feaeeb7f061ba","1","3","2850","","","","","","","","","<img src= rock_img/I_Basalt_10.jpg style=""width:8cm; height:5.85cm;""><p style='font-size: 30px; color: green;'><strong>Correct!</strong></p><p style='font-size: 30px;'><strong>This rock is basalt</strong></p>","0","corr_feedback","1","train","2","","","","","","","",""
"","","","","","","","","","","","html-button-response","109","2.0.0","360937","665a86de9e0feaeeb7f061ba","1","3","2451","","","","","","","","","<img src= ""rock_img/I_Peridotite_02.jpg"" style=""width:8cm; height:5.859999999999999cm;""><p>What type of rock is this?</p>","6","class_response","1","train","3","Peridotite","Peridotite","02","true","7","7","",""
"","","","","","","","","","","","html-button-response","110","2.0.0","363391","665a86de9e0feaeeb7f061ba","1","3","2453","","","","","","","","","<img src= rock_img/I_Peridotite_02.jpg style=""width:8cm; height:5.859999999999999cm;""><p style='font-size: 30px; color: green;'><strong>Correct!</strong></p><p style='font-size: 30px;'><strong>This rock is peridotite</strong></p>","0","corr_feedback","1","train","3","","","","","","","",""
"","","","","","","","","","","","html-button-response","111","2.0.0","366735","665a86de9e0feaeeb7f061ba","1","3","3343","","","","","","","","","<img src= ""rock_img/I_Andesite_11.jpg"" style=""width:8cm; height:4.92cm;""><p>What type of rock is this?</p>","2","class_response","1","train","4","Diorite","Andesite","11","false","3","1","",""
"","","","","","","","","","","","html-button-response","112","2.0.0","369009","665a86de9e0feaeeb7f061ba","1","3","2273","","","","","","","","","<img src= rock_img/I_Andesite_11.jpg style=""width:8cm; height:4.92cm;""><p style='font-size: 30px; color: red;'><strong>Incorrect!</strong></p><p style='font-size: 30px;'><strong>This rock is andesite</strong></p>","0","corr_feedback","1","train","4","","","","","","","",""
"","","","","","","","","","","","html-button-response","113","2.0.0","370673","665a86de9e0feaeeb7f061ba","1","3","1663","","","","","","","","","<img src= ""rock_img/I_Pumice_03.jpg"" style=""width:8cm; height:6.64cm;""><p>What type of rock is this?</p>","7","class_response","1","train","5","Pumice","Pumice","03","true","8","8","",""
"","","","","","","","","","","","html-button-response","114","2.0.0","372714","665a86de9e0feaeeb7f061ba","1","3","2041","","","","","","","","","<img src= rock_img/I_Pumice_03.jpg style=""width:8cm; height:6.64cm;""><p style='font-size: 30px; color: green;'><strong>Correct!</strong></p><p style='font-size: 30px;'><strong>This rock is pumice</strong></p>","0","corr_feedback","1","train","5","","","","","","","",""
"","","","","","","","","","","","html-button-response","115","2.0.0","375705","665a86de9e0feaeeb7f061ba","1","3","2989","","","","","","","","","<img src= ""rock_img/I_Diorite_06.jpg"" style=""width:8cm; height:6.03cm;""><p>What type of rock is this?</p>","2","class_response","1","train","6","Diorite","Diorite","06","true","3","3","",""
"","","","","","","","","","","","html-button-response","116","2.0.0","377965","665a86de9e0feaeeb7f061ba","1","3","2259","","","","","","","","","<img src= rock_img/I_Diorite_06.jpg style=""width:8cm; height:6.03cm;""><p style='font-size: 30px; color: green;'><strong>Correct!</strong></p><p style='font-size: 30px;'><strong>This rock is diorite</strong></p>","0","corr_feedback","1","train","6","","","","","","","",""
"","","","","","","","","","","","html-button-response","117","2.0.0","380925","665a86de9e0feaeeb7f061ba","1","3","2959","","","","","","","","","<img src= ""rock_img/I_Gabbro_03.jpg"" style=""width:8cm; height:8.52cm;""><p>What type of rock is this?</p>","3","class_response","1","train","7","Gabbro","Gabbro","03","true","4","4","",""
"","","","","","","","","","","","html-button-response","118","2.0.0","383281","665a86de9e0feaeeb7f061ba","1","3","2355","","","","","","","","","<img src= rock_img/I_Gabbro_03.jpg style=""width:8cm; height:8.52cm;""><p style='font-size: 30px; color: green;'><strong>Correct!</strong></p><p style='font-size: 30px;'><strong>This rock is gabbro</strong></p>","0","corr_feedback","1","train","7","","","","","","","",""
"","","","","","","","","","","","html-button-response","119","2.0.0","385401","665a86de9e0feaeeb7f061ba","1","3","2119","","","","","","","","","<img src= ""rock_img/I_Pegmatite_08.jpg"" style=""width:8cm; height:7.68cm;""><p>What type of rock is this?</p>","5","class_response","1","train","8","Pegmatite","Pegmatite","08","true","6","6","",""
"","","","","","","","","","","","html-button-response","120","2.0.0","387724","665a86de9e0feaeeb7f061ba","1","3","2323","","","","","","","","","<img src= rock_img/I_Pegmatite_08.jpg style=""width:8cm; height:7.68cm;""><p style='font-size: 30px; color: green;'><strong>Correct!</strong></p><p style='font-size: 30px;'><strong>This rock is pegmatite</strong></p>","0","corr_feedback","1","train","8","","","","","","","",""
"","","","","","","","","","","","html-button-response","121","2.0.0","389177","665a86de9e0feaeeb7f061ba","1","3","1451","","","","","","","","","<img src= ""rock_img/I_Obsidian_14.jpg"" style=""width:8cm; height:7.64cm;""><p>What type of rock is this?</p>","4","class_response","1","train","9","Obsidian","Obsidian","14","true","5","5","",""
"","","","","","","","","","","","html-button-response","122","2.0.0","390576","665a86de9e0feaeeb7f061ba","1","3","1399","","","","","","","","","<img src= rock_img/I_Obsidian_14.jpg style=""width:8cm; height:7.64cm;""><p style='font-size: 30px; color: green;'><strong>Correct!</strong></p><p style='font-size: 30px;'><strong>This rock is obsidian</strong></p>","0","corr_feedback","1","train","9","","","","","","","",""
"","","","","","","","","","","","html-button-response","123","2.0.0","395865","665a86de9e0feaeeb7f061ba","1","3","5287","","","","","","","","","<img src= ""rock_img/I_Basalt_01.jpg"" style=""width:8cm; height:7.880000000000001cm;""><p>What type of rock is this?</p>","0","class_response","1","train","10","Andesite","Basalt","01","false","1","2","",""
"","","","","","","","","","","","html-button-response","124","2.0.0","398138","665a86de9e0feaeeb7f061ba","1","3","2273","","","","","","","","","<img src= rock_img/I_Basalt_01.jpg style=""width:8cm; height:7.880000000000001cm;""><p style='font-size: 30px; color: red;'><strong>Incorrect!</strong></p><p style='font-size: 30px;'><strong>This rock is basalt</strong></p>","0","corr_feedback","1","train","10","","","","","","","",""
"","","","","","","","","","","","html-button-response","125","2.0.0","399465","665a86de9e0feaeeb7f061ba","1","3","1325","","","","","","","","","<img src= ""rock_img/I_Obsidian_06.jpg"" style=""width:8cm; height:6.8cm;""><p>What type of rock is this?</p>","4","class_response","1","train","11","Obsidian","Obsidian","06","true","5","5","",""
"","","","","","","","","","","","html-button-response","126","2.0.0","402843","665a86de9e0feaeeb7f061ba","1","3","3377","","","","","","","","","<img src= rock_img/I_Obsidian_06.jpg style=""width:8cm; height:6.8cm;""><p style='font-size: 30px; color: green;'><strong>Correct!</strong></p><p style='font-size: 30px;'><strong>This rock is obsidian</strong></p>","0","corr_feedback","1","train","11","","","","","","","",""
"","","","","","","","","","","","html-button-response","127","2.0.0","404939","665a86de9e0feaeeb7f061ba","1","3","2095","","","","","","","","","<img src= ""rock_img/I_Pegmatite_05.jpg"" style=""width:8cm; height:7.300000000000001cm;""><p>What type of rock is this?</p>","5","class_response","1","train","12","Pegmatite","Pegmatite","05","true","6","6","",""
"","","","","","","","","","","","html-button-response","128","2.0.0","405837","665a86de9e0feaeeb7f061ba","1","3","897","","","","","","","","","<img src= rock_img/I_Pegmatite_05.jpg style=""width:8cm; height:7.300000000000001cm;""><p style='font-size: 30px; color: green;'><strong>Correct!</strong></p><p style='font-size: 30px;'><strong>This rock is pegmatite</strong></p>","0","corr_feedback","1","train","12","","","","","","","",""
"","","","","","","","","","","","html-button-response","129","2.0.0","407341","665a86de9e0feaeeb7f061ba","1","3","1503","","","","","","","","","<img src= ""rock_img/I_Peridotite_04.jpg"" style=""width:8cm; height:6.680000000000001cm;""><p>What type of rock is this?</p>","6","class_response","1","train","13","Peridotite","Peridotite","04","true","7","7","",""
"","","","","","","","","","","","html-button-response","130","2.0.0","409493","665a86de9e0feaeeb7f061ba","1","3","2151","","","","","","","","","<img src= rock_img/I_Peridotite_04.jpg style=""width:8cm; height:6.680000000000001cm;""><p style='font-size: 30px; color: green;'><strong>Correct!</strong></p><p style='font-size: 30px;'><strong>This rock is peridotite</strong></p>","0","corr_feedback","1","train","13","","","","","","","",""
"","","","","","","","","","","","html-button-response","131","2.0.0","412984","665a86de9e0feaeeb7f061ba","1","3","3491","","","","","","","","","<img src= ""rock_img/I_Gabbro_01.jpg"" style=""width:8cm; height:5.21cm;""><p>What type of rock is this?</p>","0","class_response","1","train","14","Andesite","Gabbro","01","false","1","4","",""
"","","","","","","","","","","","html-button-response","132","2.0.0","414606","665a86de9e0feaeeb7f061ba","1","3","1621","","","","","","","","","<img src= rock_img/I_Gabbro_01.jpg style=""width:8cm; height:5.21cm;""><p style='font-size: 30px; color: red;'><strong>Incorrect!</strong></p><p style='font-size: 30px;'><strong>This rock is gabbro</strong></p>","0","corr_feedback","1","train","14","","","","","","","",""
"","","","","","","","","","","","html-button-response","133","2.0.0","415996","665a86de9e0feaeeb7f061ba","1","3","1389","","","","","","","","","<img src= ""rock_img/I_Basalt_09.jpg"" style=""width:8cm; height:6.2cm;""><p>What type of rock is this?</p>","1","class_response","1","train","15","Basalt","Basalt","09","true","2","2","",""
"","","","","","","","","","","","html-button-response","134","2.0.0","417549","665a86de9e0feaeeb7f061ba","1","3","1553","","","","","","","","","<img src= rock_img/I_Basalt_09.jpg style=""width:8cm; height:6.2cm;""><p style='font-size: 30px; color: green;'><strong>Correct!</strong></p><p style='font-size: 30px;'><strong>This rock is basalt</strong></p>","0","corr_feedback","1","train","15","","","","","","","",""
"","","","","","","","","","","","html-button-response","135","2.0.0","424090","665a86de9e0feaeeb7f061ba","1","3","6540","","","","","","","","","<img src= ""rock_img/I_Gabbro_09.jpg"" style=""width:8cm; height:7.279999999999999cm;""><p>What type of rock is this?</p>","0","class_response","1","train","16","Andesite","Gabbro","09","false","1","4","",""
"","","","","","","","","","","","html-button-response","136","2.0.0","425724","665a86de9e0feaeeb7f061ba","1","3","1633","","","","","","","","","<img src= rock_img/I_Gabbro_09.jpg style=""width:8cm; height:7.279999999999999cm;""><p style='font-size: 30px; color: red;'><strong>Incorrect!</strong></p><p style='font-size: 30px;'><strong>This rock is gabbro</strong></p>","0","corr_feedback","1","train","16","","","","","","","",""
"","","","","","","","","","","","html-button-response","137","2.0.0","427450","665a86de9e0feaeeb7f061ba","1","3","1725","","","","","","","","","<img src= ""rock_img/I_Andesite_03.jpg"" style=""width:8cm; height:5.73cm;""><p>What type of rock is this?</p>","2","class_response","1","train","17","Diorite","Andesite","03","false","3","1","",""
"","","","","","","","","","","","html-button-response","138","2.0.0","429268","665a86de9e0feaeeb7f061ba","1","3","1817","","","","","","","","","<img src= rock_img/I_Andesite_03.jpg style=""width:8cm; height:5.73cm;""><p style='font-size: 30px; color: red;'><strong>Incorrect!</strong></p><p style='font-size: 30px;'><strong>This rock is andesite</strong></p>","0","corr_feedback","1","train","17","","","","","","","",""
"","","","","","","","","","","","html-button-response","139","2.0.0","430560","665a86de9e0feaeeb7f061ba","1","3","1291","","","","","","","","","<img src= ""rock_img/I_Pumice_06.jpg"" style=""width:8cm; height:6.9399999999999995cm;""><p>What type of rock is this?</p>","7","class_response","1","train","18","Pumice","Pumice","06","true","8","8","",""
"","","","","","","","","","","","html-button-response","140","2.0.0","432146","665a86de9e0feaeeb7f061ba","1","3","1585","","","","","","","","","<img src= rock_img/I_Pumice_06.jpg style=""width:8cm; height:6.9399999999999995cm;""><p style='font-size: 30px; color: green;'><strong>Correct!</strong></p><p style='font-size: 30px;'><strong>This rock is pumice</strong></p>","0","corr_feedback","1","train","18","","","","","","","",""
"","","","","","","","","","","","html-button-response","141","2.0.0","434020","665a86de9e0feaeeb7f061ba","1","3","1873","","","","","","","","","<img src= ""rock_img/I_Peridotite_06.jpg"" style=""width:8cm; height:7.53cm;""><p>What type of rock is this?</p>","6","class_response","1","train","19","Peridotite","Peridotite","06","true","7","7","",""
"","","","","","","","","","","","html-button-response","142","2.0.0","435200","665a86de9e0feaeeb7f061ba","1","3","1179","","","","","","","","","<img src= rock_img/I_Peridotite_06.jpg style=""width:8cm; height:7.53cm;""><p style='font-size: 30px; color: green;'><strong>Correct!</strong></p><p style='font-size: 30px;'><strong>This rock is peridotite</strong></p>","0","corr_feedback","1","train","19","","","","","","","",""
"","","","","","","","","","","","html-button-response","143","2.0.0","436510","665a86de9e0feaeeb7f061ba","1","3","1309","","","","","","","","","<img src= ""rock_img/I_Pumice_10.jpg"" style=""width:8cm; height:7.609999999999999cm;""><p>What type of rock is this?</p>","7","class_response","1","train","20","Pumice","Pumice","10","true","8","8","",""
"","","","","","","","","","","","html-button-response","144","2.0.0","437165","665a86de9e0feaeeb7f061ba","1","3","655","","","","","","","","","<img src= rock_img/I_Pumice_10.jpg style=""width:8cm; height:7.609999999999999cm;""><p style='font-size: 30px; color: green;'><strong>Correct!</strong></p><p style='font-size: 30px;'><strong>This rock is pumice</strong></p>","0","corr_feedback","1","train","20","","","","","","","",""
"","","","","","","","","","","","html-button-response","145","2.0.0","438664","665a86de9e0feaeeb7f061ba","1","3","1498","","","","","","","","","<img src= ""rock_img/I_Peridotite_16.jpg"" style=""width:8cm; height:6.989999999999999cm;""><p>What type of rock is this?</p>","6","class_response","1","train","21","Peridotite","Peridotite","16","true","7","7","",""
"","","","","","","","","","","","html-button-response","146","2.0.0","439480","665a86de9e0feaeeb7f061ba","1","3","815","","","","","","","","","<img src= rock_img/I_Peridotite_16.jpg style=""width:8cm; height:6.989999999999999cm;""><p style='font-size: 30px; color: green;'><strong>Correct!</strong></p><p style='font-size: 30px;'><strong>This rock is peridotite</strong></p>","0","corr_feedback","1","train","21","","","","","","","",""
"","","","","","","","","","","","html-button-response","147","2.0.0","443174","665a86de9e0feaeeb7f061ba","1","3","3693","","","","","","","","","<img src= ""rock_img/I_Gabbro_14.jpg"" style=""width:8cm; height:8.48cm;""><p>What type of rock is this?</p>","3","class_response","1","train","22","Gabbro","Gabbro","14","true","4","4","",""
"","","","","","","","","","","","html-button-response","148","2.0.0","444591","665a86de9e0feaeeb7f061ba","1","3","1417","","","","","","","","","<img src= rock_img/I_Gabbro_14.jpg style=""width:8cm; height:8.48cm;""><p style='font-size: 30px; color: green;'><strong>Correct!</strong></p><p style='font-size: 30px;'><strong>This rock is gabbro</strong></p>","0","corr_feedback","1","train","22","","","","","","","",""
"","","","","","","","","","","","html-button-response","149","2.0.0","450344","665a86de9e0feaeeb7f061ba","1","3","5752","","","","","","","","","<img src= ""rock_img/I_Andesite_01.jpg"" style=""width:8cm; height:5.87cm;""><p>What type of rock is this?</p>","1","class_response","1","train","23","Basalt","Andesite","01","false","2","1","",""
"","","","","","","","","","","","html-button-response","150","2.0.0","452298","665a86de9e0feaeeb7f061ba","1","3","1953","","","","","","","","","<img src= rock_img/I_Andesite_01.jpg style=""width:8cm; height:5.87cm;""><p style='font-size: 30px; color: red;'><strong>Incorrect!</strong></p><p style='font-size: 30px;'><strong>This rock is andesite</strong></p>","0","corr_feedback","1","train","23","","","","","","","",""
"","","","","","","","","","","","html-button-response","151","2.0.0","453368","665a86de9e0feaeeb7f061ba","1","3","1069","","","","","","","","","<img src= ""rock_img/I_Pumice_02.jpg"" style=""width:8cm; height:7.3999999999999995cm;""><p>What type of rock is this?</p>","7","class_response","1","train","24","Pumice","Pumice","02","true","8","8","",""
"","","","","","","","","","","","html-button-response","152","2.0.0","453920","665a86de9e0feaeeb7f061ba","1","3","551","","","","","","","","","<img src= rock_img/I_Pumice_02.jpg style=""width:8cm; height:7.3999999999999995cm;""><p style='font-size: 30px; color: green;'><strong>Correct!</strong></p><p style='font-size: 30px;'><strong>This rock is pumice</strong></p>","0","corr_feedback","1","train","24","","","","","","","",""
"","","","","","","","","","","","html-button-response","153","2.0.0","454846","665a86de9e0feaeeb7f061ba","1","3","925","","","","","","","","","<img src= ""rock_img/I_Obsidian_09.jpg"" style=""width:8cm; height:5cm;""><p>What type of rock is this?</p>","4","class_response","1","train","25","Obsidian","Obsidian","09","true","5","5","",""
"","","","","","","","","","","","html-button-response","154","2.0.0","455326","665a86de9e0feaeeb7f061ba","1","3","479","","","","","","","","","<img src= rock_img/I_Obsidian_09.jpg style=""width:8cm; height:5cm;""><p style='font-size: 30px; color: green;'><strong>Correct!</strong></p><p style='font-size: 30px;'><strong>This rock is obsidian</strong></p>","0","corr_feedback","1","train","25","","","","","","","",""
"","","","","","","","","","","","html-button-response","155","2.0.0","456398","665a86de9e0feaeeb7f061ba","1","3","1071","","","","","","","","","<img src= ""rock_img/I_Obsidian_11.jpg"" style=""width:8cm; height:6.05cm;""><p>What type of rock is this?</p>","4","class_response","1","train","26","Obsidian","Obsidian","11","true","5","5","",""
"","","","","","","","","","","","html-button-response","156","2.0.0","456998","665a86de9e0feaeeb7f061ba","1","3","599","","","","","","","","","<img src= rock_img/I_Obsidian_11.jpg style=""width:8cm; height:6.05cm;""><p style='font-size: 30px; color: green;'><strong>Correct!</strong></p><p style='font-size: 30px;'><strong>This rock is obsidian</strong></p>","0","corr_feedback","1","train","26","","","","","","","",""
"","","","","","","","","","","","html-button-response","157","2.0.0","458602","665a86de9e0feaeeb7f061ba","1","3","1603","","","","","","","","","<img src= ""rock_img/I_Diorite_08.jpg"" style=""width:8cm; height:6.37cm;""><p>What type of rock is this?</p>","5","class_response","1","train","27","Pegmatite","Diorite","08","false","6","3","",""
"","","","","","","","","","","","html-button-response","158","2.0.0","460522","665a86de9e0feaeeb7f061ba","1","3","1919","","","","","","","","","<img src= rock_img/I_Diorite_08.jpg style=""width:8cm; height:6.37cm;""><p style='font-size: 30px; color: red;'><strong>Incorrect!</strong></p><p style='font-size: 30px;'><strong>This rock is diorite</strong></p>","0","corr_feedback","1","train","27","","","","","","","",""
"","","","","","","","","","","","html-button-response","159","2.0.0","464620","665a86de9e0feaeeb7f061ba","1","3","4097","","","","","","","","","<img src= ""rock_img/I_Andesite_07.jpg"" style=""width:8cm; height:5.93cm;""><p>What type of rock is this?</p>","3","class_response","1","train","28","Gabbro","Andesite","07","false","4","1","",""
"","","","","","","","","","","","html-button-response","160","2.0.0","465438","665a86de9e0feaeeb7f061ba","1","3","817","","","","","","","","","<img src= rock_img/I_Andesite_07.jpg style=""width:8cm; height:5.93cm;""><p style='font-size: 30px; color: red;'><strong>Incorrect!</strong></p><p style='font-size: 30px;'><strong>This rock is andesite</strong></p>","0","corr_feedback","1","train","28","","","","","","","",""
"","","","","","","","","","","","html-button-response","161","2.0.0","473929","665a86de9e0feaeeb7f061ba","1","3","8489","","","","","","","","","<img src= ""rock_img/I_Peridotite_14.jpg"" style=""width:8cm; height:5.3cm;""><p>What type of rock is this?</p>","2","class_response","1","train","29","Diorite","Peridotite","14","false","3","7","",""
"","","","","","","","","","","","html-button-response","162","2.0.0","477095","665a86de9e0feaeeb7f061ba","1","3","3165","","","","","","","","","<img src= rock_img/I_Peridotite_14.jpg style=""width:8cm; height:5.3cm;""><p style='font-size: 30px; color: red;'><strong>Incorrect!</strong></p><p style='font-size: 30px;'><strong>This rock is peridotite</strong></p>","0","corr_feedback","1","train","29","","","","","","","",""
"","","","","","","","","","","","html-button-response","163","2.0.0","480009","665a86de9e0feaeeb7f061ba","1","3","2913","","","","","","","","","<img src= ""rock_img/I_Pegmatite_11.jpg"" style=""width:8cm; height:8.14cm;""><p>What type of rock is this?</p>","5","class_response","1","train","30","Pegmatite","Pegmatite","11","true","6","6","",""
"","","","","","","","","","","","html-button-response","164","2.0.0","481763","665a86de9e0feaeeb7f061ba","1","3","1753","","","","","","","","","<img src= rock_img/I_Pegmatite_11.jpg style=""width:8cm; height:8.14cm;""><p style='font-size: 30px; color: green;'><strong>Correct!</strong></p><p style='font-size: 30px;'><strong>This rock is pegmatite</strong></p>","0","corr_feedback","1","train","30","","","","","","","",""
"","","","","","","","","","","","html-button-response","165","2.0.0","482995","665a86de9e0feaeeb7f061ba","1","3","1231","","","","","","","","","<img src= ""rock_img/I_Basalt_05.jpg"" style=""width:8cm; height:8.18cm;""><p>What type of rock is this?</p>","1","class_response","1","train","31","Basalt","Basalt","05","true","2","2","",""
"","","","","","","","","","","","html-button-response","166","2.0.0","483667","665a86de9e0feaeeb7f061ba","1","3","671","","","","","","","","","<img src= rock_img/I_Basalt_05.jpg style=""width:8cm; height:8.18cm;""><p style='font-size: 30px; color: green;'><strong>Correct!</strong></p><p style='font-size: 30px;'><strong>This rock is basalt</strong></p>","0","corr_feedback","1","train","31","","","","","","","",""
"","","","","","","","","","","","html-button-response","167","2.0.0","484859","665a86de9e0feaeeb7f061ba","1","3","1191","","","","","","","","","<img src= ""rock_img/I_Pegmatite_07.jpg"" style=""width:8cm; height:6.7cm;""><p>What type of rock is this?</p>","5","class_response","1","train","32","Pegmatite","Pegmatite","07","true","6","6","",""
"","","","","","","","","","","","html-button-response","168","2.0.0","485351","665a86de9e0feaeeb7f061ba","1","3","491","","","","","","","","","<img src= rock_img/I_Pegmatite_07.jpg style=""width:8cm; height:6.7cm;""><p style='font-size: 30px; color: green;'><strong>Correct!</strong></p><p style='font-size: 30px;'><strong>This rock is pegmatite</strong></p>","0","corr_feedback","1","train","32","","","","","","","",""
"","","","","","","","","","","","html-button-response","169","2.0.0","486399","665a86de9e0feaeeb7f061ba","1","3","1047","","","","","","","","","<img src= ""rock_img/I_Pumice_15.jpg"" style=""width:8cm; height:7.86cm;""><p>What type of rock is this?</p>","7","class_response","1","train","33","Pumice","Pumice","15","true","8","8","",""
"","","","","","","","","","","","html-button-response","170","2.0.0","486875","665a86de9e0feaeeb7f061ba","1","3","475","","","","","","","","","<img src= rock_img/I_Pumice_15.jpg style=""width:8cm; height:7.86cm;""><p style='font-size: 30px; color: green;'><strong>Correct!</strong></p><p style='font-size: 30px;'><strong>This rock is pumice</strong></p>","0","corr_feedback","1","train","33","","","","","","","",""
"","","","","","","","","","","","html-button-response","171","2.0.0","488263","665a86de9e0feaeeb7f061ba","1","3","1387","","","","","","","","","<img src= ""rock_img/I_Peridotite_05.jpg"" style=""width:8cm; height:7.1499999999999995cm;""><p>What type of rock is this?</p>","6","class_response","1","train","34","Peridotite","Peridotite","05","true","7","7","",""
"","","","","","","","","","","","html-button-response","172","2.0.0","490259","665a86de9e0feaeeb7f061ba","1","3","1995","","","","","","","","","<img src= rock_img/I_Peridotite_05.jpg style=""width:8cm; height:7.1499999999999995cm;""><p style='font-size: 30px; color: green;'><strong>Correct!</strong></p><p style='font-size: 30px;'><strong>This rock is peridotite</strong></p>","0","corr_feedback","1","train","34","","","","","","","",""
"","","","","","","","","","","","html-button-response","173","2.0.0","495029","665a86de9e0feaeeb7f061ba","1","3","4769","","","","","","","","","<img src= ""rock_img/I_Diorite_02.jpg"" style=""width:8cm; height:6.27cm;""><p>What type of rock is this?</p>","0","class_response","1","train","35","Andesite","Diorite","02","false","1","3","",""
"","","","","","","","","","","","html-button-response","174","2.0.0","496629","665a86de9e0feaeeb7f061ba","1","3","1599","","","","","","","","","<img src= rock_img/I_Diorite_02.jpg style=""width:8cm; height:6.27cm;""><p style='font-size: 30px; color: red;'><strong>Incorrect!</strong></p><p style='font-size: 30px;'><strong>This rock is diorite</strong></p>","0","corr_feedback","1","train","35","","","","","","","",""
"","","","","","","","","","","","html-button-response","175","2.0.0","498409","665a86de9e0feaeeb7f061ba","1","3","1779","","","","","","","","","<img src= ""rock_img/I_Gabbro_11.jpg"" style=""width:8cm; height:6.2cm;""><p>What type of rock is this?</p>","1","class_response","1","train","36","Basalt","Gabbro","11","false","2","4","",""
"","","","","","","","","","","","html-button-response","176","2.0.0","500037","665a86de9e0feaeeb7f061ba","1","3","1627","","","","","","","","","<img src= rock_img/I_Gabbro_11.jpg style=""width:8cm; height:6.2cm;""><p style='font-size: 30px; color: red;'><strong>Incorrect!</strong></p><p style='font-size: 30px;'><strong>This rock is gabbro</strong></p>","0","corr_feedback","1","train","36","","","","","","","",""
"","","","","","","","","","","","html-button-response","177","2.0.0","502465","665a86de9e0feaeeb7f061ba","1","3","2427","","","","","","","","","<img src= ""rock_img/I_Pegmatite_09.jpg"" style=""width:8cm; height:4.03cm;""><p>What type of rock is this?</p>","5","class_response","1","train","37","Pegmatite","Pegmatite","09","true","6","6","",""
"","","","","","","","","","","","html-button-response","178","2.0.0","502979","665a86de9e0feaeeb7f061ba","1","3","513","","","","","","","","","<img src= rock_img/I_Pegmatite_09.jpg style=""width:8cm; height:4.03cm;""><p style='font-size: 30px; color: green;'><strong>Correct!</strong></p><p style='font-size: 30px;'><strong>This rock is pegmatite</strong></p>","0","corr_feedback","1","train","37","","","","","","","",""
"","","","","","","","","","","","html-button-response","179","2.0.0","505244","665a86de9e0feaeeb7f061ba","1","3","2265","","","","","","","","","<img src= ""rock_img/I_Basalt_16.jpg"" style=""width:8cm; height:7.659999999999999cm;""><p>What type of rock is this?</p>","1","class_response","1","train","38","Basalt","Basalt","16","true","2","2","",""
"","","","","","","","","","","","html-button-response","180","2.0.0","506857","665a86de9e0feaeeb7f061ba","1","3","1612","","","","","","","","","<img src= rock_img/I_Basalt_16.jpg style=""width:8cm; height:7.659999999999999cm;""><p style='font-size: 30px; color: green;'><strong>Correct!</strong></p><p style='font-size: 30px;'><strong>This rock is basalt</strong></p>","0","corr_feedback","1","train","38","","","","","","","",""
"","","","","","","","","","","","html-button-response","181","2.0.0","507885","665a86de9e0feaeeb7f061ba","1","3","1027","","","","","","","","","<img src= ""rock_img/I_Obsidian_08.jpg"" style=""width:8cm; height:7.39cm;""><p>What type of rock is this?</p>","4","class_response","1","train","39","Obsidian","Obsidian","08","true","5","5","",""
"","","","","","","","","","","","html-button-response","182","2.0.0","508461","665a86de9e0feaeeb7f061ba","1","3","575","","","","","","","","","<img src= rock_img/I_Obsidian_08.jpg style=""width:8cm; height:7.39cm;""><p style='font-size: 30px; color: green;'><strong>Correct!</strong></p><p style='font-size: 30px;'><strong>This rock is obsidian</strong></p>","0","corr_feedback","1","train","39","","","","","","","",""
"","","","","","","","","","","","html-button-response","183","2.0.0","510383","665a86de9e0feaeeb7f061ba","1","3","1921","","","","","","","","","<img src= ""rock_img/I_Diorite_15.jpg"" style=""width:8cm; height:5.54cm;""><p>What type of rock is this?</p>","2","class_response","1","train","40","Diorite","Diorite","15","true","3","3","",""
"","","","","","","","","","","","html-button-response","184","2.0.0","512065","665a86de9e0feaeeb7f061ba","1","3","1681","","","","","","","","","<img src= rock_img/I_Diorite_15.jpg style=""width:8cm; height:5.54cm;""><p style='font-size: 30px; color: green;'><strong>Correct!</strong></p><p style='font-size: 30px;'><strong>This rock is diorite</strong></p>","0","corr_feedback","1","train","40","","","","","","","",""
"","","","","","","","","","","","html-button-response","185","2.0.0","513467","665a86de9e0feaeeb7f061ba","1","3","1401","","","","","","","","","<img src= ""rock_img/I_Andesite_14.jpg"" style=""width:8cm; height:5.449999999999999cm;""><p>What type of rock is this?</p>","5","class_response","1","train","41","Pegmatite","Andesite","14","false","6","1","",""
"","","","","","","","","","","","html-button-response","186","2.0.0","515330","665a86de9e0feaeeb7f061ba","1","3","1863","","","","","","","","","<img src= rock_img/I_Andesite_14.jpg style=""width:8cm; height:5.449999999999999cm;""><p style='font-size: 30px; color: red;'><strong>Incorrect!</strong></p><p style='font-size: 30px;'><strong>This rock is andesite</strong></p>","0","corr_feedback","1","train","41","","","","","","","",""
"","","","","","","","","","","","html-button-response","187","2.0.0","518652","665a86de9e0feaeeb7f061ba","1","3","3321","","","","","","","","","<img src= ""rock_img/I_Diorite_12.jpg"" style=""width:8cm; height:4.88cm;""><p>What type of rock is this?</p>","3","class_response","1","train","42","Gabbro","Diorite","12","false","4","3","",""
"","","","","","","","","","","","html-button-response","188","2.0.0","520191","665a86de9e0feaeeb7f061ba","1","3","1537","","","","","","","","","<img src= rock_img/I_Diorite_12.jpg style=""width:8cm; height:4.88cm;""><p style='font-size: 30px; color: red;'><strong>Incorrect!</strong></p><p style='font-size: 30px;'><strong>This rock is diorite</strong></p>","0","corr_feedback","1","train","42","","","","","","","",""
"","","","","","","","","","","","html-button-response","189","2.0.0","521659","665a86de9e0feaeeb7f061ba","1","3","1467","","","","","","","","","<img src= ""rock_img/I_Pegmatite_03.jpg"" style=""width:8cm; height:5.239999999999999cm;""><p>What type of rock is this?</p>","5","class_response","1","train","43","Pegmatite","Pegmatite","03","true","6","6","",""
"","","","","","","","","","","","html-button-response","190","2.0.0","522183","665a86de9e0feaeeb7f061ba","1","3","523","","","","","","","","","<img src= rock_img/I_Pegmatite_03.jpg style=""width:8cm; height:5.239999999999999cm;""><p style='font-size: 30px; color: green;'><strong>Correct!</strong></p><p style='font-size: 30px;'><strong>This rock is pegmatite</strong></p>","0","corr_feedback","1","train","43","","","","","","","",""
"","","","","","","","","","","","html-button-response","191","2.0.0","524871","665a86de9e0feaeeb7f061ba","1","3","2687","","","","","","","","","<img src= ""rock_img/I_Basalt_04.jpg"" style=""width:8cm; height:7.53cm;""><p>What type of rock is this?</p>","1","class_response","1","train","44","Basalt","Basalt","04","true","2","2","",""
"","","","","","","","","","","","html-button-response","192","2.0.0","525633","665a86de9e0feaeeb7f061ba","1","3","761","","","","","","","","","<img src= rock_img/I_Basalt_04.jpg style=""width:8cm; height:7.53cm;""><p style='font-size: 30px; color: green;'><strong>Correct!</strong></p><p style='font-size: 30px;'><strong>This rock is basalt</strong></p>","0","corr_feedback","1","train","44","","","","","","","",""
"","","","","","","","","","","","html-button-response","193","2.0.0","526517","665a86de9e0feaeeb7f061ba","1","3","883","","","","","","","","","<img src= ""rock_img/I_Obsidian_02.jpg"" style=""width:8cm; height:7.51cm;""><p>What type of rock is this?</p>","4","class_response","1","train","45","Obsidian","Obsidian","02","true","5","5","",""
"","","","","","","","","","","","html-button-response","194","2.0.0","526987","665a86de9e0feaeeb7f061ba","1","3","469","","","","","","","","","<img src= rock_img/I_Obsidian_02.jpg style=""width:8cm; height:7.51cm;""><p style='font-size: 30px; color: green;'><strong>Correct!</strong></p><p style='font-size: 30px;'><strong>This rock is obsidian</strong></p>","0","corr_feedback","1","train","45","","","","","","","",""
"","","","","","","","","","","","html-button-response","195","2.0.0","528025","665a86de9e0feaeeb7f061ba","1","3","1037","","","","","","","","","<img src= ""rock_img/I_Pumice_14.jpg"" style=""width:8cm; height:6.39cm;""><p>What type of rock is this?</p>","7","class_response","1","train","46","Pumice","Pumice","14","true","8","8","",""
"","","","","","","","","","","","html-button-response","196","2.0.0","528461","665a86de9e0feaeeb7f061ba","1","3","435","","","","","","","","","<img src= rock_img/I_Pumice_14.jpg style=""width:8cm; height:6.39cm;""><p style='font-size: 30px; color: green;'><strong>Correct!</strong></p><p style='font-size: 30px;'><strong>This rock is pumice</strong></p>","0","corr_feedback","1","train","46","","","","","","","",""
"","","","","","","","","","","","html-button-response","197","2.0.0","535137","665a86de9e0feaeeb7f061ba","1","3","6675","","","","","","","","","<img src= ""rock_img/I_Diorite_09.jpg"" style=""width:8cm; height:5.27cm;""><p>What type of rock is this?</p>","2","class_response","1","train","47","Diorite","Diorite","09","true","3","3","",""
"","","","","","","","","","","","html-button-response","198","2.0.0","537105","665a86de9e0feaeeb7f061ba","1","3","1967","","","","","","","","","<img src= rock_img/I_Diorite_09.jpg style=""width:8cm; height:5.27cm;""><p style='font-size: 30px; color: green;'><strong>Correct!</strong></p><p style='font-size: 30px;'><strong>This rock is diorite</strong></p>","0","corr_feedback","1","train","47","","","","","","","",""
"","","","","","","","","","","","html-button-response","199","2.0.0","539658","665a86de9e0feaeeb7f061ba","1","3","2553","","","","","","","","","<img src= ""rock_img/I_Gabbro_08.jpg"" style=""width:8cm; height:5.15cm;""><p>What type of rock is this?</p>","3","class_response","1","train","48","Gabbro","Gabbro","08","true","4","4","",""
"","","","","","","","","","","","html-button-response","200","2.0.0","540199","665a86de9e0feaeeb7f061ba","1","3","539","","","","","","","","","<img src= rock_img/I_Gabbro_08.jpg style=""width:8cm; height:5.15cm;""><p style='font-size: 30px; color: green;'><strong>Correct!</strong></p><p style='font-size: 30px;'><strong>This rock is gabbro</strong></p>","0","corr_feedback","1","train","48","","","","","","","",""
"","","","","","","","","","","","instructions","203","2.0.0","552347","665a86de9e0feaeeb7f061ba","1","3","12147","","","","","","","","[{""page_index"":0,""viewing_time"":3783},{""page_index"":1,""viewing_time"":8364}]","","","","","","","","","","","","","",""
"","","","","","","","","","","","html-button-response","204","2.0.0","553911","665a86de9e0feaeeb7f061ba","1","3","1563","","","","","","","","","","0","start_test","","","","","","","","","","",""
"","","","","","","","","","","","html-button-response","205","2.0.0","570153","665a86de9e0feaeeb7f061ba","1","3","16241","","","","","","","","","<img src= ""rock_img/I_Andesite_16.jpg"" style=""width:8cm; height:6.010000000000001cm;""><p>What type of rock is this?</p>","0","class_response","1","test","1","Andesite","Andesite","16","true","1","1","",""
"","","","","","","","","","","","html-keyboard-response","206","2.0.0","570656","665a86de9e0feaeeb7f061ba","1","3","null","","","","","","","","","<p style='font-size: 30px;'><strong>Okay</strong></p>","null","neutral_feedback","1","test","1","","","","","","","",""
"","","","","","","","","","","","html-button-response","207","2.0.0","575289","665a86de9e0feaeeb7f061ba","1","3","4631","","","","","","","","","<img src= ""rock_img/I_Peridotite_13.jpg"" style=""width:8cm; height:7.58cm;""><p>What type of rock is this?</p>","6","class_response","1","test","2","Peridotite","Peridotite","13","true","7","7","",""
"","","","","","","","","","","","html-keyboard-response","208","2.0.0","575795","665a86de9e0feaeeb7f061ba","1","3","null","","","","","","","","","<p style='font-size: 30px;'><strong>Okay</strong></p>","null","neutral_feedback","1","test","2","","","","","","","",""
"","","","","","","","","","","","html-button-response","209","2.0.0","576907","665a86de9e0feaeeb7f061ba","1","3","1109","","","","","","","","","<img src= ""rock_img/I_Pumice_05.jpg"" style=""width:8cm; height:7.25cm;""><p>What type of rock is this?</p>","7","class_response","1","test","3","Pumice","Pumice","05","true","8","8","",""
"","","","","","","","","","","","html-keyboard-response","210","2.0.0","577412","665a86de9e0feaeeb7f061ba","1","3","null","","","","","","","","","<p style='font-size: 30px;'><strong>Okay</strong></p>","null","neutral_feedback","1","test","3","","","","","","","",""
"","","","","","","","","","","","html-button-response","211","2.0.0","579535","665a86de9e0feaeeb7f061ba","1","3","2121","","","","","","","","","<img src= ""rock_img/I_Pegmatite_12.jpg"" style=""width:8cm; height:5.7cm;""><p>What type of rock is this?</p>","5","class_response","1","test","4","Pegmatite","Pegmatite","12","true","6","6","",""
"","","","","","","","","","","","html-keyboard-response","212","2.0.0","580047","665a86de9e0feaeeb7f061ba","1","3","null","","","","","","","","","<p style='font-size: 30px;'><strong>Okay</strong></p>","null","neutral_feedback","1","test","4","","","","","","","",""
"","","","","","","","","","","","html-button-response","213","2.0.0","595721","665a86de9e0feaeeb7f061ba","1","3","15673","","","","","","","","","<img src= ""rock_img/I_Gabbro_16.jpg"" style=""width:8cm; height:6.44cm;""><p>What type of rock is this?</p>","3","class_response","1","test","5","Gabbro","Gabbro","16","true","4","4","",""
"","","","","","","","","","","","html-keyboard-response","214","2.0.0","596231","665a86de9e0feaeeb7f061ba","1","3","null","","","","","","","","","<p style='font-size: 30px;'><strong>Okay</strong></p>","null","neutral_feedback","1","test","5","","","","","","","",""
"","","","","","","","","","","","html-button-response","215","2.0.0","606231","665a86de9e0feaeeb7f061ba","1","3","9998","","","","","","","","","<img src= ""rock_img/I_Peridotite_12.jpg"" style=""width:8cm; height:4.54cm;""><p>What type of rock is this?</p>","2","class_response","1","test","6","Diorite","Peridotite","12","false","3","7","",""
"","","","","","","","","","","","html-keyboard-response","216","2.0.0","606741","665a86de9e0feaeeb7f061ba","1","3","null","","","","","","","","","<p style='font-size: 30px;'><strong>Okay</strong></p>","null","neutral_feedback","1","test","6","","","","","","","",""
"","","","","","","","","","","","html-button-response","217","2.0.0","608827","665a86de9e0feaeeb7f061ba","1","3","2084","","","","","","","","","<img src= ""rock_img/I_Diorite_11.jpg"" style=""width:8cm; height:7.11cm;""><p>What type of rock is this?</p>","2","class_response","1","test","7","Diorite","Diorite","11","true","3","3","",""
"","","","","","","","","","","","html-keyboard-response","218","2.0.0","609333","665a86de9e0feaeeb7f061ba","1","3","null","","","","","","","","","<p style='font-size: 30px;'><strong>Okay</strong></p>","null","neutral_feedback","1","test","7","","","","","","","",""
"","","","","","","","","","","","html-button-response","219","2.0.0","612521","665a86de9e0feaeeb7f061ba","1","3","3186","","","","","","","","","<img src= ""rock_img/I_Gabbro_10.jpg"" style=""width:8cm; height:5.680000000000001cm;""><p>What type of rock is this?</p>","3","class_response","1","test","8","Gabbro","Gabbro","10","true","4","4","",""
"","","","","","","","","","","","html-keyboard-response","220","2.0.0","613030","665a86de9e0feaeeb7f061ba","1","3","null","","","","","","","","","<p style='font-size: 30px;'><strong>Okay</strong></p>","null","neutral_feedback","1","test","8","","","","","","","",""
"","","","","","","","","","","","html-button-response","221","2.0.0","614175","665a86de9e0feaeeb7f061ba","1","3","1143","","","","","","","","","<img src= ""rock_img/I_Obsidian_10.jpg"" style=""width:8cm; height:6.260000000000001cm;""><p>What type of rock is this?</p>","4","class_response","1","test","9","Obsidian","Obsidian","10","true","5","5","",""
"","","","","","","","","","","","html-keyboard-response","222","2.0.0","614682","665a86de9e0feaeeb7f061ba","1","3","null","","","","","","","","","<p style='font-size: 30px;'><strong>Okay</strong></p>","null","neutral_feedback","1","test","9","","","","","","","",""
"","","","","","","","","","","","html-button-response","223","2.0.0","638321","665a86de9e0feaeeb7f061ba","1","3","23637","","","","","","","","","<img src= ""rock_img/I_Pegmatite_13.jpg"" style=""width:8cm; height:4.95cm;""><p>What type of rock is this?</p>","6","class_response","1","test","10","Peridotite","Pegmatite","13","false","7","6","",""
"","","","","","","","","","","","html-keyboard-response","224","2.0.0","638824","665a86de9e0feaeeb7f061ba","1","3","null","","","","","","","","","<p style='font-size: 30px;'><strong>Okay</strong></p>","null","neutral_feedback","1","test","10","","","","","","","",""
"","","","","","","","","","","","html-button-response","225","2.0.0","639957","665a86de9e0feaeeb7f061ba","1","3","1131","","","","","","","","","<img src= ""rock_img/I_Pumice_09.jpg"" style=""width:8cm; height:6.44cm;""><p>What type of rock is this?</p>","7","class_response","1","test","11","Pumice","Pumice","09","true","8","8","",""
"","","","","","","","","","","","html-keyboard-response","226","2.0.0","640459","665a86de9e0feaeeb7f061ba","1","3","null","","","","","","","","","<p style='font-size: 30px;'><strong>Okay</strong></p>","null","neutral_feedback","1","test","11","","","","","","","",""
"","","","","","","","","","","","html-button-response","227","2.0.0","643841","665a86de9e0feaeeb7f061ba","1","3","3381","","","","","","","","","<img src= ""rock_img/I_Gabbro_12.jpg"" style=""width:8cm; height:7.800000000000001cm;""><p>What type of rock is this?</p>","3","class_response","1","test","12","Gabbro","Gabbro","12","true","4","4","",""
"","","","","","","","","","","","html-keyboard-response","228","2.0.0","644355","665a86de9e0feaeeb7f061ba","1","3","null","","","","","","","","","<p style='font-size: 30px;'><strong>Okay</strong></p>","null","neutral_feedback","1","test","12","","","","","","","",""
"","","","","","","","","","","","html-button-response","229","2.0.0","645931","665a86de9e0feaeeb7f061ba","1","3","1574","","","","","","","","","<img src= ""rock_img/I_Peridotite_10.jpg"" style=""width:8cm; height:5.390000000000001cm;""><p>What type of rock is this?</p>","6","class_response","1","test","13","Peridotite","Peridotite","10","true","7","7","",""
"","","","","","","","","","","","html-keyboard-response","230","2.0.0","646447","665a86de9e0feaeeb7f061ba","1","3","null","","","","","","","","","<p style='font-size: 30px;'><strong>Okay</strong></p>","null","neutral_feedback","1","test","13","","","","","","","",""
"","","","","","","","","","","","html-button-response","231","2.0.0","662897","665a86de9e0feaeeb7f061ba","1","3","16449","","","","","","","","","<img src= ""rock_img/I_Basalt_11.jpg"" style=""width:8cm; height:5.359999999999999cm;""><p>What type of rock is this?</p>","0","class_response","1","test","14","Andesite","Basalt","11","false","1","2","",""
"","","","","","","","","","","","html-keyboard-response","232","2.0.0","663413","665a86de9e0feaeeb7f061ba","1","3","null","","","","","","","","","<p style='font-size: 30px;'><strong>Okay</strong></p>","null","neutral_feedback","1","test","14","","","","","","","",""
"","","","","","","","","","","","html-button-response","233","2.0.0","664355","665a86de9e0feaeeb7f061ba","1","3","940","","","","","","","","","<img src= ""rock_img/I_Obsidian_12.jpg"" style=""width:8cm; height:6.53cm;""><p>What type of rock is this?</p>","4","class_response","1","test","15","Obsidian","Obsidian","12","true","5","5","",""
"","","","","","","","","","","","html-keyboard-response","234","2.0.0","664866","665a86de9e0feaeeb7f061ba","1","3","null","","","","","","","","","<p style='font-size: 30px;'><strong>Okay</strong></p>","null","neutral_feedback","1","test","15","","","","","","","",""
"","","","","","","","","","","","html-button-response","235","2.0.0","669159","665a86de9e0feaeeb7f061ba","1","3","4292","","","","","","","","","<img src= ""rock_img/I_Basalt_12.jpg"" style=""width:8cm; height:6.010000000000001cm;""><p>What type of rock is this?</p>","0","class_response","1","test","16","Andesite","Basalt","12","false","1","2","",""
"","","","","","","","","","","","html-keyboard-response","236","2.0.0","669670","665a86de9e0feaeeb7f061ba","1","3","null","","","","","","","","","<p style='font-size: 30px;'><strong>Okay</strong></p>","null","neutral_feedback","1","test","16","","","","","","","",""
"","","","","","","","","","","","html-button-response","237","2.0.0","678879","665a86de9e0feaeeb7f061ba","1","3","9208","","","","","","","","","<img src= ""rock_img/I_Gabbro_15.jpg"" style=""width:8cm; height:6.29cm;""><p>What type of rock is this?</p>","2","class_response","1","test","17","Diorite","Gabbro","15","false","3","4","",""
"","","","","","","","","","","","html-keyboard-response","238","2.0.0","679381","665a86de9e0feaeeb7f061ba","1","3","null","","","","","","","","","<p style='font-size: 30px;'><strong>Okay</strong></p>","null","neutral_feedback","1","test","17","","","","","","","",""
"","","","","","","","","","","","html-button-response","239","2.0.0","682561","665a86de9e0feaeeb7f061ba","1","3","3179","","","","","","","","","<img src= ""rock_img/I_Diorite_07.jpg"" style=""width:8cm; height:5.239999999999999cm;""><p>What type of rock is this?</p>","2","class_response","1","test","18","Diorite","Diorite","07","true","3","3","",""
"","","","","","","","","","","","html-keyboard-response","240","2.0.0","683066","665a86de9e0feaeeb7f061ba","1","3","null","","","","","","","","","<p style='font-size: 30px;'><strong>Okay</strong></p>","null","neutral_feedback","1","test","18","","","","","","","",""
"","","","","","","","","","","","html-button-response","241","2.0.0","684921","665a86de9e0feaeeb7f061ba","1","3","1853","","","","","","","","","<img src= ""rock_img/I_Gabbro_05.jpg"" style=""width:8cm; height:6cm;""><p>What type of rock is this?</p>","3","class_response","1","test","19","Gabbro","Gabbro","05","true","4","4","",""
"","","","","","","","","","","","html-keyboard-response","242","2.0.0","685437","665a86de9e0feaeeb7f061ba","1","3","null","","","","","","","","","<p style='font-size: 30px;'><strong>Okay</strong></p>","null","neutral_feedback","1","test","19","","","","","","","",""
"","","","","","","","","","","","html-button-response","243","2.0.0","705057","665a86de9e0feaeeb7f061ba","1","3","19620","","","","","","","","","<img src= ""rock_img/I_Pegmatite_10.jpg"" style=""width:8cm; height:4.16cm;""><p>What type of rock is this?</p>","6","class_response","1","test","20","Peridotite","Pegmatite","10","false","7","6","",""
"","","","","","","","","","","","html-keyboard-response","244","2.0.0","705572","665a86de9e0feaeeb7f061ba","1","3","null","","","","","","","","","<p style='font-size: 30px;'><strong>Okay</strong></p>","null","neutral_feedback","1","test","20","","","","","","","",""
"","","","","","","","","","","","html-button-response","245","2.0.0","731621","665a86de9e0feaeeb7f061ba","1","3","26047","","","","","","","","","<img src= ""rock_img/I_Andesite_09.jpg"" style=""width:8cm; height:6cm;""><p>What type of rock is this?</p>","3","class_response","1","test","21","Gabbro","Andesite","09","false","4","1","",""
"","","","","","","","","","","","html-keyboard-response","246","2.0.0","732133","665a86de9e0feaeeb7f061ba","1","3","null","","","","","","","","","<p style='font-size: 30px;'><strong>Okay</strong></p>","null","neutral_feedback","1","test","21","","","","","","","",""
"","","","","","","","","","","","html-button-response","247","2.0.0","742559","665a86de9e0feaeeb7f061ba","1","3","10425","","","","","","","","","<img src= ""rock_img/I_Andesite_04.jpg"" style=""width:8cm; height:5.96cm;""><p>What type of rock is this?</p>","0","class_response","1","test","22","Andesite","Andesite","04","true","1","1","",""
"","","","","","","","","","","","html-keyboard-response","248","2.0.0","743061","665a86de9e0feaeeb7f061ba","1","3","null","","","","","","","","","<p style='font-size: 30px;'><strong>Okay</strong></p>","null","neutral_feedback","1","test","22","","","","","","","",""
"","","","","","","","","","","","html-button-response","249","2.0.0","744717","665a86de9e0feaeeb7f061ba","1","3","1654","","","","","","","","","<img src= ""rock_img/I_Basalt_14.jpg"" style=""width:8cm; height:5.82cm;""><p>What type of rock is this?</p>","7","class_response","1","test","23","Pumice","Basalt","14","false","8","2","",""
"","","","","","","","","","","","html-keyboard-response","250","2.0.0","745230","665a86de9e0feaeeb7f061ba","1","3","null","","","","","","","","","<p style='font-size: 30px;'><strong>Okay</strong></p>","null","neutral_feedback","1","test","23","","","","","","","",""
"","","","","","","","","","","","html-button-response","251","2.0.0","749763","665a86de9e0feaeeb7f061ba","1","3","4532","","","","","","","","","<img src= ""rock_img/I_Andesite_05.jpg"" style=""width:8cm; height:4.12cm;""><p>What type of rock is this?</p>","0","class_response","1","test","24","Andesite","Andesite","05","true","1","1","",""
"","","","","","","","","","","","html-keyboard-response","252","2.0.0","750265","665a86de9e0feaeeb7f061ba","1","3","null","","","","","","","","","<p style='font-size: 30px;'><strong>Okay</strong></p>","null","neutral_feedback","1","test","24","","","","","","","",""
"","","","","","","","","","","","html-button-response","253","2.0.0","751499","665a86de9e0feaeeb7f061ba","1","3","1233","","","","","","","","","<img src= ""rock_img/I_Diorite_16.jpg"" style=""width:8cm; height:6.74cm;""><p>What type of rock is this?</p>","2","class_response","1","test","25","Diorite","Diorite","16","true","3","3","",""
"","","","","","","","","","","","html-keyboard-response","254","2.0.0","752004","665a86de9e0feaeeb7f061ba","1","3","null","","","","","","","","","<p style='font-size: 30px;'><strong>Okay</strong></p>","null","neutral_feedback","1","test","25","","","","","","","",""
"","","","","","","","","","","","html-button-response","255","2.0.0","753543","665a86de9e0feaeeb7f061ba","1","3","1537","","","","","","","","","<img src= ""rock_img/I_Pumice_04.jpg"" style=""width:8cm; height:6.819999999999999cm;""><p>What type of rock is this?</p>","7","class_response","1","test","26","Pumice","Pumice","04","true","8","8","",""
"","","","","","","","","","","","html-keyboard-response","256","2.0.0","754054","665a86de9e0feaeeb7f061ba","1","3","null","","","","","","","","","<p style='font-size: 30px;'><strong>Okay</strong></p>","null","neutral_feedback","1","test","26","","","","","","","",""
"","","","","","","","","","","","html-button-response","257","2.0.0","756773","665a86de9e0feaeeb7f061ba","1","3","2717","","","","","","","","","<img src= ""rock_img/I_Pumice_08.jpg"" style=""width:8cm; height:6.67cm;""><p>What type of rock is this?</p>","7","class_response","1","test","27","Pumice","Pumice","08","true","8","8","",""
"","","","","","","","","","","","html-keyboard-response","258","2.0.0","757276","665a86de9e0feaeeb7f061ba","1","3","null","","","","","","","","","<p style='font-size: 30px;'><strong>Okay</strong></p>","null","neutral_feedback","1","test","27","","","","","","","",""
"","","","","","","","","","","","html-button-response","259","2.0.0","759601","665a86de9e0feaeeb7f061ba","1","3","2323","","","","","","","","","<img src= ""rock_img/I_Gabbro_13.jpg"" style=""width:8cm; height:5.08cm;""><p>What type of rock is this?</p>","3","class_response","1","test","28","Gabbro","Gabbro","13","true","4","4","",""
"","","","","","","","","","","","html-keyboard-response","260","2.0.0","760111","665a86de9e0feaeeb7f061ba","1","3","null","","","","","","","","","<p style='font-size: 30px;'><strong>Okay</strong></p>","null","neutral_feedback","1","test","28","","","","","","","",""
"","","","","","","","","","","","html-button-response","261","2.0.0","761247","665a86de9e0feaeeb7f061ba","1","3","1134","","","","","","","","","<img src= ""rock_img/I_Peridotite_15.jpg"" style=""width:8cm; height:6cm;""><p>What type of rock is this?</p>","6","class_response","1","test","29","Peridotite","Peridotite","15","true","7","7","",""
"","","","","","","","","","","","html-keyboard-response","262","2.0.0","761748","665a86de9e0feaeeb7f061ba","1","3","null","","","","","","","","","<p style='font-size: 30px;'><strong>Okay</strong></p>","null","neutral_feedback","1","test","29","","","","","","","",""
"","","","","","","","","","","","html-button-response","263","2.0.0","762701","665a86de9e0feaeeb7f061ba","1","3","951","","","","","","","","","<img src= ""rock_img/I_Obsidian_16.jpg"" style=""width:8cm; height:9.3cm;""><p>What type of rock is this?</p>","4","class_response","1","test","30","Obsidian","Obsidian","16","true","5","5","",""
"","","","","","","","","","","","html-keyboard-response","264","2.0.0","763208","665a86de9e0feaeeb7f061ba","1","3","null","","","","","","","","","<p style='font-size: 30px;'><strong>Okay</strong></p>","null","neutral_feedback","1","test","30","","","","","","","",""
"","","","","","","","","","","","html-button-response","265","2.0.0","767231","665a86de9e0feaeeb7f061ba","1","3","4021","","","","","","","","","<img src= ""rock_img/I_Diorite_14.jpg"" style=""width:8cm; height:5.71cm;""><p>What type of rock is this?</p>","2","class_response","1","test","31","Diorite","Diorite","14","true","3","3","",""
"","","","","","","","","","","","html-keyboard-response","266","2.0.0","767736","665a86de9e0feaeeb7f061ba","1","3","null","","","","","","","","","<p style='font-size: 30px;'><strong>Okay</strong></p>","null","neutral_feedback","1","test","31","","","","","","","",""
"","","","","","","","","","","","html-button-response","267","2.0.0","768809","665a86de9e0feaeeb7f061ba","1","3","1071","","","","","","","","","<img src= ""rock_img/I_Obsidian_07.jpg"" style=""width:8cm; height:4.76cm;""><p>What type of rock is this?</p>","4","class_response","1","test","32","Obsidian","Obsidian","07","true","5","5","",""
"","","","","","","","","","","","html-keyboard-response","268","2.0.0","769320","665a86de9e0feaeeb7f061ba","1","3","null","","","","","","","","","<p style='font-size: 30px;'><strong>Okay</strong></p>","null","neutral_feedback","1","test","32","","","","","","","",""
"","","","","","","","","","","","html-button-response","269","2.0.0","770961","665a86de9e0feaeeb7f061ba","1","3","1639","","","","","","","","","<img src= ""rock_img/I_Obsidian_05.jpg"" style=""width:8cm; height:6.33cm;""><p>What type of rock is this?</p>","4","class_response","1","test","33","Obsidian","Obsidian","05","true","5","5","",""
"","","","","","","","","","","","html-keyboard-response","270","2.0.0","771472","665a86de9e0feaeeb7f061ba","1","3","null","","","","","","","","","<p style='font-size: 30px;'><strong>Okay</strong></p>","null","neutral_feedback","1","test","33","","","","","","","",""
"","","","","","","","","","","","html-button-response","271","2.0.0","776069","665a86de9e0feaeeb7f061ba","1","3","4595","","","","","","","","","<img src= ""rock_img/I_Diorite_10.jpg"" style=""width:8cm; height:5.949999999999999cm;""><p>What type of rock is this?</p>","2","class_response","1","test","34","Diorite","Diorite","10","true","3","3","",""
"","","","","","","","","","","","html-keyboard-response","272","2.0.0","776577","665a86de9e0feaeeb7f061ba","1","3","null","","","","","","","","","<p style='font-size: 30px;'><strong>Okay</strong></p>","null","neutral_feedback","1","test","34","","","","","","","",""
"","","","","","","","","","","","html-button-response","273","2.0.0","780789","665a86de9e0feaeeb7f061ba","1","3","4210","","","","","","","","","<img src= ""rock_img/I_Andesite_06.jpg"" style=""width:8cm; height:6.840000000000001cm;""><p>What type of rock is this?</p>","0","class_response","1","test","35","Andesite","Andesite","06","true","1","1","",""
"","","","","","","","","","","","html-keyboard-response","274","2.0.0","781299","665a86de9e0feaeeb7f061ba","1","3","null","","","","","","","","","<p style='font-size: 30px;'><strong>Okay</strong></p>","null","neutral_feedback","1","test","35","","","","","","","",""
"","","","","","","","","","","","html-button-response","275","2.0.0","786913","665a86de9e0feaeeb7f061ba","1","3","5613","","","","","","","","","<img src= ""rock_img/I_Andesite_02.jpg"" style=""width:8cm; height:8.5cm;""><p>What type of rock is this?</p>","0","class_response","1","test","36","Andesite","Andesite","02","true","1","1","",""
"","","","","","","","","","","","html-keyboard-response","276","2.0.0","787415","665a86de9e0feaeeb7f061ba","1","3","null","","","","","","","","","<p style='font-size: 30px;'><strong>Okay</strong></p>","null","neutral_feedback","1","test","36","","","","","","","",""
"","","","","","","","","","","","html-button-response","277","2.0.0","789845","665a86de9e0feaeeb7f061ba","1","3","2428","","","","","","","","","<img src= ""rock_img/I_Diorite_13.jpg"" style=""width:8cm; height:6.29cm;""><p>What type of rock is this?</p>","2","class_response","1","test","37","Diorite","Diorite","13","true","3","3","",""
"","","","","","","","","","","","html-keyboard-response","278","2.0.0","790358","665a86de9e0feaeeb7f061ba","1","3","null","","","","","","","","","<p style='font-size: 30px;'><strong>Okay</strong></p>","null","neutral_feedback","1","test","37","","","","","","","",""
"","","","","","","","","","","","html-button-response","279","2.0.0","791527","665a86de9e0feaeeb7f061ba","1","3","1168","","","","","","","","","<img src= ""rock_img/I_Pegmatite_15.jpg"" style=""width:8cm; height:6cm;""><p>What type of rock is this?</p>","5","class_response","1","test","38","Pegmatite","Pegmatite","15","true","6","6","",""
"","","","","","","","","","","","html-keyboard-response","280","2.0.0","792043","665a86de9e0feaeeb7f061ba","1","3","null","","","","","","","","","<p style='font-size: 30px;'><strong>Okay</strong></p>","null","neutral_feedback","1","test","38","","","","","","","",""
"","","","","","","","","","","","html-button-response","281","2.0.0","793219","665a86de9e0feaeeb7f061ba","1","3","1174","","","","","","","","","<img src= ""rock_img/I_Basalt_02.jpg"" style=""width:8cm; height:6.45cm;""><p>What type of rock is this?</p>","1","class_response","1","test","39","Basalt","Basalt","02","true","2","2","",""
"","","","","","","","","","","","html-keyboard-response","282","2.0.0","793729","665a86de9e0feaeeb7f061ba","1","3","null","","","","","","","","","<p style='font-size: 30px;'><strong>Okay</strong></p>","null","neutral_feedback","1","test","39","","","","","","","",""
"","","","","","","","","","","","html-button-response","283","2.0.0","795451","665a86de9e0feaeeb7f061ba","1","3","1721","","","","","","","","","<img src= ""rock_img/I_Pegmatite_06.jpg"" style=""width:8cm; height:5.17cm;""><p>What type of rock is this?</p>","7","class_response","1","test","40","Pumice","Pegmatite","06","false","8","6","",""
"","","","","","","","","","","","html-keyboard-response","284","2.0.0","795963","665a86de9e0feaeeb7f061ba","1","3","null","","","","","","","","","<p style='font-size: 30px;'><strong>Okay</strong></p>","null","neutral_feedback","1","test","40","","","","","","","",""
"","","","","","","","","","","","html-button-response","285","2.0.0","797053","665a86de9e0feaeeb7f061ba","1","3","1088","","","","","","","","","<img src= ""rock_img/I_Pumice_16.jpg"" style=""width:8cm; height:6.79cm;""><p>What type of rock is this?</p>","7","class_response","1","test","41","Pumice","Pumice","16","true","8","8","",""
"","","","","","","","","","","","html-keyboard-response","286","2.0.0","797566","665a86de9e0feaeeb7f061ba","1","3","null","","","","","","","","","<p style='font-size: 30px;'><strong>Okay</strong></p>","null","neutral_feedback","1","test","41","","","","","","","",""
"","","","","","","","","","","","html-button-response","287","2.0.0","798947","665a86de9e0feaeeb7f061ba","1","3","1379","","","","","","","","","<img src= ""rock_img/I_Pegmatite_16.jpg"" style=""width:8cm; height:5.8cm;""><p>What type of rock is this?</p>","5","class_response","1","test","42","Pegmatite","Pegmatite","16","true","6","6","",""
"","","","","","","","","","","","html-keyboard-response","288","2.0.0","799451","665a86de9e0feaeeb7f061ba","1","3","null","","","","","","","","","<p style='font-size: 30px;'><strong>Okay</strong></p>","null","neutral_feedback","1","test","42","","","","","","","",""
"","","","","","","","","","","","html-button-response","289","2.0.0","800583","665a86de9e0feaeeb7f061ba","1","3","1130","","","","","","","","","<img src= ""rock_img/I_Basalt_06.jpg"" style=""width:8cm; height:7.06cm;""><p>What type of rock is this?</p>","1","class_response","1","test","43","Basalt","Basalt","06","true","2","2","",""
"","","","","","","","","","","","html-keyboard-response","290","2.0.0","801087","665a86de9e0feaeeb7f061ba","1","3","null","","","","","","","","","<p style='font-size: 30px;'><strong>Okay</strong></p>","null","neutral_feedback","1","test","43","","","","","","","",""
"","","","","","","","","","","","html-button-response","291","2.0.0","803711","665a86de9e0feaeeb7f061ba","1","3","2623","","","","","","","","","<img src= ""rock_img/I_Peridotite_07.jpg"" style=""width:8cm; height:4.83cm;""><p>What type of rock is this?</p>","6","class_response","1","test","44","Peridotite","Peridotite","07","true","7","7","",""
"","","","","","","","","","","","html-keyboard-response","292","2.0.0","804222","665a86de9e0feaeeb7f061ba","1","3","null","","","","","","","","","<p style='font-size: 30px;'><strong>Okay</strong></p>","null","neutral_feedback","1","test","44","","","","","","","",""
"","","","","","","","","","","","html-button-response","293","2.0.0","805127","665a86de9e0feaeeb7f061ba","1","3","904","","","","","","","","","<img src= ""rock_img/I_Obsidian_04.jpg"" style=""width:8cm; height:6.930000000000001cm;""><p>What type of rock is this?</p>","4","class_response","1","test","45","Obsidian","Obsidian","04","true","5","5","",""
"","","","","","","","","","","","html-keyboard-response","294","2.0.0","805641","665a86de9e0feaeeb7f061ba","1","3","null","","","","","","","","","<p style='font-size: 30px;'><strong>Okay</strong></p>","null","neutral_feedback","1","test","45","","","","","","","",""
"","","","","","","","","","","","html-button-response","295","2.0.0","806639","665a86de9e0feaeeb7f061ba","1","3","996","","","","","","","","","<img src= ""rock_img/I_Basalt_08.jpg"" style=""width:8cm; height:10.44cm;""><p>What type of rock is this?</p>","1","class_response","1","test","46","Basalt","Basalt","08","true","2","2","",""
"","","","","","","","","","","","html-keyboard-response","296","2.0.0","807142","665a86de9e0feaeeb7f061ba","1","3","null","","","","","","","","","<p style='font-size: 30px;'><strong>Okay</strong></p>","null","neutral_feedback","1","test","46","","","","","","","",""
"","","","","","","","","","","","html-button-response","297","2.0.0","809053","665a86de9e0feaeeb7f061ba","1","3","1909","","","","","","","","","<img src= ""rock_img/I_Pumice_13.jpg"" style=""width:8cm; height:8.200000000000001cm;""><p>What type of rock is this?</p>","7","class_response","1","test","47","Pumice","Pumice","13","true","8","8","",""
"","","","","","","","","","","","html-keyboard-response","298","2.0.0","809560","665a86de9e0feaeeb7f061ba","1","3","null","","","","","","","","","<p style='font-size: 30px;'><strong>Okay</strong></p>","null","neutral_feedback","1","test","47","","","","","","","",""
"","","","","","","","","","","","html-button-response","299","2.0.0","810689","665a86de9e0feaeeb7f061ba","1","3","1127","","","","","","","","","<img src= ""rock_img/I_Peridotite_08.jpg"" style=""width:8cm; height:6.7cm;""><p>What type of rock is this?</p>","6","class_response","1","test","48","Peridotite","Peridotite","08","true","7","7","",""
"","","","","","","","","","","","html-keyboard-response","300","2.0.0","811196","665a86de9e0feaeeb7f061ba","1","3","null","","","","","","","","","<p style='font-size: 30px;'><strong>Okay</strong></p>","null","neutral_feedback","1","test","48","","","","","","","",""
"","","","","","","","","","","","html-button-response","301","2.0.0","843695","665a86de9e0feaeeb7f061ba","1","3","","","","","","","","","","","","cycle_feedback","","","","","","","","","","19903.299999998882","12587.900000000373"
"","","","","","","","","","","","html-button-response","303","2.0.0","846113","665a86de9e0feaeeb7f061ba","1","3","2417","","","","","","","","","","0","start_train","","","","","","","","","","",""
"","","","","","","","","","","","html-button-response","304","2.0.0","853517","665a86de9e0feaeeb7f061ba","1","3","7403","","","","","","","","","<img src= ""rock_img/I_Diorite_09.jpg"" style=""width:8cm; height:5.27cm;""><p>What type of rock is this?</p>","2","class_response","2","train","1","Diorite","Diorite","09","true","3","3","",""
"","","","","","","","","","","","html-button-response","305","2.0.0","856103","665a86de9e0feaeeb7f061ba","1","3","2586","","","","","","","","","<img src= rock_img/I_Diorite_09.jpg style=""width:8cm; height:5.27cm;""><p style='font-size: 30px; color: green;'><strong>Correct!</strong></p><p style='font-size: 30px;'><strong>This rock is diorite</strong></p>","0","corr_feedback","2","train","1","","","","","","","",""
