"width","height","webaudio","browser","browser_version","mobile","os","fullscreen","vsync_rate","webcam","microphone","trial_type","trial_index","plugin_version","time_elapsed","subjID","condition","stimID","rt","url","success","value","timeout","failed_images","failed_audio","failed_video","view_history","stimulus","response","trialType","cycle","phase","trial","resp","cat","token","corr","resp_num","cat_num","time_fb1","time_fb2"
"985","993","true","chrome","130.0.0","false","Chrome OS","true","60.68","true","true","browser-check","0","2.0.0","1001","66463e4efb99fba5a67a010a","1","33","","","","","","","","","","","","","","","","","","","","","","",""
"","","","","","","","","","","","external-html","1","2.0.0","193111","66463e4efb99fba5a67a010a","1","33","192027","consent_form.html","","","","","","","","","","","","","","","","","","","","",""
"","","","","","","","","","","","fullscreen","2","2.0.0","195322","66463e4efb99fba5a67a010a","1","33","1201","","true","","","","","","","","","","","","","","","","","","","",""
"","","","","","","","","","","","call-function","3","2.0.0","195325","66463e4efb99fba5a67a010a","1","33","","","","{}","","","","","","","","","","","","","","","","","","",""
"","","","","","","","","","","","preload","4","2.0.0","196703","66463e4efb99fba5a67a010a","1","33","","","true","","false","[]","[]","[]","","","","","","","","","","","","","","",""
"","","","","","","","","","","","instructions","5","2.0.0","216996","66463e4efb99fba5a67a010a","1","33","20290","","","","","","","","[{""page_index"":0,""viewing_time"":3455},{""page_index"":1,""viewing_time"":5510},{""page_index"":2,""viewing_time"":11325}]","","","","","","","","","","","","","",""
"","","","","","","","","","","","html-button-response","6","2.0.0","219868","66463e4efb99fba5a67a010a","1","33","2868","","","","","","","","","","0","start_test","","","","","","","","","","",""
"","","","","","","","","","","","html-button-response","7","2.0.0","222916","66463e4efb99fba5a67a010a","1","33","3044","","","","","","","","","<img src= ""rock_img/I_Peridotite_08.jpg"" style=""width:8cm; height:6.7cm;""><p>What type of rock is this?</p>","1","class_response","0","test","1","Basalt","Peridotite","08","false","2","7","",""
"","","","","","","","","","","","html-keyboard-response","8","2.0.0","223420","66463e4efb99fba5a67a010a","1","33","null","","","","","","","","","<p style='font-size: 30px;'><strong>Okay</strong></p>","null","neutral_feedback","0","test","1","","","","","","","",""
"","","","","","","","","","","","html-button-response","9","2.0.0","226826","66463e4efb99fba5a67a010a","1","33","3402","","","","","","","","","<img src= ""rock_img/I_Pegmatite_12.jpg"" style=""width:8cm; height:5.7cm;""><p>What type of rock is this?</p>","5","class_response","0","test","2","Pegmatite","Pegmatite","12","true","6","6","",""
"","","","","","","","","","","","html-keyboard-response","10","2.0.0","227327","66463e4efb99fba5a67a010a","1","33","null","","","","","","","","","<p style='font-size: 30px;'><strong>Okay</strong></p>","null","neutral_feedback","0","test","2","","","","","","","",""
"","","","","","","","","","","","html-button-response","11","2.0.0","228805","66463e4efb99fba5a67a010a","1","33","1473","","","","","","","","","<img src= ""rock_img/I_Pumice_06.jpg"" style=""width:8cm; height:6.9399999999999995cm;""><p>What type of rock is this?</p>","0","class_response","0","test","3","Andesite","Pumice","06","false","1","8","",""
"","","","","","","","","","","","html-keyboard-response","12","2.0.0","229306","66463e4efb99fba5a67a010a","1","33","null","","","","","","","","","<p style='font-size: 30px;'><strong>Okay</strong></p>","null","neutral_feedback","0","test","3","","","","","","","",""
"","","","","","","","","","","","html-button-response","13","2.0.0","230456","66463e4efb99fba5a67a010a","1","33","1147","","","","","","","","","<img src= ""rock_img/I_Andesite_01.jpg"" style=""width:8cm; height:5.87cm;""><p>What type of rock is this?</p>","6","class_response","0","test","4","Peridotite","Andesite","01","false","7","1","",""
"","","","","","","","","","","","html-keyboard-response","14","2.0.0","230957","66463e4efb99fba5a67a010a","1","33","null","","","","","","","","","<p style='font-size: 30px;'><strong>Okay</strong></p>","null","neutral_feedback","0","test","4","","","","","","","",""
"","","","","","","","","","","","html-button-response","15","2.0.0","231889","66463e4efb99fba5a67a010a","1","33","930","","","","","","","","","<img src= ""rock_img/I_Pegmatite_10.jpg"" style=""width:8cm; height:4.16cm;""><p>What type of rock is this?</p>","7","class_response","0","test","5","Pumice","Pegmatite","10","false","8","6","",""
"","","","","","","","","","","","html-keyboard-response","16","2.0.0","232390","66463e4efb99fba5a67a010a","1","33","null","","","","","","","","","<p style='font-size: 30px;'><strong>Okay</strong></p>","null","neutral_feedback","0","test","5","","","","","","","",""
"","","","","","","","","","","","html-button-response","17","2.0.0","232976","66463e4efb99fba5a67a010a","1","33","583","","","","","","","","","<img src= ""rock_img/I_Pegmatite_03.jpg"" style=""width:8cm; height:5.239999999999999cm;""><p>What type of rock is this?</p>","3","class_response","0","test","6","Gabbro","Pegmatite","03","false","4","6","",""
"","","","","","","","","","","","html-keyboard-response","18","2.0.0","233477","66463e4efb99fba5a67a010a","1","33","null","","","","","","","","","<p style='font-size: 30px;'><strong>Okay</strong></p>","null","neutral_feedback","0","test","6","","","","","","","",""
"","","","","","","","","","","","html-button-response","19","2.0.0","233972","66463e4efb99fba5a67a010a","1","33","493","","","","","","","","","<img src= ""rock_img/I_Basalt_10.jpg"" style=""width:8cm; height:5.85cm;""><p>What type of rock is this?</p>","2","class_response","0","test","7","Diorite","Basalt","10","false","3","2","",""
"","","","","","","","","","","","html-keyboard-response","20","2.0.0","234473","66463e4efb99fba5a67a010a","1","33","null","","","","","","","","","<p style='font-size: 30px;'><strong>Okay</strong></p>","null","neutral_feedback","0","test","7","","","","","","","",""
"","","","","","","","","","","","html-button-response","21","2.0.0","235117","66463e4efb99fba5a67a010a","1","33","642","","","","","","","","","<img src= ""rock_img/I_Pegmatite_06.jpg"" style=""width:8cm; height:5.17cm;""><p>What type of rock is this?</p>","5","class_response","0","test","8","Pegmatite","Pegmatite","06","true","6","6","",""
"","","","","","","","","","","","html-keyboard-response","22","2.0.0","235618","66463e4efb99fba5a67a010a","1","33","null","","","","","","","","","<p style='font-size: 30px;'><strong>Okay</strong></p>","null","neutral_feedback","0","test","8","","","","","","","",""
"","","","","","","","","","","","html-button-response","23","2.0.0","236749","66463e4efb99fba5a67a010a","1","33","1129","","","","","","","","","<img src= ""rock_img/I_Pumice_14.jpg"" style=""width:8cm; height:6.39cm;""><p>What type of rock is this?</p>","4","class_response","0","test","9","Obsidian","Pumice","14","false","5","8","",""
"","","","","","","","","","","","html-keyboard-response","24","2.0.0","237251","66463e4efb99fba5a67a010a","1","33","null","","","","","","","","","<p style='font-size: 30px;'><strong>Okay</strong></p>","null","neutral_feedback","0","test","9","","","","","","","",""
"","","","","","","","","","","","html-button-response","25","2.0.0","238082","66463e4efb99fba5a67a010a","1","33","829","","","","","","","","","<img src= ""rock_img/I_Andesite_06.jpg"" style=""width:8cm; height:6.840000000000001cm;""><p>What type of rock is this?</p>","0","class_response","0","test","10","Andesite","Andesite","06","true","1","1","",""
"","","","","","","","","","","","html-keyboard-response","26","2.0.0","238583","66463e4efb99fba5a67a010a","1","33","null","","","","","","","","","<p style='font-size: 30px;'><strong>Okay</strong></p>","null","neutral_feedback","0","test","10","","","","","","","",""
"","","","","","","","","","","","html-button-response","27","2.0.0","239244","66463e4efb99fba5a67a010a","1","33","658","","","","","","","","","<img src= ""rock_img/I_Andesite_10.jpg"" style=""width:8cm; height:4.16cm;""><p>What type of rock is this?</p>","5","class_response","0","test","11","Pegmatite","Andesite","10","false","6","1","",""
"","","","","","","","","","","","html-keyboard-response","28","2.0.0","239745","66463e4efb99fba5a67a010a","1","33","null","","","","","","","","","<p style='font-size: 30px;'><strong>Okay</strong></p>","null","neutral_feedback","0","test","11","","","","","","","",""
"","","","","","","","","","","","html-button-response","29","2.0.0","240845","66463e4efb99fba5a67a010a","1","33","1097","","","","","","","","","<img src= ""rock_img/I_Diorite_14.jpg"" style=""width:8cm; height:5.71cm;""><p>What type of rock is this?</p>","2","class_response","0","test","12","Diorite","Diorite","14","true","3","3","",""
"","","","","","","","","","","","html-keyboard-response","30","2.0.0","241346","66463e4efb99fba5a67a010a","1","33","null","","","","","","","","","<p style='font-size: 30px;'><strong>Okay</strong></p>","null","neutral_feedback","0","test","12","","","","","","","",""
"","","","","","","","","","","","html-button-response","31","2.0.0","243509","66463e4efb99fba5a67a010a","1","33","2161","","","","","","","","","<img src= ""rock_img/I_Obsidian_16.jpg"" style=""width:8cm; height:9.3cm;""><p>What type of rock is this?</p>","6","class_response","0","test","13","Peridotite","Obsidian","16","false","7","5","",""
"","","","","","","","","","","","html-keyboard-response","32","2.0.0","244011","66463e4efb99fba5a67a010a","1","33","null","","","","","","","","","<p style='font-size: 30px;'><strong>Okay</strong></p>","null","neutral_feedback","0","test","13","","","","","","","",""
"","","","","","","","","","","","html-button-response","33","2.0.0","245556","66463e4efb99fba5a67a010a","1","33","1543","","","","","","","","","<img src= ""rock_img/I_Pumice_09.jpg"" style=""width:8cm; height:6.44cm;""><p>What type of rock is this?</p>","7","class_response","0","test","14","Pumice","Pumice","09","true","8","8","",""
"","","","","","","","","","","","html-keyboard-response","34","2.0.0","246058","66463e4efb99fba5a67a010a","1","33","null","","","","","","","","","<p style='font-size: 30px;'><strong>Okay</strong></p>","null","neutral_feedback","0","test","14","","","","","","","",""
"","","","","","","","","","","","html-button-response","35","2.0.0","247547","66463e4efb99fba5a67a010a","1","33","1487","","","","","","","","","<img src= ""rock_img/I_Basalt_08.jpg"" style=""width:8cm; height:10.44cm;""><p>What type of rock is this?</p>","3","class_response","0","test","15","Gabbro","Basalt","08","false","4","2","",""
"","","","","","","","","","","","html-keyboard-response","36","2.0.0","248049","66463e4efb99fba5a67a010a","1","33","null","","","","","","","","","<p style='font-size: 30px;'><strong>Okay</strong></p>","null","neutral_feedback","0","test","15","","","","","","","",""
"","","","","","","","","","","","html-button-response","37","2.0.0","249547","66463e4efb99fba5a67a010a","1","33","1496","","","","","","","","","<img src= ""rock_img/I_Obsidian_12.jpg"" style=""width:8cm; height:6.53cm;""><p>What type of rock is this?</p>","1","class_response","0","test","16","Basalt","Obsidian","12","false","2","5","",""
"","","","","","","","","","","","html-keyboard-response","38","2.0.0","250049","66463e4efb99fba5a67a010a","1","33","null","","","","","","","","","<p style='font-size: 30px;'><strong>Okay</strong></p>","null","neutral_feedback","0","test","16","","","","","","","",""
"","","","","","","","","","","","html-button-response","39","2.0.0","250797","66463e4efb99fba5a67a010a","1","33","746","","","","","","","","","<img src= ""rock_img/I_Obsidian_05.jpg"" style=""width:8cm; height:6.33cm;""><p>What type of rock is this?</p>","5","class_response","0","test","17","Pegmatite","Obsidian","05","false","6","5","",""
"","","","","","","","","","","","html-keyboard-response","40","2.0.0","251299","66463e4efb99fba5a67a010a","1","33","null","","","","","","","","","<p style='font-size: 30px;'><strong>Okay</strong></p>","null","neutral_feedback","0","test","17","","","","","","","",""
"","","","","","","","","","","","html-button-response","41","2.0.0","251891","66463e4efb99fba5a67a010a","1","33","590","","","","","","","","","<img src= ""rock_img/I_Andesite_09.jpg"" style=""width:8cm; height:6cm;""><p>What type of rock is this?</p>","2","class_response","0","test","18","Diorite","Andesite","09","false","3","1","",""
"","","","","","","","","","","","html-keyboard-response","42","2.0.0","252392","66463e4efb99fba5a67a010a","1","33","null","","","","","","","","","<p style='font-size: 30px;'><strong>Okay</strong></p>","null","neutral_feedback","0","test","18","","","","","","","",""
"","","","","","","","","","","","html-button-response","43","2.0.0","254185","66463e4efb99fba5a67a010a","1","33","1790","","","","","","","","","<img src= ""rock_img/I_Peridotite_05.jpg"" style=""width:8cm; height:7.1499999999999995cm;""><p>What type of rock is this?</p>","6","class_response","0","test","19","Peridotite","Peridotite","05","true","7","7","",""
"","","","","","","","","","","","html-keyboard-response","44","2.0.0","254686","66463e4efb99fba5a67a010a","1","33","null","","","","","","","","","<p style='font-size: 30px;'><strong>Okay</strong></p>","null","neutral_feedback","0","test","19","","","","","","","",""
"","","","","","","","","","","","html-button-response","45","2.0.0","255514","66463e4efb99fba5a67a010a","1","33","825","","","","","","","","","<img src= ""rock_img/I_Pumice_02.jpg"" style=""width:8cm; height:7.3999999999999995cm;""><p>What type of rock is this?</p>","7","class_response","0","test","20","Pumice","Pumice","02","true","8","8","",""
"","","","","","","","","","","","html-keyboard-response","46","2.0.0","256015","66463e4efb99fba5a67a010a","1","33","null","","","","","","","","","<p style='font-size: 30px;'><strong>Okay</strong></p>","null","neutral_feedback","0","test","20","","","","","","","",""
"","","","","","","","","","","","html-button-response","47","2.0.0","256832","66463e4efb99fba5a67a010a","1","33","814","","","","","","","","","<img src= ""rock_img/I_Andesite_02.jpg"" style=""width:8cm; height:8.5cm;""><p>What type of rock is this?</p>","0","class_response","0","test","21","Andesite","Andesite","02","true","1","1","",""
"","","","","","","","","","","","html-keyboard-response","48","2.0.0","257334","66463e4efb99fba5a67a010a","1","33","null","","","","","","","","","<p style='font-size: 30px;'><strong>Okay</strong></p>","null","neutral_feedback","0","test","21","","","","","","","",""
"","","","","","","","","","","","html-button-response","49","2.0.0","258578","66463e4efb99fba5a67a010a","1","33","1243","","","","","","","","","<img src= ""rock_img/I_Pegmatite_15.jpg"" style=""width:8cm; height:6cm;""><p>What type of rock is this?</p>","1","class_response","0","test","22","Basalt","Pegmatite","15","false","2","6","",""
"","","","","","","","","","","","html-keyboard-response","50","2.0.0","259080","66463e4efb99fba5a67a010a","1","33","null","","","","","","","","","<p style='font-size: 30px;'><strong>Okay</strong></p>","null","neutral_feedback","0","test","22","","","","","","","",""
"","","","","","","","","","","","html-button-response","51","2.0.0","260165","66463e4efb99fba5a67a010a","1","33","1081","","","","","","","","","<img src= ""rock_img/I_Basalt_04.jpg"" style=""width:8cm; height:7.53cm;""><p>What type of rock is this?</p>","5","class_response","0","test","23","Pegmatite","Basalt","04","false","6","2","",""
"","","","","","","","","","","","html-keyboard-response","52","2.0.0","260666","66463e4efb99fba5a67a010a","1","33","null","","","","","","","","","<p style='font-size: 30px;'><strong>Okay</strong></p>","null","neutral_feedback","0","test","23","","","","","","","",""
"","","","","","","","","","","","html-button-response","53","2.0.0","261313","66463e4efb99fba5a67a010a","1","33","645","","","","","","","","","<img src= ""rock_img/I_Gabbro_16.jpg"" style=""width:8cm; height:6.44cm;""><p>What type of rock is this?</p>","6","class_response","0","test","24","Peridotite","Gabbro","16","false","7","4","",""
"","","","","","","","","","","","html-keyboard-response","54","2.0.0","261814","66463e4efb99fba5a67a010a","1","33","null","","","","","","","","","<p style='font-size: 30px;'><strong>Okay</strong></p>","null","neutral_feedback","0","test","24","","","","","","","",""
"","","","","","","","","","","","html-button-response","55","2.0.0","262359","66463e4efb99fba5a67a010a","1","33","542","","","","","","","","","<img src= ""rock_img/I_Basalt_16.jpg"" style=""width:8cm; height:7.659999999999999cm;""><p>What type of rock is this?</p>","2","class_response","0","test","25","Diorite","Basalt","16","false","3","2","",""
"","","","","","","","","","","","html-keyboard-response","56","2.0.0","262860","66463e4efb99fba5a67a010a","1","33","null","","","","","","","","","<p style='font-size: 30px;'><strong>Okay</strong></p>","null","neutral_feedback","0","test","25","","","","","","","",""
"","","","","","","","","","","","html-button-response","57","2.0.0","263434","66463e4efb99fba5a67a010a","1","33","573","","","","","","","","","<img src= ""rock_img/I_Basalt_11.jpg"" style=""width:8cm; height:5.359999999999999cm;""><p>What type of rock is this?</p>","0","class_response","0","test","26","Andesite","Basalt","11","false","1","2","",""
"","","","","","","","","","","","html-keyboard-response","58","2.0.0","263936","66463e4efb99fba5a67a010a","1","33","null","","","","","","","","","<p style='font-size: 30px;'><strong>Okay</strong></p>","null","neutral_feedback","0","test","26","","","","","","","",""
"","","","","","","","","","","","html-button-response","59","2.0.0","265124","66463e4efb99fba5a67a010a","1","33","1186","","","","","","","","","<img src= ""rock_img/I_Andesite_16.jpg"" style=""width:8cm; height:6.010000000000001cm;""><p>What type of rock is this?</p>","4","class_response","0","test","27","Obsidian","Andesite","16","false","5","1","",""
"","","","","","","","","","","","html-keyboard-response","60","2.0.0","265625","66463e4efb99fba5a67a010a","1","33","null","","","","","","","","","<p style='font-size: 30px;'><strong>Okay</strong></p>","null","neutral_feedback","0","test","27","","","","","","","",""
"","","","","","","","","","","","html-button-response","61","2.0.0","266382","66463e4efb99fba5a67a010a","1","33","756","","","","","","","","","<img src= ""rock_img/I_Pegmatite_05.jpg"" style=""width:8cm; height:7.300000000000001cm;""><p>What type of rock is this?</p>","2","class_response","0","test","28","Diorite","Pegmatite","05","false","3","6","",""
"","","","","","","","","","","","html-keyboard-response","62","2.0.0","266884","66463e4efb99fba5a67a010a","1","33","null","","","","","","","","","<p style='font-size: 30px;'><strong>Okay</strong></p>","null","neutral_feedback","0","test","28","","","","","","","",""
"","","","","","","","","","","","html-button-response","63","2.0.0","267815","66463e4efb99fba5a67a010a","1","33","929","","","","","","","","","<img src= ""rock_img/I_Peridotite_07.jpg"" style=""width:8cm; height:4.83cm;""><p>What type of rock is this?</p>","1","class_response","0","test","29","Basalt","Peridotite","07","false","2","7","",""
"","","","","","","","","","","","html-keyboard-response","64","2.0.0","268317","66463e4efb99fba5a67a010a","1","33","null","","","","","","","","","<p style='font-size: 30px;'><strong>Okay</strong></p>","null","neutral_feedback","0","test","29","","","","","","","",""
"","","","","","","","","","","","html-button-response","65","2.0.0","268925","66463e4efb99fba5a67a010a","1","33","607","","","","","","","","","<img src= ""rock_img/I_Diorite_16.jpg"" style=""width:8cm; height:6.74cm;""><p>What type of rock is this?</p>","6","class_response","0","test","30","Peridotite","Diorite","16","false","7","3","",""
"","","","","","","","","","","","html-keyboard-response","66","2.0.0","269427","66463e4efb99fba5a67a010a","1","33","null","","","","","","","","","<p style='font-size: 30px;'><strong>Okay</strong></p>","null","neutral_feedback","0","test","30","","","","","","","",""
"","","","","","","","","","","","html-button-response","67","2.0.0","269927","66463e4efb99fba5a67a010a","1","33","498","","","","","","","","","<img src= ""rock_img/I_Gabbro_14.jpg"" style=""width:8cm; height:8.48cm;""><p>What type of rock is this?</p>","3","class_response","0","test","31","Gabbro","Gabbro","14","true","4","4","",""
"","","","","","","","","","","","html-keyboard-response","68","2.0.0","270430","66463e4efb99fba5a67a010a","1","33","null","","","","","","","","","<p style='font-size: 30px;'><strong>Okay</strong></p>","null","neutral_feedback","0","test","31","","","","","","","",""
"","","","","","","","","","","","html-button-response","69","2.0.0","270900","66463e4efb99fba5a67a010a","1","33","467","","","","","","","","","<img src= ""rock_img/I_Obsidian_08.jpg"" style=""width:8cm; height:7.39cm;""><p>What type of rock is this?</p>","7","class_response","0","test","32","Pumice","Obsidian","08","false","8","5","",""
"","","","","","","","","","","","html-keyboard-response","70","2.0.0","271401","66463e4efb99fba5a67a010a","1","33","null","","","","","","","","","<p style='font-size: 30px;'><strong>Okay</strong></p>","null","neutral_feedback","0","test","32","","","","","","","",""
"","","","","","","","","","","","html-button-response","71","2.0.0","272069","66463e4efb99fba5a67a010a","1","33","666","","","","","","","","","<img src= ""rock_img/I_Diorite_02.jpg"" style=""width:8cm; height:6.27cm;""><p>What type of rock is this?</p>","2","class_response","0","test","33","Diorite","Diorite","02","true","3","3","",""
"","","","","","","","","","","","html-keyboard-response","72","2.0.0","272570","66463e4efb99fba5a67a010a","1","33","null","","","","","","","","","<p style='font-size: 30px;'><strong>Okay</strong></p>","null","neutral_feedback","0","test","33","","","","","","","",""
"","","","","","","","","","","","html-button-response","73","2.0.0","273437","66463e4efb99fba5a67a010a","1","33","864","","","","","","","","","<img src= ""rock_img/I_Gabbro_03.jpg"" style=""width:8cm; height:8.52cm;""><p>What type of rock is this?</p>","1","class_response","0","test","34","Basalt","Gabbro","03","false","2","4","",""
"","","","","","","","","","","","html-keyboard-response","74","2.0.0","273938","66463e4efb99fba5a67a010a","1","33","null","","","","","","","","","<p style='font-size: 30px;'><strong>Okay</strong></p>","null","neutral_feedback","0","test","34","","","","","","","",""
"","","","","","","","","","","","html-button-response","75","2.0.0","274863","66463e4efb99fba5a67a010a","1","33","921","","","","","","","","","<img src= ""rock_img/I_Diorite_15.jpg"" style=""width:8cm; height:5.54cm;""><p>What type of rock is this?</p>","5","class_response","0","test","35","Pegmatite","Diorite","15","false","6","3","",""
"","","","","","","","","","","","html-keyboard-response","76","2.0.0","275365","66463e4efb99fba5a67a010a","1","33","null","","","","","","","","","<p style='font-size: 30px;'><strong>Okay</strong></p>","null","neutral_feedback","0","test","35","","","","","","","",""
"","","","","","","","","","","","html-button-response","77","2.0.0","275813","66463e4efb99fba5a67a010a","1","33","447","","","","","","","","","<img src= ""rock_img/I_Gabbro_10.jpg"" style=""width:8cm; height:5.680000000000001cm;""><p>What type of rock is this?</p>","6","class_response","0","test","36","Peridotite","Gabbro","10","false","7","4","",""
"","","","","","","","","","","","html-keyboard-response","78","2.0.0","276314","66463e4efb99fba5a67a010a","1","33","null","","","","","","","","","<p style='font-size: 30px;'><strong>Okay</strong></p>","null","neutral_feedback","0","test","36","","","","","","","",""
"","","","","","","","","","","","html-button-response","79","2.0.0","277202","66463e4efb99fba5a67a010a","1","33","886","","","","","","","","","<img src= ""rock_img/I_Peridotite_16.jpg"" style=""width:8cm; height:6.989999999999999cm;""><p>What type of rock is this?</p>","2","class_response","0","test","37","Diorite","Peridotite","16","false","3","7","",""
"","","","","","","","","","","","html-keyboard-response","80","2.0.0","277703","66463e4efb99fba5a67a010a","1","33","null","","","","","","","","","<p style='font-size: 30px;'><strong>Okay</strong></p>","null","neutral_feedback","0","test","37","","","","","","","",""
"","","","","","","","","","","","html-button-response","81","2.0.0","278756","66463e4efb99fba5a67a010a","1","33","1051","","","","","","","","","<img src= ""rock_img/I_Gabbro_08.jpg"" style=""width:8cm; height:5.15cm;""><p>What type of rock is this?</p>","0","class_response","0","test","38","Andesite","Gabbro","08","false","1","4","",""
"","","","","","","","","","","","html-keyboard-response","82","2.0.0","279258","66463e4efb99fba5a67a010a","1","33","null","","","","","","","","","<p style='font-size: 30px;'><strong>Okay</strong></p>","null","neutral_feedback","0","test","38","","","","","","","",""
"","","","","","","","","","","","html-button-response","83","2.0.0","279667","66463e4efb99fba5a67a010a","1","33","407","","","","","","","","","<img src= ""rock_img/I_Diorite_09.jpg"" style=""width:8cm; height:5.27cm;""><p>What type of rock is this?</p>","5","class_response","0","test","39","Pegmatite","Diorite","09","false","6","3","",""
"","","","","","","","","","","","html-keyboard-response","84","2.0.0","280168","66463e4efb99fba5a67a010a","1","33","null","","","","","","","","","<p style='font-size: 30px;'><strong>Okay</strong></p>","null","neutral_feedback","0","test","39","","","","","","","",""
"","","","","","","","","","","","html-button-response","85","2.0.0","281045","66463e4efb99fba5a67a010a","1","33","875","","","","","","","","","<img src= ""rock_img/I_Obsidian_06.jpg"" style=""width:8cm; height:6.8cm;""><p>What type of rock is this?</p>","3","class_response","0","test","40","Gabbro","Obsidian","06","false","4","5","",""
"","","","","","","","","","","","html-keyboard-response","86","2.0.0","281546","66463e4efb99fba5a67a010a","1","33","null","","","","","","","","","<p style='font-size: 30px;'><strong>Okay</strong></p>","null","neutral_feedback","0","test","40","","","","","","","",""
"","","","","","","","","","","","html-button-response","87","2.0.0","282030","66463e4efb99fba5a67a010a","1","33","482","","","","","","","","","<img src= ""rock_img/I_Pumice_05.jpg"" style=""width:8cm; height:7.25cm;""><p>What type of rock is this?</p>","7","class_response","0","test","41","Pumice","Pumice","05","true","8","8","",""
"","","","","","","","","","","","html-keyboard-response","88","2.0.0","282531","66463e4efb99fba5a67a010a","1","33","null","","","","","","","","","<p style='font-size: 30px;'><strong>Okay</strong></p>","null","neutral_feedback","0","test","41","","","","","","","",""
"","","","","","","","","","","","html-button-response","89","2.0.0","283125","66463e4efb99fba5a67a010a","1","33","592","","","","","","","","","<img src= ""rock_img/I_Obsidian_09.jpg"" style=""width:8cm; height:5cm;""><p>What type of rock is this?</p>","1","class_response","0","test","42","Basalt","Obsidian","09","false","2","5","",""
"","","","","","","","","","","","html-keyboard-response","90","2.0.0","283626","66463e4efb99fba5a67a010a","1","33","null","","","","","","","","","<p style='font-size: 30px;'><strong>Okay</strong></p>","null","neutral_feedback","0","test","42","","","","","","","",""
"","","","","","","","","","","","html-button-response","91","2.0.0","284500","66463e4efb99fba5a67a010a","1","33","871","","","","","","","","","<img src= ""rock_img/I_Pumice_03.jpg"" style=""width:8cm; height:6.64cm;""><p>What type of rock is this?</p>","2","class_response","0","test","43","Diorite","Pumice","03","false","3","8","",""
"","","","","","","","","","","","html-keyboard-response","92","2.0.0","285002","66463e4efb99fba5a67a010a","1","33","null","","","","","","","","","<p style='font-size: 30px;'><strong>Okay</strong></p>","null","neutral_feedback","0","test","43","","","","","","","",""
"","","","","","","","","","","","html-button-response","93","2.0.0","285480","66463e4efb99fba5a67a010a","1","33","477","","","","","","","","","<img src= ""rock_img/I_Diorite_10.jpg"" style=""width:8cm; height:5.949999999999999cm;""><p>What type of rock is this?</p>","4","class_response","0","test","44","Obsidian","Diorite","10","false","5","3","",""
"","","","","","","","","","","","html-keyboard-response","94","2.0.0","285982","66463e4efb99fba5a67a010a","1","33","null","","","","","","","","","<p style='font-size: 30px;'><strong>Okay</strong></p>","null","neutral_feedback","0","test","44","","","","","","","",""
"","","","","","","","","","","","html-button-response","95","2.0.0","286555","66463e4efb99fba5a67a010a","1","33","571","","","","","","","","","<img src= ""rock_img/I_Peridotite_04.jpg"" style=""width:8cm; height:6.680000000000001cm;""><p>What type of rock is this?</p>","6","class_response","0","test","45","Peridotite","Peridotite","04","true","7","7","",""
"","","","","","","","","","","","html-keyboard-response","96","2.0.0","287057","66463e4efb99fba5a67a010a","1","33","null","","","","","","","","","<p style='font-size: 30px;'><strong>Okay</strong></p>","null","neutral_feedback","0","test","45","","","","","","","",""
"","","","","","","","","","","","html-button-response","97","2.0.0","287437","66463e4efb99fba5a67a010a","1","33","379","","","","","","","","","<img src= ""rock_img/I_Basalt_06.jpg"" style=""width:8cm; height:7.06cm;""><p>What type of rock is this?</p>","1","class_response","0","test","46","Basalt","Basalt","06","true","2","2","",""
"","","","","","","","","","","","html-keyboard-response","98","2.0.0","287939","66463e4efb99fba5a67a010a","1","33","null","","","","","","","","","<p style='font-size: 30px;'><strong>Okay</strong></p>","null","neutral_feedback","0","test","46","","","","","","","",""
"","","","","","","","","","","","html-button-response","99","2.0.0","288726","66463e4efb99fba5a67a010a","1","33","786","","","","","","","","","<img src= ""rock_img/I_Gabbro_13.jpg"" style=""width:8cm; height:5.08cm;""><p>What type of rock is this?</p>","0","class_response","0","test","47","Andesite","Gabbro","13","false","1","4","",""
"","","","","","","","","","","","html-keyboard-response","100","2.0.0","289227","66463e4efb99fba5a67a010a","1","33","null","","","","","","","","","<p style='font-size: 30px;'><strong>Okay</strong></p>","null","neutral_feedback","0","test","47","","","","","","","",""
"","","","","","","","","","","","html-button-response","101","2.0.0","289599","66463e4efb99fba5a67a010a","1","33","369","","","","","","","","","<img src= ""rock_img/I_Peridotite_13.jpg"" style=""width:8cm; height:7.58cm;""><p>What type of rock is this?</p>","2","class_response","0","test","48","Diorite","Peridotite","13","false","3","7","",""
"","","","","","","","","","","","html-keyboard-response","102","2.0.0","290101","66463e4efb99fba5a67a010a","1","33","null","","","","","","","","","<p style='font-size: 30px;'><strong>Okay</strong></p>","null","neutral_feedback","0","test","48","","","","","","","",""
"","","","","","","","","","","","instructions","103","2.0.0","303628","66463e4efb99fba5a67a010a","1","33","13504","","","","","","","","[{""page_index"":0,""viewing_time"":6703},{""page_index"":1,""viewing_time"":4681},{""page_index"":2,""viewing_time"":2121}]","","","","","","","","","","","","","",""
"","","","","","","","","","","","html-button-response","104","2.0.0","306012","66463e4efb99fba5a67a010a","1","33","2382","","","","","","","","","","0","start_train","","","","","","","","","","",""
"","","","","","","","","","","","html-button-response","105","2.0.0","308106","66463e4efb99fba5a67a010a","1","33","2092","","","","","","","","","<img src= ""rock_img/I_Basalt_14.jpg"" style=""width:8cm; height:5.82cm;""><p>What type of rock is this?</p>","1","class_response","1","train","1","Basalt","Basalt","14","true","2","2","",""
"","","","","","","","","","","","html-button-response","106","2.0.0","310101","66463e4efb99fba5a67a010a","1","33","1993","","","","","","","","","<img src= rock_img/I_Basalt_14.jpg style=""width:8cm; height:5.82cm;""><p style='font-size: 30px; color: green;'><strong>Correct!</strong></p><p style='font-size: 30px;'><strong>This rock is basalt</strong></p>","0","corr_feedback","1","train","1","","","","","","","",""
"","","","","","","","","","","","html-button-response","107","2.0.0","311620","66463e4efb99fba5a67a010a","1","33","1517","","","","","","","","","<img src= ""rock_img/I_Peridotite_06.jpg"" style=""width:8cm; height:7.53cm;""><p>What type of rock is this?</p>","2","class_response","1","train","2","Diorite","Peridotite","06","false","3","7","",""
"","","","","","","","","","","","html-button-response","108","2.0.0","313410","66463e4efb99fba5a67a010a","1","33","1789","","","","","","","","","<img src= rock_img/I_Peridotite_06.jpg style=""width:8cm; height:7.53cm;""><p style='font-size: 30px; color: red;'><strong>Incorrect!</strong></p><p style='font-size: 30px;'><strong>This rock is peridotite</strong></p>","0","corr_feedback","1","train","2","","","","","","","",""
"","","","","","","","","","","","html-button-response","109","2.0.0","315933","66463e4efb99fba5a67a010a","1","33","2520","","","","","","","","","<img src= ""rock_img/I_Pegmatite_16.jpg"" style=""width:8cm; height:5.8cm;""><p>What type of rock is this?</p>","7","class_response","1","train","3","Pumice","Pegmatite","16","false","8","6","",""
"","","","","","","","","","","","html-button-response","110","2.0.0","317721","66463e4efb99fba5a67a010a","1","33","1787","","","","","","","","","<img src= rock_img/I_Pegmatite_16.jpg style=""width:8cm; height:5.8cm;""><p style='font-size: 30px; color: red;'><strong>Incorrect!</strong></p><p style='font-size: 30px;'><strong>This rock is pegmatite</strong></p>","0","corr_feedback","1","train","3","","","","","","","",""
"","","","","","","","","","","","html-button-response","111","2.0.0","319242","66463e4efb99fba5a67a010a","1","33","1519","","","","","","","","","<img src= ""rock_img/I_Gabbro_12.jpg"" style=""width:8cm; height:7.800000000000001cm;""><p>What type of rock is this?</p>","0","class_response","1","train","4","Andesite","Gabbro","12","false","1","4","",""
"","","","","","","","","","","","html-button-response","112","2.0.0","320772","66463e4efb99fba5a67a010a","1","33","1528","","","","","","","","","<img src= rock_img/I_Gabbro_12.jpg style=""width:8cm; height:7.800000000000001cm;""><p style='font-size: 30px; color: red;'><strong>Incorrect!</strong></p><p style='font-size: 30px;'><strong>This rock is gabbro</strong></p>","0","corr_feedback","1","train","4","","","","","","","",""
"","","","","","","","","","","","html-button-response","113","2.0.0","323829","66463e4efb99fba5a67a010a","1","33","3055","","","","","","","","","<img src= ""rock_img/I_Peridotite_10.jpg"" style=""width:8cm; height:5.390000000000001cm;""><p>What type of rock is this?</p>","2","class_response","1","train","5","Diorite","Peridotite","10","false","3","7","",""
"","","","","","","","","","","","html-button-response","114","2.0.0","325304","66463e4efb99fba5a67a010a","1","33","1473","","","","","","","","","<img src= rock_img/I_Peridotite_10.jpg style=""width:8cm; height:5.390000000000001cm;""><p style='font-size: 30px; color: red;'><strong>Incorrect!</strong></p><p style='font-size: 30px;'><strong>This rock is peridotite</strong></p>","0","corr_feedback","1","train","5","","","","","","","",""
"","","","","","","","","","","","html-button-response","115","2.0.0","326472","66463e4efb99fba5a67a010a","1","33","1166","","","","","","","","","<img src= ""rock_img/I_Obsidian_14.jpg"" style=""width:8cm; height:7.64cm;""><p>What type of rock is this?</p>","1","class_response","1","train","6","Basalt","Obsidian","14","false","2","5","",""
"","","","","","","","","","","","html-button-response","116","2.0.0","327853","66463e4efb99fba5a67a010a","1","33","1380","","","","","","","","","<img src= rock_img/I_Obsidian_14.jpg style=""width:8cm; height:7.64cm;""><p style='font-size: 30px; color: red;'><strong>Incorrect!</strong></p><p style='font-size: 30px;'><strong>This rock is obsidian</strong></p>","0","corr_feedback","1","train","6","","","","","","","",""
"","","","","","","","","","","","html-button-response","117","2.0.0","329405","66463e4efb99fba5a67a010a","1","33","1550","","","","","","","","","<img src= ""rock_img/I_Obsidian_11.jpg"" style=""width:8cm; height:6.05cm;""><p>What type of rock is this?</p>","4","class_response","1","train","7","Obsidian","Obsidian","11","true","5","5","",""
"","","","","","","","","","","","html-button-response","118","2.0.0","330461","66463e4efb99fba5a67a010a","1","33","1054","","","","","","","","","<img src= rock_img/I_Obsidian_11.jpg style=""width:8cm; height:6.05cm;""><p style='font-size: 30px; color: green;'><strong>Correct!</strong></p><p style='font-size: 30px;'><strong>This rock is obsidian</strong></p>","0","corr_feedback","1","train","7","","","","","","","",""
"","","","","","","","","","","","html-button-response","119","2.0.0","332522","66463e4efb99fba5a67a010a","1","33","2060","","","","","","","","","<img src= ""rock_img/I_Peridotite_14.jpg"" style=""width:8cm; height:5.3cm;""><p>What type of rock is this?</p>","6","class_response","1","train","8","Peridotite","Peridotite","14","true","7","7","",""
"","","","","","","","","","","","html-button-response","120","2.0.0","335329","66463e4efb99fba5a67a010a","1","33","2805","","","","","","","","","<img src= rock_img/I_Peridotite_14.jpg style=""width:8cm; height:5.3cm;""><p style='font-size: 30px; color: green;'><strong>Correct!</strong></p><p style='font-size: 30px;'><strong>This rock is peridotite</strong></p>","0","corr_feedback","1","train","8","","","","","","","",""
"","","","","","","","","","","","html-button-response","121","2.0.0","336447","66463e4efb99fba5a67a010a","1","33","1116","","","","","","","","","<img src= ""rock_img/I_Peridotite_12.jpg"" style=""width:8cm; height:4.54cm;""><p>What type of rock is this?</p>","6","class_response","1","train","9","Peridotite","Peridotite","12","true","7","7","",""
"","","","","","","","","","","","html-button-response","122","2.0.0","337334","66463e4efb99fba5a67a010a","1","33","885","","","","","","","","","<img src= rock_img/I_Peridotite_12.jpg style=""width:8cm; height:4.54cm;""><p style='font-size: 30px; color: green;'><strong>Correct!</strong></p><p style='font-size: 30px;'><strong>This rock is peridotite</strong></p>","0","corr_feedback","1","train","9","","","","","","","",""
"","","","","","","","","","","","html-button-response","123","2.0.0","338952","66463e4efb99fba5a67a010a","1","33","1616","","","","","","","","","<img src= ""rock_img/I_Pumice_10.jpg"" style=""width:8cm; height:7.609999999999999cm;""><p>What type of rock is this?</p>","7","class_response","1","train","10","Pumice","Pumice","10","true","8","8","",""
"","","","","","","","","","","","html-button-response","124","2.0.0","340002","66463e4efb99fba5a67a010a","1","33","1049","","","","","","","","","<img src= rock_img/I_Pumice_10.jpg style=""width:8cm; height:7.609999999999999cm;""><p style='font-size: 30px; color: green;'><strong>Correct!</strong></p><p style='font-size: 30px;'><strong>This rock is pumice</strong></p>","0","corr_feedback","1","train","10","","","","","","","",""
"","","","","","","","","","","","html-button-response","125","2.0.0","341028","66463e4efb99fba5a67a010a","1","33","1024","","","","","","","","","<img src= ""rock_img/I_Basalt_12.jpg"" style=""width:8cm; height:6.010000000000001cm;""><p>What type of rock is this?</p>","7","class_response","1","train","11","Pumice","Basalt","12","false","8","2","",""
"","","","","","","","","","","","html-button-response","126","2.0.0","342094","66463e4efb99fba5a67a010a","1","33","1065","","","","","","","","","<img src= rock_img/I_Basalt_12.jpg style=""width:8cm; height:6.010000000000001cm;""><p style='font-size: 30px; color: red;'><strong>Incorrect!</strong></p><p style='font-size: 30px;'><strong>This rock is basalt</strong></p>","0","corr_feedback","1","train","11","","","","","","","",""
"","","","","","","","","","","","html-button-response","127","2.0.0","345188","66463e4efb99fba5a67a010a","1","33","3092","","","","","","","","","<img src= ""rock_img/I_Diorite_07.jpg"" style=""width:8cm; height:5.239999999999999cm;""><p>What type of rock is this?</p>","0","class_response","1","train","12","Andesite","Diorite","07","false","1","3","",""
"","","","","","","","","","","","html-button-response","128","2.0.0","346341","66463e4efb99fba5a67a010a","1","33","1151","","","","","","","","","<img src= rock_img/I_Diorite_07.jpg style=""width:8cm; height:5.239999999999999cm;""><p style='font-size: 30px; color: red;'><strong>Incorrect!</strong></p><p style='font-size: 30px;'><strong>This rock is diorite</strong></p>","0","corr_feedback","1","train","12","","","","","","","",""
"","","","","","","","","","","","html-button-response","129","2.0.0","348676","66463e4efb99fba5a67a010a","1","33","2334","","","","","","","","","<img src= ""rock_img/I_Pumice_04.jpg"" style=""width:8cm; height:6.819999999999999cm;""><p>What type of rock is this?</p>","7","class_response","1","train","13","Pumice","Pumice","04","true","8","8","",""
"","","","","","","","","","","","html-button-response","130","2.0.0","349786","66463e4efb99fba5a67a010a","1","33","1108","","","","","","","","","<img src= rock_img/I_Pumice_04.jpg style=""width:8cm; height:6.819999999999999cm;""><p style='font-size: 30px; color: green;'><strong>Correct!</strong></p><p style='font-size: 30px;'><strong>This rock is pumice</strong></p>","0","corr_feedback","1","train","13","","","","","","","",""
"","","","","","","","","","","","html-button-response","131","2.0.0","351044","66463e4efb99fba5a67a010a","1","33","1256","","","","","","","","","<img src= ""rock_img/I_Pegmatite_09.jpg"" style=""width:8cm; height:4.03cm;""><p>What type of rock is this?</p>","5","class_response","1","train","14","Pegmatite","Pegmatite","09","true","6","6","",""
"","","","","","","","","","","","html-button-response","132","2.0.0","351979","66463e4efb99fba5a67a010a","1","33","933","","","","","","","","","<img src= rock_img/I_Pegmatite_09.jpg style=""width:8cm; height:4.03cm;""><p style='font-size: 30px; color: green;'><strong>Correct!</strong></p><p style='font-size: 30px;'><strong>This rock is pegmatite</strong></p>","0","corr_feedback","1","train","14","","","","","","","",""
"","","","","","","","","","","","html-button-response","133","2.0.0","353418","66463e4efb99fba5a67a010a","1","33","1438","","","","","","","","","<img src= ""rock_img/I_Basalt_09.jpg"" style=""width:8cm; height:6.2cm;""><p>What type of rock is this?</p>","1","class_response","1","train","15","Basalt","Basalt","09","true","2","2","",""
"","","","","","","","","","","","html-button-response","134","2.0.0","354421","66463e4efb99fba5a67a010a","1","33","1002","","","","","","","","","<img src= rock_img/I_Basalt_09.jpg style=""width:8cm; height:6.2cm;""><p style='font-size: 30px; color: green;'><strong>Correct!</strong></p><p style='font-size: 30px;'><strong>This rock is basalt</strong></p>","0","corr_feedback","1","train","15","","","","","","","",""
"","","","","","","","","","","","html-button-response","135","2.0.0","356089","66463e4efb99fba5a67a010a","1","33","1665","","","","","","","","","<img src= ""rock_img/I_Gabbro_05.jpg"" style=""width:8cm; height:6cm;""><p>What type of rock is this?</p>","4","class_response","1","train","16","Obsidian","Gabbro","05","false","5","4","",""
"","","","","","","","","","","","html-button-response","136","2.0.0","357033","66463e4efb99fba5a67a010a","1","33","943","","","","","","","","","<img src= rock_img/I_Gabbro_05.jpg style=""width:8cm; height:6cm;""><p style='font-size: 30px; color: red;'><strong>Incorrect!</strong></p><p style='font-size: 30px;'><strong>This rock is gabbro</strong></p>","0","corr_feedback","1","train","16","","","","","","","",""
"","","","","","","","","","","","html-button-response","137","2.0.0","358115","66463e4efb99fba5a67a010a","1","33","1079","","","","","","","","","<img src= ""rock_img/I_Obsidian_02.jpg"" style=""width:8cm; height:7.51cm;""><p>What type of rock is this?</p>","1","class_response","1","train","17","Basalt","Obsidian","02","false","2","5","",""
"","","","","","","","","","","","html-button-response","138","2.0.0","359246","66463e4efb99fba5a67a010a","1","33","1129","","","","","","","","","<img src= rock_img/I_Obsidian_02.jpg style=""width:8cm; height:7.51cm;""><p style='font-size: 30px; color: red;'><strong>Incorrect!</strong></p><p style='font-size: 30px;'><strong>This rock is obsidian</strong></p>","0","corr_feedback","1","train","17","","","","","","","",""
"","","","","","","","","","","","html-button-response","139","2.0.0","361197","66463e4efb99fba5a67a010a","1","33","1949","","","","","","","","","<img src= ""rock_img/I_Diorite_11.jpg"" style=""width:8cm; height:7.11cm;""><p>What type of rock is this?</p>","2","class_response","1","train","18","Diorite","Diorite","11","true","3","3","",""
"","","","","","","","","","","","html-button-response","140","2.0.0","362147","66463e4efb99fba5a67a010a","1","33","948","","","","","","","","","<img src= rock_img/I_Diorite_11.jpg style=""width:8cm; height:7.11cm;""><p style='font-size: 30px; color: green;'><strong>Correct!</strong></p><p style='font-size: 30px;'><strong>This rock is diorite</strong></p>","0","corr_feedback","1","train","18","","","","","","","",""
"","","","","","","","","","","","html-button-response","141","2.0.0","363608","66463e4efb99fba5a67a010a","1","33","1459","","","","","","","","","<img src= ""rock_img/I_Andesite_03.jpg"" style=""width:8cm; height:5.73cm;""><p>What type of rock is this?</p>","5","class_response","1","train","19","Pegmatite","Andesite","03","false","6","1","",""
"","","","","","","","","","","","html-button-response","142","2.0.0","364439","66463e4efb99fba5a67a010a","1","33","830","","","","","","","","","<img src= rock_img/I_Andesite_03.jpg style=""width:8cm; height:5.73cm;""><p style='font-size: 30px; color: red;'><strong>Incorrect!</strong></p><p style='font-size: 30px;'><strong>This rock is andesite</strong></p>","0","corr_feedback","1","train","19","","","","","","","",""
"","","","","","","","","","","","html-button-response","143","2.0.0","365949","66463e4efb99fba5a67a010a","1","33","1508","","","","","","","","","<img src= ""rock_img/I_Peridotite_02.jpg"" style=""width:8cm; height:5.859999999999999cm;""><p>What type of rock is this?</p>","6","class_response","1","train","20","Peridotite","Peridotite","02","true","7","7","",""
"","","","","","","","","","","","html-button-response","144","2.0.0","366823","66463e4efb99fba5a67a010a","1","33","871","","","","","","","","","<img src= rock_img/I_Peridotite_02.jpg style=""width:8cm; height:5.859999999999999cm;""><p style='font-size: 30px; color: green;'><strong>Correct!</strong></p><p style='font-size: 30px;'><strong>This rock is peridotite</strong></p>","0","corr_feedback","1","train","20","","","","","","","",""
"","","","","","","","","","","","html-button-response","145","2.0.0","368063","66463e4efb99fba5a67a010a","1","33","1239","","","","","","","","","<img src= ""rock_img/I_Pumice_08.jpg"" style=""width:8cm; height:6.67cm;""><p>What type of rock is this?</p>","7","class_response","1","train","21","Pumice","Pumice","08","true","8","8","",""
"","","","","","","","","","","","html-button-response","146","2.0.0","368971","66463e4efb99fba5a67a010a","1","33","906","","","","","","","","","<img src= rock_img/I_Pumice_08.jpg style=""width:8cm; height:6.67cm;""><p style='font-size: 30px; color: green;'><strong>Correct!</strong></p><p style='font-size: 30px;'><strong>This rock is pumice</strong></p>","0","corr_feedback","1","train","21","","","","","","","",""
"","","","","","","","","","","","html-button-response","147","2.0.0","371203","66463e4efb99fba5a67a010a","1","33","2229","","","","","","","","","<img src= ""rock_img/I_Gabbro_11.jpg"" style=""width:8cm; height:6.2cm;""><p>What type of rock is this?</p>","4","class_response","1","train","22","Obsidian","Gabbro","11","false","5","4","",""
"","","","","","","","","","","","html-button-response","148","2.0.0","372172","66463e4efb99fba5a67a010a","1","33","967","","","","","","","","","<img src= rock_img/I_Gabbro_11.jpg style=""width:8cm; height:6.2cm;""><p style='font-size: 30px; color: red;'><strong>Incorrect!</strong></p><p style='font-size: 30px;'><strong>This rock is gabbro</strong></p>","0","corr_feedback","1","train","22","","","","","","","",""
"","","","","","","","","","","","html-button-response","149","2.0.0","373557","66463e4efb99fba5a67a010a","1","33","1384","","","","","","","","","<img src= ""rock_img/I_Basalt_02.jpg"" style=""width:8cm; height:6.45cm;""><p>What type of rock is this?</p>","4","class_response","1","train","23","Obsidian","Basalt","02","false","5","2","",""
"","","","","","","","","","","","html-button-response","150","2.0.0","374528","66463e4efb99fba5a67a010a","1","33","969","","","","","","","","","<img src= rock_img/I_Basalt_02.jpg style=""width:8cm; height:6.45cm;""><p style='font-size: 30px; color: red;'><strong>Incorrect!</strong></p><p style='font-size: 30px;'><strong>This rock is basalt</strong></p>","0","corr_feedback","1","train","23","","","","","","","",""
"","","","","","","","","","","","html-button-response","151","2.0.0","375939","66463e4efb99fba5a67a010a","1","33","1409","","","","","","","","","<img src= ""rock_img/I_Pegmatite_11.jpg"" style=""width:8cm; height:8.14cm;""><p>What type of rock is this?</p>","0","class_response","1","train","24","Andesite","Pegmatite","11","false","1","6","",""
"","","","","","","","","","","","html-button-response","152","2.0.0","376901","66463e4efb99fba5a67a010a","1","33","960","","","","","","","","","<img src= rock_img/I_Pegmatite_11.jpg style=""width:8cm; height:8.14cm;""><p style='font-size: 30px; color: red;'><strong>Incorrect!</strong></p><p style='font-size: 30px;'><strong>This rock is pegmatite</strong></p>","0","corr_feedback","1","train","24","","","","","","","",""
"","","","","","","","","","","","html-button-response","153","2.0.0","378647","66463e4efb99fba5a67a010a","1","33","1744","","","","","","","","","<img src= ""rock_img/I_Gabbro_01.jpg"" style=""width:8cm; height:5.21cm;""><p>What type of rock is this?</p>","6","class_response","1","train","25","Peridotite","Gabbro","01","false","7","4","",""
"","","","","","","","","","","","html-button-response","154","2.0.0","379549","66463e4efb99fba5a67a010a","1","33","900","","","","","","","","","<img src= rock_img/I_Gabbro_01.jpg style=""width:8cm; height:5.21cm;""><p style='font-size: 30px; color: red;'><strong>Incorrect!</strong></p><p style='font-size: 30px;'><strong>This rock is gabbro</strong></p>","0","corr_feedback","1","train","25","","","","","","","",""
"","","","","","","","","","","","html-button-response","155","2.0.0","380853","66463e4efb99fba5a67a010a","1","33","1302","","","","","","","","","<img src= ""rock_img/I_Pumice_15.jpg"" style=""width:8cm; height:7.86cm;""><p>What type of rock is this?</p>","7","class_response","1","train","26","Pumice","Pumice","15","true","8","8","",""
"","","","","","","","","","","","html-button-response","156","2.0.0","381856","66463e4efb99fba5a67a010a","1","33","1001","","","","","","","","","<img src= rock_img/I_Pumice_15.jpg style=""width:8cm; height:7.86cm;""><p style='font-size: 30px; color: green;'><strong>Correct!</strong></p><p style='font-size: 30px;'><strong>This rock is pumice</strong></p>","0","corr_feedback","1","train","26","","","","","","","",""
"","","","","","","","","","","","html-button-response","157","2.0.0","383179","66463e4efb99fba5a67a010a","1","33","1322","","","","","","","","","<img src= ""rock_img/I_Obsidian_10.jpg"" style=""width:8cm; height:6.260000000000001cm;""><p>What type of rock is this?</p>","4","class_response","1","train","27","Obsidian","Obsidian","10","true","5","5","",""
"","","","","","","","","","","","html-button-response","158","2.0.0","445471","66463e4efb99fba5a67a010a","1","33","62291","","","","","","","","","<img src= rock_img/I_Obsidian_10.jpg style=""width:8cm; height:6.260000000000001cm;""><p style='font-size: 30px; color: green;'><strong>Correct!</strong></p><p style='font-size: 30px;'><strong>This rock is obsidian</strong></p>","0","corr_feedback","1","train","27","","","","","","","",""
"","","","","","","","","","","","html-button-response","159","2.0.0","447263","66463e4efb99fba5a67a010a","1","33","1790","","","","","","","","","<img src= ""rock_img/I_Pumice_16.jpg"" style=""width:8cm; height:6.79cm;""><p>What type of rock is this?</p>","7","class_response","1","train","28","Pumice","Pumice","16","true","8","8","",""
"","","","","","","","","","","","html-button-response","160","2.0.0","448193","66463e4efb99fba5a67a010a","1","33","927","","","","","","","","","<img src= rock_img/I_Pumice_16.jpg style=""width:8cm; height:6.79cm;""><p style='font-size: 30px; color: green;'><strong>Correct!</strong></p><p style='font-size: 30px;'><strong>This rock is pumice</strong></p>","0","corr_feedback","1","train","28","","","","","","","",""
"","","","","","","","","","","","html-button-response","161","2.0.0","449887","66463e4efb99fba5a67a010a","1","33","1693","","","","","","","","","<img src= ""rock_img/I_Diorite_08.jpg"" style=""width:8cm; height:6.37cm;""><p>What type of rock is this?</p>","6","class_response","1","train","29","Peridotite","Diorite","08","false","7","3","",""
"","","","","","","","","","","","html-button-response","162","2.0.0","450708","66463e4efb99fba5a67a010a","1","33","819","","","","","","","","","<img src= rock_img/I_Diorite_08.jpg style=""width:8cm; height:6.37cm;""><p style='font-size: 30px; color: red;'><strong>Incorrect!</strong></p><p style='font-size: 30px;'><strong>This rock is diorite</strong></p>","0","corr_feedback","1","train","29","","","","","","","",""
"","","","","","","","","","","","html-button-response","163","2.0.0","453062","66463e4efb99fba5a67a010a","1","33","2351","","","","","","","","","<img src= ""rock_img/I_Pegmatite_07.jpg"" style=""width:8cm; height:6.7cm;""><p>What type of rock is this?</p>","5","class_response","1","train","30","Pegmatite","Pegmatite","07","true","6","6","",""
"","","","","","","","","","","","html-button-response","164","2.0.0","453713","66463e4efb99fba5a67a010a","1","33","648","","","","","","","","","<img src= rock_img/I_Pegmatite_07.jpg style=""width:8cm; height:6.7cm;""><p style='font-size: 30px; color: green;'><strong>Correct!</strong></p><p style='font-size: 30px;'><strong>This rock is pegmatite</strong></p>","0","corr_feedback","1","train","30","","","","","","","",""
"","","","","","","","","","","","html-button-response","165","2.0.0","454685","66463e4efb99fba5a67a010a","1","33","970","","","","","","","","","<img src= ""rock_img/I_Pegmatite_13.jpg"" style=""width:8cm; height:4.95cm;""><p>What type of rock is this?</p>","5","class_response","1","train","31","Pegmatite","Pegmatite","13","true","6","6","",""
"","","","","","","","","","","","html-button-response","166","2.0.0","455315","66463e4efb99fba5a67a010a","1","33","629","","","","","","","","","<img src= rock_img/I_Pegmatite_13.jpg style=""width:8cm; height:4.95cm;""><p style='font-size: 30px; color: green;'><strong>Correct!</strong></p><p style='font-size: 30px;'><strong>This rock is pegmatite</strong></p>","0","corr_feedback","1","train","31","","","","","","","",""
"","","","","","","","","","","","html-button-response","167","2.0.0","456848","66463e4efb99fba5a67a010a","1","33","1530","","","","","","","","","<img src= ""rock_img/I_Basalt_01.jpg"" style=""width:8cm; height:7.880000000000001cm;""><p>What type of rock is this?</p>","1","class_response","1","train","32","Basalt","Basalt","01","true","2","2","",""
"","","","","","","","","","","","html-button-response","168","2.0.0","457556","66463e4efb99fba5a67a010a","1","33","706","","","","","","","","","<img src= rock_img/I_Basalt_01.jpg style=""width:8cm; height:7.880000000000001cm;""><p style='font-size: 30px; color: green;'><strong>Correct!</strong></p><p style='font-size: 30px;'><strong>This rock is basalt</strong></p>","0","corr_feedback","1","train","32","","","","","","","",""
"","","","","","","","","","","","html-button-response","169","2.0.0","458620","66463e4efb99fba5a67a010a","1","33","1062","","","","","","","","","<img src= ""rock_img/I_Obsidian_04.jpg"" style=""width:8cm; height:6.930000000000001cm;""><p>What type of rock is this?</p>","4","class_response","1","train","33","Obsidian","Obsidian","04","true","5","5","",""
"","","","","","","","","","","","html-button-response","170","2.0.0","459242","66463e4efb99fba5a67a010a","1","33","621","","","","","","","","","<img src= rock_img/I_Obsidian_04.jpg style=""width:8cm; height:6.930000000000001cm;""><p style='font-size: 30px; color: green;'><strong>Correct!</strong></p><p style='font-size: 30px;'><strong>This rock is obsidian</strong></p>","0","corr_feedback","1","train","33","","","","","","","",""
"","","","","","","","","","","","html-button-response","171","2.0.0","460938","66463e4efb99fba5a67a010a","1","33","1694","","","","","","","","","<img src= ""rock_img/I_Pegmatite_08.jpg"" style=""width:8cm; height:7.68cm;""><p>What type of rock is this?</p>","2","class_response","1","train","34","Diorite","Pegmatite","08","false","3","6","",""
"","","","","","","","","","","","html-button-response","172","2.0.0","461689","66463e4efb99fba5a67a010a","1","33","749","","","","","","","","","<img src= rock_img/I_Pegmatite_08.jpg style=""width:8cm; height:7.68cm;""><p style='font-size: 30px; color: red;'><strong>Incorrect!</strong></p><p style='font-size: 30px;'><strong>This rock is pegmatite</strong></p>","0","corr_feedback","1","train","34","","","","","","","",""
"","","","","","","","","","","","html-button-response","173","2.0.0","462993","66463e4efb99fba5a67a010a","1","33","1301","","","","","","","","","<img src= ""rock_img/I_Andesite_14.jpg"" style=""width:8cm; height:5.449999999999999cm;""><p>What type of rock is this?</p>","7","class_response","1","train","35","Pumice","Andesite","14","false","8","1","",""
"","","","","","","","","","","","html-button-response","174","2.0.0","463896","66463e4efb99fba5a67a010a","1","33","901","","","","","","","","","<img src= rock_img/I_Andesite_14.jpg style=""width:8cm; height:5.449999999999999cm;""><p style='font-size: 30px; color: red;'><strong>Incorrect!</strong></p><p style='font-size: 30px;'><strong>This rock is andesite</strong></p>","0","corr_feedback","1","train","35","","","","","","","",""
"","","","","","","","","","","","html-button-response","175","2.0.0","465569","66463e4efb99fba5a67a010a","1","33","1671","","","","","","","","","<img src= ""rock_img/I_Obsidian_07.jpg"" style=""width:8cm; height:4.76cm;""><p>What type of rock is this?</p>","4","class_response","1","train","36","Obsidian","Obsidian","07","true","5","5","",""
"","","","","","","","","","","","html-button-response","176","2.0.0","466420","66463e4efb99fba5a67a010a","1","33","849","","","","","","","","","<img src= rock_img/I_Obsidian_07.jpg style=""width:8cm; height:4.76cm;""><p style='font-size: 30px; color: green;'><strong>Correct!</strong></p><p style='font-size: 30px;'><strong>This rock is obsidian</strong></p>","0","corr_feedback","1","train","36","","","","","","","",""
"","","","","","","","","","","","html-button-response","177","2.0.0","468463","66463e4efb99fba5a67a010a","1","33","2042","","","","","","","","","<img src= ""rock_img/I_Gabbro_15.jpg"" style=""width:8cm; height:6.29cm;""><p>What type of rock is this?</p>","6","class_response","1","train","37","Peridotite","Gabbro","15","false","7","4","",""
"","","","","","","","","","","","html-button-response","178","2.0.0","469227","66463e4efb99fba5a67a010a","1","33","762","","","","","","","","","<img src= rock_img/I_Gabbro_15.jpg style=""width:8cm; height:6.29cm;""><p style='font-size: 30px; color: red;'><strong>Incorrect!</strong></p><p style='font-size: 30px;'><strong>This rock is gabbro</strong></p>","0","corr_feedback","1","train","37","","","","","","","",""
"","","","","","","","","","","","html-button-response","179","2.0.0","470736","66463e4efb99fba5a67a010a","1","33","1508","","","","","","","","","<img src= ""rock_img/I_Basalt_05.jpg"" style=""width:8cm; height:8.18cm;""><p>What type of rock is this?</p>","1","class_response","1","train","38","Basalt","Basalt","05","true","2","2","",""
"","","","","","","","","","","","html-button-response","180","2.0.0","471731","66463e4efb99fba5a67a010a","1","33","993","","","","","","","","","<img src= rock_img/I_Basalt_05.jpg style=""width:8cm; height:8.18cm;""><p style='font-size: 30px; color: green;'><strong>Correct!</strong></p><p style='font-size: 30px;'><strong>This rock is basalt</strong></p>","0","corr_feedback","1","train","38","","","","","","","",""
"","","","","","","","","","","","html-button-response","181","2.0.0","473364","66463e4efb99fba5a67a010a","1","33","1631","","","","","","","","","<img src= ""rock_img/I_Andesite_07.jpg"" style=""width:8cm; height:5.93cm;""><p>What type of rock is this?</p>","2","class_response","1","train","39","Diorite","Andesite","07","false","3","1","",""
"","","","","","","","","","","","html-button-response","182","2.0.0","474630","66463e4efb99fba5a67a010a","1","33","1265","","","","","","","","","<img src= rock_img/I_Andesite_07.jpg style=""width:8cm; height:5.93cm;""><p style='font-size: 30px; color: red;'><strong>Incorrect!</strong></p><p style='font-size: 30px;'><strong>This rock is andesite</strong></p>","0","corr_feedback","1","train","39","","","","","","","",""
"","","","","","","","","","","","html-button-response","183","2.0.0","475898","66463e4efb99fba5a67a010a","1","33","1266","","","","","","","","","<img src= ""rock_img/I_Diorite_12.jpg"" style=""width:8cm; height:4.88cm;""><p>What type of rock is this?</p>","7","class_response","1","train","40","Pumice","Diorite","12","false","8","3","",""
"","","","","","","","","","","","html-button-response","184","2.0.0","476763","66463e4efb99fba5a67a010a","1","33","863","","","","","","","","","<img src= rock_img/I_Diorite_12.jpg style=""width:8cm; height:4.88cm;""><p style='font-size: 30px; color: red;'><strong>Incorrect!</strong></p><p style='font-size: 30px;'><strong>This rock is diorite</strong></p>","0","corr_feedback","1","train","40","","","","","","","",""
"","","","","","","","","","","","html-button-response","185","2.0.0","478439","66463e4efb99fba5a67a010a","1","33","1675","","","","","","","","","<img src= ""rock_img/I_Diorite_13.jpg"" style=""width:8cm; height:6.29cm;""><p>What type of rock is this?</p>","2","class_response","1","train","41","Diorite","Diorite","13","true","3","3","",""
"","","","","","","","","","","","html-button-response","186","2.0.0","479155","66463e4efb99fba5a67a010a","1","33","714","","","","","","","","","<img src= rock_img/I_Diorite_13.jpg style=""width:8cm; height:6.29cm;""><p style='font-size: 30px; color: green;'><strong>Correct!</strong></p><p style='font-size: 30px;'><strong>This rock is diorite</strong></p>","0","corr_feedback","1","train","41","","","","","","","",""
"","","","","","","","","","","","html-button-response","187","2.0.0","480364","66463e4efb99fba5a67a010a","1","33","1206","","","","","","","","","<img src= ""rock_img/I_Pumice_13.jpg"" style=""width:8cm; height:8.200000000000001cm;""><p>What type of rock is this?</p>","7","class_response","1","train","42","Pumice","Pumice","13","true","8","8","",""
"","","","","","","","","","","","html-button-response","188","2.0.0","481179","66463e4efb99fba5a67a010a","1","33","812","","","","","","","","","<img src= rock_img/I_Pumice_13.jpg style=""width:8cm; height:8.200000000000001cm;""><p style='font-size: 30px; color: green;'><strong>Correct!</strong></p><p style='font-size: 30px;'><strong>This rock is pumice</strong></p>","0","corr_feedback","1","train","42","","","","","","","",""
"","","","","","","","","","","","html-button-response","189","2.0.0","492706","66463e4efb99fba5a67a010a","1","33","11526","","","","","","","","","<img src= ""rock_img/I_Andesite_05.jpg"" style=""width:8cm; height:4.12cm;""><p>What type of rock is this?</p>","5","class_response","1","train","43","Pegmatite","Andesite","05","false","6","1","",""
"","","","","","","","","","","","html-button-response","190","2.0.0","493422","66463e4efb99fba5a67a010a","1","33","714","","","","","","","","","<img src= rock_img/I_Andesite_05.jpg style=""width:8cm; height:4.12cm;""><p style='font-size: 30px; color: red;'><strong>Incorrect!</strong></p><p style='font-size: 30px;'><strong>This rock is andesite</strong></p>","0","corr_feedback","1","train","43","","","","","","","",""
"","","","","","","","","","","","html-button-response","191","2.0.0","494646","66463e4efb99fba5a67a010a","1","33","1222","","","","","","","","","<img src= ""rock_img/I_Gabbro_09.jpg"" style=""width:8cm; height:7.279999999999999cm;""><p>What type of rock is this?</p>","4","class_response","1","train","44","Obsidian","Gabbro","09","false","5","4","",""
"","","","","","","","","","","","html-button-response","192","2.0.0","495598","66463e4efb99fba5a67a010a","1","33","950","","","","","","","","","<img src= rock_img/I_Gabbro_09.jpg style=""width:8cm; height:7.279999999999999cm;""><p style='font-size: 30px; color: red;'><strong>Incorrect!</strong></p><p style='font-size: 30px;'><strong>This rock is gabbro</strong></p>","0","corr_feedback","1","train","44","","","","","","","",""
"","","","","","","","","","","","html-button-response","193","2.0.0","496651","66463e4efb99fba5a67a010a","1","33","1051","","","","","","","","","<img src= ""rock_img/I_Peridotite_15.jpg"" style=""width:8cm; height:6cm;""><p>What type of rock is this?</p>","6","class_response","1","train","45","Peridotite","Peridotite","15","true","7","7","",""
"","","","","","","","","","","","html-button-response","194","2.0.0","497237","66463e4efb99fba5a67a010a","1","33","584","","","","","","","","","<img src= rock_img/I_Peridotite_15.jpg style=""width:8cm; height:6cm;""><p style='font-size: 30px; color: green;'><strong>Correct!</strong></p><p style='font-size: 30px;'><strong>This rock is peridotite</strong></p>","0","corr_feedback","1","train","45","","","","","","","",""
"","","","","","","","","","","","html-button-response","195","2.0.0","500689","66463e4efb99fba5a67a010a","1","33","3450","","","","","","","","","<img src= ""rock_img/I_Andesite_11.jpg"" style=""width:8cm; height:4.92cm;""><p>What type of rock is this?</p>","3","class_response","1","train","46","Gabbro","Andesite","11","false","4","1","",""
"","","","","","","","","","","","html-button-response","196","2.0.0","501504","66463e4efb99fba5a67a010a","1","33","813","","","","","","","","","<img src= rock_img/I_Andesite_11.jpg style=""width:8cm; height:4.92cm;""><p style='font-size: 30px; color: red;'><strong>Incorrect!</strong></p><p style='font-size: 30px;'><strong>This rock is andesite</strong></p>","0","corr_feedback","1","train","46","","","","","","","",""
"","","","","","","","","","","","html-button-response","197","2.0.0","502832","66463e4efb99fba5a67a010a","1","33","1326","","","","","","","","","<img src= ""rock_img/I_Diorite_06.jpg"" style=""width:8cm; height:6.03cm;""><p>What type of rock is this?</p>","0","class_response","1","train","47","Andesite","Diorite","06","false","1","3","",""
"","","","","","","","","","","","html-button-response","198","2.0.0","503724","66463e4efb99fba5a67a010a","1","33","891","","","","","","","","","<img src= rock_img/I_Diorite_06.jpg style=""width:8cm; height:6.03cm;""><p style='font-size: 30px; color: red;'><strong>Incorrect!</strong></p><p style='font-size: 30px;'><strong>This rock is diorite</strong></p>","0","corr_feedback","1","train","47","","","","","","","",""
"","","","","","","","","","","","html-button-response","199","2.0.0","506002","66463e4efb99fba5a67a010a","1","33","2275","","","","","","","","","<img src= ""rock_img/I_Andesite_04.jpg"" style=""width:8cm; height:5.96cm;""><p>What type of rock is this?</p>","2","class_response","1","train","48","Diorite","Andesite","04","false","3","1","",""
"","","","","","","","","","","","html-button-response","200","2.0.0","506895","66463e4efb99fba5a67a010a","1","33","891","","","","","","","","","<img src= rock_img/I_Andesite_04.jpg style=""width:8cm; height:5.96cm;""><p style='font-size: 30px; color: red;'><strong>Incorrect!</strong></p><p style='font-size: 30px;'><strong>This rock is andesite</strong></p>","0","corr_feedback","1","train","48","","","","","","","",""
"","","","","","","","","","","","instructions","203","2.0.0","520180","66463e4efb99fba5a67a010a","1","33","13284","","","","","","","","[{""page_index"":0,""viewing_time"":5217},{""page_index"":1,""viewing_time"":8066}]","","","","","","","","","","","","","",""
"","","","","","","","","","","","html-button-response","204","2.0.0","521358","66463e4efb99fba5a67a010a","1","33","1177","","","","","","","","","","0","start_test","","","","","","","","","","",""
"","","","","","","","","","","","html-button-response","205","2.0.0","527738","66463e4efb99fba5a67a010a","1","33","6377","","","","","","","","","<img src= ""rock_img/I_Pegmatite_06.jpg"" style=""width:8cm; height:5.17cm;""><p>What type of rock is this?</p>","3","class_response","1","test","1","Gabbro","Pegmatite","06","false","4","6","",""
"","","","","","","","","","","","html-keyboard-response","206","2.0.0","528240","66463e4efb99fba5a67a010a","1","33","null","","","","","","","","","<p style='font-size: 30px;'><strong>Okay</strong></p>","null","neutral_feedback","1","test","1","","","","","","","",""
"","","","","","","","","","","","html-button-response","207","2.0.0","530129","66463e4efb99fba5a67a010a","1","33","1887","","","","","","","","","<img src= ""rock_img/I_Basalt_04.jpg"" style=""width:8cm; height:7.53cm;""><p>What type of rock is this?</p>","4","class_response","1","test","2","Obsidian","Basalt","04","false","5","2","",""
"","","","","","","","","","","","html-keyboard-response","208","2.0.0","530631","66463e4efb99fba5a67a010a","1","33","null","","","","","","","","","<p style='font-size: 30px;'><strong>Okay</strong></p>","null","neutral_feedback","1","test","2","","","","","","","",""
"","","","","","","","","","","","html-button-response","209","2.0.0","531715","66463e4efb99fba5a67a010a","1","33","1081","","","","","","","","","<img src= ""rock_img/I_Obsidian_12.jpg"" style=""width:8cm; height:6.53cm;""><p>What type of rock is this?</p>","4","class_response","1","test","3","Obsidian","Obsidian","12","true","5","5","",""
"","","","","","","","","","","","html-keyboard-response","210","2.0.0","532217","66463e4efb99fba5a67a010a","1","33","null","","","","","","","","","<p style='font-size: 30px;'><strong>Okay</strong></p>","null","neutral_feedback","1","test","3","","","","","","","",""
"","","","","","","","","","","","html-button-response","211","2.0.0","533561","66463e4efb99fba5a67a010a","1","33","1342","","","","","","","","","<img src= ""rock_img/I_Pumice_14.jpg"" style=""width:8cm; height:6.39cm;""><p>What type of rock is this?</p>","7","class_response","1","test","4","Pumice","Pumice","14","true","8","8","",""
"","","","","","","","","","","","html-keyboard-response","212","2.0.0","534063","66463e4efb99fba5a67a010a","1","33","null","","","","","","","","","<p style='font-size: 30px;'><strong>Okay</strong></p>","null","neutral_feedback","1","test","4","","","","","","","",""
"","","","","","","","","","","","html-button-response","213","2.0.0","536434","66463e4efb99fba5a67a010a","1","33","2370","","","","","","","","","<img src= ""rock_img/I_Basalt_08.jpg"" style=""width:8cm; height:10.44cm;""><p>What type of rock is this?</p>","4","class_response","1","test","5","Obsidian","Basalt","08","false","5","2","",""
"","","","","","","","","","","","html-keyboard-response","214","2.0.0","536935","66463e4efb99fba5a67a010a","1","33","null","","","","","","","","","<p style='font-size: 30px;'><strong>Okay</strong></p>","null","neutral_feedback","1","test","5","","","","","","","",""
"","","","","","","","","","","","html-button-response","215","2.0.0","538079","66463e4efb99fba5a67a010a","1","33","1142","","","","","","","","","<img src= ""rock_img/I_Obsidian_08.jpg"" style=""width:8cm; height:7.39cm;""><p>What type of rock is this?</p>","4","class_response","1","test","6","Obsidian","Obsidian","08","true","5","5","",""
"","","","","","","","","","","","html-keyboard-response","216","2.0.0","538580","66463e4efb99fba5a67a010a","1","33","null","","","","","","","","","<p style='font-size: 30px;'><strong>Okay</strong></p>","null","neutral_feedback","1","test","6","","","","","","","",""
"","","","","","","","","","","","html-button-response","217","2.0.0","540005","66463e4efb99fba5a67a010a","1","33","1422","","","","","","","","","<img src= ""rock_img/I_Peridotite_07.jpg"" style=""width:8cm; height:4.83cm;""><p>What type of rock is this?</p>","6","class_response","1","test","7","Peridotite","Peridotite","07","true","7","7","",""
"","","","","","","","","","","","html-keyboard-response","218","2.0.0","540507","66463e4efb99fba5a67a010a","1","33","null","","","","","","","","","<p style='font-size: 30px;'><strong>Okay</strong></p>","null","neutral_feedback","1","test","7","","","","","","","",""
"","","","","","","","","","","","html-button-response","219","2.0.0","542371","66463e4efb99fba5a67a010a","1","33","1863","","","","","","","","","<img src= ""rock_img/I_Basalt_10.jpg"" style=""width:8cm; height:5.85cm;""><p>What type of rock is this?</p>","4","class_response","1","test","8","Obsidian","Basalt","10","false","5","2","",""
"","","","","","","","","","","","html-keyboard-response","220","2.0.0","542873","66463e4efb99fba5a67a010a","1","33","null","","","","","","","","","<p style='font-size: 30px;'><strong>Okay</strong></p>","null","neutral_feedback","1","test","8","","","","","","","",""
"","","","","","","","","","","","html-button-response","221","2.0.0","546943","66463e4efb99fba5a67a010a","1","33","4067","","","","","","","","","<img src= ""rock_img/I_Pumice_06.jpg"" style=""width:8cm; height:6.9399999999999995cm;""><p>What type of rock is this?</p>","7","class_response","1","test","9","Pumice","Pumice","06","true","8","8","",""
"","","","","","","","","","","","html-keyboard-response","222","2.0.0","547445","66463e4efb99fba5a67a010a","1","33","null","","","","","","","","","<p style='font-size: 30px;'><strong>Okay</strong></p>","null","neutral_feedback","1","test","9","","","","","","","",""
"","","","","","","","","","","","html-button-response","223","2.0.0","548554","66463e4efb99fba5a67a010a","1","33","1107","","","","","","","","","<img src= ""rock_img/I_Peridotite_13.jpg"" style=""width:8cm; height:7.58cm;""><p>What type of rock is this?</p>","6","class_response","1","test","10","Peridotite","Peridotite","13","true","7","7","",""
"","","","","","","","","","","","html-keyboard-response","224","2.0.0","549056","66463e4efb99fba5a67a010a","1","33","null","","","","","","","","","<p style='font-size: 30px;'><strong>Okay</strong></p>","null","neutral_feedback","1","test","10","","","","","","","",""
"","","","","","","","","","","","html-button-response","225","2.0.0","553386","66463e4efb99fba5a67a010a","1","33","4327","","","","","","","","","<img src= ""rock_img/I_Diorite_16.jpg"" style=""width:8cm; height:6.74cm;""><p>What type of rock is this?</p>","0","class_response","1","test","11","Andesite","Diorite","16","false","1","3","",""
"","","","","","","","","","","","html-keyboard-response","226","2.0.0","553887","66463e4efb99fba5a67a010a","1","33","null","","","","","","","","","<p style='font-size: 30px;'><strong>Okay</strong></p>","null","neutral_feedback","1","test","11","","","","","","","",""
"","","","","","","","","","","","html-button-response","227","2.0.0","556381","66463e4efb99fba5a67a010a","1","33","2492","","","","","","","","","<img src= ""rock_img/I_Diorite_10.jpg"" style=""width:8cm; height:5.949999999999999cm;""><p>What type of rock is this?</p>","2","class_response","1","test","12","Diorite","Diorite","10","true","3","3","",""
"","","","","","","","","","","","html-keyboard-response","228","2.0.0","556882","66463e4efb99fba5a67a010a","1","33","null","","","","","","","","","<p style='font-size: 30px;'><strong>Okay</strong></p>","null","neutral_feedback","1","test","12","","","","","","","",""
"","","","","","","","","","","","html-button-response","229","2.0.0","558338","66463e4efb99fba5a67a010a","1","33","1454","","","","","","","","","<img src= ""rock_img/I_Peridotite_08.jpg"" style=""width:8cm; height:6.7cm;""><p>What type of rock is this?</p>","6","class_response","1","test","13","Peridotite","Peridotite","08","true","7","7","",""
"","","","","","","","","","","","html-keyboard-response","230","2.0.0","558840","66463e4efb99fba5a67a010a","1","33","null","","","","","","","","","<p style='font-size: 30px;'><strong>Okay</strong></p>","null","neutral_feedback","1","test","13","","","","","","","",""
"","","","","","","","","","","","html-button-response","231","2.0.0","562196","66463e4efb99fba5a67a010a","1","33","3354","","","","","","","","","<img src= ""rock_img/I_Pegmatite_12.jpg"" style=""width:8cm; height:5.7cm;""><p>What type of rock is this?</p>","2","class_response","1","test","14","Diorite","Pegmatite","12","false","3","6","",""
"","","","","","","","","","","","html-keyboard-response","232","2.0.0","562698","66463e4efb99fba5a67a010a","1","33","null","","","","","","","","","<p style='font-size: 30px;'><strong>Okay</strong></p>","null","neutral_feedback","1","test","14","","","","","","","",""
"","","","","","","","","","","","html-button-response","233","2.0.0","563996","66463e4efb99fba5a67a010a","1","33","1296","","","","","","","","","<img src= ""rock_img/I_Andesite_16.jpg"" style=""width:8cm; height:6.010000000000001cm;""><p>What type of rock is this?</p>","2","class_response","1","test","15","Diorite","Andesite","16","false","3","1","",""
"","","","","","","","","","","","html-keyboard-response","234","2.0.0","564497","66463e4efb99fba5a67a010a","1","33","null","","","","","","","","","<p style='font-size: 30px;'><strong>Okay</strong></p>","null","neutral_feedback","1","test","15","","","","","","","",""
"","","","","","","","","","","","html-button-response","235","2.0.0","567789","66463e4efb99fba5a67a010a","1","33","3291","","","","","","","","","<img src= ""rock_img/I_Peridotite_16.jpg"" style=""width:8cm; height:6.989999999999999cm;""><p>What type of rock is this?</p>","3","class_response","1","test","16","Gabbro","Peridotite","16","false","4","7","",""
"","","","","","","","","","","","html-keyboard-response","236","2.0.0","568291","66463e4efb99fba5a67a010a","1","33","null","","","","","","","","","<p style='font-size: 30px;'><strong>Okay</strong></p>","null","neutral_feedback","1","test","16","","","","","","","",""
"","","","","","","","","","","","html-button-response","237","2.0.0","576010","66463e4efb99fba5a67a010a","1","33","7718","","","","","","","","","<img src= ""rock_img/I_Gabbro_14.jpg"" style=""width:8cm; height:8.48cm;""><p>What type of rock is this?</p>","2","class_response","1","test","17","Diorite","Gabbro","14","false","3","4","",""
"","","","","","","","","","","","html-keyboard-response","238","2.0.0","576511","66463e4efb99fba5a67a010a","1","33","null","","","","","","","","","<p style='font-size: 30px;'><strong>Okay</strong></p>","null","neutral_feedback","1","test","17","","","","","","","",""
"","","","","","","","","","","","html-button-response","239","2.0.0","579739","66463e4efb99fba5a67a010a","1","33","3226","","","","","","","","","<img src= ""rock_img/I_Diorite_14.jpg"" style=""width:8cm; height:5.71cm;""><p>What type of rock is this?</p>","2","class_response","1","test","18","Diorite","Diorite","14","true","3","3","",""
"","","","","","","","","","","","html-keyboard-response","240","2.0.0","580240","66463e4efb99fba5a67a010a","1","33","null","","","","","","","","","<p style='font-size: 30px;'><strong>Okay</strong></p>","null","neutral_feedback","1","test","18","","","","","","","",""
"","","","","","","","","","","","html-button-response","241","2.0.0","588599","66463e4efb99fba5a67a010a","1","33","8357","","","","","","","","","<img src= ""rock_img/I_Andesite_10.jpg"" style=""width:8cm; height:4.16cm;""><p>What type of rock is this?</p>","6","class_response","1","test","19","Peridotite","Andesite","10","false","7","1","",""
"","","","","","","","","","","","html-keyboard-response","242","2.0.0","589100","66463e4efb99fba5a67a010a","1","33","null","","","","","","","","","<p style='font-size: 30px;'><strong>Okay</strong></p>","null","neutral_feedback","1","test","19","","","","","","","",""
"","","","","","","","","","","","html-button-response","243","2.0.0","590302","66463e4efb99fba5a67a010a","1","33","1200","","","","","","","","","<img src= ""rock_img/I_Pumice_05.jpg"" style=""width:8cm; height:7.25cm;""><p>What type of rock is this?</p>","7","class_response","1","test","20","Pumice","Pumice","05","true","8","8","",""
"","","","","","","","","","","","html-keyboard-response","244","2.0.0","590804","66463e4efb99fba5a67a010a","1","33","null","","","","","","","","","<p style='font-size: 30px;'><strong>Okay</strong></p>","null","neutral_feedback","1","test","20","","","","","","","",""
"","","","","","","","","","","","html-button-response","245","2.0.0","591546","66463e4efb99fba5a67a010a","1","33","739","","","","","","","","","<img src= ""rock_img/I_Pumice_02.jpg"" style=""width:8cm; height:7.3999999999999995cm;""><p>What type of rock is this?</p>","7","class_response","1","test","21","Pumice","Pumice","02","true","8","8","",""
"","","","","","","","","","","","html-keyboard-response","246","2.0.0","592048","66463e4efb99fba5a67a010a","1","33","null","","","","","","","","","<p style='font-size: 30px;'><strong>Okay</strong></p>","null","neutral_feedback","1","test","21","","","","","","","",""
"","","","","","","","","","","","html-button-response","247","2.0.0","594140","66463e4efb99fba5a67a010a","1","33","2089","","","","","","","","","<img src= ""rock_img/I_Andesite_02.jpg"" style=""width:8cm; height:8.5cm;""><p>What type of rock is this?</p>","5","class_response","1","test","22","Pegmatite","Andesite","02","false","6","1","",""
"","","","","","","","","","","","html-keyboard-response","248","2.0.0","594641","66463e4efb99fba5a67a010a","1","33","null","","","","","","","","","<p style='font-size: 30px;'><strong>Okay</strong></p>","null","neutral_feedback","1","test","22","","","","","","","",""
"","","","","","","","","","","","html-button-response","249","2.0.0","597608","66463e4efb99fba5a67a010a","1","33","2965","","","","","","","","","<img src= ""rock_img/I_Pegmatite_05.jpg"" style=""width:8cm; height:7.300000000000001cm;""><p>What type of rock is this?</p>","2","class_response","1","test","23","Diorite","Pegmatite","05","false","3","6","",""
"","","","","","","","","","","","html-keyboard-response","250","2.0.0","598109","66463e4efb99fba5a67a010a","1","33","null","","","","","","","","","<p style='font-size: 30px;'><strong>Okay</strong></p>","null","neutral_feedback","1","test","23","","","","","","","",""
"","","","","","","","","","","","html-button-response","251","2.0.0","600129","66463e4efb99fba5a67a010a","1","33","2018","","","","","","","","","<img src= ""rock_img/I_Diorite_15.jpg"" style=""width:8cm; height:5.54cm;""><p>What type of rock is this?</p>","0","class_response","1","test","24","Andesite","Diorite","15","false","1","3","",""
"","","","","","","","","","","","html-keyboard-response","252","2.0.0","600631","66463e4efb99fba5a67a010a","1","33","null","","","","","","","","","<p style='font-size: 30px;'><strong>Okay</strong></p>","null","neutral_feedback","1","test","24","","","","","","","",""
"","","","","","","","","","","","html-button-response","253","2.0.0","603084","66463e4efb99fba5a67a010a","1","33","2451","","","","","","","","","<img src= ""rock_img/I_Andesite_01.jpg"" style=""width:8cm; height:5.87cm;""><p>What type of rock is this?</p>","1","class_response","1","test","25","Basalt","Andesite","01","false","2","1","",""
"","","","","","","","","","","","html-keyboard-response","254","2.0.0","603586","66463e4efb99fba5a67a010a","1","33","null","","","","","","","","","<p style='font-size: 30px;'><strong>Okay</strong></p>","null","neutral_feedback","1","test","25","","","","","","","",""
"","","","","","","","","","","","html-button-response","255","2.0.0","605555","66463e4efb99fba5a67a010a","1","33","1967","","","","","","","","","<img src= ""rock_img/I_Pegmatite_03.jpg"" style=""width:8cm; height:5.239999999999999cm;""><p>What type of rock is this?</p>","6","class_response","1","test","26","Peridotite","Pegmatite","03","false","7","6","",""
"","","","","","","","","","","","html-keyboard-response","256","2.0.0","606056","66463e4efb99fba5a67a010a","1","33","null","","","","","","","","","<p style='font-size: 30px;'><strong>Okay</strong></p>","null","neutral_feedback","1","test","26","","","","","","","",""
"","","","","","","","","","","","html-button-response","257","2.0.0","606686","66463e4efb99fba5a67a010a","1","33","628","","","","","","","","","<img src= ""rock_img/I_Pegmatite_10.jpg"" style=""width:8cm; height:4.16cm;""><p>What type of rock is this?</p>","6","class_response","1","test","27","Peridotite","Pegmatite","10","false","7","6","",""
"","","","","","","","","","","","html-keyboard-response","258","2.0.0","607187","66463e4efb99fba5a67a010a","1","33","null","","","","","","","","","<p style='font-size: 30px;'><strong>Okay</strong></p>","null","neutral_feedback","1","test","27","","","","","","","",""
"","","","","","","","","","","","html-button-response","259","2.0.0","609718","66463e4efb99fba5a67a010a","1","33","2528","","","","","","","","","<img src= ""rock_img/I_Andesite_06.jpg"" style=""width:8cm; height:6.840000000000001cm;""><p>What type of rock is this?</p>","2","class_response","1","test","28","Diorite","Andesite","06","false","3","1","",""
"","","","","","","","","","","","html-keyboard-response","260","2.0.0","610219","66463e4efb99fba5a67a010a","1","33","null","","","","","","","","","<p style='font-size: 30px;'><strong>Okay</strong></p>","null","neutral_feedback","1","test","28","","","","","","","",""
"","","","","","","","","","","","html-button-response","261","2.0.0","611479","66463e4efb99fba5a67a010a","1","33","1259","","","","","","","","","<img src= ""rock_img/I_Gabbro_16.jpg"" style=""width:8cm; height:6.44cm;""><p>What type of rock is this?</p>","1","class_response","1","test","29","Basalt","Gabbro","16","false","2","4","",""
"","","","","","","","","","","","html-keyboard-response","262","2.0.0","611982","66463e4efb99fba5a67a010a","1","33","null","","","","","","","","","<p style='font-size: 30px;'><strong>Okay</strong></p>","null","neutral_feedback","1","test","29","","","","","","","",""
"","","","","","","","","","","","html-button-response","263","2.0.0","614621","66463e4efb99fba5a67a010a","1","33","2636","","","","","","","","","<img src= ""rock_img/I_Gabbro_03.jpg"" style=""width:8cm; height:8.52cm;""><p>What type of rock is this?</p>","0","class_response","1","test","30","Andesite","Gabbro","03","false","1","4","",""
"","","","","","","","","","","","html-keyboard-response","264","2.0.0","615123","66463e4efb99fba5a67a010a","1","33","null","","","","","","","","","<p style='font-size: 30px;'><strong>Okay</strong></p>","null","neutral_feedback","1","test","30","","","","","","","",""
"","","","","","","","","","","","html-button-response","265","2.0.0","616648","66463e4efb99fba5a67a010a","1","33","1523","","","","","","","","","<img src= ""rock_img/I_Basalt_11.jpg"" style=""width:8cm; height:5.359999999999999cm;""><p>What type of rock is this?</p>","0","class_response","1","test","31","Andesite","Basalt","11","false","1","2","",""
"","","","","","","","","","","","html-keyboard-response","266","2.0.0","617149","66463e4efb99fba5a67a010a","1","33","null","","","","","","","","","<p style='font-size: 30px;'><strong>Okay</strong></p>","null","neutral_feedback","1","test","31","","","","","","","",""
"","","","","","","","","","","","html-button-response","267","2.0.0","618353","66463e4efb99fba5a67a010a","1","33","1203","","","","","","","","","<img src= ""rock_img/I_Pumice_03.jpg"" style=""width:8cm; height:6.64cm;""><p>What type of rock is this?</p>","7","class_response","1","test","32","Pumice","Pumice","03","true","8","8","",""
"","","","","","","","","","","","html-keyboard-response","268","2.0.0","618855","66463e4efb99fba5a67a010a","1","33","null","","","","","","","","","<p style='font-size: 30px;'><strong>Okay</strong></p>","null","neutral_feedback","1","test","32","","","","","","","",""
"","","","","","","","","","","","html-button-response","269","2.0.0","619950","66463e4efb99fba5a67a010a","1","33","1092","","","","","","","","","<img src= ""rock_img/I_Peridotite_05.jpg"" style=""width:8cm; height:7.1499999999999995cm;""><p>What type of rock is this?</p>","6","class_response","1","test","33","Peridotite","Peridotite","05","true","7","7","",""
"","","","","","","","","","","","html-keyboard-response","270","2.0.0","620452","66463e4efb99fba5a67a010a","1","33","null","","","","","","","","","<p style='font-size: 30px;'><strong>Okay</strong></p>","null","neutral_feedback","1","test","33","","","","","","","",""
"","","","","","","","","","","","html-button-response","271","2.0.0","621352","66463e4efb99fba5a67a010a","1","33","897","","","","","","","","","<img src= ""rock_img/I_Peridotite_04.jpg"" style=""width:8cm; height:6.680000000000001cm;""><p>What type of rock is this?</p>","6","class_response","1","test","34","Peridotite","Peridotite","04","true","7","7","",""
"","","","","","","","","","","","html-keyboard-response","272","2.0.0","621853","66463e4efb99fba5a67a010a","1","33","null","","","","","","","","","<p style='font-size: 30px;'><strong>Okay</strong></p>","null","neutral_feedback","1","test","34","","","","","","","",""
"","","","","","","","","","","","html-button-response","273","2.0.0","623008","66463e4efb99fba5a67a010a","1","33","1153","","","","","","","","","<img src= ""rock_img/I_Pegmatite_15.jpg"" style=""width:8cm; height:6cm;""><p>What type of rock is this?</p>","6","class_response","1","test","35","Peridotite","Pegmatite","15","false","7","6","",""
"","","","","","","","","","","","html-keyboard-response","274","2.0.0","623510","66463e4efb99fba5a67a010a","1","33","null","","","","","","","","","<p style='font-size: 30px;'><strong>Okay</strong></p>","null","neutral_feedback","1","test","35","","","","","","","",""
"","","","","","","","","","","","html-button-response","275","2.0.0","625090","66463e4efb99fba5a67a010a","1","33","1579","","","","","","","","","<img src= ""rock_img/I_Andesite_09.jpg"" style=""width:8cm; height:6cm;""><p>What type of rock is this?</p>","2","class_response","1","test","36","Diorite","Andesite","09","false","3","1","",""
"","","","","","","","","","","","html-keyboard-response","276","2.0.0","625591","66463e4efb99fba5a67a010a","1","33","null","","","","","","","","","<p style='font-size: 30px;'><strong>Okay</strong></p>","null","neutral_feedback","1","test","36","","","","","","","",""
"","","","","","","","","","","","html-button-response","277","2.0.0","626931","66463e4efb99fba5a67a010a","1","33","1337","","","","","","","","","<img src= ""rock_img/I_Basalt_16.jpg"" style=""width:8cm; height:7.659999999999999cm;""><p>What type of rock is this?</p>","1","class_response","1","test","37","Basalt","Basalt","16","true","2","2","",""
"","","","","","","","","","","","html-keyboard-response","278","2.0.0","627432","66463e4efb99fba5a67a010a","1","33","null","","","","","","","","","<p style='font-size: 30px;'><strong>Okay</strong></p>","null","neutral_feedback","1","test","37","","","","","","","",""
"","","","","","","","","","","","html-button-response","279","2.0.0","628426","66463e4efb99fba5a67a010a","1","33","992","","","","","","","","","<img src= ""rock_img/I_Gabbro_10.jpg"" style=""width:8cm; height:5.680000000000001cm;""><p>What type of rock is this?</p>","1","class_response","1","test","38","Basalt","Gabbro","10","false","2","4","",""
"","","","","","","","","","","","html-keyboard-response","280","2.0.0","628927","66463e4efb99fba5a67a010a","1","33","null","","","","","","","","","<p style='font-size: 30px;'><strong>Okay</strong></p>","null","neutral_feedback","1","test","38","","","","","","","",""
"","","","","","","","","","","","html-button-response","281","2.0.0","630440","66463e4efb99fba5a67a010a","1","33","1510","","","","","","","","","<img src= ""rock_img/I_Obsidian_06.jpg"" style=""width:8cm; height:6.8cm;""><p>What type of rock is this?</p>","4","class_response","1","test","39","Obsidian","Obsidian","06","true","5","5","",""
"","","","","","","","","","","","html-keyboard-response","282","2.0.0","630942","66463e4efb99fba5a67a010a","1","33","null","","","","","","","","","<p style='font-size: 30px;'><strong>Okay</strong></p>","null","neutral_feedback","1","test","39","","","","","","","",""
"","","","","","","","","","","","html-button-response","283","2.0.0","633398","66463e4efb99fba5a67a010a","1","33","2454","","","","","","","","","<img src= ""rock_img/I_Gabbro_08.jpg"" style=""width:8cm; height:5.15cm;""><p>What type of rock is this?</p>","3","class_response","1","test","40","Gabbro","Gabbro","08","true","4","4","",""
"","","","","","","","","","","","html-keyboard-response","284","2.0.0","633900","66463e4efb99fba5a67a010a","1","33","null","","","","","","","","","<p style='font-size: 30px;'><strong>Okay</strong></p>","null","neutral_feedback","1","test","40","","","","","","","",""
"","","","","","","","","","","","html-button-response","285","2.0.0","634987","66463e4efb99fba5a67a010a","1","33","1085","","","","","","","","","<img src= ""rock_img/I_Diorite_09.jpg"" style=""width:8cm; height:5.27cm;""><p>What type of rock is this?</p>","3","class_response","1","test","41","Gabbro","Diorite","09","false","4","3","",""
"","","","","","","","","","","","html-keyboard-response","286","2.0.0","635489","66463e4efb99fba5a67a010a","1","33","null","","","","","","","","","<p style='font-size: 30px;'><strong>Okay</strong></p>","null","neutral_feedback","1","test","41","","","","","","","",""
"","","","","","","","","","","","html-button-response","287","2.0.0","637251","66463e4efb99fba5a67a010a","1","33","1759","","","","","","","","","<img src= ""rock_img/I_Gabbro_13.jpg"" style=""width:8cm; height:5.08cm;""><p>What type of rock is this?</p>","6","class_response","1","test","42","Peridotite","Gabbro","13","false","7","4","",""
"","","","","","","","","","","","html-keyboard-response","288","2.0.0","637752","66463e4efb99fba5a67a010a","1","33","null","","","","","","","","","<p style='font-size: 30px;'><strong>Okay</strong></p>","null","neutral_feedback","1","test","42","","","","","","","",""
"","","","","","","","","","","","html-button-response","289","2.0.0","639039","66463e4efb99fba5a67a010a","1","33","1285","","","","","","","","","<img src= ""rock_img/I_Obsidian_09.jpg"" style=""width:8cm; height:5cm;""><p>What type of rock is this?</p>","4","class_response","1","test","43","Obsidian","Obsidian","09","true","5","5","",""
"","","","","","","","","","","","html-keyboard-response","290","2.0.0","639541","66463e4efb99fba5a67a010a","1","33","null","","","","","","","","","<p style='font-size: 30px;'><strong>Okay</strong></p>","null","neutral_feedback","1","test","43","","","","","","","",""
"","","","","","","","","","","","html-button-response","291","2.0.0","640837","66463e4efb99fba5a67a010a","1","33","1295","","","","","","","","","<img src= ""rock_img/I_Obsidian_16.jpg"" style=""width:8cm; height:9.3cm;""><p>What type of rock is this?</p>","4","class_response","1","test","44","Obsidian","Obsidian","16","true","5","5","",""
"","","","","","","","","","","","html-keyboard-response","292","2.0.0","641340","66463e4efb99fba5a67a010a","1","33","null","","","","","","","","","<p style='font-size: 30px;'><strong>Okay</strong></p>","null","neutral_feedback","1","test","44","","","","","","","",""
"","","","","","","","","","","","html-button-response","293","2.0.0","647486","66463e4efb99fba5a67a010a","1","33","6143","","","","","","","","","<img src= ""rock_img/I_Pumice_09.jpg"" style=""width:8cm; height:6.44cm;""><p>What type of rock is this?</p>","7","class_response","1","test","45","Pumice","Pumice","09","true","8","8","",""
"","","","","","","","","","","","html-keyboard-response","294","2.0.0","647987","66463e4efb99fba5a67a010a","1","33","null","","","","","","","","","<p style='font-size: 30px;'><strong>Okay</strong></p>","null","neutral_feedback","1","test","45","","","","","","","",""
"","","","","","","","","","","","html-button-response","295","2.0.0","649057","66463e4efb99fba5a67a010a","1","33","1066","","","","","","","","","<img src= ""rock_img/I_Basalt_06.jpg"" style=""width:8cm; height:7.06cm;""><p>What type of rock is this?</p>","4","class_response","1","test","46","Obsidian","Basalt","06","false","5","2","",""
"","","","","","","","","","","","html-keyboard-response","296","2.0.0","649558","66463e4efb99fba5a67a010a","1","33","null","","","","","","","","","<p style='font-size: 30px;'><strong>Okay</strong></p>","null","neutral_feedback","1","test","46","","","","","","","",""
"","","","","","","","","","","","html-button-response","297","2.0.0","655007","66463e4efb99fba5a67a010a","1","33","5447","","","","","","","","","<img src= ""rock_img/I_Obsidian_05.jpg"" style=""width:8cm; height:6.33cm;""><p>What type of rock is this?</p>","4","class_response","1","test","47","Obsidian","Obsidian","05","true","5","5","",""
"","","","","","","","","","","","html-keyboard-response","298","2.0.0","655509","66463e4efb99fba5a67a010a","1","33","null","","","","","","","","","<p style='font-size: 30px;'><strong>Okay</strong></p>","null","neutral_feedback","1","test","47","","","","","","","",""
"","","","","","","","","","","","html-button-response","299","2.0.0","657503","66463e4efb99fba5a67a010a","1","33","1992","","","","","","","","","<img src= ""rock_img/I_Diorite_02.jpg"" style=""width:8cm; height:6.27cm;""><p>What type of rock is this?</p>","0","class_response","1","test","48","Andesite","Diorite","02","false","1","3","",""
"","","","","","","","","","","","html-keyboard-response","300","2.0.0","658004","66463e4efb99fba5a67a010a","1","33","null","","","","","","","","","<p style='font-size: 30px;'><strong>Okay</strong></p>","null","neutral_feedback","1","test","48","","","","","","","",""
"","","","","","","","","","","","html-button-response","301","2.0.0","691741","66463e4efb99fba5a67a010a","1","33","","","","","","","","","","","","cycle_feedback","","","","","","","","","","9126.5","24602.70000000298"
"","","","","","","","","","","","html-button-response","303","2.0.0","693235","66463e4efb99fba5a67a010a","1","33","1492","","","","","","","","","","0","start_train","","","","","","","","","","",""
"","","","","","","","","","","","html-button-response","304","2.0.0","696057","66463e4efb99fba5a67a010a","1","33","2821","","","","","","","","","<img src= ""rock_img/I_Pegmatite_11.jpg"" style=""width:8cm; height:8.14cm;""><p>What type of rock is this?</p>","0","class_response","2","train","1","Andesite","Pegmatite","11","false","1","6","",""
