"width","height","webaudio","browser","browser_version","mobile","os","fullscreen","vsync_rate","webcam","microphone","trial_type","trial_index","plugin_version","time_elapsed","subjID","condition","stimID","rt","url","success","value","timeout","failed_images","failed_audio","failed_video","view_history","stimulus","response","trialType","cycle","phase","trial","resp","cat","token","corr","resp_num","cat_num","time_fb1","time_fb2"
"1920","953","true","chrome","130.0.0","false","Windows 10","true","61.29","false","false","browser-check","0","2.0.0","997","66b4d2ee1ac8c5e9060a6930","1","21","","","","","","","","","","","","","","","","","","","","","","",""
"","","","","","","","","","","","external-html","1","2.0.0","20145","66b4d2ee1ac8c5e9060a6930","1","21","19046","consent_form.html","","","","","","","","","","","","","","","","","","","","",""
"","","","","","","","","","","","fullscreen","2","2.0.0","22836","66b4d2ee1ac8c5e9060a6930","1","21","1677","","true","","","","","","","","","","","","","","","","","","","",""
"","","","","","","","","","","","call-function","3","2.0.0","22839","66b4d2ee1ac8c5e9060a6930","1","21","","","","{}","","","","","","","","","","","","","","","","","","",""
"","","","","","","","","","","","preload","4","2.0.0","26078","66b4d2ee1ac8c5e9060a6930","1","21","","","true","","false","[]","[]","[]","","","","","","","","","","","","","","",""
"","","","","","","","","","","","instructions","5","2.0.0","65433","66b4d2ee1ac8c5e9060a6930","1","21","39353","","","","","","","","[{""page_index"":0,""viewing_time"":7361},{""page_index"":1,""viewing_time"":21016},{""page_index"":2,""viewing_time"":10976}]","","","","","","","","","","","","","",""
"","","","","","","","","","","","html-button-response","6","2.0.0","67713","66b4d2ee1ac8c5e9060a6930","1","21","2278","","","","","","","","","","0","start_test","","","","","","","","","","",""
"","","","","","","","","","","","html-button-response","7","2.0.0","80105","66b4d2ee1ac8c5e9060a6930","1","21","12390","","","","","","","","","<img src= ""rock_img/I_Peridotite_12.jpg"" style=""width:8cm; height:4.54cm;""><p>What type of rock is this?</p>","1","class_response","0","test","1","Basalt","Peridotite","12","false","2","7","",""
"","","","","","","","","","","","html-keyboard-response","8","2.0.0","80610","66b4d2ee1ac8c5e9060a6930","1","21","null","","","","","","","","","<p style='font-size: 30px;'><strong>Okay</strong></p>","null","neutral_feedback","0","test","1","","","","","","","",""
"","","","","","","","","","","","html-button-response","9","2.0.0","86617","66b4d2ee1ac8c5e9060a6930","1","21","6004","","","","","","","","","<img src= ""rock_img/I_Obsidian_06.jpg"" style=""width:8cm; height:6.8cm;""><p>What type of rock is this?</p>","4","class_response","0","test","2","Obsidian","Obsidian","06","true","5","5","",""
"","","","","","","","","","","","html-keyboard-response","10","2.0.0","87129","66b4d2ee1ac8c5e9060a6930","1","21","null","","","","","","","","","<p style='font-size: 30px;'><strong>Okay</strong></p>","null","neutral_feedback","0","test","2","","","","","","","",""
"","","","","","","","","","","","html-button-response","11","2.0.0","89712","66b4d2ee1ac8c5e9060a6930","1","21","2581","","","","","","","","","<img src= ""rock_img/I_Obsidian_16.jpg"" style=""width:8cm; height:9.3cm;""><p>What type of rock is this?</p>","4","class_response","0","test","3","Obsidian","Obsidian","16","true","5","5","",""
"","","","","","","","","","","","html-keyboard-response","12","2.0.0","90214","66b4d2ee1ac8c5e9060a6930","1","21","null","","","","","","","","","<p style='font-size: 30px;'><strong>Okay</strong></p>","null","neutral_feedback","0","test","3","","","","","","","",""
"","","","","","","","","","","","html-button-response","13","2.0.0","92576","66b4d2ee1ac8c5e9060a6930","1","21","2360","","","","","","","","","<img src= ""rock_img/I_Andesite_05.jpg"" style=""width:8cm; height:4.12cm;""><p>What type of rock is this?</p>","6","class_response","0","test","4","Peridotite","Andesite","05","false","7","1","",""
"","","","","","","","","","","","html-keyboard-response","14","2.0.0","93092","66b4d2ee1ac8c5e9060a6930","1","21","null","","","","","","","","","<p style='font-size: 30px;'><strong>Okay</strong></p>","null","neutral_feedback","0","test","4","","","","","","","",""
"","","","","","","","","","","","html-button-response","15","2.0.0","98250","66b4d2ee1ac8c5e9060a6930","1","21","5156","","","","","","","","","<img src= ""rock_img/I_Gabbro_12.jpg"" style=""width:8cm; height:7.800000000000001cm;""><p>What type of rock is this?</p>","2","class_response","0","test","5","Diorite","Gabbro","12","false","3","4","",""
"","","","","","","","","","","","html-keyboard-response","16","2.0.0","98759","66b4d2ee1ac8c5e9060a6930","1","21","null","","","","","","","","","<p style='font-size: 30px;'><strong>Okay</strong></p>","null","neutral_feedback","0","test","5","","","","","","","",""
"","","","","","","","","","","","html-button-response","17","2.0.0","100176","66b4d2ee1ac8c5e9060a6930","1","21","1415","","","","","","","","","<img src= ""rock_img/I_Pumice_09.jpg"" style=""width:8cm; height:6.44cm;""><p>What type of rock is this?</p>","7","class_response","0","test","6","Pumice","Pumice","09","true","8","8","",""
"","","","","","","","","","","","html-keyboard-response","18","2.0.0","100690","66b4d2ee1ac8c5e9060a6930","1","21","null","","","","","","","","","<p style='font-size: 30px;'><strong>Okay</strong></p>","null","neutral_feedback","0","test","6","","","","","","","",""
"","","","","","","","","","","","html-button-response","19","2.0.0","104393","66b4d2ee1ac8c5e9060a6930","1","21","3701","","","","","","","","","<img src= ""rock_img/I_Andesite_14.jpg"" style=""width:8cm; height:5.449999999999999cm;""><p>What type of rock is this?</p>","1","class_response","0","test","7","Basalt","Andesite","14","false","2","1","",""
"","","","","","","","","","","","html-keyboard-response","20","2.0.0","104906","66b4d2ee1ac8c5e9060a6930","1","21","null","","","","","","","","","<p style='font-size: 30px;'><strong>Okay</strong></p>","null","neutral_feedback","0","test","7","","","","","","","",""
"","","","","","","","","","","","html-button-response","21","2.0.0","109240","66b4d2ee1ac8c5e9060a6930","1","21","4332","","","","","","","","","<img src= ""rock_img/I_Obsidian_05.jpg"" style=""width:8cm; height:6.33cm;""><p>What type of rock is this?</p>","3","class_response","0","test","8","Gabbro","Obsidian","05","false","4","5","",""
"","","","","","","","","","","","html-keyboard-response","22","2.0.0","109743","66b4d2ee1ac8c5e9060a6930","1","21","null","","","","","","","","","<p style='font-size: 30px;'><strong>Okay</strong></p>","null","neutral_feedback","0","test","8","","","","","","","",""
"","","","","","","","","","","","html-button-response","23","2.0.0","112648","66b4d2ee1ac8c5e9060a6930","1","21","2904","","","","","","","","","<img src= ""rock_img/I_Basalt_04.jpg"" style=""width:8cm; height:7.53cm;""><p>What type of rock is this?</p>","0","class_response","0","test","9","Andesite","Basalt","04","false","1","2","",""
"","","","","","","","","","","","html-keyboard-response","24","2.0.0","113160","66b4d2ee1ac8c5e9060a6930","1","21","null","","","","","","","","","<p style='font-size: 30px;'><strong>Okay</strong></p>","null","neutral_feedback","0","test","9","","","","","","","",""
"","","","","","","","","","","","html-button-response","25","2.0.0","117256","66b4d2ee1ac8c5e9060a6930","1","21","4094","","","","","","","","","<img src= ""rock_img/I_Diorite_08.jpg"" style=""width:8cm; height:6.37cm;""><p>What type of rock is this?</p>","6","class_response","0","test","10","Peridotite","Diorite","08","false","7","3","",""
"","","","","","","","","","","","html-keyboard-response","26","2.0.0","117771","66b4d2ee1ac8c5e9060a6930","1","21","null","","","","","","","","","<p style='font-size: 30px;'><strong>Okay</strong></p>","null","neutral_feedback","0","test","10","","","","","","","",""
"","","","","","","","","","","","html-button-response","27","2.0.0","119744","66b4d2ee1ac8c5e9060a6930","1","21","1970","","","","","","","","","<img src= ""rock_img/I_Peridotite_10.jpg"" style=""width:8cm; height:5.390000000000001cm;""><p>What type of rock is this?</p>","2","class_response","0","test","11","Diorite","Peridotite","10","false","3","7","",""
"","","","","","","","","","","","html-keyboard-response","28","2.0.0","120257","66b4d2ee1ac8c5e9060a6930","1","21","null","","","","","","","","","<p style='font-size: 30px;'><strong>Okay</strong></p>","null","neutral_feedback","0","test","11","","","","","","","",""
"","","","","","","","","","","","html-button-response","29","2.0.0","121641","66b4d2ee1ac8c5e9060a6930","1","21","1382","","","","","","","","","<img src= ""rock_img/I_Peridotite_07.jpg"" style=""width:8cm; height:4.83cm;""><p>What type of rock is this?</p>","5","class_response","0","test","12","Pegmatite","Peridotite","07","false","6","7","",""
"","","","","","","","","","","","html-keyboard-response","30","2.0.0","122150","66b4d2ee1ac8c5e9060a6930","1","21","null","","","","","","","","","<p style='font-size: 30px;'><strong>Okay</strong></p>","null","neutral_feedback","0","test","12","","","","","","","",""
"","","","","","","","","","","","html-button-response","31","2.0.0","124760","66b4d2ee1ac8c5e9060a6930","1","21","2608","","","","","","","","","<img src= ""rock_img/I_Pegmatite_09.jpg"" style=""width:8cm; height:4.03cm;""><p>What type of rock is this?</p>","3","class_response","0","test","13","Gabbro","Pegmatite","09","false","4","6","",""
"","","","","","","","","","","","html-keyboard-response","32","2.0.0","125263","66b4d2ee1ac8c5e9060a6930","1","21","null","","","","","","","","","<p style='font-size: 30px;'><strong>Okay</strong></p>","null","neutral_feedback","0","test","13","","","","","","","",""
"","","","","","","","","","","","html-button-response","33","2.0.0","127688","66b4d2ee1ac8c5e9060a6930","1","21","2423","","","","","","","","","<img src= ""rock_img/I_Diorite_07.jpg"" style=""width:8cm; height:5.239999999999999cm;""><p>What type of rock is this?</p>","1","class_response","0","test","14","Basalt","Diorite","07","false","2","3","",""
"","","","","","","","","","","","html-keyboard-response","34","2.0.0","128205","66b4d2ee1ac8c5e9060a6930","1","21","null","","","","","","","","","<p style='font-size: 30px;'><strong>Okay</strong></p>","null","neutral_feedback","0","test","14","","","","","","","",""
"","","","","","","","","","","","html-button-response","35","2.0.0","132160","66b4d2ee1ac8c5e9060a6930","1","21","3953","","","","","","","","","<img src= ""rock_img/I_Andesite_06.jpg"" style=""width:8cm; height:6.840000000000001cm;""><p>What type of rock is this?</p>","5","class_response","0","test","15","Pegmatite","Andesite","06","false","6","1","",""
"","","","","","","","","","","","html-keyboard-response","36","2.0.0","132674","66b4d2ee1ac8c5e9060a6930","1","21","null","","","","","","","","","<p style='font-size: 30px;'><strong>Okay</strong></p>","null","neutral_feedback","0","test","15","","","","","","","",""
"","","","","","","","","","","","html-button-response","37","2.0.0","135624","66b4d2ee1ac8c5e9060a6930","1","21","2948","","","","","","","","","<img src= ""rock_img/I_Pumice_15.jpg"" style=""width:8cm; height:7.86cm;""><p>What type of rock is this?</p>","7","class_response","0","test","16","Pumice","Pumice","15","true","8","8","",""
"","","","","","","","","","","","html-keyboard-response","38","2.0.0","136126","66b4d2ee1ac8c5e9060a6930","1","21","null","","","","","","","","","<p style='font-size: 30px;'><strong>Okay</strong></p>","null","neutral_feedback","0","test","16","","","","","","","",""
"","","","","","","","","","","","html-button-response","39","2.0.0","138976","66b4d2ee1ac8c5e9060a6930","1","21","2848","","","","","","","","","<img src= ""rock_img/I_Gabbro_10.jpg"" style=""width:8cm; height:5.680000000000001cm;""><p>What type of rock is this?</p>","0","class_response","0","test","17","Andesite","Gabbro","10","false","1","4","",""
"","","","","","","","","","","","html-keyboard-response","40","2.0.0","139479","66b4d2ee1ac8c5e9060a6930","1","21","null","","","","","","","","","<p style='font-size: 30px;'><strong>Okay</strong></p>","null","neutral_feedback","0","test","17","","","","","","","",""
"","","","","","","","","","","","html-button-response","41","2.0.0","142864","66b4d2ee1ac8c5e9060a6930","1","21","3383","","","","","","","","","<img src= ""rock_img/I_Pumice_13.jpg"" style=""width:8cm; height:8.200000000000001cm;""><p>What type of rock is this?</p>","7","class_response","0","test","18","Pumice","Pumice","13","true","8","8","",""
"","","","","","","","","","","","html-keyboard-response","42","2.0.0","143365","66b4d2ee1ac8c5e9060a6930","1","21","null","","","","","","","","","<p style='font-size: 30px;'><strong>Okay</strong></p>","null","neutral_feedback","0","test","18","","","","","","","",""
"","","","","","","","","","","","html-button-response","43","2.0.0","144720","66b4d2ee1ac8c5e9060a6930","1","21","1352","","","","","","","","","<img src= ""rock_img/I_Gabbro_11.jpg"" style=""width:8cm; height:6.2cm;""><p>What type of rock is this?</p>","2","class_response","0","test","19","Diorite","Gabbro","11","false","3","4","",""
"","","","","","","","","","","","html-keyboard-response","44","2.0.0","145232","66b4d2ee1ac8c5e9060a6930","1","21","null","","","","","","","","","<p style='font-size: 30px;'><strong>Okay</strong></p>","null","neutral_feedback","0","test","19","","","","","","","",""
"","","","","","","","","","","","html-button-response","45","2.0.0","146752","66b4d2ee1ac8c5e9060a6930","1","21","1518","","","","","","","","","<img src= ""rock_img/I_Obsidian_02.jpg"" style=""width:8cm; height:7.51cm;""><p>What type of rock is this?</p>","4","class_response","0","test","20","Obsidian","Obsidian","02","true","5","5","",""
"","","","","","","","","","","","html-keyboard-response","46","2.0.0","147258","66b4d2ee1ac8c5e9060a6930","1","21","null","","","","","","","","","<p style='font-size: 30px;'><strong>Okay</strong></p>","null","neutral_feedback","0","test","20","","","","","","","",""
"","","","","","","","","","","","html-button-response","47","2.0.0","148544","66b4d2ee1ac8c5e9060a6930","1","21","1284","","","","","","","","","<img src= ""rock_img/I_Pumice_02.jpg"" style=""width:8cm; height:7.3999999999999995cm;""><p>What type of rock is this?</p>","7","class_response","0","test","21","Pumice","Pumice","02","true","8","8","",""
"","","","","","","","","","","","html-keyboard-response","48","2.0.0","149057","66b4d2ee1ac8c5e9060a6930","1","21","null","","","","","","","","","<p style='font-size: 30px;'><strong>Okay</strong></p>","null","neutral_feedback","0","test","21","","","","","","","",""
"","","","","","","","","","","","html-button-response","49","2.0.0","150384","66b4d2ee1ac8c5e9060a6930","1","21","1325","","","","","","","","","<img src= ""rock_img/I_Diorite_12.jpg"" style=""width:8cm; height:4.88cm;""><p>What type of rock is this?</p>","3","class_response","0","test","22","Gabbro","Diorite","12","false","4","3","",""
"","","","","","","","","","","","html-keyboard-response","50","2.0.0","150900","66b4d2ee1ac8c5e9060a6930","1","21","null","","","","","","","","","<p style='font-size: 30px;'><strong>Okay</strong></p>","null","neutral_feedback","0","test","22","","","","","","","",""
"","","","","","","","","","","","html-button-response","51","2.0.0","152393","66b4d2ee1ac8c5e9060a6930","1","21","1492","","","","","","","","","<img src= ""rock_img/I_Peridotite_15.jpg"" style=""width:8cm; height:6cm;""><p>What type of rock is this?</p>","6","class_response","0","test","23","Peridotite","Peridotite","15","true","7","7","",""
"","","","","","","","","","","","html-keyboard-response","52","2.0.0","152906","66b4d2ee1ac8c5e9060a6930","1","21","null","","","","","","","","","<p style='font-size: 30px;'><strong>Okay</strong></p>","null","neutral_feedback","0","test","23","","","","","","","",""
"","","","","","","","","","","","html-button-response","53","2.0.0","154240","66b4d2ee1ac8c5e9060a6930","1","21","1332","","","","","","","","","<img src= ""rock_img/I_Diorite_06.jpg"" style=""width:8cm; height:6.03cm;""><p>What type of rock is this?</p>","1","class_response","0","test","24","Basalt","Diorite","06","false","2","3","",""
"","","","","","","","","","","","html-keyboard-response","54","2.0.0","154756","66b4d2ee1ac8c5e9060a6930","1","21","null","","","","","","","","","<p style='font-size: 30px;'><strong>Okay</strong></p>","null","neutral_feedback","0","test","24","","","","","","","",""
"","","","","","","","","","","","html-button-response","55","2.0.0","155952","66b4d2ee1ac8c5e9060a6930","1","21","1194","","","","","","","","","<img src= ""rock_img/I_Pegmatite_16.jpg"" style=""width:8cm; height:5.8cm;""><p>What type of rock is this?</p>","5","class_response","0","test","25","Pegmatite","Pegmatite","16","true","6","6","",""
"","","","","","","","","","","","html-keyboard-response","56","2.0.0","156467","66b4d2ee1ac8c5e9060a6930","1","21","null","","","","","","","","","<p style='font-size: 30px;'><strong>Okay</strong></p>","null","neutral_feedback","0","test","25","","","","","","","",""
"","","","","","","","","","","","html-button-response","57","2.0.0","158568","66b4d2ee1ac8c5e9060a6930","1","21","2099","","","","","","","","","<img src= ""rock_img/I_Basalt_08.jpg"" style=""width:8cm; height:10.44cm;""><p>What type of rock is this?</p>","0","class_response","0","test","26","Andesite","Basalt","08","false","1","2","",""
"","","","","","","","","","","","html-keyboard-response","58","2.0.0","159073","66b4d2ee1ac8c5e9060a6930","1","21","null","","","","","","","","","<p style='font-size: 30px;'><strong>Okay</strong></p>","null","neutral_feedback","0","test","26","","","","","","","",""
"","","","","","","","","","","","html-button-response","59","2.0.0","160848","66b4d2ee1ac8c5e9060a6930","1","21","1773","","","","","","","","","<img src= ""rock_img/I_Basalt_11.jpg"" style=""width:8cm; height:5.359999999999999cm;""><p>What type of rock is this?</p>","1","class_response","0","test","27","Basalt","Basalt","11","true","2","2","",""
"","","","","","","","","","","","html-keyboard-response","60","2.0.0","161356","66b4d2ee1ac8c5e9060a6930","1","21","null","","","","","","","","","<p style='font-size: 30px;'><strong>Okay</strong></p>","null","neutral_feedback","0","test","27","","","","","","","",""
"","","","","","","","","","","","html-button-response","61","2.0.0","162424","66b4d2ee1ac8c5e9060a6930","1","21","1065","","","","","","","","","<img src= ""rock_img/I_Peridotite_16.jpg"" style=""width:8cm; height:6.989999999999999cm;""><p>What type of rock is this?</p>","2","class_response","0","test","28","Diorite","Peridotite","16","false","3","7","",""
"","","","","","","","","","","","html-keyboard-response","62","2.0.0","162931","66b4d2ee1ac8c5e9060a6930","1","21","null","","","","","","","","","<p style='font-size: 30px;'><strong>Okay</strong></p>","null","neutral_feedback","0","test","28","","","","","","","",""
"","","","","","","","","","","","html-button-response","63","2.0.0","166808","66b4d2ee1ac8c5e9060a6930","1","21","3875","","","","","","","","","<img src= ""rock_img/I_Basalt_10.jpg"" style=""width:8cm; height:5.85cm;""><p>What type of rock is this?</p>","3","class_response","0","test","29","Gabbro","Basalt","10","false","4","2","",""
"","","","","","","","","","","","html-keyboard-response","64","2.0.0","167310","66b4d2ee1ac8c5e9060a6930","1","21","null","","","","","","","","","<p style='font-size: 30px;'><strong>Okay</strong></p>","null","neutral_feedback","0","test","29","","","","","","","",""
"","","","","","","","","","","","html-button-response","65","2.0.0","168496","66b4d2ee1ac8c5e9060a6930","1","21","1184","","","","","","","","","<img src= ""rock_img/I_Obsidian_04.jpg"" style=""width:8cm; height:6.930000000000001cm;""><p>What type of rock is this?</p>","4","class_response","0","test","30","Obsidian","Obsidian","04","true","5","5","",""
"","","","","","","","","","","","html-keyboard-response","66","2.0.0","168999","66b4d2ee1ac8c5e9060a6930","1","21","null","","","","","","","","","<p style='font-size: 30px;'><strong>Okay</strong></p>","null","neutral_feedback","0","test","30","","","","","","","",""
"","","","","","","","","","","","html-button-response","67","2.0.0","170760","66b4d2ee1ac8c5e9060a6930","1","21","1760","","","","","","","","","<img src= ""rock_img/I_Diorite_15.jpg"" style=""width:8cm; height:5.54cm;""><p>What type of rock is this?</p>","5","class_response","0","test","31","Pegmatite","Diorite","15","false","6","3","",""
"","","","","","","","","","","","html-keyboard-response","68","2.0.0","171274","66b4d2ee1ac8c5e9060a6930","1","21","null","","","","","","","","","<p style='font-size: 30px;'><strong>Okay</strong></p>","null","neutral_feedback","0","test","31","","","","","","","",""
"","","","","","","","","","","","html-button-response","69","2.0.0","173672","66b4d2ee1ac8c5e9060a6930","1","21","2395","","","","","","","","","<img src= ""rock_img/I_Pegmatite_11.jpg"" style=""width:8cm; height:8.14cm;""><p>What type of rock is this?</p>","6","class_response","0","test","32","Peridotite","Pegmatite","11","false","7","6","",""
"","","","","","","","","","","","html-keyboard-response","70","2.0.0","174176","66b4d2ee1ac8c5e9060a6930","1","21","null","","","","","","","","","<p style='font-size: 30px;'><strong>Okay</strong></p>","null","neutral_feedback","0","test","32","","","","","","","",""
"","","","","","","","","","","","html-button-response","71","2.0.0","175424","66b4d2ee1ac8c5e9060a6930","1","21","1246","","","","","","","","","<img src= ""rock_img/I_Gabbro_15.jpg"" style=""width:8cm; height:6.29cm;""><p>What type of rock is this?</p>","1","class_response","0","test","33","Basalt","Gabbro","15","false","2","4","",""
"","","","","","","","","","","","html-keyboard-response","72","2.0.0","175933","66b4d2ee1ac8c5e9060a6930","1","21","null","","","","","","","","","<p style='font-size: 30px;'><strong>Okay</strong></p>","null","neutral_feedback","0","test","33","","","","","","","",""
"","","","","","","","","","","","html-button-response","73","2.0.0","177408","66b4d2ee1ac8c5e9060a6930","1","21","1472","","","","","","","","","<img src= ""rock_img/I_Pegmatite_06.jpg"" style=""width:8cm; height:5.17cm;""><p>What type of rock is this?</p>","0","class_response","0","test","34","Andesite","Pegmatite","06","false","1","6","",""
"","","","","","","","","","","","html-keyboard-response","74","2.0.0","177910","66b4d2ee1ac8c5e9060a6930","1","21","null","","","","","","","","","<p style='font-size: 30px;'><strong>Okay</strong></p>","null","neutral_feedback","0","test","34","","","","","","","",""
"","","","","","","","","","","","html-button-response","75","2.0.0","179304","66b4d2ee1ac8c5e9060a6930","1","21","1391","","","","","","","","","<img src= ""rock_img/I_Andesite_09.jpg"" style=""width:8cm; height:6cm;""><p>What type of rock is this?</p>","3","class_response","0","test","35","Gabbro","Andesite","09","false","4","1","",""
"","","","","","","","","","","","html-keyboard-response","76","2.0.0","179807","66b4d2ee1ac8c5e9060a6930","1","21","null","","","","","","","","","<p style='font-size: 30px;'><strong>Okay</strong></p>","null","neutral_feedback","0","test","35","","","","","","","",""
"","","","","","","","","","","","html-button-response","77","2.0.0","181023","66b4d2ee1ac8c5e9060a6930","1","21","1215","","","","","","","","","<img src= ""rock_img/I_Pumice_10.jpg"" style=""width:8cm; height:7.609999999999999cm;""><p>What type of rock is this?</p>","7","class_response","0","test","36","Pumice","Pumice","10","true","8","8","",""
"","","","","","","","","","","","html-keyboard-response","78","2.0.0","181525","66b4d2ee1ac8c5e9060a6930","1","21","null","","","","","","","","","<p style='font-size: 30px;'><strong>Okay</strong></p>","null","neutral_feedback","0","test","36","","","","","","","",""
"","","","","","","","","","","","html-button-response","79","2.0.0","182751","66b4d2ee1ac8c5e9060a6930","1","21","1224","","","","","","","","","<img src= ""rock_img/I_Pegmatite_13.jpg"" style=""width:8cm; height:4.95cm;""><p>What type of rock is this?</p>","5","class_response","0","test","37","Pegmatite","Pegmatite","13","true","6","6","",""
"","","","","","","","","","","","html-keyboard-response","80","2.0.0","183256","66b4d2ee1ac8c5e9060a6930","1","21","null","","","","","","","","","<p style='font-size: 30px;'><strong>Okay</strong></p>","null","neutral_feedback","0","test","37","","","","","","","",""
"","","","","","","","","","","","html-button-response","81","2.0.0","184208","66b4d2ee1ac8c5e9060a6930","1","21","950","","","","","","","","","<img src= ""rock_img/I_Gabbro_08.jpg"" style=""width:8cm; height:5.15cm;""><p>What type of rock is this?</p>","1","class_response","0","test","38","Basalt","Gabbro","08","false","2","4","",""
"","","","","","","","","","","","html-keyboard-response","82","2.0.0","184718","66b4d2ee1ac8c5e9060a6930","1","21","null","","","","","","","","","<p style='font-size: 30px;'><strong>Okay</strong></p>","null","neutral_feedback","0","test","38","","","","","","","",""
"","","","","","","","","","","","html-button-response","83","2.0.0","185935","66b4d2ee1ac8c5e9060a6930","1","21","1215","","","","","","","","","<img src= ""rock_img/I_Diorite_09.jpg"" style=""width:8cm; height:5.27cm;""><p>What type of rock is this?</p>","2","class_response","0","test","39","Diorite","Diorite","09","true","3","3","",""
"","","","","","","","","","","","html-keyboard-response","84","2.0.0","186440","66b4d2ee1ac8c5e9060a6930","1","21","null","","","","","","","","","<p style='font-size: 30px;'><strong>Okay</strong></p>","null","neutral_feedback","0","test","39","","","","","","","",""
"","","","","","","","","","","","html-button-response","85","2.0.0","187575","66b4d2ee1ac8c5e9060a6930","1","21","1134","","","","","","","","","<img src= ""rock_img/I_Andesite_10.jpg"" style=""width:8cm; height:4.16cm;""><p>What type of rock is this?</p>","2","class_response","0","test","40","Diorite","Andesite","10","false","3","1","",""
"","","","","","","","","","","","html-keyboard-response","86","2.0.0","188087","66b4d2ee1ac8c5e9060a6930","1","21","null","","","","","","","","","<p style='font-size: 30px;'><strong>Okay</strong></p>","null","neutral_feedback","0","test","40","","","","","","","",""
"","","","","","","","","","","","html-button-response","87","2.0.0","189247","66b4d2ee1ac8c5e9060a6930","1","21","1158","","","","","","","","","<img src= ""rock_img/I_Andesite_02.jpg"" style=""width:8cm; height:8.5cm;""><p>What type of rock is this?</p>","2","class_response","0","test","41","Diorite","Andesite","02","false","3","1","",""
"","","","","","","","","","","","html-keyboard-response","88","2.0.0","189756","66b4d2ee1ac8c5e9060a6930","1","21","null","","","","","","","","","<p style='font-size: 30px;'><strong>Okay</strong></p>","null","neutral_feedback","0","test","41","","","","","","","",""
"","","","","","","","","","","","html-button-response","89","2.0.0","191151","66b4d2ee1ac8c5e9060a6930","1","21","1393","","","","","","","","","<img src= ""rock_img/I_Pegmatite_15.jpg"" style=""width:8cm; height:6cm;""><p>What type of rock is this?</p>","0","class_response","0","test","42","Andesite","Pegmatite","15","false","1","6","",""
"","","","","","","","","","","","html-keyboard-response","90","2.0.0","191657","66b4d2ee1ac8c5e9060a6930","1","21","null","","","","","","","","","<p style='font-size: 30px;'><strong>Okay</strong></p>","null","neutral_feedback","0","test","42","","","","","","","",""
"","","","","","","","","","","","html-button-response","91","2.0.0","192744","66b4d2ee1ac8c5e9060a6930","1","21","1084","","","","","","","","","<img src= ""rock_img/I_Obsidian_11.jpg"" style=""width:8cm; height:6.05cm;""><p>What type of rock is this?</p>","4","class_response","0","test","43","Obsidian","Obsidian","11","true","5","5","",""
"","","","","","","","","","","","html-keyboard-response","92","2.0.0","193245","66b4d2ee1ac8c5e9060a6930","1","21","null","","","","","","","","","<p style='font-size: 30px;'><strong>Okay</strong></p>","null","neutral_feedback","0","test","43","","","","","","","",""
"","","","","","","","","","","","html-button-response","93","2.0.0","194559","66b4d2ee1ac8c5e9060a6930","1","21","1312","","","","","","","","","<img src= ""rock_img/I_Pumice_04.jpg"" style=""width:8cm; height:6.819999999999999cm;""><p>What type of rock is this?</p>","7","class_response","0","test","44","Pumice","Pumice","04","true","8","8","",""
"","","","","","","","","","","","html-keyboard-response","94","2.0.0","195065","66b4d2ee1ac8c5e9060a6930","1","21","null","","","","","","","","","<p style='font-size: 30px;'><strong>Okay</strong></p>","null","neutral_feedback","0","test","44","","","","","","","",""
"","","","","","","","","","","","html-button-response","95","2.0.0","196511","66b4d2ee1ac8c5e9060a6930","1","21","1444","","","","","","","","","<img src= ""rock_img/I_Basalt_14.jpg"" style=""width:8cm; height:5.82cm;""><p>What type of rock is this?</p>","7","class_response","0","test","45","Pumice","Basalt","14","false","8","2","",""
"","","","","","","","","","","","html-keyboard-response","96","2.0.0","197015","66b4d2ee1ac8c5e9060a6930","1","21","null","","","","","","","","","<p style='font-size: 30px;'><strong>Okay</strong></p>","null","neutral_feedback","0","test","45","","","","","","","",""
"","","","","","","","","","","","html-button-response","97","2.0.0","199352","66b4d2ee1ac8c5e9060a6930","1","21","2335","","","","","","","","","<img src= ""rock_img/I_Gabbro_16.jpg"" style=""width:8cm; height:6.44cm;""><p>What type of rock is this?</p>","3","class_response","0","test","46","Gabbro","Gabbro","16","true","4","4","",""
"","","","","","","","","","","","html-keyboard-response","98","2.0.0","199860","66b4d2ee1ac8c5e9060a6930","1","21","null","","","","","","","","","<p style='font-size: 30px;'><strong>Okay</strong></p>","null","neutral_feedback","0","test","46","","","","","","","",""
"","","","","","","","","","","","html-button-response","99","2.0.0","201159","66b4d2ee1ac8c5e9060a6930","1","21","1297","","","","","","","","","<img src= ""rock_img/I_Peridotite_06.jpg"" style=""width:8cm; height:7.53cm;""><p>What type of rock is this?</p>","6","class_response","0","test","47","Peridotite","Peridotite","06","true","7","7","",""
"","","","","","","","","","","","html-keyboard-response","100","2.0.0","201664","66b4d2ee1ac8c5e9060a6930","1","21","null","","","","","","","","","<p style='font-size: 30px;'><strong>Okay</strong></p>","null","neutral_feedback","0","test","47","","","","","","","",""
"","","","","","","","","","","","html-button-response","101","2.0.0","203519","66b4d2ee1ac8c5e9060a6930","1","21","1853","","","","","","","","","<img src= ""rock_img/I_Basalt_12.jpg"" style=""width:8cm; height:6.010000000000001cm;""><p>What type of rock is this?</p>","7","class_response","0","test","48","Pumice","Basalt","12","false","8","2","",""
"","","","","","","","","","","","html-keyboard-response","102","2.0.0","204031","66b4d2ee1ac8c5e9060a6930","1","21","null","","","","","","","","","<p style='font-size: 30px;'><strong>Okay</strong></p>","null","neutral_feedback","0","test","48","","","","","","","",""
"","","","","","","","","","","","instructions","103","2.0.0","304902","66b4d2ee1ac8c5e9060a6930","1","21","100830","","","","","","","","[{""page_index"":0,""viewing_time"":89510},{""page_index"":1,""viewing_time"":6368},{""page_index"":2,""viewing_time"":4952}]","","","","","","","","","","","","","",""
"","","","","","","","","","","","html-button-response","104","2.0.0","308094","66b4d2ee1ac8c5e9060a6930","1","21","3191","","","","","","","","","","0","start_train","","","","","","","","","","",""
"","","","","","","","","","","","html-button-response","105","2.0.0","313310","66b4d2ee1ac8c5e9060a6930","1","21","5214","","","","","","","","","<img src= ""rock_img/I_Pegmatite_05.jpg"" style=""width:8cm; height:7.300000000000001cm;""><p>What type of rock is this?</p>","1","class_response","1","train","1","Basalt","Pegmatite","05","false","2","6","",""
"","","","","","","","","","","","html-button-response","106","2.0.0","327646","66b4d2ee1ac8c5e9060a6930","1","21","14334","","","","","","","","","<img src= rock_img/I_Pegmatite_05.jpg style=""width:8cm; height:7.300000000000001cm;""><p style='font-size: 30px; color: red;'><strong>Incorrect!</strong></p><p style='font-size: 30px;'><strong>This rock is pegmatite</strong></p>","0","corr_feedback","1","train","1","","","","","","","",""
"","","","","","","","","","","","html-button-response","107","2.0.0","335221","66b4d2ee1ac8c5e9060a6930","1","21","7574","","","","","","","","","<img src= ""rock_img/I_Peridotite_05.jpg"" style=""width:8cm; height:7.1499999999999995cm;""><p>What type of rock is this?</p>","0","class_response","1","train","2","Andesite","Peridotite","05","false","1","7","",""
"","","","","","","","","","","","html-button-response","108","2.0.0","342885","66b4d2ee1ac8c5e9060a6930","1","21","7663","","","","","","","","","<img src= rock_img/I_Peridotite_05.jpg style=""width:8cm; height:7.1499999999999995cm;""><p style='font-size: 30px; color: red;'><strong>Incorrect!</strong></p><p style='font-size: 30px;'><strong>This rock is peridotite</strong></p>","0","corr_feedback","1","train","2","","","","","","","",""
"","","","","","","","","","","","html-button-response","109","2.0.0","346582","66b4d2ee1ac8c5e9060a6930","1","21","3695","","","","","","","","","<img src= ""rock_img/I_Basalt_05.jpg"" style=""width:8cm; height:8.18cm;""><p>What type of rock is this?</p>","2","class_response","1","train","3","Diorite","Basalt","05","false","3","2","",""
"","","","","","","","","","","","html-button-response","110","2.0.0","353838","66b4d2ee1ac8c5e9060a6930","1","21","7254","","","","","","","","","<img src= rock_img/I_Basalt_05.jpg style=""width:8cm; height:8.18cm;""><p style='font-size: 30px; color: red;'><strong>Incorrect!</strong></p><p style='font-size: 30px;'><strong>This rock is basalt</strong></p>","0","corr_feedback","1","train","3","","","","","","","",""
"","","","","","","","","","","","html-button-response","111","2.0.0","359678","66b4d2ee1ac8c5e9060a6930","1","21","5839","","","","","","","","","<img src= ""rock_img/I_Obsidian_07.jpg"" style=""width:8cm; height:4.76cm;""><p>What type of rock is this?</p>","0","class_response","1","train","4","Andesite","Obsidian","07","false","1","5","",""
"","","","","","","","","","","","html-button-response","112","2.0.0","367973","66b4d2ee1ac8c5e9060a6930","1","21","8294","","","","","","","","","<img src= rock_img/I_Obsidian_07.jpg style=""width:8cm; height:4.76cm;""><p style='font-size: 30px; color: red;'><strong>Incorrect!</strong></p><p style='font-size: 30px;'><strong>This rock is obsidian</strong></p>","0","corr_feedback","1","train","4","","","","","","","",""
"","","","","","","","","","","","html-button-response","113","2.0.0","369622","66b4d2ee1ac8c5e9060a6930","1","21","1647","","","","","","","","","<img src= ""rock_img/I_Pumice_03.jpg"" style=""width:8cm; height:6.64cm;""><p>What type of rock is this?</p>","7","class_response","1","train","5","Pumice","Pumice","03","true","8","8","",""
"","","","","","","","","","","","html-button-response","114","2.0.0","371357","66b4d2ee1ac8c5e9060a6930","1","21","1734","","","","","","","","","<img src= rock_img/I_Pumice_03.jpg style=""width:8cm; height:6.64cm;""><p style='font-size: 30px; color: green;'><strong>Correct!</strong></p><p style='font-size: 30px;'><strong>This rock is pumice</strong></p>","0","corr_feedback","1","train","5","","","","","","","",""
"","","","","","","","","","","","html-button-response","115","2.0.0","375517","66b4d2ee1ac8c5e9060a6930","1","21","4158","","","","","","","","","<img src= ""rock_img/I_Diorite_16.jpg"" style=""width:8cm; height:6.74cm;""><p>What type of rock is this?</p>","3","class_response","1","train","6","Gabbro","Diorite","16","false","4","3","",""
"","","","","","","","","","","","html-button-response","116","2.0.0","382861","66b4d2ee1ac8c5e9060a6930","1","21","7342","","","","","","","","","<img src= rock_img/I_Diorite_16.jpg style=""width:8cm; height:6.74cm;""><p style='font-size: 30px; color: red;'><strong>Incorrect!</strong></p><p style='font-size: 30px;'><strong>This rock is diorite</strong></p>","0","corr_feedback","1","train","6","","","","","","","",""
"","","","","","","","","","","","html-button-response","117","2.0.0","384885","66b4d2ee1ac8c5e9060a6930","1","21","2023","","","","","","","","","<img src= ""rock_img/I_Obsidian_10.jpg"" style=""width:8cm; height:6.260000000000001cm;""><p>What type of rock is this?</p>","4","class_response","1","train","7","Obsidian","Obsidian","10","true","5","5","",""
"","","","","","","","","","","","html-button-response","118","2.0.0","386053","66b4d2ee1ac8c5e9060a6930","1","21","1166","","","","","","","","","<img src= rock_img/I_Obsidian_10.jpg style=""width:8cm; height:6.260000000000001cm;""><p style='font-size: 30px; color: green;'><strong>Correct!</strong></p><p style='font-size: 30px;'><strong>This rock is obsidian</strong></p>","0","corr_feedback","1","train","7","","","","","","","",""
"","","","","","","","","","","","html-button-response","119","2.0.0","388341","66b4d2ee1ac8c5e9060a6930","1","21","2287","","","","","","","","","<img src= ""rock_img/I_Obsidian_14.jpg"" style=""width:8cm; height:7.64cm;""><p>What type of rock is this?</p>","4","class_response","1","train","8","Obsidian","Obsidian","14","true","5","5","",""
"","","","","","","","","","","","html-button-response","120","2.0.0","389613","66b4d2ee1ac8c5e9060a6930","1","21","1271","","","","","","","","","<img src= rock_img/I_Obsidian_14.jpg style=""width:8cm; height:7.64cm;""><p style='font-size: 30px; color: green;'><strong>Correct!</strong></p><p style='font-size: 30px;'><strong>This rock is obsidian</strong></p>","0","corr_feedback","1","train","8","","","","","","","",""
"","","","","","","","","","","","html-button-response","121","2.0.0","392701","66b4d2ee1ac8c5e9060a6930","1","21","3087","","","","","","","","","<img src= ""rock_img/I_Diorite_14.jpg"" style=""width:8cm; height:5.71cm;""><p>What type of rock is this?</p>","2","class_response","1","train","9","Diorite","Diorite","14","true","3","3","",""
"","","","","","","","","","","","html-button-response","122","2.0.0","393646","66b4d2ee1ac8c5e9060a6930","1","21","944","","","","","","","","","<img src= rock_img/I_Diorite_14.jpg style=""width:8cm; height:5.71cm;""><p style='font-size: 30px; color: green;'><strong>Correct!</strong></p><p style='font-size: 30px;'><strong>This rock is diorite</strong></p>","0","corr_feedback","1","train","9","","","","","","","",""
"","","","","","","","","","","","html-button-response","123","2.0.0","412349","66b4d2ee1ac8c5e9060a6930","1","21","18702","","","","","","","","","<img src= ""rock_img/I_Andesite_16.jpg"" style=""width:8cm; height:6.010000000000001cm;""><p>What type of rock is this?</p>","6","class_response","1","train","10","Peridotite","Andesite","16","false","7","1","",""
"","","","","","","","","","","","html-button-response","124","2.0.0","420645","66b4d2ee1ac8c5e9060a6930","1","21","8295","","","","","","","","","<img src= rock_img/I_Andesite_16.jpg style=""width:8cm; height:6.010000000000001cm;""><p style='font-size: 30px; color: red;'><strong>Incorrect!</strong></p><p style='font-size: 30px;'><strong>This rock is andesite</strong></p>","0","corr_feedback","1","train","10","","","","","","","",""
"","","","","","","","","","","","html-button-response","125","2.0.0","423821","66b4d2ee1ac8c5e9060a6930","1","21","3174","","","","","","","","","<img src= ""rock_img/I_Basalt_09.jpg"" style=""width:8cm; height:6.2cm;""><p>What type of rock is this?</p>","1","class_response","1","train","11","Basalt","Basalt","09","true","2","2","",""
"","","","","","","","","","","","html-button-response","126","2.0.0","424965","66b4d2ee1ac8c5e9060a6930","1","21","1143","","","","","","","","","<img src= rock_img/I_Basalt_09.jpg style=""width:8cm; height:6.2cm;""><p style='font-size: 30px; color: green;'><strong>Correct!</strong></p><p style='font-size: 30px;'><strong>This rock is basalt</strong></p>","0","corr_feedback","1","train","11","","","","","","","",""
"","","","","","","","","","","","html-button-response","127","2.0.0","426885","66b4d2ee1ac8c5e9060a6930","1","21","1918","","","","","","","","","<img src= ""rock_img/I_Pumice_08.jpg"" style=""width:8cm; height:6.67cm;""><p>What type of rock is this?</p>","7","class_response","1","train","12","Pumice","Pumice","08","true","8","8","",""
"","","","","","","","","","","","html-button-response","128","2.0.0","427917","66b4d2ee1ac8c5e9060a6930","1","21","1031","","","","","","","","","<img src= rock_img/I_Pumice_08.jpg style=""width:8cm; height:6.67cm;""><p style='font-size: 30px; color: green;'><strong>Correct!</strong></p><p style='font-size: 30px;'><strong>This rock is pumice</strong></p>","0","corr_feedback","1","train","12","","","","","","","",""
"","","","","","","","","","","","html-button-response","129","2.0.0","441645","66b4d2ee1ac8c5e9060a6930","1","21","13726","","","","","","","","","<img src= ""rock_img/I_Diorite_11.jpg"" style=""width:8cm; height:7.11cm;""><p>What type of rock is this?</p>","2","class_response","1","train","13","Diorite","Diorite","11","true","3","3","",""
"","","","","","","","","","","","html-button-response","130","2.0.0","442653","66b4d2ee1ac8c5e9060a6930","1","21","1007","","","","","","","","","<img src= rock_img/I_Diorite_11.jpg style=""width:8cm; height:7.11cm;""><p style='font-size: 30px; color: green;'><strong>Correct!</strong></p><p style='font-size: 30px;'><strong>This rock is diorite</strong></p>","0","corr_feedback","1","train","13","","","","","","","",""
"","","","","","","","","","","","html-button-response","131","2.0.0","453309","66b4d2ee1ac8c5e9060a6930","1","21","10655","","","","","","","","","<img src= ""rock_img/I_Gabbro_13.jpg"" style=""width:8cm; height:5.08cm;""><p>What type of rock is this?</p>","6","class_response","1","train","14","Peridotite","Gabbro","13","false","7","4","",""
"","","","","","","","","","","","html-button-response","132","2.0.0","464044","66b4d2ee1ac8c5e9060a6930","1","21","10734","","","","","","","","","<img src= rock_img/I_Gabbro_13.jpg style=""width:8cm; height:5.08cm;""><p style='font-size: 30px; color: red;'><strong>Incorrect!</strong></p><p style='font-size: 30px;'><strong>This rock is gabbro</strong></p>","0","corr_feedback","1","train","14","","","","","","","",""
"","","","","","","","","","","","html-button-response","133","2.0.0","466964","66b4d2ee1ac8c5e9060a6930","1","21","2919","","","","","","","","","<img src= ""rock_img/I_Pumice_16.jpg"" style=""width:8cm; height:6.79cm;""><p>What type of rock is this?</p>","7","class_response","1","train","15","Pumice","Pumice","16","true","8","8","",""
"","","","","","","","","","","","html-button-response","134","2.0.0","468060","66b4d2ee1ac8c5e9060a6930","1","21","1094","","","","","","","","","<img src= rock_img/I_Pumice_16.jpg style=""width:8cm; height:6.79cm;""><p style='font-size: 30px; color: green;'><strong>Correct!</strong></p><p style='font-size: 30px;'><strong>This rock is pumice</strong></p>","0","corr_feedback","1","train","15","","","","","","","",""
"","","","","","","","","","","","html-button-response","135","2.0.0","487036","66b4d2ee1ac8c5e9060a6930","1","21","18975","","","","","","","","","<img src= ""rock_img/I_Gabbro_03.jpg"" style=""width:8cm; height:8.52cm;""><p>What type of rock is this?</p>","0","class_response","1","train","16","Andesite","Gabbro","03","false","1","4","",""
"","","","","","","","","","","","html-button-response","136","2.0.0","491484","66b4d2ee1ac8c5e9060a6930","1","21","4447","","","","","","","","","<img src= rock_img/I_Gabbro_03.jpg style=""width:8cm; height:8.52cm;""><p style='font-size: 30px; color: red;'><strong>Incorrect!</strong></p><p style='font-size: 30px;'><strong>This rock is gabbro</strong></p>","0","corr_feedback","1","train","16","","","","","","","",""
"","","","","","","","","","","","html-button-response","137","2.0.0","499180","66b4d2ee1ac8c5e9060a6930","1","21","7695","","","","","","","","","<img src= ""rock_img/I_Pegmatite_07.jpg"" style=""width:8cm; height:6.7cm;""><p>What type of rock is this?</p>","5","class_response","1","train","17","Pegmatite","Pegmatite","07","true","6","6","",""
"","","","","","","","","","","","html-button-response","138","2.0.0","500397","66b4d2ee1ac8c5e9060a6930","1","21","1215","","","","","","","","","<img src= rock_img/I_Pegmatite_07.jpg style=""width:8cm; height:6.7cm;""><p style='font-size: 30px; color: green;'><strong>Correct!</strong></p><p style='font-size: 30px;'><strong>This rock is pegmatite</strong></p>","0","corr_feedback","1","train","17","","","","","","","",""
"","","","","","","","","","","","html-button-response","139","2.0.0","503709","66b4d2ee1ac8c5e9060a6930","1","21","3310","","","","","","","","","<img src= ""rock_img/I_Pegmatite_03.jpg"" style=""width:8cm; height:5.239999999999999cm;""><p>What type of rock is this?</p>","5","class_response","1","train","18","Pegmatite","Pegmatite","03","true","6","6","",""
"","","","","","","","","","","","html-button-response","140","2.0.0","504661","66b4d2ee1ac8c5e9060a6930","1","21","951","","","","","","","","","<img src= rock_img/I_Pegmatite_03.jpg style=""width:8cm; height:5.239999999999999cm;""><p style='font-size: 30px; color: green;'><strong>Correct!</strong></p><p style='font-size: 30px;'><strong>This rock is pegmatite</strong></p>","0","corr_feedback","1","train","18","","","","","","","",""
"","","","","","","","","","","","html-button-response","141","2.0.0","528428","66b4d2ee1ac8c5e9060a6930","1","21","23766","","","","","","","","","<img src= ""rock_img/I_Andesite_03.jpg"" style=""width:8cm; height:5.73cm;""><p>What type of rock is this?</p>","6","class_response","1","train","19","Peridotite","Andesite","03","false","7","1","",""
"","","","","","","","","","","","html-button-response","142","2.0.0","535788","66b4d2ee1ac8c5e9060a6930","1","21","7358","","","","","","","","","<img src= rock_img/I_Andesite_03.jpg style=""width:8cm; height:5.73cm;""><p style='font-size: 30px; color: red;'><strong>Incorrect!</strong></p><p style='font-size: 30px;'><strong>This rock is andesite</strong></p>","0","corr_feedback","1","train","19","","","","","","","",""
"","","","","","","","","","","","html-button-response","143","2.0.0","546476","66b4d2ee1ac8c5e9060a6930","1","21","10687","","","","","","","","","<img src= ""rock_img/I_Basalt_06.jpg"" style=""width:8cm; height:7.06cm;""><p>What type of rock is this?</p>","0","class_response","1","train","20","Andesite","Basalt","06","false","1","2","",""
"","","","","","","","","","","","html-button-response","144","2.0.0","547732","66b4d2ee1ac8c5e9060a6930","1","21","1255","","","","","","","","","<img src= rock_img/I_Basalt_06.jpg style=""width:8cm; height:7.06cm;""><p style='font-size: 30px; color: red;'><strong>Incorrect!</strong></p><p style='font-size: 30px;'><strong>This rock is basalt</strong></p>","0","corr_feedback","1","train","20","","","","","","","",""
"","","","","","","","","","","","html-button-response","145","2.0.0","563060","66b4d2ee1ac8c5e9060a6930","1","21","15326","","","","","","","","","<img src= ""rock_img/I_Gabbro_09.jpg"" style=""width:8cm; height:7.279999999999999cm;""><p>What type of rock is this?</p>","6","class_response","1","train","21","Peridotite","Gabbro","09","false","7","4","",""
"","","","","","","","","","","","html-button-response","146","2.0.0","564236","66b4d2ee1ac8c5e9060a6930","1","21","1174","","","","","","","","","<img src= rock_img/I_Gabbro_09.jpg style=""width:8cm; height:7.279999999999999cm;""><p style='font-size: 30px; color: red;'><strong>Incorrect!</strong></p><p style='font-size: 30px;'><strong>This rock is gabbro</strong></p>","0","corr_feedback","1","train","21","","","","","","","",""
"","","","","","","","","","","","html-button-response","147","2.0.0","576260","66b4d2ee1ac8c5e9060a6930","1","21","12022","","","","","","","","","<img src= ""rock_img/I_Gabbro_01.jpg"" style=""width:8cm; height:5.21cm;""><p>What type of rock is this?</p>","6","class_response","1","train","22","Peridotite","Gabbro","01","false","7","4","",""
"","","","","","","","","","","","html-button-response","148","2.0.0","577171","66b4d2ee1ac8c5e9060a6930","1","21","911","","","","","","","","","<img src= rock_img/I_Gabbro_01.jpg style=""width:8cm; height:5.21cm;""><p style='font-size: 30px; color: red;'><strong>Incorrect!</strong></p><p style='font-size: 30px;'><strong>This rock is gabbro</strong></p>","0","corr_feedback","1","train","22","","","","","","","",""
"","","","","","","","","","","","html-button-response","149","2.0.0","578500","66b4d2ee1ac8c5e9060a6930","1","21","1327","","","","","","","","","<img src= ""rock_img/I_Obsidian_12.jpg"" style=""width:8cm; height:6.53cm;""><p>What type of rock is this?</p>","4","class_response","1","train","23","Obsidian","Obsidian","12","true","5","5","",""
"","","","","","","","","","","","html-button-response","150","2.0.0","579532","66b4d2ee1ac8c5e9060a6930","1","21","1031","","","","","","","","","<img src= rock_img/I_Obsidian_12.jpg style=""width:8cm; height:6.53cm;""><p style='font-size: 30px; color: green;'><strong>Correct!</strong></p><p style='font-size: 30px;'><strong>This rock is obsidian</strong></p>","0","corr_feedback","1","train","23","","","","","","","",""
"","","","","","","","","","","","html-button-response","151","2.0.0","595043","66b4d2ee1ac8c5e9060a6930","1","21","15510","","","","","","","","","<img src= ""rock_img/I_Pegmatite_10.jpg"" style=""width:8cm; height:4.16cm;""><p>What type of rock is this?</p>","2","class_response","1","train","24","Diorite","Pegmatite","10","false","3","6","",""
"","","","","","","","","","","","html-button-response","152","2.0.0","596107","66b4d2ee1ac8c5e9060a6930","1","21","1063","","","","","","","","","<img src= rock_img/I_Pegmatite_10.jpg style=""width:8cm; height:4.16cm;""><p style='font-size: 30px; color: red;'><strong>Incorrect!</strong></p><p style='font-size: 30px;'><strong>This rock is pegmatite</strong></p>","0","corr_feedback","1","train","24","","","","","","","",""
"","","","","","","","","","","","html-button-response","153","2.0.0","599387","66b4d2ee1ac8c5e9060a6930","1","21","3279","","","","","","","","","<img src= ""rock_img/I_Obsidian_09.jpg"" style=""width:8cm; height:5cm;""><p>What type of rock is this?</p>","4","class_response","1","train","25","Obsidian","Obsidian","09","true","5","5","",""
"","","","","","","","","","","","html-button-response","154","2.0.0","600171","66b4d2ee1ac8c5e9060a6930","1","21","783","","","","","","","","","<img src= rock_img/I_Obsidian_09.jpg style=""width:8cm; height:5cm;""><p style='font-size: 30px; color: green;'><strong>Correct!</strong></p><p style='font-size: 30px;'><strong>This rock is obsidian</strong></p>","0","corr_feedback","1","train","25","","","","","","","",""
"","","","","","","","","","","","html-button-response","155","2.0.0","601475","66b4d2ee1ac8c5e9060a6930","1","21","1303","","","","","","","","","<img src= ""rock_img/I_Pumice_05.jpg"" style=""width:8cm; height:7.25cm;""><p>What type of rock is this?</p>","7","class_response","1","train","26","Pumice","Pumice","05","true","8","8","",""
"","","","","","","","","","","","html-button-response","156","2.0.0","602435","66b4d2ee1ac8c5e9060a6930","1","21","958","","","","","","","","","<img src= rock_img/I_Pumice_05.jpg style=""width:8cm; height:7.25cm;""><p style='font-size: 30px; color: green;'><strong>Correct!</strong></p><p style='font-size: 30px;'><strong>This rock is pumice</strong></p>","0","corr_feedback","1","train","26","","","","","","","",""
"","","","","","","","","","","","html-button-response","157","2.0.0","607859","66b4d2ee1ac8c5e9060a6930","1","21","5423","","","","","","","","","<img src= ""rock_img/I_Gabbro_05.jpg"" style=""width:8cm; height:6cm;""><p>What type of rock is this?</p>","3","class_response","1","train","27","Gabbro","Gabbro","05","true","4","4","",""
"","","","","","","","","","","","html-button-response","158","2.0.0","609219","66b4d2ee1ac8c5e9060a6930","1","21","1358","","","","","","","","","<img src= rock_img/I_Gabbro_05.jpg style=""width:8cm; height:6cm;""><p style='font-size: 30px; color: green;'><strong>Correct!</strong></p><p style='font-size: 30px;'><strong>This rock is gabbro</strong></p>","0","corr_feedback","1","train","27","","","","","","","",""
"","","","","","","","","","","","html-button-response","159","2.0.0","624387","66b4d2ee1ac8c5e9060a6930","1","21","15167","","","","","","","","","<img src= ""rock_img/I_Peridotite_04.jpg"" style=""width:8cm; height:6.680000000000001cm;""><p>What type of rock is this?</p>","0","class_response","1","train","28","Andesite","Peridotite","04","false","1","7","",""
"","","","","","","","","","","","html-button-response","160","2.0.0","629883","66b4d2ee1ac8c5e9060a6930","1","21","5495","","","","","","","","","<img src= rock_img/I_Peridotite_04.jpg style=""width:8cm; height:6.680000000000001cm;""><p style='font-size: 30px; color: red;'><strong>Incorrect!</strong></p><p style='font-size: 30px;'><strong>This rock is peridotite</strong></p>","0","corr_feedback","1","train","28","","","","","","","",""
"","","","","","","","","","","","html-button-response","161","2.0.0","634099","66b4d2ee1ac8c5e9060a6930","1","21","4215","","","","","","","","","<img src= ""rock_img/I_Obsidian_08.jpg"" style=""width:8cm; height:7.39cm;""><p>What type of rock is this?</p>","4","class_response","1","train","29","Obsidian","Obsidian","08","true","5","5","",""
"","","","","","","","","","","","html-button-response","162","2.0.0","635419","66b4d2ee1ac8c5e9060a6930","1","21","1318","","","","","","","","","<img src= rock_img/I_Obsidian_08.jpg style=""width:8cm; height:7.39cm;""><p style='font-size: 30px; color: green;'><strong>Correct!</strong></p><p style='font-size: 30px;'><strong>This rock is obsidian</strong></p>","0","corr_feedback","1","train","29","","","","","","","",""
"","","","","","","","","","","","html-button-response","163","2.0.0","639795","66b4d2ee1ac8c5e9060a6930","1","21","4375","","","","","","","","","<img src= ""rock_img/I_Peridotite_08.jpg"" style=""width:8cm; height:6.7cm;""><p>What type of rock is this?</p>","6","class_response","1","train","30","Peridotite","Peridotite","08","true","7","7","",""
"","","","","","","","","","","","html-button-response","164","2.0.0","641259","66b4d2ee1ac8c5e9060a6930","1","21","1463","","","","","","","","","<img src= rock_img/I_Peridotite_08.jpg style=""width:8cm; height:6.7cm;""><p style='font-size: 30px; color: green;'><strong>Correct!</strong></p><p style='font-size: 30px;'><strong>This rock is peridotite</strong></p>","0","corr_feedback","1","train","30","","","","","","","",""
"","","","","","","","","","","","html-button-response","165","2.0.0","645643","66b4d2ee1ac8c5e9060a6930","1","21","4383","","","","","","","","","<img src= ""rock_img/I_Basalt_02.jpg"" style=""width:8cm; height:6.45cm;""><p>What type of rock is this?</p>","1","class_response","1","train","31","Basalt","Basalt","02","true","2","2","",""
"","","","","","","","","","","","html-button-response","166","2.0.0","646619","66b4d2ee1ac8c5e9060a6930","1","21","975","","","","","","","","","<img src= rock_img/I_Basalt_02.jpg style=""width:8cm; height:6.45cm;""><p style='font-size: 30px; color: green;'><strong>Correct!</strong></p><p style='font-size: 30px;'><strong>This rock is basalt</strong></p>","0","corr_feedback","1","train","31","","","","","","","",""
"","","","","","","","","","","","html-button-response","167","2.0.0","647906","66b4d2ee1ac8c5e9060a6930","1","21","1287","","","","","","","","","<img src= ""rock_img/I_Basalt_01.jpg"" style=""width:8cm; height:7.880000000000001cm;""><p>What type of rock is this?</p>","1","class_response","1","train","32","Basalt","Basalt","01","true","2","2","",""
"","","","","","","","","","","","html-button-response","168","2.0.0","648691","66b4d2ee1ac8c5e9060a6930","1","21","783","","","","","","","","","<img src= rock_img/I_Basalt_01.jpg style=""width:8cm; height:7.880000000000001cm;""><p style='font-size: 30px; color: green;'><strong>Correct!</strong></p><p style='font-size: 30px;'><strong>This rock is basalt</strong></p>","0","corr_feedback","1","train","32","","","","","","","",""
"","","","","","","","","","","","html-button-response","169","2.0.0","654818","66b4d2ee1ac8c5e9060a6930","1","21","6126","","","","","","","","","<img src= ""rock_img/I_Andesite_04.jpg"" style=""width:8cm; height:5.96cm;""><p>What type of rock is this?</p>","0","class_response","1","train","33","Andesite","Andesite","04","true","1","1","",""
"","","","","","","","","","","","html-button-response","170","2.0.0","655851","66b4d2ee1ac8c5e9060a6930","1","21","1031","","","","","","","","","<img src= rock_img/I_Andesite_04.jpg style=""width:8cm; height:5.96cm;""><p style='font-size: 30px; color: green;'><strong>Correct!</strong></p><p style='font-size: 30px;'><strong>This rock is andesite</strong></p>","0","corr_feedback","1","train","33","","","","","","","",""
"","","","","","","","","","","","html-button-response","171","2.0.0","659907","66b4d2ee1ac8c5e9060a6930","1","21","4054","","","","","","","","","<img src= ""rock_img/I_Gabbro_14.jpg"" style=""width:8cm; height:8.48cm;""><p>What type of rock is this?</p>","3","class_response","1","train","34","Gabbro","Gabbro","14","true","4","4","",""
"","","","","","","","","","","","html-button-response","172","2.0.0","661050","66b4d2ee1ac8c5e9060a6930","1","21","1142","","","","","","","","","<img src= rock_img/I_Gabbro_14.jpg style=""width:8cm; height:8.48cm;""><p style='font-size: 30px; color: green;'><strong>Correct!</strong></p><p style='font-size: 30px;'><strong>This rock is gabbro</strong></p>","0","corr_feedback","1","train","34","","","","","","","",""
"","","","","","","","","","","","html-button-response","173","2.0.0","663459","66b4d2ee1ac8c5e9060a6930","1","21","2407","","","","","","","","","<img src= ""rock_img/I_Andesite_11.jpg"" style=""width:8cm; height:4.92cm;""><p>What type of rock is this?</p>","0","class_response","1","train","35","Andesite","Andesite","11","true","1","1","",""
"","","","","","","","","","","","html-button-response","174","2.0.0","664442","66b4d2ee1ac8c5e9060a6930","1","21","982","","","","","","","","","<img src= rock_img/I_Andesite_11.jpg style=""width:8cm; height:4.92cm;""><p style='font-size: 30px; color: green;'><strong>Correct!</strong></p><p style='font-size: 30px;'><strong>This rock is andesite</strong></p>","0","corr_feedback","1","train","35","","","","","","","",""
"","","","","","","","","","","","html-button-response","175","2.0.0","670562","66b4d2ee1ac8c5e9060a6930","1","21","6118","","","","","","","","","<img src= ""rock_img/I_Andesite_07.jpg"" style=""width:8cm; height:5.93cm;""><p>What type of rock is this?</p>","2","class_response","1","train","36","Diorite","Andesite","07","false","3","1","",""
"","","","","","","","","","","","html-button-response","176","2.0.0","672050","66b4d2ee1ac8c5e9060a6930","1","21","1487","","","","","","","","","<img src= rock_img/I_Andesite_07.jpg style=""width:8cm; height:5.93cm;""><p style='font-size: 30px; color: red;'><strong>Incorrect!</strong></p><p style='font-size: 30px;'><strong>This rock is andesite</strong></p>","0","corr_feedback","1","train","36","","","","","","","",""
"","","","","","","","","","","","html-button-response","177","2.0.0","673482","66b4d2ee1ac8c5e9060a6930","1","21","1431","","","","","","","","","<img src= ""rock_img/I_Pumice_06.jpg"" style=""width:8cm; height:6.9399999999999995cm;""><p>What type of rock is this?</p>","7","class_response","1","train","37","Pumice","Pumice","06","true","8","8","",""
"","","","","","","","","","","","html-button-response","178","2.0.0","674298","66b4d2ee1ac8c5e9060a6930","1","21","814","","","","","","","","","<img src= rock_img/I_Pumice_06.jpg style=""width:8cm; height:6.9399999999999995cm;""><p style='font-size: 30px; color: green;'><strong>Correct!</strong></p><p style='font-size: 30px;'><strong>This rock is pumice</strong></p>","0","corr_feedback","1","train","37","","","","","","","",""
"","","","","","","","","","","","html-button-response","179","2.0.0","690714","66b4d2ee1ac8c5e9060a6930","1","21","16415","","","","","","","","","<img src= ""rock_img/I_Peridotite_13.jpg"" style=""width:8cm; height:7.58cm;""><p>What type of rock is this?</p>","6","class_response","1","train","38","Peridotite","Peridotite","13","true","7","7","",""
"","","","","","","","","","","","html-button-response","180","2.0.0","691738","66b4d2ee1ac8c5e9060a6930","1","21","1023","","","","","","","","","<img src= rock_img/I_Peridotite_13.jpg style=""width:8cm; height:7.58cm;""><p style='font-size: 30px; color: green;'><strong>Correct!</strong></p><p style='font-size: 30px;'><strong>This rock is peridotite</strong></p>","0","corr_feedback","1","train","38","","","","","","","",""
"","","","","","","","","","","","html-button-response","181","2.0.0","695730","66b4d2ee1ac8c5e9060a6930","1","21","3991","","","","","","","","","<img src= ""rock_img/I_Pegmatite_12.jpg"" style=""width:8cm; height:5.7cm;""><p>What type of rock is this?</p>","5","class_response","1","train","39","Pegmatite","Pegmatite","12","true","6","6","",""
"","","","","","","","","","","","html-button-response","182","2.0.0","696850","66b4d2ee1ac8c5e9060a6930","1","21","1118","","","","","","","","","<img src= rock_img/I_Pegmatite_12.jpg style=""width:8cm; height:5.7cm;""><p style='font-size: 30px; color: green;'><strong>Correct!</strong></p><p style='font-size: 30px;'><strong>This rock is pegmatite</strong></p>","0","corr_feedback","1","train","39","","","","","","","",""
"","","","","","","","","","","","html-button-response","183","2.0.0","712466","66b4d2ee1ac8c5e9060a6930","1","21","15615","","","","","","","","","<img src= ""rock_img/I_Peridotite_02.jpg"" style=""width:8cm; height:5.859999999999999cm;""><p>What type of rock is this?</p>","6","class_response","1","train","40","Peridotite","Peridotite","02","true","7","7","",""
"","","","","","","","","","","","html-button-response","184","2.0.0","713418","66b4d2ee1ac8c5e9060a6930","1","21","950","","","","","","","","","<img src= rock_img/I_Peridotite_02.jpg style=""width:8cm; height:5.859999999999999cm;""><p style='font-size: 30px; color: green;'><strong>Correct!</strong></p><p style='font-size: 30px;'><strong>This rock is peridotite</strong></p>","0","corr_feedback","1","train","40","","","","","","","",""
"","","","","","","","","","","","html-button-response","185","2.0.0","728658","66b4d2ee1ac8c5e9060a6930","1","21","15239","","","","","","","","","<img src= ""rock_img/I_Peridotite_14.jpg"" style=""width:8cm; height:5.3cm;""><p>What type of rock is this?</p>","1","class_response","1","train","41","Basalt","Peridotite","14","false","2","7","",""
"","","","","","","","","","","","html-button-response","186","2.0.0","734281","66b4d2ee1ac8c5e9060a6930","1","21","5622","","","","","","","","","<img src= rock_img/I_Peridotite_14.jpg style=""width:8cm; height:5.3cm;""><p style='font-size: 30px; color: red;'><strong>Incorrect!</strong></p><p style='font-size: 30px;'><strong>This rock is peridotite</strong></p>","0","corr_feedback","1","train","41","","","","","","","",""
"","","","","","","","","","","","html-button-response","187","2.0.0","735593","66b4d2ee1ac8c5e9060a6930","1","21","1311","","","","","","","","","<img src= ""rock_img/I_Pumice_14.jpg"" style=""width:8cm; height:6.39cm;""><p>What type of rock is this?</p>","7","class_response","1","train","42","Pumice","Pumice","14","true","8","8","",""
"","","","","","","","","","","","html-button-response","188","2.0.0","736410","66b4d2ee1ac8c5e9060a6930","1","21","815","","","","","","","","","<img src= rock_img/I_Pumice_14.jpg style=""width:8cm; height:6.39cm;""><p style='font-size: 30px; color: green;'><strong>Correct!</strong></p><p style='font-size: 30px;'><strong>This rock is pumice</strong></p>","0","corr_feedback","1","train","42","","","","","","","",""
"","","","","","","","","","","","html-button-response","189","2.0.0","737937","66b4d2ee1ac8c5e9060a6930","1","21","1526","","","","","","","","","<img src= ""rock_img/I_Pegmatite_08.jpg"" style=""width:8cm; height:7.68cm;""><p>What type of rock is this?</p>","4","class_response","1","train","43","Obsidian","Pegmatite","08","false","5","6","",""
"","","","","","","","","","","","html-button-response","190","2.0.0","739073","66b4d2ee1ac8c5e9060a6930","1","21","1134","","","","","","","","","<img src= rock_img/I_Pegmatite_08.jpg style=""width:8cm; height:7.68cm;""><p style='font-size: 30px; color: red;'><strong>Incorrect!</strong></p><p style='font-size: 30px;'><strong>This rock is pegmatite</strong></p>","0","corr_feedback","1","train","43","","","","","","","",""
"","","","","","","","","","","","html-button-response","191","2.0.0","748577","66b4d2ee1ac8c5e9060a6930","1","21","9503","","","","","","","","","<img src= ""rock_img/I_Diorite_10.jpg"" style=""width:8cm; height:5.949999999999999cm;""><p>What type of rock is this?</p>","2","class_response","1","train","44","Diorite","Diorite","10","true","3","3","",""
"","","","","","","","","","","","html-button-response","192","2.0.0","749353","66b4d2ee1ac8c5e9060a6930","1","21","774","","","","","","","","","<img src= rock_img/I_Diorite_10.jpg style=""width:8cm; height:5.949999999999999cm;""><p style='font-size: 30px; color: green;'><strong>Correct!</strong></p><p style='font-size: 30px;'><strong>This rock is diorite</strong></p>","0","corr_feedback","1","train","44","","","","","","","",""
"","","","","","","","","","","","html-button-response","193","2.0.0","765922","66b4d2ee1ac8c5e9060a6930","1","21","16567","","","","","","","","","<img src= ""rock_img/I_Basalt_16.jpg"" style=""width:8cm; height:7.659999999999999cm;""><p>What type of rock is this?</p>","3","class_response","1","train","45","Gabbro","Basalt","16","false","4","2","",""
"","","","","","","","","","","","html-button-response","194","2.0.0","767193","66b4d2ee1ac8c5e9060a6930","1","21","1270","","","","","","","","","<img src= rock_img/I_Basalt_16.jpg style=""width:8cm; height:7.659999999999999cm;""><p style='font-size: 30px; color: red;'><strong>Incorrect!</strong></p><p style='font-size: 30px;'><strong>This rock is basalt</strong></p>","0","corr_feedback","1","train","45","","","","","","","",""
"","","","","","","","","","","","html-button-response","195","2.0.0","775769","66b4d2ee1ac8c5e9060a6930","1","21","8575","","","","","","","","","<img src= ""rock_img/I_Diorite_02.jpg"" style=""width:8cm; height:6.27cm;""><p>What type of rock is this?</p>","2","class_response","1","train","46","Diorite","Diorite","02","true","3","3","",""
"","","","","","","","","","","","html-button-response","196","2.0.0","776633","66b4d2ee1ac8c5e9060a6930","1","21","863","","","","","","","","","<img src= rock_img/I_Diorite_02.jpg style=""width:8cm; height:6.27cm;""><p style='font-size: 30px; color: green;'><strong>Correct!</strong></p><p style='font-size: 30px;'><strong>This rock is diorite</strong></p>","0","corr_feedback","1","train","46","","","","","","","",""
"","","","","","","","","","","","html-button-response","197","2.0.0","778273","66b4d2ee1ac8c5e9060a6930","1","21","1639","","","","","","","","","<img src= ""rock_img/I_Diorite_13.jpg"" style=""width:8cm; height:6.29cm;""><p>What type of rock is this?</p>","2","class_response","1","train","47","Diorite","Diorite","13","true","3","3","",""
"","","","","","","","","","","","html-button-response","198","2.0.0","778993","66b4d2ee1ac8c5e9060a6930","1","21","718","","","","","","","","","<img src= rock_img/I_Diorite_13.jpg style=""width:8cm; height:6.29cm;""><p style='font-size: 30px; color: green;'><strong>Correct!</strong></p><p style='font-size: 30px;'><strong>This rock is diorite</strong></p>","0","corr_feedback","1","train","47","","","","","","","",""
"","","","","","","","","","","","html-button-response","199","2.0.0","786065","66b4d2ee1ac8c5e9060a6930","1","21","7071","","","","","","","","","<img src= ""rock_img/I_Andesite_01.jpg"" style=""width:8cm; height:5.87cm;""><p>What type of rock is this?</p>","0","class_response","1","train","48","Andesite","Andesite","01","true","1","1","",""
"","","","","","","","","","","","html-button-response","200","2.0.0","786930","66b4d2ee1ac8c5e9060a6930","1","21","863","","","","","","","","","<img src= rock_img/I_Andesite_01.jpg style=""width:8cm; height:5.87cm;""><p style='font-size: 30px; color: green;'><strong>Correct!</strong></p><p style='font-size: 30px;'><strong>This rock is andesite</strong></p>","0","corr_feedback","1","train","48","","","","","","","",""
"","","","","","","","","","","","instructions","203","2.0.0","809449","66b4d2ee1ac8c5e9060a6930","1","21","22518","","","","","","","","[{""page_index"":0,""viewing_time"":5326},{""page_index"":1,""viewing_time"":17192}]","","","","","","","","","","","","","",""
"","","","","","","","","","","","html-button-response","204","2.0.0","813945","66b4d2ee1ac8c5e9060a6930","1","21","4495","","","","","","","","","","0","start_test","","","","","","","","","","",""
"","","","","","","","","","","","html-button-response","205","2.0.0","826865","66b4d2ee1ac8c5e9060a6930","1","21","12918","","","","","","","","","<img src= ""rock_img/I_Peridotite_06.jpg"" style=""width:8cm; height:7.53cm;""><p>What type of rock is this?</p>","5","class_response","1","test","1","Pegmatite","Peridotite","06","false","6","7","",""
"","","","","","","","","","","","html-keyboard-response","206","2.0.0","827382","66b4d2ee1ac8c5e9060a6930","1","21","null","","","","","","","","","<p style='font-size: 30px;'><strong>Okay</strong></p>","null","neutral_feedback","1","test","1","","","","","","","",""
"","","","","","","","","","","","html-button-response","207","2.0.0","828929","66b4d2ee1ac8c5e9060a6930","1","21","1546","","","","","","","","","<img src= ""rock_img/I_Pumice_02.jpg"" style=""width:8cm; height:7.3999999999999995cm;""><p>What type of rock is this?</p>","7","class_response","1","test","2","Pumice","Pumice","02","true","8","8","",""
"","","","","","","","","","","","html-keyboard-response","208","2.0.0","829436","66b4d2ee1ac8c5e9060a6930","1","21","null","","","","","","","","","<p style='font-size: 30px;'><strong>Okay</strong></p>","null","neutral_feedback","1","test","2","","","","","","","",""
"","","","","","","","","","","","html-button-response","209","2.0.0","841081","66b4d2ee1ac8c5e9060a6930","1","21","11644","","","","","","","","","<img src= ""rock_img/I_Diorite_06.jpg"" style=""width:8cm; height:6.03cm;""><p>What type of rock is this?</p>","2","class_response","1","test","3","Diorite","Diorite","06","true","3","3","",""
"","","","","","","","","","","","html-keyboard-response","210","2.0.0","841596","66b4d2ee1ac8c5e9060a6930","1","21","null","","","","","","","","","<p style='font-size: 30px;'><strong>Okay</strong></p>","null","neutral_feedback","1","test","3","","","","","","","",""
"","","","","","","","","","","","html-button-response","211","2.0.0","846689","66b4d2ee1ac8c5e9060a6930","1","21","5090","","","","","","","","","<img src= ""rock_img/I_Peridotite_10.jpg"" style=""width:8cm; height:5.390000000000001cm;""><p>What type of rock is this?</p>","0","class_response","1","test","4","Andesite","Peridotite","10","false","1","7","",""
"","","","","","","","","","","","html-keyboard-response","212","2.0.0","847193","66b4d2ee1ac8c5e9060a6930","1","21","null","","","","","","","","","<p style='font-size: 30px;'><strong>Okay</strong></p>","null","neutral_feedback","1","test","4","","","","","","","",""
"","","","","","","","","","","","html-button-response","213","2.0.0","854257","66b4d2ee1ac8c5e9060a6930","1","21","7061","","","","","","","","","<img src= ""rock_img/I_Andesite_05.jpg"" style=""width:8cm; height:4.12cm;""><p>What type of rock is this?</p>","3","class_response","1","test","5","Gabbro","Andesite","05","false","4","1","",""
"","","","","","","","","","","","html-keyboard-response","214","2.0.0","854764","66b4d2ee1ac8c5e9060a6930","1","21","null","","","","","","","","","<p style='font-size: 30px;'><strong>Okay</strong></p>","null","neutral_feedback","1","test","5","","","","","","","",""
"","","","","","","","","","","","html-button-response","215","2.0.0","856201","66b4d2ee1ac8c5e9060a6930","1","21","1435","","","","","","","","","<img src= ""rock_img/I_Obsidian_11.jpg"" style=""width:8cm; height:6.05cm;""><p>What type of rock is this?</p>","4","class_response","1","test","6","Obsidian","Obsidian","11","true","5","5","",""
"","","","","","","","","","","","html-keyboard-response","216","2.0.0","856714","66b4d2ee1ac8c5e9060a6930","1","21","null","","","","","","","","","<p style='font-size: 30px;'><strong>Okay</strong></p>","null","neutral_feedback","1","test","6","","","","","","","",""
"","","","","","","","","","","","html-button-response","217","2.0.0","871984","66b4d2ee1ac8c5e9060a6930","1","21","15269","","","","","","","","","<img src= ""rock_img/I_Andesite_06.jpg"" style=""width:8cm; height:6.840000000000001cm;""><p>What type of rock is this?</p>","0","class_response","1","test","7","Andesite","Andesite","06","true","1","1","",""
"","","","","","","","","","","","html-keyboard-response","218","2.0.0","872486","66b4d2ee1ac8c5e9060a6930","1","21","null","","","","","","","","","<p style='font-size: 30px;'><strong>Okay</strong></p>","null","neutral_feedback","1","test","7","","","","","","","",""
"","","","","","","","","","","","html-button-response","219","2.0.0","874312","66b4d2ee1ac8c5e9060a6930","1","21","1824","","","","","","","","","<img src= ""rock_img/I_Basalt_12.jpg"" style=""width:8cm; height:6.010000000000001cm;""><p>What type of rock is this?</p>","7","class_response","1","test","8","Pumice","Basalt","12","false","8","2","",""
"","","","","","","","","","","","html-keyboard-response","220","2.0.0","874817","66b4d2ee1ac8c5e9060a6930","1","21","null","","","","","","","","","<p style='font-size: 30px;'><strong>Okay</strong></p>","null","neutral_feedback","1","test","8","","","","","","","",""
"","","","","","","","","","","","html-button-response","221","2.0.0","876152","66b4d2ee1ac8c5e9060a6930","1","21","1334","","","","","","","","","<img src= ""rock_img/I_Obsidian_04.jpg"" style=""width:8cm; height:6.930000000000001cm;""><p>What type of rock is this?</p>","4","class_response","1","test","9","Obsidian","Obsidian","04","true","5","5","",""
"","","","","","","","","","","","html-keyboard-response","222","2.0.0","876657","66b4d2ee1ac8c5e9060a6930","1","21","null","","","","","","","","","<p style='font-size: 30px;'><strong>Okay</strong></p>","null","neutral_feedback","1","test","9","","","","","","","",""
"","","","","","","","","","","","html-button-response","223","2.0.0","888432","66b4d2ee1ac8c5e9060a6930","1","21","11773","","","","","","","","","<img src= ""rock_img/I_Gabbro_08.jpg"" style=""width:8cm; height:5.15cm;""><p>What type of rock is this?</p>","6","class_response","1","test","10","Peridotite","Gabbro","08","false","7","4","",""
"","","","","","","","","","","","html-keyboard-response","224","2.0.0","888939","66b4d2ee1ac8c5e9060a6930","1","21","null","","","","","","","","","<p style='font-size: 30px;'><strong>Okay</strong></p>","null","neutral_feedback","1","test","10","","","","","","","",""
"","","","","","","","","","","","html-button-response","225","2.0.0","899072","66b4d2ee1ac8c5e9060a6930","1","21","10132","","","","","","","","","<img src= ""rock_img/I_Gabbro_16.jpg"" style=""width:8cm; height:6.44cm;""><p>What type of rock is this?</p>","1","class_response","1","test","11","Basalt","Gabbro","16","false","2","4","",""
"","","","","","","","","","","","html-keyboard-response","226","2.0.0","899576","66b4d2ee1ac8c5e9060a6930","1","21","null","","","","","","","","","<p style='font-size: 30px;'><strong>Okay</strong></p>","null","neutral_feedback","1","test","11","","","","","","","",""
"","","","","","","","","","","","html-button-response","227","2.0.0","900864","66b4d2ee1ac8c5e9060a6930","1","21","1286","","","","","","","","","<img src= ""rock_img/I_Pumice_09.jpg"" style=""width:8cm; height:6.44cm;""><p>What type of rock is this?</p>","7","class_response","1","test","12","Pumice","Pumice","09","true","8","8","",""
"","","","","","","","","","","","html-keyboard-response","228","2.0.0","901367","66b4d2ee1ac8c5e9060a6930","1","21","null","","","","","","","","","<p style='font-size: 30px;'><strong>Okay</strong></p>","null","neutral_feedback","1","test","12","","","","","","","",""
"","","","","","","","","","","","html-button-response","229","2.0.0","905505","66b4d2ee1ac8c5e9060a6930","1","21","4136","","","","","","","","","<img src= ""rock_img/I_Pegmatite_13.jpg"" style=""width:8cm; height:4.95cm;""><p>What type of rock is this?</p>","5","class_response","1","test","13","Pegmatite","Pegmatite","13","true","6","6","",""
"","","","","","","","","","","","html-keyboard-response","230","2.0.0","906014","66b4d2ee1ac8c5e9060a6930","1","21","null","","","","","","","","","<p style='font-size: 30px;'><strong>Okay</strong></p>","null","neutral_feedback","1","test","13","","","","","","","",""
"","","","","","","","","","","","html-button-response","231","2.0.0","907168","66b4d2ee1ac8c5e9060a6930","1","21","1151","","","","","","","","","<img src= ""rock_img/I_Pumice_04.jpg"" style=""width:8cm; height:6.819999999999999cm;""><p>What type of rock is this?</p>","7","class_response","1","test","14","Pumice","Pumice","04","true","8","8","",""
"","","","","","","","","","","","html-keyboard-response","232","2.0.0","907670","66b4d2ee1ac8c5e9060a6930","1","21","null","","","","","","","","","<p style='font-size: 30px;'><strong>Okay</strong></p>","null","neutral_feedback","1","test","14","","","","","","","",""
"","","","","","","","","","","","html-button-response","233","2.0.0","921824","66b4d2ee1ac8c5e9060a6930","1","21","14152","","","","","","","","","<img src= ""rock_img/I_Gabbro_12.jpg"" style=""width:8cm; height:7.800000000000001cm;""><p>What type of rock is this?</p>","0","class_response","1","test","15","Andesite","Gabbro","12","false","1","4","",""
"","","","","","","","","","","","html-keyboard-response","234","2.0.0","922339","66b4d2ee1ac8c5e9060a6930","1","21","null","","","","","","","","","<p style='font-size: 30px;'><strong>Okay</strong></p>","null","neutral_feedback","1","test","15","","","","","","","",""
"","","","","","","","","","","","html-button-response","235","2.0.0","924385","66b4d2ee1ac8c5e9060a6930","1","21","2044","","","","","","","","","<img src= ""rock_img/I_Basalt_11.jpg"" style=""width:8cm; height:5.359999999999999cm;""><p>What type of rock is this?</p>","7","class_response","1","test","16","Pumice","Basalt","11","false","8","2","",""
"","","","","","","","","","","","html-keyboard-response","236","2.0.0","924894","66b4d2ee1ac8c5e9060a6930","1","21","null","","","","","","","","","<p style='font-size: 30px;'><strong>Okay</strong></p>","null","neutral_feedback","1","test","16","","","","","","","",""
"","","","","","","","","","","","html-button-response","237","2.0.0","935680","66b4d2ee1ac8c5e9060a6930","1","21","10784","","","","","","","","","<img src= ""rock_img/I_Andesite_09.jpg"" style=""width:8cm; height:6cm;""><p>What type of rock is this?</p>","0","class_response","1","test","17","Andesite","Andesite","09","true","1","1","",""
"","","","","","","","","","","","html-keyboard-response","238","2.0.0","936194","66b4d2ee1ac8c5e9060a6930","1","21","null","","","","","","","","","<p style='font-size: 30px;'><strong>Okay</strong></p>","null","neutral_feedback","1","test","17","","","","","","","",""
"","","","","","","","","","","","html-button-response","239","2.0.0","942768","66b4d2ee1ac8c5e9060a6930","1","21","6572","","","","","","","","","<img src= ""rock_img/I_Basalt_08.jpg"" style=""width:8cm; height:10.44cm;""><p>What type of rock is this?</p>","1","class_response","1","test","18","Basalt","Basalt","08","true","2","2","",""
"","","","","","","","","","","","html-keyboard-response","240","2.0.0","943271","66b4d2ee1ac8c5e9060a6930","1","21","null","","","","","","","","","<p style='font-size: 30px;'><strong>Okay</strong></p>","null","neutral_feedback","1","test","18","","","","","","","",""
"","","","","","","","","","","","html-button-response","241","2.0.0","958176","66b4d2ee1ac8c5e9060a6930","1","21","14902","","","","","","","","","<img src= ""rock_img/I_Peridotite_12.jpg"" style=""width:8cm; height:4.54cm;""><p>What type of rock is this?</p>","2","class_response","1","test","19","Diorite","Peridotite","12","false","3","7","",""
"","","","","","","","","","","","html-keyboard-response","242","2.0.0","958689","66b4d2ee1ac8c5e9060a6930","1","21","null","","","","","","","","","<p style='font-size: 30px;'><strong>Okay</strong></p>","null","neutral_feedback","1","test","19","","","","","","","",""
"","","","","","","","","","","","html-button-response","243","2.0.0","972423","66b4d2ee1ac8c5e9060a6930","1","21","13733","","","","","","","","","<img src= ""rock_img/I_Andesite_10.jpg"" style=""width:8cm; height:4.16cm;""><p>What type of rock is this?</p>","0","class_response","1","test","20","Andesite","Andesite","10","true","1","1","",""
"","","","","","","","","","","","html-keyboard-response","244","2.0.0","972924","66b4d2ee1ac8c5e9060a6930","1","21","null","","","","","","","","","<p style='font-size: 30px;'><strong>Okay</strong></p>","null","neutral_feedback","1","test","20","","","","","","","",""
"","","","","","","","","","","","html-button-response","245","2.0.0","977439","66b4d2ee1ac8c5e9060a6930","1","21","4513","","","","","","","","","<img src= ""rock_img/I_Peridotite_16.jpg"" style=""width:8cm; height:6.989999999999999cm;""><p>What type of rock is this?</p>","6","class_response","1","test","21","Peridotite","Peridotite","16","true","7","7","",""
"","","","","","","","","","","","html-keyboard-response","246","2.0.0","977941","66b4d2ee1ac8c5e9060a6930","1","21","null","","","","","","","","","<p style='font-size: 30px;'><strong>Okay</strong></p>","null","neutral_feedback","1","test","21","","","","","","","",""
"","","","","","","","","","","","html-button-response","247","2.0.0","979775","66b4d2ee1ac8c5e9060a6930","1","21","1832","","","","","","","","","<img src= ""rock_img/I_Obsidian_06.jpg"" style=""width:8cm; height:6.8cm;""><p>What type of rock is this?</p>","4","class_response","1","test","22","Obsidian","Obsidian","06","true","5","5","",""
"","","","","","","","","","","","html-keyboard-response","248","2.0.0","980281","66b4d2ee1ac8c5e9060a6930","1","21","null","","","","","","","","","<p style='font-size: 30px;'><strong>Okay</strong></p>","null","neutral_feedback","1","test","22","","","","","","","",""
"","","","","","","","","","","","html-button-response","249","2.0.0","994055","66b4d2ee1ac8c5e9060a6930","1","21","13772","","","","","","","","","<img src= ""rock_img/I_Gabbro_15.jpg"" style=""width:8cm; height:6.29cm;""><p>What type of rock is this?</p>","2","class_response","1","test","23","Diorite","Gabbro","15","false","3","4","",""
"","","","","","","","","","","","html-keyboard-response","250","2.0.0","994556","66b4d2ee1ac8c5e9060a6930","1","21","null","","","","","","","","","<p style='font-size: 30px;'><strong>Okay</strong></p>","null","neutral_feedback","1","test","23","","","","","","","",""
"","","","","","","","","","","","html-button-response","251","2.0.0","1005071","66b4d2ee1ac8c5e9060a6930","1","21","10512","","","","","","","","","<img src= ""rock_img/I_Pegmatite_11.jpg"" style=""width:8cm; height:8.14cm;""><p>What type of rock is this?</p>","5","class_response","1","test","24","Pegmatite","Pegmatite","11","true","6","6","",""
"","","","","","","","","","","","html-keyboard-response","252","2.0.0","1005581","66b4d2ee1ac8c5e9060a6930","1","21","null","","","","","","","","","<p style='font-size: 30px;'><strong>Okay</strong></p>","null","neutral_feedback","1","test","24","","","","","","","",""
"","","","","","","","","","","","html-button-response","253","2.0.0","1022047","66b4d2ee1ac8c5e9060a6930","1","21","16463","","","","","","","","","<img src= ""rock_img/I_Peridotite_07.jpg"" style=""width:8cm; height:4.83cm;""><p>What type of rock is this?</p>","3","class_response","1","test","25","Gabbro","Peridotite","07","false","4","7","",""
"","","","","","","","","","","","html-keyboard-response","254","2.0.0","1022555","66b4d2ee1ac8c5e9060a6930","1","21","null","","","","","","","","","<p style='font-size: 30px;'><strong>Okay</strong></p>","null","neutral_feedback","1","test","25","","","","","","","",""
"","","","","","","","","","","","html-button-response","255","2.0.0","1028391","66b4d2ee1ac8c5e9060a6930","1","21","5834","","","","","","","","","<img src= ""rock_img/I_Gabbro_10.jpg"" style=""width:8cm; height:5.680000000000001cm;""><p>What type of rock is this?</p>","0","class_response","1","test","26","Andesite","Gabbro","10","false","1","4","",""
"","","","","","","","","","","","html-keyboard-response","256","2.0.0","1028898","66b4d2ee1ac8c5e9060a6930","1","21","null","","","","","","","","","<p style='font-size: 30px;'><strong>Okay</strong></p>","null","neutral_feedback","1","test","26","","","","","","","",""
"","","","","","","","","","","","html-button-response","257","2.0.0","1037927","66b4d2ee1ac8c5e9060a6930","1","21","9027","","","","","","","","","<img src= ""rock_img/I_Diorite_15.jpg"" style=""width:8cm; height:5.54cm;""><p>What type of rock is this?</p>","6","class_response","1","test","27","Peridotite","Diorite","15","false","7","3","",""
"","","","","","","","","","","","html-keyboard-response","258","2.0.0","1038441","66b4d2ee1ac8c5e9060a6930","1","21","null","","","","","","","","","<p style='font-size: 30px;'><strong>Okay</strong></p>","null","neutral_feedback","1","test","27","","","","","","","",""
"","","","","","","","","","","","html-button-response","259","2.0.0","1044895","66b4d2ee1ac8c5e9060a6930","1","21","6452","","","","","","","","","<img src= ""rock_img/I_Diorite_12.jpg"" style=""width:8cm; height:4.88cm;""><p>What type of rock is this?</p>","2","class_response","1","test","28","Diorite","Diorite","12","true","3","3","",""
"","","","","","","","","","","","html-keyboard-response","260","2.0.0","1045401","66b4d2ee1ac8c5e9060a6930","1","21","null","","","","","","","","","<p style='font-size: 30px;'><strong>Okay</strong></p>","null","neutral_feedback","1","test","28","","","","","","","",""
"","","","","","","","","","","","html-button-response","261","2.0.0","1046351","66b4d2ee1ac8c5e9060a6930","1","21","948","","","","","","","","","<img src= ""rock_img/I_Diorite_07.jpg"" style=""width:8cm; height:5.239999999999999cm;""><p>What type of rock is this?</p>","2","class_response","1","test","29","Diorite","Diorite","07","true","3","3","",""
"","","","","","","","","","","","html-keyboard-response","262","2.0.0","1046861","66b4d2ee1ac8c5e9060a6930","1","21","null","","","","","","","","","<p style='font-size: 30px;'><strong>Okay</strong></p>","null","neutral_feedback","1","test","29","","","","","","","",""
"","","","","","","","","","","","html-button-response","263","2.0.0","1048151","66b4d2ee1ac8c5e9060a6930","1","21","1288","","","","","","","","","<img src= ""rock_img/I_Obsidian_02.jpg"" style=""width:8cm; height:7.51cm;""><p>What type of rock is this?</p>","4","class_response","1","test","30","Obsidian","Obsidian","02","true","5","5","",""
"","","","","","","","","","","","html-keyboard-response","264","2.0.0","1048667","66b4d2ee1ac8c5e9060a6930","1","21","null","","","","","","","","","<p style='font-size: 30px;'><strong>Okay</strong></p>","null","neutral_feedback","1","test","30","","","","","","","",""
"","","","","","","","","","","","html-button-response","265","2.0.0","1054983","66b4d2ee1ac8c5e9060a6930","1","21","6314","","","","","","","","","<img src= ""rock_img/I_Basalt_10.jpg"" style=""width:8cm; height:5.85cm;""><p>What type of rock is this?</p>","1","class_response","1","test","31","Basalt","Basalt","10","true","2","2","",""
"","","","","","","","","","","","html-keyboard-response","266","2.0.0","1055495","66b4d2ee1ac8c5e9060a6930","1","21","null","","","","","","","","","<p style='font-size: 30px;'><strong>Okay</strong></p>","null","neutral_feedback","1","test","31","","","","","","","",""
"","","","","","","","","","","","html-button-response","267","2.0.0","1068903","66b4d2ee1ac8c5e9060a6930","1","21","13406","","","","","","","","","<img src= ""rock_img/I_Andesite_14.jpg"" style=""width:8cm; height:5.449999999999999cm;""><p>What type of rock is this?</p>","0","class_response","1","test","32","Andesite","Andesite","14","true","1","1","",""
"","","","","","","","","","","","html-keyboard-response","268","2.0.0","1069412","66b4d2ee1ac8c5e9060a6930","1","21","null","","","","","","","","","<p style='font-size: 30px;'><strong>Okay</strong></p>","null","neutral_feedback","1","test","32","","","","","","","",""
"","","","","","","","","","","","html-button-response","269","2.0.0","1071487","66b4d2ee1ac8c5e9060a6930","1","21","2073","","","","","","","","","<img src= ""rock_img/I_Pumice_15.jpg"" style=""width:8cm; height:7.86cm;""><p>What type of rock is this?</p>","7","class_response","1","test","33","Pumice","Pumice","15","true","8","8","",""
"","","","","","","","","","","","html-keyboard-response","270","2.0.0","1071991","66b4d2ee1ac8c5e9060a6930","1","21","null","","","","","","","","","<p style='font-size: 30px;'><strong>Okay</strong></p>","null","neutral_feedback","1","test","33","","","","","","","",""
"","","","","","","","","","","","html-button-response","271","2.0.0","1073071","66b4d2ee1ac8c5e9060a6930","1","21","1078","","","","","","","","","<img src= ""rock_img/I_Obsidian_16.jpg"" style=""width:8cm; height:9.3cm;""><p>What type of rock is this?</p>","4","class_response","1","test","34","Obsidian","Obsidian","16","true","5","5","",""
"","","","","","","","","","","","html-keyboard-response","272","2.0.0","1073574","66b4d2ee1ac8c5e9060a6930","1","21","null","","","","","","","","","<p style='font-size: 30px;'><strong>Okay</strong></p>","null","neutral_feedback","1","test","34","","","","","","","",""
"","","","","","","","","","","","html-button-response","273","2.0.0","1075551","66b4d2ee1ac8c5e9060a6930","1","21","1975","","","","","","","","","<img src= ""rock_img/I_Obsidian_05.jpg"" style=""width:8cm; height:6.33cm;""><p>What type of rock is this?</p>","4","class_response","1","test","35","Obsidian","Obsidian","05","true","5","5","",""
"","","","","","","","","","","","html-keyboard-response","274","2.0.0","1076058","66b4d2ee1ac8c5e9060a6930","1","21","null","","","","","","","","","<p style='font-size: 30px;'><strong>Okay</strong></p>","null","neutral_feedback","1","test","35","","","","","","","",""
"","","","","","","","","","","","html-button-response","275","2.0.0","1079063","66b4d2ee1ac8c5e9060a6930","1","21","3003","","","","","","","","","<img src= ""rock_img/I_Basalt_04.jpg"" style=""width:8cm; height:7.53cm;""><p>What type of rock is this?</p>","1","class_response","1","test","36","Basalt","Basalt","04","true","2","2","",""
"","","","","","","","","","","","html-keyboard-response","276","2.0.0","1079573","66b4d2ee1ac8c5e9060a6930","1","21","null","","","","","","","","","<p style='font-size: 30px;'><strong>Okay</strong></p>","null","neutral_feedback","1","test","36","","","","","","","",""
"","","","","","","","","","","","html-button-response","277","2.0.0","1094678","66b4d2ee1ac8c5e9060a6930","1","21","15104","","","","","","","","","<img src= ""rock_img/I_Basalt_14.jpg"" style=""width:8cm; height:5.82cm;""><p>What type of rock is this?</p>","3","class_response","1","test","37","Gabbro","Basalt","14","false","4","2","",""
"","","","","","","","","","","","html-keyboard-response","278","2.0.0","1095187","66b4d2ee1ac8c5e9060a6930","1","21","null","","","","","","","","","<p style='font-size: 30px;'><strong>Okay</strong></p>","null","neutral_feedback","1","test","37","","","","","","","",""
"","","","","","","","","","","","html-button-response","279","2.0.0","1096438","66b4d2ee1ac8c5e9060a6930","1","21","1250","","","","","","","","","<img src= ""rock_img/I_Pumice_13.jpg"" style=""width:8cm; height:8.200000000000001cm;""><p>What type of rock is this?</p>","7","class_response","1","test","38","Pumice","Pumice","13","true","8","8","",""
"","","","","","","","","","","","html-keyboard-response","280","2.0.0","1096940","66b4d2ee1ac8c5e9060a6930","1","21","null","","","","","","","","","<p style='font-size: 30px;'><strong>Okay</strong></p>","null","neutral_feedback","1","test","38","","","","","","","",""
"","","","","","","","","","","","html-button-response","281","2.0.0","1105494","66b4d2ee1ac8c5e9060a6930","1","21","8553","","","","","","","","","<img src= ""rock_img/I_Andesite_02.jpg"" style=""width:8cm; height:8.5cm;""><p>What type of rock is this?</p>","0","class_response","1","test","39","Andesite","Andesite","02","true","1","1","",""
"","","","","","","","","","","","html-keyboard-response","282","2.0.0","1106001","66b4d2ee1ac8c5e9060a6930","1","21","null","","","","","","","","","<p style='font-size: 30px;'><strong>Okay</strong></p>","null","neutral_feedback","1","test","39","","","","","","","",""
"","","","","","","","","","","","html-button-response","283","2.0.0","1123846","66b4d2ee1ac8c5e9060a6930","1","21","17843","","","","","","","","","<img src= ""rock_img/I_Pegmatite_09.jpg"" style=""width:8cm; height:4.03cm;""><p>What type of rock is this?</p>","5","class_response","1","test","40","Pegmatite","Pegmatite","09","true","6","6","",""
"","","","","","","","","","","","html-keyboard-response","284","2.0.0","1124352","66b4d2ee1ac8c5e9060a6930","1","21","null","","","","","","","","","<p style='font-size: 30px;'><strong>Okay</strong></p>","null","neutral_feedback","1","test","40","","","","","","","",""
"","","","","","","","","","","","html-button-response","285","2.0.0","1130287","66b4d2ee1ac8c5e9060a6930","1","21","5933","","","","","","","","","<img src= ""rock_img/I_Peridotite_15.jpg"" style=""width:8cm; height:6cm;""><p>What type of rock is this?</p>","6","class_response","1","test","41","Peridotite","Peridotite","15","true","7","7","",""
"","","","","","","","","","","","html-keyboard-response","286","2.0.0","1130790","66b4d2ee1ac8c5e9060a6930","1","21","null","","","","","","","","","<p style='font-size: 30px;'><strong>Okay</strong></p>","null","neutral_feedback","1","test","41","","","","","","","",""
"","","","","","","","","","","","html-button-response","287","2.0.0","1132718","66b4d2ee1ac8c5e9060a6930","1","21","1926","","","","","","","","","<img src= ""rock_img/I_Pegmatite_06.jpg"" style=""width:8cm; height:5.17cm;""><p>What type of rock is this?</p>","5","class_response","1","test","42","Pegmatite","Pegmatite","06","true","6","6","",""
"","","","","","","","","","","","html-keyboard-response","288","2.0.0","1133226","66b4d2ee1ac8c5e9060a6930","1","21","null","","","","","","","","","<p style='font-size: 30px;'><strong>Okay</strong></p>","null","neutral_feedback","1","test","42","","","","","","","",""
"","","","","","","","","","","","html-button-response","289","2.0.0","1141198","66b4d2ee1ac8c5e9060a6930","1","21","7970","","","","","","","","","<img src= ""rock_img/I_Diorite_08.jpg"" style=""width:8cm; height:6.37cm;""><p>What type of rock is this?</p>","2","class_response","1","test","43","Diorite","Diorite","08","true","3","3","",""
"","","","","","","","","","","","html-keyboard-response","290","2.0.0","1141700","66b4d2ee1ac8c5e9060a6930","1","21","null","","","","","","","","","<p style='font-size: 30px;'><strong>Okay</strong></p>","null","neutral_feedback","1","test","43","","","","","","","",""
"","","","","","","","","","","","html-button-response","291","2.0.0","1144158","66b4d2ee1ac8c5e9060a6930","1","21","2456","","","","","","","","","<img src= ""rock_img/I_Pegmatite_15.jpg"" style=""width:8cm; height:6cm;""><p>What type of rock is this?</p>","5","class_response","1","test","44","Pegmatite","Pegmatite","15","true","6","6","",""
"","","","","","","","","","","","html-keyboard-response","292","2.0.0","1144662","66b4d2ee1ac8c5e9060a6930","1","21","null","","","","","","","","","<p style='font-size: 30px;'><strong>Okay</strong></p>","null","neutral_feedback","1","test","44","","","","","","","",""
"","","","","","","","","","","","html-button-response","293","2.0.0","1146070","66b4d2ee1ac8c5e9060a6930","1","21","1405","","","","","","","","","<img src= ""rock_img/I_Diorite_09.jpg"" style=""width:8cm; height:5.27cm;""><p>What type of rock is this?</p>","2","class_response","1","test","45","Diorite","Diorite","09","true","3","3","",""
"","","","","","","","","","","","html-keyboard-response","294","2.0.0","1146571","66b4d2ee1ac8c5e9060a6930","1","21","null","","","","","","","","","<p style='font-size: 30px;'><strong>Okay</strong></p>","null","neutral_feedback","1","test","45","","","","","","","",""
"","","","","","","","","","","","html-button-response","295","2.0.0","1148742","66b4d2ee1ac8c5e9060a6930","1","21","2168","","","","","","","","","<img src= ""rock_img/I_Gabbro_11.jpg"" style=""width:8cm; height:6.2cm;""><p>What type of rock is this?</p>","1","class_response","1","test","46","Basalt","Gabbro","11","false","2","4","",""
"","","","","","","","","","","","html-keyboard-response","296","2.0.0","1149247","66b4d2ee1ac8c5e9060a6930","1","21","null","","","","","","","","","<p style='font-size: 30px;'><strong>Okay</strong></p>","null","neutral_feedback","1","test","46","","","","","","","",""
"","","","","","","","","","","","html-button-response","297","2.0.0","1156615","66b4d2ee1ac8c5e9060a6930","1","21","7365","","","","","","","","","<img src= ""rock_img/I_Pegmatite_16.jpg"" style=""width:8cm; height:5.8cm;""><p>What type of rock is this?</p>","5","class_response","1","test","47","Pegmatite","Pegmatite","16","true","6","6","",""
"","","","","","","","","","","","html-keyboard-response","298","2.0.0","1157125","66b4d2ee1ac8c5e9060a6930","1","21","null","","","","","","","","","<p style='font-size: 30px;'><strong>Okay</strong></p>","null","neutral_feedback","1","test","47","","","","","","","",""
"","","","","","","","","","","","html-button-response","299","2.0.0","1159902","66b4d2ee1ac8c5e9060a6930","1","21","2774","","","","","","","","","<img src= ""rock_img/I_Pumice_10.jpg"" style=""width:8cm; height:7.609999999999999cm;""><p>What type of rock is this?</p>","7","class_response","1","test","48","Pumice","Pumice","10","true","8","8","",""
"","","","","","","","","","","","html-keyboard-response","300","2.0.0","1160404","66b4d2ee1ac8c5e9060a6930","1","21","null","","","","","","","","","<p style='font-size: 30px;'><strong>Okay</strong></p>","null","neutral_feedback","1","test","48","","","","","","","",""
"","","","","","","","","","","","html-button-response","301","2.0.0","1215261","66b4d2ee1ac8c5e9060a6930","1","21","","","","","","","","","","","","cycle_feedback","","","","","","","","","","26335.299999952316","28511.400000095367"
"","","","","","","","","","","","html-button-response","303","2.0.0","1217637","66b4d2ee1ac8c5e9060a6930","1","21","2375","","","","","","","","","","0","start_train","","","","","","","","","","",""
"","","","","","","","","","","","html-button-response","304","2.0.0","1225581","66b4d2ee1ac8c5e9060a6930","1","21","7942","","","","","","","","","<img src= ""rock_img/I_Andesite_11.jpg"" style=""width:8cm; height:4.92cm;""><p>What type of rock is this?</p>","0","class_response","2","train","1","Andesite","Andesite","11","true","1","1","",""
