"width","height","webaudio","browser","browser_version","mobile","os","fullscreen","vsync_rate","webcam","microphone","trial_type","trial_index","plugin_version","time_elapsed","subjID","condition","stimID","rt","url","success","value","timeout","failed_images","failed_audio","failed_video","view_history","stimulus","response","trialType","cycle","phase","trial","resp","cat","token","corr","resp_num","cat_num","time_fb1","time_fb2"
"1280","665","true","chrome","130.0.0","false","Windows 10","true","60.27","true","true","browser-check","0","2.0.0","1007","5f16f559325a640008bb9a07","1","35","","","","","","","","","","","","","","","","","","","","","","",""
"","","","","","","","","","","","external-html","1","2.0.0","4670","5f16f559325a640008bb9a07","1","35","3575","consent_form.html","","","","","","","","","","","","","","","","","","","","",""
"","","","","","","","","","","","fullscreen","2","2.0.0","6738","5f16f559325a640008bb9a07","1","35","1050","","true","","","","","","","","","","","","","","","","","","","",""
"","","","","","","","","","","","call-function","3","2.0.0","6744","5f16f559325a640008bb9a07","1","35","","","","{}","","","","","","","","","","","","","","","","","","",""
"","","","","","","","","","","","preload","4","2.0.0","8140","5f16f559325a640008bb9a07","1","35","","","true","","false","[]","[]","[]","","","","","","","","","","","","","","",""
"","","","","","","","","","","","instructions","5","2.0.0","17589","5f16f559325a640008bb9a07","1","35","9448","","","","","","","","[{""page_index"":0,""viewing_time"":2087},{""page_index"":1,""viewing_time"":5284},{""page_index"":2,""viewing_time"":2077}]","","","","","","","","","","","","","",""
"","","","","","","","","","","","html-button-response","6","2.0.0","18742","5f16f559325a640008bb9a07","1","35","1149","","","","","","","","","","0","start_test","","","","","","","","","","",""
"","","","","","","","","","","","html-button-response","7","2.0.0","21402","5f16f559325a640008bb9a07","1","35","2656","","","","","","","","","<img src= ""rock_img/I_Andesite_04.jpg"" style=""width:8cm; height:5.96cm;""><p>What type of rock is this?</p>","1","class_response","0","test","1","Basalt","Andesite","04","false","2","1","",""
"","","","","","","","","","","","html-keyboard-response","8","2.0.0","21913","5f16f559325a640008bb9a07","1","35","null","","","","","","","","","<p style='font-size: 30px;'><strong>Okay</strong></p>","null","neutral_feedback","0","test","1","","","","","","","",""
"","","","","","","","","","","","html-button-response","9","2.0.0","26297","5f16f559325a640008bb9a07","1","35","4382","","","","","","","","","<img src= ""rock_img/I_Diorite_14.jpg"" style=""width:8cm; height:5.71cm;""><p>What type of rock is this?</p>","6","class_response","0","test","2","Peridotite","Diorite","14","false","7","3","",""
"","","","","","","","","","","","html-keyboard-response","10","2.0.0","26802","5f16f559325a640008bb9a07","1","35","null","","","","","","","","","<p style='font-size: 30px;'><strong>Okay</strong></p>","null","neutral_feedback","0","test","2","","","","","","","",""
"","","","","","","","","","","","html-button-response","11","2.0.0","29028","5f16f559325a640008bb9a07","1","35","2222","","","","","","","","","<img src= ""rock_img/I_Diorite_12.jpg"" style=""width:8cm; height:4.88cm;""><p>What type of rock is this?</p>","7","class_response","0","test","3","Pumice","Diorite","12","false","8","3","",""
"","","","","","","","","","","","html-keyboard-response","12","2.0.0","29541","5f16f559325a640008bb9a07","1","35","null","","","","","","","","","<p style='font-size: 30px;'><strong>Okay</strong></p>","null","neutral_feedback","0","test","3","","","","","","","",""
"","","","","","","","","","","","html-button-response","13","2.0.0","30261","5f16f559325a640008bb9a07","1","35","717","","","","","","","","","<img src= ""rock_img/I_Gabbro_03.jpg"" style=""width:8cm; height:8.52cm;""><p>What type of rock is this?</p>","6","class_response","0","test","4","Peridotite","Gabbro","03","false","7","4","",""
"","","","","","","","","","","","html-keyboard-response","14","2.0.0","30770","5f16f559325a640008bb9a07","1","35","null","","","","","","","","","<p style='font-size: 30px;'><strong>Okay</strong></p>","null","neutral_feedback","0","test","4","","","","","","","",""
"","","","","","","","","","","","html-button-response","15","2.0.0","32413","5f16f559325a640008bb9a07","1","35","1641","","","","","","","","","<img src= ""rock_img/I_Andesite_14.jpg"" style=""width:8cm; height:5.449999999999999cm;""><p>What type of rock is this?</p>","4","class_response","0","test","5","Obsidian","Andesite","14","false","5","1","",""
"","","","","","","","","","","","html-keyboard-response","16","2.0.0","32935","5f16f559325a640008bb9a07","1","35","null","","","","","","","","","<p style='font-size: 30px;'><strong>Okay</strong></p>","null","neutral_feedback","0","test","5","","","","","","","",""
"","","","","","","","","","","","html-button-response","17","2.0.0","34698","5f16f559325a640008bb9a07","1","35","1761","","","","","","","","","<img src= ""rock_img/I_Pumice_13.jpg"" style=""width:8cm; height:8.200000000000001cm;""><p>What type of rock is this?</p>","0","class_response","0","test","6","Andesite","Pumice","13","false","1","8","",""
"","","","","","","","","","","","html-keyboard-response","18","2.0.0","35204","5f16f559325a640008bb9a07","1","35","null","","","","","","","","","<p style='font-size: 30px;'><strong>Okay</strong></p>","null","neutral_feedback","0","test","6","","","","","","","",""
"","","","","","","","","","","","html-button-response","19","2.0.0","36743","5f16f559325a640008bb9a07","1","35","1537","","","","","","","","","<img src= ""rock_img/I_Andesite_03.jpg"" style=""width:8cm; height:5.73cm;""><p>What type of rock is this?</p>","3","class_response","0","test","7","Gabbro","Andesite","03","false","4","1","",""
"","","","","","","","","","","","html-keyboard-response","20","2.0.0","37254","5f16f559325a640008bb9a07","1","35","null","","","","","","","","","<p style='font-size: 30px;'><strong>Okay</strong></p>","null","neutral_feedback","0","test","7","","","","","","","",""
"","","","","","","","","","","","html-button-response","21","2.0.0","38438","5f16f559325a640008bb9a07","1","35","1182","","","","","","","","","<img src= ""rock_img/I_Obsidian_10.jpg"" style=""width:8cm; height:6.260000000000001cm;""><p>What type of rock is this?</p>","7","class_response","0","test","8","Pumice","Obsidian","10","false","8","5","",""
"","","","","","","","","","","","html-keyboard-response","22","2.0.0","38952","5f16f559325a640008bb9a07","1","35","null","","","","","","","","","<p style='font-size: 30px;'><strong>Okay</strong></p>","null","neutral_feedback","0","test","8","","","","","","","",""
"","","","","","","","","","","","html-button-response","23","2.0.0","39431","5f16f559325a640008bb9a07","1","35","478","","","","","","","","","<img src= ""rock_img/I_Obsidian_04.jpg"" style=""width:8cm; height:6.930000000000001cm;""><p>What type of rock is this?</p>","1","class_response","0","test","9","Basalt","Obsidian","04","false","2","5","",""
"","","","","","","","","","","","html-keyboard-response","24","2.0.0","39937","5f16f559325a640008bb9a07","1","35","null","","","","","","","","","<p style='font-size: 30px;'><strong>Okay</strong></p>","null","neutral_feedback","0","test","9","","","","","","","",""
"","","","","","","","","","","","html-button-response","25","2.0.0","40333","5f16f559325a640008bb9a07","1","35","394","","","","","","","","","<img src= ""rock_img/I_Gabbro_15.jpg"" style=""width:8cm; height:6.29cm;""><p>What type of rock is this?</p>","6","class_response","0","test","10","Peridotite","Gabbro","15","false","7","4","",""
"","","","","","","","","","","","html-keyboard-response","26","2.0.0","40845","5f16f559325a640008bb9a07","1","35","null","","","","","","","","","<p style='font-size: 30px;'><strong>Okay</strong></p>","null","neutral_feedback","0","test","10","","","","","","","",""
"","","","","","","","","","","","html-button-response","27","2.0.0","41661","5f16f559325a640008bb9a07","1","35","814","","","","","","","","","<img src= ""rock_img/I_Pegmatite_11.jpg"" style=""width:8cm; height:8.14cm;""><p>What type of rock is this?</p>","2","class_response","0","test","11","Diorite","Pegmatite","11","false","3","6","",""
"","","","","","","","","","","","html-keyboard-response","28","2.0.0","42175","5f16f559325a640008bb9a07","1","35","null","","","","","","","","","<p style='font-size: 30px;'><strong>Okay</strong></p>","null","neutral_feedback","0","test","11","","","","","","","",""
"","","","","","","","","","","","html-button-response","29","2.0.0","42501","5f16f559325a640008bb9a07","1","35","322","","","","","","","","","<img src= ""rock_img/I_Basalt_09.jpg"" style=""width:8cm; height:6.2cm;""><p>What type of rock is this?</p>","5","class_response","0","test","12","Pegmatite","Basalt","09","false","6","2","",""
"","","","","","","","","","","","html-keyboard-response","30","2.0.0","43014","5f16f559325a640008bb9a07","1","35","null","","","","","","","","","<p style='font-size: 30px;'><strong>Okay</strong></p>","null","neutral_feedback","0","test","12","","","","","","","",""
"","","","","","","","","","","","html-button-response","31","2.0.0","43385","5f16f559325a640008bb9a07","1","35","368","","","","","","","","","<img src= ""rock_img/I_Basalt_12.jpg"" style=""width:8cm; height:6.010000000000001cm;""><p>What type of rock is this?</p>","0","class_response","0","test","13","Andesite","Basalt","12","false","1","2","",""
"","","","","","","","","","","","html-keyboard-response","32","2.0.0","43902","5f16f559325a640008bb9a07","1","35","null","","","","","","","","","<p style='font-size: 30px;'><strong>Okay</strong></p>","null","neutral_feedback","0","test","13","","","","","","","",""
"","","","","","","","","","","","html-button-response","33","2.0.0","44157","5f16f559325a640008bb9a07","1","35","254","","","","","","","","","<img src= ""rock_img/I_Peridotite_04.jpg"" style=""width:8cm; height:6.680000000000001cm;""><p>What type of rock is this?</p>","5","class_response","0","test","14","Pegmatite","Peridotite","04","false","6","7","",""
"","","","","","","","","","","","html-keyboard-response","34","2.0.0","44669","5f16f559325a640008bb9a07","1","35","null","","","","","","","","","<p style='font-size: 30px;'><strong>Okay</strong></p>","null","neutral_feedback","0","test","14","","","","","","","",""
"","","","","","","","","","","","html-button-response","35","2.0.0","45372","5f16f559325a640008bb9a07","1","35","701","","","","","","","","","<img src= ""rock_img/I_Basalt_01.jpg"" style=""width:8cm; height:7.880000000000001cm;""><p>What type of rock is this?</p>","1","class_response","0","test","15","Basalt","Basalt","01","true","2","2","",""
"","","","","","","","","","","","html-keyboard-response","36","2.0.0","45874","5f16f559325a640008bb9a07","1","35","null","","","","","","","","","<p style='font-size: 30px;'><strong>Okay</strong></p>","null","neutral_feedback","0","test","15","","","","","","","",""
"","","","","","","","","","","","html-button-response","37","2.0.0","46216","5f16f559325a640008bb9a07","1","35","340","","","","","","","","","<img src= ""rock_img/I_Peridotite_06.jpg"" style=""width:8cm; height:7.53cm;""><p>What type of rock is this?</p>","4","class_response","0","test","16","Obsidian","Peridotite","06","false","5","7","",""
"","","","","","","","","","","","html-keyboard-response","38","2.0.0","46725","5f16f559325a640008bb9a07","1","35","null","","","","","","","","","<p style='font-size: 30px;'><strong>Okay</strong></p>","null","neutral_feedback","0","test","16","","","","","","","",""
"","","","","","","","","","","","html-button-response","39","2.0.0","47006","5f16f559325a640008bb9a07","1","35","280","","","","","","","","","<img src= ""rock_img/I_Andesite_02.jpg"" style=""width:8cm; height:8.5cm;""><p>What type of rock is this?</p>","2","class_response","0","test","17","Diorite","Andesite","02","false","3","1","",""
"","","","","","","","","","","","html-keyboard-response","40","2.0.0","47516","5f16f559325a640008bb9a07","1","35","null","","","","","","","","","<p style='font-size: 30px;'><strong>Okay</strong></p>","null","neutral_feedback","0","test","17","","","","","","","",""
"","","","","","","","","","","","html-button-response","41","2.0.0","47795","5f16f559325a640008bb9a07","1","35","277","","","","","","","","","<img src= ""rock_img/I_Pegmatite_13.jpg"" style=""width:8cm; height:4.95cm;""><p>What type of rock is this?</p>","5","class_response","0","test","18","Pegmatite","Pegmatite","13","true","6","6","",""
"","","","","","","","","","","","html-keyboard-response","42","2.0.0","48298","5f16f559325a640008bb9a07","1","35","null","","","","","","","","","<p style='font-size: 30px;'><strong>Okay</strong></p>","null","neutral_feedback","0","test","18","","","","","","","",""
"","","","","","","","","","","","html-button-response","43","2.0.0","48636","5f16f559325a640008bb9a07","1","35","336","","","","","","","","","<img src= ""rock_img/I_Pumice_04.jpg"" style=""width:8cm; height:6.819999999999999cm;""><p>What type of rock is this?</p>","1","class_response","0","test","19","Basalt","Pumice","04","false","2","8","",""
"","","","","","","","","","","","html-keyboard-response","44","2.0.0","49152","5f16f559325a640008bb9a07","1","35","null","","","","","","","","","<p style='font-size: 30px;'><strong>Okay</strong></p>","null","neutral_feedback","0","test","19","","","","","","","",""
"","","","","","","","","","","","html-button-response","45","2.0.0","49439","5f16f559325a640008bb9a07","1","35","285","","","","","","","","","<img src= ""rock_img/I_Andesite_16.jpg"" style=""width:8cm; height:6.010000000000001cm;""><p>What type of rock is this?</p>","6","class_response","0","test","20","Peridotite","Andesite","16","false","7","1","",""
"","","","","","","","","","","","html-keyboard-response","46","2.0.0","49949","5f16f559325a640008bb9a07","1","35","null","","","","","","","","","<p style='font-size: 30px;'><strong>Okay</strong></p>","null","neutral_feedback","0","test","20","","","","","","","",""
"","","","","","","","","","","","html-button-response","47","2.0.0","50236","5f16f559325a640008bb9a07","1","35","285","","","","","","","","","<img src= ""rock_img/I_Pegmatite_09.jpg"" style=""width:8cm; height:4.03cm;""><p>What type of rock is this?</p>","0","class_response","0","test","21","Andesite","Pegmatite","09","false","1","6","",""
"","","","","","","","","","","","html-keyboard-response","48","2.0.0","50748","5f16f559325a640008bb9a07","1","35","null","","","","","","","","","<p style='font-size: 30px;'><strong>Okay</strong></p>","null","neutral_feedback","0","test","21","","","","","","","",""
"","","","","","","","","","","","html-button-response","49","2.0.0","51018","5f16f559325a640008bb9a07","1","35","268","","","","","","","","","<img src= ""rock_img/I_Andesite_11.jpg"" style=""width:8cm; height:4.92cm;""><p>What type of rock is this?</p>","6","class_response","0","test","22","Peridotite","Andesite","11","false","7","1","",""
"","","","","","","","","","","","html-keyboard-response","50","2.0.0","51532","5f16f559325a640008bb9a07","1","35","null","","","","","","","","","<p style='font-size: 30px;'><strong>Okay</strong></p>","null","neutral_feedback","0","test","22","","","","","","","",""
"","","","","","","","","","","","html-button-response","51","2.0.0","52239","5f16f559325a640008bb9a07","1","35","705","","","","","","","","","<img src= ""rock_img/I_Diorite_16.jpg"" style=""width:8cm; height:6.74cm;""><p>What type of rock is this?</p>","1","class_response","0","test","23","Basalt","Diorite","16","false","2","3","",""
"","","","","","","","","","","","html-keyboard-response","52","2.0.0","52755","5f16f559325a640008bb9a07","1","35","null","","","","","","","","","<p style='font-size: 30px;'><strong>Okay</strong></p>","null","neutral_feedback","0","test","23","","","","","","","",""
"","","","","","","","","","","","html-button-response","53","2.0.0","53135","5f16f559325a640008bb9a07","1","35","378","","","","","","","","","<img src= ""rock_img/I_Pegmatite_16.jpg"" style=""width:8cm; height:5.8cm;""><p>What type of rock is this?</p>","7","class_response","0","test","24","Pumice","Pegmatite","16","false","8","6","",""
"","","","","","","","","","","","html-keyboard-response","54","2.0.0","53651","5f16f559325a640008bb9a07","1","35","null","","","","","","","","","<p style='font-size: 30px;'><strong>Okay</strong></p>","null","neutral_feedback","0","test","24","","","","","","","",""
"","","","","","","","","","","","html-button-response","55","2.0.0","54011","5f16f559325a640008bb9a07","1","35","357","","","","","","","","","<img src= ""rock_img/I_Obsidian_09.jpg"" style=""width:8cm; height:5cm;""><p>What type of rock is this?</p>","3","class_response","0","test","25","Gabbro","Obsidian","09","false","4","5","",""
"","","","","","","","","","","","html-keyboard-response","56","2.0.0","54524","5f16f559325a640008bb9a07","1","35","null","","","","","","","","","<p style='font-size: 30px;'><strong>Okay</strong></p>","null","neutral_feedback","0","test","25","","","","","","","",""
"","","","","","","","","","","","html-button-response","57","2.0.0","54774","5f16f559325a640008bb9a07","1","35","248","","","","","","","","","<img src= ""rock_img/I_Obsidian_16.jpg"" style=""width:8cm; height:9.3cm;""><p>What type of rock is this?</p>","1","class_response","0","test","26","Basalt","Obsidian","16","false","2","5","",""
"","","","","","","","","","","","html-keyboard-response","58","2.0.0","55283","5f16f559325a640008bb9a07","1","35","null","","","","","","","","","<p style='font-size: 30px;'><strong>Okay</strong></p>","null","neutral_feedback","0","test","26","","","","","","","",""
"","","","","","","","","","","","html-button-response","59","2.0.0","55637","5f16f559325a640008bb9a07","1","35","352","","","","","","","","","<img src= ""rock_img/I_Pumice_14.jpg"" style=""width:8cm; height:6.39cm;""><p>What type of rock is this?</p>","3","class_response","0","test","27","Gabbro","Pumice","14","false","4","8","",""
"","","","","","","","","","","","html-keyboard-response","60","2.0.0","56147","5f16f559325a640008bb9a07","1","35","null","","","","","","","","","<p style='font-size: 30px;'><strong>Okay</strong></p>","null","neutral_feedback","0","test","27","","","","","","","",""
"","","","","","","","","","","","html-button-response","61","2.0.0","56391","5f16f559325a640008bb9a07","1","35","241","","","","","","","","","<img src= ""rock_img/I_Pegmatite_07.jpg"" style=""width:8cm; height:6.7cm;""><p>What type of rock is this?</p>","5","class_response","0","test","28","Pegmatite","Pegmatite","07","true","6","6","",""
"","","","","","","","","","","","html-keyboard-response","62","2.0.0","56902","5f16f559325a640008bb9a07","1","35","null","","","","","","","","","<p style='font-size: 30px;'><strong>Okay</strong></p>","null","neutral_feedback","0","test","28","","","","","","","",""
"","","","","","","","","","","","html-button-response","63","2.0.0","57216","5f16f559325a640008bb9a07","1","35","312","","","","","","","","","<img src= ""rock_img/I_Gabbro_16.jpg"" style=""width:8cm; height:6.44cm;""><p>What type of rock is this?</p>","3","class_response","0","test","29","Gabbro","Gabbro","16","true","4","4","",""
"","","","","","","","","","","","html-keyboard-response","64","2.0.0","57727","5f16f559325a640008bb9a07","1","35","null","","","","","","","","","<p style='font-size: 30px;'><strong>Okay</strong></p>","null","neutral_feedback","0","test","29","","","","","","","",""
"","","","","","","","","","","","html-button-response","65","2.0.0","58001","5f16f559325a640008bb9a07","1","35","272","","","","","","","","","<img src= ""rock_img/I_Diorite_02.jpg"" style=""width:8cm; height:6.27cm;""><p>What type of rock is this?</p>","2","class_response","0","test","30","Diorite","Diorite","02","true","3","3","",""
"","","","","","","","","","","","html-keyboard-response","66","2.0.0","58518","5f16f559325a640008bb9a07","1","35","null","","","","","","","","","<p style='font-size: 30px;'><strong>Okay</strong></p>","null","neutral_feedback","0","test","30","","","","","","","",""
"","","","","","","","","","","","html-button-response","67","2.0.0","58853","5f16f559325a640008bb9a07","1","35","331","","","","","","","","","<img src= ""rock_img/I_Diorite_15.jpg"" style=""width:8cm; height:5.54cm;""><p>What type of rock is this?</p>","4","class_response","0","test","31","Obsidian","Diorite","15","false","5","3","",""
"","","","","","","","","","","","html-keyboard-response","68","2.0.0","59363","5f16f559325a640008bb9a07","1","35","null","","","","","","","","","<p style='font-size: 30px;'><strong>Okay</strong></p>","null","neutral_feedback","0","test","31","","","","","","","",""
"","","","","","","","","","","","html-button-response","69","2.0.0","59858","5f16f559325a640008bb9a07","1","35","494","","","","","","","","","<img src= ""rock_img/I_Pumice_09.jpg"" style=""width:8cm; height:6.44cm;""><p>What type of rock is this?</p>","1","class_response","0","test","32","Basalt","Pumice","09","false","2","8","",""
"","","","","","","","","","","","html-keyboard-response","70","2.0.0","60372","5f16f559325a640008bb9a07","1","35","null","","","","","","","","","<p style='font-size: 30px;'><strong>Okay</strong></p>","null","neutral_feedback","0","test","32","","","","","","","",""
"","","","","","","","","","","","html-button-response","71","2.0.0","60760","5f16f559325a640008bb9a07","1","35","386","","","","","","","","","<img src= ""rock_img/I_Basalt_04.jpg"" style=""width:8cm; height:7.53cm;""><p>What type of rock is this?</p>","6","class_response","0","test","33","Peridotite","Basalt","04","false","7","2","",""
"","","","","","","","","","","","html-keyboard-response","72","2.0.0","61275","5f16f559325a640008bb9a07","1","35","null","","","","","","","","","<p style='font-size: 30px;'><strong>Okay</strong></p>","null","neutral_feedback","0","test","33","","","","","","","",""
"","","","","","","","","","","","html-button-response","73","2.0.0","61517","5f16f559325a640008bb9a07","1","35","239","","","","","","","","","<img src= ""rock_img/I_Pegmatite_06.jpg"" style=""width:8cm; height:5.17cm;""><p>What type of rock is this?</p>","0","class_response","0","test","34","Andesite","Pegmatite","06","false","1","6","",""
"","","","","","","","","","","","html-keyboard-response","74","2.0.0","62032","5f16f559325a640008bb9a07","1","35","null","","","","","","","","","<p style='font-size: 30px;'><strong>Okay</strong></p>","null","neutral_feedback","0","test","34","","","","","","","",""
"","","","","","","","","","","","html-button-response","75","2.0.0","62311","5f16f559325a640008bb9a07","1","35","276","","","","","","","","","<img src= ""rock_img/I_Peridotite_13.jpg"" style=""width:8cm; height:7.58cm;""><p>What type of rock is this?</p>","5","class_response","0","test","35","Pegmatite","Peridotite","13","false","6","7","",""
"","","","","","","","","","","","html-keyboard-response","76","2.0.0","62823","5f16f559325a640008bb9a07","1","35","null","","","","","","","","","<p style='font-size: 30px;'><strong>Okay</strong></p>","null","neutral_feedback","0","test","35","","","","","","","",""
"","","","","","","","","","","","html-button-response","77","2.0.0","63115","5f16f559325a640008bb9a07","1","35","290","","","","","","","","","<img src= ""rock_img/I_Gabbro_01.jpg"" style=""width:8cm; height:5.21cm;""><p>What type of rock is this?</p>","6","class_response","0","test","36","Peridotite","Gabbro","01","false","7","4","",""
"","","","","","","","","","","","html-keyboard-response","78","2.0.0","63620","5f16f559325a640008bb9a07","1","35","null","","","","","","","","","<p style='font-size: 30px;'><strong>Okay</strong></p>","null","neutral_feedback","0","test","36","","","","","","","",""
"","","","","","","","","","","","html-button-response","79","2.0.0","63931","5f16f559325a640008bb9a07","1","35","307","","","","","","","","","<img src= ""rock_img/I_Gabbro_10.jpg"" style=""width:8cm; height:5.680000000000001cm;""><p>What type of rock is this?</p>","3","class_response","0","test","37","Gabbro","Gabbro","10","true","4","4","",""
"","","","","","","","","","","","html-keyboard-response","80","2.0.0","64437","5f16f559325a640008bb9a07","1","35","null","","","","","","","","","<p style='font-size: 30px;'><strong>Okay</strong></p>","null","neutral_feedback","0","test","37","","","","","","","",""
"","","","","","","","","","","","html-button-response","81","2.0.0","64714","5f16f559325a640008bb9a07","1","35","274","","","","","","","","","<img src= ""rock_img/I_Diorite_09.jpg"" style=""width:8cm; height:5.27cm;""><p>What type of rock is this?</p>","7","class_response","0","test","38","Pumice","Diorite","09","false","8","3","",""
"","","","","","","","","","","","html-keyboard-response","82","2.0.0","65216","5f16f559325a640008bb9a07","1","35","null","","","","","","","","","<p style='font-size: 30px;'><strong>Okay</strong></p>","null","neutral_feedback","0","test","38","","","","","","","",""
"","","","","","","","","","","","html-button-response","83","2.0.0","65866","5f16f559325a640008bb9a07","1","35","648","","","","","","","","","<img src= ""rock_img/I_Pumice_05.jpg"" style=""width:8cm; height:7.25cm;""><p>What type of rock is this?</p>","2","class_response","0","test","39","Diorite","Pumice","05","false","3","8","",""
"","","","","","","","","","","","html-keyboard-response","84","2.0.0","66378","5f16f559325a640008bb9a07","1","35","null","","","","","","","","","<p style='font-size: 30px;'><strong>Okay</strong></p>","null","neutral_feedback","0","test","39","","","","","","","",""
"","","","","","","","","","","","html-button-response","85","2.0.0","66650","5f16f559325a640008bb9a07","1","35","271","","","","","","","","","<img src= ""rock_img/I_Peridotite_02.jpg"" style=""width:8cm; height:5.859999999999999cm;""><p>What type of rock is this?</p>","5","class_response","0","test","40","Pegmatite","Peridotite","02","false","6","7","",""
"","","","","","","","","","","","html-keyboard-response","86","2.0.0","67155","5f16f559325a640008bb9a07","1","35","null","","","","","","","","","<p style='font-size: 30px;'><strong>Okay</strong></p>","null","neutral_feedback","0","test","40","","","","","","","",""
"","","","","","","","","","","","html-button-response","87","2.0.0","67434","5f16f559325a640008bb9a07","1","35","276","","","","","","","","","<img src= ""rock_img/I_Pumice_15.jpg"" style=""width:8cm; height:7.86cm;""><p>What type of rock is this?</p>","1","class_response","0","test","41","Basalt","Pumice","15","false","2","8","",""
"","","","","","","","","","","","html-keyboard-response","88","2.0.0","67938","5f16f559325a640008bb9a07","1","35","null","","","","","","","","","<p style='font-size: 30px;'><strong>Okay</strong></p>","null","neutral_feedback","0","test","41","","","","","","","",""
"","","","","","","","","","","","html-button-response","89","2.0.0","68169","5f16f559325a640008bb9a07","1","35","228","","","","","","","","","<img src= ""rock_img/I_Peridotite_12.jpg"" style=""width:8cm; height:4.54cm;""><p>What type of rock is this?</p>","6","class_response","0","test","42","Peridotite","Peridotite","12","true","7","7","",""
"","","","","","","","","","","","html-keyboard-response","90","2.0.0","68679","5f16f559325a640008bb9a07","1","35","null","","","","","","","","","<p style='font-size: 30px;'><strong>Okay</strong></p>","null","neutral_feedback","0","test","42","","","","","","","",""
"","","","","","","","","","","","html-button-response","91","2.0.0","69008","5f16f559325a640008bb9a07","1","35","327","","","","","","","","","<img src= ""rock_img/I_Basalt_16.jpg"" style=""width:8cm; height:7.659999999999999cm;""><p>What type of rock is this?</p>","0","class_response","0","test","43","Andesite","Basalt","16","false","1","2","",""
"","","","","","","","","","","","html-keyboard-response","92","2.0.0","69522","5f16f559325a640008bb9a07","1","35","null","","","","","","","","","<p style='font-size: 30px;'><strong>Okay</strong></p>","null","neutral_feedback","0","test","43","","","","","","","",""
"","","","","","","","","","","","html-button-response","93","2.0.0","69787","5f16f559325a640008bb9a07","1","35","263","","","","","","","","","<img src= ""rock_img/I_Basalt_02.jpg"" style=""width:8cm; height:6.45cm;""><p>What type of rock is this?</p>","4","class_response","0","test","44","Obsidian","Basalt","02","false","5","2","",""
"","","","","","","","","","","","html-keyboard-response","94","2.0.0","70289","5f16f559325a640008bb9a07","1","35","null","","","","","","","","","<p style='font-size: 30px;'><strong>Okay</strong></p>","null","neutral_feedback","0","test","44","","","","","","","",""
"","","","","","","","","","","","html-button-response","95","2.0.0","70489","5f16f559325a640008bb9a07","1","35","198","","","","","","","","","<img src= ""rock_img/I_Gabbro_11.jpg"" style=""width:8cm; height:6.2cm;""><p>What type of rock is this?</p>","2","class_response","0","test","45","Diorite","Gabbro","11","false","3","4","",""
"","","","","","","","","","","","html-keyboard-response","96","2.0.0","70993","5f16f559325a640008bb9a07","1","35","null","","","","","","","","","<p style='font-size: 30px;'><strong>Okay</strong></p>","null","neutral_feedback","0","test","45","","","","","","","",""
"","","","","","","","","","","","html-button-response","97","2.0.0","71253","5f16f559325a640008bb9a07","1","35","258","","","","","","","","","<img src= ""rock_img/I_Peridotite_16.jpg"" style=""width:8cm; height:6.989999999999999cm;""><p>What type of rock is this?</p>","5","class_response","0","test","46","Pegmatite","Peridotite","16","false","6","7","",""
"","","","","","","","","","","","html-keyboard-response","98","2.0.0","71757","5f16f559325a640008bb9a07","1","35","null","","","","","","","","","<p style='font-size: 30px;'><strong>Okay</strong></p>","null","neutral_feedback","0","test","46","","","","","","","",""
"","","","","","","","","","","","html-button-response","99","2.0.0","72002","5f16f559325a640008bb9a07","1","35","243","","","","","","","","","<img src= ""rock_img/I_Obsidian_14.jpg"" style=""width:8cm; height:7.64cm;""><p>What type of rock is this?</p>","3","class_response","0","test","47","Gabbro","Obsidian","14","false","4","5","",""
"","","","","","","","","","","","html-keyboard-response","100","2.0.0","72508","5f16f559325a640008bb9a07","1","35","null","","","","","","","","","<p style='font-size: 30px;'><strong>Okay</strong></p>","null","neutral_feedback","0","test","47","","","","","","","",""
"","","","","","","","","","","","html-button-response","101","2.0.0","72885","5f16f559325a640008bb9a07","1","35","374","","","","","","","","","<img src= ""rock_img/I_Obsidian_02.jpg"" style=""width:8cm; height:7.51cm;""><p>What type of rock is this?</p>","0","class_response","0","test","48","Andesite","Obsidian","02","false","1","5","",""
"","","","","","","","","","","","html-keyboard-response","102","2.0.0","73402","5f16f559325a640008bb9a07","1","35","null","","","","","","","","","<p style='font-size: 30px;'><strong>Okay</strong></p>","null","neutral_feedback","0","test","48","","","","","","","",""
"","","","","","","","","","","","instructions","103","2.0.0","77781","5f16f559325a640008bb9a07","1","35","4334","","","","","","","","[{""page_index"":0,""viewing_time"":2110},{""page_index"":1,""viewing_time"":1439},{""page_index"":2,""viewing_time"":785}]","","","","","","","","","","","","","",""
"","","","","","","","","","","","html-button-response","104","2.0.0","78723","5f16f559325a640008bb9a07","1","35","940","","","","","","","","","","0","start_train","","","","","","","","","","",""
"","","","","","","","","","","","html-button-response","105","2.0.0","79747","5f16f559325a640008bb9a07","1","35","1021","","","","","","","","","<img src= ""rock_img/I_Pegmatite_12.jpg"" style=""width:8cm; height:5.7cm;""><p>What type of rock is this?</p>","1","class_response","1","train","1","Basalt","Pegmatite","12","false","2","6","",""
"","","","","","","","","","","","html-button-response","106","2.0.0","80551","5f16f559325a640008bb9a07","1","35","801","","","","","","","","","<img src= rock_img/I_Pegmatite_12.jpg style=""width:8cm; height:5.7cm;""><p style='font-size: 30px; color: red;'><strong>Incorrect!</strong></p><p style='font-size: 30px;'><strong>This rock is pegmatite</strong></p>","0","corr_feedback","1","train","1","","","","","","","",""
"","","","","","","","","","","","html-button-response","107","2.0.0","81018","5f16f559325a640008bb9a07","1","35","465","","","","","","","","","<img src= ""rock_img/I_Obsidian_06.jpg"" style=""width:8cm; height:6.8cm;""><p>What type of rock is this?</p>","6","class_response","1","train","2","Peridotite","Obsidian","06","false","7","5","",""
"","","","","","","","","","","","html-button-response","108","2.0.0","81763","5f16f559325a640008bb9a07","1","35","744","","","","","","","","","<img src= rock_img/I_Obsidian_06.jpg style=""width:8cm; height:6.8cm;""><p style='font-size: 30px; color: red;'><strong>Incorrect!</strong></p><p style='font-size: 30px;'><strong>This rock is obsidian</strong></p>","0","corr_feedback","1","train","2","","","","","","","",""
"","","","","","","","","","","","html-button-response","109","2.0.0","82150","5f16f559325a640008bb9a07","1","35","384","","","","","","","","","<img src= ""rock_img/I_Diorite_11.jpg"" style=""width:8cm; height:7.11cm;""><p>What type of rock is this?</p>","2","class_response","1","train","3","Diorite","Diorite","11","true","3","3","",""
"","","","","","","","","","","","html-button-response","110","2.0.0","82536","5f16f559325a640008bb9a07","1","35","384","","","","","","","","","<img src= rock_img/I_Diorite_11.jpg style=""width:8cm; height:7.11cm;""><p style='font-size: 30px; color: green;'><strong>Correct!</strong></p><p style='font-size: 30px;'><strong>This rock is diorite</strong></p>","0","corr_feedback","1","train","3","","","","","","","",""
"","","","","","","","","","","","html-button-response","111","2.0.0","83066","5f16f559325a640008bb9a07","1","35","528","","","","","","","","","<img src= ""rock_img/I_Pegmatite_08.jpg"" style=""width:8cm; height:7.68cm;""><p>What type of rock is this?</p>","5","class_response","1","train","4","Pegmatite","Pegmatite","08","true","6","6","",""
"","","","","","","","","","","","html-button-response","112","2.0.0","83508","5f16f559325a640008bb9a07","1","35","440","","","","","","","","","<img src= rock_img/I_Pegmatite_08.jpg style=""width:8cm; height:7.68cm;""><p style='font-size: 30px; color: green;'><strong>Correct!</strong></p><p style='font-size: 30px;'><strong>This rock is pegmatite</strong></p>","0","corr_feedback","1","train","4","","","","","","","",""
"","","","","","","","","","","","html-button-response","113","2.0.0","83886","5f16f559325a640008bb9a07","1","35","376","","","","","","","","","<img src= ""rock_img/I_Basalt_10.jpg"" style=""width:8cm; height:5.85cm;""><p>What type of rock is this?</p>","4","class_response","1","train","5","Obsidian","Basalt","10","false","5","2","",""
"","","","","","","","","","","","html-button-response","114","2.0.0","84303","5f16f559325a640008bb9a07","1","35","416","","","","","","","","","<img src= rock_img/I_Basalt_10.jpg style=""width:8cm; height:5.85cm;""><p style='font-size: 30px; color: red;'><strong>Incorrect!</strong></p><p style='font-size: 30px;'><strong>This rock is basalt</strong></p>","0","corr_feedback","1","train","5","","","","","","","",""
"","","","","","","","","","","","html-button-response","115","2.0.0","84692","5f16f559325a640008bb9a07","1","35","387","","","","","","","","","<img src= ""rock_img/I_Gabbro_13.jpg"" style=""width:8cm; height:5.08cm;""><p>What type of rock is this?</p>","0","class_response","1","train","6","Andesite","Gabbro","13","false","1","4","",""
"","","","","","","","","","","","html-button-response","116","2.0.0","85041","5f16f559325a640008bb9a07","1","35","347","","","","","","","","","<img src= rock_img/I_Gabbro_13.jpg style=""width:8cm; height:5.08cm;""><p style='font-size: 30px; color: red;'><strong>Incorrect!</strong></p><p style='font-size: 30px;'><strong>This rock is gabbro</strong></p>","0","corr_feedback","1","train","6","","","","","","","",""
"","","","","","","","","","","","html-button-response","117","2.0.0","85438","5f16f559325a640008bb9a07","1","35","395","","","","","","","","","<img src= ""rock_img/I_Basalt_06.jpg"" style=""width:8cm; height:7.06cm;""><p>What type of rock is this?</p>","1","class_response","1","train","7","Basalt","Basalt","06","true","2","2","",""
"","","","","","","","","","","","html-button-response","118","2.0.0","85804","5f16f559325a640008bb9a07","1","35","364","","","","","","","","","<img src= rock_img/I_Basalt_06.jpg style=""width:8cm; height:7.06cm;""><p style='font-size: 30px; color: green;'><strong>Correct!</strong></p><p style='font-size: 30px;'><strong>This rock is basalt</strong></p>","0","corr_feedback","1","train","7","","","","","","","",""
"","","","","","","","","","","","html-button-response","119","2.0.0","86249","5f16f559325a640008bb9a07","1","35","443","","","","","","","","","<img src= ""rock_img/I_Andesite_09.jpg"" style=""width:8cm; height:6cm;""><p>What type of rock is this?</p>","3","class_response","1","train","8","Gabbro","Andesite","09","false","4","1","",""
"","","","","","","","","","","","html-button-response","120","2.0.0","86678","5f16f559325a640008bb9a07","1","35","428","","","","","","","","","<img src= rock_img/I_Andesite_09.jpg style=""width:8cm; height:6cm;""><p style='font-size: 30px; color: red;'><strong>Incorrect!</strong></p><p style='font-size: 30px;'><strong>This rock is andesite</strong></p>","0","corr_feedback","1","train","8","","","","","","","",""
"","","","","","","","","","","","html-button-response","121","2.0.0","87023","5f16f559325a640008bb9a07","1","35","343","","","","","","","","","<img src= ""rock_img/I_Basalt_08.jpg"" style=""width:8cm; height:10.44cm;""><p>What type of rock is this?</p>","3","class_response","1","train","9","Gabbro","Basalt","08","false","4","2","",""
"","","","","","","","","","","","html-button-response","122","2.0.0","87522","5f16f559325a640008bb9a07","1","35","497","","","","","","","","","<img src= rock_img/I_Basalt_08.jpg style=""width:8cm; height:10.44cm;""><p style='font-size: 30px; color: red;'><strong>Incorrect!</strong></p><p style='font-size: 30px;'><strong>This rock is basalt</strong></p>","0","corr_feedback","1","train","9","","","","","","","",""
"","","","","","","","","","","","html-button-response","123","2.0.0","87899","5f16f559325a640008bb9a07","1","35","375","","","","","","","","","<img src= ""rock_img/I_Pumice_02.jpg"" style=""width:8cm; height:7.3999999999999995cm;""><p>What type of rock is this?</p>","7","class_response","1","train","10","Pumice","Pumice","02","true","8","8","",""
"","","","","","","","","","","","html-button-response","124","2.0.0","88287","5f16f559325a640008bb9a07","1","35","387","","","","","","","","","<img src= rock_img/I_Pumice_02.jpg style=""width:8cm; height:7.3999999999999995cm;""><p style='font-size: 30px; color: green;'><strong>Correct!</strong></p><p style='font-size: 30px;'><strong>This rock is pumice</strong></p>","0","corr_feedback","1","train","10","","","","","","","",""
"","","","","","","","","","","","html-button-response","125","2.0.0","88694","5f16f559325a640008bb9a07","1","35","405","","","","","","","","","<img src= ""rock_img/I_Peridotite_14.jpg"" style=""width:8cm; height:5.3cm;""><p>What type of rock is this?</p>","2","class_response","1","train","11","Diorite","Peridotite","14","false","3","7","",""
"","","","","","","","","","","","html-button-response","126","2.0.0","89100","5f16f559325a640008bb9a07","1","35","405","","","","","","","","","<img src= rock_img/I_Peridotite_14.jpg style=""width:8cm; height:5.3cm;""><p style='font-size: 30px; color: red;'><strong>Incorrect!</strong></p><p style='font-size: 30px;'><strong>This rock is peridotite</strong></p>","0","corr_feedback","1","train","11","","","","","","","",""
"","","","","","","","","","","","html-button-response","127","2.0.0","89440","5f16f559325a640008bb9a07","1","35","338","","","","","","","","","<img src= ""rock_img/I_Pumice_10.jpg"" style=""width:8cm; height:7.609999999999999cm;""><p>What type of rock is this?</p>","2","class_response","1","train","12","Diorite","Pumice","10","false","3","8","",""
"","","","","","","","","","","","html-button-response","128","2.0.0","89816","5f16f559325a640008bb9a07","1","35","374","","","","","","","","","<img src= rock_img/I_Pumice_10.jpg style=""width:8cm; height:7.609999999999999cm;""><p style='font-size: 30px; color: red;'><strong>Incorrect!</strong></p><p style='font-size: 30px;'><strong>This rock is pumice</strong></p>","0","corr_feedback","1","train","12","","","","","","","",""
"","","","","","","","","","","","html-button-response","129","2.0.0","90146","5f16f559325a640008bb9a07","1","35","328","","","","","","","","","<img src= ""rock_img/I_Pegmatite_05.jpg"" style=""width:8cm; height:7.300000000000001cm;""><p>What type of rock is this?</p>","1","class_response","1","train","13","Basalt","Pegmatite","05","false","2","6","",""
"","","","","","","","","","","","html-button-response","130","2.0.0","90491","5f16f559325a640008bb9a07","1","35","344","","","","","","","","","<img src= rock_img/I_Pegmatite_05.jpg style=""width:8cm; height:7.300000000000001cm;""><p style='font-size: 30px; color: red;'><strong>Incorrect!</strong></p><p style='font-size: 30px;'><strong>This rock is pegmatite</strong></p>","0","corr_feedback","1","train","13","","","","","","","",""
"","","","","","","","","","","","html-button-response","131","2.0.0","90867","5f16f559325a640008bb9a07","1","35","373","","","","","","","","","<img src= ""rock_img/I_Pumice_08.jpg"" style=""width:8cm; height:6.67cm;""><p>What type of rock is this?</p>","5","class_response","1","train","14","Pegmatite","Pumice","08","false","6","8","",""
"","","","","","","","","","","","html-button-response","132","2.0.0","91167","5f16f559325a640008bb9a07","1","35","298","","","","","","","","","<img src= rock_img/I_Pumice_08.jpg style=""width:8cm; height:6.67cm;""><p style='font-size: 30px; color: red;'><strong>Incorrect!</strong></p><p style='font-size: 30px;'><strong>This rock is pumice</strong></p>","0","corr_feedback","1","train","14","","","","","","","",""
"","","","","","","","","","","","html-button-response","133","2.0.0","91585","5f16f559325a640008bb9a07","1","35","417","","","","","","","","","<img src= ""rock_img/I_Pegmatite_03.jpg"" style=""width:8cm; height:5.239999999999999cm;""><p>What type of rock is this?</p>","4","class_response","1","train","15","Obsidian","Pegmatite","03","false","5","6","",""
"","","","","","","","","","","","html-button-response","134","2.0.0","92556","5f16f559325a640008bb9a07","1","35","969","","","","","","","","","<img src= rock_img/I_Pegmatite_03.jpg style=""width:8cm; height:5.239999999999999cm;""><p style='font-size: 30px; color: red;'><strong>Incorrect!</strong></p><p style='font-size: 30px;'><strong>This rock is pegmatite</strong></p>","0","corr_feedback","1","train","15","","","","","","","",""
"","","","","","","","","","","","html-button-response","135","2.0.0","92934","5f16f559325a640008bb9a07","1","35","377","","","","","","","","","<img src= ""rock_img/I_Pumice_03.jpg"" style=""width:8cm; height:6.64cm;""><p>What type of rock is this?</p>","0","class_response","1","train","16","Andesite","Pumice","03","false","1","8","",""
"","","","","","","","","","","","html-button-response","136","2.0.0","93341","5f16f559325a640008bb9a07","1","35","404","","","","","","","","","<img src= rock_img/I_Pumice_03.jpg style=""width:8cm; height:6.64cm;""><p style='font-size: 30px; color: red;'><strong>Incorrect!</strong></p><p style='font-size: 30px;'><strong>This rock is pumice</strong></p>","0","corr_feedback","1","train","16","","","","","","","",""
"","","","","","","","","","","","html-button-response","137","2.0.0","94114","5f16f559325a640008bb9a07","1","35","771","","","","","","","","","<img src= ""rock_img/I_Basalt_05.jpg"" style=""width:8cm; height:8.18cm;""><p>What type of rock is this?</p>","0","class_response","1","train","17","Andesite","Basalt","05","false","1","2","",""
"","","","","","","","","","","","html-button-response","138","2.0.0","94470","5f16f559325a640008bb9a07","1","35","355","","","","","","","","","<img src= rock_img/I_Basalt_05.jpg style=""width:8cm; height:8.18cm;""><p style='font-size: 30px; color: red;'><strong>Incorrect!</strong></p><p style='font-size: 30px;'><strong>This rock is basalt</strong></p>","0","corr_feedback","1","train","17","","","","","","","",""
"","","","","","","","","","","","html-button-response","139","2.0.0","94802","5f16f559325a640008bb9a07","1","35","330","","","","","","","","","<img src= ""rock_img/I_Basalt_14.jpg"" style=""width:8cm; height:5.82cm;""><p>What type of rock is this?</p>","1","class_response","1","train","18","Basalt","Basalt","14","true","2","2","",""
"","","","","","","","","","","","html-button-response","140","2.0.0","95496","5f16f559325a640008bb9a07","1","35","693","","","","","","","","","<img src= rock_img/I_Basalt_14.jpg style=""width:8cm; height:5.82cm;""><p style='font-size: 30px; color: green;'><strong>Correct!</strong></p><p style='font-size: 30px;'><strong>This rock is basalt</strong></p>","0","corr_feedback","1","train","18","","","","","","","",""
"","","","","","","","","","","","html-button-response","141","2.0.0","95963","5f16f559325a640008bb9a07","1","35","465","","","","","","","","","<img src= ""rock_img/I_Diorite_08.jpg"" style=""width:8cm; height:6.37cm;""><p>What type of rock is this?</p>","2","class_response","1","train","19","Diorite","Diorite","08","true","3","3","",""
"","","","","","","","","","","","html-button-response","142","2.0.0","96400","5f16f559325a640008bb9a07","1","35","436","","","","","","","","","<img src= rock_img/I_Diorite_08.jpg style=""width:8cm; height:6.37cm;""><p style='font-size: 30px; color: green;'><strong>Correct!</strong></p><p style='font-size: 30px;'><strong>This rock is diorite</strong></p>","0","corr_feedback","1","train","19","","","","","","","",""
"","","","","","","","","","","","html-button-response","143","2.0.0","96640","5f16f559325a640008bb9a07","1","35","238","","","","","","","","","<img src= ""rock_img/I_Pegmatite_15.jpg"" style=""width:8cm; height:6cm;""><p>What type of rock is this?</p>","2","class_response","1","train","20","Diorite","Pegmatite","15","false","3","6","",""
"","","","","","","","","","","","html-button-response","144","2.0.0","96828","5f16f559325a640008bb9a07","1","35","186","","","","","","","","","<img src= rock_img/I_Pegmatite_15.jpg style=""width:8cm; height:6cm;""><p style='font-size: 30px; color: red;'><strong>Incorrect!</strong></p><p style='font-size: 30px;'><strong>This rock is pegmatite</strong></p>","0","corr_feedback","1","train","20","","","","","","","",""
"","","","","","","","","","","","html-button-response","145","2.0.0","97046","5f16f559325a640008bb9a07","1","35","217","","","","","","","","","<img src= ""rock_img/I_Gabbro_09.jpg"" style=""width:8cm; height:7.279999999999999cm;""><p>What type of rock is this?</p>","3","class_response","1","train","21","Gabbro","Gabbro","09","true","4","4","",""
"","","","","","","","","","","","html-button-response","146","2.0.0","97211","5f16f559325a640008bb9a07","1","35","163","","","","","","","","","<img src= rock_img/I_Gabbro_09.jpg style=""width:8cm; height:7.279999999999999cm;""><p style='font-size: 30px; color: green;'><strong>Correct!</strong></p><p style='font-size: 30px;'><strong>This rock is gabbro</strong></p>","0","corr_feedback","1","train","21","","","","","","","",""
"","","","","","","","","","","","html-button-response","147","2.0.0","97432","5f16f559325a640008bb9a07","1","35","219","","","","","","","","","<img src= ""rock_img/I_Obsidian_12.jpg"" style=""width:8cm; height:6.53cm;""><p>What type of rock is this?</p>","3","class_response","1","train","22","Gabbro","Obsidian","12","false","4","5","",""
"","","","","","","","","","","","html-button-response","148","2.0.0","97580","5f16f559325a640008bb9a07","1","35","147","","","","","","","","","<img src= rock_img/I_Obsidian_12.jpg style=""width:8cm; height:6.53cm;""><p style='font-size: 30px; color: red;'><strong>Incorrect!</strong></p><p style='font-size: 30px;'><strong>This rock is obsidian</strong></p>","0","corr_feedback","1","train","22","","","","","","","",""
"","","","","","","","","","","","html-button-response","149","2.0.0","97770","5f16f559325a640008bb9a07","1","35","187","","","","","","","","","<img src= ""rock_img/I_Obsidian_08.jpg"" style=""width:8cm; height:7.39cm;""><p>What type of rock is this?</p>","7","class_response","1","train","23","Pumice","Obsidian","08","false","8","5","",""
"","","","","","","","","","","","html-button-response","150","2.0.0","97919","5f16f559325a640008bb9a07","1","35","147","","","","","","","","","<img src= rock_img/I_Obsidian_08.jpg style=""width:8cm; height:7.39cm;""><p style='font-size: 30px; color: red;'><strong>Incorrect!</strong></p><p style='font-size: 30px;'><strong>This rock is obsidian</strong></p>","0","corr_feedback","1","train","23","","","","","","","",""
"","","","","","","","","","","","html-button-response","151","2.0.0","98096","5f16f559325a640008bb9a07","1","35","176","","","","","","","","","<img src= ""rock_img/I_Andesite_07.jpg"" style=""width:8cm; height:5.93cm;""><p>What type of rock is this?</p>","7","class_response","1","train","24","Pumice","Andesite","07","false","8","1","",""
"","","","","","","","","","","","html-button-response","152","2.0.0","98573","5f16f559325a640008bb9a07","1","35","475","","","","","","","","","<img src= rock_img/I_Andesite_07.jpg style=""width:8cm; height:5.93cm;""><p style='font-size: 30px; color: red;'><strong>Incorrect!</strong></p><p style='font-size: 30px;'><strong>This rock is andesite</strong></p>","0","corr_feedback","1","train","24","","","","","","","",""
"","","","","","","","","","","","html-button-response","153","2.0.0","98753","5f16f559325a640008bb9a07","1","35","179","","","","","","","","","<img src= ""rock_img/I_Andesite_10.jpg"" style=""width:8cm; height:4.16cm;""><p>What type of rock is this?</p>","7","class_response","1","train","25","Pumice","Andesite","10","false","8","1","",""
"","","","","","","","","","","","html-button-response","154","2.0.0","98903","5f16f559325a640008bb9a07","1","35","148","","","","","","","","","<img src= rock_img/I_Andesite_10.jpg style=""width:8cm; height:4.16cm;""><p style='font-size: 30px; color: red;'><strong>Incorrect!</strong></p><p style='font-size: 30px;'><strong>This rock is andesite</strong></p>","0","corr_feedback","1","train","25","","","","","","","",""
"","","","","","","","","","","","html-button-response","155","2.0.0","99357","5f16f559325a640008bb9a07","1","35","453","","","","","","","","","<img src= ""rock_img/I_Gabbro_14.jpg"" style=""width:8cm; height:8.48cm;""><p>What type of rock is this?</p>","2","class_response","1","train","26","Diorite","Gabbro","14","false","3","4","",""
"","","","","","","","","","","","html-button-response","156","2.0.0","99647","5f16f559325a640008bb9a07","1","35","288","","","","","","","","","<img src= rock_img/I_Gabbro_14.jpg style=""width:8cm; height:8.48cm;""><p style='font-size: 30px; color: red;'><strong>Incorrect!</strong></p><p style='font-size: 30px;'><strong>This rock is gabbro</strong></p>","0","corr_feedback","1","train","26","","","","","","","",""
"","","","","","","","","","","","html-button-response","157","2.0.0","99785","5f16f559325a640008bb9a07","1","35","137","","","","","","","","","<img src= ""rock_img/I_Basalt_11.jpg"" style=""width:8cm; height:5.359999999999999cm;""><p>What type of rock is this?</p>","4","class_response","1","train","27","Obsidian","Basalt","11","false","5","2","",""
"","","","","","","","","","","","html-button-response","158","2.0.0","100203","5f16f559325a640008bb9a07","1","35","416","","","","","","","","","<img src= rock_img/I_Basalt_11.jpg style=""width:8cm; height:5.359999999999999cm;""><p style='font-size: 30px; color: red;'><strong>Incorrect!</strong></p><p style='font-size: 30px;'><strong>This rock is basalt</strong></p>","0","corr_feedback","1","train","27","","","","","","","",""
"","","","","","","","","","","","html-button-response","159","2.0.0","100362","5f16f559325a640008bb9a07","1","35","158","","","","","","","","","<img src= ""rock_img/I_Diorite_07.jpg"" style=""width:8cm; height:5.239999999999999cm;""><p>What type of rock is this?</p>","1","class_response","1","train","28","Basalt","Diorite","07","false","2","3","",""
"","","","","","","","","","","","html-button-response","160","2.0.0","100481","5f16f559325a640008bb9a07","1","35","117","","","","","","","","","<img src= rock_img/I_Diorite_07.jpg style=""width:8cm; height:5.239999999999999cm;""><p style='font-size: 30px; color: red;'><strong>Incorrect!</strong></p><p style='font-size: 30px;'><strong>This rock is diorite</strong></p>","0","corr_feedback","1","train","28","","","","","","","",""
"","","","","","","","","","","","html-button-response","161","2.0.0","100629","5f16f559325a640008bb9a07","1","35","146","","","","","","","","","<img src= ""rock_img/I_Obsidian_05.jpg"" style=""width:8cm; height:6.33cm;""><p>What type of rock is this?</p>","1","class_response","1","train","29","Basalt","Obsidian","05","false","2","5","",""
"","","","","","","","","","","","html-button-response","162","2.0.0","101402","5f16f559325a640008bb9a07","1","35","771","","","","","","","","","<img src= rock_img/I_Obsidian_05.jpg style=""width:8cm; height:6.33cm;""><p style='font-size: 30px; color: red;'><strong>Incorrect!</strong></p><p style='font-size: 30px;'><strong>This rock is obsidian</strong></p>","0","corr_feedback","1","train","29","","","","","","","",""
"","","","","","","","","","","","html-button-response","163","2.0.0","101584","5f16f559325a640008bb9a07","1","35","181","","","","","","","","","<img src= ""rock_img/I_Andesite_06.jpg"" style=""width:8cm; height:6.840000000000001cm;""><p>What type of rock is this?</p>","3","class_response","1","train","30","Gabbro","Andesite","06","false","4","1","",""
"","","","","","","","","","","","html-button-response","164","2.0.0","101691","5f16f559325a640008bb9a07","1","35","106","","","","","","","","","<img src= rock_img/I_Andesite_06.jpg style=""width:8cm; height:6.840000000000001cm;""><p style='font-size: 30px; color: red;'><strong>Incorrect!</strong></p><p style='font-size: 30px;'><strong>This rock is andesite</strong></p>","0","corr_feedback","1","train","30","","","","","","","",""
"","","","","","","","","","","","html-button-response","165","2.0.0","101840","5f16f559325a640008bb9a07","1","35","147","","","","","","","","","<img src= ""rock_img/I_Peridotite_05.jpg"" style=""width:8cm; height:7.1499999999999995cm;""><p>What type of rock is this?</p>","3","class_response","1","train","31","Gabbro","Peridotite","05","false","4","7","",""
"","","","","","","","","","","","html-button-response","166","2.0.0","101968","5f16f559325a640008bb9a07","1","35","127","","","","","","","","","<img src= rock_img/I_Peridotite_05.jpg style=""width:8cm; height:7.1499999999999995cm;""><p style='font-size: 30px; color: red;'><strong>Incorrect!</strong></p><p style='font-size: 30px;'><strong>This rock is peridotite</strong></p>","0","corr_feedback","1","train","31","","","","","","","",""
"","","","","","","","","","","","html-button-response","167","2.0.0","102108","5f16f559325a640008bb9a07","1","35","139","","","","","","","","","<img src= ""rock_img/I_Andesite_01.jpg"" style=""width:8cm; height:5.87cm;""><p>What type of rock is this?</p>","2","class_response","1","train","32","Diorite","Andesite","01","false","3","1","",""
"","","","","","","","","","","","html-button-response","168","2.0.0","102219","5f16f559325a640008bb9a07","1","35","110","","","","","","","","","<img src= rock_img/I_Andesite_01.jpg style=""width:8cm; height:5.87cm;""><p style='font-size: 30px; color: red;'><strong>Incorrect!</strong></p><p style='font-size: 30px;'><strong>This rock is andesite</strong></p>","0","corr_feedback","1","train","32","","","","","","","",""
"","","","","","","","","","","","html-button-response","169","2.0.0","102376","5f16f559325a640008bb9a07","1","35","156","","","","","","","","","<img src= ""rock_img/I_Obsidian_11.jpg"" style=""width:8cm; height:6.05cm;""><p>What type of rock is this?</p>","2","class_response","1","train","33","Diorite","Obsidian","11","false","3","5","",""
"","","","","","","","","","","","html-button-response","170","2.0.0","102486","5f16f559325a640008bb9a07","1","35","108","","","","","","","","","<img src= rock_img/I_Obsidian_11.jpg style=""width:8cm; height:6.05cm;""><p style='font-size: 30px; color: red;'><strong>Incorrect!</strong></p><p style='font-size: 30px;'><strong>This rock is obsidian</strong></p>","0","corr_feedback","1","train","33","","","","","","","",""
"","","","","","","","","","","","html-button-response","171","2.0.0","102626","5f16f559325a640008bb9a07","1","35","139","","","","","","","","","<img src= ""rock_img/I_Pumice_06.jpg"" style=""width:8cm; height:6.9399999999999995cm;""><p>What type of rock is this?</p>","1","class_response","1","train","34","Basalt","Pumice","06","false","2","8","",""
"","","","","","","","","","","","html-button-response","172","2.0.0","102773","5f16f559325a640008bb9a07","1","35","146","","","","","","","","","<img src= rock_img/I_Pumice_06.jpg style=""width:8cm; height:6.9399999999999995cm;""><p style='font-size: 30px; color: red;'><strong>Incorrect!</strong></p><p style='font-size: 30px;'><strong>This rock is pumice</strong></p>","0","corr_feedback","1","train","34","","","","","","","",""
"","","","","","","","","","","","html-button-response","173","2.0.0","102935","5f16f559325a640008bb9a07","1","35","160","","","","","","","","","<img src= ""rock_img/I_Peridotite_10.jpg"" style=""width:8cm; height:5.390000000000001cm;""><p>What type of rock is this?</p>","1","class_response","1","train","35","Basalt","Peridotite","10","false","2","7","",""
"","","","","","","","","","","","html-button-response","174","2.0.0","103042","5f16f559325a640008bb9a07","1","35","106","","","","","","","","","<img src= rock_img/I_Peridotite_10.jpg style=""width:8cm; height:5.390000000000001cm;""><p style='font-size: 30px; color: red;'><strong>Incorrect!</strong></p><p style='font-size: 30px;'><strong>This rock is peridotite</strong></p>","0","corr_feedback","1","train","35","","","","","","","",""
"","","","","","","","","","","","html-button-response","175","2.0.0","103199","5f16f559325a640008bb9a07","1","35","155","","","","","","","","","<img src= ""rock_img/I_Andesite_05.jpg"" style=""width:8cm; height:4.12cm;""><p>What type of rock is this?</p>","0","class_response","1","train","36","Andesite","Andesite","05","true","1","1","",""
"","","","","","","","","","","","html-button-response","176","2.0.0","103560","5f16f559325a640008bb9a07","1","35","359","","","","","","","","","<img src= rock_img/I_Andesite_05.jpg style=""width:8cm; height:4.12cm;""><p style='font-size: 30px; color: green;'><strong>Correct!</strong></p><p style='font-size: 30px;'><strong>This rock is andesite</strong></p>","0","corr_feedback","1","train","36","","","","","","","",""
"","","","","","","","","","","","html-button-response","177","2.0.0","103779","5f16f559325a640008bb9a07","1","35","217","","","","","","","","","<img src= ""rock_img/I_Gabbro_08.jpg"" style=""width:8cm; height:5.15cm;""><p>What type of rock is this?</p>","0","class_response","1","train","37","Andesite","Gabbro","08","false","1","4","",""
"","","","","","","","","","","","html-button-response","178","2.0.0","103876","5f16f559325a640008bb9a07","1","35","96","","","","","","","","","<img src= rock_img/I_Gabbro_08.jpg style=""width:8cm; height:5.15cm;""><p style='font-size: 30px; color: red;'><strong>Incorrect!</strong></p><p style='font-size: 30px;'><strong>This rock is gabbro</strong></p>","0","corr_feedback","1","train","37","","","","","","","",""
"","","","","","","","","","","","html-button-response","179","2.0.0","104036","5f16f559325a640008bb9a07","1","35","159","","","","","","","","","<img src= ""rock_img/I_Pegmatite_10.jpg"" style=""width:8cm; height:4.16cm;""><p>What type of rock is this?</p>","4","class_response","1","train","38","Obsidian","Pegmatite","10","false","5","6","",""
"","","","","","","","","","","","html-button-response","180","2.0.0","104146","5f16f559325a640008bb9a07","1","35","109","","","","","","","","","<img src= rock_img/I_Pegmatite_10.jpg style=""width:8cm; height:4.16cm;""><p style='font-size: 30px; color: red;'><strong>Incorrect!</strong></p><p style='font-size: 30px;'><strong>This rock is pegmatite</strong></p>","0","corr_feedback","1","train","38","","","","","","","",""
"","","","","","","","","","","","html-button-response","181","2.0.0","104332","5f16f559325a640008bb9a07","1","35","184","","","","","","","","","<img src= ""rock_img/I_Peridotite_15.jpg"" style=""width:8cm; height:6cm;""><p>What type of rock is this?</p>","0","class_response","1","train","39","Andesite","Peridotite","15","false","1","7","",""
"","","","","","","","","","","","html-button-response","182","2.0.0","104412","5f16f559325a640008bb9a07","1","35","78","","","","","","","","","<img src= rock_img/I_Peridotite_15.jpg style=""width:8cm; height:6cm;""><p style='font-size: 30px; color: red;'><strong>Incorrect!</strong></p><p style='font-size: 30px;'><strong>This rock is peridotite</strong></p>","0","corr_feedback","1","train","39","","","","","","","",""
"","","","","","","","","","","","html-button-response","183","2.0.0","104620","5f16f559325a640008bb9a07","1","35","206","","","","","","","","","<img src= ""rock_img/I_Gabbro_12.jpg"" style=""width:8cm; height:7.800000000000001cm;""><p>What type of rock is this?</p>","0","class_response","1","train","40","Andesite","Gabbro","12","false","1","4","",""
"","","","","","","","","","","","html-button-response","184","2.0.0","104712","5f16f559325a640008bb9a07","1","35","90","","","","","","","","","<img src= rock_img/I_Gabbro_12.jpg style=""width:8cm; height:7.800000000000001cm;""><p style='font-size: 30px; color: red;'><strong>Incorrect!</strong></p><p style='font-size: 30px;'><strong>This rock is gabbro</strong></p>","0","corr_feedback","1","train","40","","","","","","","",""
"","","","","","","","","","","","html-button-response","185","2.0.0","104898","5f16f559325a640008bb9a07","1","35","185","","","","","","","","","<img src= ""rock_img/I_Diorite_10.jpg"" style=""width:8cm; height:5.949999999999999cm;""><p>What type of rock is this?</p>","5","class_response","1","train","41","Pegmatite","Diorite","10","false","6","3","",""
"","","","","","","","","","","","html-button-response","186","2.0.0","104989","5f16f559325a640008bb9a07","1","35","90","","","","","","","","","<img src= rock_img/I_Diorite_10.jpg style=""width:8cm; height:5.949999999999999cm;""><p style='font-size: 30px; color: red;'><strong>Incorrect!</strong></p><p style='font-size: 30px;'><strong>This rock is diorite</strong></p>","0","corr_feedback","1","train","41","","","","","","","",""
"","","","","","","","","","","","html-button-response","187","2.0.0","105177","5f16f559325a640008bb9a07","1","35","187","","","","","","","","","<img src= ""rock_img/I_Diorite_13.jpg"" style=""width:8cm; height:6.29cm;""><p>What type of rock is this?</p>","1","class_response","1","train","42","Basalt","Diorite","13","false","2","3","",""
"","","","","","","","","","","","html-button-response","188","2.0.0","105268","5f16f559325a640008bb9a07","1","35","89","","","","","","","","","<img src= rock_img/I_Diorite_13.jpg style=""width:8cm; height:6.29cm;""><p style='font-size: 30px; color: red;'><strong>Incorrect!</strong></p><p style='font-size: 30px;'><strong>This rock is diorite</strong></p>","0","corr_feedback","1","train","42","","","","","","","",""
"","","","","","","","","","","","html-button-response","189","2.0.0","105479","5f16f559325a640008bb9a07","1","35","209","","","","","","","","","<img src= ""rock_img/I_Peridotite_07.jpg"" style=""width:8cm; height:4.83cm;""><p>What type of rock is this?</p>","5","class_response","1","train","43","Pegmatite","Peridotite","07","false","6","7","",""
"","","","","","","","","","","","html-button-response","190","2.0.0","105526","5f16f559325a640008bb9a07","1","35","45","","","","","","","","","<img src= rock_img/I_Peridotite_07.jpg style=""width:8cm; height:4.83cm;""><p style='font-size: 30px; color: red;'><strong>Incorrect!</strong></p><p style='font-size: 30px;'><strong>This rock is peridotite</strong></p>","0","corr_feedback","1","train","43","","","","","","","",""
"","","","","","","","","","","","html-button-response","191","2.0.0","105751","5f16f559325a640008bb9a07","1","35","224","","","","","","","","","<img src= ""rock_img/I_Gabbro_05.jpg"" style=""width:8cm; height:6cm;""><p>What type of rock is this?</p>","2","class_response","1","train","44","Diorite","Gabbro","05","false","3","4","",""
"","","","","","","","","","","","html-button-response","192","2.0.0","105795","5f16f559325a640008bb9a07","1","35","42","","","","","","","","","<img src= rock_img/I_Gabbro_05.jpg style=""width:8cm; height:6cm;""><p style='font-size: 30px; color: red;'><strong>Incorrect!</strong></p><p style='font-size: 30px;'><strong>This rock is gabbro</strong></p>","0","corr_feedback","1","train","44","","","","","","","",""
"","","","","","","","","","","","html-button-response","193","2.0.0","105983","5f16f559325a640008bb9a07","1","35","186","","","","","","","","","<img src= ""rock_img/I_Diorite_06.jpg"" style=""width:8cm; height:6.03cm;""><p>What type of rock is this?</p>","2","class_response","1","train","45","Diorite","Diorite","06","true","3","3","",""
"","","","","","","","","","","","html-button-response","194","2.0.0","106092","5f16f559325a640008bb9a07","1","35","108","","","","","","","","","<img src= rock_img/I_Diorite_06.jpg style=""width:8cm; height:6.03cm;""><p style='font-size: 30px; color: green;'><strong>Correct!</strong></p><p style='font-size: 30px;'><strong>This rock is diorite</strong></p>","0","corr_feedback","1","train","45","","","","","","","",""
"","","","","","","","","","","","html-button-response","195","2.0.0","106260","5f16f559325a640008bb9a07","1","35","165","","","","","","","","","<img src= ""rock_img/I_Peridotite_08.jpg"" style=""width:8cm; height:6.7cm;""><p>What type of rock is this?</p>","3","class_response","1","train","46","Gabbro","Peridotite","08","false","4","7","",""
"","","","","","","","","","","","html-button-response","196","2.0.0","106368","5f16f559325a640008bb9a07","1","35","106","","","","","","","","","<img src= rock_img/I_Peridotite_08.jpg style=""width:8cm; height:6.7cm;""><p style='font-size: 30px; color: red;'><strong>Incorrect!</strong></p><p style='font-size: 30px;'><strong>This rock is peridotite</strong></p>","0","corr_feedback","1","train","46","","","","","","","",""
"","","","","","","","","","","","html-button-response","197","2.0.0","106516","5f16f559325a640008bb9a07","1","35","147","","","","","","","","","<img src= ""rock_img/I_Pumice_16.jpg"" style=""width:8cm; height:6.79cm;""><p>What type of rock is this?</p>","3","class_response","1","train","47","Gabbro","Pumice","16","false","4","8","",""
"","","","","","","","","","","","html-button-response","198","2.0.0","106646","5f16f559325a640008bb9a07","1","35","128","","","","","","","","","<img src= rock_img/I_Pumice_16.jpg style=""width:8cm; height:6.79cm;""><p style='font-size: 30px; color: red;'><strong>Incorrect!</strong></p><p style='font-size: 30px;'><strong>This rock is pumice</strong></p>","0","corr_feedback","1","train","47","","","","","","","",""
"","","","","","","","","","","","html-button-response","199","2.0.0","106776","5f16f559325a640008bb9a07","1","35","129","","","","","","","","","<img src= ""rock_img/I_Obsidian_07.jpg"" style=""width:8cm; height:4.76cm;""><p>What type of rock is this?</p>","3","class_response","1","train","48","Gabbro","Obsidian","07","false","4","5","",""
"","","","","","","","","","","","html-button-response","200","2.0.0","106893","5f16f559325a640008bb9a07","1","35","116","","","","","","","","","<img src= rock_img/I_Obsidian_07.jpg style=""width:8cm; height:4.76cm;""><p style='font-size: 30px; color: red;'><strong>Incorrect!</strong></p><p style='font-size: 30px;'><strong>This rock is obsidian</strong></p>","0","corr_feedback","1","train","48","","","","","","","",""
"","","","","","","","","","","","instructions","203","2.0.0","109300","5f16f559325a640008bb9a07","1","35","2406","","","","","","","","[{""page_index"":0,""viewing_time"":915},{""page_index"":1,""viewing_time"":1491}]","","","","","","","","","","","","","",""
"","","","","","","","","","","","html-button-response","204","2.0.0","110053","5f16f559325a640008bb9a07","1","35","751","","","","","","","","","","0","start_test","","","","","","","","","","",""
"","","","","","","","","","","","html-button-response","205","2.0.0","111129","5f16f559325a640008bb9a07","1","35","1074","","","","","","","","","<img src= ""rock_img/I_Basalt_04.jpg"" style=""width:8cm; height:7.53cm;""><p>What type of rock is this?</p>","5","class_response","1","test","1","Pegmatite","Basalt","04","false","6","2","",""
"","","","","","","","","","","","html-keyboard-response","206","2.0.0","111637","5f16f559325a640008bb9a07","1","35","null","","","","","","","","","<p style='font-size: 30px;'><strong>Okay</strong></p>","null","neutral_feedback","1","test","1","","","","","","","",""
"","","","","","","","","","","","html-button-response","207","2.0.0","114261","5f16f559325a640008bb9a07","1","35","2623","","","","","","","","","<img src= ""rock_img/I_Peridotite_06.jpg"" style=""width:8cm; height:7.53cm;""><p>What type of rock is this?</p>","5","class_response","1","test","2","Pegmatite","Peridotite","06","false","6","7","",""
"","","","","","","","","","","","html-keyboard-response","208","2.0.0","114765","5f16f559325a640008bb9a07","1","35","null","","","","","","","","","<p style='font-size: 30px;'><strong>Okay</strong></p>","null","neutral_feedback","1","test","2","","","","","","","",""
"","","","","","","","","","","","html-button-response","209","2.0.0","115236","5f16f559325a640008bb9a07","1","35","469","","","","","","","","","<img src= ""rock_img/I_Andesite_04.jpg"" style=""width:8cm; height:5.96cm;""><p>What type of rock is this?</p>","6","class_response","1","test","3","Peridotite","Andesite","04","false","7","1","",""
"","","","","","","","","","","","html-keyboard-response","210","2.0.0","115745","5f16f559325a640008bb9a07","1","35","null","","","","","","","","","<p style='font-size: 30px;'><strong>Okay</strong></p>","null","neutral_feedback","1","test","3","","","","","","","",""
"","","","","","","","","","","","html-button-response","211","2.0.0","116389","5f16f559325a640008bb9a07","1","35","641","","","","","","","","","<img src= ""rock_img/I_Pegmatite_11.jpg"" style=""width:8cm; height:8.14cm;""><p>What type of rock is this?</p>","1","class_response","1","test","4","Basalt","Pegmatite","11","false","2","6","",""
"","","","","","","","","","","","html-keyboard-response","212","2.0.0","116891","5f16f559325a640008bb9a07","1","35","null","","","","","","","","","<p style='font-size: 30px;'><strong>Okay</strong></p>","null","neutral_feedback","1","test","4","","","","","","","",""
"","","","","","","","","","","","html-button-response","213","2.0.0","117043","5f16f559325a640008bb9a07","1","35","150","","","","","","","","","<img src= ""rock_img/I_Peridotite_12.jpg"" style=""width:8cm; height:4.54cm;""><p>What type of rock is this?</p>","7","class_response","1","test","5","Pumice","Peridotite","12","false","8","7","",""
"","","","","","","","","","","","html-keyboard-response","214","2.0.0","117547","5f16f559325a640008bb9a07","1","35","null","","","","","","","","","<p style='font-size: 30px;'><strong>Okay</strong></p>","null","neutral_feedback","1","test","5","","","","","","","",""
"","","","","","","","","","","","html-button-response","215","2.0.0","117820","5f16f559325a640008bb9a07","1","35","271","","","","","","","","","<img src= ""rock_img/I_Gabbro_15.jpg"" style=""width:8cm; height:6.29cm;""><p>What type of rock is this?</p>","4","class_response","1","test","6","Obsidian","Gabbro","15","false","5","4","",""
"","","","","","","","","","","","html-keyboard-response","216","2.0.0","118329","5f16f559325a640008bb9a07","1","35","null","","","","","","","","","<p style='font-size: 30px;'><strong>Okay</strong></p>","null","neutral_feedback","1","test","6","","","","","","","",""
"","","","","","","","","","","","html-button-response","217","2.0.0","118483","5f16f559325a640008bb9a07","1","35","153","","","","","","","","","<img src= ""rock_img/I_Gabbro_11.jpg"" style=""width:8cm; height:6.2cm;""><p>What type of rock is this?</p>","3","class_response","1","test","7","Gabbro","Gabbro","11","true","4","4","",""
"","","","","","","","","","","","html-keyboard-response","218","2.0.0","118996","5f16f559325a640008bb9a07","1","35","null","","","","","","","","","<p style='font-size: 30px;'><strong>Okay</strong></p>","null","neutral_feedback","1","test","7","","","","","","","",""
"","","","","","","","","","","","html-button-response","219","2.0.0","119150","5f16f559325a640008bb9a07","1","35","152","","","","","","","","","<img src= ""rock_img/I_Basalt_02.jpg"" style=""width:8cm; height:6.45cm;""><p>What type of rock is this?</p>","1","class_response","1","test","8","Basalt","Basalt","02","true","2","2","",""
"","","","","","","","","","","","html-keyboard-response","220","2.0.0","119663","5f16f559325a640008bb9a07","1","35","null","","","","","","","","","<p style='font-size: 30px;'><strong>Okay</strong></p>","null","neutral_feedback","1","test","8","","","","","","","",""
"","","","","","","","","","","","html-button-response","221","2.0.0","119794","5f16f559325a640008bb9a07","1","35","129","","","","","","","","","<img src= ""rock_img/I_Pegmatite_09.jpg"" style=""width:8cm; height:4.03cm;""><p>What type of rock is this?</p>","4","class_response","1","test","9","Obsidian","Pegmatite","09","false","5","6","",""
"","","","","","","","","","","","html-keyboard-response","222","2.0.0","120305","5f16f559325a640008bb9a07","1","35","null","","","","","","","","","<p style='font-size: 30px;'><strong>Okay</strong></p>","null","neutral_feedback","1","test","9","","","","","","","",""
"","","","","","","","","","","","html-button-response","223","2.0.0","120362","5f16f559325a640008bb9a07","1","35","54","","","","","","","","","<img src= ""rock_img/I_Basalt_16.jpg"" style=""width:8cm; height:7.659999999999999cm;""><p>What type of rock is this?</p>","5","class_response","1","test","10","Pegmatite","Basalt","16","false","6","2","",""
"","","","","","","","","","","","html-keyboard-response","224","2.0.0","120866","5f16f559325a640008bb9a07","1","35","null","","","","","","","","","<p style='font-size: 30px;'><strong>Okay</strong></p>","null","neutral_feedback","1","test","10","","","","","","","",""
"","","","","","","","","","","","html-button-response","225","2.0.0","121028","5f16f559325a640008bb9a07","1","35","160","","","","","","","","","<img src= ""rock_img/I_Pegmatite_06.jpg"" style=""width:8cm; height:5.17cm;""><p>What type of rock is this?</p>","6","class_response","1","test","11","Peridotite","Pegmatite","06","false","7","6","",""
"","","","","","","","","","","","html-keyboard-response","226","2.0.0","121535","5f16f559325a640008bb9a07","1","35","null","","","","","","","","","<p style='font-size: 30px;'><strong>Okay</strong></p>","null","neutral_feedback","1","test","11","","","","","","","",""
"","","","","","","","","","","","html-button-response","227","2.0.0","121741","5f16f559325a640008bb9a07","1","35","204","","","","","","","","","<img src= ""rock_img/I_Basalt_12.jpg"" style=""width:8cm; height:6.010000000000001cm;""><p>What type of rock is this?</p>","7","class_response","1","test","12","Pumice","Basalt","12","false","8","2","",""
"","","","","","","","","","","","html-keyboard-response","228","2.0.0","122243","5f16f559325a640008bb9a07","1","35","null","","","","","","","","","<p style='font-size: 30px;'><strong>Okay</strong></p>","null","neutral_feedback","1","test","12","","","","","","","",""
"","","","","","","","","","","","html-button-response","229","2.0.0","122434","5f16f559325a640008bb9a07","1","35","188","","","","","","","","","<img src= ""rock_img/I_Diorite_02.jpg"" style=""width:8cm; height:6.27cm;""><p>What type of rock is this?</p>","2","class_response","1","test","13","Diorite","Diorite","02","true","3","3","",""
"","","","","","","","","","","","html-keyboard-response","230","2.0.0","122935","5f16f559325a640008bb9a07","1","35","null","","","","","","","","","<p style='font-size: 30px;'><strong>Okay</strong></p>","null","neutral_feedback","1","test","13","","","","","","","",""
"","","","","","","","","","","","html-button-response","231","2.0.0","123150","5f16f559325a640008bb9a07","1","35","213","","","","","","","","","<img src= ""rock_img/I_Andesite_03.jpg"" style=""width:8cm; height:5.73cm;""><p>What type of rock is this?</p>","1","class_response","1","test","14","Basalt","Andesite","03","false","2","1","",""
"","","","","","","","","","","","html-keyboard-response","232","2.0.0","123654","5f16f559325a640008bb9a07","1","35","null","","","","","","","","","<p style='font-size: 30px;'><strong>Okay</strong></p>","null","neutral_feedback","1","test","14","","","","","","","",""
"","","","","","","","","","","","html-button-response","233","2.0.0","123816","5f16f559325a640008bb9a07","1","35","160","","","","","","","","","<img src= ""rock_img/I_Pumice_14.jpg"" style=""width:8cm; height:6.39cm;""><p>What type of rock is this?</p>","5","class_response","1","test","15","Pegmatite","Pumice","14","false","6","8","",""
"","","","","","","","","","","","html-keyboard-response","234","2.0.0","124320","5f16f559325a640008bb9a07","1","35","null","","","","","","","","","<p style='font-size: 30px;'><strong>Okay</strong></p>","null","neutral_feedback","1","test","15","","","","","","","",""
"","","","","","","","","","","","html-button-response","235","2.0.0","124502","5f16f559325a640008bb9a07","1","35","180","","","","","","","","","<img src= ""rock_img/I_Peridotite_02.jpg"" style=""width:8cm; height:5.859999999999999cm;""><p>What type of rock is this?</p>","0","class_response","1","test","16","Andesite","Peridotite","02","false","1","7","",""
"","","","","","","","","","","","html-keyboard-response","236","2.0.0","125006","5f16f559325a640008bb9a07","1","35","null","","","","","","","","","<p style='font-size: 30px;'><strong>Okay</strong></p>","null","neutral_feedback","1","test","16","","","","","","","",""
"","","","","","","","","","","","html-button-response","237","2.0.0","125097","5f16f559325a640008bb9a07","1","35","89","","","","","","","","","<img src= ""rock_img/I_Andesite_11.jpg"" style=""width:8cm; height:4.92cm;""><p>What type of rock is this?</p>","5","class_response","1","test","17","Pegmatite","Andesite","11","false","6","1","",""
"","","","","","","","","","","","html-keyboard-response","238","2.0.0","125608","5f16f559325a640008bb9a07","1","35","null","","","","","","","","","<p style='font-size: 30px;'><strong>Okay</strong></p>","null","neutral_feedback","1","test","17","","","","","","","",""
"","","","","","","","","","","","html-button-response","239","2.0.0","125755","5f16f559325a640008bb9a07","1","35","145","","","","","","","","","<img src= ""rock_img/I_Gabbro_03.jpg"" style=""width:8cm; height:8.52cm;""><p>What type of rock is this?</p>","2","class_response","1","test","18","Diorite","Gabbro","03","false","3","4","",""
"","","","","","","","","","","","html-keyboard-response","240","2.0.0","126267","5f16f559325a640008bb9a07","1","35","null","","","","","","","","","<p style='font-size: 30px;'><strong>Okay</strong></p>","null","neutral_feedback","1","test","18","","","","","","","",""
"","","","","","","","","","","","html-button-response","241","2.0.0","126419","5f16f559325a640008bb9a07","1","35","151","","","","","","","","","<img src= ""rock_img/I_Pumice_05.jpg"" style=""width:8cm; height:7.25cm;""><p>What type of rock is this?</p>","7","class_response","1","test","19","Pumice","Pumice","05","true","8","8","",""
"","","","","","","","","","","","html-keyboard-response","242","2.0.0","126921","5f16f559325a640008bb9a07","1","35","null","","","","","","","","","<p style='font-size: 30px;'><strong>Okay</strong></p>","null","neutral_feedback","1","test","19","","","","","","","",""
"","","","","","","","","","","","html-button-response","243","2.0.0","127096","5f16f559325a640008bb9a07","1","35","173","","","","","","","","","<img src= ""rock_img/I_Peridotite_16.jpg"" style=""width:8cm; height:6.989999999999999cm;""><p>What type of rock is this?</p>","2","class_response","1","test","20","Diorite","Peridotite","16","false","3","7","",""
"","","","","","","","","","","","html-keyboard-response","244","2.0.0","127604","5f16f559325a640008bb9a07","1","35","null","","","","","","","","","<p style='font-size: 30px;'><strong>Okay</strong></p>","null","neutral_feedback","1","test","20","","","","","","","",""
"","","","","","","","","","","","html-button-response","245","2.0.0","127730","5f16f559325a640008bb9a07","1","35","123","","","","","","","","","<img src= ""rock_img/I_Pegmatite_07.jpg"" style=""width:8cm; height:6.7cm;""><p>What type of rock is this?</p>","5","class_response","1","test","21","Pegmatite","Pegmatite","07","true","6","6","",""
"","","","","","","","","","","","html-keyboard-response","246","2.0.0","128237","5f16f559325a640008bb9a07","1","35","null","","","","","","","","","<p style='font-size: 30px;'><strong>Okay</strong></p>","null","neutral_feedback","1","test","21","","","","","","","",""
"","","","","","","","","","","","html-button-response","247","2.0.0","128393","5f16f559325a640008bb9a07","1","35","154","","","","","","","","","<img src= ""rock_img/I_Gabbro_16.jpg"" style=""width:8cm; height:6.44cm;""><p>What type of rock is this?</p>","1","class_response","1","test","22","Basalt","Gabbro","16","false","2","4","",""
"","","","","","","","","","","","html-keyboard-response","248","2.0.0","128906","5f16f559325a640008bb9a07","1","35","null","","","","","","","","","<p style='font-size: 30px;'><strong>Okay</strong></p>","null","neutral_feedback","1","test","22","","","","","","","",""
"","","","","","","","","","","","html-button-response","249","2.0.0","129031","5f16f559325a640008bb9a07","1","35","124","","","","","","","","","<img src= ""rock_img/I_Obsidian_16.jpg"" style=""width:8cm; height:9.3cm;""><p>What type of rock is this?</p>","1","class_response","1","test","23","Basalt","Obsidian","16","false","2","5","",""
"","","","","","","","","","","","html-keyboard-response","250","2.0.0","129534","5f16f559325a640008bb9a07","1","35","null","","","","","","","","","<p style='font-size: 30px;'><strong>Okay</strong></p>","null","neutral_feedback","1","test","23","","","","","","","",""
"","","","","","","","","","","","html-button-response","251","2.0.0","129654","5f16f559325a640008bb9a07","1","35","117","","","","","","","","","<img src= ""rock_img/I_Diorite_15.jpg"" style=""width:8cm; height:5.54cm;""><p>What type of rock is this?</p>","0","class_response","1","test","24","Andesite","Diorite","15","false","1","3","",""
"","","","","","","","","","","","html-keyboard-response","252","2.0.0","130166","5f16f559325a640008bb9a07","1","35","null","","","","","","","","","<p style='font-size: 30px;'><strong>Okay</strong></p>","null","neutral_feedback","1","test","24","","","","","","","",""
"","","","","","","","","","","","html-button-response","253","2.0.0","130240","5f16f559325a640008bb9a07","1","35","72","","","","","","","","","<img src= ""rock_img/I_Basalt_01.jpg"" style=""width:8cm; height:7.880000000000001cm;""><p>What type of rock is this?</p>","1","class_response","1","test","25","Basalt","Basalt","01","true","2","2","",""
"","","","","","","","","","","","html-keyboard-response","254","2.0.0","130752","5f16f559325a640008bb9a07","1","35","null","","","","","","","","","<p style='font-size: 30px;'><strong>Okay</strong></p>","null","neutral_feedback","1","test","25","","","","","","","",""
"","","","","","","","","","","","html-button-response","255","2.0.0","130869","5f16f559325a640008bb9a07","1","35","114","","","","","","","","","<img src= ""rock_img/I_Obsidian_14.jpg"" style=""width:8cm; height:7.64cm;""><p>What type of rock is this?</p>","2","class_response","1","test","26","Diorite","Obsidian","14","false","3","5","",""
"","","","","","","","","","","","html-keyboard-response","256","2.0.0","131374","5f16f559325a640008bb9a07","1","35","null","","","","","","","","","<p style='font-size: 30px;'><strong>Okay</strong></p>","null","neutral_feedback","1","test","26","","","","","","","",""
"","","","","","","","","","","","html-button-response","257","2.0.0","131521","5f16f559325a640008bb9a07","1","35","144","","","","","","","","","<img src= ""rock_img/I_Diorite_09.jpg"" style=""width:8cm; height:5.27cm;""><p>What type of rock is this?</p>","7","class_response","1","test","27","Pumice","Diorite","09","false","8","3","",""
"","","","","","","","","","","","html-keyboard-response","258","2.0.0","132023","5f16f559325a640008bb9a07","1","35","null","","","","","","","","","<p style='font-size: 30px;'><strong>Okay</strong></p>","null","neutral_feedback","1","test","27","","","","","","","",""
"","","","","","","","","","","","html-button-response","259","2.0.0","132137","5f16f559325a640008bb9a07","1","35","112","","","","","","","","","<img src= ""rock_img/I_Pumice_04.jpg"" style=""width:8cm; height:6.819999999999999cm;""><p>What type of rock is this?</p>","7","class_response","1","test","28","Pumice","Pumice","04","true","8","8","",""
"","","","","","","","","","","","html-keyboard-response","260","2.0.0","132654","5f16f559325a640008bb9a07","1","35","null","","","","","","","","","<p style='font-size: 30px;'><strong>Okay</strong></p>","null","neutral_feedback","1","test","28","","","","","","","",""
"","","","","","","","","","","","html-button-response","261","2.0.0","132824","5f16f559325a640008bb9a07","1","35","168","","","","","","","","","<img src= ""rock_img/I_Pumice_13.jpg"" style=""width:8cm; height:8.200000000000001cm;""><p>What type of rock is this?</p>","2","class_response","1","test","29","Diorite","Pumice","13","false","3","8","",""
"","","","","","","","","","","","html-keyboard-response","262","2.0.0","133341","5f16f559325a640008bb9a07","1","35","null","","","","","","","","","<p style='font-size: 30px;'><strong>Okay</strong></p>","null","neutral_feedback","1","test","29","","","","","","","",""
"","","","","","","","","","","","html-button-response","263","2.0.0","133468","5f16f559325a640008bb9a07","1","35","126","","","","","","","","","<img src= ""rock_img/I_Diorite_12.jpg"" style=""width:8cm; height:4.88cm;""><p>What type of rock is this?</p>","5","class_response","1","test","30","Pegmatite","Diorite","12","false","6","3","",""
"","","","","","","","","","","","html-keyboard-response","264","2.0.0","133974","5f16f559325a640008bb9a07","1","35","null","","","","","","","","","<p style='font-size: 30px;'><strong>Okay</strong></p>","null","neutral_feedback","1","test","30","","","","","","","",""
"","","","","","","","","","","","html-button-response","265","2.0.0","134085","5f16f559325a640008bb9a07","1","35","108","","","","","","","","","<img src= ""rock_img/I_Obsidian_04.jpg"" style=""width:8cm; height:6.930000000000001cm;""><p>What type of rock is this?</p>","0","class_response","1","test","31","Andesite","Obsidian","04","false","1","5","",""
"","","","","","","","","","","","html-keyboard-response","266","2.0.0","134590","5f16f559325a640008bb9a07","1","35","null","","","","","","","","","<p style='font-size: 30px;'><strong>Okay</strong></p>","null","neutral_feedback","1","test","31","","","","","","","",""
"","","","","","","","","","","","html-button-response","267","2.0.0","134719","5f16f559325a640008bb9a07","1","35","127","","","","","","","","","<img src= ""rock_img/I_Peridotite_13.jpg"" style=""width:8cm; height:7.58cm;""><p>What type of rock is this?</p>","1","class_response","1","test","32","Basalt","Peridotite","13","false","2","7","",""
"","","","","","","","","","","","html-keyboard-response","268","2.0.0","135225","5f16f559325a640008bb9a07","1","35","null","","","","","","","","","<p style='font-size: 30px;'><strong>Okay</strong></p>","null","neutral_feedback","1","test","32","","","","","","","",""
"","","","","","","","","","","","html-button-response","269","2.0.0","135345","5f16f559325a640008bb9a07","1","35","118","","","","","","","","","<img src= ""rock_img/I_Andesite_16.jpg"" style=""width:8cm; height:6.010000000000001cm;""><p>What type of rock is this?</p>","3","class_response","1","test","33","Gabbro","Andesite","16","false","4","1","",""
"","","","","","","","","","","","html-keyboard-response","270","2.0.0","135856","5f16f559325a640008bb9a07","1","35","null","","","","","","","","","<p style='font-size: 30px;'><strong>Okay</strong></p>","null","neutral_feedback","1","test","33","","","","","","","",""
"","","","","","","","","","","","html-button-response","271","2.0.0","135981","5f16f559325a640008bb9a07","1","35","123","","","","","","","","","<img src= ""rock_img/I_Gabbro_10.jpg"" style=""width:8cm; height:5.680000000000001cm;""><p>What type of rock is this?</p>","2","class_response","1","test","34","Diorite","Gabbro","10","false","3","4","",""
"","","","","","","","","","","","html-keyboard-response","272","2.0.0","136485","5f16f559325a640008bb9a07","1","35","null","","","","","","","","","<p style='font-size: 30px;'><strong>Okay</strong></p>","null","neutral_feedback","1","test","34","","","","","","","",""
"","","","","","","","","","","","html-button-response","273","2.0.0","136598","5f16f559325a640008bb9a07","1","35","110","","","","","","","","","<img src= ""rock_img/I_Gabbro_01.jpg"" style=""width:8cm; height:5.21cm;""><p>What type of rock is this?</p>","6","class_response","1","test","35","Peridotite","Gabbro","01","false","7","4","",""
"","","","","","","","","","","","html-keyboard-response","274","2.0.0","137104","5f16f559325a640008bb9a07","1","35","null","","","","","","","","","<p style='font-size: 30px;'><strong>Okay</strong></p>","null","neutral_feedback","1","test","35","","","","","","","",""
"","","","","","","","","","","","html-button-response","275","2.0.0","137272","5f16f559325a640008bb9a07","1","35","166","","","","","","","","","<img src= ""rock_img/I_Pegmatite_16.jpg"" style=""width:8cm; height:5.8cm;""><p>What type of rock is this?</p>","3","class_response","1","test","36","Gabbro","Pegmatite","16","false","4","6","",""
"","","","","","","","","","","","html-keyboard-response","276","2.0.0","137776","5f16f559325a640008bb9a07","1","35","null","","","","","","","","","<p style='font-size: 30px;'><strong>Okay</strong></p>","null","neutral_feedback","1","test","36","","","","","","","",""
"","","","","","","","","","","","html-button-response","277","2.0.0","137781","5f16f559325a640008bb9a07","1","35","3","","","","","","","","","<img src= ""rock_img/I_Obsidian_09.jpg"" style=""width:8cm; height:5cm;""><p>What type of rock is this?</p>","5","class_response","1","test","37","Pegmatite","Obsidian","09","false","6","5","",""
"","","","","","","","","","","","html-keyboard-response","278","2.0.0","138298","5f16f559325a640008bb9a07","1","35","null","","","","","","","","","<p style='font-size: 30px;'><strong>Okay</strong></p>","null","neutral_feedback","1","test","37","","","","","","","",""
"","","","","","","","","","","","html-button-response","279","2.0.0","138414","5f16f559325a640008bb9a07","1","35","114","","","","","","","","","<img src= ""rock_img/I_Obsidian_02.jpg"" style=""width:8cm; height:7.51cm;""><p>What type of rock is this?</p>","5","class_response","1","test","38","Pegmatite","Obsidian","02","false","6","5","",""
"","","","","","","","","","","","html-keyboard-response","280","2.0.0","138915","5f16f559325a640008bb9a07","1","35","null","","","","","","","","","<p style='font-size: 30px;'><strong>Okay</strong></p>","null","neutral_feedback","1","test","38","","","","","","","",""
"","","","","","","","","","","","html-button-response","281","2.0.0","138969","5f16f559325a640008bb9a07","1","35","52","","","","","","","","","<img src= ""rock_img/I_Pumice_09.jpg"" style=""width:8cm; height:6.44cm;""><p>What type of rock is this?</p>","1","class_response","1","test","39","Basalt","Pumice","09","false","2","8","",""
"","","","","","","","","","","","html-keyboard-response","282","2.0.0","139483","5f16f559325a640008bb9a07","1","35","null","","","","","","","","","<p style='font-size: 30px;'><strong>Okay</strong></p>","null","neutral_feedback","1","test","39","","","","","","","",""
"","","","","","","","","","","","html-button-response","283","2.0.0","139634","5f16f559325a640008bb9a07","1","35","149","","","","","","","","","<img src= ""rock_img/I_Pegmatite_13.jpg"" style=""width:8cm; height:4.95cm;""><p>What type of rock is this?</p>","6","class_response","1","test","40","Peridotite","Pegmatite","13","false","7","6","",""
"","","","","","","","","","","","html-keyboard-response","284","2.0.0","140181","5f16f559325a640008bb9a07","1","35","null","","","","","","","","","<p style='font-size: 30px;'><strong>Okay</strong></p>","null","neutral_feedback","1","test","40","","","","","","","",""
"","","","","","","","","","","","html-button-response","285","2.0.0","140185","5f16f559325a640008bb9a07","1","35","2","","","","","","","","","<img src= ""rock_img/I_Andesite_14.jpg"" style=""width:8cm; height:5.449999999999999cm;""><p>What type of rock is this?</p>","4","class_response","1","test","41","Obsidian","Andesite","14","false","5","1","",""
"","","","","","","","","","","","html-keyboard-response","286","2.0.0","140688","5f16f559325a640008bb9a07","1","35","null","","","","","","","","","<p style='font-size: 30px;'><strong>Okay</strong></p>","null","neutral_feedback","1","test","41","","","","","","","",""
"","","","","","","","","","","","html-button-response","287","2.0.0","140826","5f16f559325a640008bb9a07","1","35","136","","","","","","","","","<img src= ""rock_img/I_Diorite_14.jpg"" style=""width:8cm; height:5.71cm;""><p>What type of rock is this?</p>","4","class_response","1","test","42","Obsidian","Diorite","14","false","5","3","",""
"","","","","","","","","","","","html-keyboard-response","288","2.0.0","141342","5f16f559325a640008bb9a07","1","35","null","","","","","","","","","<p style='font-size: 30px;'><strong>Okay</strong></p>","null","neutral_feedback","1","test","42","","","","","","","",""
"","","","","","","","","","","","html-button-response","289","2.0.0","141519","5f16f559325a640008bb9a07","1","35","174","","","","","","","","","<img src= ""rock_img/I_Diorite_16.jpg"" style=""width:8cm; height:6.74cm;""><p>What type of rock is this?</p>","4","class_response","1","test","43","Obsidian","Diorite","16","false","5","3","",""
"","","","","","","","","","","","html-keyboard-response","290","2.0.0","142020","5f16f559325a640008bb9a07","1","35","null","","","","","","","","","<p style='font-size: 30px;'><strong>Okay</strong></p>","null","neutral_feedback","1","test","43","","","","","","","",""
"","","","","","","","","","","","html-button-response","291","2.0.0","142199","5f16f559325a640008bb9a07","1","35","177","","","","","","","","","<img src= ""rock_img/I_Basalt_09.jpg"" style=""width:8cm; height:6.2cm;""><p>What type of rock is this?</p>","2","class_response","1","test","44","Diorite","Basalt","09","false","3","2","",""
"","","","","","","","","","","","html-keyboard-response","292","2.0.0","142705","5f16f559325a640008bb9a07","1","35","null","","","","","","","","","<p style='font-size: 30px;'><strong>Okay</strong></p>","null","neutral_feedback","1","test","44","","","","","","","",""
"","","","","","","","","","","","html-button-response","293","2.0.0","142912","5f16f559325a640008bb9a07","1","35","205","","","","","","","","","<img src= ""rock_img/I_Andesite_02.jpg"" style=""width:8cm; height:8.5cm;""><p>What type of rock is this?</p>","3","class_response","1","test","45","Gabbro","Andesite","02","false","4","1","",""
"","","","","","","","","","","","html-keyboard-response","294","2.0.0","143420","5f16f559325a640008bb9a07","1","35","null","","","","","","","","","<p style='font-size: 30px;'><strong>Okay</strong></p>","null","neutral_feedback","1","test","45","","","","","","","",""
"","","","","","","","","","","","html-button-response","295","2.0.0","143517","5f16f559325a640008bb9a07","1","35","95","","","","","","","","","<img src= ""rock_img/I_Pumice_15.jpg"" style=""width:8cm; height:7.86cm;""><p>What type of rock is this?</p>","7","class_response","1","test","46","Pumice","Pumice","15","true","8","8","",""
"","","","","","","","","","","","html-keyboard-response","296","2.0.0","144026","5f16f559325a640008bb9a07","1","35","null","","","","","","","","","<p style='font-size: 30px;'><strong>Okay</strong></p>","null","neutral_feedback","1","test","46","","","","","","","",""
"","","","","","","","","","","","html-button-response","297","2.0.0","144124","5f16f559325a640008bb9a07","1","35","96","","","","","","","","","<img src= ""rock_img/I_Peridotite_04.jpg"" style=""width:8cm; height:6.680000000000001cm;""><p>What type of rock is this?</p>","2","class_response","1","test","47","Diorite","Peridotite","04","false","3","7","",""
"","","","","","","","","","","","html-keyboard-response","298","2.0.0","144628","5f16f559325a640008bb9a07","1","35","null","","","","","","","","","<p style='font-size: 30px;'><strong>Okay</strong></p>","null","neutral_feedback","1","test","47","","","","","","","",""
"","","","","","","","","","","","html-button-response","299","2.0.0","144633","5f16f559325a640008bb9a07","1","35","3","","","","","","","","","<img src= ""rock_img/I_Obsidian_10.jpg"" style=""width:8cm; height:6.260000000000001cm;""><p>What type of rock is this?</p>","1","class_response","1","test","48","Basalt","Obsidian","10","false","2","5","",""
"","","","","","","","","","","","html-keyboard-response","300","2.0.0","145152","5f16f559325a640008bb9a07","1","35","null","","","","","","","","","<p style='font-size: 30px;'><strong>Okay</strong></p>","null","neutral_feedback","1","test","48","","","","","","","",""
"","","","","","","","","","","","html-button-response","301","2.0.0","151737","5f16f559325a640008bb9a07","1","35","","","","","","","","","","","","cycle_feedback","","","","","","","","","","3004","3572.2999999970198"
"","","","","","","","","","","","html-button-response","303","2.0.0","152645","5f16f559325a640008bb9a07","1","35","906","","","","","","","","","","0","start_train","","","","","","","","","","",""
"","","","","","","","","","","","html-button-response","304","2.0.0","153287","5f16f559325a640008bb9a07","1","35","641","","","","","","","","","<img src= ""rock_img/I_Pumice_06.jpg"" style=""width:8cm; height:6.9399999999999995cm;""><p>What type of rock is this?</p>","1","class_response","2","train","1","Basalt","Pumice","06","false","2","8","",""
"","","","","","","","","","","","html-button-response","305","2.0.0","153963","5f16f559325a640008bb9a07","1","35","674","","","","","","","","","<img src= rock_img/I_Pumice_06.jpg style=""width:8cm; height:6.9399999999999995cm;""><p style='font-size: 30px; color: red;'><strong>Incorrect!</strong></p><p style='font-size: 30px;'><strong>This rock is pumice</strong></p>","0","corr_feedback","2","train","1","","","","","","","",""
