"width","height","webaudio","browser","browser_version","mobile","os","fullscreen","vsync_rate","webcam","microphone","trial_type","trial_index","plugin_version","time_elapsed","subjID","condition","stimID","rt","url","success","value","timeout","failed_images","failed_audio","failed_video","view_history","stimulus","response","trialType","cycle","phase","trial","resp","cat","token","corr","resp_num","cat_num","time_fb1","time_fb2"
"1366","679","true","chrome","128.0.0","false","Windows 10","true","60.55","false","true","browser-check","0","2.0.0","4398","67131b8bef325ea544a658d0","1","53","","","","","","","","","","","","","","","","","","","","","","",""
"","","","","","","","","","","","external-html","1","2.0.0","179551","67131b8bef325ea544a658d0","1","53","174825","consent_form.html","","","","","","","","","","","","","","","","","","","","",""
"","","","","","","","","","","","fullscreen","2","2.0.0","183854","67131b8bef325ea544a658d0","1","53","3291","","true","","","","","","","","","","","","","","","","","","","",""
"","","","","","","","","","","","call-function","3","2.0.0","183856","67131b8bef325ea544a658d0","1","53","","","","{}","","","","","","","","","","","","","","","","","","",""
"","","","","","","","","","","","preload","4","2.0.0","217043","67131b8bef325ea544a658d0","1","53","","","true","","false","[]","[]","[]","","","","","","","","","","","","","","",""
"","","","","","","","","","","","instructions","5","2.0.0","283549","67131b8bef325ea544a658d0","1","53","66505","","","","","","","","[{""page_index"":0,""viewing_time"":12849},{""page_index"":1,""viewing_time"":31943},{""page_index"":2,""viewing_time"":21712}]","","","","","","","","","","","","","",""
"","","","","","","","","","","","html-button-response","6","2.0.0","286317","67131b8bef325ea544a658d0","1","53","2765","","","","","","","","","","0","start_test","","","","","","","","","","",""
"","","","","","","","","","","","html-button-response","7","2.0.0","293326","67131b8bef325ea544a658d0","1","53","7005","","","","","","","","","<img src= ""rock_img/I_Peridotite_07.jpg"" style=""width:8cm; height:4.83cm;""><p>What type of rock is this?</p>","7","class_response","0","test","1","Pumice","Peridotite","07","false","8","7","",""
"","","","","","","","","","","","html-keyboard-response","8","2.0.0","293843","67131b8bef325ea544a658d0","1","53","null","","","","","","","","","<p style='font-size: 30px;'><strong>Okay</strong></p>","null","neutral_feedback","0","test","1","","","","","","","",""
"","","","","","","","","","","","html-button-response","9","2.0.0","303045","67131b8bef325ea544a658d0","1","53","9199","","","","","","","","","<img src= ""rock_img/I_Pegmatite_11.jpg"" style=""width:8cm; height:8.14cm;""><p>What type of rock is this?</p>","2","class_response","0","test","2","Diorite","Pegmatite","11","false","3","6","",""
"","","","","","","","","","","","html-keyboard-response","10","2.0.0","303552","67131b8bef325ea544a658d0","1","53","null","","","","","","","","","<p style='font-size: 30px;'><strong>Okay</strong></p>","null","neutral_feedback","0","test","2","","","","","","","",""
"","","","","","","","","","","","html-button-response","11","2.0.0","308893","67131b8bef325ea544a658d0","1","53","5338","","","","","","","","","<img src= ""rock_img/I_Andesite_16.jpg"" style=""width:8cm; height:6.010000000000001cm;""><p>What type of rock is this?</p>","7","class_response","0","test","3","Pumice","Andesite","16","false","8","1","",""
"","","","","","","","","","","","html-keyboard-response","12","2.0.0","309407","67131b8bef325ea544a658d0","1","53","null","","","","","","","","","<p style='font-size: 30px;'><strong>Okay</strong></p>","null","neutral_feedback","0","test","3","","","","","","","",""
"","","","","","","","","","","","html-button-response","13","2.0.0","313501","67131b8bef325ea544a658d0","1","53","4091","","","","","","","","","<img src= ""rock_img/I_Gabbro_10.jpg"" style=""width:8cm; height:5.680000000000001cm;""><p>What type of rock is this?</p>","6","class_response","0","test","4","Peridotite","Gabbro","10","false","7","4","",""
"","","","","","","","","","","","html-keyboard-response","14","2.0.0","314005","67131b8bef325ea544a658d0","1","53","null","","","","","","","","","<p style='font-size: 30px;'><strong>Okay</strong></p>","null","neutral_feedback","0","test","4","","","","","","","",""
"","","","","","","","","","","","html-button-response","15","2.0.0","317013","67131b8bef325ea544a658d0","1","53","3005","","","","","","","","","<img src= ""rock_img/I_Diorite_16.jpg"" style=""width:8cm; height:6.74cm;""><p>What type of rock is this?</p>","0","class_response","0","test","5","Andesite","Diorite","16","false","1","3","",""
"","","","","","","","","","","","html-keyboard-response","16","2.0.0","317527","67131b8bef325ea544a658d0","1","53","null","","","","","","","","","<p style='font-size: 30px;'><strong>Okay</strong></p>","null","neutral_feedback","0","test","5","","","","","","","",""
"","","","","","","","","","","","html-button-response","17","2.0.0","326469","67131b8bef325ea544a658d0","1","53","8939","","","","","","","","","<img src= ""rock_img/I_Peridotite_06.jpg"" style=""width:8cm; height:7.53cm;""><p>What type of rock is this?</p>","1","class_response","0","test","6","Basalt","Peridotite","06","false","2","7","",""
"","","","","","","","","","","","html-keyboard-response","18","2.0.0","326983","67131b8bef325ea544a658d0","1","53","null","","","","","","","","","<p style='font-size: 30px;'><strong>Okay</strong></p>","null","neutral_feedback","0","test","6","","","","","","","",""
"","","","","","","","","","","","html-button-response","19","2.0.0","332061","67131b8bef325ea544a658d0","1","53","5075","","","","","","","","","<img src= ""rock_img/I_Obsidian_10.jpg"" style=""width:8cm; height:6.260000000000001cm;""><p>What type of rock is this?</p>","4","class_response","0","test","7","Obsidian","Obsidian","10","true","5","5","",""
"","","","","","","","","","","","html-keyboard-response","20","2.0.0","332564","67131b8bef325ea544a658d0","1","53","null","","","","","","","","","<p style='font-size: 30px;'><strong>Okay</strong></p>","null","neutral_feedback","0","test","7","","","","","","","",""
"","","","","","","","","","","","html-button-response","21","2.0.0","335365","67131b8bef325ea544a658d0","1","53","2798","","","","","","","","","<img src= ""rock_img/I_Basalt_11.jpg"" style=""width:8cm; height:5.359999999999999cm;""><p>What type of rock is this?</p>","7","class_response","0","test","8","Pumice","Basalt","11","false","8","2","",""
"","","","","","","","","","","","html-keyboard-response","22","2.0.0","335872","67131b8bef325ea544a658d0","1","53","null","","","","","","","","","<p style='font-size: 30px;'><strong>Okay</strong></p>","null","neutral_feedback","0","test","8","","","","","","","",""
"","","","","","","","","","","","html-button-response","23","2.0.0","338677","67131b8bef325ea544a658d0","1","53","2802","","","","","","","","","<img src= ""rock_img/I_Basalt_14.jpg"" style=""width:8cm; height:5.82cm;""><p>What type of rock is this?</p>","3","class_response","0","test","9","Gabbro","Basalt","14","false","4","2","",""
"","","","","","","","","","","","html-keyboard-response","24","2.0.0","339189","67131b8bef325ea544a658d0","1","53","null","","","","","","","","","<p style='font-size: 30px;'><strong>Okay</strong></p>","null","neutral_feedback","0","test","9","","","","","","","",""
"","","","","","","","","","","","html-button-response","25","2.0.0","341549","67131b8bef325ea544a658d0","1","53","2357","","","","","","","","","<img src= ""rock_img/I_Diorite_09.jpg"" style=""width:8cm; height:5.27cm;""><p>What type of rock is this?</p>","6","class_response","0","test","10","Peridotite","Diorite","09","false","7","3","",""
"","","","","","","","","","","","html-keyboard-response","26","2.0.0","342054","67131b8bef325ea544a658d0","1","53","null","","","","","","","","","<p style='font-size: 30px;'><strong>Okay</strong></p>","null","neutral_feedback","0","test","10","","","","","","","",""
"","","","","","","","","","","","html-button-response","27","2.0.0","343932","67131b8bef325ea544a658d0","1","53","1876","","","","","","","","","<img src= ""rock_img/I_Peridotite_14.jpg"" style=""width:8cm; height:5.3cm;""><p>What type of rock is this?</p>","5","class_response","0","test","11","Pegmatite","Peridotite","14","false","6","7","",""
"","","","","","","","","","","","html-keyboard-response","28","2.0.0","344436","67131b8bef325ea544a658d0","1","53","null","","","","","","","","","<p style='font-size: 30px;'><strong>Okay</strong></p>","null","neutral_feedback","0","test","11","","","","","","","",""
"","","","","","","","","","","","html-button-response","29","2.0.0","345869","67131b8bef325ea544a658d0","1","53","1430","","","","","","","","","<img src= ""rock_img/I_Basalt_12.jpg"" style=""width:8cm; height:6.010000000000001cm;""><p>What type of rock is this?</p>","7","class_response","0","test","12","Pumice","Basalt","12","false","8","2","",""
"","","","","","","","","","","","html-keyboard-response","30","2.0.0","346373","67131b8bef325ea544a658d0","1","53","null","","","","","","","","","<p style='font-size: 30px;'><strong>Okay</strong></p>","null","neutral_feedback","0","test","12","","","","","","","",""
"","","","","","","","","","","","html-button-response","31","2.0.0","348821","67131b8bef325ea544a658d0","1","53","2446","","","","","","","","","<img src= ""rock_img/I_Pumice_09.jpg"" style=""width:8cm; height:6.44cm;""><p>What type of rock is this?</p>","0","class_response","0","test","13","Andesite","Pumice","09","false","1","8","",""
"","","","","","","","","","","","html-keyboard-response","32","2.0.0","349324","67131b8bef325ea544a658d0","1","53","null","","","","","","","","","<p style='font-size: 30px;'><strong>Okay</strong></p>","null","neutral_feedback","0","test","13","","","","","","","",""
"","","","","","","","","","","","html-button-response","33","2.0.0","350332","67131b8bef325ea544a658d0","1","53","1006","","","","","","","","","<img src= ""rock_img/I_Pumice_16.jpg"" style=""width:8cm; height:6.79cm;""><p>What type of rock is this?</p>","1","class_response","0","test","14","Basalt","Pumice","16","false","2","8","",""
"","","","","","","","","","","","html-keyboard-response","34","2.0.0","350835","67131b8bef325ea544a658d0","1","53","null","","","","","","","","","<p style='font-size: 30px;'><strong>Okay</strong></p>","null","neutral_feedback","0","test","14","","","","","","","",""
"","","","","","","","","","","","html-button-response","35","2.0.0","351900","67131b8bef325ea544a658d0","1","53","1063","","","","","","","","","<img src= ""rock_img/I_Peridotite_05.jpg"" style=""width:8cm; height:7.1499999999999995cm;""><p>What type of rock is this?</p>","5","class_response","0","test","15","Pegmatite","Peridotite","05","false","6","7","",""
"","","","","","","","","","","","html-keyboard-response","36","2.0.0","352406","67131b8bef325ea544a658d0","1","53","null","","","","","","","","","<p style='font-size: 30px;'><strong>Okay</strong></p>","null","neutral_feedback","0","test","15","","","","","","","",""
"","","","","","","","","","","","html-button-response","37","2.0.0","353900","67131b8bef325ea544a658d0","1","53","1492","","","","","","","","","<img src= ""rock_img/I_Andesite_01.jpg"" style=""width:8cm; height:5.87cm;""><p>What type of rock is this?</p>","2","class_response","0","test","16","Diorite","Andesite","01","false","3","1","",""
"","","","","","","","","","","","html-keyboard-response","38","2.0.0","354406","67131b8bef325ea544a658d0","1","53","null","","","","","","","","","<p style='font-size: 30px;'><strong>Okay</strong></p>","null","neutral_feedback","0","test","16","","","","","","","",""
"","","","","","","","","","","","html-button-response","39","2.0.0","355364","67131b8bef325ea544a658d0","1","53","956","","","","","","","","","<img src= ""rock_img/I_Basalt_04.jpg"" style=""width:8cm; height:7.53cm;""><p>What type of rock is this?</p>","6","class_response","0","test","17","Peridotite","Basalt","04","false","7","2","",""
"","","","","","","","","","","","html-keyboard-response","40","2.0.0","355868","67131b8bef325ea544a658d0","1","53","null","","","","","","","","","<p style='font-size: 30px;'><strong>Okay</strong></p>","null","neutral_feedback","0","test","17","","","","","","","",""
"","","","","","","","","","","","html-button-response","41","2.0.0","356604","67131b8bef325ea544a658d0","1","53","735","","","","","","","","","<img src= ""rock_img/I_Andesite_02.jpg"" style=""width:8cm; height:8.5cm;""><p>What type of rock is this?</p>","5","class_response","0","test","18","Pegmatite","Andesite","02","false","6","1","",""
"","","","","","","","","","","","html-keyboard-response","42","2.0.0","357106","67131b8bef325ea544a658d0","1","53","null","","","","","","","","","<p style='font-size: 30px;'><strong>Okay</strong></p>","null","neutral_feedback","0","test","18","","","","","","","",""
"","","","","","","","","","","","html-button-response","43","2.0.0","358132","67131b8bef325ea544a658d0","1","53","1025","","","","","","","","","<img src= ""rock_img/I_Obsidian_14.jpg"" style=""width:8cm; height:7.64cm;""><p>What type of rock is this?</p>","4","class_response","0","test","19","Obsidian","Obsidian","14","true","5","5","",""
"","","","","","","","","","","","html-keyboard-response","44","2.0.0","358636","67131b8bef325ea544a658d0","1","53","null","","","","","","","","","<p style='font-size: 30px;'><strong>Okay</strong></p>","null","neutral_feedback","0","test","19","","","","","","","",""
"","","","","","","","","","","","html-button-response","45","2.0.0","359732","67131b8bef325ea544a658d0","1","53","1094","","","","","","","","","<img src= ""rock_img/I_Pegmatite_12.jpg"" style=""width:8cm; height:5.7cm;""><p>What type of rock is this?</p>","3","class_response","0","test","20","Gabbro","Pegmatite","12","false","4","6","",""
"","","","","","","","","","","","html-keyboard-response","46","2.0.0","360236","67131b8bef325ea544a658d0","1","53","null","","","","","","","","","<p style='font-size: 30px;'><strong>Okay</strong></p>","null","neutral_feedback","0","test","20","","","","","","","",""
"","","","","","","","","","","","html-button-response","47","2.0.0","360796","67131b8bef325ea544a658d0","1","53","559","","","","","","","","","<img src= ""rock_img/I_Gabbro_05.jpg"" style=""width:8cm; height:6cm;""><p>What type of rock is this?</p>","1","class_response","0","test","21","Basalt","Gabbro","05","false","2","4","",""
"","","","","","","","","","","","html-keyboard-response","48","2.0.0","361308","67131b8bef325ea544a658d0","1","53","null","","","","","","","","","<p style='font-size: 30px;'><strong>Okay</strong></p>","null","neutral_feedback","0","test","21","","","","","","","",""
"","","","","","","","","","","","html-button-response","49","2.0.0","362108","67131b8bef325ea544a658d0","1","53","799","","","","","","","","","<img src= ""rock_img/I_Diorite_10.jpg"" style=""width:8cm; height:5.949999999999999cm;""><p>What type of rock is this?</p>","0","class_response","0","test","22","Andesite","Diorite","10","false","1","3","",""
"","","","","","","","","","","","html-keyboard-response","50","2.0.0","362623","67131b8bef325ea544a658d0","1","53","null","","","","","","","","","<p style='font-size: 30px;'><strong>Okay</strong></p>","null","neutral_feedback","0","test","22","","","","","","","",""
"","","","","","","","","","","","html-button-response","51","2.0.0","363660","67131b8bef325ea544a658d0","1","53","1036","","","","","","","","","<img src= ""rock_img/I_Obsidian_11.jpg"" style=""width:8cm; height:6.05cm;""><p>What type of rock is this?</p>","5","class_response","0","test","23","Pegmatite","Obsidian","11","false","6","5","",""
"","","","","","","","","","","","html-keyboard-response","52","2.0.0","364163","67131b8bef325ea544a658d0","1","53","null","","","","","","","","","<p style='font-size: 30px;'><strong>Okay</strong></p>","null","neutral_feedback","0","test","23","","","","","","","",""
"","","","","","","","","","","","html-button-response","53","2.0.0","364700","67131b8bef325ea544a658d0","1","53","535","","","","","","","","","<img src= ""rock_img/I_Gabbro_15.jpg"" style=""width:8cm; height:6.29cm;""><p>What type of rock is this?</p>","1","class_response","0","test","24","Basalt","Gabbro","15","false","2","4","",""
"","","","","","","","","","","","html-keyboard-response","54","2.0.0","365204","67131b8bef325ea544a658d0","1","53","null","","","","","","","","","<p style='font-size: 30px;'><strong>Okay</strong></p>","null","neutral_feedback","0","test","24","","","","","","","",""
"","","","","","","","","","","","html-button-response","55","2.0.0","365756","67131b8bef325ea544a658d0","1","53","551","","","","","","","","","<img src= ""rock_img/I_Diorite_12.jpg"" style=""width:8cm; height:4.88cm;""><p>What type of rock is this?</p>","2","class_response","0","test","25","Diorite","Diorite","12","true","3","3","",""
"","","","","","","","","","","","html-keyboard-response","56","2.0.0","366259","67131b8bef325ea544a658d0","1","53","null","","","","","","","","","<p style='font-size: 30px;'><strong>Okay</strong></p>","null","neutral_feedback","0","test","25","","","","","","","",""
"","","","","","","","","","","","html-button-response","57","2.0.0","366740","67131b8bef325ea544a658d0","1","53","480","","","","","","","","","<img src= ""rock_img/I_Pegmatite_06.jpg"" style=""width:8cm; height:5.17cm;""><p>What type of rock is this?</p>","6","class_response","0","test","26","Peridotite","Pegmatite","06","false","7","6","",""
"","","","","","","","","","","","html-keyboard-response","58","2.0.0","367242","67131b8bef325ea544a658d0","1","53","null","","","","","","","","","<p style='font-size: 30px;'><strong>Okay</strong></p>","null","neutral_feedback","0","test","26","","","","","","","",""
"","","","","","","","","","","","html-button-response","59","2.0.0","367645","67131b8bef325ea544a658d0","1","53","399","","","","","","","","","<img src= ""rock_img/I_Peridotite_16.jpg"" style=""width:8cm; height:6.989999999999999cm;""><p>What type of rock is this?</p>","5","class_response","0","test","27","Pegmatite","Peridotite","16","false","6","7","",""
"","","","","","","","","","","","html-keyboard-response","60","2.0.0","368157","67131b8bef325ea544a658d0","1","53","null","","","","","","","","","<p style='font-size: 30px;'><strong>Okay</strong></p>","null","neutral_feedback","0","test","27","","","","","","","",""
"","","","","","","","","","","","html-button-response","61","2.0.0","368732","67131b8bef325ea544a658d0","1","53","574","","","","","","","","","<img src= ""rock_img/I_Diorite_02.jpg"" style=""width:8cm; height:6.27cm;""><p>What type of rock is this?</p>","4","class_response","0","test","28","Obsidian","Diorite","02","false","5","3","",""
"","","","","","","","","","","","html-keyboard-response","62","2.0.0","369246","67131b8bef325ea544a658d0","1","53","null","","","","","","","","","<p style='font-size: 30px;'><strong>Okay</strong></p>","null","neutral_feedback","0","test","28","","","","","","","",""
"","","","","","","","","","","","html-button-response","63","2.0.0","371132","67131b8bef325ea544a658d0","1","53","1884","","","","","","","","","<img src= ""rock_img/I_Obsidian_02.jpg"" style=""width:8cm; height:7.51cm;""><p>What type of rock is this?</p>","1","class_response","0","test","29","Basalt","Obsidian","02","false","2","5","",""
"","","","","","","","","","","","html-keyboard-response","64","2.0.0","371636","67131b8bef325ea544a658d0","1","53","null","","","","","","","","","<p style='font-size: 30px;'><strong>Okay</strong></p>","null","neutral_feedback","0","test","29","","","","","","","",""
"","","","","","","","","","","","html-button-response","65","2.0.0","372092","67131b8bef325ea544a658d0","1","53","454","","","","","","","","","<img src= ""rock_img/I_Pegmatite_16.jpg"" style=""width:8cm; height:5.8cm;""><p>What type of rock is this?</p>","2","class_response","0","test","30","Diorite","Pegmatite","16","false","3","6","",""
"","","","","","","","","","","","html-keyboard-response","66","2.0.0","372595","67131b8bef325ea544a658d0","1","53","null","","","","","","","","","<p style='font-size: 30px;'><strong>Okay</strong></p>","null","neutral_feedback","0","test","30","","","","","","","",""
"","","","","","","","","","","","html-button-response","67","2.0.0","373228","67131b8bef325ea544a658d0","1","53","630","","","","","","","","","<img src= ""rock_img/I_Pumice_04.jpg"" style=""width:8cm; height:6.819999999999999cm;""><p>What type of rock is this?</p>","3","class_response","0","test","31","Gabbro","Pumice","04","false","4","8","",""
"","","","","","","","","","","","html-keyboard-response","68","2.0.0","373742","67131b8bef325ea544a658d0","1","53","null","","","","","","","","","<p style='font-size: 30px;'><strong>Okay</strong></p>","null","neutral_feedback","0","test","31","","","","","","","",""
"","","","","","","","","","","","html-button-response","69","2.0.0","375076","67131b8bef325ea544a658d0","1","53","1332","","","","","","","","","<img src= ""rock_img/I_Andesite_14.jpg"" style=""width:8cm; height:5.449999999999999cm;""><p>What type of rock is this?</p>","7","class_response","0","test","32","Pumice","Andesite","14","false","8","1","",""
"","","","","","","","","","","","html-keyboard-response","70","2.0.0","375579","67131b8bef325ea544a658d0","1","53","null","","","","","","","","","<p style='font-size: 30px;'><strong>Okay</strong></p>","null","neutral_feedback","0","test","32","","","","","","","",""
"","","","","","","","","","","","html-button-response","71","2.0.0","375956","67131b8bef325ea544a658d0","1","53","374","","","","","","","","","<img src= ""rock_img/I_Basalt_08.jpg"" style=""width:8cm; height:10.44cm;""><p>What type of rock is this?</p>","2","class_response","0","test","33","Diorite","Basalt","08","false","3","2","",""
"","","","","","","","","","","","html-keyboard-response","72","2.0.0","376459","67131b8bef325ea544a658d0","1","53","null","","","","","","","","","<p style='font-size: 30px;'><strong>Okay</strong></p>","null","neutral_feedback","0","test","33","","","","","","","",""
"","","","","","","","","","","","html-button-response","73","2.0.0","376740","67131b8bef325ea544a658d0","1","53","278","","","","","","","","","<img src= ""rock_img/I_Pegmatite_05.jpg"" style=""width:8cm; height:7.300000000000001cm;""><p>What type of rock is this?</p>","5","class_response","0","test","34","Pegmatite","Pegmatite","05","true","6","6","",""
"","","","","","","","","","","","html-keyboard-response","74","2.0.0","377256","67131b8bef325ea544a658d0","1","53","null","","","","","","","","","<p style='font-size: 30px;'><strong>Okay</strong></p>","null","neutral_feedback","0","test","34","","","","","","","",""
"","","","","","","","","","","","html-button-response","75","2.0.0","378460","67131b8bef325ea544a658d0","1","53","1202","","","","","","","","","<img src= ""rock_img/I_Diorite_08.jpg"" style=""width:8cm; height:6.37cm;""><p>What type of rock is this?</p>","1","class_response","0","test","35","Basalt","Diorite","08","false","2","3","",""
"","","","","","","","","","","","html-keyboard-response","76","2.0.0","378963","67131b8bef325ea544a658d0","1","53","null","","","","","","","","","<p style='font-size: 30px;'><strong>Okay</strong></p>","null","neutral_feedback","0","test","35","","","","","","","",""
"","","","","","","","","","","","html-button-response","77","2.0.0","379420","67131b8bef325ea544a658d0","1","53","455","","","","","","","","","<img src= ""rock_img/I_Pumice_10.jpg"" style=""width:8cm; height:7.609999999999999cm;""><p>What type of rock is this?</p>","2","class_response","0","test","36","Diorite","Pumice","10","false","3","8","",""
"","","","","","","","","","","","html-keyboard-response","78","2.0.0","379930","67131b8bef325ea544a658d0","1","53","null","","","","","","","","","<p style='font-size: 30px;'><strong>Okay</strong></p>","null","neutral_feedback","0","test","36","","","","","","","",""
"","","","","","","","","","","","html-button-response","79","2.0.0","381324","67131b8bef325ea544a658d0","1","53","1391","","","","","","","","","<img src= ""rock_img/I_Andesite_05.jpg"" style=""width:8cm; height:4.12cm;""><p>What type of rock is this?</p>","7","class_response","0","test","37","Pumice","Andesite","05","false","8","1","",""
"","","","","","","","","","","","html-keyboard-response","80","2.0.0","381826","67131b8bef325ea544a658d0","1","53","null","","","","","","","","","<p style='font-size: 30px;'><strong>Okay</strong></p>","null","neutral_feedback","0","test","37","","","","","","","",""
"","","","","","","","","","","","html-button-response","81","2.0.0","383676","67131b8bef325ea544a658d0","1","53","1848","","","","","","","","","<img src= ""rock_img/I_Gabbro_16.jpg"" style=""width:8cm; height:6.44cm;""><p>What type of rock is this?</p>","5","class_response","0","test","38","Pegmatite","Gabbro","16","false","6","4","",""
"","","","","","","","","","","","html-keyboard-response","82","2.0.0","384178","67131b8bef325ea544a658d0","1","53","null","","","","","","","","","<p style='font-size: 30px;'><strong>Okay</strong></p>","null","neutral_feedback","0","test","38","","","","","","","",""
"","","","","","","","","","","","html-button-response","83","2.0.0","384764","67131b8bef325ea544a658d0","1","53","583","","","","","","","","","<img src= ""rock_img/I_Obsidian_07.jpg"" style=""width:8cm; height:4.76cm;""><p>What type of rock is this?</p>","4","class_response","0","test","39","Obsidian","Obsidian","07","true","5","5","",""
"","","","","","","","","","","","html-keyboard-response","84","2.0.0","385266","67131b8bef325ea544a658d0","1","53","null","","","","","","","","","<p style='font-size: 30px;'><strong>Okay</strong></p>","null","neutral_feedback","0","test","39","","","","","","","",""
"","","","","","","","","","","","html-button-response","85","2.0.0","385731","67131b8bef325ea544a658d0","1","53","463","","","","","","","","","<img src= ""rock_img/I_Andesite_03.jpg"" style=""width:8cm; height:5.73cm;""><p>What type of rock is this?</p>","0","class_response","0","test","40","Andesite","Andesite","03","true","1","1","",""
"","","","","","","","","","","","html-keyboard-response","86","2.0.0","386236","67131b8bef325ea544a658d0","1","53","null","","","","","","","","","<p style='font-size: 30px;'><strong>Okay</strong></p>","null","neutral_feedback","0","test","40","","","","","","","",""
"","","","","","","","","","","","html-button-response","87","2.0.0","387147","67131b8bef325ea544a658d0","1","53","909","","","","","","","","","<img src= ""rock_img/I_Basalt_05.jpg"" style=""width:8cm; height:8.18cm;""><p>What type of rock is this?</p>","1","class_response","0","test","41","Basalt","Basalt","05","true","2","2","",""
"","","","","","","","","","","","html-keyboard-response","88","2.0.0","387658","67131b8bef325ea544a658d0","1","53","null","","","","","","","","","<p style='font-size: 30px;'><strong>Okay</strong></p>","null","neutral_feedback","0","test","41","","","","","","","",""
"","","","","","","","","","","","html-button-response","89","2.0.0","388147","67131b8bef325ea544a658d0","1","53","487","","","","","","","","","<img src= ""rock_img/I_Pumice_13.jpg"" style=""width:8cm; height:8.200000000000001cm;""><p>What type of rock is this?</p>","2","class_response","0","test","42","Diorite","Pumice","13","false","3","8","",""
"","","","","","","","","","","","html-keyboard-response","90","2.0.0","388650","67131b8bef325ea544a658d0","1","53","null","","","","","","","","","<p style='font-size: 30px;'><strong>Okay</strong></p>","null","neutral_feedback","0","test","42","","","","","","","",""
"","","","","","","","","","","","html-button-response","91","2.0.0","389196","67131b8bef325ea544a658d0","1","53","543","","","","","","","","","<img src= ""rock_img/I_Peridotite_13.jpg"" style=""width:8cm; height:7.58cm;""><p>What type of rock is this?</p>","3","class_response","0","test","43","Gabbro","Peridotite","13","false","4","7","",""
"","","","","","","","","","","","html-keyboard-response","92","2.0.0","389699","67131b8bef325ea544a658d0","1","53","null","","","","","","","","","<p style='font-size: 30px;'><strong>Okay</strong></p>","null","neutral_feedback","0","test","43","","","","","","","",""
"","","","","","","","","","","","html-button-response","93","2.0.0","390589","67131b8bef325ea544a658d0","1","53","887","","","","","","","","","<img src= ""rock_img/I_Obsidian_05.jpg"" style=""width:8cm; height:6.33cm;""><p>What type of rock is this?</p>","6","class_response","0","test","44","Peridotite","Obsidian","05","false","7","5","",""
"","","","","","","","","","","","html-keyboard-response","94","2.0.0","391097","67131b8bef325ea544a658d0","1","53","null","","","","","","","","","<p style='font-size: 30px;'><strong>Okay</strong></p>","null","neutral_feedback","0","test","44","","","","","","","",""
"","","","","","","","","","","","html-button-response","95","2.0.0","392171","67131b8bef325ea544a658d0","1","53","1073","","","","","","","","","<img src= ""rock_img/I_Pegmatite_09.jpg"" style=""width:8cm; height:4.03cm;""><p>What type of rock is this?</p>","5","class_response","0","test","45","Pegmatite","Pegmatite","09","true","6","6","",""
"","","","","","","","","","","","html-keyboard-response","96","2.0.0","392675","67131b8bef325ea544a658d0","1","53","null","","","","","","","","","<p style='font-size: 30px;'><strong>Okay</strong></p>","null","neutral_feedback","0","test","45","","","","","","","",""
"","","","","","","","","","","","html-button-response","97","2.0.0","393739","67131b8bef325ea544a658d0","1","53","1063","","","","","","","","","<img src= ""rock_img/I_Pumice_15.jpg"" style=""width:8cm; height:7.86cm;""><p>What type of rock is this?</p>","4","class_response","0","test","46","Obsidian","Pumice","15","false","5","8","",""
"","","","","","","","","","","","html-keyboard-response","98","2.0.0","394243","67131b8bef325ea544a658d0","1","53","null","","","","","","","","","<p style='font-size: 30px;'><strong>Okay</strong></p>","null","neutral_feedback","0","test","46","","","","","","","",""
"","","","","","","","","","","","html-button-response","99","2.0.0","394876","67131b8bef325ea544a658d0","1","53","629","","","","","","","","","<img src= ""rock_img/I_Gabbro_12.jpg"" style=""width:8cm; height:7.800000000000001cm;""><p>What type of rock is this?</p>","0","class_response","0","test","47","Andesite","Gabbro","12","false","1","4","",""
"","","","","","","","","","","","html-keyboard-response","100","2.0.0","395377","67131b8bef325ea544a658d0","1","53","null","","","","","","","","","<p style='font-size: 30px;'><strong>Okay</strong></p>","null","neutral_feedback","0","test","47","","","","","","","",""
"","","","","","","","","","","","html-button-response","101","2.0.0","396195","67131b8bef325ea544a658d0","1","53","816","","","","","","","","","<img src= ""rock_img/I_Gabbro_01.jpg"" style=""width:8cm; height:5.21cm;""><p>What type of rock is this?</p>","1","class_response","0","test","48","Basalt","Gabbro","01","false","2","4","",""
"","","","","","","","","","","","html-keyboard-response","102","2.0.0","396697","67131b8bef325ea544a658d0","1","53","null","","","","","","","","","<p style='font-size: 30px;'><strong>Okay</strong></p>","null","neutral_feedback","0","test","48","","","","","","","",""
"","","","","","","","","","","","instructions","103","2.0.0","443451","67131b8bef325ea544a658d0","1","53","46713","","","","","","","","[{""page_index"":0,""viewing_time"":28105},{""page_index"":1,""viewing_time"":10896},{""page_index"":2,""viewing_time"":7712}]","","","","","","","","","","","","","",""
"","","","","","","","","","","","html-button-response","104","2.0.0","445371","67131b8bef325ea544a658d0","1","53","1918","","","","","","","","","","0","start_train","","","","","","","","","","",""
"","","","","","","","","","","","html-button-response","105","2.0.0","447004","67131b8bef325ea544a658d0","1","53","1631","","","","","","","","","<img src= ""rock_img/I_Peridotite_12.jpg"" style=""width:8cm; height:4.54cm;""><p>What type of rock is this?</p>","1","class_response","1","train","1","Basalt","Peridotite","12","false","2","7","",""
"","","","","","","","","","","","html-button-response","106","2.0.0","449931","67131b8bef325ea544a658d0","1","53","2924","","","","","","","","","<img src= rock_img/I_Peridotite_12.jpg style=""width:8cm; height:4.54cm;""><p style='font-size: 30px; color: red;'><strong>Incorrect!</strong></p><p style='font-size: 30px;'><strong>This rock is peridotite</strong></p>","0","corr_feedback","1","train","1","","","","","","","",""
"","","","","","","","","","","","html-button-response","107","2.0.0","453035","67131b8bef325ea544a658d0","1","53","3102","","","","","","","","","<img src= ""rock_img/I_Pegmatite_10.jpg"" style=""width:8cm; height:4.16cm;""><p>What type of rock is this?</p>","2","class_response","1","train","2","Diorite","Pegmatite","10","false","3","6","",""
"","","","","","","","","","","","html-button-response","108","2.0.0","454907","67131b8bef325ea544a658d0","1","53","1870","","","","","","","","","<img src= rock_img/I_Pegmatite_10.jpg style=""width:8cm; height:4.16cm;""><p style='font-size: 30px; color: red;'><strong>Incorrect!</strong></p><p style='font-size: 30px;'><strong>This rock is pegmatite</strong></p>","0","corr_feedback","1","train","2","","","","","","","",""
"","","","","","","","","","","","html-button-response","109","2.0.0","456827","67131b8bef325ea544a658d0","1","53","1918","","","","","","","","","<img src= ""rock_img/I_Pegmatite_13.jpg"" style=""width:8cm; height:4.95cm;""><p>What type of rock is this?</p>","4","class_response","1","train","3","Obsidian","Pegmatite","13","false","5","6","",""
"","","","","","","","","","","","html-button-response","110","2.0.0","458675","67131b8bef325ea544a658d0","1","53","1846","","","","","","","","","<img src= rock_img/I_Pegmatite_13.jpg style=""width:8cm; height:4.95cm;""><p style='font-size: 30px; color: red;'><strong>Incorrect!</strong></p><p style='font-size: 30px;'><strong>This rock is pegmatite</strong></p>","0","corr_feedback","1","train","3","","","","","","","",""
"","","","","","","","","","","","html-button-response","111","2.0.0","460339","67131b8bef325ea544a658d0","1","53","1662","","","","","","","","","<img src= ""rock_img/I_Andesite_09.jpg"" style=""width:8cm; height:6cm;""><p>What type of rock is this?</p>","7","class_response","1","train","4","Pumice","Andesite","09","false","8","1","",""
"","","","","","","","","","","","html-button-response","112","2.0.0","462684","67131b8bef325ea544a658d0","1","53","2343","","","","","","","","","<img src= rock_img/I_Andesite_09.jpg style=""width:8cm; height:6cm;""><p style='font-size: 30px; color: red;'><strong>Incorrect!</strong></p><p style='font-size: 30px;'><strong>This rock is andesite</strong></p>","0","corr_feedback","1","train","4","","","","","","","",""
"","","","","","","","","","","","html-button-response","113","2.0.0","464491","67131b8bef325ea544a658d0","1","53","1805","","","","","","","","","<img src= ""rock_img/I_Diorite_13.jpg"" style=""width:8cm; height:6.29cm;""><p>What type of rock is this?</p>","3","class_response","1","train","5","Gabbro","Diorite","13","false","4","3","",""
"","","","","","","","","","","","html-button-response","114","2.0.0","466083","67131b8bef325ea544a658d0","1","53","1590","","","","","","","","","<img src= rock_img/I_Diorite_13.jpg style=""width:8cm; height:6.29cm;""><p style='font-size: 30px; color: red;'><strong>Incorrect!</strong></p><p style='font-size: 30px;'><strong>This rock is diorite</strong></p>","0","corr_feedback","1","train","5","","","","","","","",""
"","","","","","","","","","","","html-button-response","115","2.0.0","467731","67131b8bef325ea544a658d0","1","53","1646","","","","","","","","","<img src= ""rock_img/I_Pumice_03.jpg"" style=""width:8cm; height:6.64cm;""><p>What type of rock is this?</p>","0","class_response","1","train","6","Andesite","Pumice","03","false","1","8","",""
"","","","","","","","","","","","html-button-response","116","2.0.0","469795","67131b8bef325ea544a658d0","1","53","2062","","","","","","","","","<img src= rock_img/I_Pumice_03.jpg style=""width:8cm; height:6.64cm;""><p style='font-size: 30px; color: red;'><strong>Incorrect!</strong></p><p style='font-size: 30px;'><strong>This rock is pumice</strong></p>","0","corr_feedback","1","train","6","","","","","","","",""
"","","","","","","","","","","","html-button-response","117","2.0.0","472467","67131b8bef325ea544a658d0","1","53","2670","","","","","","","","","<img src= ""rock_img/I_Andesite_06.jpg"" style=""width:8cm; height:6.840000000000001cm;""><p>What type of rock is this?</p>","4","class_response","1","train","7","Obsidian","Andesite","06","false","5","1","",""
"","","","","","","","","","","","html-button-response","118","2.0.0","474075","67131b8bef325ea544a658d0","1","53","1606","","","","","","","","","<img src= rock_img/I_Andesite_06.jpg style=""width:8cm; height:6.840000000000001cm;""><p style='font-size: 30px; color: red;'><strong>Incorrect!</strong></p><p style='font-size: 30px;'><strong>This rock is andesite</strong></p>","0","corr_feedback","1","train","7","","","","","","","",""
"","","","","","","","","","","","html-button-response","119","2.0.0","476107","67131b8bef325ea544a658d0","1","53","2030","","","","","","","","","<img src= ""rock_img/I_Pegmatite_15.jpg"" style=""width:8cm; height:6cm;""><p>What type of rock is this?</p>","1","class_response","1","train","8","Basalt","Pegmatite","15","false","2","6","",""
"","","","","","","","","","","","html-button-response","120","2.0.0","477579","67131b8bef325ea544a658d0","1","53","1470","","","","","","","","","<img src= rock_img/I_Pegmatite_15.jpg style=""width:8cm; height:6cm;""><p style='font-size: 30px; color: red;'><strong>Incorrect!</strong></p><p style='font-size: 30px;'><strong>This rock is pegmatite</strong></p>","0","corr_feedback","1","train","8","","","","","","","",""
"","","","","","","","","","","","html-button-response","121","2.0.0","479323","67131b8bef325ea544a658d0","1","53","1742","","","","","","","","","<img src= ""rock_img/I_Basalt_06.jpg"" style=""width:8cm; height:7.06cm;""><p>What type of rock is this?</p>","4","class_response","1","train","9","Obsidian","Basalt","06","false","5","2","",""
"","","","","","","","","","","","html-button-response","122","2.0.0","481203","67131b8bef325ea544a658d0","1","53","1878","","","","","","","","","<img src= rock_img/I_Basalt_06.jpg style=""width:8cm; height:7.06cm;""><p style='font-size: 30px; color: red;'><strong>Incorrect!</strong></p><p style='font-size: 30px;'><strong>This rock is basalt</strong></p>","0","corr_feedback","1","train","9","","","","","","","",""
"","","","","","","","","","","","html-button-response","123","2.0.0","483139","67131b8bef325ea544a658d0","1","53","1934","","","","","","","","","<img src= ""rock_img/I_Peridotite_08.jpg"" style=""width:8cm; height:6.7cm;""><p>What type of rock is this?</p>","7","class_response","1","train","10","Pumice","Peridotite","08","false","8","7","",""
"","","","","","","","","","","","html-button-response","124","2.0.0","485099","67131b8bef325ea544a658d0","1","53","1958","","","","","","","","","<img src= rock_img/I_Peridotite_08.jpg style=""width:8cm; height:6.7cm;""><p style='font-size: 30px; color: red;'><strong>Incorrect!</strong></p><p style='font-size: 30px;'><strong>This rock is peridotite</strong></p>","0","corr_feedback","1","train","10","","","","","","","",""
"","","","","","","","","","","","html-button-response","125","2.0.0","486227","67131b8bef325ea544a658d0","1","53","1126","","","","","","","","","<img src= ""rock_img/I_Pumice_08.jpg"" style=""width:8cm; height:6.67cm;""><p>What type of rock is this?</p>","7","class_response","1","train","11","Pumice","Pumice","08","true","8","8","",""
"","","","","","","","","","","","html-button-response","126","2.0.0","487739","67131b8bef325ea544a658d0","1","53","1510","","","","","","","","","<img src= rock_img/I_Pumice_08.jpg style=""width:8cm; height:6.67cm;""><p style='font-size: 30px; color: green;'><strong>Correct!</strong></p><p style='font-size: 30px;'><strong>This rock is pumice</strong></p>","0","corr_feedback","1","train","11","","","","","","","",""
"","","","","","","","","","","","html-button-response","127","2.0.0","491747","67131b8bef325ea544a658d0","1","53","4006","","","","","","","","","<img src= ""rock_img/I_Pumice_14.jpg"" style=""width:8cm; height:6.39cm;""><p>What type of rock is this?</p>","7","class_response","1","train","12","Pumice","Pumice","14","true","8","8","",""
"","","","","","","","","","","","html-button-response","128","2.0.0","493947","67131b8bef325ea544a658d0","1","53","2197","","","","","","","","","<img src= rock_img/I_Pumice_14.jpg style=""width:8cm; height:6.39cm;""><p style='font-size: 30px; color: green;'><strong>Correct!</strong></p><p style='font-size: 30px;'><strong>This rock is pumice</strong></p>","0","corr_feedback","1","train","12","","","","","","","",""
"","","","","","","","","","","","html-button-response","129","2.0.0","498323","67131b8bef325ea544a658d0","1","53","4373","","","","","","","","","<img src= ""rock_img/I_Diorite_06.jpg"" style=""width:8cm; height:6.03cm;""><p>What type of rock is this?</p>","6","class_response","1","train","13","Peridotite","Diorite","06","false","7","3","",""
"","","","","","","","","","","","html-button-response","130","2.0.0","499794","67131b8bef325ea544a658d0","1","53","1470","","","","","","","","","<img src= rock_img/I_Diorite_06.jpg style=""width:8cm; height:6.03cm;""><p style='font-size: 30px; color: red;'><strong>Incorrect!</strong></p><p style='font-size: 30px;'><strong>This rock is diorite</strong></p>","0","corr_feedback","1","train","13","","","","","","","",""
"","","","","","","","","","","","html-button-response","131","2.0.0","502731","67131b8bef325ea544a658d0","1","53","2934","","","","","","","","","<img src= ""rock_img/I_Peridotite_02.jpg"" style=""width:8cm; height:5.859999999999999cm;""><p>What type of rock is this?</p>","6","class_response","1","train","14","Peridotite","Peridotite","02","true","7","7","",""
"","","","","","","","","","","","html-button-response","132","2.0.0","504714","67131b8bef325ea544a658d0","1","53","1982","","","","","","","","","<img src= rock_img/I_Peridotite_02.jpg style=""width:8cm; height:5.859999999999999cm;""><p style='font-size: 30px; color: green;'><strong>Correct!</strong></p><p style='font-size: 30px;'><strong>This rock is peridotite</strong></p>","0","corr_feedback","1","train","14","","","","","","","",""
"","","","","","","","","","","","html-button-response","133","2.0.0","506139","67131b8bef325ea544a658d0","1","53","1422","","","","","","","","","<img src= ""rock_img/I_Gabbro_11.jpg"" style=""width:8cm; height:6.2cm;""><p>What type of rock is this?</p>","7","class_response","1","train","15","Pumice","Gabbro","11","false","8","4","",""
"","","","","","","","","","","","html-button-response","134","2.0.0","507378","67131b8bef325ea544a658d0","1","53","1237","","","","","","","","","<img src= rock_img/I_Gabbro_11.jpg style=""width:8cm; height:6.2cm;""><p style='font-size: 30px; color: red;'><strong>Incorrect!</strong></p><p style='font-size: 30px;'><strong>This rock is gabbro</strong></p>","0","corr_feedback","1","train","15","","","","","","","",""
"","","","","","","","","","","","html-button-response","135","2.0.0","509675","67131b8bef325ea544a658d0","1","53","2294","","","","","","","","","<img src= ""rock_img/I_Diorite_14.jpg"" style=""width:8cm; height:5.71cm;""><p>What type of rock is this?</p>","2","class_response","1","train","16","Diorite","Diorite","14","true","3","3","",""
"","","","","","","","","","","","html-button-response","136","2.0.0","510930","67131b8bef325ea544a658d0","1","53","1254","","","","","","","","","<img src= rock_img/I_Diorite_14.jpg style=""width:8cm; height:5.71cm;""><p style='font-size: 30px; color: green;'><strong>Correct!</strong></p><p style='font-size: 30px;'><strong>This rock is diorite</strong></p>","0","corr_feedback","1","train","16","","","","","","","",""
"","","","","","","","","","","","html-button-response","137","2.0.0","514154","67131b8bef325ea544a658d0","1","53","3222","","","","","","","","","<img src= ""rock_img/I_Gabbro_09.jpg"" style=""width:8cm; height:7.279999999999999cm;""><p>What type of rock is this?</p>","1","class_response","1","train","17","Basalt","Gabbro","09","false","2","4","",""
"","","","","","","","","","","","html-button-response","138","2.0.0","515802","67131b8bef325ea544a658d0","1","53","1646","","","","","","","","","<img src= rock_img/I_Gabbro_09.jpg style=""width:8cm; height:7.279999999999999cm;""><p style='font-size: 30px; color: red;'><strong>Incorrect!</strong></p><p style='font-size: 30px;'><strong>This rock is gabbro</strong></p>","0","corr_feedback","1","train","17","","","","","","","",""
"","","","","","","","","","","","html-button-response","139","2.0.0","517355","67131b8bef325ea544a658d0","1","53","1550","","","","","","","","","<img src= ""rock_img/I_Pumice_05.jpg"" style=""width:8cm; height:7.25cm;""><p>What type of rock is this?</p>","7","class_response","1","train","18","Pumice","Pumice","05","true","8","8","",""
"","","","","","","","","","","","html-button-response","140","2.0.0","518450","67131b8bef325ea544a658d0","1","53","1094","","","","","","","","","<img src= rock_img/I_Pumice_05.jpg style=""width:8cm; height:7.25cm;""><p style='font-size: 30px; color: green;'><strong>Correct!</strong></p><p style='font-size: 30px;'><strong>This rock is pumice</strong></p>","0","corr_feedback","1","train","18","","","","","","","",""
"","","","","","","","","","","","html-button-response","141","2.0.0","520026","67131b8bef325ea544a658d0","1","53","1574","","","","","","","","","<img src= ""rock_img/I_Obsidian_12.jpg"" style=""width:8cm; height:6.53cm;""><p>What type of rock is this?</p>","4","class_response","1","train","19","Obsidian","Obsidian","12","true","5","5","",""
"","","","","","","","","","","","html-button-response","142","2.0.0","521506","67131b8bef325ea544a658d0","1","53","1478","","","","","","","","","<img src= rock_img/I_Obsidian_12.jpg style=""width:8cm; height:6.53cm;""><p style='font-size: 30px; color: green;'><strong>Correct!</strong></p><p style='font-size: 30px;'><strong>This rock is obsidian</strong></p>","0","corr_feedback","1","train","19","","","","","","","",""
"","","","","","","","","","","","html-button-response","143","2.0.0","525818","67131b8bef325ea544a658d0","1","53","4310","","","","","","","","","<img src= ""rock_img/I_Andesite_07.jpg"" style=""width:8cm; height:5.93cm;""><p>What type of rock is this?</p>","2","class_response","1","train","20","Diorite","Andesite","07","false","3","1","",""
"","","","","","","","","","","","html-button-response","144","2.0.0","527746","67131b8bef325ea544a658d0","1","53","1926","","","","","","","","","<img src= rock_img/I_Andesite_07.jpg style=""width:8cm; height:5.93cm;""><p style='font-size: 30px; color: red;'><strong>Incorrect!</strong></p><p style='font-size: 30px;'><strong>This rock is andesite</strong></p>","0","corr_feedback","1","train","20","","","","","","","",""
"","","","","","","","","","","","html-button-response","145","2.0.0","529226","67131b8bef325ea544a658d0","1","53","1478","","","","","","","","","<img src= ""rock_img/I_Obsidian_04.jpg"" style=""width:8cm; height:6.930000000000001cm;""><p>What type of rock is this?</p>","4","class_response","1","train","21","Obsidian","Obsidian","04","true","5","5","",""
"","","","","","","","","","","","html-button-response","146","2.0.0","530450","67131b8bef325ea544a658d0","1","53","1222","","","","","","","","","<img src= rock_img/I_Obsidian_04.jpg style=""width:8cm; height:6.930000000000001cm;""><p style='font-size: 30px; color: green;'><strong>Correct!</strong></p><p style='font-size: 30px;'><strong>This rock is obsidian</strong></p>","0","corr_feedback","1","train","21","","","","","","","",""
"","","","","","","","","","","","html-button-response","147","2.0.0","532370","67131b8bef325ea544a658d0","1","53","1918","","","","","","","","","<img src= ""rock_img/I_Peridotite_10.jpg"" style=""width:8cm; height:5.390000000000001cm;""><p>What type of rock is this?</p>","3","class_response","1","train","22","Gabbro","Peridotite","10","false","4","7","",""
"","","","","","","","","","","","html-button-response","148","2.0.0","536690","67131b8bef325ea544a658d0","1","53","4318","","","","","","","","","<img src= rock_img/I_Peridotite_10.jpg style=""width:8cm; height:5.390000000000001cm;""><p style='font-size: 30px; color: red;'><strong>Incorrect!</strong></p><p style='font-size: 30px;'><strong>This rock is peridotite</strong></p>","0","corr_feedback","1","train","22","","","","","","","",""
"","","","","","","","","","","","html-button-response","149","2.0.0","537946","67131b8bef325ea544a658d0","1","53","1254","","","","","","","","","<img src= ""rock_img/I_Obsidian_06.jpg"" style=""width:8cm; height:6.8cm;""><p>What type of rock is this?</p>","4","class_response","1","train","23","Obsidian","Obsidian","06","true","5","5","",""
"","","","","","","","","","","","html-button-response","150","2.0.0","539162","67131b8bef325ea544a658d0","1","53","1214","","","","","","","","","<img src= rock_img/I_Obsidian_06.jpg style=""width:8cm; height:6.8cm;""><p style='font-size: 30px; color: green;'><strong>Correct!</strong></p><p style='font-size: 30px;'><strong>This rock is obsidian</strong></p>","0","corr_feedback","1","train","23","","","","","","","",""
"","","","","","","","","","","","html-button-response","151","2.0.0","541410","67131b8bef325ea544a658d0","1","53","2246","","","","","","","","","<img src= ""rock_img/I_Gabbro_03.jpg"" style=""width:8cm; height:8.52cm;""><p>What type of rock is this?</p>","3","class_response","1","train","24","Gabbro","Gabbro","03","true","4","4","",""
"","","","","","","","","","","","html-button-response","152","2.0.0","542364","67131b8bef325ea544a658d0","1","53","952","","","","","","","","","<img src= rock_img/I_Gabbro_03.jpg style=""width:8cm; height:8.52cm;""><p style='font-size: 30px; color: green;'><strong>Correct!</strong></p><p style='font-size: 30px;'><strong>This rock is gabbro</strong></p>","0","corr_feedback","1","train","24","","","","","","","",""
"","","","","","","","","","","","html-button-response","153","2.0.0","546642","67131b8bef325ea544a658d0","1","53","4276","","","","","","","","","<img src= ""rock_img/I_Basalt_02.jpg"" style=""width:8cm; height:6.45cm;""><p>What type of rock is this?</p>","1","class_response","1","train","25","Basalt","Basalt","02","true","2","2","",""
"","","","","","","","","","","","html-button-response","154","2.0.0","547882","67131b8bef325ea544a658d0","1","53","1238","","","","","","","","","<img src= rock_img/I_Basalt_02.jpg style=""width:8cm; height:6.45cm;""><p style='font-size: 30px; color: green;'><strong>Correct!</strong></p><p style='font-size: 30px;'><strong>This rock is basalt</strong></p>","0","corr_feedback","1","train","25","","","","","","","",""
"","","","","","","","","","","","html-button-response","155","2.0.0","550618","67131b8bef325ea544a658d0","1","53","2734","","","","","","","","","<img src= ""rock_img/I_Gabbro_14.jpg"" style=""width:8cm; height:8.48cm;""><p>What type of rock is this?</p>","0","class_response","1","train","26","Andesite","Gabbro","14","false","1","4","",""
"","","","","","","","","","","","html-button-response","156","2.0.0","552002","67131b8bef325ea544a658d0","1","53","1382","","","","","","","","","<img src= rock_img/I_Gabbro_14.jpg style=""width:8cm; height:8.48cm;""><p style='font-size: 30px; color: red;'><strong>Incorrect!</strong></p><p style='font-size: 30px;'><strong>This rock is gabbro</strong></p>","0","corr_feedback","1","train","26","","","","","","","",""
"","","","","","","","","","","","html-button-response","157","2.0.0","555458","67131b8bef325ea544a658d0","1","53","3454","","","","","","","","","<img src= ""rock_img/I_Andesite_11.jpg"" style=""width:8cm; height:4.92cm;""><p>What type of rock is this?</p>","1","class_response","1","train","27","Basalt","Andesite","11","false","2","1","",""
"","","","","","","","","","","","html-button-response","158","2.0.0","556890","67131b8bef325ea544a658d0","1","53","1430","","","","","","","","","<img src= rock_img/I_Andesite_11.jpg style=""width:8cm; height:4.92cm;""><p style='font-size: 30px; color: red;'><strong>Incorrect!</strong></p><p style='font-size: 30px;'><strong>This rock is andesite</strong></p>","0","corr_feedback","1","train","27","","","","","","","",""
"","","","","","","","","","","","html-button-response","159","2.0.0","559442","67131b8bef325ea544a658d0","1","53","2550","","","","","","","","","<img src= ""rock_img/I_Basalt_16.jpg"" style=""width:8cm; height:7.659999999999999cm;""><p>What type of rock is this?</p>","0","class_response","1","train","28","Andesite","Basalt","16","false","1","2","",""
"","","","","","","","","","","","html-button-response","160","2.0.0","560618","67131b8bef325ea544a658d0","1","53","1174","","","","","","","","","<img src= rock_img/I_Basalt_16.jpg style=""width:8cm; height:7.659999999999999cm;""><p style='font-size: 30px; color: red;'><strong>Incorrect!</strong></p><p style='font-size: 30px;'><strong>This rock is basalt</strong></p>","0","corr_feedback","1","train","28","","","","","","","",""
"","","","","","","","","","","","html-button-response","161","2.0.0","562058","67131b8bef325ea544a658d0","1","53","1438","","","","","","","","","<img src= ""rock_img/I_Obsidian_08.jpg"" style=""width:8cm; height:7.39cm;""><p>What type of rock is this?</p>","4","class_response","1","train","29","Obsidian","Obsidian","08","true","5","5","",""
"","","","","","","","","","","","html-button-response","162","2.0.0","562986","67131b8bef325ea544a658d0","1","53","926","","","","","","","","","<img src= rock_img/I_Obsidian_08.jpg style=""width:8cm; height:7.39cm;""><p style='font-size: 30px; color: green;'><strong>Correct!</strong></p><p style='font-size: 30px;'><strong>This rock is obsidian</strong></p>","0","corr_feedback","1","train","29","","","","","","","",""
"","","","","","","","","","","","html-button-response","163","2.0.0","567978","67131b8bef325ea544a658d0","1","53","4990","","","","","","","","","<img src= ""rock_img/I_Gabbro_08.jpg"" style=""width:8cm; height:5.15cm;""><p>What type of rock is this?</p>","0","class_response","1","train","30","Andesite","Gabbro","08","false","1","4","",""
"","","","","","","","","","","","html-button-response","164","2.0.0","569570","67131b8bef325ea544a658d0","1","53","1590","","","","","","","","","<img src= rock_img/I_Gabbro_08.jpg style=""width:8cm; height:5.15cm;""><p style='font-size: 30px; color: red;'><strong>Incorrect!</strong></p><p style='font-size: 30px;'><strong>This rock is gabbro</strong></p>","0","corr_feedback","1","train","30","","","","","","","",""
"","","","","","","","","","","","html-button-response","165","2.0.0","570898","67131b8bef325ea544a658d0","1","53","1326","","","","","","","","","<img src= ""rock_img/I_Obsidian_09.jpg"" style=""width:8cm; height:5cm;""><p>What type of rock is this?</p>","4","class_response","1","train","31","Obsidian","Obsidian","09","true","5","5","",""
"","","","","","","","","","","","html-button-response","166","2.0.0","571754","67131b8bef325ea544a658d0","1","53","854","","","","","","","","","<img src= rock_img/I_Obsidian_09.jpg style=""width:8cm; height:5cm;""><p style='font-size: 30px; color: green;'><strong>Correct!</strong></p><p style='font-size: 30px;'><strong>This rock is obsidian</strong></p>","0","corr_feedback","1","train","31","","","","","","","",""
"","","","","","","","","","","","html-button-response","167","2.0.0","574658","67131b8bef325ea544a658d0","1","53","2902","","","","","","","","","<img src= ""rock_img/I_Peridotite_04.jpg"" style=""width:8cm; height:6.680000000000001cm;""><p>What type of rock is this?</p>","6","class_response","1","train","32","Peridotite","Peridotite","04","true","7","7","",""
"","","","","","","","","","","","html-button-response","168","2.0.0","576162","67131b8bef325ea544a658d0","1","53","1502","","","","","","","","","<img src= rock_img/I_Peridotite_04.jpg style=""width:8cm; height:6.680000000000001cm;""><p style='font-size: 30px; color: green;'><strong>Correct!</strong></p><p style='font-size: 30px;'><strong>This rock is peridotite</strong></p>","0","corr_feedback","1","train","32","","","","","","","",""
"","","","","","","","","","","","html-button-response","169","2.0.0","577882","67131b8bef325ea544a658d0","1","53","1718","","","","","","","","","<img src= ""rock_img/I_Pumice_02.jpg"" style=""width:8cm; height:7.3999999999999995cm;""><p>What type of rock is this?</p>","2","class_response","1","train","33","Diorite","Pumice","02","false","3","8","",""
"","","","","","","","","","","","html-button-response","170","2.0.0","579666","67131b8bef325ea544a658d0","1","53","1782","","","","","","","","","<img src= rock_img/I_Pumice_02.jpg style=""width:8cm; height:7.3999999999999995cm;""><p style='font-size: 30px; color: red;'><strong>Incorrect!</strong></p><p style='font-size: 30px;'><strong>This rock is pumice</strong></p>","0","corr_feedback","1","train","33","","","","","","","",""
"","","","","","","","","","","","html-button-response","171","2.0.0","585890","67131b8bef325ea544a658d0","1","53","6222","","","","","","","","","<img src= ""rock_img/I_Basalt_01.jpg"" style=""width:8cm; height:7.880000000000001cm;""><p>What type of rock is this?</p>","1","class_response","1","train","34","Basalt","Basalt","01","true","2","2","",""
"","","","","","","","","","","","html-button-response","172","2.0.0","586890","67131b8bef325ea544a658d0","1","53","998","","","","","","","","","<img src= rock_img/I_Basalt_01.jpg style=""width:8cm; height:7.880000000000001cm;""><p style='font-size: 30px; color: green;'><strong>Correct!</strong></p><p style='font-size: 30px;'><strong>This rock is basalt</strong></p>","0","corr_feedback","1","train","34","","","","","","","",""
"","","","","","","","","","","","html-button-response","173","2.0.0","588698","67131b8bef325ea544a658d0","1","53","1806","","","","","","","","","<img src= ""rock_img/I_Pumice_06.jpg"" style=""width:8cm; height:6.9399999999999995cm;""><p>What type of rock is this?</p>","7","class_response","1","train","35","Pumice","Pumice","06","true","8","8","",""
"","","","","","","","","","","","html-button-response","174","2.0.0","589538","67131b8bef325ea544a658d0","1","53","838","","","","","","","","","<img src= rock_img/I_Pumice_06.jpg style=""width:8cm; height:6.9399999999999995cm;""><p style='font-size: 30px; color: green;'><strong>Correct!</strong></p><p style='font-size: 30px;'><strong>This rock is pumice</strong></p>","0","corr_feedback","1","train","35","","","","","","","",""
"","","","","","","","","","","","html-button-response","175","2.0.0","590946","67131b8bef325ea544a658d0","1","53","1406","","","","","","","","","<img src= ""rock_img/I_Andesite_10.jpg"" style=""width:8cm; height:4.16cm;""><p>What type of rock is this?</p>","7","class_response","1","train","36","Pumice","Andesite","10","false","8","1","",""
"","","","","","","","","","","","html-button-response","176","2.0.0","592666","67131b8bef325ea544a658d0","1","53","1718","","","","","","","","","<img src= rock_img/I_Andesite_10.jpg style=""width:8cm; height:4.16cm;""><p style='font-size: 30px; color: red;'><strong>Incorrect!</strong></p><p style='font-size: 30px;'><strong>This rock is andesite</strong></p>","0","corr_feedback","1","train","36","","","","","","","",""
"","","","","","","","","","","","html-button-response","177","2.0.0","595274","67131b8bef325ea544a658d0","1","53","2606","","","","","","","","","<img src= ""rock_img/I_Pegmatite_03.jpg"" style=""width:8cm; height:5.239999999999999cm;""><p>What type of rock is this?</p>","2","class_response","1","train","37","Diorite","Pegmatite","03","false","3","6","",""
"","","","","","","","","","","","html-button-response","178","2.0.0","597602","67131b8bef325ea544a658d0","1","53","2326","","","","","","","","","<img src= rock_img/I_Pegmatite_03.jpg style=""width:8cm; height:5.239999999999999cm;""><p style='font-size: 30px; color: red;'><strong>Incorrect!</strong></p><p style='font-size: 30px;'><strong>This rock is pegmatite</strong></p>","0","corr_feedback","1","train","37","","","","","","","",""
"","","","","","","","","","","","html-button-response","179","2.0.0","599338","67131b8bef325ea544a658d0","1","53","1734","","","","","","","","","<img src= ""rock_img/I_Basalt_10.jpg"" style=""width:8cm; height:5.85cm;""><p>What type of rock is this?</p>","4","class_response","1","train","38","Obsidian","Basalt","10","false","5","2","",""
"","","","","","","","","","","","html-button-response","180","2.0.0","600538","67131b8bef325ea544a658d0","1","53","1198","","","","","","","","","<img src= rock_img/I_Basalt_10.jpg style=""width:8cm; height:5.85cm;""><p style='font-size: 30px; color: red;'><strong>Incorrect!</strong></p><p style='font-size: 30px;'><strong>This rock is basalt</strong></p>","0","corr_feedback","1","train","38","","","","","","","",""
"","","","","","","","","","","","html-button-response","181","2.0.0","607330","67131b8bef325ea544a658d0","1","53","6790","","","","","","","","","<img src= ""rock_img/I_Andesite_04.jpg"" style=""width:8cm; height:5.96cm;""><p>What type of rock is this?</p>","6","class_response","1","train","39","Peridotite","Andesite","04","false","7","1","",""
"","","","","","","","","","","","html-button-response","182","2.0.0","608761","67131b8bef325ea544a658d0","1","53","1430","","","","","","","","","<img src= rock_img/I_Andesite_04.jpg style=""width:8cm; height:5.96cm;""><p style='font-size: 30px; color: red;'><strong>Incorrect!</strong></p><p style='font-size: 30px;'><strong>This rock is andesite</strong></p>","0","corr_feedback","1","train","39","","","","","","","",""
"","","","","","","","","","","","html-button-response","183","2.0.0","615466","67131b8bef325ea544a658d0","1","53","6702","","","","","","","","","<img src= ""rock_img/I_Pegmatite_08.jpg"" style=""width:8cm; height:7.68cm;""><p>What type of rock is this?</p>","4","class_response","1","train","40","Obsidian","Pegmatite","08","false","5","6","",""
"","","","","","","","","","","","html-button-response","184","2.0.0","618033","67131b8bef325ea544a658d0","1","53","2566","","","","","","","","","<img src= rock_img/I_Pegmatite_08.jpg style=""width:8cm; height:7.68cm;""><p style='font-size: 30px; color: red;'><strong>Incorrect!</strong></p><p style='font-size: 30px;'><strong>This rock is pegmatite</strong></p>","0","corr_feedback","1","train","40","","","","","","","",""
"","","","","","","","","","","","html-button-response","185","2.0.0","620090","67131b8bef325ea544a658d0","1","53","2054","","","","","","","","","<img src= ""rock_img/I_Pegmatite_07.jpg"" style=""width:8cm; height:6.7cm;""><p>What type of rock is this?</p>","5","class_response","1","train","41","Pegmatite","Pegmatite","07","true","6","6","",""
"","","","","","","","","","","","html-button-response","186","2.0.0","621001","67131b8bef325ea544a658d0","1","53","910","","","","","","","","","<img src= rock_img/I_Pegmatite_07.jpg style=""width:8cm; height:6.7cm;""><p style='font-size: 30px; color: green;'><strong>Correct!</strong></p><p style='font-size: 30px;'><strong>This rock is pegmatite</strong></p>","0","corr_feedback","1","train","41","","","","","","","",""
"","","","","","","","","","","","html-button-response","187","2.0.0","623362","67131b8bef325ea544a658d0","1","53","2358","","","","","","","","","<img src= ""rock_img/I_Basalt_09.jpg"" style=""width:8cm; height:6.2cm;""><p>What type of rock is this?</p>","3","class_response","1","train","42","Gabbro","Basalt","09","false","4","2","",""
"","","","","","","","","","","","html-button-response","188","2.0.0","624817","67131b8bef325ea544a658d0","1","53","1454","","","","","","","","","<img src= rock_img/I_Basalt_09.jpg style=""width:8cm; height:6.2cm;""><p style='font-size: 30px; color: red;'><strong>Incorrect!</strong></p><p style='font-size: 30px;'><strong>This rock is basalt</strong></p>","0","corr_feedback","1","train","42","","","","","","","",""
"","","","","","","","","","","","html-button-response","189","2.0.0","626258","67131b8bef325ea544a658d0","1","53","1438","","","","","","","","","<img src= ""rock_img/I_Obsidian_16.jpg"" style=""width:8cm; height:9.3cm;""><p>What type of rock is this?</p>","4","class_response","1","train","43","Obsidian","Obsidian","16","true","5","5","",""
"","","","","","","","","","","","html-button-response","190","2.0.0","627105","67131b8bef325ea544a658d0","1","53","845","","","","","","","","","<img src= rock_img/I_Obsidian_16.jpg style=""width:8cm; height:9.3cm;""><p style='font-size: 30px; color: green;'><strong>Correct!</strong></p><p style='font-size: 30px;'><strong>This rock is obsidian</strong></p>","0","corr_feedback","1","train","43","","","","","","","",""
"","","","","","","","","","","","html-button-response","191","2.0.0","631946","67131b8bef325ea544a658d0","1","53","4838","","","","","","","","","<img src= ""rock_img/I_Peridotite_15.jpg"" style=""width:8cm; height:6cm;""><p>What type of rock is this?</p>","6","class_response","1","train","44","Peridotite","Peridotite","15","true","7","7","",""
"","","","","","","","","","","","html-button-response","192","2.0.0","632993","67131b8bef325ea544a658d0","1","53","1046","","","","","","","","","<img src= rock_img/I_Peridotite_15.jpg style=""width:8cm; height:6cm;""><p style='font-size: 30px; color: green;'><strong>Correct!</strong></p><p style='font-size: 30px;'><strong>This rock is peridotite</strong></p>","0","corr_feedback","1","train","44","","","","","","","",""
"","","","","","","","","","","","html-button-response","193","2.0.0","636154","67131b8bef325ea544a658d0","1","53","3158","","","","","","","","","<img src= ""rock_img/I_Gabbro_13.jpg"" style=""width:8cm; height:5.08cm;""><p>What type of rock is this?</p>","6","class_response","1","train","45","Peridotite","Gabbro","13","false","7","4","",""
"","","","","","","","","","","","html-button-response","194","2.0.0","636977","67131b8bef325ea544a658d0","1","53","822","","","","","","","","","<img src= rock_img/I_Gabbro_13.jpg style=""width:8cm; height:5.08cm;""><p style='font-size: 30px; color: red;'><strong>Incorrect!</strong></p><p style='font-size: 30px;'><strong>This rock is gabbro</strong></p>","0","corr_feedback","1","train","45","","","","","","","",""
"","","","","","","","","","","","html-button-response","195","2.0.0","639801","67131b8bef325ea544a658d0","1","53","2822","","","","","","","","","<img src= ""rock_img/I_Diorite_07.jpg"" style=""width:8cm; height:5.239999999999999cm;""><p>What type of rock is this?</p>","5","class_response","1","train","46","Pegmatite","Diorite","07","false","6","3","",""
"","","","","","","","","","","","html-button-response","196","2.0.0","640553","67131b8bef325ea544a658d0","1","53","750","","","","","","","","","<img src= rock_img/I_Diorite_07.jpg style=""width:8cm; height:5.239999999999999cm;""><p style='font-size: 30px; color: red;'><strong>Incorrect!</strong></p><p style='font-size: 30px;'><strong>This rock is diorite</strong></p>","0","corr_feedback","1","train","46","","","","","","","",""
"","","","","","","","","","","","html-button-response","197","2.0.0","642098","67131b8bef325ea544a658d0","1","53","1542","","","","","","","","","<img src= ""rock_img/I_Diorite_11.jpg"" style=""width:8cm; height:7.11cm;""><p>What type of rock is this?</p>","2","class_response","1","train","47","Diorite","Diorite","11","true","3","3","",""
"","","","","","","","","","","","html-button-response","198","2.0.0","642865","67131b8bef325ea544a658d0","1","53","765","","","","","","","","","<img src= rock_img/I_Diorite_11.jpg style=""width:8cm; height:7.11cm;""><p style='font-size: 30px; color: green;'><strong>Correct!</strong></p><p style='font-size: 30px;'><strong>This rock is diorite</strong></p>","0","corr_feedback","1","train","47","","","","","","","",""
"","","","","","","","","","","","html-button-response","199","2.0.0","643929","67131b8bef325ea544a658d0","1","53","1062","","","","","","","","","<img src= ""rock_img/I_Diorite_15.jpg"" style=""width:8cm; height:5.54cm;""><p>What type of rock is this?</p>","2","class_response","1","train","48","Diorite","Diorite","15","true","3","3","",""
"","","","","","","","","","","","html-button-response","200","2.0.0","644593","67131b8bef325ea544a658d0","1","53","662","","","","","","","","","<img src= rock_img/I_Diorite_15.jpg style=""width:8cm; height:5.54cm;""><p style='font-size: 30px; color: green;'><strong>Correct!</strong></p><p style='font-size: 30px;'><strong>This rock is diorite</strong></p>","0","corr_feedback","1","train","48","","","","","","","",""
"","","","","","","","","","","","instructions","203","2.0.0","674992","67131b8bef325ea544a658d0","1","53","30398","","","","","","","","[{""page_index"":0,""viewing_time"":14758},{""page_index"":1,""viewing_time"":15640}]","","","","","","","","","","","","","",""
"","","","","","","","","","","","html-button-response","204","2.0.0","676640","67131b8bef325ea544a658d0","1","53","1646","","","","","","","","","","0","start_test","","","","","","","","","","",""
"","","","","","","","","","","","html-button-response","205","2.0.0","680121","67131b8bef325ea544a658d0","1","53","3478","","","","","","","","","<img src= ""rock_img/I_Diorite_09.jpg"" style=""width:8cm; height:5.27cm;""><p>What type of rock is this?</p>","2","class_response","1","test","1","Diorite","Diorite","09","true","3","3","",""
"","","","","","","","","","","","html-keyboard-response","206","2.0.0","680631","67131b8bef325ea544a658d0","1","53","null","","","","","","","","","<p style='font-size: 30px;'><strong>Okay</strong></p>","null","neutral_feedback","1","test","1","","","","","","","",""
"","","","","","","","","","","","html-button-response","207","2.0.0","684809","67131b8bef325ea544a658d0","1","53","4176","","","","","","","","","<img src= ""rock_img/I_Peridotite_06.jpg"" style=""width:8cm; height:7.53cm;""><p>What type of rock is this?</p>","6","class_response","1","test","2","Peridotite","Peridotite","06","true","7","7","",""
"","","","","","","","","","","","html-keyboard-response","208","2.0.0","685313","67131b8bef325ea544a658d0","1","53","null","","","","","","","","","<p style='font-size: 30px;'><strong>Okay</strong></p>","null","neutral_feedback","1","test","2","","","","","","","",""
"","","","","","","","","","","","html-button-response","209","2.0.0","692064","67131b8bef325ea544a658d0","1","53","6749","","","","","","","","","<img src= ""rock_img/I_Gabbro_10.jpg"" style=""width:8cm; height:5.680000000000001cm;""><p>What type of rock is this?</p>","0","class_response","1","test","3","Andesite","Gabbro","10","false","1","4","",""
"","","","","","","","","","","","html-keyboard-response","210","2.0.0","692571","67131b8bef325ea544a658d0","1","53","null","","","","","","","","","<p style='font-size: 30px;'><strong>Okay</strong></p>","null","neutral_feedback","1","test","3","","","","","","","",""
"","","","","","","","","","","","html-button-response","211","2.0.0","693793","67131b8bef325ea544a658d0","1","53","1220","","","","","","","","","<img src= ""rock_img/I_Basalt_12.jpg"" style=""width:8cm; height:6.010000000000001cm;""><p>What type of rock is this?</p>","7","class_response","1","test","4","Pumice","Basalt","12","false","8","2","",""
"","","","","","","","","","","","html-keyboard-response","212","2.0.0","694295","67131b8bef325ea544a658d0","1","53","null","","","","","","","","","<p style='font-size: 30px;'><strong>Okay</strong></p>","null","neutral_feedback","1","test","4","","","","","","","",""
"","","","","","","","","","","","html-button-response","213","2.0.0","696681","67131b8bef325ea544a658d0","1","53","2384","","","","","","","","","<img src= ""rock_img/I_Peridotite_13.jpg"" style=""width:8cm; height:7.58cm;""><p>What type of rock is this?</p>","6","class_response","1","test","5","Peridotite","Peridotite","13","true","7","7","",""
"","","","","","","","","","","","html-keyboard-response","214","2.0.0","697193","67131b8bef325ea544a658d0","1","53","null","","","","","","","","","<p style='font-size: 30px;'><strong>Okay</strong></p>","null","neutral_feedback","1","test","5","","","","","","","",""
"","","","","","","","","","","","html-button-response","215","2.0.0","699289","67131b8bef325ea544a658d0","1","53","2094","","","","","","","","","<img src= ""rock_img/I_Basalt_08.jpg"" style=""width:8cm; height:10.44cm;""><p>What type of rock is this?</p>","3","class_response","1","test","6","Gabbro","Basalt","08","false","4","2","",""
"","","","","","","","","","","","html-keyboard-response","216","2.0.0","699802","67131b8bef325ea544a658d0","1","53","null","","","","","","","","","<p style='font-size: 30px;'><strong>Okay</strong></p>","null","neutral_feedback","1","test","6","","","","","","","",""
"","","","","","","","","","","","html-button-response","217","2.0.0","701640","67131b8bef325ea544a658d0","1","53","1836","","","","","","","","","<img src= ""rock_img/I_Basalt_05.jpg"" style=""width:8cm; height:8.18cm;""><p>What type of rock is this?</p>","3","class_response","1","test","7","Gabbro","Basalt","05","false","4","2","",""
"","","","","","","","","","","","html-keyboard-response","218","2.0.0","702145","67131b8bef325ea544a658d0","1","53","null","","","","","","","","","<p style='font-size: 30px;'><strong>Okay</strong></p>","null","neutral_feedback","1","test","7","","","","","","","",""
"","","","","","","","","","","","html-button-response","219","2.0.0","704648","67131b8bef325ea544a658d0","1","53","2502","","","","","","","","","<img src= ""rock_img/I_Peridotite_16.jpg"" style=""width:8cm; height:6.989999999999999cm;""><p>What type of rock is this?</p>","2","class_response","1","test","8","Diorite","Peridotite","16","false","3","7","",""
"","","","","","","","","","","","html-keyboard-response","220","2.0.0","705164","67131b8bef325ea544a658d0","1","53","null","","","","","","","","","<p style='font-size: 30px;'><strong>Okay</strong></p>","null","neutral_feedback","1","test","8","","","","","","","",""
"","","","","","","","","","","","html-button-response","221","2.0.0","707824","67131b8bef325ea544a658d0","1","53","2658","","","","","","","","","<img src= ""rock_img/I_Gabbro_01.jpg"" style=""width:8cm; height:5.21cm;""><p>What type of rock is this?</p>","6","class_response","1","test","9","Peridotite","Gabbro","01","false","7","4","",""
"","","","","","","","","","","","html-keyboard-response","222","2.0.0","708339","67131b8bef325ea544a658d0","1","53","null","","","","","","","","","<p style='font-size: 30px;'><strong>Okay</strong></p>","null","neutral_feedback","1","test","9","","","","","","","",""
"","","","","","","","","","","","html-button-response","223","2.0.0","709776","67131b8bef325ea544a658d0","1","53","1435","","","","","","","","","<img src= ""rock_img/I_Pumice_16.jpg"" style=""width:8cm; height:6.79cm;""><p>What type of rock is this?</p>","7","class_response","1","test","10","Pumice","Pumice","16","true","8","8","",""
"","","","","","","","","","","","html-keyboard-response","224","2.0.0","710283","67131b8bef325ea544a658d0","1","53","null","","","","","","","","","<p style='font-size: 30px;'><strong>Okay</strong></p>","null","neutral_feedback","1","test","10","","","","","","","",""
"","","","","","","","","","","","html-button-response","225","2.0.0","711232","67131b8bef325ea544a658d0","1","53","947","","","","","","","","","<img src= ""rock_img/I_Pumice_09.jpg"" style=""width:8cm; height:6.44cm;""><p>What type of rock is this?</p>","7","class_response","1","test","11","Pumice","Pumice","09","true","8","8","",""
"","","","","","","","","","","","html-keyboard-response","226","2.0.0","711742","67131b8bef325ea544a658d0","1","53","null","","","","","","","","","<p style='font-size: 30px;'><strong>Okay</strong></p>","null","neutral_feedback","1","test","11","","","","","","","",""
"","","","","","","","","","","","html-button-response","227","2.0.0","713368","67131b8bef325ea544a658d0","1","53","1625","","","","","","","","","<img src= ""rock_img/I_Obsidian_05.jpg"" style=""width:8cm; height:6.33cm;""><p>What type of rock is this?</p>","4","class_response","1","test","12","Obsidian","Obsidian","05","true","5","5","",""
"","","","","","","","","","","","html-keyboard-response","228","2.0.0","713870","67131b8bef325ea544a658d0","1","53","null","","","","","","","","","<p style='font-size: 30px;'><strong>Okay</strong></p>","null","neutral_feedback","1","test","12","","","","","","","",""
"","","","","","","","","","","","html-button-response","229","2.0.0","715336","67131b8bef325ea544a658d0","1","53","1464","","","","","","","","","<img src= ""rock_img/I_Gabbro_12.jpg"" style=""width:8cm; height:7.800000000000001cm;""><p>What type of rock is this?</p>","3","class_response","1","test","13","Gabbro","Gabbro","12","true","4","4","",""
"","","","","","","","","","","","html-keyboard-response","230","2.0.0","715843","67131b8bef325ea544a658d0","1","53","null","","","","","","","","","<p style='font-size: 30px;'><strong>Okay</strong></p>","null","neutral_feedback","1","test","13","","","","","","","",""
"","","","","","","","","","","","html-button-response","231","2.0.0","717616","67131b8bef325ea544a658d0","1","53","1772","","","","","","","","","<img src= ""rock_img/I_Diorite_08.jpg"" style=""width:8cm; height:6.37cm;""><p>What type of rock is this?</p>","2","class_response","1","test","14","Diorite","Diorite","08","true","3","3","",""
"","","","","","","","","","","","html-keyboard-response","232","2.0.0","718131","67131b8bef325ea544a658d0","1","53","null","","","","","","","","","<p style='font-size: 30px;'><strong>Okay</strong></p>","null","neutral_feedback","1","test","14","","","","","","","",""
"","","","","","","","","","","","html-button-response","233","2.0.0","720840","67131b8bef325ea544a658d0","1","53","2707","","","","","","","","","<img src= ""rock_img/I_Andesite_05.jpg"" style=""width:8cm; height:4.12cm;""><p>What type of rock is this?</p>","5","class_response","1","test","15","Pegmatite","Andesite","05","false","6","1","",""
"","","","","","","","","","","","html-keyboard-response","234","2.0.0","721348","67131b8bef325ea544a658d0","1","53","null","","","","","","","","","<p style='font-size: 30px;'><strong>Okay</strong></p>","null","neutral_feedback","1","test","15","","","","","","","",""
"","","","","","","","","","","","html-button-response","235","2.0.0","723032","67131b8bef325ea544a658d0","1","53","1682","","","","","","","","","<img src= ""rock_img/I_Pumice_04.jpg"" style=""width:8cm; height:6.819999999999999cm;""><p>What type of rock is this?</p>","7","class_response","1","test","16","Pumice","Pumice","04","true","8","8","",""
"","","","","","","","","","","","html-keyboard-response","236","2.0.0","723548","67131b8bef325ea544a658d0","1","53","null","","","","","","","","","<p style='font-size: 30px;'><strong>Okay</strong></p>","null","neutral_feedback","1","test","16","","","","","","","",""
"","","","","","","","","","","","html-button-response","237","2.0.0","733240","67131b8bef325ea544a658d0","1","53","9690","","","","","","","","","<img src= ""rock_img/I_Pegmatite_09.jpg"" style=""width:8cm; height:4.03cm;""><p>What type of rock is this?</p>","5","class_response","1","test","17","Pegmatite","Pegmatite","09","true","6","6","",""
"","","","","","","","","","","","html-keyboard-response","238","2.0.0","733747","67131b8bef325ea544a658d0","1","53","null","","","","","","","","","<p style='font-size: 30px;'><strong>Okay</strong></p>","null","neutral_feedback","1","test","17","","","","","","","",""
"","","","","","","","","","","","html-button-response","239","2.0.0","735832","67131b8bef325ea544a658d0","1","53","2083","","","","","","","","","<img src= ""rock_img/I_Peridotite_07.jpg"" style=""width:8cm; height:4.83cm;""><p>What type of rock is this?</p>","0","class_response","1","test","18","Andesite","Peridotite","07","false","1","7","",""
"","","","","","","","","","","","html-keyboard-response","240","2.0.0","736338","67131b8bef325ea544a658d0","1","53","null","","","","","","","","","<p style='font-size: 30px;'><strong>Okay</strong></p>","null","neutral_feedback","1","test","18","","","","","","","",""
"","","","","","","","","","","","html-button-response","241","2.0.0","737776","67131b8bef325ea544a658d0","1","53","1436","","","","","","","","","<img src= ""rock_img/I_Andesite_16.jpg"" style=""width:8cm; height:6.010000000000001cm;""><p>What type of rock is this?</p>","0","class_response","1","test","19","Andesite","Andesite","16","true","1","1","",""
"","","","","","","","","","","","html-keyboard-response","242","2.0.0","738291","67131b8bef325ea544a658d0","1","53","null","","","","","","","","","<p style='font-size: 30px;'><strong>Okay</strong></p>","null","neutral_feedback","1","test","19","","","","","","","",""
"","","","","","","","","","","","html-button-response","243","2.0.0","741073","67131b8bef325ea544a658d0","1","53","2779","","","","","","","","","<img src= ""rock_img/I_Pegmatite_12.jpg"" style=""width:8cm; height:5.7cm;""><p>What type of rock is this?</p>","5","class_response","1","test","20","Pegmatite","Pegmatite","12","true","6","6","",""
"","","","","","","","","","","","html-keyboard-response","244","2.0.0","741580","67131b8bef325ea544a658d0","1","53","null","","","","","","","","","<p style='font-size: 30px;'><strong>Okay</strong></p>","null","neutral_feedback","1","test","20","","","","","","","",""
"","","","","","","","","","","","html-button-response","245","2.0.0","744800","67131b8bef325ea544a658d0","1","53","3218","","","","","","","","","<img src= ""rock_img/I_Pegmatite_16.jpg"" style=""width:8cm; height:5.8cm;""><p>What type of rock is this?</p>","2","class_response","1","test","21","Diorite","Pegmatite","16","false","3","6","",""
"","","","","","","","","","","","html-keyboard-response","246","2.0.0","745303","67131b8bef325ea544a658d0","1","53","null","","","","","","","","","<p style='font-size: 30px;'><strong>Okay</strong></p>","null","neutral_feedback","1","test","21","","","","","","","",""
"","","","","","","","","","","","html-button-response","247","2.0.0","746736","67131b8bef325ea544a658d0","1","53","1431","","","","","","","","","<img src= ""rock_img/I_Obsidian_10.jpg"" style=""width:8cm; height:6.260000000000001cm;""><p>What type of rock is this?</p>","4","class_response","1","test","22","Obsidian","Obsidian","10","true","5","5","",""
"","","","","","","","","","","","html-keyboard-response","248","2.0.0","747248","67131b8bef325ea544a658d0","1","53","null","","","","","","","","","<p style='font-size: 30px;'><strong>Okay</strong></p>","null","neutral_feedback","1","test","22","","","","","","","",""
"","","","","","","","","","","","html-button-response","249","2.0.0","748640","67131b8bef325ea544a658d0","1","53","1390","","","","","","","","","<img src= ""rock_img/I_Diorite_10.jpg"" style=""width:8cm; height:5.949999999999999cm;""><p>What type of rock is this?</p>","2","class_response","1","test","23","Diorite","Diorite","10","true","3","3","",""
"","","","","","","","","","","","html-keyboard-response","250","2.0.0","749144","67131b8bef325ea544a658d0","1","53","null","","","","","","","","","<p style='font-size: 30px;'><strong>Okay</strong></p>","null","neutral_feedback","1","test","23","","","","","","","",""
"","","","","","","","","","","","html-button-response","251","2.0.0","750592","67131b8bef325ea544a658d0","1","53","1447","","","","","","","","","<img src= ""rock_img/I_Peridotite_05.jpg"" style=""width:8cm; height:7.1499999999999995cm;""><p>What type of rock is this?</p>","6","class_response","1","test","24","Peridotite","Peridotite","05","true","7","7","",""
"","","","","","","","","","","","html-keyboard-response","252","2.0.0","751103","67131b8bef325ea544a658d0","1","53","null","","","","","","","","","<p style='font-size: 30px;'><strong>Okay</strong></p>","null","neutral_feedback","1","test","24","","","","","","","",""
"","","","","","","","","","","","html-button-response","253","2.0.0","753344","67131b8bef325ea544a658d0","1","53","2239","","","","","","","","","<img src= ""rock_img/I_Pumice_13.jpg"" style=""width:8cm; height:8.200000000000001cm;""><p>What type of rock is this?</p>","7","class_response","1","test","25","Pumice","Pumice","13","true","8","8","",""
"","","","","","","","","","","","html-keyboard-response","254","2.0.0","753848","67131b8bef325ea544a658d0","1","53","null","","","","","","","","","<p style='font-size: 30px;'><strong>Okay</strong></p>","null","neutral_feedback","1","test","25","","","","","","","",""
"","","","","","","","","","","","html-button-response","255","2.0.0","756032","67131b8bef325ea544a658d0","1","53","2182","","","","","","","","","<img src= ""rock_img/I_Pegmatite_05.jpg"" style=""width:8cm; height:7.300000000000001cm;""><p>What type of rock is this?</p>","4","class_response","1","test","26","Obsidian","Pegmatite","05","false","5","6","",""
"","","","","","","","","","","","html-keyboard-response","256","2.0.0","756534","67131b8bef325ea544a658d0","1","53","null","","","","","","","","","<p style='font-size: 30px;'><strong>Okay</strong></p>","null","neutral_feedback","1","test","26","","","","","","","",""
"","","","","","","","","","","","html-button-response","257","2.0.0","757376","67131b8bef325ea544a658d0","1","53","840","","","","","","","","","<img src= ""rock_img/I_Gabbro_15.jpg"" style=""width:8cm; height:6.29cm;""><p>What type of rock is this?</p>","6","class_response","1","test","27","Peridotite","Gabbro","15","false","7","4","",""
"","","","","","","","","","","","html-keyboard-response","258","2.0.0","757878","67131b8bef325ea544a658d0","1","53","null","","","","","","","","","<p style='font-size: 30px;'><strong>Okay</strong></p>","null","neutral_feedback","1","test","27","","","","","","","",""
"","","","","","","","","","","","html-button-response","259","2.0.0","758576","67131b8bef325ea544a658d0","1","53","696","","","","","","","","","<img src= ""rock_img/I_Gabbro_16.jpg"" style=""width:8cm; height:6.44cm;""><p>What type of rock is this?</p>","1","class_response","1","test","28","Basalt","Gabbro","16","false","2","4","",""
"","","","","","","","","","","","html-keyboard-response","260","2.0.0","759080","67131b8bef325ea544a658d0","1","53","null","","","","","","","","","<p style='font-size: 30px;'><strong>Okay</strong></p>","null","neutral_feedback","1","test","28","","","","","","","",""
"","","","","","","","","","","","html-button-response","261","2.0.0","759616","67131b8bef325ea544a658d0","1","53","534","","","","","","","","","<img src= ""rock_img/I_Pegmatite_06.jpg"" style=""width:8cm; height:5.17cm;""><p>What type of rock is this?</p>","6","class_response","1","test","29","Peridotite","Pegmatite","06","false","7","6","",""
"","","","","","","","","","","","html-keyboard-response","262","2.0.0","760127","67131b8bef325ea544a658d0","1","53","null","","","","","","","","","<p style='font-size: 30px;'><strong>Okay</strong></p>","null","neutral_feedback","1","test","29","","","","","","","",""
"","","","","","","","","","","","html-button-response","263","2.0.0","761488","67131b8bef325ea544a658d0","1","53","1359","","","","","","","","","<img src= ""rock_img/I_Basalt_11.jpg"" style=""width:8cm; height:5.359999999999999cm;""><p>What type of rock is this?</p>","2","class_response","1","test","30","Diorite","Basalt","11","false","3","2","",""
"","","","","","","","","","","","html-keyboard-response","264","2.0.0","761992","67131b8bef325ea544a658d0","1","53","null","","","","","","","","","<p style='font-size: 30px;'><strong>Okay</strong></p>","null","neutral_feedback","1","test","30","","","","","","","",""
"","","","","","","","","","","","html-button-response","265","2.0.0","763176","67131b8bef325ea544a658d0","1","53","1182","","","","","","","","","<img src= ""rock_img/I_Basalt_14.jpg"" style=""width:8cm; height:5.82cm;""><p>What type of rock is this?</p>","7","class_response","1","test","31","Pumice","Basalt","14","false","8","2","",""
"","","","","","","","","","","","html-keyboard-response","266","2.0.0","763678","67131b8bef325ea544a658d0","1","53","null","","","","","","","","","<p style='font-size: 30px;'><strong>Okay</strong></p>","null","neutral_feedback","1","test","31","","","","","","","",""
"","","","","","","","","","","","html-button-response","267","2.0.0","764736","67131b8bef325ea544a658d0","1","53","1056","","","","","","","","","<img src= ""rock_img/I_Peridotite_14.jpg"" style=""width:8cm; height:5.3cm;""><p>What type of rock is this?</p>","6","class_response","1","test","32","Peridotite","Peridotite","14","true","7","7","",""
"","","","","","","","","","","","html-keyboard-response","268","2.0.0","765240","67131b8bef325ea544a658d0","1","53","null","","","","","","","","","<p style='font-size: 30px;'><strong>Okay</strong></p>","null","neutral_feedback","1","test","32","","","","","","","",""
"","","","","","","","","","","","html-button-response","269","2.0.0","766368","67131b8bef325ea544a658d0","1","53","1126","","","","","","","","","<img src= ""rock_img/I_Diorite_16.jpg"" style=""width:8cm; height:6.74cm;""><p>What type of rock is this?</p>","1","class_response","1","test","33","Basalt","Diorite","16","false","2","3","",""
"","","","","","","","","","","","html-keyboard-response","270","2.0.0","766871","67131b8bef325ea544a658d0","1","53","null","","","","","","","","","<p style='font-size: 30px;'><strong>Okay</strong></p>","null","neutral_feedback","1","test","33","","","","","","","",""
"","","","","","","","","","","","html-button-response","271","2.0.0","767632","67131b8bef325ea544a658d0","1","53","760","","","","","","","","","<img src= ""rock_img/I_Basalt_04.jpg"" style=""width:8cm; height:7.53cm;""><p>What type of rock is this?</p>","5","class_response","1","test","34","Pegmatite","Basalt","04","false","6","2","",""
"","","","","","","","","","","","html-keyboard-response","272","2.0.0","768134","67131b8bef325ea544a658d0","1","53","null","","","","","","","","","<p style='font-size: 30px;'><strong>Okay</strong></p>","null","neutral_feedback","1","test","34","","","","","","","",""
"","","","","","","","","","","","html-button-response","273","2.0.0","768976","67131b8bef325ea544a658d0","1","53","840","","","","","","","","","<img src= ""rock_img/I_Pumice_15.jpg"" style=""width:8cm; height:7.86cm;""><p>What type of rock is this?</p>","2","class_response","1","test","35","Diorite","Pumice","15","false","3","8","",""
"","","","","","","","","","","","html-keyboard-response","274","2.0.0","769480","67131b8bef325ea544a658d0","1","53","null","","","","","","","","","<p style='font-size: 30px;'><strong>Okay</strong></p>","null","neutral_feedback","1","test","35","","","","","","","",""
"","","","","","","","","","","","html-button-response","275","2.0.0","770088","67131b8bef325ea544a658d0","1","53","607","","","","","","","","","<img src= ""rock_img/I_Obsidian_14.jpg"" style=""width:8cm; height:7.64cm;""><p>What type of rock is this?</p>","6","class_response","1","test","36","Peridotite","Obsidian","14","false","7","5","",""
"","","","","","","","","","","","html-keyboard-response","276","2.0.0","770590","67131b8bef325ea544a658d0","1","53","null","","","","","","","","","<p style='font-size: 30px;'><strong>Okay</strong></p>","null","neutral_feedback","1","test","36","","","","","","","",""
"","","","","","","","","","","","html-button-response","277","2.0.0","771280","67131b8bef325ea544a658d0","1","53","688","","","","","","","","","<img src= ""rock_img/I_Andesite_01.jpg"" style=""width:8cm; height:5.87cm;""><p>What type of rock is this?</p>","2","class_response","1","test","37","Diorite","Andesite","01","false","3","1","",""
"","","","","","","","","","","","html-keyboard-response","278","2.0.0","771781","67131b8bef325ea544a658d0","1","53","null","","","","","","","","","<p style='font-size: 30px;'><strong>Okay</strong></p>","null","neutral_feedback","1","test","37","","","","","","","",""
"","","","","","","","","","","","html-button-response","279","2.0.0","772344","67131b8bef325ea544a658d0","1","53","561","","","","","","","","","<img src= ""rock_img/I_Andesite_14.jpg"" style=""width:8cm; height:5.449999999999999cm;""><p>What type of rock is this?</p>","4","class_response","1","test","38","Obsidian","Andesite","14","false","5","1","",""
"","","","","","","","","","","","html-keyboard-response","280","2.0.0","772854","67131b8bef325ea544a658d0","1","53","null","","","","","","","","","<p style='font-size: 30px;'><strong>Okay</strong></p>","null","neutral_feedback","1","test","38","","","","","","","",""
"","","","","","","","","","","","html-button-response","281","2.0.0","773488","67131b8bef325ea544a658d0","1","53","632","","","","","","","","","<img src= ""rock_img/I_Diorite_12.jpg"" style=""width:8cm; height:4.88cm;""><p>What type of rock is this?</p>","5","class_response","1","test","39","Pegmatite","Diorite","12","false","6","3","",""
"","","","","","","","","","","","html-keyboard-response","282","2.0.0","773991","67131b8bef325ea544a658d0","1","53","null","","","","","","","","","<p style='font-size: 30px;'><strong>Okay</strong></p>","null","neutral_feedback","1","test","39","","","","","","","",""
"","","","","","","","","","","","html-button-response","283","2.0.0","774496","67131b8bef325ea544a658d0","1","53","503","","","","","","","","","<img src= ""rock_img/I_Gabbro_05.jpg"" style=""width:8cm; height:6cm;""><p>What type of rock is this?</p>","2","class_response","1","test","40","Diorite","Gabbro","05","false","3","4","",""
"","","","","","","","","","","","html-keyboard-response","284","2.0.0","774998","67131b8bef325ea544a658d0","1","53","null","","","","","","","","","<p style='font-size: 30px;'><strong>Okay</strong></p>","null","neutral_feedback","1","test","40","","","","","","","",""
"","","","","","","","","","","","html-button-response","285","2.0.0","775784","67131b8bef325ea544a658d0","1","53","783","","","","","","","","","<img src= ""rock_img/I_Diorite_02.jpg"" style=""width:8cm; height:6.27cm;""><p>What type of rock is this?</p>","3","class_response","1","test","41","Gabbro","Diorite","02","false","4","3","",""
"","","","","","","","","","","","html-keyboard-response","286","2.0.0","776288","67131b8bef325ea544a658d0","1","53","null","","","","","","","","","<p style='font-size: 30px;'><strong>Okay</strong></p>","null","neutral_feedback","1","test","41","","","","","","","",""
"","","","","","","","","","","","html-button-response","287","2.0.0","777448","67131b8bef325ea544a658d0","1","53","1158","","","","","","","","","<img src= ""rock_img/I_Obsidian_02.jpg"" style=""width:8cm; height:7.51cm;""><p>What type of rock is this?</p>","4","class_response","1","test","42","Obsidian","Obsidian","02","true","5","5","",""
"","","","","","","","","","","","html-keyboard-response","288","2.0.0","777952","67131b8bef325ea544a658d0","1","53","null","","","","","","","","","<p style='font-size: 30px;'><strong>Okay</strong></p>","null","neutral_feedback","1","test","42","","","","","","","",""
"","","","","","","","","","","","html-button-response","289","2.0.0","779208","67131b8bef325ea544a658d0","1","53","1254","","","","","","","","","<img src= ""rock_img/I_Obsidian_11.jpg"" style=""width:8cm; height:6.05cm;""><p>What type of rock is this?</p>","4","class_response","1","test","43","Obsidian","Obsidian","11","true","5","5","",""
"","","","","","","","","","","","html-keyboard-response","290","2.0.0","779709","67131b8bef325ea544a658d0","1","53","null","","","","","","","","","<p style='font-size: 30px;'><strong>Okay</strong></p>","null","neutral_feedback","1","test","43","","","","","","","",""
"","","","","","","","","","","","html-button-response","291","2.0.0","781384","67131b8bef325ea544a658d0","1","53","1673","","","","","","","","","<img src= ""rock_img/I_Obsidian_07.jpg"" style=""width:8cm; height:4.76cm;""><p>What type of rock is this?</p>","4","class_response","1","test","44","Obsidian","Obsidian","07","true","5","5","",""
"","","","","","","","","","","","html-keyboard-response","292","2.0.0","781897","67131b8bef325ea544a658d0","1","53","null","","","","","","","","","<p style='font-size: 30px;'><strong>Okay</strong></p>","null","neutral_feedback","1","test","44","","","","","","","",""
"","","","","","","","","","","","html-button-response","293","2.0.0","783688","67131b8bef325ea544a658d0","1","53","1789","","","","","","","","","<img src= ""rock_img/I_Pumice_10.jpg"" style=""width:8cm; height:7.609999999999999cm;""><p>What type of rock is this?</p>","7","class_response","1","test","45","Pumice","Pumice","10","true","8","8","",""
"","","","","","","","","","","","html-keyboard-response","294","2.0.0","784195","67131b8bef325ea544a658d0","1","53","null","","","","","","","","","<p style='font-size: 30px;'><strong>Okay</strong></p>","null","neutral_feedback","1","test","45","","","","","","","",""
"","","","","","","","","","","","html-button-response","295","2.0.0","785448","67131b8bef325ea544a658d0","1","53","1251","","","","","","","","","<img src= ""rock_img/I_Andesite_02.jpg"" style=""width:8cm; height:8.5cm;""><p>What type of rock is this?</p>","7","class_response","1","test","46","Pumice","Andesite","02","false","8","1","",""
"","","","","","","","","","","","html-keyboard-response","296","2.0.0","785960","67131b8bef325ea544a658d0","1","53","null","","","","","","","","","<p style='font-size: 30px;'><strong>Okay</strong></p>","null","neutral_feedback","1","test","46","","","","","","","",""
"","","","","","","","","","","","html-button-response","297","2.0.0","786848","67131b8bef325ea544a658d0","1","53","886","","","","","","","","","<img src= ""rock_img/I_Pegmatite_11.jpg"" style=""width:8cm; height:8.14cm;""><p>What type of rock is this?</p>","6","class_response","1","test","47","Peridotite","Pegmatite","11","false","7","6","",""
"","","","","","","","","","","","html-keyboard-response","298","2.0.0","787364","67131b8bef325ea544a658d0","1","53","null","","","","","","","","","<p style='font-size: 30px;'><strong>Okay</strong></p>","null","neutral_feedback","1","test","47","","","","","","","",""
"","","","","","","","","","","","html-button-response","299","2.0.0","788104","67131b8bef325ea544a658d0","1","53","738","","","","","","","","","<img src= ""rock_img/I_Andesite_03.jpg"" style=""width:8cm; height:5.73cm;""><p>What type of rock is this?</p>","5","class_response","1","test","48","Pegmatite","Andesite","03","false","6","1","",""
"","","","","","","","","","","","html-keyboard-response","300","2.0.0","788606","67131b8bef325ea544a658d0","1","53","null","","","","","","","","","<p style='font-size: 30px;'><strong>Okay</strong></p>","null","neutral_feedback","1","test","48","","","","","","","",""
"","","","","","","","","","","","html-button-response","301","2.0.0","805104","67131b8bef325ea544a658d0","1","53","","","","","","","","","","","","cycle_feedback","","","","","","","","","","7174.89999999851","9311.5"
"","","","","","","","","","","","html-button-response","303","2.0.0","806471","67131b8bef325ea544a658d0","1","53","1366","","","","","","","","","","0","start_train","","","","","","","","","","",""
"","","","","","","","","","","","html-button-response","304","2.0.0","808448","67131b8bef325ea544a658d0","1","53","1974","","","","","","","","","<img src= ""rock_img/I_Pegmatite_08.jpg"" style=""width:8cm; height:7.68cm;""><p>What type of rock is this?</p>","4","class_response","2","train","1","Obsidian","Pegmatite","08","false","5","6","",""
