"width","height","webaudio","browser","browser_version","mobile","os","fullscreen","vsync_rate","webcam","microphone","trial_type","trial_index","plugin_version","time_elapsed","subjID","condition","stimID","rt","url","success","value","timeout","failed_images","failed_audio","failed_video","view_history","stimulus","response","trialType","cycle","phase","trial","resp","cat","token","corr","resp_num","cat_num","time_fb1","time_fb2"
"1522","688","true","chrome","130.0.0","false","Windows 10","true","167.27","true","true","browser-check","0","2.0.0","373","661ff00c03ba28739dd3fbef","1","4","","","","","","","","","","","","","","","","","","","","","","",""
"","","","","","","","","","","","external-html","1","2.0.0","5295","661ff00c03ba28739dd3fbef","1","4","4852","consent_form.html","","","","","","","","","","","","","","","","","","","","",""
"","","","","","","","","","","","fullscreen","2","2.0.0","8780","661ff00c03ba28739dd3fbef","1","4","2472","","true","","","","","","","","","","","","","","","","","","","",""
"","","","","","","","","","","","call-function","3","2.0.0","8781","661ff00c03ba28739dd3fbef","1","4","","","","{}","","","","","","","","","","","","","","","","","","",""
"","","","","","","","","","","","preload","4","2.0.0","11645","661ff00c03ba28739dd3fbef","1","4","","","true","","false","[]","[]","[]","","","","","","","","","","","","","","",""
"","","","","","","","","","","","instructions","5","2.0.0","57879","661ff00c03ba28739dd3fbef","1","4","46233","","","","","","","","[{""page_index"":0,""viewing_time"":15289},{""page_index"":1,""viewing_time"":19119},{""page_index"":2,""viewing_time"":11825}]","","","","","","","","","","","","","",""
"","","","","","","","","","","","html-button-response","6","2.0.0","60788","661ff00c03ba28739dd3fbef","1","4","2907","","","","","","","","","","0","start_test","","","","","","","","","","",""
"","","","","","","","","","","","html-button-response","7","2.0.0","85935","661ff00c03ba28739dd3fbef","1","4","25146","","","","","","","","","<img src= ""rock_img/I_Gabbro_16.jpg"" style=""width:8cm; height:6.44cm;""><p>What type of rock is this?</p>","7","class_response","0","test","1","Pumice","Gabbro","16","false","8","4","",""
"","","","","","","","","","","","html-keyboard-response","8","2.0.0","86443","661ff00c03ba28739dd3fbef","1","4","null","","","","","","","","","<p style='font-size: 30px;'><strong>Okay</strong></p>","null","neutral_feedback","0","test","1","","","","","","","",""
"","","","","","","","","","","","html-button-response","9","2.0.0","98259","661ff00c03ba28739dd3fbef","1","4","11814","","","","","","","","","<img src= ""rock_img/I_Andesite_06.jpg"" style=""width:8cm; height:6.840000000000001cm;""><p>What type of rock is this?</p>","5","class_response","0","test","2","Pegmatite","Andesite","06","false","6","1","",""
"","","","","","","","","","","","html-keyboard-response","10","2.0.0","98764","661ff00c03ba28739dd3fbef","1","4","null","","","","","","","","","<p style='font-size: 30px;'><strong>Okay</strong></p>","null","neutral_feedback","0","test","2","","","","","","","",""
"","","","","","","","","","","","html-button-response","11","2.0.0","135439","661ff00c03ba28739dd3fbef","1","4","36673","","","","","","","","","<img src= ""rock_img/I_Pumice_04.jpg"" style=""width:8cm; height:6.819999999999999cm;""><p>What type of rock is this?</p>","6","class_response","0","test","3","Peridotite","Pumice","04","false","7","8","",""
"","","","","","","","","","","","html-keyboard-response","12","2.0.0","135940","661ff00c03ba28739dd3fbef","1","4","null","","","","","","","","","<p style='font-size: 30px;'><strong>Okay</strong></p>","null","neutral_feedback","0","test","3","","","","","","","",""
"","","","","","","","","","","","html-button-response","13","2.0.0","157645","661ff00c03ba28739dd3fbef","1","4","21704","","","","","","","","","<img src= ""rock_img/I_Diorite_11.jpg"" style=""width:8cm; height:7.11cm;""><p>What type of rock is this?</p>","5","class_response","0","test","4","Pegmatite","Diorite","11","false","6","3","",""
"","","","","","","","","","","","html-keyboard-response","14","2.0.0","158158","661ff00c03ba28739dd3fbef","1","4","null","","","","","","","","","<p style='font-size: 30px;'><strong>Okay</strong></p>","null","neutral_feedback","0","test","4","","","","","","","",""
"","","","","","","","","","","","html-button-response","15","2.0.0","171482","661ff00c03ba28739dd3fbef","1","4","13323","","","","","","","","","<img src= ""rock_img/I_Gabbro_01.jpg"" style=""width:8cm; height:5.21cm;""><p>What type of rock is this?</p>","3","class_response","0","test","5","Gabbro","Gabbro","01","true","4","4","",""
"","","","","","","","","","","","html-keyboard-response","16","2.0.0","171990","661ff00c03ba28739dd3fbef","1","4","null","","","","","","","","","<p style='font-size: 30px;'><strong>Okay</strong></p>","null","neutral_feedback","0","test","5","","","","","","","",""
"","","","","","","","","","","","html-button-response","17","2.0.0","177396","661ff00c03ba28739dd3fbef","1","4","5406","","","","","","","","","<img src= ""rock_img/I_Andesite_01.jpg"" style=""width:8cm; height:5.87cm;""><p>What type of rock is this?</p>","1","class_response","0","test","6","Basalt","Andesite","01","false","2","1","",""
"","","","","","","","","","","","html-keyboard-response","18","2.0.0","177912","661ff00c03ba28739dd3fbef","1","4","null","","","","","","","","","<p style='font-size: 30px;'><strong>Okay</strong></p>","null","neutral_feedback","0","test","6","","","","","","","",""
"","","","","","","","","","","","html-button-response","19","2.0.0","244899","661ff00c03ba28739dd3fbef","1","4","66985","","","","","","","","","<img src= ""rock_img/I_Gabbro_14.jpg"" style=""width:8cm; height:8.48cm;""><p>What type of rock is this?</p>","3","class_response","0","test","7","Gabbro","Gabbro","14","true","4","4","",""
"","","","","","","","","","","","html-keyboard-response","20","2.0.0","245409","661ff00c03ba28739dd3fbef","1","4","null","","","","","","","","","<p style='font-size: 30px;'><strong>Okay</strong></p>","null","neutral_feedback","0","test","7","","","","","","","",""
"","","","","","","","","","","","html-button-response","21","2.0.0","379371","661ff00c03ba28739dd3fbef","1","4","133960","","","","","","","","","<img src= ""rock_img/I_Diorite_07.jpg"" style=""width:8cm; height:5.239999999999999cm;""><p>What type of rock is this?</p>","1","class_response","0","test","8","Basalt","Diorite","07","false","2","3","",""
"","","","","","","","","","","","html-keyboard-response","22","2.0.0","379885","661ff00c03ba28739dd3fbef","1","4","null","","","","","","","","","<p style='font-size: 30px;'><strong>Okay</strong></p>","null","neutral_feedback","0","test","8","","","","","","","",""
"","","","","","","","","","","","html-button-response","23","2.0.0","398828","661ff00c03ba28739dd3fbef","1","4","18941","","","","","","","","","<img src= ""rock_img/I_Pumice_03.jpg"" style=""width:8cm; height:6.64cm;""><p>What type of rock is this?</p>","7","class_response","0","test","9","Pumice","Pumice","03","true","8","8","",""
"","","","","","","","","","","","html-keyboard-response","24","2.0.0","399339","661ff00c03ba28739dd3fbef","1","4","null","","","","","","","","","<p style='font-size: 30px;'><strong>Okay</strong></p>","null","neutral_feedback","0","test","9","","","","","","","",""
"","","","","","","","","","","","html-button-response","25","2.0.0","455966","661ff00c03ba28739dd3fbef","1","4","56626","","","","","","","","","<img src= ""rock_img/I_Pegmatite_12.jpg"" style=""width:8cm; height:5.7cm;""><p>What type of rock is this?</p>","2","class_response","0","test","10","Diorite","Pegmatite","12","false","3","6","",""
"","","","","","","","","","","","html-keyboard-response","26","2.0.0","456474","661ff00c03ba28739dd3fbef","1","4","null","","","","","","","","","<p style='font-size: 30px;'><strong>Okay</strong></p>","null","neutral_feedback","0","test","10","","","","","","","",""
"","","","","","","","","","","","html-button-response","27","2.0.0","459855","661ff00c03ba28739dd3fbef","1","4","3380","","","","","","","","","<img src= ""rock_img/I_Andesite_07.jpg"" style=""width:8cm; height:5.93cm;""><p>What type of rock is this?</p>","0","class_response","0","test","11","Andesite","Andesite","07","true","1","1","",""
"","","","","","","","","","","","html-keyboard-response","28","2.0.0","460356","661ff00c03ba28739dd3fbef","1","4","null","","","","","","","","","<p style='font-size: 30px;'><strong>Okay</strong></p>","null","neutral_feedback","0","test","11","","","","","","","",""
"","","","","","","","","","","","html-button-response","29","2.0.0","491498","661ff00c03ba28739dd3fbef","1","4","31140","","","","","","","","","<img src= ""rock_img/I_Basalt_04.jpg"" style=""width:8cm; height:7.53cm;""><p>What type of rock is this?</p>","1","class_response","0","test","12","Basalt","Basalt","04","true","2","2","",""
"","","","","","","","","","","","html-keyboard-response","30","2.0.0","492007","661ff00c03ba28739dd3fbef","1","4","null","","","","","","","","","<p style='font-size: 30px;'><strong>Okay</strong></p>","null","neutral_feedback","0","test","12","","","","","","","",""
"","","","","","","","","","","","html-button-response","31","2.0.0","528074","661ff00c03ba28739dd3fbef","1","4","36065","","","","","","","","","<img src= ""rock_img/I_Diorite_16.jpg"" style=""width:8cm; height:6.74cm;""><p>What type of rock is this?</p>","0","class_response","0","test","13","Andesite","Diorite","16","false","1","3","",""
"","","","","","","","","","","","html-keyboard-response","32","2.0.0","528587","661ff00c03ba28739dd3fbef","1","4","null","","","","","","","","","<p style='font-size: 30px;'><strong>Okay</strong></p>","null","neutral_feedback","0","test","13","","","","","","","",""
"","","","","","","","","","","","html-button-response","33","2.0.0","571827","661ff00c03ba28739dd3fbef","1","4","43238","","","","","","","","","<img src= ""rock_img/I_Gabbro_08.jpg"" style=""width:8cm; height:5.15cm;""><p>What type of rock is this?</p>","0","class_response","0","test","14","Andesite","Gabbro","08","false","1","4","",""
"","","","","","","","","","","","html-keyboard-response","34","2.0.0","572337","661ff00c03ba28739dd3fbef","1","4","null","","","","","","","","","<p style='font-size: 30px;'><strong>Okay</strong></p>","null","neutral_feedback","0","test","14","","","","","","","",""
"","","","","","","","","","","","html-button-response","35","2.0.0","577171","661ff00c03ba28739dd3fbef","1","4","4833","","","","","","","","","<img src= ""rock_img/I_Pumice_15.jpg"" style=""width:8cm; height:7.86cm;""><p>What type of rock is this?</p>","7","class_response","0","test","15","Pumice","Pumice","15","true","8","8","",""
"","","","","","","","","","","","html-keyboard-response","36","2.0.0","577676","661ff00c03ba28739dd3fbef","1","4","null","","","","","","","","","<p style='font-size: 30px;'><strong>Okay</strong></p>","null","neutral_feedback","0","test","15","","","","","","","",""
"","","","","","","","","","","","html-button-response","37","2.0.0","590450","661ff00c03ba28739dd3fbef","1","4","12773","","","","","","","","","<img src= ""rock_img/I_Peridotite_12.jpg"" style=""width:8cm; height:4.54cm;""><p>What type of rock is this?</p>","7","class_response","0","test","16","Pumice","Peridotite","12","false","8","7","",""
"","","","","","","","","","","","html-keyboard-response","38","2.0.0","590954","661ff00c03ba28739dd3fbef","1","4","null","","","","","","","","","<p style='font-size: 30px;'><strong>Okay</strong></p>","null","neutral_feedback","0","test","16","","","","","","","",""
"","","","","","","","","","","","html-button-response","39","2.0.0","599273","661ff00c03ba28739dd3fbef","1","4","8319","","","","","","","","","<img src= ""rock_img/I_Peridotite_08.jpg"" style=""width:8cm; height:6.7cm;""><p>What type of rock is this?</p>","6","class_response","0","test","17","Peridotite","Peridotite","08","true","7","7","",""
"","","","","","","","","","","","html-keyboard-response","40","2.0.0","599774","661ff00c03ba28739dd3fbef","1","4","null","","","","","","","","","<p style='font-size: 30px;'><strong>Okay</strong></p>","null","neutral_feedback","0","test","17","","","","","","","",""
"","","","","","","","","","","","html-button-response","41","2.0.0","613769","661ff00c03ba28739dd3fbef","1","4","13994","","","","","","","","","<img src= ""rock_img/I_Gabbro_12.jpg"" style=""width:8cm; height:7.800000000000001cm;""><p>What type of rock is this?</p>","0","class_response","0","test","18","Andesite","Gabbro","12","false","1","4","",""
"","","","","","","","","","","","html-keyboard-response","42","2.0.0","614270","661ff00c03ba28739dd3fbef","1","4","null","","","","","","","","","<p style='font-size: 30px;'><strong>Okay</strong></p>","null","neutral_feedback","0","test","18","","","","","","","",""
"","","","","","","","","","","","html-button-response","43","2.0.0","615498","661ff00c03ba28739dd3fbef","1","4","1227","","","","","","","","","<img src= ""rock_img/I_Obsidian_02.jpg"" style=""width:8cm; height:7.51cm;""><p>What type of rock is this?</p>","4","class_response","0","test","19","Obsidian","Obsidian","02","true","5","5","",""
"","","","","","","","","","","","html-keyboard-response","44","2.0.0","616010","661ff00c03ba28739dd3fbef","1","4","null","","","","","","","","","<p style='font-size: 30px;'><strong>Okay</strong></p>","null","neutral_feedback","0","test","19","","","","","","","",""
"","","","","","","","","","","","html-button-response","45","2.0.0","619779","661ff00c03ba28739dd3fbef","1","4","3768","","","","","","","","","<img src= ""rock_img/I_Obsidian_14.jpg"" style=""width:8cm; height:7.64cm;""><p>What type of rock is this?</p>","4","class_response","0","test","20","Obsidian","Obsidian","14","true","5","5","",""
"","","","","","","","","","","","html-keyboard-response","46","2.0.0","620286","661ff00c03ba28739dd3fbef","1","4","null","","","","","","","","","<p style='font-size: 30px;'><strong>Okay</strong></p>","null","neutral_feedback","0","test","20","","","","","","","",""
"","","","","","","","","","","","html-button-response","47","2.0.0","625272","661ff00c03ba28739dd3fbef","1","4","4983","","","","","","","","","<img src= ""rock_img/I_Basalt_16.jpg"" style=""width:8cm; height:7.659999999999999cm;""><p>What type of rock is this?</p>","6","class_response","0","test","21","Peridotite","Basalt","16","false","7","2","",""
"","","","","","","","","","","","html-keyboard-response","48","2.0.0","625775","661ff00c03ba28739dd3fbef","1","4","null","","","","","","","","","<p style='font-size: 30px;'><strong>Okay</strong></p>","null","neutral_feedback","0","test","21","","","","","","","",""
"","","","","","","","","","","","html-button-response","49","2.0.0","627714","661ff00c03ba28739dd3fbef","1","4","1938","","","","","","","","","<img src= ""rock_img/I_Obsidian_09.jpg"" style=""width:8cm; height:5cm;""><p>What type of rock is this?</p>","4","class_response","0","test","22","Obsidian","Obsidian","09","true","5","5","",""
"","","","","","","","","","","","html-keyboard-response","50","2.0.0","628230","661ff00c03ba28739dd3fbef","1","4","null","","","","","","","","","<p style='font-size: 30px;'><strong>Okay</strong></p>","null","neutral_feedback","0","test","22","","","","","","","",""
"","","","","","","","","","","","html-button-response","51","2.0.0","636259","661ff00c03ba28739dd3fbef","1","4","8028","","","","","","","","","<img src= ""rock_img/I_Diorite_06.jpg"" style=""width:8cm; height:6.03cm;""><p>What type of rock is this?</p>","2","class_response","0","test","23","Diorite","Diorite","06","true","3","3","",""
"","","","","","","","","","","","html-keyboard-response","52","2.0.0","636762","661ff00c03ba28739dd3fbef","1","4","null","","","","","","","","","<p style='font-size: 30px;'><strong>Okay</strong></p>","null","neutral_feedback","0","test","23","","","","","","","",""
"","","","","","","","","","","","html-button-response","53","2.0.0","638542","661ff00c03ba28739dd3fbef","1","4","1779","","","","","","","","","<img src= ""rock_img/I_Gabbro_10.jpg"" style=""width:8cm; height:5.680000000000001cm;""><p>What type of rock is this?</p>","0","class_response","0","test","24","Andesite","Gabbro","10","false","1","4","",""
"","","","","","","","","","","","html-keyboard-response","54","2.0.0","639045","661ff00c03ba28739dd3fbef","1","4","null","","","","","","","","","<p style='font-size: 30px;'><strong>Okay</strong></p>","null","neutral_feedback","0","test","24","","","","","","","",""
"","","","","","","","","","","","html-button-response","55","2.0.0","643406","661ff00c03ba28739dd3fbef","1","4","4359","","","","","","","","","<img src= ""rock_img/I_Basalt_08.jpg"" style=""width:8cm; height:10.44cm;""><p>What type of rock is this?</p>","1","class_response","0","test","25","Basalt","Basalt","08","true","2","2","",""
"","","","","","","","","","","","html-keyboard-response","56","2.0.0","643911","661ff00c03ba28739dd3fbef","1","4","null","","","","","","","","","<p style='font-size: 30px;'><strong>Okay</strong></p>","null","neutral_feedback","0","test","25","","","","","","","",""
"","","","","","","","","","","","html-button-response","57","2.0.0","648842","661ff00c03ba28739dd3fbef","1","4","4930","","","","","","","","","<img src= ""rock_img/I_Andesite_03.jpg"" style=""width:8cm; height:5.73cm;""><p>What type of rock is this?</p>","1","class_response","0","test","26","Basalt","Andesite","03","false","2","1","",""
"","","","","","","","","","","","html-keyboard-response","58","2.0.0","649356","661ff00c03ba28739dd3fbef","1","4","null","","","","","","","","","<p style='font-size: 30px;'><strong>Okay</strong></p>","null","neutral_feedback","0","test","26","","","","","","","",""
"","","","","","","","","","","","html-button-response","59","2.0.0","653723","661ff00c03ba28739dd3fbef","1","4","4365","","","","","","","","","<img src= ""rock_img/I_Andesite_05.jpg"" style=""width:8cm; height:4.12cm;""><p>What type of rock is this?</p>","0","class_response","0","test","27","Andesite","Andesite","05","true","1","1","",""
"","","","","","","","","","","","html-keyboard-response","60","2.0.0","654239","661ff00c03ba28739dd3fbef","1","4","null","","","","","","","","","<p style='font-size: 30px;'><strong>Okay</strong></p>","null","neutral_feedback","0","test","27","","","","","","","",""
"","","","","","","","","","","","html-button-response","61","2.0.0","659307","661ff00c03ba28739dd3fbef","1","4","5066","","","","","","","","","<img src= ""rock_img/I_Pumice_14.jpg"" style=""width:8cm; height:6.39cm;""><p>What type of rock is this?</p>","7","class_response","0","test","28","Pumice","Pumice","14","true","8","8","",""
"","","","","","","","","","","","html-keyboard-response","62","2.0.0","659807","661ff00c03ba28739dd3fbef","1","4","null","","","","","","","","","<p style='font-size: 30px;'><strong>Okay</strong></p>","null","neutral_feedback","0","test","28","","","","","","","",""
"","","","","","","","","","","","html-button-response","63","2.0.0","665258","661ff00c03ba28739dd3fbef","1","4","5450","","","","","","","","","<img src= ""rock_img/I_Andesite_02.jpg"" style=""width:8cm; height:8.5cm;""><p>What type of rock is this?</p>","2","class_response","0","test","29","Diorite","Andesite","02","false","3","1","",""
"","","","","","","","","","","","html-keyboard-response","64","2.0.0","665772","661ff00c03ba28739dd3fbef","1","4","null","","","","","","","","","<p style='font-size: 30px;'><strong>Okay</strong></p>","null","neutral_feedback","0","test","29","","","","","","","",""
"","","","","","","","","","","","html-button-response","65","2.0.0","669551","661ff00c03ba28739dd3fbef","1","4","3777","","","","","","","","","<img src= ""rock_img/I_Peridotite_05.jpg"" style=""width:8cm; height:7.1499999999999995cm;""><p>What type of rock is this?</p>","0","class_response","0","test","30","Andesite","Peridotite","05","false","1","7","",""
"","","","","","","","","","","","html-keyboard-response","66","2.0.0","670059","661ff00c03ba28739dd3fbef","1","4","null","","","","","","","","","<p style='font-size: 30px;'><strong>Okay</strong></p>","null","neutral_feedback","0","test","30","","","","","","","",""
"","","","","","","","","","","","html-button-response","67","2.0.0","674106","661ff00c03ba28739dd3fbef","1","4","4046","","","","","","","","","<img src= ""rock_img/I_Pegmatite_10.jpg"" style=""width:8cm; height:4.16cm;""><p>What type of rock is this?</p>","6","class_response","0","test","31","Peridotite","Pegmatite","10","false","7","6","",""
"","","","","","","","","","","","html-keyboard-response","68","2.0.0","674621","661ff00c03ba28739dd3fbef","1","4","null","","","","","","","","","<p style='font-size: 30px;'><strong>Okay</strong></p>","null","neutral_feedback","0","test","31","","","","","","","",""
"","","","","","","","","","","","html-button-response","69","2.0.0","686962","661ff00c03ba28739dd3fbef","1","4","12340","","","","","","","","","<img src= ""rock_img/I_Obsidian_07.jpg"" style=""width:8cm; height:4.76cm;""><p>What type of rock is this?</p>","3","class_response","0","test","32","Gabbro","Obsidian","07","false","4","5","",""
"","","","","","","","","","","","html-keyboard-response","70","2.0.0","687465","661ff00c03ba28739dd3fbef","1","4","null","","","","","","","","","<p style='font-size: 30px;'><strong>Okay</strong></p>","null","neutral_feedback","0","test","32","","","","","","","",""
"","","","","","","","","","","","html-button-response","71","2.0.0","689506","661ff00c03ba28739dd3fbef","1","4","2040","","","","","","","","","<img src= ""rock_img/I_Obsidian_10.jpg"" style=""width:8cm; height:6.260000000000001cm;""><p>What type of rock is this?</p>","4","class_response","0","test","33","Obsidian","Obsidian","10","true","5","5","",""
"","","","","","","","","","","","html-keyboard-response","72","2.0.0","690009","661ff00c03ba28739dd3fbef","1","4","null","","","","","","","","","<p style='font-size: 30px;'><strong>Okay</strong></p>","null","neutral_feedback","0","test","33","","","","","","","",""
"","","","","","","","","","","","html-button-response","73","2.0.0","692795","661ff00c03ba28739dd3fbef","1","4","2785","","","","","","","","","<img src= ""rock_img/I_Pegmatite_16.jpg"" style=""width:8cm; height:5.8cm;""><p>What type of rock is this?</p>","2","class_response","0","test","34","Diorite","Pegmatite","16","false","3","6","",""
"","","","","","","","","","","","html-keyboard-response","74","2.0.0","693297","661ff00c03ba28739dd3fbef","1","4","null","","","","","","","","","<p style='font-size: 30px;'><strong>Okay</strong></p>","null","neutral_feedback","0","test","34","","","","","","","",""
"","","","","","","","","","","","html-button-response","75","2.0.0","694779","661ff00c03ba28739dd3fbef","1","4","1481","","","","","","","","","<img src= ""rock_img/I_Diorite_15.jpg"" style=""width:8cm; height:5.54cm;""><p>What type of rock is this?</p>","0","class_response","0","test","35","Andesite","Diorite","15","false","1","3","",""
"","","","","","","","","","","","html-keyboard-response","76","2.0.0","695288","661ff00c03ba28739dd3fbef","1","4","null","","","","","","","","","<p style='font-size: 30px;'><strong>Okay</strong></p>","null","neutral_feedback","0","test","35","","","","","","","",""
"","","","","","","","","","","","html-button-response","77","2.0.0","696990","661ff00c03ba28739dd3fbef","1","4","1700","","","","","","","","","<img src= ""rock_img/I_Pumice_09.jpg"" style=""width:8cm; height:6.44cm;""><p>What type of rock is this?</p>","7","class_response","0","test","36","Pumice","Pumice","09","true","8","8","",""
"","","","","","","","","","","","html-keyboard-response","78","2.0.0","697493","661ff00c03ba28739dd3fbef","1","4","null","","","","","","","","","<p style='font-size: 30px;'><strong>Okay</strong></p>","null","neutral_feedback","0","test","36","","","","","","","",""
"","","","","","","","","","","","html-button-response","79","2.0.0","699798","661ff00c03ba28739dd3fbef","1","4","2303","","","","","","","","","<img src= ""rock_img/I_Basalt_10.jpg"" style=""width:8cm; height:5.85cm;""><p>What type of rock is this?</p>","1","class_response","0","test","37","Basalt","Basalt","10","true","2","2","",""
"","","","","","","","","","","","html-keyboard-response","80","2.0.0","700309","661ff00c03ba28739dd3fbef","1","4","null","","","","","","","","","<p style='font-size: 30px;'><strong>Okay</strong></p>","null","neutral_feedback","0","test","37","","","","","","","",""
"","","","","","","","","","","","html-button-response","81","2.0.0","701511","661ff00c03ba28739dd3fbef","1","4","1200","","","","","","","","","<img src= ""rock_img/I_Basalt_09.jpg"" style=""width:8cm; height:6.2cm;""><p>What type of rock is this?</p>","1","class_response","0","test","38","Basalt","Basalt","09","true","2","2","",""
"","","","","","","","","","","","html-keyboard-response","82","2.0.0","702021","661ff00c03ba28739dd3fbef","1","4","null","","","","","","","","","<p style='font-size: 30px;'><strong>Okay</strong></p>","null","neutral_feedback","0","test","38","","","","","","","",""
"","","","","","","","","","","","html-button-response","83","2.0.0","703198","661ff00c03ba28739dd3fbef","1","4","1175","","","","","","","","","<img src= ""rock_img/I_Pumice_05.jpg"" style=""width:8cm; height:7.25cm;""><p>What type of rock is this?</p>","7","class_response","0","test","39","Pumice","Pumice","05","true","8","8","",""
"","","","","","","","","","","","html-keyboard-response","84","2.0.0","703708","661ff00c03ba28739dd3fbef","1","4","null","","","","","","","","","<p style='font-size: 30px;'><strong>Okay</strong></p>","null","neutral_feedback","0","test","39","","","","","","","",""
"","","","","","","","","","","","html-button-response","85","2.0.0","705339","661ff00c03ba28739dd3fbef","1","4","1630","","","","","","","","","<img src= ""rock_img/I_Peridotite_02.jpg"" style=""width:8cm; height:5.859999999999999cm;""><p>What type of rock is this?</p>","6","class_response","0","test","40","Peridotite","Peridotite","02","true","7","7","",""
"","","","","","","","","","","","html-keyboard-response","86","2.0.0","705842","661ff00c03ba28739dd3fbef","1","4","null","","","","","","","","","<p style='font-size: 30px;'><strong>Okay</strong></p>","null","neutral_feedback","0","test","40","","","","","","","",""
"","","","","","","","","","","","html-button-response","87","2.0.0","706939","661ff00c03ba28739dd3fbef","1","4","1096","","","","","","","","","<img src= ""rock_img/I_Obsidian_04.jpg"" style=""width:8cm; height:6.930000000000001cm;""><p>What type of rock is this?</p>","4","class_response","0","test","41","Obsidian","Obsidian","04","true","5","5","",""
"","","","","","","","","","","","html-keyboard-response","88","2.0.0","707450","661ff00c03ba28739dd3fbef","1","4","null","","","","","","","","","<p style='font-size: 30px;'><strong>Okay</strong></p>","null","neutral_feedback","0","test","41","","","","","","","",""
"","","","","","","","","","","","html-button-response","89","2.0.0","709366","661ff00c03ba28739dd3fbef","1","4","1915","","","","","","","","","<img src= ""rock_img/I_Peridotite_16.jpg"" style=""width:8cm; height:6.989999999999999cm;""><p>What type of rock is this?</p>","6","class_response","0","test","42","Peridotite","Peridotite","16","true","7","7","",""
"","","","","","","","","","","","html-keyboard-response","90","2.0.0","709872","661ff00c03ba28739dd3fbef","1","4","null","","","","","","","","","<p style='font-size: 30px;'><strong>Okay</strong></p>","null","neutral_feedback","0","test","42","","","","","","","",""
"","","","","","","","","","","","html-button-response","91","2.0.0","714758","661ff00c03ba28739dd3fbef","1","4","4886","","","","","","","","","<img src= ""rock_img/I_Pegmatite_07.jpg"" style=""width:8cm; height:6.7cm;""><p>What type of rock is this?</p>","0","class_response","0","test","43","Andesite","Pegmatite","07","false","1","6","",""
"","","","","","","","","","","","html-keyboard-response","92","2.0.0","715262","661ff00c03ba28739dd3fbef","1","4","null","","","","","","","","","<p style='font-size: 30px;'><strong>Okay</strong></p>","null","neutral_feedback","0","test","43","","","","","","","",""
"","","","","","","","","","","","html-button-response","93","2.0.0","716823","661ff00c03ba28739dd3fbef","1","4","1559","","","","","","","","","<img src= ""rock_img/I_Basalt_06.jpg"" style=""width:8cm; height:7.06cm;""><p>What type of rock is this?</p>","1","class_response","0","test","44","Basalt","Basalt","06","true","2","2","",""
"","","","","","","","","","","","html-keyboard-response","94","2.0.0","717334","661ff00c03ba28739dd3fbef","1","4","null","","","","","","","","","<p style='font-size: 30px;'><strong>Okay</strong></p>","null","neutral_feedback","0","test","44","","","","","","","",""
"","","","","","","","","","","","html-button-response","95","2.0.0","720098","661ff00c03ba28739dd3fbef","1","4","2762","","","","","","","","","<img src= ""rock_img/I_Peridotite_07.jpg"" style=""width:8cm; height:4.83cm;""><p>What type of rock is this?</p>","0","class_response","0","test","45","Andesite","Peridotite","07","false","1","7","",""
"","","","","","","","","","","","html-keyboard-response","96","2.0.0","720599","661ff00c03ba28739dd3fbef","1","4","null","","","","","","","","","<p style='font-size: 30px;'><strong>Okay</strong></p>","null","neutral_feedback","0","test","45","","","","","","","",""
"","","","","","","","","","","","html-button-response","97","2.0.0","723150","661ff00c03ba28739dd3fbef","1","4","2549","","","","","","","","","<img src= ""rock_img/I_Pegmatite_15.jpg"" style=""width:8cm; height:6cm;""><p>What type of rock is this?</p>","2","class_response","0","test","46","Diorite","Pegmatite","15","false","3","6","",""
"","","","","","","","","","","","html-keyboard-response","98","2.0.0","723655","661ff00c03ba28739dd3fbef","1","4","null","","","","","","","","","<p style='font-size: 30px;'><strong>Okay</strong></p>","null","neutral_feedback","0","test","46","","","","","","","",""
"","","","","","","","","","","","html-button-response","99","2.0.0","724869","661ff00c03ba28739dd3fbef","1","4","1213","","","","","","","","","<img src= ""rock_img/I_Diorite_12.jpg"" style=""width:8cm; height:4.88cm;""><p>What type of rock is this?</p>","2","class_response","0","test","47","Diorite","Diorite","12","true","3","3","",""
"","","","","","","","","","","","html-keyboard-response","100","2.0.0","725379","661ff00c03ba28739dd3fbef","1","4","null","","","","","","","","","<p style='font-size: 30px;'><strong>Okay</strong></p>","null","neutral_feedback","0","test","47","","","","","","","",""
"","","","","","","","","","","","html-button-response","101","2.0.0","728202","661ff00c03ba28739dd3fbef","1","4","2821","","","","","","","","","<img src= ""rock_img/I_Pegmatite_13.jpg"" style=""width:8cm; height:4.95cm;""><p>What type of rock is this?</p>","5","class_response","0","test","48","Pegmatite","Pegmatite","13","true","6","6","",""
"","","","","","","","","","","","html-keyboard-response","102","2.0.0","728705","661ff00c03ba28739dd3fbef","1","4","null","","","","","","","","","<p style='font-size: 30px;'><strong>Okay</strong></p>","null","neutral_feedback","0","test","48","","","","","","","",""
"","","","","","","","","","","","instructions","103","2.0.0","766363","661ff00c03ba28739dd3fbef","1","4","37632","","","","","","","","[{""page_index"":0,""viewing_time"":29710},{""page_index"":1,""viewing_time"":5213},{""page_index"":2,""viewing_time"":2709}]","","","","","","","","","","","","","",""
"","","","","","","","","","","","html-button-response","104","2.0.0","767678","661ff00c03ba28739dd3fbef","1","4","1314","","","","","","","","","","0","start_train","","","","","","","","","","",""
"","","","","","","","","","","","html-button-response","105","2.0.0","771434","661ff00c03ba28739dd3fbef","1","4","3754","","","","","","","","","<img src= ""rock_img/I_Basalt_02.jpg"" style=""width:8cm; height:6.45cm;""><p>What type of rock is this?</p>","1","class_response","1","train","1","Basalt","Basalt","02","true","2","2","",""
"","","","","","","","","","","","html-button-response","106","2.0.0","780511","661ff00c03ba28739dd3fbef","1","4","9076","","","","","","","","","<img src= rock_img/I_Basalt_02.jpg style=""width:8cm; height:6.45cm;""><p style='font-size: 30px; color: green;'><strong>Correct!</strong></p><p style='font-size: 30px;'><strong>This rock is basalt</strong></p>","0","corr_feedback","1","train","1","","","","","","","",""
"","","","","","","","","","","","html-button-response","107","2.0.0","783110","661ff00c03ba28739dd3fbef","1","4","2598","","","","","","","","","<img src= ""rock_img/I_Obsidian_06.jpg"" style=""width:8cm; height:6.8cm;""><p>What type of rock is this?</p>","4","class_response","1","train","2","Obsidian","Obsidian","06","true","5","5","",""
"","","","","","","","","","","","html-button-response","108","2.0.0","789772","661ff00c03ba28739dd3fbef","1","4","6661","","","","","","","","","<img src= rock_img/I_Obsidian_06.jpg style=""width:8cm; height:6.8cm;""><p style='font-size: 30px; color: green;'><strong>Correct!</strong></p><p style='font-size: 30px;'><strong>This rock is obsidian</strong></p>","0","corr_feedback","1","train","2","","","","","","","",""
"","","","","","","","","","","","html-button-response","109","2.0.0","791406","661ff00c03ba28739dd3fbef","1","4","1634","","","","","","","","","<img src= ""rock_img/I_Basalt_12.jpg"" style=""width:8cm; height:6.010000000000001cm;""><p>What type of rock is this?</p>","7","class_response","1","train","3","Pumice","Basalt","12","false","8","2","",""
"","","","","","","","","","","","html-button-response","110","2.0.0","795303","661ff00c03ba28739dd3fbef","1","4","3896","","","","","","","","","<img src= rock_img/I_Basalt_12.jpg style=""width:8cm; height:6.010000000000001cm;""><p style='font-size: 30px; color: red;'><strong>Incorrect!</strong></p><p style='font-size: 30px;'><strong>This rock is basalt</strong></p>","0","corr_feedback","1","train","3","","","","","","","",""
"","","","","","","","","","","","html-button-response","111","2.0.0","796998","661ff00c03ba28739dd3fbef","1","4","1694","","","","","","","","","<img src= ""rock_img/I_Basalt_11.jpg"" style=""width:8cm; height:5.359999999999999cm;""><p>What type of rock is this?</p>","1","class_response","1","train","4","Basalt","Basalt","11","true","2","2","",""
"","","","","","","","","","","","html-button-response","112","2.0.0","798127","661ff00c03ba28739dd3fbef","1","4","1128","","","","","","","","","<img src= rock_img/I_Basalt_11.jpg style=""width:8cm; height:5.359999999999999cm;""><p style='font-size: 30px; color: green;'><strong>Correct!</strong></p><p style='font-size: 30px;'><strong>This rock is basalt</strong></p>","0","corr_feedback","1","train","4","","","","","","","",""
"","","","","","","","","","","","html-button-response","113","2.0.0","799935","661ff00c03ba28739dd3fbef","1","4","1806","","","","","","","","","<img src= ""rock_img/I_Peridotite_06.jpg"" style=""width:8cm; height:7.53cm;""><p>What type of rock is this?</p>","6","class_response","1","train","5","Peridotite","Peridotite","06","true","7","7","",""
"","","","","","","","","","","","html-button-response","114","2.0.0","801151","661ff00c03ba28739dd3fbef","1","4","1215","","","","","","","","","<img src= rock_img/I_Peridotite_06.jpg style=""width:8cm; height:7.53cm;""><p style='font-size: 30px; color: green;'><strong>Correct!</strong></p><p style='font-size: 30px;'><strong>This rock is peridotite</strong></p>","0","corr_feedback","1","train","5","","","","","","","",""
"","","","","","","","","","","","html-button-response","115","2.0.0","802326","661ff00c03ba28739dd3fbef","1","4","1175","","","","","","","","","<img src= ""rock_img/I_Obsidian_16.jpg"" style=""width:8cm; height:9.3cm;""><p>What type of rock is this?</p>","4","class_response","1","train","6","Obsidian","Obsidian","16","true","5","5","",""
"","","","","","","","","","","","html-button-response","116","2.0.0","803275","661ff00c03ba28739dd3fbef","1","4","947","","","","","","","","","<img src= rock_img/I_Obsidian_16.jpg style=""width:8cm; height:9.3cm;""><p style='font-size: 30px; color: green;'><strong>Correct!</strong></p><p style='font-size: 30px;'><strong>This rock is obsidian</strong></p>","0","corr_feedback","1","train","6","","","","","","","",""
"","","","","","","","","","","","html-button-response","117","2.0.0","804839","661ff00c03ba28739dd3fbef","1","4","1563","","","","","","","","","<img src= ""rock_img/I_Diorite_10.jpg"" style=""width:8cm; height:5.949999999999999cm;""><p>What type of rock is this?</p>","0","class_response","1","train","7","Andesite","Diorite","10","false","1","3","",""
"","","","","","","","","","","","html-button-response","118","2.0.0","807862","661ff00c03ba28739dd3fbef","1","4","3023","","","","","","","","","<img src= rock_img/I_Diorite_10.jpg style=""width:8cm; height:5.949999999999999cm;""><p style='font-size: 30px; color: red;'><strong>Incorrect!</strong></p><p style='font-size: 30px;'><strong>This rock is diorite</strong></p>","0","corr_feedback","1","train","7","","","","","","","",""
"","","","","","","","","","","","html-button-response","119","2.0.0","809683","661ff00c03ba28739dd3fbef","1","4","1819","","","","","","","","","<img src= ""rock_img/I_Pumice_08.jpg"" style=""width:8cm; height:6.67cm;""><p>What type of rock is this?</p>","7","class_response","1","train","8","Pumice","Pumice","08","true","8","8","",""
"","","","","","","","","","","","html-button-response","120","2.0.0","810811","661ff00c03ba28739dd3fbef","1","4","1127","","","","","","","","","<img src= rock_img/I_Pumice_08.jpg style=""width:8cm; height:6.67cm;""><p style='font-size: 30px; color: green;'><strong>Correct!</strong></p><p style='font-size: 30px;'><strong>This rock is pumice</strong></p>","0","corr_feedback","1","train","8","","","","","","","",""
"","","","","","","","","","","","html-button-response","121","2.0.0","812490","661ff00c03ba28739dd3fbef","1","4","1679","","","","","","","","","<img src= ""rock_img/I_Peridotite_15.jpg"" style=""width:8cm; height:6cm;""><p>What type of rock is this?</p>","6","class_response","1","train","9","Peridotite","Peridotite","15","true","7","7","",""
"","","","","","","","","","","","html-button-response","122","2.0.0","813370","661ff00c03ba28739dd3fbef","1","4","879","","","","","","","","","<img src= rock_img/I_Peridotite_15.jpg style=""width:8cm; height:6cm;""><p style='font-size: 30px; color: green;'><strong>Correct!</strong></p><p style='font-size: 30px;'><strong>This rock is peridotite</strong></p>","0","corr_feedback","1","train","9","","","","","","","",""
"","","","","","","","","","","","html-button-response","123","2.0.0","815595","661ff00c03ba28739dd3fbef","1","4","2224","","","","","","","","","<img src= ""rock_img/I_Andesite_11.jpg"" style=""width:8cm; height:4.92cm;""><p>What type of rock is this?</p>","1","class_response","1","train","10","Basalt","Andesite","11","false","2","1","",""
"","","","","","","","","","","","html-button-response","124","2.0.0","816863","661ff00c03ba28739dd3fbef","1","4","1267","","","","","","","","","<img src= rock_img/I_Andesite_11.jpg style=""width:8cm; height:4.92cm;""><p style='font-size: 30px; color: red;'><strong>Incorrect!</strong></p><p style='font-size: 30px;'><strong>This rock is andesite</strong></p>","0","corr_feedback","1","train","10","","","","","","","",""
"","","","","","","","","","","","html-button-response","125","2.0.0","818564","661ff00c03ba28739dd3fbef","1","4","1700","","","","","","","","","<img src= ""rock_img/I_Andesite_10.jpg"" style=""width:8cm; height:4.16cm;""><p>What type of rock is this?</p>","0","class_response","1","train","11","Andesite","Andesite","10","true","1","1","",""
"","","","","","","","","","","","html-button-response","126","2.0.0","819487","661ff00c03ba28739dd3fbef","1","4","922","","","","","","","","","<img src= rock_img/I_Andesite_10.jpg style=""width:8cm; height:4.16cm;""><p style='font-size: 30px; color: green;'><strong>Correct!</strong></p><p style='font-size: 30px;'><strong>This rock is andesite</strong></p>","0","corr_feedback","1","train","11","","","","","","","",""
"","","","","","","","","","","","html-button-response","127","2.0.0","821654","661ff00c03ba28739dd3fbef","1","4","2166","","","","","","","","","<img src= ""rock_img/I_Gabbro_09.jpg"" style=""width:8cm; height:7.279999999999999cm;""><p>What type of rock is this?</p>","1","class_response","1","train","12","Basalt","Gabbro","09","false","2","4","",""
"","","","","","","","","","","","html-button-response","128","2.0.0","822662","661ff00c03ba28739dd3fbef","1","4","1007","","","","","","","","","<img src= rock_img/I_Gabbro_09.jpg style=""width:8cm; height:7.279999999999999cm;""><p style='font-size: 30px; color: red;'><strong>Incorrect!</strong></p><p style='font-size: 30px;'><strong>This rock is gabbro</strong></p>","0","corr_feedback","1","train","12","","","","","","","",""
"","","","","","","","","","","","html-button-response","129","2.0.0","824163","661ff00c03ba28739dd3fbef","1","4","1500","","","","","","","","","<img src= ""rock_img/I_Peridotite_13.jpg"" style=""width:8cm; height:7.58cm;""><p>What type of rock is this?</p>","6","class_response","1","train","13","Peridotite","Peridotite","13","true","7","7","",""
"","","","","","","","","","","","html-button-response","130","2.0.0","824934","661ff00c03ba28739dd3fbef","1","4","770","","","","","","","","","<img src= rock_img/I_Peridotite_13.jpg style=""width:8cm; height:7.58cm;""><p style='font-size: 30px; color: green;'><strong>Correct!</strong></p><p style='font-size: 30px;'><strong>This rock is peridotite</strong></p>","0","corr_feedback","1","train","13","","","","","","","",""
"","","","","","","","","","","","html-button-response","131","2.0.0","827218","661ff00c03ba28739dd3fbef","1","4","2283","","","","","","","","","<img src= ""rock_img/I_Pegmatite_03.jpg"" style=""width:8cm; height:5.239999999999999cm;""><p>What type of rock is this?</p>","6","class_response","1","train","14","Peridotite","Pegmatite","03","false","7","6","",""
"","","","","","","","","","","","html-button-response","132","2.0.0","829592","661ff00c03ba28739dd3fbef","1","4","2372","","","","","","","","","<img src= rock_img/I_Pegmatite_03.jpg style=""width:8cm; height:5.239999999999999cm;""><p style='font-size: 30px; color: red;'><strong>Incorrect!</strong></p><p style='font-size: 30px;'><strong>This rock is pegmatite</strong></p>","0","corr_feedback","1","train","14","","","","","","","",""
"","","","","","","","","","","","html-button-response","133","2.0.0","831490","661ff00c03ba28739dd3fbef","1","4","1898","","","","","","","","","<img src= ""rock_img/I_Pegmatite_11.jpg"" style=""width:8cm; height:8.14cm;""><p>What type of rock is this?</p>","5","class_response","1","train","15","Pegmatite","Pegmatite","11","true","6","6","",""
"","","","","","","","","","","","html-button-response","134","2.0.0","832426","661ff00c03ba28739dd3fbef","1","4","935","","","","","","","","","<img src= rock_img/I_Pegmatite_11.jpg style=""width:8cm; height:8.14cm;""><p style='font-size: 30px; color: green;'><strong>Correct!</strong></p><p style='font-size: 30px;'><strong>This rock is pegmatite</strong></p>","0","corr_feedback","1","train","15","","","","","","","",""
"","","","","","","","","","","","html-button-response","135","2.0.0","833746","661ff00c03ba28739dd3fbef","1","4","1319","","","","","","","","","<img src= ""rock_img/I_Pumice_06.jpg"" style=""width:8cm; height:6.9399999999999995cm;""><p>What type of rock is this?</p>","7","class_response","1","train","16","Pumice","Pumice","06","true","8","8","",""
"","","","","","","","","","","","html-button-response","136","2.0.0","834463","661ff00c03ba28739dd3fbef","1","4","716","","","","","","","","","<img src= rock_img/I_Pumice_06.jpg style=""width:8cm; height:6.9399999999999995cm;""><p style='font-size: 30px; color: green;'><strong>Correct!</strong></p><p style='font-size: 30px;'><strong>This rock is pumice</strong></p>","0","corr_feedback","1","train","16","","","","","","","",""
"","","","","","","","","","","","html-button-response","137","2.0.0","836194","661ff00c03ba28739dd3fbef","1","4","1730","","","","","","","","","<img src= ""rock_img/I_Diorite_13.jpg"" style=""width:8cm; height:6.29cm;""><p>What type of rock is this?</p>","2","class_response","1","train","17","Diorite","Diorite","13","true","3","3","",""
"","","","","","","","","","","","html-button-response","138","2.0.0","836850","661ff00c03ba28739dd3fbef","1","4","655","","","","","","","","","<img src= rock_img/I_Diorite_13.jpg style=""width:8cm; height:6.29cm;""><p style='font-size: 30px; color: green;'><strong>Correct!</strong></p><p style='font-size: 30px;'><strong>This rock is diorite</strong></p>","0","corr_feedback","1","train","17","","","","","","","",""
"","","","","","","","","","","","html-button-response","139","2.0.0","838326","661ff00c03ba28739dd3fbef","1","4","1475","","","","","","","","","<img src= ""rock_img/I_Andesite_14.jpg"" style=""width:8cm; height:5.449999999999999cm;""><p>What type of rock is this?</p>","1","class_response","1","train","18","Basalt","Andesite","14","false","2","1","",""
"","","","","","","","","","","","html-button-response","140","2.0.0","839146","661ff00c03ba28739dd3fbef","1","4","819","","","","","","","","","<img src= rock_img/I_Andesite_14.jpg style=""width:8cm; height:5.449999999999999cm;""><p style='font-size: 30px; color: red;'><strong>Incorrect!</strong></p><p style='font-size: 30px;'><strong>This rock is andesite</strong></p>","0","corr_feedback","1","train","18","","","","","","","",""
"","","","","","","","","","","","html-button-response","141","2.0.0","840198","661ff00c03ba28739dd3fbef","1","4","1051","","","","","","","","","<img src= ""rock_img/I_Obsidian_11.jpg"" style=""width:8cm; height:6.05cm;""><p>What type of rock is this?</p>","4","class_response","1","train","19","Obsidian","Obsidian","11","true","5","5","",""
"","","","","","","","","","","","html-button-response","142","2.0.0","840970","661ff00c03ba28739dd3fbef","1","4","771","","","","","","","","","<img src= rock_img/I_Obsidian_11.jpg style=""width:8cm; height:6.05cm;""><p style='font-size: 30px; color: green;'><strong>Correct!</strong></p><p style='font-size: 30px;'><strong>This rock is obsidian</strong></p>","0","corr_feedback","1","train","19","","","","","","","",""
"","","","","","","","","","","","html-button-response","143","2.0.0","842507","661ff00c03ba28739dd3fbef","1","4","1536","","","","","","","","","<img src= ""rock_img/I_Pumice_10.jpg"" style=""width:8cm; height:7.609999999999999cm;""><p>What type of rock is this?</p>","7","class_response","1","train","20","Pumice","Pumice","10","true","8","8","",""
"","","","","","","","","","","","html-button-response","144","2.0.0","843214","661ff00c03ba28739dd3fbef","1","4","706","","","","","","","","","<img src= rock_img/I_Pumice_10.jpg style=""width:8cm; height:7.609999999999999cm;""><p style='font-size: 30px; color: green;'><strong>Correct!</strong></p><p style='font-size: 30px;'><strong>This rock is pumice</strong></p>","0","corr_feedback","1","train","20","","","","","","","",""
"","","","","","","","","","","","html-button-response","145","2.0.0","844398","661ff00c03ba28739dd3fbef","1","4","1183","","","","","","","","","<img src= ""rock_img/I_Basalt_01.jpg"" style=""width:8cm; height:7.880000000000001cm;""><p>What type of rock is this?</p>","1","class_response","1","train","21","Basalt","Basalt","01","true","2","2","",""
"","","","","","","","","","","","html-button-response","146","2.0.0","845114","661ff00c03ba28739dd3fbef","1","4","715","","","","","","","","","<img src= rock_img/I_Basalt_01.jpg style=""width:8cm; height:7.880000000000001cm;""><p style='font-size: 30px; color: green;'><strong>Correct!</strong></p><p style='font-size: 30px;'><strong>This rock is basalt</strong></p>","0","corr_feedback","1","train","21","","","","","","","",""
"","","","","","","","","","","","html-button-response","147","2.0.0","846539","661ff00c03ba28739dd3fbef","1","4","1424","","","","","","","","","<img src= ""rock_img/I_Gabbro_13.jpg"" style=""width:8cm; height:5.08cm;""><p>What type of rock is this?</p>","0","class_response","1","train","22","Andesite","Gabbro","13","false","1","4","",""
"","","","","","","","","","","","html-button-response","148","2.0.0","847362","661ff00c03ba28739dd3fbef","1","4","822","","","","","","","","","<img src= rock_img/I_Gabbro_13.jpg style=""width:8cm; height:5.08cm;""><p style='font-size: 30px; color: red;'><strong>Incorrect!</strong></p><p style='font-size: 30px;'><strong>This rock is gabbro</strong></p>","0","corr_feedback","1","train","22","","","","","","","",""
"","","","","","","","","","","","html-button-response","149","2.0.0","848911","661ff00c03ba28739dd3fbef","1","4","1547","","","","","","","","","<img src= ""rock_img/I_Andesite_16.jpg"" style=""width:8cm; height:6.010000000000001cm;""><p>What type of rock is this?</p>","0","class_response","1","train","23","Andesite","Andesite","16","true","1","1","",""
"","","","","","","","","","","","html-button-response","150","2.0.0","849570","661ff00c03ba28739dd3fbef","1","4","659","","","","","","","","","<img src= rock_img/I_Andesite_16.jpg style=""width:8cm; height:6.010000000000001cm;""><p style='font-size: 30px; color: green;'><strong>Correct!</strong></p><p style='font-size: 30px;'><strong>This rock is andesite</strong></p>","0","corr_feedback","1","train","23","","","","","","","",""
"","","","","","","","","","","","html-button-response","151","2.0.0","852374","661ff00c03ba28739dd3fbef","1","4","2803","","","","","","","","","<img src= ""rock_img/I_Peridotite_04.jpg"" style=""width:8cm; height:6.680000000000001cm;""><p>What type of rock is this?</p>","5","class_response","1","train","24","Pegmatite","Peridotite","04","false","6","7","",""
"","","","","","","","","","","","html-button-response","152","2.0.0","853315","661ff00c03ba28739dd3fbef","1","4","940","","","","","","","","","<img src= rock_img/I_Peridotite_04.jpg style=""width:8cm; height:6.680000000000001cm;""><p style='font-size: 30px; color: red;'><strong>Incorrect!</strong></p><p style='font-size: 30px;'><strong>This rock is peridotite</strong></p>","0","corr_feedback","1","train","24","","","","","","","",""
"","","","","","","","","","","","html-button-response","153","2.0.0","854642","661ff00c03ba28739dd3fbef","1","4","1326","","","","","","","","","<img src= ""rock_img/I_Basalt_05.jpg"" style=""width:8cm; height:8.18cm;""><p>What type of rock is this?</p>","1","class_response","1","train","25","Basalt","Basalt","05","true","2","2","",""
"","","","","","","","","","","","html-button-response","154","2.0.0","855282","661ff00c03ba28739dd3fbef","1","4","639","","","","","","","","","<img src= rock_img/I_Basalt_05.jpg style=""width:8cm; height:8.18cm;""><p style='font-size: 30px; color: green;'><strong>Correct!</strong></p><p style='font-size: 30px;'><strong>This rock is basalt</strong></p>","0","corr_feedback","1","train","25","","","","","","","",""
"","","","","","","","","","","","html-button-response","155","2.0.0","856515","661ff00c03ba28739dd3fbef","1","4","1231","","","","","","","","","<img src= ""rock_img/I_Pumice_16.jpg"" style=""width:8cm; height:6.79cm;""><p>What type of rock is this?</p>","7","class_response","1","train","26","Pumice","Pumice","16","true","8","8","",""
"","","","","","","","","","","","html-button-response","156","2.0.0","857226","661ff00c03ba28739dd3fbef","1","4","710","","","","","","","","","<img src= rock_img/I_Pumice_16.jpg style=""width:8cm; height:6.79cm;""><p style='font-size: 30px; color: green;'><strong>Correct!</strong></p><p style='font-size: 30px;'><strong>This rock is pumice</strong></p>","0","corr_feedback","1","train","26","","","","","","","",""
"","","","","","","","","","","","html-button-response","157","2.0.0","858137","661ff00c03ba28739dd3fbef","1","4","910","","","","","","","","","<img src= ""rock_img/I_Obsidian_12.jpg"" style=""width:8cm; height:6.53cm;""><p>What type of rock is this?</p>","4","class_response","1","train","27","Obsidian","Obsidian","12","true","5","5","",""
"","","","","","","","","","","","html-button-response","158","2.0.0","858781","661ff00c03ba28739dd3fbef","1","4","643","","","","","","","","","<img src= rock_img/I_Obsidian_12.jpg style=""width:8cm; height:6.53cm;""><p style='font-size: 30px; color: green;'><strong>Correct!</strong></p><p style='font-size: 30px;'><strong>This rock is obsidian</strong></p>","0","corr_feedback","1","train","27","","","","","","","",""
"","","","","","","","","","","","html-button-response","159","2.0.0","859913","661ff00c03ba28739dd3fbef","1","4","1131","","","","","","","","","<img src= ""rock_img/I_Pumice_02.jpg"" style=""width:8cm; height:7.3999999999999995cm;""><p>What type of rock is this?</p>","7","class_response","1","train","28","Pumice","Pumice","02","true","8","8","",""
"","","","","","","","","","","","html-button-response","160","2.0.0","860498","661ff00c03ba28739dd3fbef","1","4","584","","","","","","","","","<img src= rock_img/I_Pumice_02.jpg style=""width:8cm; height:7.3999999999999995cm;""><p style='font-size: 30px; color: green;'><strong>Correct!</strong></p><p style='font-size: 30px;'><strong>This rock is pumice</strong></p>","0","corr_feedback","1","train","28","","","","","","","",""
"","","","","","","","","","","","html-button-response","161","2.0.0","862669","661ff00c03ba28739dd3fbef","1","4","2170","","","","","","","","","<img src= ""rock_img/I_Pegmatite_06.jpg"" style=""width:8cm; height:5.17cm;""><p>What type of rock is this?</p>","5","class_response","1","train","29","Pegmatite","Pegmatite","06","true","6","6","",""
"","","","","","","","","","","","html-button-response","162","2.0.0","863346","661ff00c03ba28739dd3fbef","1","4","675","","","","","","","","","<img src= rock_img/I_Pegmatite_06.jpg style=""width:8cm; height:5.17cm;""><p style='font-size: 30px; color: green;'><strong>Correct!</strong></p><p style='font-size: 30px;'><strong>This rock is pegmatite</strong></p>","0","corr_feedback","1","train","29","","","","","","","",""
"","","","","","","","","","","","html-button-response","163","2.0.0","867262","661ff00c03ba28739dd3fbef","1","4","3915","","","","","","","","","<img src= ""rock_img/I_Gabbro_15.jpg"" style=""width:8cm; height:6.29cm;""><p>What type of rock is this?</p>","0","class_response","1","train","30","Andesite","Gabbro","15","false","1","4","",""
"","","","","","","","","","","","html-button-response","164","2.0.0","869158","661ff00c03ba28739dd3fbef","1","4","1895","","","","","","","","","<img src= rock_img/I_Gabbro_15.jpg style=""width:8cm; height:6.29cm;""><p style='font-size: 30px; color: red;'><strong>Incorrect!</strong></p><p style='font-size: 30px;'><strong>This rock is gabbro</strong></p>","0","corr_feedback","1","train","30","","","","","","","",""
"","","","","","","","","","","","html-button-response","165","2.0.0","870506","661ff00c03ba28739dd3fbef","1","4","1347","","","","","","","","","<img src= ""rock_img/I_Diorite_09.jpg"" style=""width:8cm; height:5.27cm;""><p>What type of rock is this?</p>","2","class_response","1","train","31","Diorite","Diorite","09","true","3","3","",""
"","","","","","","","","","","","html-button-response","166","2.0.0","871107","661ff00c03ba28739dd3fbef","1","4","600","","","","","","","","","<img src= rock_img/I_Diorite_09.jpg style=""width:8cm; height:5.27cm;""><p style='font-size: 30px; color: green;'><strong>Correct!</strong></p><p style='font-size: 30px;'><strong>This rock is diorite</strong></p>","0","corr_feedback","1","train","31","","","","","","","",""
"","","","","","","","","","","","html-button-response","167","2.0.0","873246","661ff00c03ba28739dd3fbef","1","4","2138","","","","","","","","","<img src= ""rock_img/I_Pegmatite_09.jpg"" style=""width:8cm; height:4.03cm;""><p>What type of rock is this?</p>","5","class_response","1","train","32","Pegmatite","Pegmatite","09","true","6","6","",""
"","","","","","","","","","","","html-button-response","168","2.0.0","873890","661ff00c03ba28739dd3fbef","1","4","644","","","","","","","","","<img src= rock_img/I_Pegmatite_09.jpg style=""width:8cm; height:4.03cm;""><p style='font-size: 30px; color: green;'><strong>Correct!</strong></p><p style='font-size: 30px;'><strong>This rock is pegmatite</strong></p>","0","corr_feedback","1","train","32","","","","","","","",""
"","","","","","","","","","","","html-button-response","169","2.0.0","875150","661ff00c03ba28739dd3fbef","1","4","1259","","","","","","","","","<img src= ""rock_img/I_Diorite_08.jpg"" style=""width:8cm; height:6.37cm;""><p>What type of rock is this?</p>","2","class_response","1","train","33","Diorite","Diorite","08","true","3","3","",""
"","","","","","","","","","","","html-button-response","170","2.0.0","875762","661ff00c03ba28739dd3fbef","1","4","611","","","","","","","","","<img src= rock_img/I_Diorite_08.jpg style=""width:8cm; height:6.37cm;""><p style='font-size: 30px; color: green;'><strong>Correct!</strong></p><p style='font-size: 30px;'><strong>This rock is diorite</strong></p>","0","corr_feedback","1","train","33","","","","","","","",""
"","","","","","","","","","","","html-button-response","171","2.0.0","876778","661ff00c03ba28739dd3fbef","1","4","1016","","","","","","","","","<img src= ""rock_img/I_Obsidian_08.jpg"" style=""width:8cm; height:7.39cm;""><p>What type of rock is this?</p>","4","class_response","1","train","34","Obsidian","Obsidian","08","true","5","5","",""
"","","","","","","","","","","","html-button-response","172","2.0.0","877887","661ff00c03ba28739dd3fbef","1","4","1108","","","","","","","","","<img src= rock_img/I_Obsidian_08.jpg style=""width:8cm; height:7.39cm;""><p style='font-size: 30px; color: green;'><strong>Correct!</strong></p><p style='font-size: 30px;'><strong>This rock is obsidian</strong></p>","0","corr_feedback","1","train","34","","","","","","","",""
"","","","","","","","","","","","html-button-response","173","2.0.0","879018","661ff00c03ba28739dd3fbef","1","4","1131","","","","","","","","","<img src= ""rock_img/I_Gabbro_03.jpg"" style=""width:8cm; height:8.52cm;""><p>What type of rock is this?</p>","0","class_response","1","train","35","Andesite","Gabbro","03","false","1","4","",""
"","","","","","","","","","","","html-button-response","174","2.0.0","881234","661ff00c03ba28739dd3fbef","1","4","2215","","","","","","","","","<img src= rock_img/I_Gabbro_03.jpg style=""width:8cm; height:8.52cm;""><p style='font-size: 30px; color: red;'><strong>Incorrect!</strong></p><p style='font-size: 30px;'><strong>This rock is gabbro</strong></p>","0","corr_feedback","1","train","35","","","","","","","",""
"","","","","","","","","","","","html-button-response","175","2.0.0","883003","661ff00c03ba28739dd3fbef","1","4","1768","","","","","","","","","<img src= ""rock_img/I_Peridotite_14.jpg"" style=""width:8cm; height:5.3cm;""><p>What type of rock is this?</p>","6","class_response","1","train","36","Peridotite","Peridotite","14","true","7","7","",""
"","","","","","","","","","","","html-button-response","176","2.0.0","883654","661ff00c03ba28739dd3fbef","1","4","651","","","","","","","","","<img src= rock_img/I_Peridotite_14.jpg style=""width:8cm; height:5.3cm;""><p style='font-size: 30px; color: green;'><strong>Correct!</strong></p><p style='font-size: 30px;'><strong>This rock is peridotite</strong></p>","0","corr_feedback","1","train","36","","","","","","","",""
"","","","","","","","","","","","html-button-response","177","2.0.0","887210","661ff00c03ba28739dd3fbef","1","4","3555","","","","","","","","","<img src= ""rock_img/I_Pumice_13.jpg"" style=""width:8cm; height:8.200000000000001cm;""><p>What type of rock is this?</p>","7","class_response","1","train","37","Pumice","Pumice","13","true","8","8","",""
"","","","","","","","","","","","html-button-response","178","2.0.0","887846","661ff00c03ba28739dd3fbef","1","4","635","","","","","","","","","<img src= rock_img/I_Pumice_13.jpg style=""width:8cm; height:8.200000000000001cm;""><p style='font-size: 30px; color: green;'><strong>Correct!</strong></p><p style='font-size: 30px;'><strong>This rock is pumice</strong></p>","0","corr_feedback","1","train","37","","","","","","","",""
"","","","","","","","","","","","html-button-response","179","2.0.0","889710","661ff00c03ba28739dd3fbef","1","4","1864","","","","","","","","","<img src= ""rock_img/I_Andesite_04.jpg"" style=""width:8cm; height:5.96cm;""><p>What type of rock is this?</p>","0","class_response","1","train","38","Andesite","Andesite","04","true","1","1","",""
"","","","","","","","","","","","html-button-response","180","2.0.0","890363","661ff00c03ba28739dd3fbef","1","4","651","","","","","","","","","<img src= rock_img/I_Andesite_04.jpg style=""width:8cm; height:5.96cm;""><p style='font-size: 30px; color: green;'><strong>Correct!</strong></p><p style='font-size: 30px;'><strong>This rock is andesite</strong></p>","0","corr_feedback","1","train","38","","","","","","","",""
"","","","","","","","","","","","html-button-response","181","2.0.0","892946","661ff00c03ba28739dd3fbef","1","4","2583","","","","","","","","","<img src= ""rock_img/I_Pegmatite_05.jpg"" style=""width:8cm; height:7.300000000000001cm;""><p>What type of rock is this?</p>","4","class_response","1","train","39","Obsidian","Pegmatite","05","false","5","6","",""
"","","","","","","","","","","","html-button-response","182","2.0.0","894034","661ff00c03ba28739dd3fbef","1","4","1087","","","","","","","","","<img src= rock_img/I_Pegmatite_05.jpg style=""width:8cm; height:7.300000000000001cm;""><p style='font-size: 30px; color: red;'><strong>Incorrect!</strong></p><p style='font-size: 30px;'><strong>This rock is pegmatite</strong></p>","0","corr_feedback","1","train","39","","","","","","","",""
"","","","","","","","","","","","html-button-response","183","2.0.0","895730","661ff00c03ba28739dd3fbef","1","4","1695","","","","","","","","","<img src= ""rock_img/I_Obsidian_05.jpg"" style=""width:8cm; height:6.33cm;""><p>What type of rock is this?</p>","4","class_response","1","train","40","Obsidian","Obsidian","05","true","5","5","",""
"","","","","","","","","","","","html-button-response","184","2.0.0","896354","661ff00c03ba28739dd3fbef","1","4","623","","","","","","","","","<img src= rock_img/I_Obsidian_05.jpg style=""width:8cm; height:6.33cm;""><p style='font-size: 30px; color: green;'><strong>Correct!</strong></p><p style='font-size: 30px;'><strong>This rock is obsidian</strong></p>","0","corr_feedback","1","train","40","","","","","","","",""
"","","","","","","","","","","","html-button-response","185","2.0.0","897834","661ff00c03ba28739dd3fbef","1","4","1479","","","","","","","","","<img src= ""rock_img/I_Diorite_02.jpg"" style=""width:8cm; height:6.27cm;""><p>What type of rock is this?</p>","2","class_response","1","train","41","Diorite","Diorite","02","true","3","3","",""
"","","","","","","","","","","","html-button-response","186","2.0.0","898438","661ff00c03ba28739dd3fbef","1","4","603","","","","","","","","","<img src= rock_img/I_Diorite_02.jpg style=""width:8cm; height:6.27cm;""><p style='font-size: 30px; color: green;'><strong>Correct!</strong></p><p style='font-size: 30px;'><strong>This rock is diorite</strong></p>","0","corr_feedback","1","train","41","","","","","","","",""
"","","","","","","","","","","","html-button-response","187","2.0.0","901131","661ff00c03ba28739dd3fbef","1","4","2691","","","","","","","","","<img src= ""rock_img/I_Basalt_14.jpg"" style=""width:8cm; height:5.82cm;""><p>What type of rock is this?</p>","1","class_response","1","train","42","Basalt","Basalt","14","true","2","2","",""
"","","","","","","","","","","","html-button-response","188","2.0.0","901822","661ff00c03ba28739dd3fbef","1","4","690","","","","","","","","","<img src= rock_img/I_Basalt_14.jpg style=""width:8cm; height:5.82cm;""><p style='font-size: 30px; color: green;'><strong>Correct!</strong></p><p style='font-size: 30px;'><strong>This rock is basalt</strong></p>","0","corr_feedback","1","train","42","","","","","","","",""
"","","","","","","","","","","","html-button-response","189","2.0.0","903610","661ff00c03ba28739dd3fbef","1","4","1787","","","","","","","","","<img src= ""rock_img/I_Gabbro_05.jpg"" style=""width:8cm; height:6cm;""><p>What type of rock is this?</p>","0","class_response","1","train","43","Andesite","Gabbro","05","false","1","4","",""
"","","","","","","","","","","","html-button-response","190","2.0.0","904594","661ff00c03ba28739dd3fbef","1","4","983","","","","","","","","","<img src= rock_img/I_Gabbro_05.jpg style=""width:8cm; height:6cm;""><p style='font-size: 30px; color: red;'><strong>Incorrect!</strong></p><p style='font-size: 30px;'><strong>This rock is gabbro</strong></p>","0","corr_feedback","1","train","43","","","","","","","",""
"","","","","","","","","","","","html-button-response","191","2.0.0","905754","661ff00c03ba28739dd3fbef","1","4","1159","","","","","","","","","<img src= ""rock_img/I_Peridotite_10.jpg"" style=""width:8cm; height:5.390000000000001cm;""><p>What type of rock is this?</p>","0","class_response","1","train","44","Andesite","Peridotite","10","false","1","7","",""
"","","","","","","","","","","","html-button-response","192","2.0.0","907295","661ff00c03ba28739dd3fbef","1","4","1540","","","","","","","","","<img src= rock_img/I_Peridotite_10.jpg style=""width:8cm; height:5.390000000000001cm;""><p style='font-size: 30px; color: red;'><strong>Incorrect!</strong></p><p style='font-size: 30px;'><strong>This rock is peridotite</strong></p>","0","corr_feedback","1","train","44","","","","","","","",""
"","","","","","","","","","","","html-button-response","193","2.0.0","908499","661ff00c03ba28739dd3fbef","1","4","1203","","","","","","","","","<img src= ""rock_img/I_Gabbro_11.jpg"" style=""width:8cm; height:6.2cm;""><p>What type of rock is this?</p>","1","class_response","1","train","45","Basalt","Gabbro","11","false","2","4","",""
"","","","","","","","","","","","html-button-response","194","2.0.0","909130","661ff00c03ba28739dd3fbef","1","4","630","","","","","","","","","<img src= rock_img/I_Gabbro_11.jpg style=""width:8cm; height:6.2cm;""><p style='font-size: 30px; color: red;'><strong>Incorrect!</strong></p><p style='font-size: 30px;'><strong>This rock is gabbro</strong></p>","0","corr_feedback","1","train","45","","","","","","","",""
"","","","","","","","","","","","html-button-response","195","2.0.0","910826","661ff00c03ba28739dd3fbef","1","4","1695","","","","","","","","","<img src= ""rock_img/I_Pegmatite_08.jpg"" style=""width:8cm; height:7.68cm;""><p>What type of rock is this?</p>","5","class_response","1","train","46","Pegmatite","Pegmatite","08","true","6","6","",""
"","","","","","","","","","","","html-button-response","196","2.0.0","911435","661ff00c03ba28739dd3fbef","1","4","609","","","","","","","","","<img src= rock_img/I_Pegmatite_08.jpg style=""width:8cm; height:7.68cm;""><p style='font-size: 30px; color: green;'><strong>Correct!</strong></p><p style='font-size: 30px;'><strong>This rock is pegmatite</strong></p>","0","corr_feedback","1","train","46","","","","","","","",""
"","","","","","","","","","","","html-button-response","197","2.0.0","912775","661ff00c03ba28739dd3fbef","1","4","1338","","","","","","","","","<img src= ""rock_img/I_Andesite_09.jpg"" style=""width:8cm; height:6cm;""><p>What type of rock is this?</p>","0","class_response","1","train","47","Andesite","Andesite","09","true","1","1","",""
"","","","","","","","","","","","html-button-response","198","2.0.0","913402","661ff00c03ba28739dd3fbef","1","4","626","","","","","","","","","<img src= rock_img/I_Andesite_09.jpg style=""width:8cm; height:6cm;""><p style='font-size: 30px; color: green;'><strong>Correct!</strong></p><p style='font-size: 30px;'><strong>This rock is andesite</strong></p>","0","corr_feedback","1","train","47","","","","","","","",""
"","","","","","","","","","","","html-button-response","199","2.0.0","914914","661ff00c03ba28739dd3fbef","1","4","1511","","","","","","","","","<img src= ""rock_img/I_Diorite_14.jpg"" style=""width:8cm; height:5.71cm;""><p>What type of rock is this?</p>","2","class_response","1","train","48","Diorite","Diorite","14","true","3","3","",""
"","","","","","","","","","","","html-button-response","200","2.0.0","915441","661ff00c03ba28739dd3fbef","1","4","526","","","","","","","","","<img src= rock_img/I_Diorite_14.jpg style=""width:8cm; height:5.71cm;""><p style='font-size: 30px; color: green;'><strong>Correct!</strong></p><p style='font-size: 30px;'><strong>This rock is diorite</strong></p>","0","corr_feedback","1","train","48","","","","","","","",""
"","","","","","","","","","","","instructions","203","2.0.0","935450","661ff00c03ba28739dd3fbef","1","4","20008","","","","","","","","[{""page_index"":0,""viewing_time"":6520},{""page_index"":1,""viewing_time"":13488}]","","","","","","","","","","","","","",""
"","","","","","","","","","","","html-button-response","204","2.0.0","936395","661ff00c03ba28739dd3fbef","1","4","944","","","","","","","","","","0","start_test","","","","","","","","","","",""
"","","","","","","","","","","","html-button-response","205","2.0.0","942826","661ff00c03ba28739dd3fbef","1","4","6430","","","","","","","","","<img src= ""rock_img/I_Gabbro_08.jpg"" style=""width:8cm; height:5.15cm;""><p>What type of rock is this?</p>","0","class_response","1","test","1","Andesite","Gabbro","08","false","1","4","",""
"","","","","","","","","","","","html-keyboard-response","206","2.0.0","943337","661ff00c03ba28739dd3fbef","1","4","null","","","","","","","","","<p style='font-size: 30px;'><strong>Okay</strong></p>","null","neutral_feedback","1","test","1","","","","","","","",""
"","","","","","","","","","","","html-button-response","207","2.0.0","947018","661ff00c03ba28739dd3fbef","1","4","3680","","","","","","","","","<img src= ""rock_img/I_Basalt_16.jpg"" style=""width:8cm; height:7.659999999999999cm;""><p>What type of rock is this?</p>","1","class_response","1","test","2","Basalt","Basalt","16","true","2","2","",""
"","","","","","","","","","","","html-keyboard-response","208","2.0.0","947528","661ff00c03ba28739dd3fbef","1","4","null","","","","","","","","","<p style='font-size: 30px;'><strong>Okay</strong></p>","null","neutral_feedback","1","test","2","","","","","","","",""
"","","","","","","","","","","","html-button-response","209","2.0.0","949122","661ff00c03ba28739dd3fbef","1","4","1593","","","","","","","","","<img src= ""rock_img/I_Obsidian_10.jpg"" style=""width:8cm; height:6.260000000000001cm;""><p>What type of rock is this?</p>","4","class_response","1","test","3","Obsidian","Obsidian","10","true","5","5","",""
"","","","","","","","","","","","html-keyboard-response","210","2.0.0","949630","661ff00c03ba28739dd3fbef","1","4","null","","","","","","","","","<p style='font-size: 30px;'><strong>Okay</strong></p>","null","neutral_feedback","1","test","3","","","","","","","",""
"","","","","","","","","","","","html-button-response","211","2.0.0","950794","661ff00c03ba28739dd3fbef","1","4","1162","","","","","","","","","<img src= ""rock_img/I_Basalt_09.jpg"" style=""width:8cm; height:6.2cm;""><p>What type of rock is this?</p>","1","class_response","1","test","4","Basalt","Basalt","09","true","2","2","",""
"","","","","","","","","","","","html-keyboard-response","212","2.0.0","951308","661ff00c03ba28739dd3fbef","1","4","null","","","","","","","","","<p style='font-size: 30px;'><strong>Okay</strong></p>","null","neutral_feedback","1","test","4","","","","","","","",""
"","","","","","","","","","","","html-button-response","213","2.0.0","952491","661ff00c03ba28739dd3fbef","1","4","1181","","","","","","","","","<img src= ""rock_img/I_Basalt_04.jpg"" style=""width:8cm; height:7.53cm;""><p>What type of rock is this?</p>","1","class_response","1","test","5","Basalt","Basalt","04","true","2","2","",""
"","","","","","","","","","","","html-keyboard-response","214","2.0.0","952998","661ff00c03ba28739dd3fbef","1","4","null","","","","","","","","","<p style='font-size: 30px;'><strong>Okay</strong></p>","null","neutral_feedback","1","test","5","","","","","","","",""
"","","","","","","","","","","","html-button-response","215","2.0.0","955454","661ff00c03ba28739dd3fbef","1","4","2455","","","","","","","","","<img src= ""rock_img/I_Pegmatite_12.jpg"" style=""width:8cm; height:5.7cm;""><p>What type of rock is this?</p>","2","class_response","1","test","6","Diorite","Pegmatite","12","false","3","6","",""
"","","","","","","","","","","","html-keyboard-response","216","2.0.0","955968","661ff00c03ba28739dd3fbef","1","4","null","","","","","","","","","<p style='font-size: 30px;'><strong>Okay</strong></p>","null","neutral_feedback","1","test","6","","","","","","","",""
"","","","","","","","","","","","html-button-response","217","2.0.0","960282","661ff00c03ba28739dd3fbef","1","4","4312","","","","","","","","","<img src= ""rock_img/I_Gabbro_10.jpg"" style=""width:8cm; height:5.680000000000001cm;""><p>What type of rock is this?</p>","1","class_response","1","test","7","Basalt","Gabbro","10","false","2","4","",""
"","","","","","","","","","","","html-keyboard-response","218","2.0.0","960785","661ff00c03ba28739dd3fbef","1","4","null","","","","","","","","","<p style='font-size: 30px;'><strong>Okay</strong></p>","null","neutral_feedback","1","test","7","","","","","","","",""
"","","","","","","","","","","","html-button-response","219","2.0.0","962035","661ff00c03ba28739dd3fbef","1","4","1249","","","","","","","","","<img src= ""rock_img/I_Peridotite_02.jpg"" style=""width:8cm; height:5.859999999999999cm;""><p>What type of rock is this?</p>","6","class_response","1","test","8","Peridotite","Peridotite","02","true","7","7","",""
"","","","","","","","","","","","html-keyboard-response","220","2.0.0","962539","661ff00c03ba28739dd3fbef","1","4","null","","","","","","","","","<p style='font-size: 30px;'><strong>Okay</strong></p>","null","neutral_feedback","1","test","8","","","","","","","",""
"","","","","","","","","","","","html-button-response","221","2.0.0","965322","661ff00c03ba28739dd3fbef","1","4","2781","","","","","","","","","<img src= ""rock_img/I_Gabbro_14.jpg"" style=""width:8cm; height:8.48cm;""><p>What type of rock is this?</p>","3","class_response","1","test","9","Gabbro","Gabbro","14","true","4","4","",""
"","","","","","","","","","","","html-keyboard-response","222","2.0.0","965825","661ff00c03ba28739dd3fbef","1","4","null","","","","","","","","","<p style='font-size: 30px;'><strong>Okay</strong></p>","null","neutral_feedback","1","test","9","","","","","","","",""
"","","","","","","","","","","","html-button-response","223","2.0.0","967359","661ff00c03ba28739dd3fbef","1","4","1533","","","","","","","","","<img src= ""rock_img/I_Peridotite_05.jpg"" style=""width:8cm; height:7.1499999999999995cm;""><p>What type of rock is this?</p>","0","class_response","1","test","10","Andesite","Peridotite","05","false","1","7","",""
"","","","","","","","","","","","html-keyboard-response","224","2.0.0","967870","661ff00c03ba28739dd3fbef","1","4","null","","","","","","","","","<p style='font-size: 30px;'><strong>Okay</strong></p>","null","neutral_feedback","1","test","10","","","","","","","",""
"","","","","","","","","","","","html-button-response","225","2.0.0","969859","661ff00c03ba28739dd3fbef","1","4","1987","","","","","","","","","<img src= ""rock_img/I_Pegmatite_16.jpg"" style=""width:8cm; height:5.8cm;""><p>What type of rock is this?</p>","5","class_response","1","test","11","Pegmatite","Pegmatite","16","true","6","6","",""
"","","","","","","","","","","","html-keyboard-response","226","2.0.0","970369","661ff00c03ba28739dd3fbef","1","4","null","","","","","","","","","<p style='font-size: 30px;'><strong>Okay</strong></p>","null","neutral_feedback","1","test","11","","","","","","","",""
"","","","","","","","","","","","html-button-response","227","2.0.0","971763","661ff00c03ba28739dd3fbef","1","4","1393","","","","","","","","","<img src= ""rock_img/I_Pegmatite_15.jpg"" style=""width:8cm; height:6cm;""><p>What type of rock is this?</p>","5","class_response","1","test","12","Pegmatite","Pegmatite","15","true","6","6","",""
"","","","","","","","","","","","html-keyboard-response","228","2.0.0","972274","661ff00c03ba28739dd3fbef","1","4","null","","","","","","","","","<p style='font-size: 30px;'><strong>Okay</strong></p>","null","neutral_feedback","1","test","12","","","","","","","",""
"","","","","","","","","","","","html-button-response","229","2.0.0","975091","661ff00c03ba28739dd3fbef","1","4","2816","","","","","","","","","<img src= ""rock_img/I_Pegmatite_07.jpg"" style=""width:8cm; height:6.7cm;""><p>What type of rock is this?</p>","5","class_response","1","test","13","Pegmatite","Pegmatite","07","true","6","6","",""
"","","","","","","","","","","","html-keyboard-response","230","2.0.0","975598","661ff00c03ba28739dd3fbef","1","4","null","","","","","","","","","<p style='font-size: 30px;'><strong>Okay</strong></p>","null","neutral_feedback","1","test","13","","","","","","","",""
"","","","","","","","","","","","html-button-response","231","2.0.0","977230","661ff00c03ba28739dd3fbef","1","4","1631","","","","","","","","","<img src= ""rock_img/I_Diorite_06.jpg"" style=""width:8cm; height:6.03cm;""><p>What type of rock is this?</p>","2","class_response","1","test","14","Diorite","Diorite","06","true","3","3","",""
"","","","","","","","","","","","html-keyboard-response","232","2.0.0","977741","661ff00c03ba28739dd3fbef","1","4","null","","","","","","","","","<p style='font-size: 30px;'><strong>Okay</strong></p>","null","neutral_feedback","1","test","14","","","","","","","",""
"","","","","","","","","","","","html-button-response","233","2.0.0","978994","661ff00c03ba28739dd3fbef","1","4","1252","","","","","","","","","<img src= ""rock_img/I_Pumice_05.jpg"" style=""width:8cm; height:7.25cm;""><p>What type of rock is this?</p>","7","class_response","1","test","15","Pumice","Pumice","05","true","8","8","",""
"","","","","","","","","","","","html-keyboard-response","234","2.0.0","979496","661ff00c03ba28739dd3fbef","1","4","null","","","","","","","","","<p style='font-size: 30px;'><strong>Okay</strong></p>","null","neutral_feedback","1","test","15","","","","","","","",""
"","","","","","","","","","","","html-button-response","235","2.0.0","982491","661ff00c03ba28739dd3fbef","1","4","2994","","","","","","","","","<img src= ""rock_img/I_Gabbro_12.jpg"" style=""width:8cm; height:7.800000000000001cm;""><p>What type of rock is this?</p>","3","class_response","1","test","16","Gabbro","Gabbro","12","true","4","4","",""
"","","","","","","","","","","","html-keyboard-response","236","2.0.0","983001","661ff00c03ba28739dd3fbef","1","4","null","","","","","","","","","<p style='font-size: 30px;'><strong>Okay</strong></p>","null","neutral_feedback","1","test","16","","","","","","","",""
"","","","","","","","","","","","html-button-response","237","2.0.0","984115","661ff00c03ba28739dd3fbef","1","4","1112","","","","","","","","","<img src= ""rock_img/I_Obsidian_04.jpg"" style=""width:8cm; height:6.930000000000001cm;""><p>What type of rock is this?</p>","4","class_response","1","test","17","Obsidian","Obsidian","04","true","5","5","",""
"","","","","","","","","","","","html-keyboard-response","238","2.0.0","984624","661ff00c03ba28739dd3fbef","1","4","null","","","","","","","","","<p style='font-size: 30px;'><strong>Okay</strong></p>","null","neutral_feedback","1","test","17","","","","","","","",""
"","","","","","","","","","","","html-button-response","239","2.0.0","985707","661ff00c03ba28739dd3fbef","1","4","1081","","","","","","","","","<img src= ""rock_img/I_Pumice_09.jpg"" style=""width:8cm; height:6.44cm;""><p>What type of rock is this?</p>","7","class_response","1","test","18","Pumice","Pumice","09","true","8","8","",""
"","","","","","","","","","","","html-keyboard-response","240","2.0.0","986220","661ff00c03ba28739dd3fbef","1","4","null","","","","","","","","","<p style='font-size: 30px;'><strong>Okay</strong></p>","null","neutral_feedback","1","test","18","","","","","","","",""
"","","","","","","","","","","","html-button-response","241","2.0.0","988946","661ff00c03ba28739dd3fbef","1","4","2724","","","","","","","","","<img src= ""rock_img/I_Obsidian_07.jpg"" style=""width:8cm; height:4.76cm;""><p>What type of rock is this?</p>","4","class_response","1","test","19","Obsidian","Obsidian","07","true","5","5","",""
"","","","","","","","","","","","html-keyboard-response","242","2.0.0","989448","661ff00c03ba28739dd3fbef","1","4","null","","","","","","","","","<p style='font-size: 30px;'><strong>Okay</strong></p>","null","neutral_feedback","1","test","19","","","","","","","",""
"","","","","","","","","","","","html-button-response","243","2.0.0","991259","661ff00c03ba28739dd3fbef","1","4","1810","","","","","","","","","<img src= ""rock_img/I_Gabbro_16.jpg"" style=""width:8cm; height:6.44cm;""><p>What type of rock is this?</p>","3","class_response","1","test","20","Gabbro","Gabbro","16","true","4","4","",""
"","","","","","","","","","","","html-keyboard-response","244","2.0.0","991761","661ff00c03ba28739dd3fbef","1","4","null","","","","","","","","","<p style='font-size: 30px;'><strong>Okay</strong></p>","null","neutral_feedback","1","test","20","","","","","","","",""
"","","","","","","","","","","","html-button-response","245","2.0.0","994227","661ff00c03ba28739dd3fbef","1","4","2464","","","","","","","","","<img src= ""rock_img/I_Pegmatite_13.jpg"" style=""width:8cm; height:4.95cm;""><p>What type of rock is this?</p>","6","class_response","1","test","21","Peridotite","Pegmatite","13","false","7","6","",""
"","","","","","","","","","","","html-keyboard-response","246","2.0.0","994739","661ff00c03ba28739dd3fbef","1","4","null","","","","","","","","","<p style='font-size: 30px;'><strong>Okay</strong></p>","null","neutral_feedback","1","test","21","","","","","","","",""
"","","","","","","","","","","","html-button-response","247","2.0.0","999739","661ff00c03ba28739dd3fbef","1","4","4998","","","","","","","","","<img src= ""rock_img/I_Andesite_07.jpg"" style=""width:8cm; height:5.93cm;""><p>What type of rock is this?</p>","0","class_response","1","test","22","Andesite","Andesite","07","true","1","1","",""
"","","","","","","","","","","","html-keyboard-response","248","2.0.0","1000243","661ff00c03ba28739dd3fbef","1","4","null","","","","","","","","","<p style='font-size: 30px;'><strong>Okay</strong></p>","null","neutral_feedback","1","test","22","","","","","","","",""
"","","","","","","","","","","","html-button-response","249","2.0.0","1002151","661ff00c03ba28739dd3fbef","1","4","1906","","","","","","","","","<img src= ""rock_img/I_Pumice_15.jpg"" style=""width:8cm; height:7.86cm;""><p>What type of rock is this?</p>","7","class_response","1","test","23","Pumice","Pumice","15","true","8","8","",""
"","","","","","","","","","","","html-keyboard-response","250","2.0.0","1002654","661ff00c03ba28739dd3fbef","1","4","null","","","","","","","","","<p style='font-size: 30px;'><strong>Okay</strong></p>","null","neutral_feedback","1","test","23","","","","","","","",""
"","","","","","","","","","","","html-button-response","251","2.0.0","1004255","661ff00c03ba28739dd3fbef","1","4","1600","","","","","","","","","<img src= ""rock_img/I_Diorite_07.jpg"" style=""width:8cm; height:5.239999999999999cm;""><p>What type of rock is this?</p>","2","class_response","1","test","24","Diorite","Diorite","07","true","3","3","",""
"","","","","","","","","","","","html-keyboard-response","252","2.0.0","1004759","661ff00c03ba28739dd3fbef","1","4","null","","","","","","","","","<p style='font-size: 30px;'><strong>Okay</strong></p>","null","neutral_feedback","1","test","24","","","","","","","",""
"","","","","","","","","","","","html-button-response","253","2.0.0","1007911","661ff00c03ba28739dd3fbef","1","4","3150","","","","","","","","","<img src= ""rock_img/I_Andesite_05.jpg"" style=""width:8cm; height:4.12cm;""><p>What type of rock is this?</p>","6","class_response","1","test","25","Peridotite","Andesite","05","false","7","1","",""
"","","","","","","","","","","","html-keyboard-response","254","2.0.0","1008413","661ff00c03ba28739dd3fbef","1","4","null","","","","","","","","","<p style='font-size: 30px;'><strong>Okay</strong></p>","null","neutral_feedback","1","test","25","","","","","","","",""
"","","","","","","","","","","","html-button-response","255","2.0.0","1011339","661ff00c03ba28739dd3fbef","1","4","2925","","","","","","","","","<img src= ""rock_img/I_Andesite_03.jpg"" style=""width:8cm; height:5.73cm;""><p>What type of rock is this?</p>","1","class_response","1","test","26","Basalt","Andesite","03","false","2","1","",""
"","","","","","","","","","","","html-keyboard-response","256","2.0.0","1011846","661ff00c03ba28739dd3fbef","1","4","null","","","","","","","","","<p style='font-size: 30px;'><strong>Okay</strong></p>","null","neutral_feedback","1","test","26","","","","","","","",""
"","","","","","","","","","","","html-button-response","257","2.0.0","1012883","661ff00c03ba28739dd3fbef","1","4","1035","","","","","","","","","<img src= ""rock_img/I_Obsidian_02.jpg"" style=""width:8cm; height:7.51cm;""><p>What type of rock is this?</p>","4","class_response","1","test","27","Obsidian","Obsidian","02","true","5","5","",""
"","","","","","","","","","","","html-keyboard-response","258","2.0.0","1013389","661ff00c03ba28739dd3fbef","1","4","null","","","","","","","","","<p style='font-size: 30px;'><strong>Okay</strong></p>","null","neutral_feedback","1","test","27","","","","","","","",""
"","","","","","","","","","","","html-button-response","259","2.0.0","1014779","661ff00c03ba28739dd3fbef","1","4","1389","","","","","","","","","<img src= ""rock_img/I_Peridotite_12.jpg"" style=""width:8cm; height:4.54cm;""><p>What type of rock is this?</p>","6","class_response","1","test","28","Peridotite","Peridotite","12","true","7","7","",""
"","","","","","","","","","","","html-keyboard-response","260","2.0.0","1015289","661ff00c03ba28739dd3fbef","1","4","null","","","","","","","","","<p style='font-size: 30px;'><strong>Okay</strong></p>","null","neutral_feedback","1","test","28","","","","","","","",""
"","","","","","","","","","","","html-button-response","261","2.0.0","1016675","661ff00c03ba28739dd3fbef","1","4","1384","","","","","","","","","<img src= ""rock_img/I_Basalt_10.jpg"" style=""width:8cm; height:5.85cm;""><p>What type of rock is this?</p>","1","class_response","1","test","29","Basalt","Basalt","10","true","2","2","",""
"","","","","","","","","","","","html-keyboard-response","262","2.0.0","1017191","661ff00c03ba28739dd3fbef","1","4","null","","","","","","","","","<p style='font-size: 30px;'><strong>Okay</strong></p>","null","neutral_feedback","1","test","29","","","","","","","",""
"","","","","","","","","","","","html-button-response","263","2.0.0","1018799","661ff00c03ba28739dd3fbef","1","4","1606","","","","","","","","","<img src= ""rock_img/I_Andesite_06.jpg"" style=""width:8cm; height:6.840000000000001cm;""><p>What type of rock is this?</p>","0","class_response","1","test","30","Andesite","Andesite","06","true","1","1","",""
"","","","","","","","","","","","html-keyboard-response","264","2.0.0","1019315","661ff00c03ba28739dd3fbef","1","4","null","","","","","","","","","<p style='font-size: 30px;'><strong>Okay</strong></p>","null","neutral_feedback","1","test","30","","","","","","","",""
"","","","","","","","","","","","html-button-response","265","2.0.0","1020575","661ff00c03ba28739dd3fbef","1","4","1259","","","","","","","","","<img src= ""rock_img/I_Peridotite_07.jpg"" style=""width:8cm; height:4.83cm;""><p>What type of rock is this?</p>","3","class_response","1","test","31","Gabbro","Peridotite","07","false","4","7","",""
"","","","","","","","","","","","html-keyboard-response","266","2.0.0","1021086","661ff00c03ba28739dd3fbef","1","4","null","","","","","","","","","<p style='font-size: 30px;'><strong>Okay</strong></p>","null","neutral_feedback","1","test","31","","","","","","","",""
"","","","","","","","","","","","html-button-response","267","2.0.0","1022934","661ff00c03ba28739dd3fbef","1","4","1847","","","","","","","","","<img src= ""rock_img/I_Andesite_02.jpg"" style=""width:8cm; height:8.5cm;""><p>What type of rock is this?</p>","2","class_response","1","test","32","Diorite","Andesite","02","false","3","1","",""
"","","","","","","","","","","","html-keyboard-response","268","2.0.0","1023450","661ff00c03ba28739dd3fbef","1","4","null","","","","","","","","","<p style='font-size: 30px;'><strong>Okay</strong></p>","null","neutral_feedback","1","test","32","","","","","","","",""
"","","","","","","","","","","","html-button-response","269","2.0.0","1024863","661ff00c03ba28739dd3fbef","1","4","1411","","","","","","","","","<img src= ""rock_img/I_Diorite_11.jpg"" style=""width:8cm; height:7.11cm;""><p>What type of rock is this?</p>","2","class_response","1","test","33","Diorite","Diorite","11","true","3","3","",""
"","","","","","","","","","","","html-keyboard-response","270","2.0.0","1025373","661ff00c03ba28739dd3fbef","1","4","null","","","","","","","","","<p style='font-size: 30px;'><strong>Okay</strong></p>","null","neutral_feedback","1","test","33","","","","","","","",""
"","","","","","","","","","","","html-button-response","271","2.0.0","1026619","661ff00c03ba28739dd3fbef","1","4","1244","","","","","","","","","<img src= ""rock_img/I_Pumice_03.jpg"" style=""width:8cm; height:6.64cm;""><p>What type of rock is this?</p>","7","class_response","1","test","34","Pumice","Pumice","03","true","8","8","",""
"","","","","","","","","","","","html-keyboard-response","272","2.0.0","1027123","661ff00c03ba28739dd3fbef","1","4","null","","","","","","","","","<p style='font-size: 30px;'><strong>Okay</strong></p>","null","neutral_feedback","1","test","34","","","","","","","",""
"","","","","","","","","","","","html-button-response","273","2.0.0","1030191","661ff00c03ba28739dd3fbef","1","4","3066","","","","","","","","","<img src= ""rock_img/I_Diorite_15.jpg"" style=""width:8cm; height:5.54cm;""><p>What type of rock is this?</p>","3","class_response","1","test","35","Gabbro","Diorite","15","false","4","3","",""
"","","","","","","","","","","","html-keyboard-response","274","2.0.0","1030692","661ff00c03ba28739dd3fbef","1","4","null","","","","","","","","","<p style='font-size: 30px;'><strong>Okay</strong></p>","null","neutral_feedback","1","test","35","","","","","","","",""
"","","","","","","","","","","","html-button-response","275","2.0.0","1031715","661ff00c03ba28739dd3fbef","1","4","1022","","","","","","","","","<img src= ""rock_img/I_Obsidian_14.jpg"" style=""width:8cm; height:7.64cm;""><p>What type of rock is this?</p>","4","class_response","1","test","36","Obsidian","Obsidian","14","true","5","5","",""
"","","","","","","","","","","","html-keyboard-response","276","2.0.0","1032222","661ff00c03ba28739dd3fbef","1","4","null","","","","","","","","","<p style='font-size: 30px;'><strong>Okay</strong></p>","null","neutral_feedback","1","test","36","","","","","","","",""
"","","","","","","","","","","","html-button-response","277","2.0.0","1033514","661ff00c03ba28739dd3fbef","1","4","1291","","","","","","","","","<img src= ""rock_img/I_Diorite_16.jpg"" style=""width:8cm; height:6.74cm;""><p>What type of rock is this?</p>","2","class_response","1","test","37","Diorite","Diorite","16","true","3","3","",""
"","","","","","","","","","","","html-keyboard-response","278","2.0.0","1034020","661ff00c03ba28739dd3fbef","1","4","null","","","","","","","","","<p style='font-size: 30px;'><strong>Okay</strong></p>","null","neutral_feedback","1","test","37","","","","","","","",""
"","","","","","","","","","","","html-button-response","279","2.0.0","1035006","661ff00c03ba28739dd3fbef","1","4","985","","","","","","","","","<img src= ""rock_img/I_Diorite_12.jpg"" style=""width:8cm; height:4.88cm;""><p>What type of rock is this?</p>","2","class_response","1","test","38","Diorite","Diorite","12","true","3","3","",""
"","","","","","","","","","","","html-keyboard-response","280","2.0.0","1035521","661ff00c03ba28739dd3fbef","1","4","null","","","","","","","","","<p style='font-size: 30px;'><strong>Okay</strong></p>","null","neutral_feedback","1","test","38","","","","","","","",""
"","","","","","","","","","","","html-button-response","281","2.0.0","1036616","661ff00c03ba28739dd3fbef","1","4","1094","","","","","","","","","<img src= ""rock_img/I_Basalt_08.jpg"" style=""width:8cm; height:10.44cm;""><p>What type of rock is this?</p>","1","class_response","1","test","39","Basalt","Basalt","08","true","2","2","",""
"","","","","","","","","","","","html-keyboard-response","282","2.0.0","1037122","661ff00c03ba28739dd3fbef","1","4","null","","","","","","","","","<p style='font-size: 30px;'><strong>Okay</strong></p>","null","neutral_feedback","1","test","39","","","","","","","",""
"","","","","","","","","","","","html-button-response","283","2.0.0","1039055","661ff00c03ba28739dd3fbef","1","4","1931","","","","","","","","","<img src= ""rock_img/I_Gabbro_01.jpg"" style=""width:8cm; height:5.21cm;""><p>What type of rock is this?</p>","0","class_response","1","test","40","Andesite","Gabbro","01","false","1","4","",""
"","","","","","","","","","","","html-keyboard-response","284","2.0.0","1039568","661ff00c03ba28739dd3fbef","1","4","null","","","","","","","","","<p style='font-size: 30px;'><strong>Okay</strong></p>","null","neutral_feedback","1","test","40","","","","","","","",""
"","","","","","","","","","","","html-button-response","285","2.0.0","1041023","661ff00c03ba28739dd3fbef","1","4","1454","","","","","","","","","<img src= ""rock_img/I_Pumice_04.jpg"" style=""width:8cm; height:6.819999999999999cm;""><p>What type of rock is this?</p>","7","class_response","1","test","41","Pumice","Pumice","04","true","8","8","",""
"","","","","","","","","","","","html-keyboard-response","286","2.0.0","1041526","661ff00c03ba28739dd3fbef","1","4","null","","","","","","","","","<p style='font-size: 30px;'><strong>Okay</strong></p>","null","neutral_feedback","1","test","41","","","","","","","",""
"","","","","","","","","","","","html-button-response","287","2.0.0","1043167","661ff00c03ba28739dd3fbef","1","4","1640","","","","","","","","","<img src= ""rock_img/I_Peridotite_08.jpg"" style=""width:8cm; height:6.7cm;""><p>What type of rock is this?</p>","6","class_response","1","test","42","Peridotite","Peridotite","08","true","7","7","",""
"","","","","","","","","","","","html-keyboard-response","288","2.0.0","1043675","661ff00c03ba28739dd3fbef","1","4","null","","","","","","","","","<p style='font-size: 30px;'><strong>Okay</strong></p>","null","neutral_feedback","1","test","42","","","","","","","",""
"","","","","","","","","","","","html-button-response","289","2.0.0","1044750","661ff00c03ba28739dd3fbef","1","4","1073","","","","","","","","","<img src= ""rock_img/I_Pumice_14.jpg"" style=""width:8cm; height:6.39cm;""><p>What type of rock is this?</p>","7","class_response","1","test","43","Pumice","Pumice","14","true","8","8","",""
"","","","","","","","","","","","html-keyboard-response","290","2.0.0","1045263","661ff00c03ba28739dd3fbef","1","4","null","","","","","","","","","<p style='font-size: 30px;'><strong>Okay</strong></p>","null","neutral_feedback","1","test","43","","","","","","","",""
"","","","","","","","","","","","html-button-response","291","2.0.0","1046215","661ff00c03ba28739dd3fbef","1","4","950","","","","","","","","","<img src= ""rock_img/I_Obsidian_09.jpg"" style=""width:8cm; height:5cm;""><p>What type of rock is this?</p>","4","class_response","1","test","44","Obsidian","Obsidian","09","true","5","5","",""
"","","","","","","","","","","","html-keyboard-response","292","2.0.0","1046716","661ff00c03ba28739dd3fbef","1","4","null","","","","","","","","","<p style='font-size: 30px;'><strong>Okay</strong></p>","null","neutral_feedback","1","test","44","","","","","","","",""
"","","","","","","","","","","","html-button-response","293","2.0.0","1047707","661ff00c03ba28739dd3fbef","1","4","989","","","","","","","","","<img src= ""rock_img/I_Basalt_06.jpg"" style=""width:8cm; height:7.06cm;""><p>What type of rock is this?</p>","1","class_response","1","test","45","Basalt","Basalt","06","true","2","2","",""
"","","","","","","","","","","","html-keyboard-response","294","2.0.0","1048214","661ff00c03ba28739dd3fbef","1","4","null","","","","","","","","","<p style='font-size: 30px;'><strong>Okay</strong></p>","null","neutral_feedback","1","test","45","","","","","","","",""
"","","","","","","","","","","","html-button-response","295","2.0.0","1049630","661ff00c03ba28739dd3fbef","1","4","1415","","","","","","","","","<img src= ""rock_img/I_Peridotite_16.jpg"" style=""width:8cm; height:6.989999999999999cm;""><p>What type of rock is this?</p>","6","class_response","1","test","46","Peridotite","Peridotite","16","true","7","7","",""
"","","","","","","","","","","","html-keyboard-response","296","2.0.0","1050146","661ff00c03ba28739dd3fbef","1","4","null","","","","","","","","","<p style='font-size: 30px;'><strong>Okay</strong></p>","null","neutral_feedback","1","test","46","","","","","","","",""
"","","","","","","","","","","","html-button-response","297","2.0.0","1051939","661ff00c03ba28739dd3fbef","1","4","1791","","","","","","","","","<img src= ""rock_img/I_Pegmatite_10.jpg"" style=""width:8cm; height:4.16cm;""><p>What type of rock is this?</p>","6","class_response","1","test","47","Peridotite","Pegmatite","10","false","7","6","",""
"","","","","","","","","","","","html-keyboard-response","298","2.0.0","1052453","661ff00c03ba28739dd3fbef","1","4","null","","","","","","","","","<p style='font-size: 30px;'><strong>Okay</strong></p>","null","neutral_feedback","1","test","47","","","","","","","",""
"","","","","","","","","","","","html-button-response","299","2.0.0","1054807","661ff00c03ba28739dd3fbef","1","4","2352","","","","","","","","","<img src= ""rock_img/I_Andesite_01.jpg"" style=""width:8cm; height:5.87cm;""><p>What type of rock is this?</p>","0","class_response","1","test","48","Andesite","Andesite","01","true","1","1","",""
"","","","","","","","","","","","html-keyboard-response","300","2.0.0","1055323","661ff00c03ba28739dd3fbef","1","4","null","","","","","","","","","<p style='font-size: 30px;'><strong>Okay</strong></p>","null","neutral_feedback","1","test","48","","","","","","","",""
"","","","","","","","","","","","html-button-response","301","2.0.0","1073513","661ff00c03ba28739dd3fbef","1","4","","","","","","","","","","","","cycle_feedback","","","","","","","","","","8905.199999999953","9278.399999999907"
"","","","","","","","","","","","html-button-response","303","2.0.0","1075250","661ff00c03ba28739dd3fbef","1","4","1736","","","","","","","","","","0","start_train","","","","","","","","","","",""
"","","","","","","","","","","","html-button-response","304","2.0.0","1076899","661ff00c03ba28739dd3fbef","1","4","1647","","","","","","","","","<img src= ""rock_img/I_Diorite_13.jpg"" style=""width:8cm; height:6.29cm;""><p>What type of rock is this?</p>","2","class_response","2","train","1","Diorite","Diorite","13","true","3","3","",""
"","","","","","","","","","","","html-button-response","305","2.0.0","1077823","661ff00c03ba28739dd3fbef","1","4","923","","","","","","","","","<img src= rock_img/I_Diorite_13.jpg style=""width:8cm; height:6.29cm;""><p style='font-size: 30px; color: green;'><strong>Correct!</strong></p><p style='font-size: 30px;'><strong>This rock is diorite</strong></p>","0","corr_feedback","2","train","1","","","","","","","",""
