"width","height","webaudio","browser","browser_version","mobile","os","fullscreen","vsync_rate","webcam","microphone","trial_type","trial_index","plugin_version","time_elapsed","subjID","condition","stimID","rt","url","success","value","timeout","failed_images","failed_audio","failed_video","view_history","stimulus","response","trialType","cycle","phase","trial","resp","cat","token","corr","resp_num","cat_num","time_fb1","time_fb2"
"1410","771","true","chrome","131.0.0","false","Chrome OS","true","61.03","true","true","browser-check","0","2.0.0","1012","66a93f83fc9fcb1959191d2b","1","11","","","","","","","","","","","","","","","","","","","","","","",""
"","","","","","","","","","","","external-html","1","2.0.0","7372","66a93f83fc9fcb1959191d2b","1","11","6279","consent_form.html","","","","","","","","","","","","","","","","","","","","",""
"","","","","","","","","","","","fullscreen","2","2.0.0","10552","66a93f83fc9fcb1959191d2b","1","11","2170","","true","","","","","","","","","","","","","","","","","","","",""
"","","","","","","","","","","","call-function","3","2.0.0","10557","66a93f83fc9fcb1959191d2b","1","11","","","","{}","","","","","","","","","","","","","","","","","","",""
"","","","","","","","","","","","preload","4","2.0.0","15042","66a93f83fc9fcb1959191d2b","1","11","","","true","","false","[]","[]","[]","","","","","","","","","","","","","","",""
"","","","","","","","","","","","instructions","5","2.0.0","43057","66a93f83fc9fcb1959191d2b","1","11","28012","","","","","","","","[{""page_index"":0,""viewing_time"":6451},{""page_index"":1,""viewing_time"":13554},{""page_index"":2,""viewing_time"":8008}]","","","","","","","","","","","","","",""
"","","","","","","","","","","","html-button-response","6","2.0.0","63456","66a93f83fc9fcb1959191d2b","1","11","20394","","","","","","","","","","0","start_test","","","","","","","","","","",""
"","","","","","","","","","","","html-button-response","7","2.0.0","73125","66a93f83fc9fcb1959191d2b","1","11","9664","","","","","","","","","<img src= ""rock_img/I_Diorite_08.jpg"" style=""width:8cm; height:6.37cm;""><p>What type of rock is this?</p>","6","class_response","0","test","1","Peridotite","Diorite","08","false","7","3","",""
"","","","","","","","","","","","html-keyboard-response","8","2.0.0","73627","66a93f83fc9fcb1959191d2b","1","11","null","","","","","","","","","<p style='font-size: 30px;'><strong>Okay</strong></p>","null","neutral_feedback","0","test","1","","","","","","","",""
"","","","","","","","","","","","html-button-response","9","2.0.0","80585","66a93f83fc9fcb1959191d2b","1","11","6952","","","","","","","","","<img src= ""rock_img/I_Pumice_10.jpg"" style=""width:8cm; height:7.609999999999999cm;""><p>What type of rock is this?</p>","7","class_response","0","test","2","Pumice","Pumice","10","true","8","8","",""
"","","","","","","","","","","","html-keyboard-response","10","2.0.0","81089","66a93f83fc9fcb1959191d2b","1","11","null","","","","","","","","","<p style='font-size: 30px;'><strong>Okay</strong></p>","null","neutral_feedback","0","test","2","","","","","","","",""
"","","","","","","","","","","","html-button-response","11","2.0.0","84660","66a93f83fc9fcb1959191d2b","1","11","3568","","","","","","","","","<img src= ""rock_img/I_Peridotite_02.jpg"" style=""width:8cm; height:5.859999999999999cm;""><p>What type of rock is this?</p>","2","class_response","0","test","3","Diorite","Peridotite","02","false","3","7","",""
"","","","","","","","","","","","html-keyboard-response","12","2.0.0","85164","66a93f83fc9fcb1959191d2b","1","11","null","","","","","","","","","<p style='font-size: 30px;'><strong>Okay</strong></p>","null","neutral_feedback","0","test","3","","","","","","","",""
"","","","","","","","","","","","html-button-response","13","2.0.0","86551","66a93f83fc9fcb1959191d2b","1","11","1383","","","","","","","","","<img src= ""rock_img/I_Andesite_09.jpg"" style=""width:8cm; height:6cm;""><p>What type of rock is this?</p>","1","class_response","0","test","4","Basalt","Andesite","09","false","2","1","",""
"","","","","","","","","","","","html-keyboard-response","14","2.0.0","87053","66a93f83fc9fcb1959191d2b","1","11","null","","","","","","","","","<p style='font-size: 30px;'><strong>Okay</strong></p>","null","neutral_feedback","0","test","4","","","","","","","",""
"","","","","","","","","","","","html-button-response","15","2.0.0","88815","66a93f83fc9fcb1959191d2b","1","11","1757","","","","","","","","","<img src= ""rock_img/I_Diorite_15.jpg"" style=""width:8cm; height:5.54cm;""><p>What type of rock is this?</p>","0","class_response","0","test","5","Andesite","Diorite","15","false","1","3","",""
"","","","","","","","","","","","html-keyboard-response","16","2.0.0","89319","66a93f83fc9fcb1959191d2b","1","11","null","","","","","","","","","<p style='font-size: 30px;'><strong>Okay</strong></p>","null","neutral_feedback","0","test","5","","","","","","","",""
"","","","","","","","","","","","html-button-response","17","2.0.0","92352","66a93f83fc9fcb1959191d2b","1","11","3029","","","","","","","","","<img src= ""rock_img/I_Basalt_08.jpg"" style=""width:8cm; height:10.44cm;""><p>What type of rock is this?</p>","1","class_response","0","test","6","Basalt","Basalt","08","true","2","2","",""
"","","","","","","","","","","","html-keyboard-response","18","2.0.0","92854","66a93f83fc9fcb1959191d2b","1","11","null","","","","","","","","","<p style='font-size: 30px;'><strong>Okay</strong></p>","null","neutral_feedback","0","test","6","","","","","","","",""
"","","","","","","","","","","","html-button-response","19","2.0.0","97427","66a93f83fc9fcb1959191d2b","1","11","4568","","","","","","","","","<img src= ""rock_img/I_Andesite_05.jpg"" style=""width:8cm; height:4.12cm;""><p>What type of rock is this?</p>","3","class_response","0","test","7","Gabbro","Andesite","05","false","4","1","",""
"","","","","","","","","","","","html-keyboard-response","20","2.0.0","97930","66a93f83fc9fcb1959191d2b","1","11","null","","","","","","","","","<p style='font-size: 30px;'><strong>Okay</strong></p>","null","neutral_feedback","0","test","7","","","","","","","",""
"","","","","","","","","","","","html-button-response","21","2.0.0","101999","66a93f83fc9fcb1959191d2b","1","11","4065","","","","","","","","","<img src= ""rock_img/I_Peridotite_15.jpg"" style=""width:8cm; height:6cm;""><p>What type of rock is this?</p>","7","class_response","0","test","8","Pumice","Peridotite","15","false","8","7","",""
"","","","","","","","","","","","html-keyboard-response","22","2.0.0","102503","66a93f83fc9fcb1959191d2b","1","11","null","","","","","","","","","<p style='font-size: 30px;'><strong>Okay</strong></p>","null","neutral_feedback","0","test","8","","","","","","","",""
"","","","","","","","","","","","html-button-response","23","2.0.0","104584","66a93f83fc9fcb1959191d2b","1","11","2078","","","","","","","","","<img src= ""rock_img/I_Basalt_06.jpg"" style=""width:8cm; height:7.06cm;""><p>What type of rock is this?</p>","1","class_response","0","test","9","Basalt","Basalt","06","true","2","2","",""
"","","","","","","","","","","","html-keyboard-response","24","2.0.0","105088","66a93f83fc9fcb1959191d2b","1","11","null","","","","","","","","","<p style='font-size: 30px;'><strong>Okay</strong></p>","null","neutral_feedback","0","test","9","","","","","","","",""
"","","","","","","","","","","","html-button-response","25","2.0.0","109485","66a93f83fc9fcb1959191d2b","1","11","4393","","","","","","","","","<img src= ""rock_img/I_Pumice_02.jpg"" style=""width:8cm; height:7.3999999999999995cm;""><p>What type of rock is this?</p>","6","class_response","0","test","10","Peridotite","Pumice","02","false","7","8","",""
"","","","","","","","","","","","html-keyboard-response","26","2.0.0","109988","66a93f83fc9fcb1959191d2b","1","11","null","","","","","","","","","<p style='font-size: 30px;'><strong>Okay</strong></p>","null","neutral_feedback","0","test","10","","","","","","","",""
"","","","","","","","","","","","html-button-response","27","2.0.0","111925","66a93f83fc9fcb1959191d2b","1","11","1933","","","","","","","","","<img src= ""rock_img/I_Gabbro_15.jpg"" style=""width:8cm; height:6.29cm;""><p>What type of rock is this?</p>","0","class_response","0","test","11","Andesite","Gabbro","15","false","1","4","",""
"","","","","","","","","","","","html-keyboard-response","28","2.0.0","112427","66a93f83fc9fcb1959191d2b","1","11","null","","","","","","","","","<p style='font-size: 30px;'><strong>Okay</strong></p>","null","neutral_feedback","0","test","11","","","","","","","",""
"","","","","","","","","","","","html-button-response","29","2.0.0","114243","66a93f83fc9fcb1959191d2b","1","11","1812","","","","","","","","","<img src= ""rock_img/I_Obsidian_09.jpg"" style=""width:8cm; height:5cm;""><p>What type of rock is this?</p>","4","class_response","0","test","12","Obsidian","Obsidian","09","true","5","5","",""
"","","","","","","","","","","","html-keyboard-response","30","2.0.0","114746","66a93f83fc9fcb1959191d2b","1","11","null","","","","","","","","","<p style='font-size: 30px;'><strong>Okay</strong></p>","null","neutral_feedback","0","test","12","","","","","","","",""
"","","","","","","","","","","","html-button-response","31","2.0.0","116145","66a93f83fc9fcb1959191d2b","1","11","1395","","","","","","","","","<img src= ""rock_img/I_Obsidian_08.jpg"" style=""width:8cm; height:7.39cm;""><p>What type of rock is this?</p>","4","class_response","0","test","13","Obsidian","Obsidian","08","true","5","5","",""
"","","","","","","","","","","","html-keyboard-response","32","2.0.0","116648","66a93f83fc9fcb1959191d2b","1","11","null","","","","","","","","","<p style='font-size: 30px;'><strong>Okay</strong></p>","null","neutral_feedback","0","test","13","","","","","","","",""
"","","","","","","","","","","","html-button-response","33","2.0.0","119109","66a93f83fc9fcb1959191d2b","1","11","2457","","","","","","","","","<img src= ""rock_img/I_Pumice_09.jpg"" style=""width:8cm; height:6.44cm;""><p>What type of rock is this?</p>","6","class_response","0","test","14","Peridotite","Pumice","09","false","7","8","",""
"","","","","","","","","","","","html-keyboard-response","34","2.0.0","119612","66a93f83fc9fcb1959191d2b","1","11","null","","","","","","","","","<p style='font-size: 30px;'><strong>Okay</strong></p>","null","neutral_feedback","0","test","14","","","","","","","",""
"","","","","","","","","","","","html-button-response","35","2.0.0","122587","66a93f83fc9fcb1959191d2b","1","11","2970","","","","","","","","","<img src= ""rock_img/I_Pumice_15.jpg"" style=""width:8cm; height:7.86cm;""><p>What type of rock is this?</p>","5","class_response","0","test","15","Pegmatite","Pumice","15","false","6","8","",""
"","","","","","","","","","","","html-keyboard-response","36","2.0.0","123090","66a93f83fc9fcb1959191d2b","1","11","null","","","","","","","","","<p style='font-size: 30px;'><strong>Okay</strong></p>","null","neutral_feedback","0","test","15","","","","","","","",""
"","","","","","","","","","","","html-button-response","37","2.0.0","124411","66a93f83fc9fcb1959191d2b","1","11","1317","","","","","","","","","<img src= ""rock_img/I_Gabbro_11.jpg"" style=""width:8cm; height:6.2cm;""><p>What type of rock is this?</p>","2","class_response","0","test","16","Diorite","Gabbro","11","false","3","4","",""
"","","","","","","","","","","","html-keyboard-response","38","2.0.0","124914","66a93f83fc9fcb1959191d2b","1","11","null","","","","","","","","","<p style='font-size: 30px;'><strong>Okay</strong></p>","null","neutral_feedback","0","test","16","","","","","","","",""
"","","","","","","","","","","","html-button-response","39","2.0.0","126584","66a93f83fc9fcb1959191d2b","1","11","1666","","","","","","","","","<img src= ""rock_img/I_Diorite_11.jpg"" style=""width:8cm; height:7.11cm;""><p>What type of rock is this?</p>","0","class_response","0","test","17","Andesite","Diorite","11","false","1","3","",""
"","","","","","","","","","","","html-keyboard-response","40","2.0.0","127088","66a93f83fc9fcb1959191d2b","1","11","null","","","","","","","","","<p style='font-size: 30px;'><strong>Okay</strong></p>","null","neutral_feedback","0","test","17","","","","","","","",""
"","","","","","","","","","","","html-button-response","41","2.0.0","128632","66a93f83fc9fcb1959191d2b","1","11","1541","","","","","","","","","<img src= ""rock_img/I_Obsidian_07.jpg"" style=""width:8cm; height:4.76cm;""><p>What type of rock is this?</p>","4","class_response","0","test","18","Obsidian","Obsidian","07","true","5","5","",""
"","","","","","","","","","","","html-keyboard-response","42","2.0.0","129135","66a93f83fc9fcb1959191d2b","1","11","null","","","","","","","","","<p style='font-size: 30px;'><strong>Okay</strong></p>","null","neutral_feedback","0","test","18","","","","","","","",""
"","","","","","","","","","","","html-button-response","43","2.0.0","130348","66a93f83fc9fcb1959191d2b","1","11","1209","","","","","","","","","<img src= ""rock_img/I_Obsidian_12.jpg"" style=""width:8cm; height:6.53cm;""><p>What type of rock is this?</p>","4","class_response","0","test","19","Obsidian","Obsidian","12","true","5","5","",""
"","","","","","","","","","","","html-keyboard-response","44","2.0.0","130851","66a93f83fc9fcb1959191d2b","1","11","null","","","","","","","","","<p style='font-size: 30px;'><strong>Okay</strong></p>","null","neutral_feedback","0","test","19","","","","","","","",""
"","","","","","","","","","","","html-button-response","45","2.0.0","132912","66a93f83fc9fcb1959191d2b","1","11","2055","","","","","","","","","<img src= ""rock_img/I_Basalt_14.jpg"" style=""width:8cm; height:5.82cm;""><p>What type of rock is this?</p>","3","class_response","0","test","20","Gabbro","Basalt","14","false","4","2","",""
"","","","","","","","","","","","html-keyboard-response","46","2.0.0","133415","66a93f83fc9fcb1959191d2b","1","11","null","","","","","","","","","<p style='font-size: 30px;'><strong>Okay</strong></p>","null","neutral_feedback","0","test","20","","","","","","","",""
"","","","","","","","","","","","html-button-response","47","2.0.0","134811","66a93f83fc9fcb1959191d2b","1","11","1393","","","","","","","","","<img src= ""rock_img/I_Andesite_14.jpg"" style=""width:8cm; height:5.449999999999999cm;""><p>What type of rock is this?</p>","7","class_response","0","test","21","Pumice","Andesite","14","false","8","1","",""
"","","","","","","","","","","","html-keyboard-response","48","2.0.0","135315","66a93f83fc9fcb1959191d2b","1","11","null","","","","","","","","","<p style='font-size: 30px;'><strong>Okay</strong></p>","null","neutral_feedback","0","test","21","","","","","","","",""
"","","","","","","","","","","","html-button-response","49","2.0.0","136082","66a93f83fc9fcb1959191d2b","1","11","764","","","","","","","","","<img src= ""rock_img/I_Obsidian_05.jpg"" style=""width:8cm; height:6.33cm;""><p>What type of rock is this?</p>","2","class_response","0","test","22","Diorite","Obsidian","05","false","3","5","",""
"","","","","","","","","","","","html-keyboard-response","50","2.0.0","136586","66a93f83fc9fcb1959191d2b","1","11","null","","","","","","","","","<p style='font-size: 30px;'><strong>Okay</strong></p>","null","neutral_feedback","0","test","22","","","","","","","",""
"","","","","","","","","","","","html-button-response","51","2.0.0","137567","66a93f83fc9fcb1959191d2b","1","11","977","","","","","","","","","<img src= ""rock_img/I_Pegmatite_13.jpg"" style=""width:8cm; height:4.95cm;""><p>What type of rock is this?</p>","1","class_response","0","test","23","Basalt","Pegmatite","13","false","2","6","",""
"","","","","","","","","","","","html-keyboard-response","52","2.0.0","138069","66a93f83fc9fcb1959191d2b","1","11","null","","","","","","","","","<p style='font-size: 30px;'><strong>Okay</strong></p>","null","neutral_feedback","0","test","23","","","","","","","",""
"","","","","","","","","","","","html-button-response","53","2.0.0","138931","66a93f83fc9fcb1959191d2b","1","11","858","","","","","","","","","<img src= ""rock_img/I_Diorite_14.jpg"" style=""width:8cm; height:5.71cm;""><p>What type of rock is this?</p>","5","class_response","0","test","24","Pegmatite","Diorite","14","false","6","3","",""
"","","","","","","","","","","","html-keyboard-response","54","2.0.0","139434","66a93f83fc9fcb1959191d2b","1","11","null","","","","","","","","","<p style='font-size: 30px;'><strong>Okay</strong></p>","null","neutral_feedback","0","test","24","","","","","","","",""
"","","","","","","","","","","","html-button-response","55","2.0.0","140642","66a93f83fc9fcb1959191d2b","1","11","1204","","","","","","","","","<img src= ""rock_img/I_Pegmatite_10.jpg"" style=""width:8cm; height:4.16cm;""><p>What type of rock is this?</p>","6","class_response","0","test","25","Peridotite","Pegmatite","10","false","7","6","",""
"","","","","","","","","","","","html-keyboard-response","56","2.0.0","141145","66a93f83fc9fcb1959191d2b","1","11","null","","","","","","","","","<p style='font-size: 30px;'><strong>Okay</strong></p>","null","neutral_feedback","0","test","25","","","","","","","",""
"","","","","","","","","","","","html-button-response","57","2.0.0","142529","66a93f83fc9fcb1959191d2b","1","11","1380","","","","","","","","","<img src= ""rock_img/I_Obsidian_16.jpg"" style=""width:8cm; height:9.3cm;""><p>What type of rock is this?</p>","4","class_response","0","test","26","Obsidian","Obsidian","16","true","5","5","",""
"","","","","","","","","","","","html-keyboard-response","58","2.0.0","143032","66a93f83fc9fcb1959191d2b","1","11","null","","","","","","","","","<p style='font-size: 30px;'><strong>Okay</strong></p>","null","neutral_feedback","0","test","26","","","","","","","",""
"","","","","","","","","","","","html-button-response","59","2.0.0","144561","66a93f83fc9fcb1959191d2b","1","11","1525","","","","","","","","","<img src= ""rock_img/I_Peridotite_05.jpg"" style=""width:8cm; height:7.1499999999999995cm;""><p>What type of rock is this?</p>","0","class_response","0","test","27","Andesite","Peridotite","05","false","1","7","",""
"","","","","","","","","","","","html-keyboard-response","60","2.0.0","145064","66a93f83fc9fcb1959191d2b","1","11","null","","","","","","","","","<p style='font-size: 30px;'><strong>Okay</strong></p>","null","neutral_feedback","0","test","27","","","","","","","",""
"","","","","","","","","","","","html-button-response","61","2.0.0","146408","66a93f83fc9fcb1959191d2b","1","11","1341","","","","","","","","","<img src= ""rock_img/I_Pegmatite_16.jpg"" style=""width:8cm; height:5.8cm;""><p>What type of rock is this?</p>","0","class_response","0","test","28","Andesite","Pegmatite","16","false","1","6","",""
"","","","","","","","","","","","html-keyboard-response","62","2.0.0","146911","66a93f83fc9fcb1959191d2b","1","11","null","","","","","","","","","<p style='font-size: 30px;'><strong>Okay</strong></p>","null","neutral_feedback","0","test","28","","","","","","","",""
"","","","","","","","","","","","html-button-response","63","2.0.0","148450","66a93f83fc9fcb1959191d2b","1","11","1535","","","","","","","","","<img src= ""rock_img/I_Pumice_03.jpg"" style=""width:8cm; height:6.64cm;""><p>What type of rock is this?</p>","5","class_response","0","test","29","Pegmatite","Pumice","03","false","6","8","",""
"","","","","","","","","","","","html-keyboard-response","64","2.0.0","148955","66a93f83fc9fcb1959191d2b","1","11","null","","","","","","","","","<p style='font-size: 30px;'><strong>Okay</strong></p>","null","neutral_feedback","0","test","29","","","","","","","",""
"","","","","","","","","","","","html-button-response","65","2.0.0","150941","66a93f83fc9fcb1959191d2b","1","11","1982","","","","","","","","","<img src= ""rock_img/I_Pegmatite_07.jpg"" style=""width:8cm; height:6.7cm;""><p>What type of rock is this?</p>","2","class_response","0","test","30","Diorite","Pegmatite","07","false","3","6","",""
"","","","","","","","","","","","html-keyboard-response","66","2.0.0","151445","66a93f83fc9fcb1959191d2b","1","11","null","","","","","","","","","<p style='font-size: 30px;'><strong>Okay</strong></p>","null","neutral_feedback","0","test","30","","","","","","","",""
"","","","","","","","","","","","html-button-response","67","2.0.0","152727","66a93f83fc9fcb1959191d2b","1","11","1279","","","","","","","","","<img src= ""rock_img/I_Basalt_09.jpg"" style=""width:8cm; height:6.2cm;""><p>What type of rock is this?</p>","1","class_response","0","test","31","Basalt","Basalt","09","true","2","2","",""
"","","","","","","","","","","","html-keyboard-response","68","2.0.0","153231","66a93f83fc9fcb1959191d2b","1","11","null","","","","","","","","","<p style='font-size: 30px;'><strong>Okay</strong></p>","null","neutral_feedback","0","test","31","","","","","","","",""
"","","","","","","","","","","","html-button-response","69","2.0.0","154221","66a93f83fc9fcb1959191d2b","1","11","987","","","","","","","","","<img src= ""rock_img/I_Basalt_04.jpg"" style=""width:8cm; height:7.53cm;""><p>What type of rock is this?</p>","1","class_response","0","test","32","Basalt","Basalt","04","true","2","2","",""
"","","","","","","","","","","","html-keyboard-response","70","2.0.0","154725","66a93f83fc9fcb1959191d2b","1","11","null","","","","","","","","","<p style='font-size: 30px;'><strong>Okay</strong></p>","null","neutral_feedback","0","test","32","","","","","","","",""
"","","","","","","","","","","","html-button-response","71","2.0.0","155947","66a93f83fc9fcb1959191d2b","1","11","1219","","","","","","","","","<img src= ""rock_img/I_Andesite_03.jpg"" style=""width:8cm; height:5.73cm;""><p>What type of rock is this?</p>","1","class_response","0","test","33","Basalt","Andesite","03","false","2","1","",""
"","","","","","","","","","","","html-keyboard-response","72","2.0.0","156449","66a93f83fc9fcb1959191d2b","1","11","null","","","","","","","","","<p style='font-size: 30px;'><strong>Okay</strong></p>","null","neutral_feedback","0","test","33","","","","","","","",""
"","","","","","","","","","","","html-button-response","73","2.0.0","159490","66a93f83fc9fcb1959191d2b","1","11","3038","","","","","","","","","<img src= ""rock_img/I_Peridotite_13.jpg"" style=""width:8cm; height:7.58cm;""><p>What type of rock is this?</p>","3","class_response","0","test","34","Gabbro","Peridotite","13","false","4","7","",""
"","","","","","","","","","","","html-keyboard-response","74","2.0.0","159993","66a93f83fc9fcb1959191d2b","1","11","null","","","","","","","","","<p style='font-size: 30px;'><strong>Okay</strong></p>","null","neutral_feedback","0","test","34","","","","","","","",""
"","","","","","","","","","","","html-button-response","75","2.0.0","161038","66a93f83fc9fcb1959191d2b","1","11","1041","","","","","","","","","<img src= ""rock_img/I_Diorite_13.jpg"" style=""width:8cm; height:6.29cm;""><p>What type of rock is this?</p>","5","class_response","0","test","35","Pegmatite","Diorite","13","false","6","3","",""
"","","","","","","","","","","","html-keyboard-response","76","2.0.0","161542","66a93f83fc9fcb1959191d2b","1","11","null","","","","","","","","","<p style='font-size: 30px;'><strong>Okay</strong></p>","null","neutral_feedback","0","test","35","","","","","","","",""
"","","","","","","","","","","","html-button-response","77","2.0.0","164730","66a93f83fc9fcb1959191d2b","1","11","3184","","","","","","","","","<img src= ""rock_img/I_Peridotite_07.jpg"" style=""width:8cm; height:4.83cm;""><p>What type of rock is this?</p>","2","class_response","0","test","36","Diorite","Peridotite","07","false","3","7","",""
"","","","","","","","","","","","html-keyboard-response","78","2.0.0","165233","66a93f83fc9fcb1959191d2b","1","11","null","","","","","","","","","<p style='font-size: 30px;'><strong>Okay</strong></p>","null","neutral_feedback","0","test","36","","","","","","","",""
"","","","","","","","","","","","html-button-response","79","2.0.0","168517","66a93f83fc9fcb1959191d2b","1","11","3280","","","","","","","","","<img src= ""rock_img/I_Pegmatite_03.jpg"" style=""width:8cm; height:5.239999999999999cm;""><p>What type of rock is this?</p>","2","class_response","0","test","37","Diorite","Pegmatite","03","false","3","6","",""
"","","","","","","","","","","","html-keyboard-response","80","2.0.0","169019","66a93f83fc9fcb1959191d2b","1","11","null","","","","","","","","","<p style='font-size: 30px;'><strong>Okay</strong></p>","null","neutral_feedback","0","test","37","","","","","","","",""
"","","","","","","","","","","","html-button-response","81","2.0.0","170410","66a93f83fc9fcb1959191d2b","1","11","1387","","","","","","","","","<img src= ""rock_img/I_Peridotite_10.jpg"" style=""width:8cm; height:5.390000000000001cm;""><p>What type of rock is this?</p>","2","class_response","0","test","38","Diorite","Peridotite","10","false","3","7","",""
"","","","","","","","","","","","html-keyboard-response","82","2.0.0","170913","66a93f83fc9fcb1959191d2b","1","11","null","","","","","","","","","<p style='font-size: 30px;'><strong>Okay</strong></p>","null","neutral_feedback","0","test","38","","","","","","","",""
"","","","","","","","","","","","html-button-response","83","2.0.0","173395","66a93f83fc9fcb1959191d2b","1","11","2478","","","","","","","","","<img src= ""rock_img/I_Gabbro_13.jpg"" style=""width:8cm; height:5.08cm;""><p>What type of rock is this?</p>","6","class_response","0","test","39","Peridotite","Gabbro","13","false","7","4","",""
"","","","","","","","","","","","html-keyboard-response","84","2.0.0","173898","66a93f83fc9fcb1959191d2b","1","11","null","","","","","","","","","<p style='font-size: 30px;'><strong>Okay</strong></p>","null","neutral_feedback","0","test","39","","","","","","","",""
"","","","","","","","","","","","html-button-response","85","2.0.0","176416","66a93f83fc9fcb1959191d2b","1","11","2515","","","","","","","","","<img src= ""rock_img/I_Gabbro_16.jpg"" style=""width:8cm; height:6.44cm;""><p>What type of rock is this?</p>","7","class_response","0","test","40","Pumice","Gabbro","16","false","8","4","",""
"","","","","","","","","","","","html-keyboard-response","86","2.0.0","176919","66a93f83fc9fcb1959191d2b","1","11","null","","","","","","","","","<p style='font-size: 30px;'><strong>Okay</strong></p>","null","neutral_feedback","0","test","40","","","","","","","",""
"","","","","","","","","","","","html-button-response","87","2.0.0","179392","66a93f83fc9fcb1959191d2b","1","11","2470","","","","","","","","","<img src= ""rock_img/I_Gabbro_10.jpg"" style=""width:8cm; height:5.680000000000001cm;""><p>What type of rock is this?</p>","3","class_response","0","test","41","Gabbro","Gabbro","10","true","4","4","",""
"","","","","","","","","","","","html-keyboard-response","88","2.0.0","179895","66a93f83fc9fcb1959191d2b","1","11","null","","","","","","","","","<p style='font-size: 30px;'><strong>Okay</strong></p>","null","neutral_feedback","0","test","41","","","","","","","",""
"","","","","","","","","","","","html-button-response","89","2.0.0","180963","66a93f83fc9fcb1959191d2b","1","11","1065","","","","","","","","","<img src= ""rock_img/I_Gabbro_03.jpg"" style=""width:8cm; height:8.52cm;""><p>What type of rock is this?</p>","3","class_response","0","test","42","Gabbro","Gabbro","03","true","4","4","",""
"","","","","","","","","","","","html-keyboard-response","90","2.0.0","181466","66a93f83fc9fcb1959191d2b","1","11","null","","","","","","","","","<p style='font-size: 30px;'><strong>Okay</strong></p>","null","neutral_feedback","0","test","42","","","","","","","",""
"","","","","","","","","","","","html-button-response","91","2.0.0","182442","66a93f83fc9fcb1959191d2b","1","11","973","","","","","","","","","<img src= ""rock_img/I_Diorite_06.jpg"" style=""width:8cm; height:6.03cm;""><p>What type of rock is this?</p>","3","class_response","0","test","43","Gabbro","Diorite","06","false","4","3","",""
"","","","","","","","","","","","html-keyboard-response","92","2.0.0","182945","66a93f83fc9fcb1959191d2b","1","11","null","","","","","","","","","<p style='font-size: 30px;'><strong>Okay</strong></p>","null","neutral_feedback","0","test","43","","","","","","","",""
"","","","","","","","","","","","html-button-response","93","2.0.0","183943","66a93f83fc9fcb1959191d2b","1","11","994","","","","","","","","","<img src= ""rock_img/I_Andesite_16.jpg"" style=""width:8cm; height:6.010000000000001cm;""><p>What type of rock is this?</p>","2","class_response","0","test","44","Diorite","Andesite","16","false","3","1","",""
"","","","","","","","","","","","html-keyboard-response","94","2.0.0","184446","66a93f83fc9fcb1959191d2b","1","11","null","","","","","","","","","<p style='font-size: 30px;'><strong>Okay</strong></p>","null","neutral_feedback","0","test","44","","","","","","","",""
"","","","","","","","","","","","html-button-response","95","2.0.0","186205","66a93f83fc9fcb1959191d2b","1","11","1756","","","","","","","","","<img src= ""rock_img/I_Basalt_11.jpg"" style=""width:8cm; height:5.359999999999999cm;""><p>What type of rock is this?</p>","5","class_response","0","test","45","Pegmatite","Basalt","11","false","6","2","",""
"","","","","","","","","","","","html-keyboard-response","96","2.0.0","186708","66a93f83fc9fcb1959191d2b","1","11","null","","","","","","","","","<p style='font-size: 30px;'><strong>Okay</strong></p>","null","neutral_feedback","0","test","45","","","","","","","",""
"","","","","","","","","","","","html-button-response","97","2.0.0","187735","66a93f83fc9fcb1959191d2b","1","11","1024","","","","","","","","","<img src= ""rock_img/I_Andesite_04.jpg"" style=""width:8cm; height:5.96cm;""><p>What type of rock is this?</p>","1","class_response","0","test","46","Basalt","Andesite","04","false","2","1","",""
"","","","","","","","","","","","html-keyboard-response","98","2.0.0","188238","66a93f83fc9fcb1959191d2b","1","11","null","","","","","","","","","<p style='font-size: 30px;'><strong>Okay</strong></p>","null","neutral_feedback","0","test","46","","","","","","","",""
"","","","","","","","","","","","html-button-response","99","2.0.0","189762","66a93f83fc9fcb1959191d2b","1","11","1519","","","","","","","","","<img src= ""rock_img/I_Pumice_14.jpg"" style=""width:8cm; height:6.39cm;""><p>What type of rock is this?</p>","5","class_response","0","test","47","Pegmatite","Pumice","14","false","6","8","",""
"","","","","","","","","","","","html-keyboard-response","100","2.0.0","190264","66a93f83fc9fcb1959191d2b","1","11","null","","","","","","","","","<p style='font-size: 30px;'><strong>Okay</strong></p>","null","neutral_feedback","0","test","47","","","","","","","",""
"","","","","","","","","","","","html-button-response","101","2.0.0","192865","66a93f83fc9fcb1959191d2b","1","11","2597","","","","","","","","","<img src= ""rock_img/I_Pegmatite_08.jpg"" style=""width:8cm; height:7.68cm;""><p>What type of rock is this?</p>","4","class_response","0","test","48","Obsidian","Pegmatite","08","false","5","6","",""
"","","","","","","","","","","","html-keyboard-response","102","2.0.0","193368","66a93f83fc9fcb1959191d2b","1","11","null","","","","","","","","","<p style='font-size: 30px;'><strong>Okay</strong></p>","null","neutral_feedback","0","test","48","","","","","","","",""
"","","","","","","","","","","","instructions","103","2.0.0","216359","66a93f83fc9fcb1959191d2b","1","11","22938","","","","","","","","[{""page_index"":0,""viewing_time"":15112},{""page_index"":1,""viewing_time"":4288},{""page_index"":2,""viewing_time"":3538}]","","","","","","","","","","","","","",""
"","","","","","","","","","","","html-button-response","104","2.0.0","221973","66a93f83fc9fcb1959191d2b","1","11","5612","","","","","","","","","","0","start_train","","","","","","","","","","",""
"","","","","","","","","","","","html-button-response","105","2.0.0","223458","66a93f83fc9fcb1959191d2b","1","11","1480","","","","","","","","","<img src= ""rock_img/I_Gabbro_08.jpg"" style=""width:8cm; height:5.15cm;""><p>What type of rock is this?</p>","2","class_response","1","train","1","Diorite","Gabbro","08","false","3","4","",""
"","","","","","","","","","","","html-button-response","106","2.0.0","224367","66a93f83fc9fcb1959191d2b","1","11","906","","","","","","","","","<img src= rock_img/I_Gabbro_08.jpg style=""width:8cm; height:5.15cm;""><p style='font-size: 30px; color: red;'><strong>Incorrect!</strong></p><p style='font-size: 30px;'><strong>This rock is gabbro</strong></p>","0","corr_feedback","1","train","1","","","","","","","",""
"","","","","","","","","","","","html-button-response","107","2.0.0","226698","66a93f83fc9fcb1959191d2b","1","11","2327","","","","","","","","","<img src= ""rock_img/I_Andesite_07.jpg"" style=""width:8cm; height:5.93cm;""><p>What type of rock is this?</p>","3","class_response","1","train","2","Gabbro","Andesite","07","false","4","1","",""
"","","","","","","","","","","","html-button-response","108","2.0.0","228147","66a93f83fc9fcb1959191d2b","1","11","1445","","","","","","","","","<img src= rock_img/I_Andesite_07.jpg style=""width:8cm; height:5.93cm;""><p style='font-size: 30px; color: red;'><strong>Incorrect!</strong></p><p style='font-size: 30px;'><strong>This rock is andesite</strong></p>","0","corr_feedback","1","train","2","","","","","","","",""
"","","","","","","","","","","","html-button-response","109","2.0.0","229637","66a93f83fc9fcb1959191d2b","1","11","1486","","","","","","","","","<img src= ""rock_img/I_Diorite_02.jpg"" style=""width:8cm; height:6.27cm;""><p>What type of rock is this?</p>","6","class_response","1","train","3","Peridotite","Diorite","02","false","7","3","",""
"","","","","","","","","","","","html-button-response","110","2.0.0","230497","66a93f83fc9fcb1959191d2b","1","11","856","","","","","","","","","<img src= rock_img/I_Diorite_02.jpg style=""width:8cm; height:6.27cm;""><p style='font-size: 30px; color: red;'><strong>Incorrect!</strong></p><p style='font-size: 30px;'><strong>This rock is diorite</strong></p>","0","corr_feedback","1","train","3","","","","","","","",""
"","","","","","","","","","","","html-button-response","111","2.0.0","231973","66a93f83fc9fcb1959191d2b","1","11","1472","","","","","","","","","<img src= ""rock_img/I_Pegmatite_15.jpg"" style=""width:8cm; height:6cm;""><p>What type of rock is this?</p>","1","class_response","1","train","4","Basalt","Pegmatite","15","false","2","6","",""
"","","","","","","","","","","","html-button-response","112","2.0.0","233076","66a93f83fc9fcb1959191d2b","1","11","1100","","","","","","","","","<img src= rock_img/I_Pegmatite_15.jpg style=""width:8cm; height:6cm;""><p style='font-size: 30px; color: red;'><strong>Incorrect!</strong></p><p style='font-size: 30px;'><strong>This rock is pegmatite</strong></p>","0","corr_feedback","1","train","4","","","","","","","",""
"","","","","","","","","","","","html-button-response","113","2.0.0","234533","66a93f83fc9fcb1959191d2b","1","11","1453","","","","","","","","","<img src= ""rock_img/I_Pumice_16.jpg"" style=""width:8cm; height:6.79cm;""><p>What type of rock is this?</p>","5","class_response","1","train","5","Pegmatite","Pumice","16","false","6","8","",""
"","","","","","","","","","","","html-button-response","114","2.0.0","235163","66a93f83fc9fcb1959191d2b","1","11","626","","","","","","","","","<img src= rock_img/I_Pumice_16.jpg style=""width:8cm; height:6.79cm;""><p style='font-size: 30px; color: red;'><strong>Incorrect!</strong></p><p style='font-size: 30px;'><strong>This rock is pumice</strong></p>","0","corr_feedback","1","train","5","","","","","","","",""
"","","","","","","","","","","","html-button-response","115","2.0.0","236797","66a93f83fc9fcb1959191d2b","1","11","1630","","","","","","","","","<img src= ""rock_img/I_Gabbro_14.jpg"" style=""width:8cm; height:8.48cm;""><p>What type of rock is this?</p>","0","class_response","1","train","6","Andesite","Gabbro","14","false","1","4","",""
"","","","","","","","","","","","html-button-response","116","2.0.0","237563","66a93f83fc9fcb1959191d2b","1","11","762","","","","","","","","","<img src= rock_img/I_Gabbro_14.jpg style=""width:8cm; height:8.48cm;""><p style='font-size: 30px; color: red;'><strong>Incorrect!</strong></p><p style='font-size: 30px;'><strong>This rock is gabbro</strong></p>","0","corr_feedback","1","train","6","","","","","","","",""
"","","","","","","","","","","","html-button-response","117","2.0.0","240003","66a93f83fc9fcb1959191d2b","1","11","2438","","","","","","","","","<img src= ""rock_img/I_Pegmatite_05.jpg"" style=""width:8cm; height:7.300000000000001cm;""><p>What type of rock is this?</p>","3","class_response","1","train","7","Gabbro","Pegmatite","05","false","4","6","",""
"","","","","","","","","","","","html-button-response","118","2.0.0","240783","66a93f83fc9fcb1959191d2b","1","11","776","","","","","","","","","<img src= rock_img/I_Pegmatite_05.jpg style=""width:8cm; height:7.300000000000001cm;""><p style='font-size: 30px; color: red;'><strong>Incorrect!</strong></p><p style='font-size: 30px;'><strong>This rock is pegmatite</strong></p>","0","corr_feedback","1","train","7","","","","","","","",""
"","","","","","","","","","","","html-button-response","119","2.0.0","243507","66a93f83fc9fcb1959191d2b","1","11","2720","","","","","","","","","<img src= ""rock_img/I_Basalt_12.jpg"" style=""width:8cm; height:6.010000000000001cm;""><p>What type of rock is this?</p>","6","class_response","1","train","8","Peridotite","Basalt","12","false","7","2","",""
"","","","","","","","","","","","html-button-response","120","2.0.0","244150","66a93f83fc9fcb1959191d2b","1","11","640","","","","","","","","","<img src= rock_img/I_Basalt_12.jpg style=""width:8cm; height:6.010000000000001cm;""><p style='font-size: 30px; color: red;'><strong>Incorrect!</strong></p><p style='font-size: 30px;'><strong>This rock is basalt</strong></p>","0","corr_feedback","1","train","8","","","","","","","",""
"","","","","","","","","","","","html-button-response","121","2.0.0","245312","66a93f83fc9fcb1959191d2b","1","11","1161","","","","","","","","","<img src= ""rock_img/I_Andesite_06.jpg"" style=""width:8cm; height:6.840000000000001cm;""><p>What type of rock is this?</p>","6","class_response","1","train","9","Peridotite","Andesite","06","false","7","1","",""
"","","","","","","","","","","","html-button-response","122","2.0.0","245903","66a93f83fc9fcb1959191d2b","1","11","588","","","","","","","","","<img src= rock_img/I_Andesite_06.jpg style=""width:8cm; height:6.840000000000001cm;""><p style='font-size: 30px; color: red;'><strong>Incorrect!</strong></p><p style='font-size: 30px;'><strong>This rock is andesite</strong></p>","0","corr_feedback","1","train","9","","","","","","","",""
"","","","","","","","","","","","html-button-response","123","2.0.0","247136","66a93f83fc9fcb1959191d2b","1","11","1230","","","","","","","","","<img src= ""rock_img/I_Gabbro_05.jpg"" style=""width:8cm; height:6cm;""><p>What type of rock is this?</p>","6","class_response","1","train","10","Peridotite","Gabbro","05","false","7","4","",""
"","","","","","","","","","","","html-button-response","124","2.0.0","247755","66a93f83fc9fcb1959191d2b","1","11","616","","","","","","","","","<img src= rock_img/I_Gabbro_05.jpg style=""width:8cm; height:6cm;""><p style='font-size: 30px; color: red;'><strong>Incorrect!</strong></p><p style='font-size: 30px;'><strong>This rock is gabbro</strong></p>","0","corr_feedback","1","train","10","","","","","","","",""
"","","","","","","","","","","","html-button-response","125","2.0.0","248593","66a93f83fc9fcb1959191d2b","1","11","834","","","","","","","","","<img src= ""rock_img/I_Pumice_06.jpg"" style=""width:8cm; height:6.9399999999999995cm;""><p>What type of rock is this?</p>","6","class_response","1","train","11","Peridotite","Pumice","06","false","7","8","",""
"","","","","","","","","","","","html-button-response","126","2.0.0","249236","66a93f83fc9fcb1959191d2b","1","11","639","","","","","","","","","<img src= rock_img/I_Pumice_06.jpg style=""width:8cm; height:6.9399999999999995cm;""><p style='font-size: 30px; color: red;'><strong>Incorrect!</strong></p><p style='font-size: 30px;'><strong>This rock is pumice</strong></p>","0","corr_feedback","1","train","11","","","","","","","",""
"","","","","","","","","","","","html-button-response","127","2.0.0","250654","66a93f83fc9fcb1959191d2b","1","11","1414","","","","","","","","","<img src= ""rock_img/I_Obsidian_14.jpg"" style=""width:8cm; height:7.64cm;""><p>What type of rock is this?</p>","4","class_response","1","train","12","Obsidian","Obsidian","14","true","5","5","",""
"","","","","","","","","","","","html-button-response","128","2.0.0","251633","66a93f83fc9fcb1959191d2b","1","11","975","","","","","","","","","<img src= rock_img/I_Obsidian_14.jpg style=""width:8cm; height:7.64cm;""><p style='font-size: 30px; color: green;'><strong>Correct!</strong></p><p style='font-size: 30px;'><strong>This rock is obsidian</strong></p>","0","corr_feedback","1","train","12","","","","","","","",""
"","","","","","","","","","","","html-button-response","129","2.0.0","253280","66a93f83fc9fcb1959191d2b","1","11","1645","","","","","","","","","<img src= ""rock_img/I_Andesite_01.jpg"" style=""width:8cm; height:5.87cm;""><p>What type of rock is this?</p>","1","class_response","1","train","13","Basalt","Andesite","01","false","2","1","",""
"","","","","","","","","","","","html-button-response","130","2.0.0","254271","66a93f83fc9fcb1959191d2b","1","11","987","","","","","","","","","<img src= rock_img/I_Andesite_01.jpg style=""width:8cm; height:5.87cm;""><p style='font-size: 30px; color: red;'><strong>Incorrect!</strong></p><p style='font-size: 30px;'><strong>This rock is andesite</strong></p>","0","corr_feedback","1","train","13","","","","","","","",""
"","","","","","","","","","","","html-button-response","131","2.0.0","255356","66a93f83fc9fcb1959191d2b","1","11","1081","","","","","","","","","<img src= ""rock_img/I_Basalt_10.jpg"" style=""width:8cm; height:5.85cm;""><p>What type of rock is this?</p>","1","class_response","1","train","14","Basalt","Basalt","10","true","2","2","",""
"","","","","","","","","","","","html-button-response","132","2.0.0","256439","66a93f83fc9fcb1959191d2b","1","11","1081","","","","","","","","","<img src= rock_img/I_Basalt_10.jpg style=""width:8cm; height:5.85cm;""><p style='font-size: 30px; color: green;'><strong>Correct!</strong></p><p style='font-size: 30px;'><strong>This rock is basalt</strong></p>","0","corr_feedback","1","train","14","","","","","","","",""
"","","","","","","","","","","","html-button-response","133","2.0.0","258059","66a93f83fc9fcb1959191d2b","1","11","1617","","","","","","","","","<img src= ""rock_img/I_Peridotite_04.jpg"" style=""width:8cm; height:6.680000000000001cm;""><p>What type of rock is this?</p>","0","class_response","1","train","15","Andesite","Peridotite","04","false","1","7","",""
"","","","","","","","","","","","html-button-response","134","2.0.0","258855","66a93f83fc9fcb1959191d2b","1","11","792","","","","","","","","","<img src= rock_img/I_Peridotite_04.jpg style=""width:8cm; height:6.680000000000001cm;""><p style='font-size: 30px; color: red;'><strong>Incorrect!</strong></p><p style='font-size: 30px;'><strong>This rock is peridotite</strong></p>","0","corr_feedback","1","train","15","","","","","","","",""
"","","","","","","","","","","","html-button-response","135","2.0.0","259909","66a93f83fc9fcb1959191d2b","1","11","1051","","","","","","","","","<img src= ""rock_img/I_Basalt_01.jpg"" style=""width:8cm; height:7.880000000000001cm;""><p>What type of rock is this?</p>","1","class_response","1","train","16","Basalt","Basalt","01","true","2","2","",""
"","","","","","","","","","","","html-button-response","136","2.0.0","260517","66a93f83fc9fcb1959191d2b","1","11","604","","","","","","","","","<img src= rock_img/I_Basalt_01.jpg style=""width:8cm; height:7.880000000000001cm;""><p style='font-size: 30px; color: green;'><strong>Correct!</strong></p><p style='font-size: 30px;'><strong>This rock is basalt</strong></p>","0","corr_feedback","1","train","16","","","","","","","",""
"","","","","","","","","","","","html-button-response","137","2.0.0","262509","66a93f83fc9fcb1959191d2b","1","11","1988","","","","","","","","","<img src= ""rock_img/I_Pumice_04.jpg"" style=""width:8cm; height:6.819999999999999cm;""><p>What type of rock is this?</p>","3","class_response","1","train","17","Gabbro","Pumice","04","false","4","8","",""
"","","","","","","","","","","","html-button-response","138","2.0.0","264500","66a93f83fc9fcb1959191d2b","1","11","1987","","","","","","","","","<img src= rock_img/I_Pumice_04.jpg style=""width:8cm; height:6.819999999999999cm;""><p style='font-size: 30px; color: red;'><strong>Incorrect!</strong></p><p style='font-size: 30px;'><strong>This rock is pumice</strong></p>","0","corr_feedback","1","train","17","","","","","","","",""
"","","","","","","","","","","","html-button-response","139","2.0.0","266547","66a93f83fc9fcb1959191d2b","1","11","2043","","","","","","","","","<img src= ""rock_img/I_Gabbro_12.jpg"" style=""width:8cm; height:7.800000000000001cm;""><p>What type of rock is this?</p>","3","class_response","1","train","18","Gabbro","Gabbro","12","true","4","4","",""
"","","","","","","","","","","","html-button-response","140","2.0.0","267705","66a93f83fc9fcb1959191d2b","1","11","1156","","","","","","","","","<img src= rock_img/I_Gabbro_12.jpg style=""width:8cm; height:7.800000000000001cm;""><p style='font-size: 30px; color: green;'><strong>Correct!</strong></p><p style='font-size: 30px;'><strong>This rock is gabbro</strong></p>","0","corr_feedback","1","train","18","","","","","","","",""
"","","","","","","","","","","","html-button-response","141","2.0.0","268637","66a93f83fc9fcb1959191d2b","1","11","928","","","","","","","","","<img src= ""rock_img/I_Gabbro_01.jpg"" style=""width:8cm; height:5.21cm;""><p>What type of rock is this?</p>","3","class_response","1","train","19","Gabbro","Gabbro","01","true","4","4","",""
"","","","","","","","","","","","html-button-response","142","2.0.0","270036","66a93f83fc9fcb1959191d2b","1","11","1397","","","","","","","","","<img src= rock_img/I_Gabbro_01.jpg style=""width:8cm; height:5.21cm;""><p style='font-size: 30px; color: green;'><strong>Correct!</strong></p><p style='font-size: 30px;'><strong>This rock is gabbro</strong></p>","0","corr_feedback","1","train","19","","","","","","","",""
"","","","","","","","","","","","html-button-response","143","2.0.0","272007","66a93f83fc9fcb1959191d2b","1","11","1967","","","","","","","","","<img src= ""rock_img/I_Pumice_13.jpg"" style=""width:8cm; height:8.200000000000001cm;""><p>What type of rock is this?</p>","7","class_response","1","train","20","Pumice","Pumice","13","true","8","8","",""
"","","","","","","","","","","","html-button-response","144","2.0.0","272970","66a93f83fc9fcb1959191d2b","1","11","959","","","","","","","","","<img src= rock_img/I_Pumice_13.jpg style=""width:8cm; height:8.200000000000001cm;""><p style='font-size: 30px; color: green;'><strong>Correct!</strong></p><p style='font-size: 30px;'><strong>This rock is pumice</strong></p>","0","corr_feedback","1","train","20","","","","","","","",""
"","","","","","","","","","","","html-button-response","145","2.0.0","275916","66a93f83fc9fcb1959191d2b","1","11","2942","","","","","","","","","<img src= ""rock_img/I_Pegmatite_12.jpg"" style=""width:8cm; height:5.7cm;""><p>What type of rock is this?</p>","2","class_response","1","train","21","Diorite","Pegmatite","12","false","3","6","",""
"","","","","","","","","","","","html-button-response","146","2.0.0","276685","66a93f83fc9fcb1959191d2b","1","11","766","","","","","","","","","<img src= rock_img/I_Pegmatite_12.jpg style=""width:8cm; height:5.7cm;""><p style='font-size: 30px; color: red;'><strong>Incorrect!</strong></p><p style='font-size: 30px;'><strong>This rock is pegmatite</strong></p>","0","corr_feedback","1","train","21","","","","","","","",""
"","","","","","","","","","","","html-button-response","147","2.0.0","277970","66a93f83fc9fcb1959191d2b","1","11","1281","","","","","","","","","<img src= ""rock_img/I_Pegmatite_06.jpg"" style=""width:8cm; height:5.17cm;""><p>What type of rock is this?</p>","6","class_response","1","train","22","Peridotite","Pegmatite","06","false","7","6","",""
"","","","","","","","","","","","html-button-response","148","2.0.0","279028","66a93f83fc9fcb1959191d2b","1","11","1055","","","","","","","","","<img src= rock_img/I_Pegmatite_06.jpg style=""width:8cm; height:5.17cm;""><p style='font-size: 30px; color: red;'><strong>Incorrect!</strong></p><p style='font-size: 30px;'><strong>This rock is pegmatite</strong></p>","0","corr_feedback","1","train","22","","","","","","","",""
"","","","","","","","","","","","html-button-response","149","2.0.0","280329","66a93f83fc9fcb1959191d2b","1","11","1297","","","","","","","","","<img src= ""rock_img/I_Obsidian_04.jpg"" style=""width:8cm; height:6.930000000000001cm;""><p>What type of rock is this?</p>","4","class_response","1","train","23","Obsidian","Obsidian","04","true","5","5","",""
"","","","","","","","","","","","html-button-response","150","2.0.0","280909","66a93f83fc9fcb1959191d2b","1","11","577","","","","","","","","","<img src= rock_img/I_Obsidian_04.jpg style=""width:8cm; height:6.930000000000001cm;""><p style='font-size: 30px; color: green;'><strong>Correct!</strong></p><p style='font-size: 30px;'><strong>This rock is obsidian</strong></p>","0","corr_feedback","1","train","23","","","","","","","",""
"","","","","","","","","","","","html-button-response","151","2.0.0","283886","66a93f83fc9fcb1959191d2b","1","11","2974","","","","","","","","","<img src= ""rock_img/I_Pegmatite_11.jpg"" style=""width:8cm; height:8.14cm;""><p>What type of rock is this?</p>","0","class_response","1","train","24","Andesite","Pegmatite","11","false","1","6","",""
"","","","","","","","","","","","html-button-response","152","2.0.0","284695","66a93f83fc9fcb1959191d2b","1","11","806","","","","","","","","","<img src= rock_img/I_Pegmatite_11.jpg style=""width:8cm; height:8.14cm;""><p style='font-size: 30px; color: red;'><strong>Incorrect!</strong></p><p style='font-size: 30px;'><strong>This rock is pegmatite</strong></p>","0","corr_feedback","1","train","24","","","","","","","",""
"","","","","","","","","","","","html-button-response","153","2.0.0","286457","66a93f83fc9fcb1959191d2b","1","11","1758","","","","","","","","","<img src= ""rock_img/I_Pumice_08.jpg"" style=""width:8cm; height:6.67cm;""><p>What type of rock is this?</p>","7","class_response","1","train","25","Pumice","Pumice","08","true","8","8","",""
"","","","","","","","","","","","html-button-response","154","2.0.0","287426","66a93f83fc9fcb1959191d2b","1","11","966","","","","","","","","","<img src= rock_img/I_Pumice_08.jpg style=""width:8cm; height:6.67cm;""><p style='font-size: 30px; color: green;'><strong>Correct!</strong></p><p style='font-size: 30px;'><strong>This rock is pumice</strong></p>","0","corr_feedback","1","train","25","","","","","","","",""
"","","","","","","","","","","","html-button-response","155","2.0.0","289787","66a93f83fc9fcb1959191d2b","1","11","2357","","","","","","","","","<img src= ""rock_img/I_Diorite_10.jpg"" style=""width:8cm; height:5.949999999999999cm;""><p>What type of rock is this?</p>","3","class_response","1","train","26","Gabbro","Diorite","10","false","4","3","",""
"","","","","","","","","","","","html-button-response","156","2.0.0","290499","66a93f83fc9fcb1959191d2b","1","11","708","","","","","","","","","<img src= rock_img/I_Diorite_10.jpg style=""width:8cm; height:5.949999999999999cm;""><p style='font-size: 30px; color: red;'><strong>Incorrect!</strong></p><p style='font-size: 30px;'><strong>This rock is diorite</strong></p>","0","corr_feedback","1","train","26","","","","","","","",""
"","","","","","","","","","","","html-button-response","157","2.0.0","291859","66a93f83fc9fcb1959191d2b","1","11","1356","","","","","","","","","<img src= ""rock_img/I_Pumice_05.jpg"" style=""width:8cm; height:7.25cm;""><p>What type of rock is this?</p>","7","class_response","1","train","27","Pumice","Pumice","05","true","8","8","",""
"","","","","","","","","","","","html-button-response","158","2.0.0","292436","66a93f83fc9fcb1959191d2b","1","11","573","","","","","","","","","<img src= rock_img/I_Pumice_05.jpg style=""width:8cm; height:7.25cm;""><p style='font-size: 30px; color: green;'><strong>Correct!</strong></p><p style='font-size: 30px;'><strong>This rock is pumice</strong></p>","0","corr_feedback","1","train","27","","","","","","","",""
"","","","","","","","","","","","html-button-response","159","2.0.0","294216","66a93f83fc9fcb1959191d2b","1","11","1777","","","","","","","","","<img src= ""rock_img/I_Peridotite_12.jpg"" style=""width:8cm; height:4.54cm;""><p>What type of rock is this?</p>","6","class_response","1","train","28","Peridotite","Peridotite","12","true","7","7","",""
"","","","","","","","","","","","html-button-response","160","2.0.0","295916","66a93f83fc9fcb1959191d2b","1","11","1696","","","","","","","","","<img src= rock_img/I_Peridotite_12.jpg style=""width:8cm; height:4.54cm;""><p style='font-size: 30px; color: green;'><strong>Correct!</strong></p><p style='font-size: 30px;'><strong>This rock is peridotite</strong></p>","0","corr_feedback","1","train","28","","","","","","","",""
"","","","","","","","","","","","html-button-response","161","2.0.0","297206","66a93f83fc9fcb1959191d2b","1","11","1286","","","","","","","","","<img src= ""rock_img/I_Obsidian_10.jpg"" style=""width:8cm; height:6.260000000000001cm;""><p>What type of rock is this?</p>","4","class_response","1","train","29","Obsidian","Obsidian","10","true","5","5","",""
"","","","","","","","","","","","html-button-response","162","2.0.0","297866","66a93f83fc9fcb1959191d2b","1","11","657","","","","","","","","","<img src= rock_img/I_Obsidian_10.jpg style=""width:8cm; height:6.260000000000001cm;""><p style='font-size: 30px; color: green;'><strong>Correct!</strong></p><p style='font-size: 30px;'><strong>This rock is obsidian</strong></p>","0","corr_feedback","1","train","29","","","","","","","",""
"","","","","","","","","","","","html-button-response","163","2.0.0","299035","66a93f83fc9fcb1959191d2b","1","11","1165","","","","","","","","","<img src= ""rock_img/I_Obsidian_11.jpg"" style=""width:8cm; height:6.05cm;""><p>What type of rock is this?</p>","4","class_response","1","train","30","Obsidian","Obsidian","11","true","5","5","",""
"","","","","","","","","","","","html-button-response","164","2.0.0","299559","66a93f83fc9fcb1959191d2b","1","11","520","","","","","","","","","<img src= rock_img/I_Obsidian_11.jpg style=""width:8cm; height:6.05cm;""><p style='font-size: 30px; color: green;'><strong>Correct!</strong></p><p style='font-size: 30px;'><strong>This rock is obsidian</strong></p>","0","corr_feedback","1","train","30","","","","","","","",""
"","","","","","","","","","","","html-button-response","165","2.0.0","300696","66a93f83fc9fcb1959191d2b","1","11","1134","","","","","","","","","<img src= ""rock_img/I_Basalt_02.jpg"" style=""width:8cm; height:6.45cm;""><p>What type of rock is this?</p>","1","class_response","1","train","31","Basalt","Basalt","02","true","2","2","",""
"","","","","","","","","","","","html-button-response","166","2.0.0","301195","66a93f83fc9fcb1959191d2b","1","11","495","","","","","","","","","<img src= rock_img/I_Basalt_02.jpg style=""width:8cm; height:6.45cm;""><p style='font-size: 30px; color: green;'><strong>Correct!</strong></p><p style='font-size: 30px;'><strong>This rock is basalt</strong></p>","0","corr_feedback","1","train","31","","","","","","","",""
"","","","","","","","","","","","html-button-response","167","2.0.0","302216","66a93f83fc9fcb1959191d2b","1","11","1017","","","","","","","","","<img src= ""rock_img/I_Obsidian_02.jpg"" style=""width:8cm; height:7.51cm;""><p>What type of rock is this?</p>","4","class_response","1","train","32","Obsidian","Obsidian","02","true","5","5","",""
"","","","","","","","","","","","html-button-response","168","2.0.0","302948","66a93f83fc9fcb1959191d2b","1","11","729","","","","","","","","","<img src= rock_img/I_Obsidian_02.jpg style=""width:8cm; height:7.51cm;""><p style='font-size: 30px; color: green;'><strong>Correct!</strong></p><p style='font-size: 30px;'><strong>This rock is obsidian</strong></p>","0","corr_feedback","1","train","32","","","","","","","",""
"","","","","","","","","","","","html-button-response","169","2.0.0","304386","66a93f83fc9fcb1959191d2b","1","11","1434","","","","","","","","","<img src= ""rock_img/I_Basalt_16.jpg"" style=""width:8cm; height:7.659999999999999cm;""><p>What type of rock is this?</p>","7","class_response","1","train","33","Pumice","Basalt","16","false","8","2","",""
"","","","","","","","","","","","html-button-response","170","2.0.0","305048","66a93f83fc9fcb1959191d2b","1","11","658","","","","","","","","","<img src= rock_img/I_Basalt_16.jpg style=""width:8cm; height:7.659999999999999cm;""><p style='font-size: 30px; color: red;'><strong>Incorrect!</strong></p><p style='font-size: 30px;'><strong>This rock is basalt</strong></p>","0","corr_feedback","1","train","33","","","","","","","",""
"","","","","","","","","","","","html-button-response","171","2.0.0","306355","66a93f83fc9fcb1959191d2b","1","11","1303","","","","","","","","","<img src= ""rock_img/I_Obsidian_06.jpg"" style=""width:8cm; height:6.8cm;""><p>What type of rock is this?</p>","4","class_response","1","train","34","Obsidian","Obsidian","06","true","5","5","",""
"","","","","","","","","","","","html-button-response","172","2.0.0","306888","66a93f83fc9fcb1959191d2b","1","11","529","","","","","","","","","<img src= rock_img/I_Obsidian_06.jpg style=""width:8cm; height:6.8cm;""><p style='font-size: 30px; color: green;'><strong>Correct!</strong></p><p style='font-size: 30px;'><strong>This rock is obsidian</strong></p>","0","corr_feedback","1","train","34","","","","","","","",""
"","","","","","","","","","","","html-button-response","173","2.0.0","308487","66a93f83fc9fcb1959191d2b","1","11","1596","","","","","","","","","<img src= ""rock_img/I_Pegmatite_09.jpg"" style=""width:8cm; height:4.03cm;""><p>What type of rock is this?</p>","6","class_response","1","train","35","Peridotite","Pegmatite","09","false","7","6","",""
"","","","","","","","","","","","html-button-response","174","2.0.0","309108","66a93f83fc9fcb1959191d2b","1","11","617","","","","","","","","","<img src= rock_img/I_Pegmatite_09.jpg style=""width:8cm; height:4.03cm;""><p style='font-size: 30px; color: red;'><strong>Incorrect!</strong></p><p style='font-size: 30px;'><strong>This rock is pegmatite</strong></p>","0","corr_feedback","1","train","35","","","","","","","",""
"","","","","","","","","","","","html-button-response","175","2.0.0","310567","66a93f83fc9fcb1959191d2b","1","11","1457","","","","","","","","","<img src= ""rock_img/I_Peridotite_08.jpg"" style=""width:8cm; height:6.7cm;""><p>What type of rock is this?</p>","3","class_response","1","train","36","Gabbro","Peridotite","08","false","4","7","",""
"","","","","","","","","","","","html-button-response","176","2.0.0","311204","66a93f83fc9fcb1959191d2b","1","11","634","","","","","","","","","<img src= rock_img/I_Peridotite_08.jpg style=""width:8cm; height:6.7cm;""><p style='font-size: 30px; color: red;'><strong>Incorrect!</strong></p><p style='font-size: 30px;'><strong>This rock is peridotite</strong></p>","0","corr_feedback","1","train","36","","","","","","","",""
"","","","","","","","","","","","html-button-response","177","2.0.0","313837","66a93f83fc9fcb1959191d2b","1","11","2630","","","","","","","","","<img src= ""rock_img/I_Basalt_05.jpg"" style=""width:8cm; height:8.18cm;""><p>What type of rock is this?</p>","1","class_response","1","train","37","Basalt","Basalt","05","true","2","2","",""
"","","","","","","","","","","","html-button-response","178","2.0.0","314383","66a93f83fc9fcb1959191d2b","1","11","543","","","","","","","","","<img src= rock_img/I_Basalt_05.jpg style=""width:8cm; height:8.18cm;""><p style='font-size: 30px; color: green;'><strong>Correct!</strong></p><p style='font-size: 30px;'><strong>This rock is basalt</strong></p>","0","corr_feedback","1","train","37","","","","","","","",""
"","","","","","","","","","","","html-button-response","179","2.0.0","315578","66a93f83fc9fcb1959191d2b","1","11","1191","","","","","","","","","<img src= ""rock_img/I_Andesite_11.jpg"" style=""width:8cm; height:4.92cm;""><p>What type of rock is this?</p>","6","class_response","1","train","38","Peridotite","Andesite","11","false","7","1","",""
"","","","","","","","","","","","html-button-response","180","2.0.0","316154","66a93f83fc9fcb1959191d2b","1","11","573","","","","","","","","","<img src= rock_img/I_Andesite_11.jpg style=""width:8cm; height:4.92cm;""><p style='font-size: 30px; color: red;'><strong>Incorrect!</strong></p><p style='font-size: 30px;'><strong>This rock is andesite</strong></p>","0","corr_feedback","1","train","38","","","","","","","",""
"","","","","","","","","","","","html-button-response","181","2.0.0","318095","66a93f83fc9fcb1959191d2b","1","11","1937","","","","","","","","","<img src= ""rock_img/I_Diorite_09.jpg"" style=""width:8cm; height:5.27cm;""><p>What type of rock is this?</p>","6","class_response","1","train","39","Peridotite","Diorite","09","false","7","3","",""
"","","","","","","","","","","","html-button-response","182","2.0.0","318657","66a93f83fc9fcb1959191d2b","1","11","559","","","","","","","","","<img src= rock_img/I_Diorite_09.jpg style=""width:8cm; height:5.27cm;""><p style='font-size: 30px; color: red;'><strong>Incorrect!</strong></p><p style='font-size: 30px;'><strong>This rock is diorite</strong></p>","0","corr_feedback","1","train","39","","","","","","","",""
"","","","","","","","","","","","html-button-response","183","2.0.0","319925","66a93f83fc9fcb1959191d2b","1","11","1264","","","","","","","","","<img src= ""rock_img/I_Diorite_12.jpg"" style=""width:8cm; height:4.88cm;""><p>What type of rock is this?</p>","6","class_response","1","train","40","Peridotite","Diorite","12","false","7","3","",""
"","","","","","","","","","","","html-button-response","184","2.0.0","320447","66a93f83fc9fcb1959191d2b","1","11","518","","","","","","","","","<img src= rock_img/I_Diorite_12.jpg style=""width:8cm; height:4.88cm;""><p style='font-size: 30px; color: red;'><strong>Incorrect!</strong></p><p style='font-size: 30px;'><strong>This rock is diorite</strong></p>","0","corr_feedback","1","train","40","","","","","","","",""
"","","","","","","","","","","","html-button-response","185","2.0.0","321615","66a93f83fc9fcb1959191d2b","1","11","1164","","","","","","","","","<img src= ""rock_img/I_Andesite_02.jpg"" style=""width:8cm; height:8.5cm;""><p>What type of rock is this?</p>","6","class_response","1","train","41","Peridotite","Andesite","02","false","7","1","",""
"","","","","","","","","","","","html-button-response","186","2.0.0","322175","66a93f83fc9fcb1959191d2b","1","11","556","","","","","","","","","<img src= rock_img/I_Andesite_02.jpg style=""width:8cm; height:8.5cm;""><p style='font-size: 30px; color: red;'><strong>Incorrect!</strong></p><p style='font-size: 30px;'><strong>This rock is andesite</strong></p>","0","corr_feedback","1","train","41","","","","","","","",""
"","","","","","","","","","","","html-button-response","187","2.0.0","323174","66a93f83fc9fcb1959191d2b","1","11","996","","","","","","","","","<img src= ""rock_img/I_Andesite_10.jpg"" style=""width:8cm; height:4.16cm;""><p>What type of rock is this?</p>","6","class_response","1","train","42","Peridotite","Andesite","10","false","7","1","",""
"","","","","","","","","","","","html-button-response","188","2.0.0","323644","66a93f83fc9fcb1959191d2b","1","11","468","","","","","","","","","<img src= rock_img/I_Andesite_10.jpg style=""width:8cm; height:4.16cm;""><p style='font-size: 30px; color: red;'><strong>Incorrect!</strong></p><p style='font-size: 30px;'><strong>This rock is andesite</strong></p>","0","corr_feedback","1","train","42","","","","","","","",""
"","","","","","","","","","","","html-button-response","189","2.0.0","326358","66a93f83fc9fcb1959191d2b","1","11","2710","","","","","","","","","<img src= ""rock_img/I_Gabbro_09.jpg"" style=""width:8cm; height:7.279999999999999cm;""><p>What type of rock is this?</p>","4","class_response","1","train","43","Obsidian","Gabbro","09","false","5","4","",""
"","","","","","","","","","","","html-button-response","190","2.0.0","326928","66a93f83fc9fcb1959191d2b","1","11","566","","","","","","","","","<img src= rock_img/I_Gabbro_09.jpg style=""width:8cm; height:7.279999999999999cm;""><p style='font-size: 30px; color: red;'><strong>Incorrect!</strong></p><p style='font-size: 30px;'><strong>This rock is gabbro</strong></p>","0","corr_feedback","1","train","43","","","","","","","",""
"","","","","","","","","","","","html-button-response","191","2.0.0","328808","66a93f83fc9fcb1959191d2b","1","11","1876","","","","","","","","","<img src= ""rock_img/I_Diorite_07.jpg"" style=""width:8cm; height:5.239999999999999cm;""><p>What type of rock is this?</p>","5","class_response","1","train","44","Pegmatite","Diorite","07","false","6","3","",""
"","","","","","","","","","","","html-button-response","192","2.0.0","329346","66a93f83fc9fcb1959191d2b","1","11","535","","","","","","","","","<img src= rock_img/I_Diorite_07.jpg style=""width:8cm; height:5.239999999999999cm;""><p style='font-size: 30px; color: red;'><strong>Incorrect!</strong></p><p style='font-size: 30px;'><strong>This rock is diorite</strong></p>","0","corr_feedback","1","train","44","","","","","","","",""
"","","","","","","","","","","","html-button-response","193","2.0.0","330267","66a93f83fc9fcb1959191d2b","1","11","917","","","","","","","","","<img src= ""rock_img/I_Peridotite_16.jpg"" style=""width:8cm; height:6.989999999999999cm;""><p>What type of rock is this?</p>","5","class_response","1","train","45","Pegmatite","Peridotite","16","false","6","7","",""
"","","","","","","","","","","","html-button-response","194","2.0.0","330823","66a93f83fc9fcb1959191d2b","1","11","553","","","","","","","","","<img src= rock_img/I_Peridotite_16.jpg style=""width:8cm; height:6.989999999999999cm;""><p style='font-size: 30px; color: red;'><strong>Incorrect!</strong></p><p style='font-size: 30px;'><strong>This rock is peridotite</strong></p>","0","corr_feedback","1","train","45","","","","","","","",""
"","","","","","","","","","","","html-button-response","195","2.0.0","331979","66a93f83fc9fcb1959191d2b","1","11","1152","","","","","","","","","<img src= ""rock_img/I_Diorite_16.jpg"" style=""width:8cm; height:6.74cm;""><p>What type of rock is this?</p>","2","class_response","1","train","46","Diorite","Diorite","16","true","3","3","",""
"","","","","","","","","","","","html-button-response","196","2.0.0","336306","66a93f83fc9fcb1959191d2b","1","11","4323","","","","","","","","","<img src= rock_img/I_Diorite_16.jpg style=""width:8cm; height:6.74cm;""><p style='font-size: 30px; color: green;'><strong>Correct!</strong></p><p style='font-size: 30px;'><strong>This rock is diorite</strong></p>","0","corr_feedback","1","train","46","","","","","","","",""
"","","","","","","","","","","","html-button-response","197","2.0.0","339957","66a93f83fc9fcb1959191d2b","1","11","3647","","","","","","","","","<img src= ""rock_img/I_Peridotite_06.jpg"" style=""width:8cm; height:7.53cm;""><p>What type of rock is this?</p>","3","class_response","1","train","47","Gabbro","Peridotite","06","false","4","7","",""
"","","","","","","","","","","","html-button-response","198","2.0.0","340664","66a93f83fc9fcb1959191d2b","1","11","703","","","","","","","","","<img src= rock_img/I_Peridotite_06.jpg style=""width:8cm; height:7.53cm;""><p style='font-size: 30px; color: red;'><strong>Incorrect!</strong></p><p style='font-size: 30px;'><strong>This rock is peridotite</strong></p>","0","corr_feedback","1","train","47","","","","","","","",""
"","","","","","","","","","","","html-button-response","199","2.0.0","342714","66a93f83fc9fcb1959191d2b","1","11","2047","","","","","","","","","<img src= ""rock_img/I_Peridotite_14.jpg"" style=""width:8cm; height:5.3cm;""><p>What type of rock is this?</p>","3","class_response","1","train","48","Gabbro","Peridotite","14","false","4","7","",""
"","","","","","","","","","","","html-button-response","200","2.0.0","343406","66a93f83fc9fcb1959191d2b","1","11","688","","","","","","","","","<img src= rock_img/I_Peridotite_14.jpg style=""width:8cm; height:5.3cm;""><p style='font-size: 30px; color: red;'><strong>Incorrect!</strong></p><p style='font-size: 30px;'><strong>This rock is peridotite</strong></p>","0","corr_feedback","1","train","48","","","","","","","",""
"","","","","","","","","","","","instructions","203","2.0.0","358956","66a93f83fc9fcb1959191d2b","1","11","15545","","","","","","","","[{""page_index"":0,""viewing_time"":8656},{""page_index"":1,""viewing_time"":6889}]","","","","","","","","","","","","","",""
"","","","","","","","","","","","html-button-response","204","2.0.0","372985","66a93f83fc9fcb1959191d2b","1","11","14026","","","","","","","","","","0","start_test","","","","","","","","","","",""
"","","","","","","","","","","","html-button-response","205","2.0.0","378983","66a93f83fc9fcb1959191d2b","1","11","5994","","","","","","","","","<img src= ""rock_img/I_Basalt_14.jpg"" style=""width:8cm; height:5.82cm;""><p>What type of rock is this?</p>","0","class_response","1","test","1","Andesite","Basalt","14","false","1","2","",""
"","","","","","","","","","","","html-keyboard-response","206","2.0.0","379486","66a93f83fc9fcb1959191d2b","1","11","null","","","","","","","","","<p style='font-size: 30px;'><strong>Okay</strong></p>","null","neutral_feedback","1","test","1","","","","","","","",""
"","","","","","","","","","","","html-button-response","207","2.0.0","381072","66a93f83fc9fcb1959191d2b","1","11","1582","","","","","","","","","<img src= ""rock_img/I_Pumice_09.jpg"" style=""width:8cm; height:6.44cm;""><p>What type of rock is this?</p>","7","class_response","1","test","2","Pumice","Pumice","09","true","8","8","",""
"","","","","","","","","","","","html-keyboard-response","208","2.0.0","381575","66a93f83fc9fcb1959191d2b","1","11","null","","","","","","","","","<p style='font-size: 30px;'><strong>Okay</strong></p>","null","neutral_feedback","1","test","2","","","","","","","",""
"","","","","","","","","","","","html-button-response","209","2.0.0","383088","66a93f83fc9fcb1959191d2b","1","11","1510","","","","","","","","","<img src= ""rock_img/I_Peridotite_13.jpg"" style=""width:8cm; height:7.58cm;""><p>What type of rock is this?</p>","2","class_response","1","test","3","Diorite","Peridotite","13","false","3","7","",""
"","","","","","","","","","","","html-keyboard-response","210","2.0.0","383589","66a93f83fc9fcb1959191d2b","1","11","null","","","","","","","","","<p style='font-size: 30px;'><strong>Okay</strong></p>","null","neutral_feedback","1","test","3","","","","","","","",""
"","","","","","","","","","","","html-button-response","211","2.0.0","385172","66a93f83fc9fcb1959191d2b","1","11","1579","","","","","","","","","<img src= ""rock_img/I_Peridotite_02.jpg"" style=""width:8cm; height:5.859999999999999cm;""><p>What type of rock is this?</p>","2","class_response","1","test","4","Diorite","Peridotite","02","false","3","7","",""
"","","","","","","","","","","","html-keyboard-response","212","2.0.0","385675","66a93f83fc9fcb1959191d2b","1","11","null","","","","","","","","","<p style='font-size: 30px;'><strong>Okay</strong></p>","null","neutral_feedback","1","test","4","","","","","","","",""
"","","","","","","","","","","","html-button-response","213","2.0.0","386708","66a93f83fc9fcb1959191d2b","1","11","1029","","","","","","","","","<img src= ""rock_img/I_Basalt_09.jpg"" style=""width:8cm; height:6.2cm;""><p>What type of rock is this?</p>","1","class_response","1","test","5","Basalt","Basalt","09","true","2","2","",""
"","","","","","","","","","","","html-keyboard-response","214","2.0.0","387211","66a93f83fc9fcb1959191d2b","1","11","null","","","","","","","","","<p style='font-size: 30px;'><strong>Okay</strong></p>","null","neutral_feedback","1","test","5","","","","","","","",""
"","","","","","","","","","","","html-button-response","215","2.0.0","388459","66a93f83fc9fcb1959191d2b","1","11","1245","","","","","","","","","<img src= ""rock_img/I_Pumice_15.jpg"" style=""width:8cm; height:7.86cm;""><p>What type of rock is this?</p>","7","class_response","1","test","6","Pumice","Pumice","15","true","8","8","",""
"","","","","","","","","","","","html-keyboard-response","216","2.0.0","388961","66a93f83fc9fcb1959191d2b","1","11","null","","","","","","","","","<p style='font-size: 30px;'><strong>Okay</strong></p>","null","neutral_feedback","1","test","6","","","","","","","",""
"","","","","","","","","","","","html-button-response","217","2.0.0","390849","66a93f83fc9fcb1959191d2b","1","11","1885","","","","","","","","","<img src= ""rock_img/I_Diorite_15.jpg"" style=""width:8cm; height:5.54cm;""><p>What type of rock is this?</p>","0","class_response","1","test","7","Andesite","Diorite","15","false","1","3","",""
"","","","","","","","","","","","html-keyboard-response","218","2.0.0","391352","66a93f83fc9fcb1959191d2b","1","11","null","","","","","","","","","<p style='font-size: 30px;'><strong>Okay</strong></p>","null","neutral_feedback","1","test","7","","","","","","","",""
"","","","","","","","","","","","html-button-response","219","2.0.0","398832","66a93f83fc9fcb1959191d2b","1","11","7476","","","","","","","","","<img src= ""rock_img/I_Diorite_14.jpg"" style=""width:8cm; height:5.71cm;""><p>What type of rock is this?</p>","5","class_response","1","test","8","Pegmatite","Diorite","14","false","6","3","",""
"","","","","","","","","","","","html-keyboard-response","220","2.0.0","399335","66a93f83fc9fcb1959191d2b","1","11","null","","","","","","","","","<p style='font-size: 30px;'><strong>Okay</strong></p>","null","neutral_feedback","1","test","8","","","","","","","",""
"","","","","","","","","","","","html-button-response","221","2.0.0","400983","66a93f83fc9fcb1959191d2b","1","11","1644","","","","","","","","","<img src= ""rock_img/I_Basalt_04.jpg"" style=""width:8cm; height:7.53cm;""><p>What type of rock is this?</p>","1","class_response","1","test","9","Basalt","Basalt","04","true","2","2","",""
"","","","","","","","","","","","html-keyboard-response","222","2.0.0","401485","66a93f83fc9fcb1959191d2b","1","11","null","","","","","","","","","<p style='font-size: 30px;'><strong>Okay</strong></p>","null","neutral_feedback","1","test","9","","","","","","","",""
"","","","","","","","","","","","html-button-response","223","2.0.0","403748","66a93f83fc9fcb1959191d2b","1","11","2259","","","","","","","","","<img src= ""rock_img/I_Andesite_03.jpg"" style=""width:8cm; height:5.73cm;""><p>What type of rock is this?</p>","0","class_response","1","test","10","Andesite","Andesite","03","true","1","1","",""
"","","","","","","","","","","","html-keyboard-response","224","2.0.0","404251","66a93f83fc9fcb1959191d2b","1","11","null","","","","","","","","","<p style='font-size: 30px;'><strong>Okay</strong></p>","null","neutral_feedback","1","test","10","","","","","","","",""
"","","","","","","","","","","","html-button-response","225","2.0.0","405399","66a93f83fc9fcb1959191d2b","1","11","1144","","","","","","","","","<img src= ""rock_img/I_Diorite_11.jpg"" style=""width:8cm; height:7.11cm;""><p>What type of rock is this?</p>","0","class_response","1","test","11","Andesite","Diorite","11","false","1","3","",""
"","","","","","","","","","","","html-keyboard-response","226","2.0.0","405902","66a93f83fc9fcb1959191d2b","1","11","null","","","","","","","","","<p style='font-size: 30px;'><strong>Okay</strong></p>","null","neutral_feedback","1","test","11","","","","","","","",""
"","","","","","","","","","","","html-button-response","227","2.0.0","406810","66a93f83fc9fcb1959191d2b","1","11","905","","","","","","","","","<img src= ""rock_img/I_Basalt_08.jpg"" style=""width:8cm; height:10.44cm;""><p>What type of rock is this?</p>","1","class_response","1","test","12","Basalt","Basalt","08","true","2","2","",""
"","","","","","","","","","","","html-keyboard-response","228","2.0.0","407313","66a93f83fc9fcb1959191d2b","1","11","null","","","","","","","","","<p style='font-size: 30px;'><strong>Okay</strong></p>","null","neutral_feedback","1","test","12","","","","","","","",""
"","","","","","","","","","","","html-button-response","229","2.0.0","408977","66a93f83fc9fcb1959191d2b","1","11","1661","","","","","","","","","<img src= ""rock_img/I_Andesite_05.jpg"" style=""width:8cm; height:4.12cm;""><p>What type of rock is this?</p>","2","class_response","1","test","13","Diorite","Andesite","05","false","3","1","",""
"","","","","","","","","","","","html-keyboard-response","230","2.0.0","409480","66a93f83fc9fcb1959191d2b","1","11","null","","","","","","","","","<p style='font-size: 30px;'><strong>Okay</strong></p>","null","neutral_feedback","1","test","13","","","","","","","",""
"","","","","","","","","","","","html-button-response","231","2.0.0","411066","66a93f83fc9fcb1959191d2b","1","11","1582","","","","","","","","","<img src= ""rock_img/I_Peridotite_05.jpg"" style=""width:8cm; height:7.1499999999999995cm;""><p>What type of rock is this?</p>","5","class_response","1","test","14","Pegmatite","Peridotite","05","false","6","7","",""
"","","","","","","","","","","","html-keyboard-response","232","2.0.0","411569","66a93f83fc9fcb1959191d2b","1","11","null","","","","","","","","","<p style='font-size: 30px;'><strong>Okay</strong></p>","null","neutral_feedback","1","test","14","","","","","","","",""
"","","","","","","","","","","","html-button-response","233","2.0.0","412596","66a93f83fc9fcb1959191d2b","1","11","1024","","","","","","","","","<img src= ""rock_img/I_Peridotite_07.jpg"" style=""width:8cm; height:4.83cm;""><p>What type of rock is this?</p>","5","class_response","1","test","15","Pegmatite","Peridotite","07","false","6","7","",""
"","","","","","","","","","","","html-keyboard-response","234","2.0.0","413099","66a93f83fc9fcb1959191d2b","1","11","null","","","","","","","","","<p style='font-size: 30px;'><strong>Okay</strong></p>","null","neutral_feedback","1","test","15","","","","","","","",""
"","","","","","","","","","","","html-button-response","235","2.0.0","414269","66a93f83fc9fcb1959191d2b","1","11","1167","","","","","","","","","<img src= ""rock_img/I_Pegmatite_13.jpg"" style=""width:8cm; height:4.95cm;""><p>What type of rock is this?</p>","3","class_response","1","test","16","Gabbro","Pegmatite","13","false","4","6","",""
"","","","","","","","","","","","html-keyboard-response","236","2.0.0","414772","66a93f83fc9fcb1959191d2b","1","11","null","","","","","","","","","<p style='font-size: 30px;'><strong>Okay</strong></p>","null","neutral_feedback","1","test","16","","","","","","","",""
"","","","","","","","","","","","html-button-response","237","2.0.0","416299","66a93f83fc9fcb1959191d2b","1","11","1523","","","","","","","","","<img src= ""rock_img/I_Basalt_06.jpg"" style=""width:8cm; height:7.06cm;""><p>What type of rock is this?</p>","1","class_response","1","test","17","Basalt","Basalt","06","true","2","2","",""
"","","","","","","","","","","","html-keyboard-response","238","2.0.0","416801","66a93f83fc9fcb1959191d2b","1","11","null","","","","","","","","","<p style='font-size: 30px;'><strong>Okay</strong></p>","null","neutral_feedback","1","test","17","","","","","","","",""
"","","","","","","","","","","","html-button-response","239","2.0.0","418767","66a93f83fc9fcb1959191d2b","1","11","1962","","","","","","","","","<img src= ""rock_img/I_Diorite_06.jpg"" style=""width:8cm; height:6.03cm;""><p>What type of rock is this?</p>","3","class_response","1","test","18","Gabbro","Diorite","06","false","4","3","",""
"","","","","","","","","","","","html-keyboard-response","240","2.0.0","419270","66a93f83fc9fcb1959191d2b","1","11","null","","","","","","","","","<p style='font-size: 30px;'><strong>Okay</strong></p>","null","neutral_feedback","1","test","18","","","","","","","",""
"","","","","","","","","","","","html-button-response","241","2.0.0","420296","66a93f83fc9fcb1959191d2b","1","11","1022","","","","","","","","","<img src= ""rock_img/I_Andesite_14.jpg"" style=""width:8cm; height:5.449999999999999cm;""><p>What type of rock is this?</p>","3","class_response","1","test","19","Gabbro","Andesite","14","false","4","1","",""
"","","","","","","","","","","","html-keyboard-response","242","2.0.0","420799","66a93f83fc9fcb1959191d2b","1","11","null","","","","","","","","","<p style='font-size: 30px;'><strong>Okay</strong></p>","null","neutral_feedback","1","test","19","","","","","","","",""
"","","","","","","","","","","","html-button-response","243","2.0.0","421818","66a93f83fc9fcb1959191d2b","1","11","1015","","","","","","","","","<img src= ""rock_img/I_Diorite_08.jpg"" style=""width:8cm; height:6.37cm;""><p>What type of rock is this?</p>","3","class_response","1","test","20","Gabbro","Diorite","08","false","4","3","",""
"","","","","","","","","","","","html-keyboard-response","244","2.0.0","422321","66a93f83fc9fcb1959191d2b","1","11","null","","","","","","","","","<p style='font-size: 30px;'><strong>Okay</strong></p>","null","neutral_feedback","1","test","20","","","","","","","",""
"","","","","","","","","","","","html-button-response","245","2.0.0","423296","66a93f83fc9fcb1959191d2b","1","11","970","","","","","","","","","<img src= ""rock_img/I_Pumice_02.jpg"" style=""width:8cm; height:7.3999999999999995cm;""><p>What type of rock is this?</p>","7","class_response","1","test","21","Pumice","Pumice","02","true","8","8","",""
"","","","","","","","","","","","html-keyboard-response","246","2.0.0","423799","66a93f83fc9fcb1959191d2b","1","11","null","","","","","","","","","<p style='font-size: 30px;'><strong>Okay</strong></p>","null","neutral_feedback","1","test","21","","","","","","","",""
"","","","","","","","","","","","html-button-response","247","2.0.0","424899","66a93f83fc9fcb1959191d2b","1","11","1097","","","","","","","","","<img src= ""rock_img/I_Obsidian_08.jpg"" style=""width:8cm; height:7.39cm;""><p>What type of rock is this?</p>","4","class_response","1","test","22","Obsidian","Obsidian","08","true","5","5","",""
"","","","","","","","","","","","html-keyboard-response","248","2.0.0","425401","66a93f83fc9fcb1959191d2b","1","11","null","","","","","","","","","<p style='font-size: 30px;'><strong>Okay</strong></p>","null","neutral_feedback","1","test","22","","","","","","","",""
"","","","","","","","","","","","html-button-response","249","2.0.0","427119","66a93f83fc9fcb1959191d2b","1","11","1714","","","","","","","","","<img src= ""rock_img/I_Gabbro_15.jpg"" style=""width:8cm; height:6.29cm;""><p>What type of rock is this?</p>","0","class_response","1","test","23","Andesite","Gabbro","15","false","1","4","",""
"","","","","","","","","","","","html-keyboard-response","250","2.0.0","427621","66a93f83fc9fcb1959191d2b","1","11","null","","","","","","","","","<p style='font-size: 30px;'><strong>Okay</strong></p>","null","neutral_feedback","1","test","23","","","","","","","",""
"","","","","","","","","","","","html-button-response","251","2.0.0","429141","66a93f83fc9fcb1959191d2b","1","11","1516","","","","","","","","","<img src= ""rock_img/I_Obsidian_05.jpg"" style=""width:8cm; height:6.33cm;""><p>What type of rock is this?</p>","4","class_response","1","test","24","Obsidian","Obsidian","05","true","5","5","",""
"","","","","","","","","","","","html-keyboard-response","252","2.0.0","429644","66a93f83fc9fcb1959191d2b","1","11","null","","","","","","","","","<p style='font-size: 30px;'><strong>Okay</strong></p>","null","neutral_feedback","1","test","24","","","","","","","",""
"","","","","","","","","","","","html-button-response","253","2.0.0","430957","66a93f83fc9fcb1959191d2b","1","11","1309","","","","","","","","","<img src= ""rock_img/I_Peridotite_15.jpg"" style=""width:8cm; height:6cm;""><p>What type of rock is this?</p>","3","class_response","1","test","25","Gabbro","Peridotite","15","false","4","7","",""
"","","","","","","","","","","","html-keyboard-response","254","2.0.0","431459","66a93f83fc9fcb1959191d2b","1","11","null","","","","","","","","","<p style='font-size: 30px;'><strong>Okay</strong></p>","null","neutral_feedback","1","test","25","","","","","","","",""
"","","","","","","","","","","","html-button-response","255","2.0.0","432499","66a93f83fc9fcb1959191d2b","1","11","1036","","","","","","","","","<img src= ""rock_img/I_Pegmatite_07.jpg"" style=""width:8cm; height:6.7cm;""><p>What type of rock is this?</p>","3","class_response","1","test","26","Gabbro","Pegmatite","07","false","4","6","",""
"","","","","","","","","","","","html-keyboard-response","256","2.0.0","433003","66a93f83fc9fcb1959191d2b","1","11","null","","","","","","","","","<p style='font-size: 30px;'><strong>Okay</strong></p>","null","neutral_feedback","1","test","26","","","","","","","",""
"","","","","","","","","","","","html-button-response","257","2.0.0","435291","66a93f83fc9fcb1959191d2b","1","11","2284","","","","","","","","","<img src= ""rock_img/I_Pegmatite_08.jpg"" style=""width:8cm; height:7.68cm;""><p>What type of rock is this?</p>","3","class_response","1","test","27","Gabbro","Pegmatite","08","false","4","6","",""
"","","","","","","","","","","","html-keyboard-response","258","2.0.0","435794","66a93f83fc9fcb1959191d2b","1","11","null","","","","","","","","","<p style='font-size: 30px;'><strong>Okay</strong></p>","null","neutral_feedback","1","test","27","","","","","","","",""
"","","","","","","","","","","","html-button-response","259","2.0.0","437065","66a93f83fc9fcb1959191d2b","1","11","1267","","","","","","","","","<img src= ""rock_img/I_Pegmatite_03.jpg"" style=""width:8cm; height:5.239999999999999cm;""><p>What type of rock is this?</p>","3","class_response","1","test","28","Gabbro","Pegmatite","03","false","4","6","",""
"","","","","","","","","","","","html-keyboard-response","260","2.0.0","437567","66a93f83fc9fcb1959191d2b","1","11","null","","","","","","","","","<p style='font-size: 30px;'><strong>Okay</strong></p>","null","neutral_feedback","1","test","28","","","","","","","",""
"","","","","","","","","","","","html-button-response","261","2.0.0","438459","66a93f83fc9fcb1959191d2b","1","11","889","","","","","","","","","<img src= ""rock_img/I_Pumice_10.jpg"" style=""width:8cm; height:7.609999999999999cm;""><p>What type of rock is this?</p>","7","class_response","1","test","29","Pumice","Pumice","10","true","8","8","",""
"","","","","","","","","","","","html-keyboard-response","262","2.0.0","438961","66a93f83fc9fcb1959191d2b","1","11","null","","","","","","","","","<p style='font-size: 30px;'><strong>Okay</strong></p>","null","neutral_feedback","1","test","29","","","","","","","",""
"","","","","","","","","","","","html-button-response","263","2.0.0","440620","66a93f83fc9fcb1959191d2b","1","11","1655","","","","","","","","","<img src= ""rock_img/I_Gabbro_16.jpg"" style=""width:8cm; height:6.44cm;""><p>What type of rock is this?</p>","2","class_response","1","test","30","Diorite","Gabbro","16","false","3","4","",""
"","","","","","","","","","","","html-keyboard-response","264","2.0.0","441123","66a93f83fc9fcb1959191d2b","1","11","null","","","","","","","","","<p style='font-size: 30px;'><strong>Okay</strong></p>","null","neutral_feedback","1","test","30","","","","","","","",""
"","","","","","","","","","","","html-button-response","265","2.0.0","443244","66a93f83fc9fcb1959191d2b","1","11","2117","","","","","","","","","<img src= ""rock_img/I_Obsidian_07.jpg"" style=""width:8cm; height:4.76cm;""><p>What type of rock is this?</p>","4","class_response","1","test","31","Obsidian","Obsidian","07","true","5","5","",""
"","","","","","","","","","","","html-keyboard-response","266","2.0.0","443748","66a93f83fc9fcb1959191d2b","1","11","null","","","","","","","","","<p style='font-size: 30px;'><strong>Okay</strong></p>","null","neutral_feedback","1","test","31","","","","","","","",""
"","","","","","","","","","","","html-button-response","267","2.0.0","468775","66a93f83fc9fcb1959191d2b","1","11","25023","","","","","","","","","<img src= ""rock_img/I_Andesite_04.jpg"" style=""width:8cm; height:5.96cm;""><p>What type of rock is this?</p>","5","class_response","1","test","32","Pegmatite","Andesite","04","false","6","1","",""
"","","","","","","","","","","","html-keyboard-response","268","2.0.0","469277","66a93f83fc9fcb1959191d2b","1","11","null","","","","","","","","","<p style='font-size: 30px;'><strong>Okay</strong></p>","null","neutral_feedback","1","test","32","","","","","","","",""
"","","","","","","","","","","","html-button-response","269","2.0.0","481156","66a93f83fc9fcb1959191d2b","1","11","11876","","","","","","","","","<img src= ""rock_img/I_Gabbro_13.jpg"" style=""width:8cm; height:5.08cm;""><p>What type of rock is this?</p>","6","class_response","1","test","33","Peridotite","Gabbro","13","false","7","4","",""
"","","","","","","","","","","","html-keyboard-response","270","2.0.0","481659","66a93f83fc9fcb1959191d2b","1","11","null","","","","","","","","","<p style='font-size: 30px;'><strong>Okay</strong></p>","null","neutral_feedback","1","test","33","","","","","","","",""
"","","","","","","","","","","","html-button-response","271","2.0.0","482941","66a93f83fc9fcb1959191d2b","1","11","1279","","","","","","","","","<img src= ""rock_img/I_Pumice_14.jpg"" style=""width:8cm; height:6.39cm;""><p>What type of rock is this?</p>","7","class_response","1","test","34","Pumice","Pumice","14","true","8","8","",""
"","","","","","","","","","","","html-keyboard-response","272","2.0.0","483443","66a93f83fc9fcb1959191d2b","1","11","null","","","","","","","","","<p style='font-size: 30px;'><strong>Okay</strong></p>","null","neutral_feedback","1","test","34","","","","","","","",""
"","","","","","","","","","","","html-button-response","273","2.0.0","501194","66a93f83fc9fcb1959191d2b","1","11","17748","","","","","","","","","<img src= ""rock_img/I_Andesite_09.jpg"" style=""width:8cm; height:6cm;""><p>What type of rock is this?</p>","6","class_response","1","test","35","Peridotite","Andesite","09","false","7","1","",""
"","","","","","","","","","","","html-keyboard-response","274","2.0.0","501696","66a93f83fc9fcb1959191d2b","1","11","null","","","","","","","","","<p style='font-size: 30px;'><strong>Okay</strong></p>","null","neutral_feedback","1","test","35","","","","","","","",""
"","","","","","","","","","","","html-button-response","275","2.0.0","503030","66a93f83fc9fcb1959191d2b","1","11","1330","","","","","","","","","<img src= ""rock_img/I_Andesite_16.jpg"" style=""width:8cm; height:6.010000000000001cm;""><p>What type of rock is this?</p>","6","class_response","1","test","36","Peridotite","Andesite","16","false","7","1","",""
"","","","","","","","","","","","html-keyboard-response","276","2.0.0","503533","66a93f83fc9fcb1959191d2b","1","11","null","","","","","","","","","<p style='font-size: 30px;'><strong>Okay</strong></p>","null","neutral_feedback","1","test","36","","","","","","","",""
"","","","","","","","","","","","html-button-response","277","2.0.0","504834","66a93f83fc9fcb1959191d2b","1","11","1296","","","","","","","","","<img src= ""rock_img/I_Obsidian_12.jpg"" style=""width:8cm; height:6.53cm;""><p>What type of rock is this?</p>","4","class_response","1","test","37","Obsidian","Obsidian","12","true","5","5","",""
"","","","","","","","","","","","html-keyboard-response","278","2.0.0","505337","66a93f83fc9fcb1959191d2b","1","11","null","","","","","","","","","<p style='font-size: 30px;'><strong>Okay</strong></p>","null","neutral_feedback","1","test","37","","","","","","","",""
"","","","","","","","","","","","html-button-response","279","2.0.0","508884","66a93f83fc9fcb1959191d2b","1","11","3543","","","","","","","","","<img src= ""rock_img/I_Pegmatite_10.jpg"" style=""width:8cm; height:4.16cm;""><p>What type of rock is this?</p>","0","class_response","1","test","38","Andesite","Pegmatite","10","false","1","6","",""
"","","","","","","","","","","","html-keyboard-response","280","2.0.0","509387","66a93f83fc9fcb1959191d2b","1","11","null","","","","","","","","","<p style='font-size: 30px;'><strong>Okay</strong></p>","null","neutral_feedback","1","test","38","","","","","","","",""
"","","","","","","","","","","","html-button-response","281","2.0.0","511314","66a93f83fc9fcb1959191d2b","1","11","1923","","","","","","","","","<img src= ""rock_img/I_Gabbro_03.jpg"" style=""width:8cm; height:8.52cm;""><p>What type of rock is this?</p>","6","class_response","1","test","39","Peridotite","Gabbro","03","false","7","4","",""
"","","","","","","","","","","","html-keyboard-response","282","2.0.0","511817","66a93f83fc9fcb1959191d2b","1","11","null","","","","","","","","","<p style='font-size: 30px;'><strong>Okay</strong></p>","null","neutral_feedback","1","test","39","","","","","","","",""
"","","","","","","","","","","","html-button-response","283","2.0.0","512856","66a93f83fc9fcb1959191d2b","1","11","1035","","","","","","","","","<img src= ""rock_img/I_Peridotite_10.jpg"" style=""width:8cm; height:5.390000000000001cm;""><p>What type of rock is this?</p>","6","class_response","1","test","40","Peridotite","Peridotite","10","true","7","7","",""
"","","","","","","","","","","","html-keyboard-response","284","2.0.0","513358","66a93f83fc9fcb1959191d2b","1","11","null","","","","","","","","","<p style='font-size: 30px;'><strong>Okay</strong></p>","null","neutral_feedback","1","test","40","","","","","","","",""
"","","","","","","","","","","","html-button-response","285","2.0.0","514468","66a93f83fc9fcb1959191d2b","1","11","1106","","","","","","","","","<img src= ""rock_img/I_Obsidian_09.jpg"" style=""width:8cm; height:5cm;""><p>What type of rock is this?</p>","4","class_response","1","test","41","Obsidian","Obsidian","09","true","5","5","",""
"","","","","","","","","","","","html-keyboard-response","286","2.0.0","514971","66a93f83fc9fcb1959191d2b","1","11","null","","","","","","","","","<p style='font-size: 30px;'><strong>Okay</strong></p>","null","neutral_feedback","1","test","41","","","","","","","",""
"","","","","","","","","","","","html-button-response","287","2.0.0","516398","66a93f83fc9fcb1959191d2b","1","11","1422","","","","","","","","","<img src= ""rock_img/I_Basalt_11.jpg"" style=""width:8cm; height:5.359999999999999cm;""><p>What type of rock is this?</p>","7","class_response","1","test","42","Pumice","Basalt","11","false","8","2","",""
"","","","","","","","","","","","html-keyboard-response","288","2.0.0","516902","66a93f83fc9fcb1959191d2b","1","11","null","","","","","","","","","<p style='font-size: 30px;'><strong>Okay</strong></p>","null","neutral_feedback","1","test","42","","","","","","","",""
"","","","","","","","","","","","html-button-response","289","2.0.0","519918","66a93f83fc9fcb1959191d2b","1","11","3012","","","","","","","","","<img src= ""rock_img/I_Gabbro_11.jpg"" style=""width:8cm; height:6.2cm;""><p>What type of rock is this?</p>","2","class_response","1","test","43","Diorite","Gabbro","11","false","3","4","",""
"","","","","","","","","","","","html-keyboard-response","290","2.0.0","520422","66a93f83fc9fcb1959191d2b","1","11","null","","","","","","","","","<p style='font-size: 30px;'><strong>Okay</strong></p>","null","neutral_feedback","1","test","43","","","","","","","",""
"","","","","","","","","","","","html-button-response","291","2.0.0","521595","66a93f83fc9fcb1959191d2b","1","11","1169","","","","","","","","","<img src= ""rock_img/I_Pumice_03.jpg"" style=""width:8cm; height:6.64cm;""><p>What type of rock is this?</p>","7","class_response","1","test","44","Pumice","Pumice","03","true","8","8","",""
"","","","","","","","","","","","html-keyboard-response","292","2.0.0","522098","66a93f83fc9fcb1959191d2b","1","11","null","","","","","","","","","<p style='font-size: 30px;'><strong>Okay</strong></p>","null","neutral_feedback","1","test","44","","","","","","","",""
"","","","","","","","","","","","html-button-response","293","2.0.0","526068","66a93f83fc9fcb1959191d2b","1","11","3966","","","","","","","","","<img src= ""rock_img/I_Pegmatite_16.jpg"" style=""width:8cm; height:5.8cm;""><p>What type of rock is this?</p>","0","class_response","1","test","45","Andesite","Pegmatite","16","false","1","6","",""
"","","","","","","","","","","","html-keyboard-response","294","2.0.0","526571","66a93f83fc9fcb1959191d2b","1","11","null","","","","","","","","","<p style='font-size: 30px;'><strong>Okay</strong></p>","null","neutral_feedback","1","test","45","","","","","","","",""
"","","","","","","","","","","","html-button-response","295","2.0.0","528923","66a93f83fc9fcb1959191d2b","1","11","2350","","","","","","","","","<img src= ""rock_img/I_Gabbro_10.jpg"" style=""width:8cm; height:5.680000000000001cm;""><p>What type of rock is this?</p>","1","class_response","1","test","46","Basalt","Gabbro","10","false","2","4","",""
"","","","","","","","","","","","html-keyboard-response","296","2.0.0","529425","66a93f83fc9fcb1959191d2b","1","11","null","","","","","","","","","<p style='font-size: 30px;'><strong>Okay</strong></p>","null","neutral_feedback","1","test","46","","","","","","","",""
"","","","","","","","","","","","html-button-response","297","2.0.0","531502","66a93f83fc9fcb1959191d2b","1","11","2074","","","","","","","","","<img src= ""rock_img/I_Obsidian_16.jpg"" style=""width:8cm; height:9.3cm;""><p>What type of rock is this?</p>","4","class_response","1","test","47","Obsidian","Obsidian","16","true","5","5","",""
"","","","","","","","","","","","html-keyboard-response","298","2.0.0","532004","66a93f83fc9fcb1959191d2b","1","11","null","","","","","","","","","<p style='font-size: 30px;'><strong>Okay</strong></p>","null","neutral_feedback","1","test","47","","","","","","","",""
"","","","","","","","","","","","html-button-response","299","2.0.0","535926","66a93f83fc9fcb1959191d2b","1","11","3918","","","","","","","","","<img src= ""rock_img/I_Diorite_13.jpg"" style=""width:8cm; height:6.29cm;""><p>What type of rock is this?</p>","3","class_response","1","test","48","Gabbro","Diorite","13","false","4","3","",""
"","","","","","","","","","","","html-keyboard-response","300","2.0.0","536428","66a93f83fc9fcb1959191d2b","1","11","null","","","","","","","","","<p style='font-size: 30px;'><strong>Okay</strong></p>","null","neutral_feedback","1","test","48","","","","","","","",""
"","","","","","","","","","","","html-button-response","301","2.0.0","557392","66a93f83fc9fcb1959191d2b","1","11","","","","","","","","","","","","cycle_feedback","","","","","","","","","","6523.399999999441","14425"
"","","","","","","","","","","","html-button-response","303","2.0.0","560808","66a93f83fc9fcb1959191d2b","1","11","3412","","","","","","","","","","0","start_train","","","","","","","","","","",""
"","","","","","","","","","","","html-button-response","304","2.0.0","596229","66a93f83fc9fcb1959191d2b","1","11","35418","","","","","","","","","<img src= ""rock_img/I_Pegmatite_12.jpg"" style=""width:8cm; height:5.7cm;""><p>What type of rock is this?</p>","5","class_response","2","train","1","Pegmatite","Pegmatite","12","true","6","6","",""
