"width","height","webaudio","browser","browser_version","mobile","os","fullscreen","vsync_rate","webcam","microphone","trial_type","trial_index","plugin_version","time_elapsed","subjID","condition","stimID","rt","url","success","value","timeout","failed_images","failed_audio","failed_video","view_history","stimulus","response","trialType","cycle","phase","trial","resp","cat","token","corr","resp_num","cat_num","time_fb1","time_fb2"
"1241","800","true","chrome","131.0.0","false","Windows 10","true","242.23","true","true","browser-check","0","2.0.0","259","5fd7782dee03dc08d3f3f491","1","31","","","","","","","","","","","","","","","","","","","","","","",""
"","","","","","","","","","","","external-html","1","2.0.0","13993","5fd7782dee03dc08d3f3f491","1","31","13631","consent_form.html","","","","","","","","","","","","","","","","","","","","",""
"","","","","","","","","","","","fullscreen","2","2.0.0","16435","5fd7782dee03dc08d3f3f491","1","31","1440","","true","","","","","","","","","","","","","","","","","","","",""
"","","","","","","","","","","","call-function","3","2.0.0","16437","5fd7782dee03dc08d3f3f491","1","31","","","","{}","","","","","","","","","","","","","","","","","","",""
"","","","","","","","","","","","preload","4","2.0.0","24619","5fd7782dee03dc08d3f3f491","1","31","","","true","","false","[]","[]","[]","","","","","","","","","","","","","","",""
"","","","","","","","","","","","instructions","5","2.0.0","63892","5fd7782dee03dc08d3f3f491","1","31","39271","","","","","","","","[{""page_index"":0,""viewing_time"":8287},{""page_index"":1,""viewing_time"":18682},{""page_index"":2,""viewing_time"":12302}]","","","","","","","","","","","","","",""
"","","","","","","","","","","","html-button-response","6","2.0.0","68186","5fd7782dee03dc08d3f3f491","1","31","4292","","","","","","","","","","0","start_test","","","","","","","","","","",""
"","","","","","","","","","","","html-button-response","7","2.0.0","77758","5fd7782dee03dc08d3f3f491","1","31","9570","","","","","","","","","<img src= ""rock_img/I_Pegmatite_11.jpg"" style=""width:8cm; height:8.14cm;""><p>What type of rock is this?</p>","7","class_response","0","test","1","Pumice","Pegmatite","11","false","8","6","",""
"","","","","","","","","","","","html-keyboard-response","8","2.0.0","78267","5fd7782dee03dc08d3f3f491","1","31","null","","","","","","","","","<p style='font-size: 30px;'><strong>Okay</strong></p>","null","neutral_feedback","0","test","1","","","","","","","",""
"","","","","","","","","","","","html-button-response","9","2.0.0","85793","5fd7782dee03dc08d3f3f491","1","31","7524","","","","","","","","","<img src= ""rock_img/I_Basalt_16.jpg"" style=""width:8cm; height:7.659999999999999cm;""><p>What type of rock is this?</p>","0","class_response","0","test","2","Andesite","Basalt","16","false","1","2","",""
"","","","","","","","","","","","html-keyboard-response","10","2.0.0","86301","5fd7782dee03dc08d3f3f491","1","31","null","","","","","","","","","<p style='font-size: 30px;'><strong>Okay</strong></p>","null","neutral_feedback","0","test","2","","","","","","","",""
"","","","","","","","","","","","html-button-response","11","2.0.0","92239","5fd7782dee03dc08d3f3f491","1","31","5936","","","","","","","","","<img src= ""rock_img/I_Peridotite_07.jpg"" style=""width:8cm; height:4.83cm;""><p>What type of rock is this?</p>","2","class_response","0","test","3","Diorite","Peridotite","07","false","3","7","",""
"","","","","","","","","","","","html-keyboard-response","12","2.0.0","92747","5fd7782dee03dc08d3f3f491","1","31","null","","","","","","","","","<p style='font-size: 30px;'><strong>Okay</strong></p>","null","neutral_feedback","0","test","3","","","","","","","",""
"","","","","","","","","","","","html-button-response","13","2.0.0","96796","5fd7782dee03dc08d3f3f491","1","31","4048","","","","","","","","","<img src= ""rock_img/I_Basalt_02.jpg"" style=""width:8cm; height:6.45cm;""><p>What type of rock is this?</p>","5","class_response","0","test","4","Pegmatite","Basalt","02","false","6","2","",""
"","","","","","","","","","","","html-keyboard-response","14","2.0.0","97299","5fd7782dee03dc08d3f3f491","1","31","null","","","","","","","","","<p style='font-size: 30px;'><strong>Okay</strong></p>","null","neutral_feedback","0","test","4","","","","","","","",""
"","","","","","","","","","","","html-button-response","15","2.0.0","98695","5fd7782dee03dc08d3f3f491","1","31","1395","","","","","","","","","<img src= ""rock_img/I_Obsidian_09.jpg"" style=""width:8cm; height:5cm;""><p>What type of rock is this?</p>","1","class_response","0","test","5","Basalt","Obsidian","09","false","2","5","",""
"","","","","","","","","","","","html-keyboard-response","16","2.0.0","99205","5fd7782dee03dc08d3f3f491","1","31","null","","","","","","","","","<p style='font-size: 30px;'><strong>Okay</strong></p>","null","neutral_feedback","0","test","5","","","","","","","",""
"","","","","","","","","","","","html-button-response","17","2.0.0","100743","5fd7782dee03dc08d3f3f491","1","31","1536","","","","","","","","","<img src= ""rock_img/I_Basalt_01.jpg"" style=""width:8cm; height:7.880000000000001cm;""><p>What type of rock is this?</p>","6","class_response","0","test","6","Peridotite","Basalt","01","false","7","2","",""
"","","","","","","","","","","","html-keyboard-response","18","2.0.0","101245","5fd7782dee03dc08d3f3f491","1","31","null","","","","","","","","","<p style='font-size: 30px;'><strong>Okay</strong></p>","null","neutral_feedback","0","test","6","","","","","","","",""
"","","","","","","","","","","","html-button-response","19","2.0.0","105874","5fd7782dee03dc08d3f3f491","1","31","4627","","","","","","","","","<img src= ""rock_img/I_Obsidian_12.jpg"" style=""width:8cm; height:6.53cm;""><p>What type of rock is this?</p>","4","class_response","0","test","7","Obsidian","Obsidian","12","true","5","5","",""
"","","","","","","","","","","","html-keyboard-response","20","2.0.0","106385","5fd7782dee03dc08d3f3f491","1","31","null","","","","","","","","","<p style='font-size: 30px;'><strong>Okay</strong></p>","null","neutral_feedback","0","test","7","","","","","","","",""
"","","","","","","","","","","","html-button-response","21","2.0.0","111962","5fd7782dee03dc08d3f3f491","1","31","5576","","","","","","","","","<img src= ""rock_img/I_Diorite_11.jpg"" style=""width:8cm; height:7.11cm;""><p>What type of rock is this?</p>","3","class_response","0","test","8","Gabbro","Diorite","11","false","4","3","",""
"","","","","","","","","","","","html-keyboard-response","22","2.0.0","112466","5fd7782dee03dc08d3f3f491","1","31","null","","","","","","","","","<p style='font-size: 30px;'><strong>Okay</strong></p>","null","neutral_feedback","0","test","8","","","","","","","",""
"","","","","","","","","","","","html-button-response","23","2.0.0","117151","5fd7782dee03dc08d3f3f491","1","31","4684","","","","","","","","","<img src= ""rock_img/I_Gabbro_12.jpg"" style=""width:8cm; height:7.800000000000001cm;""><p>What type of rock is this?</p>","6","class_response","0","test","9","Peridotite","Gabbro","12","false","7","4","",""
"","","","","","","","","","","","html-keyboard-response","24","2.0.0","117664","5fd7782dee03dc08d3f3f491","1","31","null","","","","","","","","","<p style='font-size: 30px;'><strong>Okay</strong></p>","null","neutral_feedback","0","test","9","","","","","","","",""
"","","","","","","","","","","","html-button-response","25","2.0.0","119580","5fd7782dee03dc08d3f3f491","1","31","1915","","","","","","","","","<img src= ""rock_img/I_Diorite_12.jpg"" style=""width:8cm; height:4.88cm;""><p>What type of rock is this?</p>","2","class_response","0","test","10","Diorite","Diorite","12","true","3","3","",""
"","","","","","","","","","","","html-keyboard-response","26","2.0.0","120083","5fd7782dee03dc08d3f3f491","1","31","null","","","","","","","","","<p style='font-size: 30px;'><strong>Okay</strong></p>","null","neutral_feedback","0","test","10","","","","","","","",""
"","","","","","","","","","","","html-button-response","27","2.0.0","122138","5fd7782dee03dc08d3f3f491","1","31","2054","","","","","","","","","<img src= ""rock_img/I_Pumice_16.jpg"" style=""width:8cm; height:6.79cm;""><p>What type of rock is this?</p>","1","class_response","0","test","11","Basalt","Pumice","16","false","2","8","",""
"","","","","","","","","","","","html-keyboard-response","28","2.0.0","122654","5fd7782dee03dc08d3f3f491","1","31","null","","","","","","","","","<p style='font-size: 30px;'><strong>Okay</strong></p>","null","neutral_feedback","0","test","11","","","","","","","",""
"","","","","","","","","","","","html-button-response","29","2.0.0","123949","5fd7782dee03dc08d3f3f491","1","31","1294","","","","","","","","","<img src= ""rock_img/I_Andesite_09.jpg"" style=""width:8cm; height:6cm;""><p>What type of rock is this?</p>","5","class_response","0","test","12","Pegmatite","Andesite","09","false","6","1","",""
"","","","","","","","","","","","html-keyboard-response","30","2.0.0","124452","5fd7782dee03dc08d3f3f491","1","31","null","","","","","","","","","<p style='font-size: 30px;'><strong>Okay</strong></p>","null","neutral_feedback","0","test","12","","","","","","","",""
"","","","","","","","","","","","html-button-response","31","2.0.0","126410","5fd7782dee03dc08d3f3f491","1","31","1956","","","","","","","","","<img src= ""rock_img/I_Gabbro_01.jpg"" style=""width:8cm; height:5.21cm;""><p>What type of rock is this?</p>","6","class_response","0","test","13","Peridotite","Gabbro","01","false","7","4","",""
"","","","","","","","","","","","html-keyboard-response","32","2.0.0","126915","5fd7782dee03dc08d3f3f491","1","31","null","","","","","","","","","<p style='font-size: 30px;'><strong>Okay</strong></p>","null","neutral_feedback","0","test","13","","","","","","","",""
"","","","","","","","","","","","html-button-response","33","2.0.0","129033","5fd7782dee03dc08d3f3f491","1","31","2117","","","","","","","","","<img src= ""rock_img/I_Pumice_09.jpg"" style=""width:8cm; height:6.44cm;""><p>What type of rock is this?</p>","2","class_response","0","test","14","Diorite","Pumice","09","false","3","8","",""
"","","","","","","","","","","","html-keyboard-response","34","2.0.0","129536","5fd7782dee03dc08d3f3f491","1","31","null","","","","","","","","","<p style='font-size: 30px;'><strong>Okay</strong></p>","null","neutral_feedback","0","test","14","","","","","","","",""
"","","","","","","","","","","","html-button-response","35","2.0.0","131043","5fd7782dee03dc08d3f3f491","1","31","1505","","","","","","","","","<img src= ""rock_img/I_Andesite_01.jpg"" style=""width:8cm; height:5.87cm;""><p>What type of rock is this?</p>","4","class_response","0","test","15","Obsidian","Andesite","01","false","5","1","",""
"","","","","","","","","","","","html-keyboard-response","36","2.0.0","131555","5fd7782dee03dc08d3f3f491","1","31","null","","","","","","","","","<p style='font-size: 30px;'><strong>Okay</strong></p>","null","neutral_feedback","0","test","15","","","","","","","",""
"","","","","","","","","","","","html-button-response","37","2.0.0","135276","5fd7782dee03dc08d3f3f491","1","31","3719","","","","","","","","","<img src= ""rock_img/I_Pegmatite_10.jpg"" style=""width:8cm; height:4.16cm;""><p>What type of rock is this?</p>","7","class_response","0","test","16","Pumice","Pegmatite","10","false","8","6","",""
"","","","","","","","","","","","html-keyboard-response","38","2.0.0","135779","5fd7782dee03dc08d3f3f491","1","31","null","","","","","","","","","<p style='font-size: 30px;'><strong>Okay</strong></p>","null","neutral_feedback","0","test","16","","","","","","","",""
"","","","","","","","","","","","html-button-response","39","2.0.0","138883","5fd7782dee03dc08d3f3f491","1","31","3103","","","","","","","","","<img src= ""rock_img/I_Peridotite_13.jpg"" style=""width:8cm; height:7.58cm;""><p>What type of rock is this?</p>","3","class_response","0","test","17","Gabbro","Peridotite","13","false","4","7","",""
"","","","","","","","","","","","html-keyboard-response","40","2.0.0","139393","5fd7782dee03dc08d3f3f491","1","31","null","","","","","","","","","<p style='font-size: 30px;'><strong>Okay</strong></p>","null","neutral_feedback","0","test","17","","","","","","","",""
"","","","","","","","","","","","html-button-response","41","2.0.0","140539","5fd7782dee03dc08d3f3f491","1","31","1145","","","","","","","","","<img src= ""rock_img/I_Diorite_16.jpg"" style=""width:8cm; height:6.74cm;""><p>What type of rock is this?</p>","2","class_response","0","test","18","Diorite","Diorite","16","true","3","3","",""
"","","","","","","","","","","","html-keyboard-response","42","2.0.0","141042","5fd7782dee03dc08d3f3f491","1","31","null","","","","","","","","","<p style='font-size: 30px;'><strong>Okay</strong></p>","null","neutral_feedback","0","test","18","","","","","","","",""
"","","","","","","","","","","","html-button-response","43","2.0.0","142375","5fd7782dee03dc08d3f3f491","1","31","1332","","","","","","","","","<img src= ""rock_img/I_Obsidian_02.jpg"" style=""width:8cm; height:7.51cm;""><p>What type of rock is this?</p>","4","class_response","0","test","19","Obsidian","Obsidian","02","true","5","5","",""
"","","","","","","","","","","","html-keyboard-response","44","2.0.0","142879","5fd7782dee03dc08d3f3f491","1","31","null","","","","","","","","","<p style='font-size: 30px;'><strong>Okay</strong></p>","null","neutral_feedback","0","test","19","","","","","","","",""
"","","","","","","","","","","","html-button-response","45","2.0.0","146991","5fd7782dee03dc08d3f3f491","1","31","4111","","","","","","","","","<img src= ""rock_img/I_Basalt_10.jpg"" style=""width:8cm; height:5.85cm;""><p>What type of rock is this?</p>","5","class_response","0","test","20","Pegmatite","Basalt","10","false","6","2","",""
"","","","","","","","","","","","html-keyboard-response","46","2.0.0","147501","5fd7782dee03dc08d3f3f491","1","31","null","","","","","","","","","<p style='font-size: 30px;'><strong>Okay</strong></p>","null","neutral_feedback","0","test","20","","","","","","","",""
"","","","","","","","","","","","html-button-response","47","2.0.0","150027","5fd7782dee03dc08d3f3f491","1","31","2525","","","","","","","","","<img src= ""rock_img/I_Pegmatite_08.jpg"" style=""width:8cm; height:7.68cm;""><p>What type of rock is this?</p>","7","class_response","0","test","21","Pumice","Pegmatite","08","false","8","6","",""
"","","","","","","","","","","","html-keyboard-response","48","2.0.0","150534","5fd7782dee03dc08d3f3f491","1","31","null","","","","","","","","","<p style='font-size: 30px;'><strong>Okay</strong></p>","null","neutral_feedback","0","test","21","","","","","","","",""
"","","","","","","","","","","","html-button-response","49","2.0.0","153027","5fd7782dee03dc08d3f3f491","1","31","2492","","","","","","","","","<img src= ""rock_img/I_Peridotite_10.jpg"" style=""width:8cm; height:5.390000000000001cm;""><p>What type of rock is this?</p>","6","class_response","0","test","22","Peridotite","Peridotite","10","true","7","7","",""
"","","","","","","","","","","","html-keyboard-response","50","2.0.0","153534","5fd7782dee03dc08d3f3f491","1","31","null","","","","","","","","","<p style='font-size: 30px;'><strong>Okay</strong></p>","null","neutral_feedback","0","test","22","","","","","","","",""
"","","","","","","","","","","","html-button-response","51","2.0.0","156952","5fd7782dee03dc08d3f3f491","1","31","3417","","","","","","","","","<img src= ""rock_img/I_Obsidian_06.jpg"" style=""width:8cm; height:6.8cm;""><p>What type of rock is this?</p>","4","class_response","0","test","23","Obsidian","Obsidian","06","true","5","5","",""
"","","","","","","","","","","","html-keyboard-response","52","2.0.0","157466","5fd7782dee03dc08d3f3f491","1","31","null","","","","","","","","","<p style='font-size: 30px;'><strong>Okay</strong></p>","null","neutral_feedback","0","test","23","","","","","","","",""
"","","","","","","","","","","","html-button-response","53","2.0.0","160140","5fd7782dee03dc08d3f3f491","1","31","2673","","","","","","","","","<img src= ""rock_img/I_Pegmatite_03.jpg"" style=""width:8cm; height:5.239999999999999cm;""><p>What type of rock is this?</p>","5","class_response","0","test","24","Pegmatite","Pegmatite","03","true","6","6","",""
"","","","","","","","","","","","html-keyboard-response","54","2.0.0","160649","5fd7782dee03dc08d3f3f491","1","31","null","","","","","","","","","<p style='font-size: 30px;'><strong>Okay</strong></p>","null","neutral_feedback","0","test","24","","","","","","","",""
"","","","","","","","","","","","html-button-response","55","2.0.0","162024","5fd7782dee03dc08d3f3f491","1","31","1374","","","","","","","","","<img src= ""rock_img/I_Peridotite_15.jpg"" style=""width:8cm; height:6cm;""><p>What type of rock is this?</p>","2","class_response","0","test","25","Diorite","Peridotite","15","false","3","7","",""
"","","","","","","","","","","","html-keyboard-response","56","2.0.0","162534","5fd7782dee03dc08d3f3f491","1","31","null","","","","","","","","","<p style='font-size: 30px;'><strong>Okay</strong></p>","null","neutral_feedback","0","test","25","","","","","","","",""
"","","","","","","","","","","","html-button-response","57","2.0.0","164317","5fd7782dee03dc08d3f3f491","1","31","1782","","","","","","","","","<img src= ""rock_img/I_Peridotite_05.jpg"" style=""width:8cm; height:7.1499999999999995cm;""><p>What type of rock is this?</p>","6","class_response","0","test","26","Peridotite","Peridotite","05","true","7","7","",""
"","","","","","","","","","","","html-keyboard-response","58","2.0.0","164822","5fd7782dee03dc08d3f3f491","1","31","null","","","","","","","","","<p style='font-size: 30px;'><strong>Okay</strong></p>","null","neutral_feedback","0","test","26","","","","","","","",""
"","","","","","","","","","","","html-button-response","59","2.0.0","166607","5fd7782dee03dc08d3f3f491","1","31","1784","","","","","","","","","<img src= ""rock_img/I_Pumice_15.jpg"" style=""width:8cm; height:7.86cm;""><p>What type of rock is this?</p>","3","class_response","0","test","27","Gabbro","Pumice","15","false","4","8","",""
"","","","","","","","","","","","html-keyboard-response","60","2.0.0","167119","5fd7782dee03dc08d3f3f491","1","31","null","","","","","","","","","<p style='font-size: 30px;'><strong>Okay</strong></p>","null","neutral_feedback","0","test","27","","","","","","","",""
"","","","","","","","","","","","html-button-response","61","2.0.0","169014","5fd7782dee03dc08d3f3f491","1","31","1894","","","","","","","","","<img src= ""rock_img/I_Gabbro_05.jpg"" style=""width:8cm; height:6cm;""><p>What type of rock is this?</p>","1","class_response","0","test","28","Basalt","Gabbro","05","false","2","4","",""
"","","","","","","","","","","","html-keyboard-response","62","2.0.0","169517","5fd7782dee03dc08d3f3f491","1","31","null","","","","","","","","","<p style='font-size: 30px;'><strong>Okay</strong></p>","null","neutral_feedback","0","test","28","","","","","","","",""
"","","","","","","","","","","","html-button-response","63","2.0.0","170900","5fd7782dee03dc08d3f3f491","1","31","1382","","","","","","","","","<img src= ""rock_img/I_Pegmatite_07.jpg"" style=""width:8cm; height:6.7cm;""><p>What type of rock is this?</p>","7","class_response","0","test","29","Pumice","Pegmatite","07","false","8","6","",""
"","","","","","","","","","","","html-keyboard-response","64","2.0.0","171405","5fd7782dee03dc08d3f3f491","1","31","null","","","","","","","","","<p style='font-size: 30px;'><strong>Okay</strong></p>","null","neutral_feedback","0","test","29","","","","","","","",""
"","","","","","","","","","","","html-button-response","65","2.0.0","172800","5fd7782dee03dc08d3f3f491","1","31","1394","","","","","","","","","<img src= ""rock_img/I_Pumice_10.jpg"" style=""width:8cm; height:7.609999999999999cm;""><p>What type of rock is this?</p>","0","class_response","0","test","30","Andesite","Pumice","10","false","1","8","",""
"","","","","","","","","","","","html-keyboard-response","66","2.0.0","173310","5fd7782dee03dc08d3f3f491","1","31","null","","","","","","","","","<p style='font-size: 30px;'><strong>Okay</strong></p>","null","neutral_feedback","0","test","30","","","","","","","",""
"","","","","","","","","","","","html-button-response","67","2.0.0","174785","5fd7782dee03dc08d3f3f491","1","31","1474","","","","","","","","","<img src= ""rock_img/I_Pumice_05.jpg"" style=""width:8cm; height:7.25cm;""><p>What type of rock is this?</p>","5","class_response","0","test","31","Pegmatite","Pumice","05","false","6","8","",""
"","","","","","","","","","","","html-keyboard-response","68","2.0.0","175289","5fd7782dee03dc08d3f3f491","1","31","null","","","","","","","","","<p style='font-size: 30px;'><strong>Okay</strong></p>","null","neutral_feedback","0","test","31","","","","","","","",""
"","","","","","","","","","","","html-button-response","69","2.0.0","176733","5fd7782dee03dc08d3f3f491","1","31","1443","","","","","","","","","<img src= ""rock_img/I_Diorite_08.jpg"" style=""width:8cm; height:6.37cm;""><p>What type of rock is this?</p>","2","class_response","0","test","32","Diorite","Diorite","08","true","3","3","",""
"","","","","","","","","","","","html-keyboard-response","70","2.0.0","177239","5fd7782dee03dc08d3f3f491","1","31","null","","","","","","","","","<p style='font-size: 30px;'><strong>Okay</strong></p>","null","neutral_feedback","0","test","32","","","","","","","",""
"","","","","","","","","","","","html-button-response","71","2.0.0","179180","5fd7782dee03dc08d3f3f491","1","31","1940","","","","","","","","","<img src= ""rock_img/I_Gabbro_11.jpg"" style=""width:8cm; height:6.2cm;""><p>What type of rock is this?</p>","6","class_response","0","test","33","Peridotite","Gabbro","11","false","7","4","",""
"","","","","","","","","","","","html-keyboard-response","72","2.0.0","179684","5fd7782dee03dc08d3f3f491","1","31","null","","","","","","","","","<p style='font-size: 30px;'><strong>Okay</strong></p>","null","neutral_feedback","0","test","33","","","","","","","",""
"","","","","","","","","","","","html-button-response","73","2.0.0","181231","5fd7782dee03dc08d3f3f491","1","31","1546","","","","","","","","","<img src= ""rock_img/I_Andesite_16.jpg"" style=""width:8cm; height:6.010000000000001cm;""><p>What type of rock is this?</p>","5","class_response","0","test","34","Pegmatite","Andesite","16","false","6","1","",""
"","","","","","","","","","","","html-keyboard-response","74","2.0.0","181741","5fd7782dee03dc08d3f3f491","1","31","null","","","","","","","","","<p style='font-size: 30px;'><strong>Okay</strong></p>","null","neutral_feedback","0","test","34","","","","","","","",""
"","","","","","","","","","","","html-button-response","75","2.0.0","183494","5fd7782dee03dc08d3f3f491","1","31","1751","","","","","","","","","<img src= ""rock_img/I_Andesite_11.jpg"" style=""width:8cm; height:4.92cm;""><p>What type of rock is this?</p>","0","class_response","0","test","35","Andesite","Andesite","11","true","1","1","",""
"","","","","","","","","","","","html-keyboard-response","76","2.0.0","184000","5fd7782dee03dc08d3f3f491","1","31","null","","","","","","","","","<p style='font-size: 30px;'><strong>Okay</strong></p>","null","neutral_feedback","0","test","35","","","","","","","",""
"","","","","","","","","","","","html-button-response","77","2.0.0","184899","5fd7782dee03dc08d3f3f491","1","31","898","","","","","","","","","<img src= ""rock_img/I_Andesite_05.jpg"" style=""width:8cm; height:4.12cm;""><p>What type of rock is this?</p>","1","class_response","0","test","36","Basalt","Andesite","05","false","2","1","",""
"","","","","","","","","","","","html-keyboard-response","78","2.0.0","185409","5fd7782dee03dc08d3f3f491","1","31","null","","","","","","","","","<p style='font-size: 30px;'><strong>Okay</strong></p>","null","neutral_feedback","0","test","36","","","","","","","",""
"","","","","","","","","","","","html-button-response","79","2.0.0","187361","5fd7782dee03dc08d3f3f491","1","31","1951","","","","","","","","","<img src= ""rock_img/I_Pegmatite_06.jpg"" style=""width:8cm; height:5.17cm;""><p>What type of rock is this?</p>","7","class_response","0","test","37","Pumice","Pegmatite","06","false","8","6","",""
"","","","","","","","","","","","html-keyboard-response","80","2.0.0","187877","5fd7782dee03dc08d3f3f491","1","31","null","","","","","","","","","<p style='font-size: 30px;'><strong>Okay</strong></p>","null","neutral_feedback","0","test","37","","","","","","","",""
"","","","","","","","","","","","html-button-response","81","2.0.0","189152","5fd7782dee03dc08d3f3f491","1","31","1273","","","","","","","","","<img src= ""rock_img/I_Peridotite_06.jpg"" style=""width:8cm; height:7.53cm;""><p>What type of rock is this?</p>","7","class_response","0","test","38","Pumice","Peridotite","06","false","8","7","",""
"","","","","","","","","","","","html-keyboard-response","82","2.0.0","189655","5fd7782dee03dc08d3f3f491","1","31","null","","","","","","","","","<p style='font-size: 30px;'><strong>Okay</strong></p>","null","neutral_feedback","0","test","38","","","","","","","",""
"","","","","","","","","","","","html-button-response","83","2.0.0","191237","5fd7782dee03dc08d3f3f491","1","31","1580","","","","","","","","","<img src= ""rock_img/I_Diorite_02.jpg"" style=""width:8cm; height:6.27cm;""><p>What type of rock is this?</p>","3","class_response","0","test","39","Gabbro","Diorite","02","false","4","3","",""
"","","","","","","","","","","","html-keyboard-response","84","2.0.0","191749","5fd7782dee03dc08d3f3f491","1","31","null","","","","","","","","","<p style='font-size: 30px;'><strong>Okay</strong></p>","null","neutral_feedback","0","test","39","","","","","","","",""
"","","","","","","","","","","","html-button-response","85","2.0.0","192577","5fd7782dee03dc08d3f3f491","1","31","827","","","","","","","","","<img src= ""rock_img/I_Diorite_14.jpg"" style=""width:8cm; height:5.71cm;""><p>What type of rock is this?</p>","2","class_response","0","test","40","Diorite","Diorite","14","true","3","3","",""
"","","","","","","","","","","","html-keyboard-response","86","2.0.0","193085","5fd7782dee03dc08d3f3f491","1","31","null","","","","","","","","","<p style='font-size: 30px;'><strong>Okay</strong></p>","null","neutral_feedback","0","test","40","","","","","","","",""
"","","","","","","","","","","","html-button-response","87","2.0.0","194560","5fd7782dee03dc08d3f3f491","1","31","1474","","","","","","","","","<img src= ""rock_img/I_Basalt_09.jpg"" style=""width:8cm; height:6.2cm;""><p>What type of rock is this?</p>","5","class_response","0","test","41","Pegmatite","Basalt","09","false","6","2","",""
"","","","","","","","","","","","html-keyboard-response","88","2.0.0","195067","5fd7782dee03dc08d3f3f491","1","31","null","","","","","","","","","<p style='font-size: 30px;'><strong>Okay</strong></p>","null","neutral_feedback","0","test","41","","","","","","","",""
"","","","","","","","","","","","html-button-response","89","2.0.0","196423","5fd7782dee03dc08d3f3f491","1","31","1354","","","","","","","","","<img src= ""rock_img/I_Obsidian_14.jpg"" style=""width:8cm; height:7.64cm;""><p>What type of rock is this?</p>","4","class_response","0","test","42","Obsidian","Obsidian","14","true","5","5","",""
"","","","","","","","","","","","html-keyboard-response","90","2.0.0","196930","5fd7782dee03dc08d3f3f491","1","31","null","","","","","","","","","<p style='font-size: 30px;'><strong>Okay</strong></p>","null","neutral_feedback","0","test","42","","","","","","","",""
"","","","","","","","","","","","html-button-response","91","2.0.0","199829","5fd7782dee03dc08d3f3f491","1","31","2897","","","","","","","","","<img src= ""rock_img/I_Basalt_04.jpg"" style=""width:8cm; height:7.53cm;""><p>What type of rock is this?</p>","0","class_response","0","test","43","Andesite","Basalt","04","false","1","2","",""
"","","","","","","","","","","","html-keyboard-response","92","2.0.0","200340","5fd7782dee03dc08d3f3f491","1","31","null","","","","","","","","","<p style='font-size: 30px;'><strong>Okay</strong></p>","null","neutral_feedback","0","test","43","","","","","","","",""
"","","","","","","","","","","","html-button-response","93","2.0.0","201654","5fd7782dee03dc08d3f3f491","1","31","1313","","","","","","","","","<img src= ""rock_img/I_Gabbro_14.jpg"" style=""width:8cm; height:8.48cm;""><p>What type of rock is this?</p>","5","class_response","0","test","44","Pegmatite","Gabbro","14","false","6","4","",""
"","","","","","","","","","","","html-keyboard-response","94","2.0.0","202156","5fd7782dee03dc08d3f3f491","1","31","null","","","","","","","","","<p style='font-size: 30px;'><strong>Okay</strong></p>","null","neutral_feedback","0","test","44","","","","","","","",""
"","","","","","","","","","","","html-button-response","95","2.0.0","203970","5fd7782dee03dc08d3f3f491","1","31","1812","","","","","","","","","<img src= ""rock_img/I_Andesite_02.jpg"" style=""width:8cm; height:8.5cm;""><p>What type of rock is this?</p>","6","class_response","0","test","45","Peridotite","Andesite","02","false","7","1","",""
"","","","","","","","","","","","html-keyboard-response","96","2.0.0","204475","5fd7782dee03dc08d3f3f491","1","31","null","","","","","","","","","<p style='font-size: 30px;'><strong>Okay</strong></p>","null","neutral_feedback","0","test","45","","","","","","","",""
"","","","","","","","","","","","html-button-response","97","2.0.0","205669","5fd7782dee03dc08d3f3f491","1","31","1192","","","","","","","","","<img src= ""rock_img/I_Obsidian_05.jpg"" style=""width:8cm; height:6.33cm;""><p>What type of rock is this?</p>","6","class_response","0","test","46","Peridotite","Obsidian","05","false","7","5","",""
"","","","","","","","","","","","html-keyboard-response","98","2.0.0","206181","5fd7782dee03dc08d3f3f491","1","31","null","","","","","","","","","<p style='font-size: 30px;'><strong>Okay</strong></p>","null","neutral_feedback","0","test","46","","","","","","","",""
"","","","","","","","","","","","html-button-response","99","2.0.0","207197","5fd7782dee03dc08d3f3f491","1","31","1015","","","","","","","","","<img src= ""rock_img/I_Pumice_08.jpg"" style=""width:8cm; height:6.67cm;""><p>What type of rock is this?</p>","5","class_response","0","test","47","Pegmatite","Pumice","08","false","6","8","",""
"","","","","","","","","","","","html-keyboard-response","100","2.0.0","207704","5fd7782dee03dc08d3f3f491","1","31","null","","","","","","","","","<p style='font-size: 30px;'><strong>Okay</strong></p>","null","neutral_feedback","0","test","47","","","","","","","",""
"","","","","","","","","","","","html-button-response","101","2.0.0","208668","5fd7782dee03dc08d3f3f491","1","31","963","","","","","","","","","<img src= ""rock_img/I_Gabbro_10.jpg"" style=""width:8cm; height:5.680000000000001cm;""><p>What type of rock is this?</p>","1","class_response","0","test","48","Basalt","Gabbro","10","false","2","4","",""
"","","","","","","","","","","","html-keyboard-response","102","2.0.0","209170","5fd7782dee03dc08d3f3f491","1","31","null","","","","","","","","","<p style='font-size: 30px;'><strong>Okay</strong></p>","null","neutral_feedback","0","test","48","","","","","","","",""
"","","","","","","","","","","","instructions","103","2.0.0","241561","5fd7782dee03dc08d3f3f491","1","31","32373","","","","","","","","[{""page_index"":0,""viewing_time"":20894},{""page_index"":1,""viewing_time"":7893},{""page_index"":2,""viewing_time"":3585}]","","","","","","","","","","","","","",""
"","","","","","","","","","","","html-button-response","104","2.0.0","245169","5fd7782dee03dc08d3f3f491","1","31","3607","","","","","","","","","","0","start_train","","","","","","","","","","",""
"","","","","","","","","","","","html-button-response","105","2.0.0","250858","5fd7782dee03dc08d3f3f491","1","31","5686","","","","","","","","","<img src= ""rock_img/I_Peridotite_02.jpg"" style=""width:8cm; height:5.859999999999999cm;""><p>What type of rock is this?</p>","7","class_response","1","train","1","Pumice","Peridotite","02","false","8","7","",""
"","","","","","","","","","","","html-button-response","106","2.0.0","270589","5fd7782dee03dc08d3f3f491","1","31","19730","","","","","","","","","<img src= rock_img/I_Peridotite_02.jpg style=""width:8cm; height:5.859999999999999cm;""><p style='font-size: 30px; color: red;'><strong>Incorrect!</strong></p><p style='font-size: 30px;'><strong>This rock is peridotite</strong></p>","0","corr_feedback","1","train","1","","","","","","","",""
"","","","","","","","","","","","html-button-response","107","2.0.0","273536","5fd7782dee03dc08d3f3f491","1","31","2946","","","","","","","","","<img src= ""rock_img/I_Peridotite_14.jpg"" style=""width:8cm; height:5.3cm;""><p>What type of rock is this?</p>","7","class_response","1","train","2","Pumice","Peridotite","14","false","8","7","",""
"","","","","","","","","","","","html-button-response","108","2.0.0","285345","5fd7782dee03dc08d3f3f491","1","31","11808","","","","","","","","","<img src= rock_img/I_Peridotite_14.jpg style=""width:8cm; height:5.3cm;""><p style='font-size: 30px; color: red;'><strong>Incorrect!</strong></p><p style='font-size: 30px;'><strong>This rock is peridotite</strong></p>","0","corr_feedback","1","train","2","","","","","","","",""
"","","","","","","","","","","","html-button-response","109","2.0.0","286843","5fd7782dee03dc08d3f3f491","1","31","1497","","","","","","","","","<img src= ""rock_img/I_Obsidian_10.jpg"" style=""width:8cm; height:6.260000000000001cm;""><p>What type of rock is this?</p>","4","class_response","1","train","3","Obsidian","Obsidian","10","true","5","5","",""
"","","","","","","","","","","","html-button-response","110","2.0.0","289110","5fd7782dee03dc08d3f3f491","1","31","2266","","","","","","","","","<img src= rock_img/I_Obsidian_10.jpg style=""width:8cm; height:6.260000000000001cm;""><p style='font-size: 30px; color: green;'><strong>Correct!</strong></p><p style='font-size: 30px;'><strong>This rock is obsidian</strong></p>","0","corr_feedback","1","train","3","","","","","","","",""
"","","","","","","","","","","","html-button-response","111","2.0.0","292700","5fd7782dee03dc08d3f3f491","1","31","3588","","","","","","","","","<img src= ""rock_img/I_Diorite_10.jpg"" style=""width:8cm; height:5.949999999999999cm;""><p>What type of rock is this?</p>","7","class_response","1","train","4","Pumice","Diorite","10","false","8","3","",""
"","","","","","","","","","","","html-button-response","112","2.0.0","298676","5fd7782dee03dc08d3f3f491","1","31","5975","","","","","","","","","<img src= rock_img/I_Diorite_10.jpg style=""width:8cm; height:5.949999999999999cm;""><p style='font-size: 30px; color: red;'><strong>Incorrect!</strong></p><p style='font-size: 30px;'><strong>This rock is diorite</strong></p>","0","corr_feedback","1","train","4","","","","","","","",""
"","","","","","","","","","","","html-button-response","113","2.0.0","308722","5fd7782dee03dc08d3f3f491","1","31","10044","","","","","","","","","<img src= ""rock_img/I_Peridotite_12.jpg"" style=""width:8cm; height:4.54cm;""><p>What type of rock is this?</p>","2","class_response","1","train","5","Diorite","Peridotite","12","false","3","7","",""
"","","","","","","","","","","","html-button-response","114","2.0.0","310918","5fd7782dee03dc08d3f3f491","1","31","2195","","","","","","","","","<img src= rock_img/I_Peridotite_12.jpg style=""width:8cm; height:4.54cm;""><p style='font-size: 30px; color: red;'><strong>Incorrect!</strong></p><p style='font-size: 30px;'><strong>This rock is peridotite</strong></p>","0","corr_feedback","1","train","5","","","","","","","",""
"","","","","","","","","","","","html-button-response","115","2.0.0","317808","5fd7782dee03dc08d3f3f491","1","31","6889","","","","","","","","","<img src= ""rock_img/I_Diorite_09.jpg"" style=""width:8cm; height:5.27cm;""><p>What type of rock is this?</p>","2","class_response","1","train","6","Diorite","Diorite","09","true","3","3","",""
"","","","","","","","","","","","html-button-response","116","2.0.0","319516","5fd7782dee03dc08d3f3f491","1","31","1706","","","","","","","","","<img src= rock_img/I_Diorite_09.jpg style=""width:8cm; height:5.27cm;""><p style='font-size: 30px; color: green;'><strong>Correct!</strong></p><p style='font-size: 30px;'><strong>This rock is diorite</strong></p>","0","corr_feedback","1","train","6","","","","","","","",""
"","","","","","","","","","","","html-button-response","117","2.0.0","323389","5fd7782dee03dc08d3f3f491","1","31","3872","","","","","","","","","<img src= ""rock_img/I_Pegmatite_13.jpg"" style=""width:8cm; height:4.95cm;""><p>What type of rock is this?</p>","3","class_response","1","train","7","Gabbro","Pegmatite","13","false","4","6","",""
"","","","","","","","","","","","html-button-response","118","2.0.0","339435","5fd7782dee03dc08d3f3f491","1","31","16044","","","","","","","","","<img src= rock_img/I_Pegmatite_13.jpg style=""width:8cm; height:4.95cm;""><p style='font-size: 30px; color: red;'><strong>Incorrect!</strong></p><p style='font-size: 30px;'><strong>This rock is pegmatite</strong></p>","0","corr_feedback","1","train","7","","","","","","","",""
"","","","","","","","","","","","html-button-response","119","2.0.0","341542","5fd7782dee03dc08d3f3f491","1","31","2106","","","","","","","","","<img src= ""rock_img/I_Andesite_06.jpg"" style=""width:8cm; height:6.840000000000001cm;""><p>What type of rock is this?</p>","1","class_response","1","train","8","Basalt","Andesite","06","false","2","1","",""
"","","","","","","","","","","","html-button-response","120","2.0.0","348165","5fd7782dee03dc08d3f3f491","1","31","6622","","","","","","","","","<img src= rock_img/I_Andesite_06.jpg style=""width:8cm; height:6.840000000000001cm;""><p style='font-size: 30px; color: red;'><strong>Incorrect!</strong></p><p style='font-size: 30px;'><strong>This rock is andesite</strong></p>","0","corr_feedback","1","train","8","","","","","","","",""
"","","","","","","","","","","","html-button-response","121","2.0.0","351217","5fd7782dee03dc08d3f3f491","1","31","3051","","","","","","","","","<img src= ""rock_img/I_Peridotite_08.jpg"" style=""width:8cm; height:6.7cm;""><p>What type of rock is this?</p>","1","class_response","1","train","9","Basalt","Peridotite","08","false","2","7","",""
"","","","","","","","","","","","html-button-response","122","2.0.0","352605","5fd7782dee03dc08d3f3f491","1","31","1387","","","","","","","","","<img src= rock_img/I_Peridotite_08.jpg style=""width:8cm; height:6.7cm;""><p style='font-size: 30px; color: red;'><strong>Incorrect!</strong></p><p style='font-size: 30px;'><strong>This rock is peridotite</strong></p>","0","corr_feedback","1","train","9","","","","","","","",""
"","","","","","","","","","","","html-button-response","123","2.0.0","357038","5fd7782dee03dc08d3f3f491","1","31","4431","","","","","","","","","<img src= ""rock_img/I_Pegmatite_15.jpg"" style=""width:8cm; height:6cm;""><p>What type of rock is this?</p>","2","class_response","1","train","10","Diorite","Pegmatite","15","false","3","6","",""
"","","","","","","","","","","","html-button-response","124","2.0.0","368851","5fd7782dee03dc08d3f3f491","1","31","11812","","","","","","","","","<img src= rock_img/I_Pegmatite_15.jpg style=""width:8cm; height:6cm;""><p style='font-size: 30px; color: red;'><strong>Incorrect!</strong></p><p style='font-size: 30px;'><strong>This rock is pegmatite</strong></p>","0","corr_feedback","1","train","10","","","","","","","",""
"","","","","","","","","","","","html-button-response","125","2.0.0","371115","5fd7782dee03dc08d3f3f491","1","31","2263","","","","","","","","","<img src= ""rock_img/I_Andesite_10.jpg"" style=""width:8cm; height:4.16cm;""><p>What type of rock is this?</p>","0","class_response","1","train","11","Andesite","Andesite","10","true","1","1","",""
"","","","","","","","","","","","html-button-response","126","2.0.0","373488","5fd7782dee03dc08d3f3f491","1","31","2372","","","","","","","","","<img src= rock_img/I_Andesite_10.jpg style=""width:8cm; height:4.16cm;""><p style='font-size: 30px; color: green;'><strong>Correct!</strong></p><p style='font-size: 30px;'><strong>This rock is andesite</strong></p>","0","corr_feedback","1","train","11","","","","","","","",""
"","","","","","","","","","","","html-button-response","127","2.0.0","393038","5fd7782dee03dc08d3f3f491","1","31","19549","","","","","","","","","<img src= ""rock_img/I_Pegmatite_05.jpg"" style=""width:8cm; height:7.300000000000001cm;""><p>What type of rock is this?</p>","6","class_response","1","train","12","Peridotite","Pegmatite","05","false","7","6","",""
"","","","","","","","","","","","html-button-response","128","2.0.0","401325","5fd7782dee03dc08d3f3f491","1","31","8285","","","","","","","","","<img src= rock_img/I_Pegmatite_05.jpg style=""width:8cm; height:7.300000000000001cm;""><p style='font-size: 30px; color: red;'><strong>Incorrect!</strong></p><p style='font-size: 30px;'><strong>This rock is pegmatite</strong></p>","0","corr_feedback","1","train","12","","","","","","","",""
"","","","","","","","","","","","html-button-response","129","2.0.0","403317","5fd7782dee03dc08d3f3f491","1","31","1991","","","","","","","","","<img src= ""rock_img/I_Andesite_14.jpg"" style=""width:8cm; height:5.449999999999999cm;""><p>What type of rock is this?</p>","0","class_response","1","train","13","Andesite","Andesite","14","true","1","1","",""
"","","","","","","","","","","","html-button-response","130","2.0.0","404359","5fd7782dee03dc08d3f3f491","1","31","1041","","","","","","","","","<img src= rock_img/I_Andesite_14.jpg style=""width:8cm; height:5.449999999999999cm;""><p style='font-size: 30px; color: green;'><strong>Correct!</strong></p><p style='font-size: 30px;'><strong>This rock is andesite</strong></p>","0","corr_feedback","1","train","13","","","","","","","",""
"","","","","","","","","","","","html-button-response","131","2.0.0","406602","5fd7782dee03dc08d3f3f491","1","31","2241","","","","","","","","","<img src= ""rock_img/I_Gabbro_09.jpg"" style=""width:8cm; height:7.279999999999999cm;""><p>What type of rock is this?</p>","4","class_response","1","train","14","Obsidian","Gabbro","09","false","5","4","",""
"","","","","","","","","","","","html-button-response","132","2.0.0","414525","5fd7782dee03dc08d3f3f491","1","31","7921","","","","","","","","","<img src= rock_img/I_Gabbro_09.jpg style=""width:8cm; height:7.279999999999999cm;""><p style='font-size: 30px; color: red;'><strong>Incorrect!</strong></p><p style='font-size: 30px;'><strong>This rock is gabbro</strong></p>","0","corr_feedback","1","train","14","","","","","","","",""
"","","","","","","","","","","","html-button-response","133","2.0.0","416393","5fd7782dee03dc08d3f3f491","1","31","1867","","","","","","","","","<img src= ""rock_img/I_Obsidian_07.jpg"" style=""width:8cm; height:4.76cm;""><p>What type of rock is this?</p>","4","class_response","1","train","15","Obsidian","Obsidian","07","true","5","5","",""
"","","","","","","","","","","","html-button-response","134","2.0.0","417539","5fd7782dee03dc08d3f3f491","1","31","1145","","","","","","","","","<img src= rock_img/I_Obsidian_07.jpg style=""width:8cm; height:4.76cm;""><p style='font-size: 30px; color: green;'><strong>Correct!</strong></p><p style='font-size: 30px;'><strong>This rock is obsidian</strong></p>","0","corr_feedback","1","train","15","","","","","","","",""
"","","","","","","","","","","","html-button-response","135","2.0.0","418774","5fd7782dee03dc08d3f3f491","1","31","1234","","","","","","","","","<img src= ""rock_img/I_Obsidian_11.jpg"" style=""width:8cm; height:6.05cm;""><p>What type of rock is this?</p>","4","class_response","1","train","16","Obsidian","Obsidian","11","true","5","5","",""
"","","","","","","","","","","","html-button-response","136","2.0.0","419558","5fd7782dee03dc08d3f3f491","1","31","783","","","","","","","","","<img src= rock_img/I_Obsidian_11.jpg style=""width:8cm; height:6.05cm;""><p style='font-size: 30px; color: green;'><strong>Correct!</strong></p><p style='font-size: 30px;'><strong>This rock is obsidian</strong></p>","0","corr_feedback","1","train","16","","","","","","","",""
"","","","","","","","","","","","html-button-response","137","2.0.0","420947","5fd7782dee03dc08d3f3f491","1","31","1387","","","","","","","","","<img src= ""rock_img/I_Basalt_12.jpg"" style=""width:8cm; height:6.010000000000001cm;""><p>What type of rock is this?</p>","0","class_response","1","train","17","Andesite","Basalt","12","false","1","2","",""
"","","","","","","","","","","","html-button-response","138","2.0.0","429586","5fd7782dee03dc08d3f3f491","1","31","8638","","","","","","","","","<img src= rock_img/I_Basalt_12.jpg style=""width:8cm; height:6.010000000000001cm;""><p style='font-size: 30px; color: red;'><strong>Incorrect!</strong></p><p style='font-size: 30px;'><strong>This rock is basalt</strong></p>","0","corr_feedback","1","train","17","","","","","","","",""
"","","","","","","","","","","","html-button-response","139","2.0.0","431385","5fd7782dee03dc08d3f3f491","1","31","1798","","","","","","","","","<img src= ""rock_img/I_Obsidian_08.jpg"" style=""width:8cm; height:7.39cm;""><p>What type of rock is this?</p>","4","class_response","1","train","18","Obsidian","Obsidian","08","true","5","5","",""
"","","","","","","","","","","","html-button-response","140","2.0.0","432131","5fd7782dee03dc08d3f3f491","1","31","745","","","","","","","","","<img src= rock_img/I_Obsidian_08.jpg style=""width:8cm; height:7.39cm;""><p style='font-size: 30px; color: green;'><strong>Correct!</strong></p><p style='font-size: 30px;'><strong>This rock is obsidian</strong></p>","0","corr_feedback","1","train","18","","","","","","","",""
"","","","","","","","","","","","html-button-response","141","2.0.0","434475","5fd7782dee03dc08d3f3f491","1","31","2342","","","","","","","","","<img src= ""rock_img/I_Basalt_14.jpg"" style=""width:8cm; height:5.82cm;""><p>What type of rock is this?</p>","0","class_response","1","train","19","Andesite","Basalt","14","false","1","2","",""
"","","","","","","","","","","","html-button-response","142","2.0.0","441518","5fd7782dee03dc08d3f3f491","1","31","7042","","","","","","","","","<img src= rock_img/I_Basalt_14.jpg style=""width:8cm; height:5.82cm;""><p style='font-size: 30px; color: red;'><strong>Incorrect!</strong></p><p style='font-size: 30px;'><strong>This rock is basalt</strong></p>","0","corr_feedback","1","train","19","","","","","","","",""
"","","","","","","","","","","","html-button-response","143","2.0.0","446205","5fd7782dee03dc08d3f3f491","1","31","4686","","","","","","","","","<img src= ""rock_img/I_Basalt_08.jpg"" style=""width:8cm; height:10.44cm;""><p>What type of rock is this?</p>","0","class_response","1","train","20","Andesite","Basalt","08","false","1","2","",""
"","","","","","","","","","","","html-button-response","144","2.0.0","447221","5fd7782dee03dc08d3f3f491","1","31","1014","","","","","","","","","<img src= rock_img/I_Basalt_08.jpg style=""width:8cm; height:10.44cm;""><p style='font-size: 30px; color: red;'><strong>Incorrect!</strong></p><p style='font-size: 30px;'><strong>This rock is basalt</strong></p>","0","corr_feedback","1","train","20","","","","","","","",""
"","","","","","","","","","","","html-button-response","145","2.0.0","455835","5fd7782dee03dc08d3f3f491","1","31","8614","","","","","","","","","<img src= ""rock_img/I_Basalt_05.jpg"" style=""width:8cm; height:8.18cm;""><p>What type of rock is this?</p>","1","class_response","1","train","21","Basalt","Basalt","05","true","2","2","",""
"","","","","","","","","","","","html-button-response","146","2.0.0","456772","5fd7782dee03dc08d3f3f491","1","31","935","","","","","","","","","<img src= rock_img/I_Basalt_05.jpg style=""width:8cm; height:8.18cm;""><p style='font-size: 30px; color: green;'><strong>Correct!</strong></p><p style='font-size: 30px;'><strong>This rock is basalt</strong></p>","0","corr_feedback","1","train","21","","","","","","","",""
"","","","","","","","","","","","html-button-response","147","2.0.0","462821","5fd7782dee03dc08d3f3f491","1","31","6048","","","","","","","","","<img src= ""rock_img/I_Gabbro_03.jpg"" style=""width:8cm; height:8.52cm;""><p>What type of rock is this?</p>","0","class_response","1","train","22","Andesite","Gabbro","03","false","1","4","",""
"","","","","","","","","","","","html-button-response","148","2.0.0","467887","5fd7782dee03dc08d3f3f491","1","31","5065","","","","","","","","","<img src= rock_img/I_Gabbro_03.jpg style=""width:8cm; height:8.52cm;""><p style='font-size: 30px; color: red;'><strong>Incorrect!</strong></p><p style='font-size: 30px;'><strong>This rock is gabbro</strong></p>","0","corr_feedback","1","train","22","","","","","","","",""
"","","","","","","","","","","","html-button-response","149","2.0.0","474377","5fd7782dee03dc08d3f3f491","1","31","6489","","","","","","","","","<img src= ""rock_img/I_Pumice_14.jpg"" style=""width:8cm; height:6.39cm;""><p>What type of rock is this?</p>","5","class_response","1","train","23","Pegmatite","Pumice","14","false","6","8","",""
"","","","","","","","","","","","html-button-response","150","2.0.0","489652","5fd7782dee03dc08d3f3f491","1","31","15274","","","","","","","","","<img src= rock_img/I_Pumice_14.jpg style=""width:8cm; height:6.39cm;""><p style='font-size: 30px; color: red;'><strong>Incorrect!</strong></p><p style='font-size: 30px;'><strong>This rock is pumice</strong></p>","0","corr_feedback","1","train","23","","","","","","","",""
"","","","","","","","","","","","html-button-response","151","2.0.0","489655","5fd7782dee03dc08d3f3f491","1","31","2","","","","","","","","","<img src= ""rock_img/I_Gabbro_15.jpg"" style=""width:8cm; height:6.29cm;""><p>What type of rock is this?</p>","5","class_response","1","train","24","Pegmatite","Gabbro","15","false","6","4","",""
"","","","","","","","","","","","html-button-response","152","2.0.0","492283","5fd7782dee03dc08d3f3f491","1","31","2627","","","","","","","","","<img src= rock_img/I_Gabbro_15.jpg style=""width:8cm; height:6.29cm;""><p style='font-size: 30px; color: red;'><strong>Incorrect!</strong></p><p style='font-size: 30px;'><strong>This rock is gabbro</strong></p>","0","corr_feedback","1","train","24","","","","","","","",""
"","","","","","","","","","","","html-button-response","153","2.0.0","493806","5fd7782dee03dc08d3f3f491","1","31","1522","","","","","","","","","<img src= ""rock_img/I_Obsidian_16.jpg"" style=""width:8cm; height:9.3cm;""><p>What type of rock is this?</p>","4","class_response","1","train","25","Obsidian","Obsidian","16","true","5","5","",""
"","","","","","","","","","","","html-button-response","154","2.0.0","494645","5fd7782dee03dc08d3f3f491","1","31","837","","","","","","","","","<img src= rock_img/I_Obsidian_16.jpg style=""width:8cm; height:9.3cm;""><p style='font-size: 30px; color: green;'><strong>Correct!</strong></p><p style='font-size: 30px;'><strong>This rock is obsidian</strong></p>","0","corr_feedback","1","train","25","","","","","","","",""
"","","","","","","","","","","","html-button-response","155","2.0.0","499174","5fd7782dee03dc08d3f3f491","1","31","4528","","","","","","","","","<img src= ""rock_img/I_Diorite_15.jpg"" style=""width:8cm; height:5.54cm;""><p>What type of rock is this?</p>","2","class_response","1","train","26","Diorite","Diorite","15","true","3","3","",""
"","","","","","","","","","","","html-button-response","156","2.0.0","501181","5fd7782dee03dc08d3f3f491","1","31","2006","","","","","","","","","<img src= rock_img/I_Diorite_15.jpg style=""width:8cm; height:5.54cm;""><p style='font-size: 30px; color: green;'><strong>Correct!</strong></p><p style='font-size: 30px;'><strong>This rock is diorite</strong></p>","0","corr_feedback","1","train","26","","","","","","","",""
"","","","","","","","","","","","html-button-response","157","2.0.0","508459","5fd7782dee03dc08d3f3f491","1","31","7277","","","","","","","","","<img src= ""rock_img/I_Pegmatite_16.jpg"" style=""width:8cm; height:5.8cm;""><p>What type of rock is this?</p>","5","class_response","1","train","27","Pegmatite","Pegmatite","16","true","6","6","",""
"","","","","","","","","","","","html-button-response","158","2.0.0","509346","5fd7782dee03dc08d3f3f491","1","31","885","","","","","","","","","<img src= rock_img/I_Pegmatite_16.jpg style=""width:8cm; height:5.8cm;""><p style='font-size: 30px; color: green;'><strong>Correct!</strong></p><p style='font-size: 30px;'><strong>This rock is pegmatite</strong></p>","0","corr_feedback","1","train","27","","","","","","","",""
"","","","","","","","","","","","html-button-response","159","2.0.0","513909","5fd7782dee03dc08d3f3f491","1","31","4561","","","","","","","","","<img src= ""rock_img/I_Pumice_06.jpg"" style=""width:8cm; height:6.9399999999999995cm;""><p>What type of rock is this?</p>","2","class_response","1","train","28","Diorite","Pumice","06","false","3","8","",""
"","","","","","","","","","","","html-button-response","160","2.0.0","525010","5fd7782dee03dc08d3f3f491","1","31","11099","","","","","","","","","<img src= rock_img/I_Pumice_06.jpg style=""width:8cm; height:6.9399999999999995cm;""><p style='font-size: 30px; color: red;'><strong>Incorrect!</strong></p><p style='font-size: 30px;'><strong>This rock is pumice</strong></p>","0","corr_feedback","1","train","28","","","","","","","",""
"","","","","","","","","","","","html-button-response","161","2.0.0","535152","5fd7782dee03dc08d3f3f491","1","31","10141","","","","","","","","","<img src= ""rock_img/I_Peridotite_16.jpg"" style=""width:8cm; height:6.989999999999999cm;""><p>What type of rock is this?</p>","1","class_response","1","train","29","Basalt","Peridotite","16","false","2","7","",""
"","","","","","","","","","","","html-button-response","162","2.0.0","544537","5fd7782dee03dc08d3f3f491","1","31","9384","","","","","","","","","<img src= rock_img/I_Peridotite_16.jpg style=""width:8cm; height:6.989999999999999cm;""><p style='font-size: 30px; color: red;'><strong>Incorrect!</strong></p><p style='font-size: 30px;'><strong>This rock is peridotite</strong></p>","0","corr_feedback","1","train","29","","","","","","","",""
"","","","","","","","","","","","html-button-response","163","2.0.0","552681","5fd7782dee03dc08d3f3f491","1","31","8143","","","","","","","","","<img src= ""rock_img/I_Pumice_04.jpg"" style=""width:8cm; height:6.819999999999999cm;""><p>What type of rock is this?</p>","1","class_response","1","train","30","Basalt","Pumice","04","false","2","8","",""
"","","","","","","","","","","","html-button-response","164","2.0.0","560034","5fd7782dee03dc08d3f3f491","1","31","7352","","","","","","","","","<img src= rock_img/I_Pumice_04.jpg style=""width:8cm; height:6.819999999999999cm;""><p style='font-size: 30px; color: red;'><strong>Incorrect!</strong></p><p style='font-size: 30px;'><strong>This rock is pumice</strong></p>","0","corr_feedback","1","train","30","","","","","","","",""
"","","","","","","","","","","","html-button-response","165","2.0.0","563336","5fd7782dee03dc08d3f3f491","1","31","3300","","","","","","","","","<img src= ""rock_img/I_Pumice_13.jpg"" style=""width:8cm; height:8.200000000000001cm;""><p>What type of rock is this?</p>","7","class_response","1","train","31","Pumice","Pumice","13","true","8","8","",""
"","","","","","","","","","","","html-button-response","166","2.0.0","564303","5fd7782dee03dc08d3f3f491","1","31","966","","","","","","","","","<img src= rock_img/I_Pumice_13.jpg style=""width:8cm; height:8.200000000000001cm;""><p style='font-size: 30px; color: green;'><strong>Correct!</strong></p><p style='font-size: 30px;'><strong>This rock is pumice</strong></p>","0","corr_feedback","1","train","31","","","","","","","",""
"","","","","","","","","","","","html-button-response","167","2.0.0","572526","5fd7782dee03dc08d3f3f491","1","31","8222","","","","","","","","","<img src= ""rock_img/I_Andesite_07.jpg"" style=""width:8cm; height:5.93cm;""><p>What type of rock is this?</p>","1","class_response","1","train","32","Basalt","Andesite","07","false","2","1","",""
"","","","","","","","","","","","html-button-response","168","2.0.0","579776","5fd7782dee03dc08d3f3f491","1","31","7248","","","","","","","","","<img src= rock_img/I_Andesite_07.jpg style=""width:8cm; height:5.93cm;""><p style='font-size: 30px; color: red;'><strong>Incorrect!</strong></p><p style='font-size: 30px;'><strong>This rock is andesite</strong></p>","0","corr_feedback","1","train","32","","","","","","","",""
"","","","","","","","","","","","html-button-response","169","2.0.0","584280","5fd7782dee03dc08d3f3f491","1","31","4503","","","","","","","","","<img src= ""rock_img/I_Gabbro_16.jpg"" style=""width:8cm; height:6.44cm;""><p>What type of rock is this?</p>","1","class_response","1","train","33","Basalt","Gabbro","16","false","2","4","",""
"","","","","","","","","","","","html-button-response","170","2.0.0","598791","5fd7782dee03dc08d3f3f491","1","31","14509","","","","","","","","","<img src= rock_img/I_Gabbro_16.jpg style=""width:8cm; height:6.44cm;""><p style='font-size: 30px; color: red;'><strong>Incorrect!</strong></p><p style='font-size: 30px;'><strong>This rock is gabbro</strong></p>","0","corr_feedback","1","train","33","","","","","","","",""
"","","","","","","","","","","","html-button-response","171","2.0.0","609340","5fd7782dee03dc08d3f3f491","1","31","10547","","","","","","","","","<img src= ""rock_img/I_Andesite_04.jpg"" style=""width:8cm; height:5.96cm;""><p>What type of rock is this?</p>","1","class_response","1","train","34","Basalt","Andesite","04","false","2","1","",""
"","","","","","","","","","","","html-button-response","172","2.0.0","611618","5fd7782dee03dc08d3f3f491","1","31","2277","","","","","","","","","<img src= rock_img/I_Andesite_04.jpg style=""width:8cm; height:5.96cm;""><p style='font-size: 30px; color: red;'><strong>Incorrect!</strong></p><p style='font-size: 30px;'><strong>This rock is andesite</strong></p>","0","corr_feedback","1","train","34","","","","","","","",""
"","","","","","","","","","","","html-button-response","173","2.0.0","617978","5fd7782dee03dc08d3f3f491","1","31","6359","","","","","","","","","<img src= ""rock_img/I_Diorite_13.jpg"" style=""width:8cm; height:6.29cm;""><p>What type of rock is this?</p>","2","class_response","1","train","35","Diorite","Diorite","13","true","3","3","",""
"","","","","","","","","","","","html-button-response","174","2.0.0","618814","5fd7782dee03dc08d3f3f491","1","31","834","","","","","","","","","<img src= rock_img/I_Diorite_13.jpg style=""width:8cm; height:6.29cm;""><p style='font-size: 30px; color: green;'><strong>Correct!</strong></p><p style='font-size: 30px;'><strong>This rock is diorite</strong></p>","0","corr_feedback","1","train","35","","","","","","","",""
"","","","","","","","","","","","html-button-response","175","2.0.0","629010","5fd7782dee03dc08d3f3f491","1","31","10194","","","","","","","","","<img src= ""rock_img/I_Diorite_06.jpg"" style=""width:8cm; height:6.03cm;""><p>What type of rock is this?</p>","2","class_response","1","train","36","Diorite","Diorite","06","true","3","3","",""
"","","","","","","","","","","","html-button-response","176","2.0.0","629838","5fd7782dee03dc08d3f3f491","1","31","828","","","","","","","","","<img src= rock_img/I_Diorite_06.jpg style=""width:8cm; height:6.03cm;""><p style='font-size: 30px; color: green;'><strong>Correct!</strong></p><p style='font-size: 30px;'><strong>This rock is diorite</strong></p>","0","corr_feedback","1","train","36","","","","","","","",""
"","","","","","","","","","","","html-button-response","177","2.0.0","641020","5fd7782dee03dc08d3f3f491","1","31","11180","","","","","","","","","<img src= ""rock_img/I_Basalt_11.jpg"" style=""width:8cm; height:5.359999999999999cm;""><p>What type of rock is this?</p>","1","class_response","1","train","37","Basalt","Basalt","11","true","2","2","",""
"","","","","","","","","","","","html-button-response","178","2.0.0","642151","5fd7782dee03dc08d3f3f491","1","31","1130","","","","","","","","","<img src= rock_img/I_Basalt_11.jpg style=""width:8cm; height:5.359999999999999cm;""><p style='font-size: 30px; color: green;'><strong>Correct!</strong></p><p style='font-size: 30px;'><strong>This rock is basalt</strong></p>","0","corr_feedback","1","train","37","","","","","","","",""
"","","","","","","","","","","","html-button-response","179","2.0.0","644946","5fd7782dee03dc08d3f3f491","1","31","2794","","","","","","","","","<img src= ""rock_img/I_Andesite_03.jpg"" style=""width:8cm; height:5.73cm;""><p>What type of rock is this?</p>","0","class_response","1","train","38","Andesite","Andesite","03","true","1","1","",""
"","","","","","","","","","","","html-button-response","180","2.0.0","645709","5fd7782dee03dc08d3f3f491","1","31","762","","","","","","","","","<img src= rock_img/I_Andesite_03.jpg style=""width:8cm; height:5.73cm;""><p style='font-size: 30px; color: green;'><strong>Correct!</strong></p><p style='font-size: 30px;'><strong>This rock is andesite</strong></p>","0","corr_feedback","1","train","38","","","","","","","",""
"","","","","","","","","","","","html-button-response","181","2.0.0","650735","5fd7782dee03dc08d3f3f491","1","31","5025","","","","","","","","","<img src= ""rock_img/I_Basalt_06.jpg"" style=""width:8cm; height:7.06cm;""><p>What type of rock is this?</p>","1","class_response","1","train","39","Basalt","Basalt","06","true","2","2","",""
"","","","","","","","","","","","html-button-response","182","2.0.0","651721","5fd7782dee03dc08d3f3f491","1","31","984","","","","","","","","","<img src= rock_img/I_Basalt_06.jpg style=""width:8cm; height:7.06cm;""><p style='font-size: 30px; color: green;'><strong>Correct!</strong></p><p style='font-size: 30px;'><strong>This rock is basalt</strong></p>","0","corr_feedback","1","train","39","","","","","","","",""
"","","","","","","","","","","","html-button-response","183","2.0.0","659376","5fd7782dee03dc08d3f3f491","1","31","7654","","","","","","","","","<img src= ""rock_img/I_Pumice_02.jpg"" style=""width:8cm; height:7.3999999999999995cm;""><p>What type of rock is this?</p>","7","class_response","1","train","40","Pumice","Pumice","02","true","8","8","",""
"","","","","","","","","","","","html-button-response","184","2.0.0","663290","5fd7782dee03dc08d3f3f491","1","31","3913","","","","","","","","","<img src= rock_img/I_Pumice_02.jpg style=""width:8cm; height:7.3999999999999995cm;""><p style='font-size: 30px; color: green;'><strong>Correct!</strong></p><p style='font-size: 30px;'><strong>This rock is pumice</strong></p>","0","corr_feedback","1","train","40","","","","","","","",""
"","","","","","","","","","","","html-button-response","185","2.0.0","671945","5fd7782dee03dc08d3f3f491","1","31","8653","","","","","","","","","<img src= ""rock_img/I_Pegmatite_09.jpg"" style=""width:8cm; height:4.03cm;""><p>What type of rock is this?</p>","5","class_response","1","train","41","Pegmatite","Pegmatite","09","true","6","6","",""
"","","","","","","","","","","","html-button-response","186","2.0.0","672655","5fd7782dee03dc08d3f3f491","1","31","709","","","","","","","","","<img src= rock_img/I_Pegmatite_09.jpg style=""width:8cm; height:4.03cm;""><p style='font-size: 30px; color: green;'><strong>Correct!</strong></p><p style='font-size: 30px;'><strong>This rock is pegmatite</strong></p>","0","corr_feedback","1","train","41","","","","","","","",""
"","","","","","","","","","","","html-button-response","187","2.0.0","678361","5fd7782dee03dc08d3f3f491","1","31","5705","","","","","","","","","<img src= ""rock_img/I_Diorite_07.jpg"" style=""width:8cm; height:5.239999999999999cm;""><p>What type of rock is this?</p>","2","class_response","1","train","42","Diorite","Diorite","07","true","3","3","",""
"","","","","","","","","","","","html-button-response","188","2.0.0","679120","5fd7782dee03dc08d3f3f491","1","31","757","","","","","","","","","<img src= rock_img/I_Diorite_07.jpg style=""width:8cm; height:5.239999999999999cm;""><p style='font-size: 30px; color: green;'><strong>Correct!</strong></p><p style='font-size: 30px;'><strong>This rock is diorite</strong></p>","0","corr_feedback","1","train","42","","","","","","","",""
"","","","","","","","","","","","html-button-response","189","2.0.0","684743","5fd7782dee03dc08d3f3f491","1","31","5622","","","","","","","","","<img src= ""rock_img/I_Peridotite_04.jpg"" style=""width:8cm; height:6.680000000000001cm;""><p>What type of rock is this?</p>","6","class_response","1","train","43","Peridotite","Peridotite","04","true","7","7","",""
"","","","","","","","","","","","html-button-response","190","2.0.0","685987","5fd7782dee03dc08d3f3f491","1","31","1242","","","","","","","","","<img src= rock_img/I_Peridotite_04.jpg style=""width:8cm; height:6.680000000000001cm;""><p style='font-size: 30px; color: green;'><strong>Correct!</strong></p><p style='font-size: 30px;'><strong>This rock is peridotite</strong></p>","0","corr_feedback","1","train","43","","","","","","","",""
"","","","","","","","","","","","html-button-response","191","2.0.0","699014","5fd7782dee03dc08d3f3f491","1","31","13026","","","","","","","","","<img src= ""rock_img/I_Pumice_03.jpg"" style=""width:8cm; height:6.64cm;""><p>What type of rock is this?</p>","7","class_response","1","train","44","Pumice","Pumice","03","true","8","8","",""
"","","","","","","","","","","","html-button-response","192","2.0.0","699942","5fd7782dee03dc08d3f3f491","1","31","927","","","","","","","","","<img src= rock_img/I_Pumice_03.jpg style=""width:8cm; height:6.64cm;""><p style='font-size: 30px; color: green;'><strong>Correct!</strong></p><p style='font-size: 30px;'><strong>This rock is pumice</strong></p>","0","corr_feedback","1","train","44","","","","","","","",""
"","","","","","","","","","","","html-button-response","193","2.0.0","709248","5fd7782dee03dc08d3f3f491","1","31","9304","","","","","","","","","<img src= ""rock_img/I_Pegmatite_12.jpg"" style=""width:8cm; height:5.7cm;""><p>What type of rock is this?</p>","3","class_response","1","train","45","Gabbro","Pegmatite","12","false","4","6","",""
"","","","","","","","","","","","html-button-response","194","2.0.0","710533","5fd7782dee03dc08d3f3f491","1","31","1284","","","","","","","","","<img src= rock_img/I_Pegmatite_12.jpg style=""width:8cm; height:5.7cm;""><p style='font-size: 30px; color: red;'><strong>Incorrect!</strong></p><p style='font-size: 30px;'><strong>This rock is pegmatite</strong></p>","0","corr_feedback","1","train","45","","","","","","","",""
"","","","","","","","","","","","html-button-response","195","2.0.0","716932","5fd7782dee03dc08d3f3f491","1","31","6397","","","","","","","","","<img src= ""rock_img/I_Gabbro_08.jpg"" style=""width:8cm; height:5.15cm;""><p>What type of rock is this?</p>","3","class_response","1","train","46","Gabbro","Gabbro","08","true","4","4","",""
"","","","","","","","","","","","html-button-response","196","2.0.0","720239","5fd7782dee03dc08d3f3f491","1","31","3306","","","","","","","","","<img src= rock_img/I_Gabbro_08.jpg style=""width:8cm; height:5.15cm;""><p style='font-size: 30px; color: green;'><strong>Correct!</strong></p><p style='font-size: 30px;'><strong>This rock is gabbro</strong></p>","0","corr_feedback","1","train","46","","","","","","","",""
"","","","","","","","","","","","html-button-response","197","2.0.0","725830","5fd7782dee03dc08d3f3f491","1","31","5589","","","","","","","","","<img src= ""rock_img/I_Gabbro_13.jpg"" style=""width:8cm; height:5.08cm;""><p>What type of rock is this?</p>","1","class_response","1","train","47","Basalt","Gabbro","13","false","2","4","",""
"","","","","","","","","","","","html-button-response","198","2.0.0","726805","5fd7782dee03dc08d3f3f491","1","31","974","","","","","","","","","<img src= rock_img/I_Gabbro_13.jpg style=""width:8cm; height:5.08cm;""><p style='font-size: 30px; color: red;'><strong>Incorrect!</strong></p><p style='font-size: 30px;'><strong>This rock is gabbro</strong></p>","0","corr_feedback","1","train","47","","","","","","","",""
"","","","","","","","","","","","html-button-response","199","2.0.0","728303","5fd7782dee03dc08d3f3f491","1","31","1496","","","","","","","","","<img src= ""rock_img/I_Obsidian_04.jpg"" style=""width:8cm; height:6.930000000000001cm;""><p>What type of rock is this?</p>","4","class_response","1","train","48","Obsidian","Obsidian","04","true","5","5","",""
"","","","","","","","","","","","html-button-response","200","2.0.0","729488","5fd7782dee03dc08d3f3f491","1","31","1184","","","","","","","","","<img src= rock_img/I_Obsidian_04.jpg style=""width:8cm; height:6.930000000000001cm;""><p style='font-size: 30px; color: green;'><strong>Correct!</strong></p><p style='font-size: 30px;'><strong>This rock is obsidian</strong></p>","0","corr_feedback","1","train","48","","","","","","","",""
"","","","","","","","","","","","instructions","203","2.0.0","752927","5fd7782dee03dc08d3f3f491","1","31","23438","","","","","","","","[{""page_index"":0,""viewing_time"":9874},{""page_index"":1,""viewing_time"":13563}]","","","","","","","","","","","","","",""
"","","","","","","","","","","","html-button-response","204","2.0.0","754611","5fd7782dee03dc08d3f3f491","1","31","1683","","","","","","","","","","0","start_test","","","","","","","","","","",""
"","","","","","","","","","","","html-button-response","205","2.0.0","772426","5fd7782dee03dc08d3f3f491","1","31","17814","","","","","","","","","<img src= ""rock_img/I_Gabbro_11.jpg"" style=""width:8cm; height:6.2cm;""><p>What type of rock is this?</p>","1","class_response","1","test","1","Basalt","Gabbro","11","false","2","4","",""
"","","","","","","","","","","","html-keyboard-response","206","2.0.0","772930","5fd7782dee03dc08d3f3f491","1","31","null","","","","","","","","","<p style='font-size: 30px;'><strong>Okay</strong></p>","null","neutral_feedback","1","test","1","","","","","","","",""
"","","","","","","","","","","","html-button-response","207","2.0.0","782343","5fd7782dee03dc08d3f3f491","1","31","9412","","","","","","","","","<img src= ""rock_img/I_Peridotite_07.jpg"" style=""width:8cm; height:4.83cm;""><p>What type of rock is this?</p>","7","class_response","1","test","2","Pumice","Peridotite","07","false","8","7","",""
"","","","","","","","","","","","html-keyboard-response","208","2.0.0","782852","5fd7782dee03dc08d3f3f491","1","31","null","","","","","","","","","<p style='font-size: 30px;'><strong>Okay</strong></p>","null","neutral_feedback","1","test","2","","","","","","","",""
"","","","","","","","","","","","html-button-response","209","2.0.0","795086","5fd7782dee03dc08d3f3f491","1","31","12232","","","","","","","","","<img src= ""rock_img/I_Peridotite_13.jpg"" style=""width:8cm; height:7.58cm;""><p>What type of rock is this?</p>","6","class_response","1","test","3","Peridotite","Peridotite","13","true","7","7","",""
"","","","","","","","","","","","html-keyboard-response","210","2.0.0","795592","5fd7782dee03dc08d3f3f491","1","31","null","","","","","","","","","<p style='font-size: 30px;'><strong>Okay</strong></p>","null","neutral_feedback","1","test","3","","","","","","","",""
"","","","","","","","","","","","html-button-response","211","2.0.0","822121","5fd7782dee03dc08d3f3f491","1","31","26528","","","","","","","","","<img src= ""rock_img/I_Basalt_01.jpg"" style=""width:8cm; height:7.880000000000001cm;""><p>What type of rock is this?</p>","3","class_response","1","test","4","Gabbro","Basalt","01","false","4","2","",""
"","","","","","","","","","","","html-keyboard-response","212","2.0.0","822623","5fd7782dee03dc08d3f3f491","1","31","null","","","","","","","","","<p style='font-size: 30px;'><strong>Okay</strong></p>","null","neutral_feedback","1","test","4","","","","","","","",""
"","","","","","","","","","","","html-button-response","213","2.0.0","832753","5fd7782dee03dc08d3f3f491","1","31","10129","","","","","","","","","<img src= ""rock_img/I_Gabbro_01.jpg"" style=""width:8cm; height:5.21cm;""><p>What type of rock is this?</p>","0","class_response","1","test","5","Andesite","Gabbro","01","false","1","4","",""
"","","","","","","","","","","","html-keyboard-response","214","2.0.0","833260","5fd7782dee03dc08d3f3f491","1","31","null","","","","","","","","","<p style='font-size: 30px;'><strong>Okay</strong></p>","null","neutral_feedback","1","test","5","","","","","","","",""
"","","","","","","","","","","","html-button-response","215","2.0.0","839713","5fd7782dee03dc08d3f3f491","1","31","6451","","","","","","","","","<img src= ""rock_img/I_Gabbro_12.jpg"" style=""width:8cm; height:7.800000000000001cm;""><p>What type of rock is this?</p>","0","class_response","1","test","6","Andesite","Gabbro","12","false","1","4","",""
"","","","","","","","","","","","html-keyboard-response","216","2.0.0","840221","5fd7782dee03dc08d3f3f491","1","31","null","","","","","","","","","<p style='font-size: 30px;'><strong>Okay</strong></p>","null","neutral_feedback","1","test","6","","","","","","","",""
"","","","","","","","","","","","html-button-response","217","2.0.0","846318","5fd7782dee03dc08d3f3f491","1","31","6096","","","","","","","","","<img src= ""rock_img/I_Peridotite_15.jpg"" style=""width:8cm; height:6cm;""><p>What type of rock is this?</p>","6","class_response","1","test","7","Peridotite","Peridotite","15","true","7","7","",""
"","","","","","","","","","","","html-keyboard-response","218","2.0.0","846825","5fd7782dee03dc08d3f3f491","1","31","null","","","","","","","","","<p style='font-size: 30px;'><strong>Okay</strong></p>","null","neutral_feedback","1","test","7","","","","","","","",""
"","","","","","","","","","","","html-button-response","219","2.0.0","858052","5fd7782dee03dc08d3f3f491","1","31","11225","","","","","","","","","<img src= ""rock_img/I_Diorite_02.jpg"" style=""width:8cm; height:6.27cm;""><p>What type of rock is this?</p>","0","class_response","1","test","8","Andesite","Diorite","02","false","1","3","",""
"","","","","","","","","","","","html-keyboard-response","220","2.0.0","858554","5fd7782dee03dc08d3f3f491","1","31","null","","","","","","","","","<p style='font-size: 30px;'><strong>Okay</strong></p>","null","neutral_feedback","1","test","8","","","","","","","",""
"","","","","","","","","","","","html-button-response","221","2.0.0","865968","5fd7782dee03dc08d3f3f491","1","31","7412","","","","","","","","","<img src= ""rock_img/I_Diorite_11.jpg"" style=""width:8cm; height:7.11cm;""><p>What type of rock is this?</p>","2","class_response","1","test","9","Diorite","Diorite","11","true","3","3","",""
"","","","","","","","","","","","html-keyboard-response","222","2.0.0","866483","5fd7782dee03dc08d3f3f491","1","31","null","","","","","","","","","<p style='font-size: 30px;'><strong>Okay</strong></p>","null","neutral_feedback","1","test","9","","","","","","","",""
"","","","","","","","","","","","html-button-response","223","2.0.0","874800","5fd7782dee03dc08d3f3f491","1","31","8315","","","","","","","","","<img src= ""rock_img/I_Pegmatite_08.jpg"" style=""width:8cm; height:7.68cm;""><p>What type of rock is this?</p>","5","class_response","1","test","10","Pegmatite","Pegmatite","08","true","6","6","",""
"","","","","","","","","","","","html-keyboard-response","224","2.0.0","875309","5fd7782dee03dc08d3f3f491","1","31","null","","","","","","","","","<p style='font-size: 30px;'><strong>Okay</strong></p>","null","neutral_feedback","1","test","10","","","","","","","",""
"","","","","","","","","","","","html-button-response","225","2.0.0","889249","5fd7782dee03dc08d3f3f491","1","31","13939","","","","","","","","","<img src= ""rock_img/I_Peridotite_06.jpg"" style=""width:8cm; height:7.53cm;""><p>What type of rock is this?</p>","5","class_response","1","test","11","Pegmatite","Peridotite","06","false","6","7","",""
"","","","","","","","","","","","html-keyboard-response","226","2.0.0","889754","5fd7782dee03dc08d3f3f491","1","31","null","","","","","","","","","<p style='font-size: 30px;'><strong>Okay</strong></p>","null","neutral_feedback","1","test","11","","","","","","","",""
"","","","","","","","","","","","html-button-response","227","2.0.0","894464","5fd7782dee03dc08d3f3f491","1","31","4709","","","","","","","","","<img src= ""rock_img/I_Pumice_15.jpg"" style=""width:8cm; height:7.86cm;""><p>What type of rock is this?</p>","7","class_response","1","test","12","Pumice","Pumice","15","true","8","8","",""
"","","","","","","","","","","","html-keyboard-response","228","2.0.0","894973","5fd7782dee03dc08d3f3f491","1","31","null","","","","","","","","","<p style='font-size: 30px;'><strong>Okay</strong></p>","null","neutral_feedback","1","test","12","","","","","","","",""
"","","","","","","","","","","","html-button-response","229","2.0.0","911499","5fd7782dee03dc08d3f3f491","1","31","16525","","","","","","","","","<img src= ""rock_img/I_Peridotite_10.jpg"" style=""width:8cm; height:5.390000000000001cm;""><p>What type of rock is this?</p>","7","class_response","1","test","13","Pumice","Peridotite","10","false","8","7","",""
"","","","","","","","","","","","html-keyboard-response","230","2.0.0","912005","5fd7782dee03dc08d3f3f491","1","31","null","","","","","","","","","<p style='font-size: 30px;'><strong>Okay</strong></p>","null","neutral_feedback","1","test","13","","","","","","","",""
"","","","","","","","","","","","html-button-response","231","2.0.0","919624","5fd7782dee03dc08d3f3f491","1","31","7618","","","","","","","","","<img src= ""rock_img/I_Diorite_12.jpg"" style=""width:8cm; height:4.88cm;""><p>What type of rock is this?</p>","2","class_response","1","test","14","Diorite","Diorite","12","true","3","3","",""
"","","","","","","","","","","","html-keyboard-response","232","2.0.0","920127","5fd7782dee03dc08d3f3f491","1","31","null","","","","","","","","","<p style='font-size: 30px;'><strong>Okay</strong></p>","null","neutral_feedback","1","test","14","","","","","","","",""
"","","","","","","","","","","","html-button-response","233","2.0.0","947262","5fd7782dee03dc08d3f3f491","1","31","27133","","","","","","","","","<img src= ""rock_img/I_Pumice_09.jpg"" style=""width:8cm; height:6.44cm;""><p>What type of rock is this?</p>","7","class_response","1","test","15","Pumice","Pumice","09","true","8","8","",""
"","","","","","","","","","","","html-keyboard-response","234","2.0.0","947772","5fd7782dee03dc08d3f3f491","1","31","null","","","","","","","","","<p style='font-size: 30px;'><strong>Okay</strong></p>","null","neutral_feedback","1","test","15","","","","","","","",""
"","","","","","","","","","","","html-button-response","235","2.0.0","955000","5fd7782dee03dc08d3f3f491","1","31","7227","","","","","","","","","<img src= ""rock_img/I_Gabbro_10.jpg"" style=""width:8cm; height:5.680000000000001cm;""><p>What type of rock is this?</p>","3","class_response","1","test","16","Gabbro","Gabbro","10","true","4","4","",""
"","","","","","","","","","","","html-keyboard-response","236","2.0.0","955505","5fd7782dee03dc08d3f3f491","1","31","null","","","","","","","","","<p style='font-size: 30px;'><strong>Okay</strong></p>","null","neutral_feedback","1","test","16","","","","","","","",""
"","","","","","","","","","","","html-button-response","237","2.0.0","963361","5fd7782dee03dc08d3f3f491","1","31","7854","","","","","","","","","<img src= ""rock_img/I_Basalt_04.jpg"" style=""width:8cm; height:7.53cm;""><p>What type of rock is this?</p>","3","class_response","1","test","17","Gabbro","Basalt","04","false","4","2","",""
"","","","","","","","","","","","html-keyboard-response","238","2.0.0","963868","5fd7782dee03dc08d3f3f491","1","31","null","","","","","","","","","<p style='font-size: 30px;'><strong>Okay</strong></p>","null","neutral_feedback","1","test","17","","","","","","","",""
"","","","","","","","","","","","html-button-response","239","2.0.0","968090","5fd7782dee03dc08d3f3f491","1","31","4221","","","","","","","","","<img src= ""rock_img/I_Diorite_14.jpg"" style=""width:8cm; height:5.71cm;""><p>What type of rock is this?</p>","0","class_response","1","test","18","Andesite","Diorite","14","false","1","3","",""
"","","","","","","","","","","","html-keyboard-response","240","2.0.0","968597","5fd7782dee03dc08d3f3f491","1","31","null","","","","","","","","","<p style='font-size: 30px;'><strong>Okay</strong></p>","null","neutral_feedback","1","test","18","","","","","","","",""
"","","","","","","","","","","","html-button-response","241","2.0.0","976982","5fd7782dee03dc08d3f3f491","1","31","8383","","","","","","","","","<img src= ""rock_img/I_Gabbro_14.jpg"" style=""width:8cm; height:8.48cm;""><p>What type of rock is this?</p>","3","class_response","1","test","19","Gabbro","Gabbro","14","true","4","4","",""
"","","","","","","","","","","","html-keyboard-response","242","2.0.0","977487","5fd7782dee03dc08d3f3f491","1","31","null","","","","","","","","","<p style='font-size: 30px;'><strong>Okay</strong></p>","null","neutral_feedback","1","test","19","","","","","","","",""
"","","","","","","","","","","","html-button-response","243","2.0.0","994817","5fd7782dee03dc08d3f3f491","1","31","17328","","","","","","","","","<img src= ""rock_img/I_Peridotite_05.jpg"" style=""width:8cm; height:7.1499999999999995cm;""><p>What type of rock is this?</p>","6","class_response","1","test","20","Peridotite","Peridotite","05","true","7","7","",""
"","","","","","","","","","","","html-keyboard-response","244","2.0.0","995326","5fd7782dee03dc08d3f3f491","1","31","null","","","","","","","","","<p style='font-size: 30px;'><strong>Okay</strong></p>","null","neutral_feedback","1","test","20","","","","","","","",""
"","","","","","","","","","","","html-button-response","245","2.0.0","1005174","5fd7782dee03dc08d3f3f491","1","31","9847","","","","","","","","","<img src= ""rock_img/I_Pumice_16.jpg"" style=""width:8cm; height:6.79cm;""><p>What type of rock is this?</p>","7","class_response","1","test","21","Pumice","Pumice","16","true","8","8","",""
"","","","","","","","","","","","html-keyboard-response","246","2.0.0","1005684","5fd7782dee03dc08d3f3f491","1","31","null","","","","","","","","","<p style='font-size: 30px;'><strong>Okay</strong></p>","null","neutral_feedback","1","test","21","","","","","","","",""
"","","","","","","","","","","","html-button-response","247","2.0.0","1007875","5fd7782dee03dc08d3f3f491","1","31","2190","","","","","","","","","<img src= ""rock_img/I_Pegmatite_07.jpg"" style=""width:8cm; height:6.7cm;""><p>What type of rock is this?</p>","5","class_response","1","test","22","Pegmatite","Pegmatite","07","true","6","6","",""
"","","","","","","","","","","","html-keyboard-response","248","2.0.0","1008383","5fd7782dee03dc08d3f3f491","1","31","null","","","","","","","","","<p style='font-size: 30px;'><strong>Okay</strong></p>","null","neutral_feedback","1","test","22","","","","","","","",""
"","","","","","","","","","","","html-button-response","249","2.0.0","1012884","5fd7782dee03dc08d3f3f491","1","31","4500","","","","","","","","","<img src= ""rock_img/I_Andesite_09.jpg"" style=""width:8cm; height:6cm;""><p>What type of rock is this?</p>","1","class_response","1","test","23","Basalt","Andesite","09","false","2","1","",""
"","","","","","","","","","","","html-keyboard-response","250","2.0.0","1013401","5fd7782dee03dc08d3f3f491","1","31","null","","","","","","","","","<p style='font-size: 30px;'><strong>Okay</strong></p>","null","neutral_feedback","1","test","23","","","","","","","",""
"","","","","","","","","","","","html-button-response","251","2.0.0","1016580","5fd7782dee03dc08d3f3f491","1","31","3177","","","","","","","","","<img src= ""rock_img/I_Pumice_08.jpg"" style=""width:8cm; height:6.67cm;""><p>What type of rock is this?</p>","7","class_response","1","test","24","Pumice","Pumice","08","true","8","8","",""
"","","","","","","","","","","","html-keyboard-response","252","2.0.0","1017087","5fd7782dee03dc08d3f3f491","1","31","null","","","","","","","","","<p style='font-size: 30px;'><strong>Okay</strong></p>","null","neutral_feedback","1","test","24","","","","","","","",""
"","","","","","","","","","","","html-button-response","253","2.0.0","1020401","5fd7782dee03dc08d3f3f491","1","31","3313","","","","","","","","","<img src= ""rock_img/I_Andesite_02.jpg"" style=""width:8cm; height:8.5cm;""><p>What type of rock is this?</p>","7","class_response","1","test","25","Pumice","Andesite","02","false","8","1","",""
"","","","","","","","","","","","html-keyboard-response","254","2.0.0","1020903","5fd7782dee03dc08d3f3f491","1","31","null","","","","","","","","","<p style='font-size: 30px;'><strong>Okay</strong></p>","null","neutral_feedback","1","test","25","","","","","","","",""
"","","","","","","","","","","","html-button-response","255","2.0.0","1032101","5fd7782dee03dc08d3f3f491","1","31","11197","","","","","","","","","<img src= ""rock_img/I_Basalt_16.jpg"" style=""width:8cm; height:7.659999999999999cm;""><p>What type of rock is this?</p>","3","class_response","1","test","26","Gabbro","Basalt","16","false","4","2","",""
"","","","","","","","","","","","html-keyboard-response","256","2.0.0","1032603","5fd7782dee03dc08d3f3f491","1","31","null","","","","","","","","","<p style='font-size: 30px;'><strong>Okay</strong></p>","null","neutral_feedback","1","test","26","","","","","","","",""
"","","","","","","","","","","","html-button-response","257","2.0.0","1053778","5fd7782dee03dc08d3f3f491","1","31","21173","","","","","","","","","<img src= ""rock_img/I_Andesite_16.jpg"" style=""width:8cm; height:6.010000000000001cm;""><p>What type of rock is this?</p>","0","class_response","1","test","27","Andesite","Andesite","16","true","1","1","",""
"","","","","","","","","","","","html-keyboard-response","258","2.0.0","1054279","5fd7782dee03dc08d3f3f491","1","31","null","","","","","","","","","<p style='font-size: 30px;'><strong>Okay</strong></p>","null","neutral_feedback","1","test","27","","","","","","","",""
"","","","","","","","","","","","html-button-response","259","2.0.0","1067469","5fd7782dee03dc08d3f3f491","1","31","13188","","","","","","","","","<img src= ""rock_img/I_Pegmatite_03.jpg"" style=""width:8cm; height:5.239999999999999cm;""><p>What type of rock is this?</p>","5","class_response","1","test","28","Pegmatite","Pegmatite","03","true","6","6","",""
"","","","","","","","","","","","html-keyboard-response","260","2.0.0","1067978","5fd7782dee03dc08d3f3f491","1","31","null","","","","","","","","","<p style='font-size: 30px;'><strong>Okay</strong></p>","null","neutral_feedback","1","test","28","","","","","","","",""
"","","","","","","","","","","","html-button-response","261","2.0.0","1075338","5fd7782dee03dc08d3f3f491","1","31","7359","","","","","","","","","<img src= ""rock_img/I_Andesite_11.jpg"" style=""width:8cm; height:4.92cm;""><p>What type of rock is this?</p>","0","class_response","1","test","29","Andesite","Andesite","11","true","1","1","",""
"","","","","","","","","","","","html-keyboard-response","262","2.0.0","1075854","5fd7782dee03dc08d3f3f491","1","31","null","","","","","","","","","<p style='font-size: 30px;'><strong>Okay</strong></p>","null","neutral_feedback","1","test","29","","","","","","","",""
"","","","","","","","","","","","html-button-response","263","2.0.0","1077786","5fd7782dee03dc08d3f3f491","1","31","1931","","","","","","","","","<img src= ""rock_img/I_Pumice_05.jpg"" style=""width:8cm; height:7.25cm;""><p>What type of rock is this?</p>","7","class_response","1","test","30","Pumice","Pumice","05","true","8","8","",""
"","","","","","","","","","","","html-keyboard-response","264","2.0.0","1078290","5fd7782dee03dc08d3f3f491","1","31","null","","","","","","","","","<p style='font-size: 30px;'><strong>Okay</strong></p>","null","neutral_feedback","1","test","30","","","","","","","",""
"","","","","","","","","","","","html-button-response","265","2.0.0","1083225","5fd7782dee03dc08d3f3f491","1","31","4933","","","","","","","","","<img src= ""rock_img/I_Pegmatite_06.jpg"" style=""width:8cm; height:5.17cm;""><p>What type of rock is this?</p>","5","class_response","1","test","31","Pegmatite","Pegmatite","06","true","6","6","",""
"","","","","","","","","","","","html-keyboard-response","266","2.0.0","1083735","5fd7782dee03dc08d3f3f491","1","31","null","","","","","","","","","<p style='font-size: 30px;'><strong>Okay</strong></p>","null","neutral_feedback","1","test","31","","","","","","","",""
"","","","","","","","","","","","html-button-response","267","2.0.0","1085308","5fd7782dee03dc08d3f3f491","1","31","1572","","","","","","","","","<img src= ""rock_img/I_Obsidian_14.jpg"" style=""width:8cm; height:7.64cm;""><p>What type of rock is this?</p>","4","class_response","1","test","32","Obsidian","Obsidian","14","true","5","5","",""
"","","","","","","","","","","","html-keyboard-response","268","2.0.0","1085813","5fd7782dee03dc08d3f3f491","1","31","null","","","","","","","","","<p style='font-size: 30px;'><strong>Okay</strong></p>","null","neutral_feedback","1","test","32","","","","","","","",""
"","","","","","","","","","","","html-button-response","269","2.0.0","1092055","5fd7782dee03dc08d3f3f491","1","31","6240","","","","","","","","","<img src= ""rock_img/I_Gabbro_05.jpg"" style=""width:8cm; height:6cm;""><p>What type of rock is this?</p>","1","class_response","1","test","33","Basalt","Gabbro","05","false","2","4","",""
"","","","","","","","","","","","html-keyboard-response","270","2.0.0","1092563","5fd7782dee03dc08d3f3f491","1","31","null","","","","","","","","","<p style='font-size: 30px;'><strong>Okay</strong></p>","null","neutral_feedback","1","test","33","","","","","","","",""
"","","","","","","","","","","","html-button-response","271","2.0.0","1093917","5fd7782dee03dc08d3f3f491","1","31","1352","","","","","","","","","<img src= ""rock_img/I_Obsidian_06.jpg"" style=""width:8cm; height:6.8cm;""><p>What type of rock is this?</p>","4","class_response","1","test","34","Obsidian","Obsidian","06","true","5","5","",""
"","","","","","","","","","","","html-keyboard-response","272","2.0.0","1094426","5fd7782dee03dc08d3f3f491","1","31","null","","","","","","","","","<p style='font-size: 30px;'><strong>Okay</strong></p>","null","neutral_feedback","1","test","34","","","","","","","",""
"","","","","","","","","","","","html-button-response","273","2.0.0","1105080","5fd7782dee03dc08d3f3f491","1","31","10652","","","","","","","","","<img src= ""rock_img/I_Diorite_08.jpg"" style=""width:8cm; height:6.37cm;""><p>What type of rock is this?</p>","0","class_response","1","test","35","Andesite","Diorite","08","false","1","3","",""
"","","","","","","","","","","","html-keyboard-response","274","2.0.0","1105593","5fd7782dee03dc08d3f3f491","1","31","null","","","","","","","","","<p style='font-size: 30px;'><strong>Okay</strong></p>","null","neutral_feedback","1","test","35","","","","","","","",""
"","","","","","","","","","","","html-button-response","275","2.0.0","1115607","5fd7782dee03dc08d3f3f491","1","31","10012","","","","","","","","","<img src= ""rock_img/I_Basalt_02.jpg"" style=""width:8cm; height:6.45cm;""><p>What type of rock is this?</p>","3","class_response","1","test","36","Gabbro","Basalt","02","false","4","2","",""
"","","","","","","","","","","","html-keyboard-response","276","2.0.0","1116115","5fd7782dee03dc08d3f3f491","1","31","null","","","","","","","","","<p style='font-size: 30px;'><strong>Okay</strong></p>","null","neutral_feedback","1","test","36","","","","","","","",""
"","","","","","","","","","","","html-button-response","277","2.0.0","1121722","5fd7782dee03dc08d3f3f491","1","31","5605","","","","","","","","","<img src= ""rock_img/I_Diorite_16.jpg"" style=""width:8cm; height:6.74cm;""><p>What type of rock is this?</p>","1","class_response","1","test","37","Basalt","Diorite","16","false","2","3","",""
"","","","","","","","","","","","html-keyboard-response","278","2.0.0","1122226","5fd7782dee03dc08d3f3f491","1","31","null","","","","","","","","","<p style='font-size: 30px;'><strong>Okay</strong></p>","null","neutral_feedback","1","test","37","","","","","","","",""
"","","","","","","","","","","","html-button-response","279","2.0.0","1129799","5fd7782dee03dc08d3f3f491","1","31","7572","","","","","","","","","<img src= ""rock_img/I_Pegmatite_10.jpg"" style=""width:8cm; height:4.16cm;""><p>What type of rock is this?</p>","6","class_response","1","test","38","Peridotite","Pegmatite","10","false","7","6","",""
"","","","","","","","","","","","html-keyboard-response","280","2.0.0","1130307","5fd7782dee03dc08d3f3f491","1","31","null","","","","","","","","","<p style='font-size: 30px;'><strong>Okay</strong></p>","null","neutral_feedback","1","test","38","","","","","","","",""
"","","","","","","","","","","","html-button-response","281","2.0.0","1139656","5fd7782dee03dc08d3f3f491","1","31","9347","","","","","","","","","<img src= ""rock_img/I_Basalt_10.jpg"" style=""width:8cm; height:5.85cm;""><p>What type of rock is this?</p>","3","class_response","1","test","39","Gabbro","Basalt","10","false","4","2","",""
"","","","","","","","","","","","html-keyboard-response","282","2.0.0","1140161","5fd7782dee03dc08d3f3f491","1","31","null","","","","","","","","","<p style='font-size: 30px;'><strong>Okay</strong></p>","null","neutral_feedback","1","test","39","","","","","","","",""
"","","","","","","","","","","","html-button-response","283","2.0.0","1161094","5fd7782dee03dc08d3f3f491","1","31","20931","","","","","","","","","<img src= ""rock_img/I_Andesite_05.jpg"" style=""width:8cm; height:4.12cm;""><p>What type of rock is this?</p>","0","class_response","1","test","40","Andesite","Andesite","05","true","1","1","",""
"","","","","","","","","","","","html-keyboard-response","284","2.0.0","1161597","5fd7782dee03dc08d3f3f491","1","31","null","","","","","","","","","<p style='font-size: 30px;'><strong>Okay</strong></p>","null","neutral_feedback","1","test","40","","","","","","","",""
"","","","","","","","","","","","html-button-response","285","2.0.0","1175391","5fd7782dee03dc08d3f3f491","1","31","13793","","","","","","","","","<img src= ""rock_img/I_Andesite_01.jpg"" style=""width:8cm; height:5.87cm;""><p>What type of rock is this?</p>","2","class_response","1","test","41","Diorite","Andesite","01","false","3","1","",""
"","","","","","","","","","","","html-keyboard-response","286","2.0.0","1175893","5fd7782dee03dc08d3f3f491","1","31","null","","","","","","","","","<p style='font-size: 30px;'><strong>Okay</strong></p>","null","neutral_feedback","1","test","41","","","","","","","",""
"","","","","","","","","","","","html-button-response","287","2.0.0","1179817","5fd7782dee03dc08d3f3f491","1","31","3922","","","","","","","","","<img src= ""rock_img/I_Pegmatite_11.jpg"" style=""width:8cm; height:8.14cm;""><p>What type of rock is this?</p>","5","class_response","1","test","42","Pegmatite","Pegmatite","11","true","6","6","",""
"","","","","","","","","","","","html-keyboard-response","288","2.0.0","1180327","5fd7782dee03dc08d3f3f491","1","31","null","","","","","","","","","<p style='font-size: 30px;'><strong>Okay</strong></p>","null","neutral_feedback","1","test","42","","","","","","","",""
"","","","","","","","","","","","html-button-response","289","2.0.0","1181655","5fd7782dee03dc08d3f3f491","1","31","1327","","","","","","","","","<img src= ""rock_img/I_Obsidian_02.jpg"" style=""width:8cm; height:7.51cm;""><p>What type of rock is this?</p>","4","class_response","1","test","43","Obsidian","Obsidian","02","true","5","5","",""
"","","","","","","","","","","","html-keyboard-response","290","2.0.0","1182163","5fd7782dee03dc08d3f3f491","1","31","null","","","","","","","","","<p style='font-size: 30px;'><strong>Okay</strong></p>","null","neutral_feedback","1","test","43","","","","","","","",""
"","","","","","","","","","","","html-button-response","291","2.0.0","1189893","5fd7782dee03dc08d3f3f491","1","31","7729","","","","","","","","","<img src= ""rock_img/I_Pumice_10.jpg"" style=""width:8cm; height:7.609999999999999cm;""><p>What type of rock is this?</p>","2","class_response","1","test","44","Diorite","Pumice","10","false","3","8","",""
"","","","","","","","","","","","html-keyboard-response","292","2.0.0","1190401","5fd7782dee03dc08d3f3f491","1","31","null","","","","","","","","","<p style='font-size: 30px;'><strong>Okay</strong></p>","null","neutral_feedback","1","test","44","","","","","","","",""
"","","","","","","","","","","","html-button-response","293","2.0.0","1191931","5fd7782dee03dc08d3f3f491","1","31","1529","","","","","","","","","<img src= ""rock_img/I_Obsidian_09.jpg"" style=""width:8cm; height:5cm;""><p>What type of rock is this?</p>","4","class_response","1","test","45","Obsidian","Obsidian","09","true","5","5","",""
"","","","","","","","","","","","html-keyboard-response","294","2.0.0","1192433","5fd7782dee03dc08d3f3f491","1","31","null","","","","","","","","","<p style='font-size: 30px;'><strong>Okay</strong></p>","null","neutral_feedback","1","test","45","","","","","","","",""
"","","","","","","","","","","","html-button-response","295","2.0.0","1204181","5fd7782dee03dc08d3f3f491","1","31","11747","","","","","","","","","<img src= ""rock_img/I_Obsidian_05.jpg"" style=""width:8cm; height:6.33cm;""><p>What type of rock is this?</p>","3","class_response","1","test","46","Gabbro","Obsidian","05","false","4","5","",""
"","","","","","","","","","","","html-keyboard-response","296","2.0.0","1204684","5fd7782dee03dc08d3f3f491","1","31","null","","","","","","","","","<p style='font-size: 30px;'><strong>Okay</strong></p>","null","neutral_feedback","1","test","46","","","","","","","",""
"","","","","","","","","","","","html-button-response","297","2.0.0","1213648","5fd7782dee03dc08d3f3f491","1","31","8962","","","","","","","","","<img src= ""rock_img/I_Basalt_09.jpg"" style=""width:8cm; height:6.2cm;""><p>What type of rock is this?</p>","3","class_response","1","test","47","Gabbro","Basalt","09","false","4","2","",""
"","","","","","","","","","","","html-keyboard-response","298","2.0.0","1214152","5fd7782dee03dc08d3f3f491","1","31","null","","","","","","","","","<p style='font-size: 30px;'><strong>Okay</strong></p>","null","neutral_feedback","1","test","47","","","","","","","",""
"","","","","","","","","","","","html-button-response","299","2.0.0","1215842","5fd7782dee03dc08d3f3f491","1","31","1688","","","","","","","","","<img src= ""rock_img/I_Obsidian_12.jpg"" style=""width:8cm; height:6.53cm;""><p>What type of rock is this?</p>","4","class_response","1","test","48","Obsidian","Obsidian","12","true","5","5","",""
"","","","","","","","","","","","html-keyboard-response","300","2.0.0","1216352","5fd7782dee03dc08d3f3f491","1","31","null","","","","","","","","","<p style='font-size: 30px;'><strong>Okay</strong></p>","null","neutral_feedback","1","test","48","","","","","","","",""
"","","","","","","","","","","","html-button-response","301","2.0.0","1258013","5fd7782dee03dc08d3f3f491","1","31","","","","","","","","","","","","cycle_feedback","","","","","","","","","","12271.099999997765","29385.20000000298"
"","","","","","","","","","","","html-button-response","303","2.0.0","1259974","5fd7782dee03dc08d3f3f491","1","31","1959","","","","","","","","","","0","start_train","","","","","","","","","","",""
"","","","","","","","","","","","html-button-response","304","2.0.0","1270573","5fd7782dee03dc08d3f3f491","1","31","10598","","","","","","","","","<img src= ""rock_img/I_Peridotite_08.jpg"" style=""width:8cm; height:6.7cm;""><p>What type of rock is this?</p>","7","class_response","2","train","1","Pumice","Peridotite","08","false","8","7","",""
