"width","height","webaudio","browser","browser_version","mobile","os","fullscreen","vsync_rate","webcam","microphone","trial_type","trial_index","plugin_version","time_elapsed","subjID","condition","stimID","rt","url","success","value","timeout","failed_images","failed_audio","failed_video","view_history","stimulus","response","trialType","cycle","phase","trial","resp","cat","token","corr","resp_num","cat_num","time_fb1","time_fb2"
"1920","927","true","firefox","132.0.0","false","Windows 10","true","47.96","true","true","browser-check","0","2.0.0","1270","670feba2e636f738625aa72d","1","43","","","","","","","","","","","","","","","","","","","","","","",""
"","","","","","","","","","","","external-html","1","2.0.0","18665","670feba2e636f738625aa72d","1","43","17263","consent_form.html","","","","","","","","","","","","","","","","","","","","",""
"","","","","","","","","","","","fullscreen","2","2.0.0","22424","670feba2e636f738625aa72d","1","43","2752","","true","","","","","","","","","","","","","","","","","","","",""
"","","","","","","","","","","","call-function","3","2.0.0","22428","670feba2e636f738625aa72d","1","43","","","","{}","","","","","","","","","","","","","","","","","","",""
"","","","","","","","","","","","preload","4","2.0.0","32759","670feba2e636f738625aa72d","1","43","","","true","","false","[]","[]","[]","","","","","","","","","","","","","","",""
"","","","","","","","","","","","instructions","5","2.0.0","89470","670feba2e636f738625aa72d","1","43","56709","","","","","","","","[{""page_index"":0,""viewing_time"":10194},{""page_index"":1,""viewing_time"":28411},{""page_index"":2,""viewing_time"":18104}]","","","","","","","","","","","","","",""
"","","","","","","","","","","","html-button-response","6","2.0.0","92498","670feba2e636f738625aa72d","1","43","3025","","","","","","","","","","0","start_test","","","","","","","","","","",""
"","","","","","","","","","","","html-button-response","7","2.0.0","107959","670feba2e636f738625aa72d","1","43","15459","","","","","","","","","<img src= ""rock_img/I_Peridotite_10.jpg"" style=""width:8cm; height:5.390000000000001cm;""><p>What type of rock is this?</p>","7","class_response","0","test","1","Pumice","Peridotite","10","false","8","7","",""
"","","","","","","","","","","","html-keyboard-response","8","2.0.0","108466","670feba2e636f738625aa72d","1","43","null","","","","","","","","","<p style='font-size: 30px;'><strong>Okay</strong></p>","null","neutral_feedback","0","test","1","","","","","","","",""
"","","","","","","","","","","","html-button-response","9","2.0.0","126746","670feba2e636f738625aa72d","1","43","18278","","","","","","","","","<img src= ""rock_img/I_Peridotite_07.jpg"" style=""width:8cm; height:4.83cm;""><p>What type of rock is this?</p>","7","class_response","0","test","2","Pumice","Peridotite","07","false","8","7","",""
"","","","","","","","","","","","html-keyboard-response","10","2.0.0","127269","670feba2e636f738625aa72d","1","43","null","","","","","","","","","<p style='font-size: 30px;'><strong>Okay</strong></p>","null","neutral_feedback","0","test","2","","","","","","","",""
"","","","","","","","","","","","html-button-response","11","2.0.0","134306","670feba2e636f738625aa72d","1","43","7033","","","","","","","","","<img src= ""rock_img/I_Peridotite_16.jpg"" style=""width:8cm; height:6.989999999999999cm;""><p>What type of rock is this?</p>","4","class_response","0","test","3","Obsidian","Peridotite","16","false","5","7","",""
"","","","","","","","","","","","html-keyboard-response","12","2.0.0","134809","670feba2e636f738625aa72d","1","43","null","","","","","","","","","<p style='font-size: 30px;'><strong>Okay</strong></p>","null","neutral_feedback","0","test","3","","","","","","","",""
"","","","","","","","","","","","html-button-response","13","2.0.0","140488","670feba2e636f738625aa72d","1","43","5678","","","","","","","","","<img src= ""rock_img/I_Gabbro_05.jpg"" style=""width:8cm; height:6cm;""><p>What type of rock is this?</p>","5","class_response","0","test","4","Pegmatite","Gabbro","05","false","6","4","",""
"","","","","","","","","","","","html-keyboard-response","14","2.0.0","140997","670feba2e636f738625aa72d","1","43","null","","","","","","","","","<p style='font-size: 30px;'><strong>Okay</strong></p>","null","neutral_feedback","0","test","4","","","","","","","",""
"","","","","","","","","","","","html-button-response","15","2.0.0","148543","670feba2e636f738625aa72d","1","43","7544","","","","","","","","","<img src= ""rock_img/I_Basalt_06.jpg"" style=""width:8cm; height:7.06cm;""><p>What type of rock is this?</p>","2","class_response","0","test","5","Diorite","Basalt","06","false","3","2","",""
"","","","","","","","","","","","html-keyboard-response","16","2.0.0","149054","670feba2e636f738625aa72d","1","43","null","","","","","","","","","<p style='font-size: 30px;'><strong>Okay</strong></p>","null","neutral_feedback","0","test","5","","","","","","","",""
"","","","","","","","","","","","html-button-response","17","2.0.0","159909","670feba2e636f738625aa72d","1","43","10853","","","","","","","","","<img src= ""rock_img/I_Pumice_10.jpg"" style=""width:8cm; height:7.609999999999999cm;""><p>What type of rock is this?</p>","7","class_response","0","test","6","Pumice","Pumice","10","true","8","8","",""
"","","","","","","","","","","","html-keyboard-response","18","2.0.0","160418","670feba2e636f738625aa72d","1","43","null","","","","","","","","","<p style='font-size: 30px;'><strong>Okay</strong></p>","null","neutral_feedback","0","test","6","","","","","","","",""
"","","","","","","","","","","","html-button-response","19","2.0.0","165264","670feba2e636f738625aa72d","1","43","4844","","","","","","","","","<img src= ""rock_img/I_Basalt_16.jpg"" style=""width:8cm; height:7.659999999999999cm;""><p>What type of rock is this?</p>","0","class_response","0","test","7","Andesite","Basalt","16","false","1","2","",""
"","","","","","","","","","","","html-keyboard-response","20","2.0.0","165772","670feba2e636f738625aa72d","1","43","null","","","","","","","","","<p style='font-size: 30px;'><strong>Okay</strong></p>","null","neutral_feedback","0","test","7","","","","","","","",""
"","","","","","","","","","","","html-button-response","21","2.0.0","169849","670feba2e636f738625aa72d","1","43","4074","","","","","","","","","<img src= ""rock_img/I_Pumice_13.jpg"" style=""width:8cm; height:8.200000000000001cm;""><p>What type of rock is this?</p>","1","class_response","0","test","8","Basalt","Pumice","13","false","2","8","",""
"","","","","","","","","","","","html-keyboard-response","22","2.0.0","170354","670feba2e636f738625aa72d","1","43","null","","","","","","","","","<p style='font-size: 30px;'><strong>Okay</strong></p>","null","neutral_feedback","0","test","8","","","","","","","",""
"","","","","","","","","","","","html-button-response","23","2.0.0","176753","670feba2e636f738625aa72d","1","43","6397","","","","","","","","","<img src= ""rock_img/I_Obsidian_06.jpg"" style=""width:8cm; height:6.8cm;""><p>What type of rock is this?</p>","6","class_response","0","test","9","Peridotite","Obsidian","06","false","7","5","",""
"","","","","","","","","","","","html-keyboard-response","24","2.0.0","177267","670feba2e636f738625aa72d","1","43","null","","","","","","","","","<p style='font-size: 30px;'><strong>Okay</strong></p>","null","neutral_feedback","0","test","9","","","","","","","",""
"","","","","","","","","","","","html-button-response","25","2.0.0","192214","670feba2e636f738625aa72d","1","43","14944","","","","","","","","","<img src= ""rock_img/I_Basalt_04.jpg"" style=""width:8cm; height:7.53cm;""><p>What type of rock is this?</p>","2","class_response","0","test","10","Diorite","Basalt","04","false","3","2","",""
"","","","","","","","","","","","html-keyboard-response","26","2.0.0","192718","670feba2e636f738625aa72d","1","43","null","","","","","","","","","<p style='font-size: 30px;'><strong>Okay</strong></p>","null","neutral_feedback","0","test","10","","","","","","","",""
"","","","","","","","","","","","html-button-response","27","2.0.0","212384","670feba2e636f738625aa72d","1","43","19664","","","","","","","","","<img src= ""rock_img/I_Diorite_16.jpg"" style=""width:8cm; height:6.74cm;""><p>What type of rock is this?</p>","0","class_response","0","test","11","Andesite","Diorite","16","false","1","3","",""
"","","","","","","","","","","","html-keyboard-response","28","2.0.0","212887","670feba2e636f738625aa72d","1","43","null","","","","","","","","","<p style='font-size: 30px;'><strong>Okay</strong></p>","null","neutral_feedback","0","test","11","","","","","","","",""
"","","","","","","","","","","","html-button-response","29","2.0.0","225071","670feba2e636f738625aa72d","1","43","12180","","","","","","","","","<img src= ""rock_img/I_Pegmatite_06.jpg"" style=""width:8cm; height:5.17cm;""><p>What type of rock is this?</p>","1","class_response","0","test","12","Basalt","Pegmatite","06","false","2","6","",""
"","","","","","","","","","","","html-keyboard-response","30","2.0.0","225577","670feba2e636f738625aa72d","1","43","null","","","","","","","","","<p style='font-size: 30px;'><strong>Okay</strong></p>","null","neutral_feedback","0","test","12","","","","","","","",""
"","","","","","","","","","","","html-button-response","31","2.0.0","236218","670feba2e636f738625aa72d","1","43","10640","","","","","","","","","<img src= ""rock_img/I_Obsidian_08.jpg"" style=""width:8cm; height:7.39cm;""><p>What type of rock is this?</p>","6","class_response","0","test","13","Peridotite","Obsidian","08","false","7","5","",""
"","","","","","","","","","","","html-keyboard-response","32","2.0.0","236723","670feba2e636f738625aa72d","1","43","null","","","","","","","","","<p style='font-size: 30px;'><strong>Okay</strong></p>","null","neutral_feedback","0","test","13","","","","","","","",""
"","","","","","","","","","","","html-button-response","33","2.0.0","241486","670feba2e636f738625aa72d","1","43","4761","","","","","","","","","<img src= ""rock_img/I_Basalt_08.jpg"" style=""width:8cm; height:10.44cm;""><p>What type of rock is this?</p>","5","class_response","0","test","14","Pegmatite","Basalt","08","false","6","2","",""
"","","","","","","","","","","","html-keyboard-response","34","2.0.0","241994","670feba2e636f738625aa72d","1","43","null","","","","","","","","","<p style='font-size: 30px;'><strong>Okay</strong></p>","null","neutral_feedback","0","test","14","","","","","","","",""
"","","","","","","","","","","","html-button-response","35","2.0.0","259617","670feba2e636f738625aa72d","1","43","17619","","","","","","","","","<img src= ""rock_img/I_Gabbro_12.jpg"" style=""width:8cm; height:7.800000000000001cm;""><p>What type of rock is this?</p>","0","class_response","0","test","15","Andesite","Gabbro","12","false","1","4","",""
"","","","","","","","","","","","html-keyboard-response","36","2.0.0","260128","670feba2e636f738625aa72d","1","43","null","","","","","","","","","<p style='font-size: 30px;'><strong>Okay</strong></p>","null","neutral_feedback","0","test","15","","","","","","","",""
"","","","","","","","","","","","html-button-response","37","2.0.0","264009","670feba2e636f738625aa72d","1","43","3880","","","","","","","","","<img src= ""rock_img/I_Obsidian_09.jpg"" style=""width:8cm; height:5cm;""><p>What type of rock is this?</p>","5","class_response","0","test","16","Pegmatite","Obsidian","09","false","6","5","",""
"","","","","","","","","","","","html-keyboard-response","38","2.0.0","264522","670feba2e636f738625aa72d","1","43","null","","","","","","","","","<p style='font-size: 30px;'><strong>Okay</strong></p>","null","neutral_feedback","0","test","16","","","","","","","",""
"","","","","","","","","","","","html-button-response","39","2.0.0","268724","670feba2e636f738625aa72d","1","43","4199","","","","","","","","","<img src= ""rock_img/I_Gabbro_09.jpg"" style=""width:8cm; height:7.279999999999999cm;""><p>What type of rock is this?</p>","2","class_response","0","test","17","Diorite","Gabbro","09","false","3","4","",""
"","","","","","","","","","","","html-keyboard-response","40","2.0.0","269231","670feba2e636f738625aa72d","1","43","null","","","","","","","","","<p style='font-size: 30px;'><strong>Okay</strong></p>","null","neutral_feedback","0","test","17","","","","","","","",""
"","","","","","","","","","","","html-button-response","41","2.0.0","273284","670feba2e636f738625aa72d","1","43","4052","","","","","","","","","<img src= ""rock_img/I_Obsidian_05.jpg"" style=""width:8cm; height:6.33cm;""><p>What type of rock is this?</p>","5","class_response","0","test","18","Pegmatite","Obsidian","05","false","6","5","",""
"","","","","","","","","","","","html-keyboard-response","42","2.0.0","273786","670feba2e636f738625aa72d","1","43","null","","","","","","","","","<p style='font-size: 30px;'><strong>Okay</strong></p>","null","neutral_feedback","0","test","18","","","","","","","",""
"","","","","","","","","","","","html-button-response","43","2.0.0","294416","670feba2e636f738625aa72d","1","43","20628","","","","","","","","","<img src= ""rock_img/I_Andesite_11.jpg"" style=""width:8cm; height:4.92cm;""><p>What type of rock is this?</p>","0","class_response","0","test","19","Andesite","Andesite","11","true","1","1","",""
"","","","","","","","","","","","html-keyboard-response","44","2.0.0","294921","670feba2e636f738625aa72d","1","43","null","","","","","","","","","<p style='font-size: 30px;'><strong>Okay</strong></p>","null","neutral_feedback","0","test","19","","","","","","","",""
"","","","","","","","","","","","html-button-response","45","2.0.0","300566","670feba2e636f738625aa72d","1","43","5643","","","","","","","","","<img src= ""rock_img/I_Pegmatite_13.jpg"" style=""width:8cm; height:4.95cm;""><p>What type of rock is this?</p>","2","class_response","0","test","20","Diorite","Pegmatite","13","false","3","6","",""
"","","","","","","","","","","","html-keyboard-response","46","2.0.0","301075","670feba2e636f738625aa72d","1","43","null","","","","","","","","","<p style='font-size: 30px;'><strong>Okay</strong></p>","null","neutral_feedback","0","test","20","","","","","","","",""
"","","","","","","","","","","","html-button-response","47","2.0.0","306167","670feba2e636f738625aa72d","1","43","5090","","","","","","","","","<img src= ""rock_img/I_Basalt_11.jpg"" style=""width:8cm; height:5.359999999999999cm;""><p>What type of rock is this?</p>","3","class_response","0","test","21","Gabbro","Basalt","11","false","4","2","",""
"","","","","","","","","","","","html-keyboard-response","48","2.0.0","306672","670feba2e636f738625aa72d","1","43","null","","","","","","","","","<p style='font-size: 30px;'><strong>Okay</strong></p>","null","neutral_feedback","0","test","21","","","","","","","",""
"","","","","","","","","","","","html-button-response","49","2.0.0","310455","670feba2e636f738625aa72d","1","43","3782","","","","","","","","","<img src= ""rock_img/I_Peridotite_05.jpg"" style=""width:8cm; height:7.1499999999999995cm;""><p>What type of rock is this?</p>","3","class_response","0","test","22","Gabbro","Peridotite","05","false","4","7","",""
"","","","","","","","","","","","html-keyboard-response","50","2.0.0","310968","670feba2e636f738625aa72d","1","43","null","","","","","","","","","<p style='font-size: 30px;'><strong>Okay</strong></p>","null","neutral_feedback","0","test","22","","","","","","","",""
"","","","","","","","","","","","html-button-response","51","2.0.0","314575","670feba2e636f738625aa72d","1","43","3605","","","","","","","","","<img src= ""rock_img/I_Obsidian_12.jpg"" style=""width:8cm; height:6.53cm;""><p>What type of rock is this?</p>","5","class_response","0","test","23","Pegmatite","Obsidian","12","false","6","5","",""
"","","","","","","","","","","","html-keyboard-response","52","2.0.0","315078","670feba2e636f738625aa72d","1","43","null","","","","","","","","","<p style='font-size: 30px;'><strong>Okay</strong></p>","null","neutral_feedback","0","test","23","","","","","","","",""
"","","","","","","","","","","","html-button-response","53","2.0.0","317534","670feba2e636f738625aa72d","1","43","2453","","","","","","","","","<img src= ""rock_img/I_Pegmatite_08.jpg"" style=""width:8cm; height:7.68cm;""><p>What type of rock is this?</p>","5","class_response","0","test","24","Pegmatite","Pegmatite","08","true","6","6","",""
"","","","","","","","","","","","html-keyboard-response","54","2.0.0","318036","670feba2e636f738625aa72d","1","43","null","","","","","","","","","<p style='font-size: 30px;'><strong>Okay</strong></p>","null","neutral_feedback","0","test","24","","","","","","","",""
"","","","","","","","","","","","html-button-response","55","2.0.0","320334","670feba2e636f738625aa72d","1","43","2295","","","","","","","","","<img src= ""rock_img/I_Pegmatite_11.jpg"" style=""width:8cm; height:8.14cm;""><p>What type of rock is this?</p>","5","class_response","0","test","25","Pegmatite","Pegmatite","11","true","6","6","",""
"","","","","","","","","","","","html-keyboard-response","56","2.0.0","320846","670feba2e636f738625aa72d","1","43","null","","","","","","","","","<p style='font-size: 30px;'><strong>Okay</strong></p>","null","neutral_feedback","0","test","25","","","","","","","",""
"","","","","","","","","","","","html-button-response","57","2.0.0","338140","670feba2e636f738625aa72d","1","43","17293","","","","","","","","","<img src= ""rock_img/I_Diorite_11.jpg"" style=""width:8cm; height:7.11cm;""><p>What type of rock is this?</p>","0","class_response","0","test","26","Andesite","Diorite","11","false","1","3","",""
"","","","","","","","","","","","html-keyboard-response","58","2.0.0","338653","670feba2e636f738625aa72d","1","43","null","","","","","","","","","<p style='font-size: 30px;'><strong>Okay</strong></p>","null","neutral_feedback","0","test","26","","","","","","","",""
"","","","","","","","","","","","html-button-response","59","2.0.0","351284","670feba2e636f738625aa72d","1","43","12628","","","","","","","","","<img src= ""rock_img/I_Andesite_03.jpg"" style=""width:8cm; height:5.73cm;""><p>What type of rock is this?</p>","0","class_response","0","test","27","Andesite","Andesite","03","true","1","1","",""
"","","","","","","","","","","","html-keyboard-response","60","2.0.0","351790","670feba2e636f738625aa72d","1","43","null","","","","","","","","","<p style='font-size: 30px;'><strong>Okay</strong></p>","null","neutral_feedback","0","test","27","","","","","","","",""
"","","","","","","","","","","","html-button-response","61","2.0.0","361512","670feba2e636f738625aa72d","1","43","9720","","","","","","","","","<img src= ""rock_img/I_Pumice_05.jpg"" style=""width:8cm; height:7.25cm;""><p>What type of rock is this?</p>","1","class_response","0","test","28","Basalt","Pumice","05","false","2","8","",""
"","","","","","","","","","","","html-keyboard-response","62","2.0.0","362020","670feba2e636f738625aa72d","1","43","null","","","","","","","","","<p style='font-size: 30px;'><strong>Okay</strong></p>","null","neutral_feedback","0","test","28","","","","","","","",""
"","","","","","","","","","","","html-button-response","63","2.0.0","366700","670feba2e636f738625aa72d","1","43","4677","","","","","","","","","<img src= ""rock_img/I_Gabbro_14.jpg"" style=""width:8cm; height:8.48cm;""><p>What type of rock is this?</p>","6","class_response","0","test","29","Peridotite","Gabbro","14","false","7","4","",""
"","","","","","","","","","","","html-keyboard-response","64","2.0.0","367217","670feba2e636f738625aa72d","1","43","null","","","","","","","","","<p style='font-size: 30px;'><strong>Okay</strong></p>","null","neutral_feedback","0","test","29","","","","","","","",""
"","","","","","","","","","","","html-button-response","65","2.0.0","369238","670feba2e636f738625aa72d","1","43","2019","","","","","","","","","<img src= ""rock_img/I_Diorite_14.jpg"" style=""width:8cm; height:5.71cm;""><p>What type of rock is this?</p>","2","class_response","0","test","30","Diorite","Diorite","14","true","3","3","",""
"","","","","","","","","","","","html-keyboard-response","66","2.0.0","369753","670feba2e636f738625aa72d","1","43","null","","","","","","","","","<p style='font-size: 30px;'><strong>Okay</strong></p>","null","neutral_feedback","0","test","30","","","","","","","",""
"","","","","","","","","","","","html-button-response","67","2.0.0","375547","670feba2e636f738625aa72d","1","43","5792","","","","","","","","","<img src= ""rock_img/I_Pegmatite_09.jpg"" style=""width:8cm; height:4.03cm;""><p>What type of rock is this?</p>","5","class_response","0","test","31","Pegmatite","Pegmatite","09","true","6","6","",""
"","","","","","","","","","","","html-keyboard-response","68","2.0.0","376055","670feba2e636f738625aa72d","1","43","null","","","","","","","","","<p style='font-size: 30px;'><strong>Okay</strong></p>","null","neutral_feedback","0","test","31","","","","","","","",""
"","","","","","","","","","","","html-button-response","69","2.0.0","381016","670feba2e636f738625aa72d","1","43","4958","","","","","","","","","<img src= ""rock_img/I_Diorite_10.jpg"" style=""width:8cm; height:5.949999999999999cm;""><p>What type of rock is this?</p>","6","class_response","0","test","32","Peridotite","Diorite","10","false","7","3","",""
"","","","","","","","","","","","html-keyboard-response","70","2.0.0","381530","670feba2e636f738625aa72d","1","43","null","","","","","","","","","<p style='font-size: 30px;'><strong>Okay</strong></p>","null","neutral_feedback","0","test","32","","","","","","","",""
"","","","","","","","","","","","html-button-response","71","2.0.0","384587","670feba2e636f738625aa72d","1","43","3055","","","","","","","","","<img src= ""rock_img/I_Diorite_15.jpg"" style=""width:8cm; height:5.54cm;""><p>What type of rock is this?</p>","3","class_response","0","test","33","Gabbro","Diorite","15","false","4","3","",""
"","","","","","","","","","","","html-keyboard-response","72","2.0.0","385102","670feba2e636f738625aa72d","1","43","null","","","","","","","","","<p style='font-size: 30px;'><strong>Okay</strong></p>","null","neutral_feedback","0","test","33","","","","","","","",""
"","","","","","","","","","","","html-button-response","73","2.0.0","387062","670feba2e636f738625aa72d","1","43","1958","","","","","","","","","<img src= ""rock_img/I_Andesite_07.jpg"" style=""width:8cm; height:5.93cm;""><p>What type of rock is this?</p>","6","class_response","0","test","34","Peridotite","Andesite","07","false","7","1","",""
"","","","","","","","","","","","html-keyboard-response","74","2.0.0","387570","670feba2e636f738625aa72d","1","43","null","","","","","","","","","<p style='font-size: 30px;'><strong>Okay</strong></p>","null","neutral_feedback","0","test","34","","","","","","","",""
"","","","","","","","","","","","html-button-response","75","2.0.0","389469","670feba2e636f738625aa72d","1","43","1895","","","","","","","","","<img src= ""rock_img/I_Pumice_02.jpg"" style=""width:8cm; height:7.3999999999999995cm;""><p>What type of rock is this?</p>","7","class_response","0","test","35","Pumice","Pumice","02","true","8","8","",""
"","","","","","","","","","","","html-keyboard-response","76","2.0.0","389982","670feba2e636f738625aa72d","1","43","null","","","","","","","","","<p style='font-size: 30px;'><strong>Okay</strong></p>","null","neutral_feedback","0","test","35","","","","","","","",""
"","","","","","","","","","","","html-button-response","77","2.0.0","391604","670feba2e636f738625aa72d","1","43","1620","","","","","","","","","<img src= ""rock_img/I_Gabbro_08.jpg"" style=""width:8cm; height:5.15cm;""><p>What type of rock is this?</p>","3","class_response","0","test","36","Gabbro","Gabbro","08","true","4","4","",""
"","","","","","","","","","","","html-keyboard-response","78","2.0.0","392120","670feba2e636f738625aa72d","1","43","null","","","","","","","","","<p style='font-size: 30px;'><strong>Okay</strong></p>","null","neutral_feedback","0","test","36","","","","","","","",""
"","","","","","","","","","","","html-button-response","79","2.0.0","393660","670feba2e636f738625aa72d","1","43","1540","","","","","","","","","<img src= ""rock_img/I_Obsidian_14.jpg"" style=""width:8cm; height:7.64cm;""><p>What type of rock is this?</p>","5","class_response","0","test","37","Pegmatite","Obsidian","14","false","6","5","",""
"","","","","","","","","","","","html-keyboard-response","80","2.0.0","394165","670feba2e636f738625aa72d","1","43","null","","","","","","","","","<p style='font-size: 30px;'><strong>Okay</strong></p>","null","neutral_feedback","0","test","37","","","","","","","",""
"","","","","","","","","","","","html-button-response","81","2.0.0","396022","670feba2e636f738625aa72d","1","43","1855","","","","","","","","","<img src= ""rock_img/I_Basalt_12.jpg"" style=""width:8cm; height:6.010000000000001cm;""><p>What type of rock is this?</p>","2","class_response","0","test","38","Diorite","Basalt","12","false","3","2","",""
"","","","","","","","","","","","html-keyboard-response","82","2.0.0","396536","670feba2e636f738625aa72d","1","43","null","","","","","","","","","<p style='font-size: 30px;'><strong>Okay</strong></p>","null","neutral_feedback","0","test","38","","","","","","","",""
"","","","","","","","","","","","html-button-response","83","2.0.0","398350","670feba2e636f738625aa72d","1","43","1812","","","","","","","","","<img src= ""rock_img/I_Andesite_02.jpg"" style=""width:8cm; height:8.5cm;""><p>What type of rock is this?</p>","0","class_response","0","test","39","Andesite","Andesite","02","true","1","1","",""
"","","","","","","","","","","","html-keyboard-response","84","2.0.0","398863","670feba2e636f738625aa72d","1","43","null","","","","","","","","","<p style='font-size: 30px;'><strong>Okay</strong></p>","null","neutral_feedback","0","test","39","","","","","","","",""
"","","","","","","","","","","","html-button-response","85","2.0.0","401106","670feba2e636f738625aa72d","1","43","2240","","","","","","","","","<img src= ""rock_img/I_Pumice_15.jpg"" style=""width:8cm; height:7.86cm;""><p>What type of rock is this?</p>","6","class_response","0","test","40","Peridotite","Pumice","15","false","7","8","",""
"","","","","","","","","","","","html-keyboard-response","86","2.0.0","401630","670feba2e636f738625aa72d","1","43","null","","","","","","","","","<p style='font-size: 30px;'><strong>Okay</strong></p>","null","neutral_feedback","0","test","40","","","","","","","",""
"","","","","","","","","","","","html-button-response","87","2.0.0","403110","670feba2e636f738625aa72d","1","43","1478","","","","","","","","","<img src= ""rock_img/I_Gabbro_10.jpg"" style=""width:8cm; height:5.680000000000001cm;""><p>What type of rock is this?</p>","3","class_response","0","test","41","Gabbro","Gabbro","10","true","4","4","",""
"","","","","","","","","","","","html-keyboard-response","88","2.0.0","403613","670feba2e636f738625aa72d","1","43","null","","","","","","","","","<p style='font-size: 30px;'><strong>Okay</strong></p>","null","neutral_feedback","0","test","41","","","","","","","",""
"","","","","","","","","","","","html-button-response","89","2.0.0","405236","670feba2e636f738625aa72d","1","43","1620","","","","","","","","","<img src= ""rock_img/I_Andesite_01.jpg"" style=""width:8cm; height:5.87cm;""><p>What type of rock is this?</p>","5","class_response","0","test","42","Pegmatite","Andesite","01","false","6","1","",""
"","","","","","","","","","","","html-keyboard-response","90","2.0.0","405750","670feba2e636f738625aa72d","1","43","null","","","","","","","","","<p style='font-size: 30px;'><strong>Okay</strong></p>","null","neutral_feedback","0","test","42","","","","","","","",""
"","","","","","","","","","","","html-button-response","91","2.0.0","407100","670feba2e636f738625aa72d","1","43","1349","","","","","","","","","<img src= ""rock_img/I_Andesite_09.jpg"" style=""width:8cm; height:6cm;""><p>What type of rock is this?</p>","0","class_response","0","test","43","Andesite","Andesite","09","true","1","1","",""
"","","","","","","","","","","","html-keyboard-response","92","2.0.0","407611","670feba2e636f738625aa72d","1","43","null","","","","","","","","","<p style='font-size: 30px;'><strong>Okay</strong></p>","null","neutral_feedback","0","test","43","","","","","","","",""
"","","","","","","","","","","","html-button-response","93","2.0.0","409418","670feba2e636f738625aa72d","1","43","1805","","","","","","","","","<img src= ""rock_img/I_Pumice_04.jpg"" style=""width:8cm; height:6.819999999999999cm;""><p>What type of rock is this?</p>","1","class_response","0","test","44","Basalt","Pumice","04","false","2","8","",""
"","","","","","","","","","","","html-keyboard-response","94","2.0.0","409924","670feba2e636f738625aa72d","1","43","null","","","","","","","","","<p style='font-size: 30px;'><strong>Okay</strong></p>","null","neutral_feedback","0","test","44","","","","","","","",""
"","","","","","","","","","","","html-button-response","95","2.0.0","412692","670feba2e636f738625aa72d","1","43","2765","","","","","","","","","<img src= ""rock_img/I_Peridotite_13.jpg"" style=""width:8cm; height:7.58cm;""><p>What type of rock is this?</p>","2","class_response","0","test","45","Diorite","Peridotite","13","false","3","7","",""
"","","","","","","","","","","","html-keyboard-response","96","2.0.0","413208","670feba2e636f738625aa72d","1","43","null","","","","","","","","","<p style='font-size: 30px;'><strong>Okay</strong></p>","null","neutral_feedback","0","test","45","","","","","","","",""
"","","","","","","","","","","","html-button-response","97","2.0.0","414906","670feba2e636f738625aa72d","1","43","1696","","","","","","","","","<img src= ""rock_img/I_Peridotite_14.jpg"" style=""width:8cm; height:5.3cm;""><p>What type of rock is this?</p>","6","class_response","0","test","46","Peridotite","Peridotite","14","true","7","7","",""
"","","","","","","","","","","","html-keyboard-response","98","2.0.0","415410","670feba2e636f738625aa72d","1","43","null","","","","","","","","","<p style='font-size: 30px;'><strong>Okay</strong></p>","null","neutral_feedback","0","test","46","","","","","","","",""
"","","","","","","","","","","","html-button-response","99","2.0.0","417075","670feba2e636f738625aa72d","1","43","1663","","","","","","","","","<img src= ""rock_img/I_Diorite_13.jpg"" style=""width:8cm; height:6.29cm;""><p>What type of rock is this?</p>","3","class_response","0","test","47","Gabbro","Diorite","13","false","4","3","",""
"","","","","","","","","","","","html-keyboard-response","100","2.0.0","417588","670feba2e636f738625aa72d","1","43","null","","","","","","","","","<p style='font-size: 30px;'><strong>Okay</strong></p>","null","neutral_feedback","0","test","47","","","","","","","",""
"","","","","","","","","","","","html-button-response","101","2.0.0","419202","670feba2e636f738625aa72d","1","43","1611","","","","","","","","","<img src= ""rock_img/I_Pegmatite_07.jpg"" style=""width:8cm; height:6.7cm;""><p>What type of rock is this?</p>","5","class_response","0","test","48","Pegmatite","Pegmatite","07","true","6","6","",""
"","","","","","","","","","","","html-keyboard-response","102","2.0.0","419703","670feba2e636f738625aa72d","1","43","null","","","","","","","","","<p style='font-size: 30px;'><strong>Okay</strong></p>","null","neutral_feedback","0","test","48","","","","","","","",""
"","","","","","","","","","","","instructions","103","2.0.0","458629","670feba2e636f738625aa72d","1","43","38863","","","","","","","","[{""page_index"":0,""viewing_time"":21083},{""page_index"":1,""viewing_time"":7307},{""page_index"":2,""viewing_time"":10473}]","","","","","","","","","","","","","",""
"","","","","","","","","","","","html-button-response","104","2.0.0","463766","670feba2e636f738625aa72d","1","43","5136","","","","","","","","","","0","start_train","","","","","","","","","","",""
"","","","","","","","","","","","html-button-response","105","2.0.0","472762","670feba2e636f738625aa72d","1","43","8994","","","","","","","","","<img src= ""rock_img/I_Obsidian_11.jpg"" style=""width:8cm; height:6.05cm;""><p>What type of rock is this?</p>","5","class_response","1","train","1","Pegmatite","Obsidian","11","false","6","5","",""
"","","","","","","","","","","","html-button-response","106","2.0.0","480330","670feba2e636f738625aa72d","1","43","7568","","","","","","","","","<img src= rock_img/I_Obsidian_11.jpg style=""width:8cm; height:6.05cm;""><p style='font-size: 30px; color: red;'><strong>Incorrect!</strong></p><p style='font-size: 30px;'><strong>This rock is obsidian</strong></p>","0","corr_feedback","1","train","1","","","","","","","",""
"","","","","","","","","","","","html-button-response","107","2.0.0","483401","670feba2e636f738625aa72d","1","43","3070","","","","","","","","","<img src= ""rock_img/I_Gabbro_13.jpg"" style=""width:8cm; height:5.08cm;""><p>What type of rock is this?</p>","3","class_response","1","train","2","Gabbro","Gabbro","13","true","4","4","",""
"","","","","","","","","","","","html-button-response","108","2.0.0","492799","670feba2e636f738625aa72d","1","43","9396","","","","","","","","","<img src= rock_img/I_Gabbro_13.jpg style=""width:8cm; height:5.08cm;""><p style='font-size: 30px; color: green;'><strong>Correct!</strong></p><p style='font-size: 30px;'><strong>This rock is gabbro</strong></p>","0","corr_feedback","1","train","2","","","","","","","",""
"","","","","","","","","","","","html-button-response","109","2.0.0","494716","670feba2e636f738625aa72d","1","43","1914","","","","","","","","","<img src= ""rock_img/I_Pegmatite_12.jpg"" style=""width:8cm; height:5.7cm;""><p>What type of rock is this?</p>","6","class_response","1","train","3","Peridotite","Pegmatite","12","false","7","6","",""
"","","","","","","","","","","","html-button-response","110","2.0.0","510211","670feba2e636f738625aa72d","1","43","15495","","","","","","","","","<img src= rock_img/I_Pegmatite_12.jpg style=""width:8cm; height:5.7cm;""><p style='font-size: 30px; color: red;'><strong>Incorrect!</strong></p><p style='font-size: 30px;'><strong>This rock is pegmatite</strong></p>","0","corr_feedback","1","train","3","","","","","","","",""
"","","","","","","","","","","","html-button-response","111","2.0.0","513299","670feba2e636f738625aa72d","1","43","3087","","","","","","","","","<img src= ""rock_img/I_Peridotite_12.jpg"" style=""width:8cm; height:4.54cm;""><p>What type of rock is this?</p>","0","class_response","1","train","4","Andesite","Peridotite","12","false","1","7","",""
"","","","","","","","","","","","html-button-response","112","2.0.0","517702","670feba2e636f738625aa72d","1","43","4401","","","","","","","","","<img src= rock_img/I_Peridotite_12.jpg style=""width:8cm; height:4.54cm;""><p style='font-size: 30px; color: red;'><strong>Incorrect!</strong></p><p style='font-size: 30px;'><strong>This rock is peridotite</strong></p>","0","corr_feedback","1","train","4","","","","","","","",""
"","","","","","","","","","","","html-button-response","113","2.0.0","522497","670feba2e636f738625aa72d","1","43","4793","","","","","","","","","<img src= ""rock_img/I_Diorite_02.jpg"" style=""width:8cm; height:6.27cm;""><p>What type of rock is this?</p>","4","class_response","1","train","5","Obsidian","Diorite","02","false","5","3","",""
"","","","","","","","","","","","html-button-response","114","2.0.0","526426","670feba2e636f738625aa72d","1","43","3928","","","","","","","","","<img src= rock_img/I_Diorite_02.jpg style=""width:8cm; height:6.27cm;""><p style='font-size: 30px; color: red;'><strong>Incorrect!</strong></p><p style='font-size: 30px;'><strong>This rock is diorite</strong></p>","0","corr_feedback","1","train","5","","","","","","","",""
"","","","","","","","","","","","html-button-response","115","2.0.0","530363","670feba2e636f738625aa72d","1","43","3937","","","","","","","","","<img src= ""rock_img/I_Andesite_14.jpg"" style=""width:8cm; height:5.449999999999999cm;""><p>What type of rock is this?</p>","1","class_response","1","train","6","Basalt","Andesite","14","false","2","1","",""
"","","","","","","","","","","","html-button-response","116","2.0.0","534108","670feba2e636f738625aa72d","1","43","3744","","","","","","","","","<img src= rock_img/I_Andesite_14.jpg style=""width:8cm; height:5.449999999999999cm;""><p style='font-size: 30px; color: red;'><strong>Incorrect!</strong></p><p style='font-size: 30px;'><strong>This rock is andesite</strong></p>","0","corr_feedback","1","train","6","","","","","","","",""
"","","","","","","","","","","","html-button-response","117","2.0.0","548284","670feba2e636f738625aa72d","1","43","14175","","","","","","","","","<img src= ""rock_img/I_Obsidian_02.jpg"" style=""width:8cm; height:7.51cm;""><p>What type of rock is this?</p>","4","class_response","1","train","7","Obsidian","Obsidian","02","true","5","5","",""
"","","","","","","","","","","","html-button-response","118","2.0.0","549500","670feba2e636f738625aa72d","1","43","1214","","","","","","","","","<img src= rock_img/I_Obsidian_02.jpg style=""width:8cm; height:7.51cm;""><p style='font-size: 30px; color: green;'><strong>Correct!</strong></p><p style='font-size: 30px;'><strong>This rock is obsidian</strong></p>","0","corr_feedback","1","train","7","","","","","","","",""
"","","","","","","","","","","","html-button-response","119","2.0.0","551697","670feba2e636f738625aa72d","1","43","2195","","","","","","","","","<img src= ""rock_img/I_Obsidian_16.jpg"" style=""width:8cm; height:9.3cm;""><p>What type of rock is this?</p>","4","class_response","1","train","8","Obsidian","Obsidian","16","true","5","5","",""
"","","","","","","","","","","","html-button-response","120","2.0.0","552720","670feba2e636f738625aa72d","1","43","1022","","","","","","","","","<img src= rock_img/I_Obsidian_16.jpg style=""width:8cm; height:9.3cm;""><p style='font-size: 30px; color: green;'><strong>Correct!</strong></p><p style='font-size: 30px;'><strong>This rock is obsidian</strong></p>","0","corr_feedback","1","train","8","","","","","","","",""
"","","","","","","","","","","","html-button-response","121","2.0.0","564462","670feba2e636f738625aa72d","1","43","11740","","","","","","","","","<img src= ""rock_img/I_Peridotite_06.jpg"" style=""width:8cm; height:7.53cm;""><p>What type of rock is this?</p>","3","class_response","1","train","9","Gabbro","Peridotite","06","false","4","7","",""
"","","","","","","","","","","","html-button-response","122","2.0.0","571560","670feba2e636f738625aa72d","1","43","7096","","","","","","","","","<img src= rock_img/I_Peridotite_06.jpg style=""width:8cm; height:7.53cm;""><p style='font-size: 30px; color: red;'><strong>Incorrect!</strong></p><p style='font-size: 30px;'><strong>This rock is peridotite</strong></p>","0","corr_feedback","1","train","9","","","","","","","",""
"","","","","","","","","","","","html-button-response","123","2.0.0","594239","670feba2e636f738625aa72d","1","43","22679","","","","","","","","","<img src= ""rock_img/I_Basalt_01.jpg"" style=""width:8cm; height:7.880000000000001cm;""><p>What type of rock is this?</p>","1","class_response","1","train","10","Basalt","Basalt","01","true","2","2","",""
"","","","","","","","","","","","html-button-response","124","2.0.0","600837","670feba2e636f738625aa72d","1","43","6597","","","","","","","","","<img src= rock_img/I_Basalt_01.jpg style=""width:8cm; height:7.880000000000001cm;""><p style='font-size: 30px; color: green;'><strong>Correct!</strong></p><p style='font-size: 30px;'><strong>This rock is basalt</strong></p>","0","corr_feedback","1","train","10","","","","","","","",""
"","","","","","","","","","","","html-button-response","125","2.0.0","609754","670feba2e636f738625aa72d","1","43","8915","","","","","","","","","<img src= ""rock_img/I_Diorite_08.jpg"" style=""width:8cm; height:6.37cm;""><p>What type of rock is this?</p>","2","class_response","1","train","11","Diorite","Diorite","08","true","3","3","",""
"","","","","","","","","","","","html-button-response","126","2.0.0","612571","670feba2e636f738625aa72d","1","43","2816","","","","","","","","","<img src= rock_img/I_Diorite_08.jpg style=""width:8cm; height:6.37cm;""><p style='font-size: 30px; color: green;'><strong>Correct!</strong></p><p style='font-size: 30px;'><strong>This rock is diorite</strong></p>","0","corr_feedback","1","train","11","","","","","","","",""
"","","","","","","","","","","","html-button-response","127","2.0.0","618267","670feba2e636f738625aa72d","1","43","5694","","","","","","","","","<img src= ""rock_img/I_Diorite_12.jpg"" style=""width:8cm; height:4.88cm;""><p>What type of rock is this?</p>","6","class_response","1","train","12","Peridotite","Diorite","12","false","7","3","",""
"","","","","","","","","","","","html-button-response","128","2.0.0","632285","670feba2e636f738625aa72d","1","43","14018","","","","","","","","","<img src= rock_img/I_Diorite_12.jpg style=""width:8cm; height:4.88cm;""><p style='font-size: 30px; color: red;'><strong>Incorrect!</strong></p><p style='font-size: 30px;'><strong>This rock is diorite</strong></p>","0","corr_feedback","1","train","12","","","","","","","",""
"","","","","","","","","","","","html-button-response","129","2.0.0","643904","670feba2e636f738625aa72d","1","43","11617","","","","","","","","","<img src= ""rock_img/I_Basalt_14.jpg"" style=""width:8cm; height:5.82cm;""><p>What type of rock is this?</p>","3","class_response","1","train","13","Gabbro","Basalt","14","false","4","2","",""
"","","","","","","","","","","","html-button-response","130","2.0.0","658632","670feba2e636f738625aa72d","1","43","14726","","","","","","","","","<img src= rock_img/I_Basalt_14.jpg style=""width:8cm; height:5.82cm;""><p style='font-size: 30px; color: red;'><strong>Incorrect!</strong></p><p style='font-size: 30px;'><strong>This rock is basalt</strong></p>","0","corr_feedback","1","train","13","","","","","","","",""
"","","","","","","","","","","","html-button-response","131","2.0.0","670864","670feba2e636f738625aa72d","1","43","12231","","","","","","","","","<img src= ""rock_img/I_Andesite_16.jpg"" style=""width:8cm; height:6.010000000000001cm;""><p>What type of rock is this?</p>","0","class_response","1","train","14","Andesite","Andesite","16","true","1","1","",""
"","","","","","","","","","","","html-button-response","132","2.0.0","676439","670feba2e636f738625aa72d","1","43","5574","","","","","","","","","<img src= rock_img/I_Andesite_16.jpg style=""width:8cm; height:6.010000000000001cm;""><p style='font-size: 30px; color: green;'><strong>Correct!</strong></p><p style='font-size: 30px;'><strong>This rock is andesite</strong></p>","0","corr_feedback","1","train","14","","","","","","","",""
"","","","","","","","","","","","html-button-response","133","2.0.0","680796","670feba2e636f738625aa72d","1","43","4356","","","","","","","","","<img src= ""rock_img/I_Pegmatite_05.jpg"" style=""width:8cm; height:7.300000000000001cm;""><p>What type of rock is this?</p>","4","class_response","1","train","15","Obsidian","Pegmatite","05","false","5","6","",""
"","","","","","","","","","","","html-button-response","134","2.0.0","686038","670feba2e636f738625aa72d","1","43","5241","","","","","","","","","<img src= rock_img/I_Pegmatite_05.jpg style=""width:8cm; height:7.300000000000001cm;""><p style='font-size: 30px; color: red;'><strong>Incorrect!</strong></p><p style='font-size: 30px;'><strong>This rock is pegmatite</strong></p>","0","corr_feedback","1","train","15","","","","","","","",""
"","","","","","","","","","","","html-button-response","135","2.0.0","694464","670feba2e636f738625aa72d","1","43","8425","","","","","","","","","<img src= ""rock_img/I_Pumice_14.jpg"" style=""width:8cm; height:6.39cm;""><p>What type of rock is this?</p>","7","class_response","1","train","16","Pumice","Pumice","14","true","8","8","",""
"","","","","","","","","","","","html-button-response","136","2.0.0","699539","670feba2e636f738625aa72d","1","43","5074","","","","","","","","","<img src= rock_img/I_Pumice_14.jpg style=""width:8cm; height:6.39cm;""><p style='font-size: 30px; color: green;'><strong>Correct!</strong></p><p style='font-size: 30px;'><strong>This rock is pumice</strong></p>","0","corr_feedback","1","train","16","","","","","","","",""
"","","","","","","","","","","","html-button-response","137","2.0.0","714414","670feba2e636f738625aa72d","1","43","14875","","","","","","","","","<img src= ""rock_img/I_Basalt_10.jpg"" style=""width:8cm; height:5.85cm;""><p>What type of rock is this?</p>","1","class_response","1","train","17","Basalt","Basalt","10","true","2","2","",""
"","","","","","","","","","","","html-button-response","138","2.0.0","719454","670feba2e636f738625aa72d","1","43","5039","","","","","","","","","<img src= rock_img/I_Basalt_10.jpg style=""width:8cm; height:5.85cm;""><p style='font-size: 30px; color: green;'><strong>Correct!</strong></p><p style='font-size: 30px;'><strong>This rock is basalt</strong></p>","0","corr_feedback","1","train","17","","","","","","","",""
"","","","","","","","","","","","html-button-response","139","2.0.0","733252","670feba2e636f738625aa72d","1","43","13796","","","","","","","","","<img src= ""rock_img/I_Diorite_07.jpg"" style=""width:8cm; height:5.239999999999999cm;""><p>What type of rock is this?</p>","2","class_response","1","train","18","Diorite","Diorite","07","true","3","3","",""
"","","","","","","","","","","","html-button-response","140","2.0.0","734758","670feba2e636f738625aa72d","1","43","1505","","","","","","","","","<img src= rock_img/I_Diorite_07.jpg style=""width:8cm; height:5.239999999999999cm;""><p style='font-size: 30px; color: green;'><strong>Correct!</strong></p><p style='font-size: 30px;'><strong>This rock is diorite</strong></p>","0","corr_feedback","1","train","18","","","","","","","",""
"","","","","","","","","","","","html-button-response","141","2.0.0","741766","670feba2e636f738625aa72d","1","43","7008","","","","","","","","","<img src= ""rock_img/I_Diorite_06.jpg"" style=""width:8cm; height:6.03cm;""><p>What type of rock is this?</p>","6","class_response","1","train","19","Peridotite","Diorite","06","false","7","3","",""
"","","","","","","","","","","","html-button-response","142","2.0.0","747149","670feba2e636f738625aa72d","1","43","5380","","","","","","","","","<img src= rock_img/I_Diorite_06.jpg style=""width:8cm; height:6.03cm;""><p style='font-size: 30px; color: red;'><strong>Incorrect!</strong></p><p style='font-size: 30px;'><strong>This rock is diorite</strong></p>","0","corr_feedback","1","train","19","","","","","","","",""
"","","","","","","","","","","","html-button-response","143","2.0.0","748495","670feba2e636f738625aa72d","1","43","1346","","","","","","","","","<img src= ""rock_img/I_Diorite_09.jpg"" style=""width:8cm; height:5.27cm;""><p>What type of rock is this?</p>","2","class_response","1","train","20","Diorite","Diorite","09","true","3","3","",""
"","","","","","","","","","","","html-button-response","144","2.0.0","749335","670feba2e636f738625aa72d","1","43","839","","","","","","","","","<img src= rock_img/I_Diorite_09.jpg style=""width:8cm; height:5.27cm;""><p style='font-size: 30px; color: green;'><strong>Correct!</strong></p><p style='font-size: 30px;'><strong>This rock is diorite</strong></p>","0","corr_feedback","1","train","20","","","","","","","",""
"","","","","","","","","","","","html-button-response","145","2.0.0","769846","670feba2e636f738625aa72d","1","43","20509","","","","","","","","","<img src= ""rock_img/I_Peridotite_15.jpg"" style=""width:8cm; height:6cm;""><p>What type of rock is this?</p>","2","class_response","1","train","21","Diorite","Peridotite","15","false","3","7","",""
"","","","","","","","","","","","html-button-response","146","2.0.0","775691","670feba2e636f738625aa72d","1","43","5844","","","","","","","","","<img src= rock_img/I_Peridotite_15.jpg style=""width:8cm; height:6cm;""><p style='font-size: 30px; color: red;'><strong>Incorrect!</strong></p><p style='font-size: 30px;'><strong>This rock is peridotite</strong></p>","0","corr_feedback","1","train","21","","","","","","","",""
"","","","","","","","","","","","html-button-response","147","2.0.0","782044","670feba2e636f738625aa72d","1","43","6351","","","","","","","","","<img src= ""rock_img/I_Peridotite_04.jpg"" style=""width:8cm; height:6.680000000000001cm;""><p>What type of rock is this?</p>","6","class_response","1","train","22","Peridotite","Peridotite","04","true","7","7","",""
"","","","","","","","","","","","html-button-response","148","2.0.0","787214","670feba2e636f738625aa72d","1","43","5169","","","","","","","","","<img src= rock_img/I_Peridotite_04.jpg style=""width:8cm; height:6.680000000000001cm;""><p style='font-size: 30px; color: green;'><strong>Correct!</strong></p><p style='font-size: 30px;'><strong>This rock is peridotite</strong></p>","0","corr_feedback","1","train","22","","","","","","","",""
"","","","","","","","","","","","html-button-response","149","2.0.0","801066","670feba2e636f738625aa72d","1","43","13851","","","","","","","","","<img src= ""rock_img/I_Basalt_05.jpg"" style=""width:8cm; height:8.18cm;""><p>What type of rock is this?</p>","1","class_response","1","train","23","Basalt","Basalt","05","true","2","2","",""
"","","","","","","","","","","","html-button-response","150","2.0.0","802011","670feba2e636f738625aa72d","1","43","943","","","","","","","","","<img src= rock_img/I_Basalt_05.jpg style=""width:8cm; height:8.18cm;""><p style='font-size: 30px; color: green;'><strong>Correct!</strong></p><p style='font-size: 30px;'><strong>This rock is basalt</strong></p>","0","corr_feedback","1","train","23","","","","","","","",""
"","","","","","","","","","","","html-button-response","151","2.0.0","804024","670feba2e636f738625aa72d","1","43","2013","","","","","","","","","<img src= ""rock_img/I_Obsidian_04.jpg"" style=""width:8cm; height:6.930000000000001cm;""><p>What type of rock is this?</p>","4","class_response","1","train","24","Obsidian","Obsidian","04","true","5","5","",""
"","","","","","","","","","","","html-button-response","152","2.0.0","804759","670feba2e636f738625aa72d","1","43","734","","","","","","","","","<img src= rock_img/I_Obsidian_04.jpg style=""width:8cm; height:6.930000000000001cm;""><p style='font-size: 30px; color: green;'><strong>Correct!</strong></p><p style='font-size: 30px;'><strong>This rock is obsidian</strong></p>","0","corr_feedback","1","train","24","","","","","","","",""
"","","","","","","","","","","","html-button-response","153","2.0.0","812223","670feba2e636f738625aa72d","1","43","7462","","","","","","","","","<img src= ""rock_img/I_Pegmatite_03.jpg"" style=""width:8cm; height:5.239999999999999cm;""><p>What type of rock is this?</p>","5","class_response","1","train","25","Pegmatite","Pegmatite","03","true","6","6","",""
"","","","","","","","","","","","html-button-response","154","2.0.0","817543","670feba2e636f738625aa72d","1","43","5320","","","","","","","","","<img src= rock_img/I_Pegmatite_03.jpg style=""width:8cm; height:5.239999999999999cm;""><p style='font-size: 30px; color: green;'><strong>Correct!</strong></p><p style='font-size: 30px;'><strong>This rock is pegmatite</strong></p>","0","corr_feedback","1","train","25","","","","","","","",""
"","","","","","","","","","","","html-button-response","155","2.0.0","841212","670feba2e636f738625aa72d","1","43","23669","","","","","","","","","<img src= ""rock_img/I_Gabbro_01.jpg"" style=""width:8cm; height:5.21cm;""><p>What type of rock is this?</p>","6","class_response","1","train","26","Peridotite","Gabbro","01","false","7","4","",""
"","","","","","","","","","","","html-button-response","156","2.0.0","846995","670feba2e636f738625aa72d","1","43","5783","","","","","","","","","<img src= rock_img/I_Gabbro_01.jpg style=""width:8cm; height:5.21cm;""><p style='font-size: 30px; color: red;'><strong>Incorrect!</strong></p><p style='font-size: 30px;'><strong>This rock is gabbro</strong></p>","0","corr_feedback","1","train","26","","","","","","","",""
"","","","","","","","","","","","html-button-response","157","2.0.0","854845","670feba2e636f738625aa72d","1","43","7847","","","","","","","","","<img src= ""rock_img/I_Pegmatite_16.jpg"" style=""width:8cm; height:5.8cm;""><p>What type of rock is this?</p>","6","class_response","1","train","27","Peridotite","Pegmatite","16","false","7","6","",""
"","","","","","","","","","","","html-button-response","158","2.0.0","861871","670feba2e636f738625aa72d","1","43","7025","","","","","","","","","<img src= rock_img/I_Pegmatite_16.jpg style=""width:8cm; height:5.8cm;""><p style='font-size: 30px; color: red;'><strong>Incorrect!</strong></p><p style='font-size: 30px;'><strong>This rock is pegmatite</strong></p>","0","corr_feedback","1","train","27","","","","","","","",""
"","","","","","","","","","","","html-button-response","159","2.0.0","882224","670feba2e636f738625aa72d","1","43","20352","","","","","","","","","<img src= ""rock_img/I_Basalt_02.jpg"" style=""width:8cm; height:6.45cm;""><p>What type of rock is this?</p>","1","class_response","1","train","28","Basalt","Basalt","02","true","2","2","",""
"","","","","","","","","","","","html-button-response","160","2.0.0","883125","670feba2e636f738625aa72d","1","43","900","","","","","","","","","<img src= rock_img/I_Basalt_02.jpg style=""width:8cm; height:6.45cm;""><p style='font-size: 30px; color: green;'><strong>Correct!</strong></p><p style='font-size: 30px;'><strong>This rock is basalt</strong></p>","0","corr_feedback","1","train","28","","","","","","","",""
"","","","","","","","","","","","html-button-response","161","2.0.0","892261","670feba2e636f738625aa72d","1","43","9134","","","","","","","","","<img src= ""rock_img/I_Gabbro_15.jpg"" style=""width:8cm; height:6.29cm;""><p>What type of rock is this?</p>","2","class_response","1","train","29","Diorite","Gabbro","15","false","3","4","",""
"","","","","","","","","","","","html-button-response","162","2.0.0","897685","670feba2e636f738625aa72d","1","43","5423","","","","","","","","","<img src= rock_img/I_Gabbro_15.jpg style=""width:8cm; height:6.29cm;""><p style='font-size: 30px; color: red;'><strong>Incorrect!</strong></p><p style='font-size: 30px;'><strong>This rock is gabbro</strong></p>","0","corr_feedback","1","train","29","","","","","","","",""
"","","","","","","","","","","","html-button-response","163","2.0.0","912875","670feba2e636f738625aa72d","1","43","15189","","","","","","","","","<img src= ""rock_img/I_Basalt_09.jpg"" style=""width:8cm; height:6.2cm;""><p>What type of rock is this?</p>","1","class_response","1","train","30","Basalt","Basalt","09","true","2","2","",""
"","","","","","","","","","","","html-button-response","164","2.0.0","917731","670feba2e636f738625aa72d","1","43","4856","","","","","","","","","<img src= rock_img/I_Basalt_09.jpg style=""width:8cm; height:6.2cm;""><p style='font-size: 30px; color: green;'><strong>Correct!</strong></p><p style='font-size: 30px;'><strong>This rock is basalt</strong></p>","0","corr_feedback","1","train","30","","","","","","","",""
"","","","","","","","","","","","html-button-response","165","2.0.0","934103","670feba2e636f738625aa72d","1","43","16370","","","","","","","","","<img src= ""rock_img/I_Pumice_16.jpg"" style=""width:8cm; height:6.79cm;""><p>What type of rock is this?</p>","1","class_response","1","train","31","Basalt","Pumice","16","false","2","8","",""
"","","","","","","","","","","","html-button-response","166","2.0.0","939380","670feba2e636f738625aa72d","1","43","5275","","","","","","","","","<img src= rock_img/I_Pumice_16.jpg style=""width:8cm; height:6.79cm;""><p style='font-size: 30px; color: red;'><strong>Incorrect!</strong></p><p style='font-size: 30px;'><strong>This rock is pumice</strong></p>","0","corr_feedback","1","train","31","","","","","","","",""
"","","","","","","","","","","","html-button-response","167","2.0.0","961737","670feba2e636f738625aa72d","1","43","22356","","","","","","","","","<img src= ""rock_img/I_Andesite_04.jpg"" style=""width:8cm; height:5.96cm;""><p>What type of rock is this?</p>","3","class_response","1","train","32","Gabbro","Andesite","04","false","4","1","",""
"","","","","","","","","","","","html-button-response","168","2.0.0","973917","670feba2e636f738625aa72d","1","43","12178","","","","","","","","","<img src= rock_img/I_Andesite_04.jpg style=""width:8cm; height:5.96cm;""><p style='font-size: 30px; color: red;'><strong>Incorrect!</strong></p><p style='font-size: 30px;'><strong>This rock is andesite</strong></p>","0","corr_feedback","1","train","32","","","","","","","",""
"","","","","","","","","","","","html-button-response","169","2.0.0","983586","670feba2e636f738625aa72d","1","43","9666","","","","","","","","","<img src= ""rock_img/I_Peridotite_02.jpg"" style=""width:8cm; height:5.859999999999999cm;""><p>What type of rock is this?</p>","6","class_response","1","train","33","Peridotite","Peridotite","02","true","7","7","",""
"","","","","","","","","","","","html-button-response","170","2.0.0","987366","670feba2e636f738625aa72d","1","43","3780","","","","","","","","","<img src= rock_img/I_Peridotite_02.jpg style=""width:8cm; height:5.859999999999999cm;""><p style='font-size: 30px; color: green;'><strong>Correct!</strong></p><p style='font-size: 30px;'><strong>This rock is peridotite</strong></p>","0","corr_feedback","1","train","33","","","","","","","",""
"","","","","","","","","","","","html-button-response","171","2.0.0","989019","670feba2e636f738625aa72d","1","43","1651","","","","","","","","","<img src= ""rock_img/I_Peridotite_08.jpg"" style=""width:8cm; height:6.7cm;""><p>What type of rock is this?</p>","6","class_response","1","train","34","Peridotite","Peridotite","08","true","7","7","",""
"","","","","","","","","","","","html-button-response","172","2.0.0","989746","670feba2e636f738625aa72d","1","43","725","","","","","","","","","<img src= rock_img/I_Peridotite_08.jpg style=""width:8cm; height:6.7cm;""><p style='font-size: 30px; color: green;'><strong>Correct!</strong></p><p style='font-size: 30px;'><strong>This rock is peridotite</strong></p>","0","corr_feedback","1","train","34","","","","","","","",""
"","","","","","","","","","","","html-button-response","173","2.0.0","991898","670feba2e636f738625aa72d","1","43","2151","","","","","","","","","<img src= ""rock_img/I_Pumice_03.jpg"" style=""width:8cm; height:6.64cm;""><p>What type of rock is this?</p>","7","class_response","1","train","35","Pumice","Pumice","03","true","8","8","",""
"","","","","","","","","","","","html-button-response","174","2.0.0","992720","670feba2e636f738625aa72d","1","43","821","","","","","","","","","<img src= rock_img/I_Pumice_03.jpg style=""width:8cm; height:6.64cm;""><p style='font-size: 30px; color: green;'><strong>Correct!</strong></p><p style='font-size: 30px;'><strong>This rock is pumice</strong></p>","0","corr_feedback","1","train","35","","","","","","","",""
"","","","","","","","","","","","html-button-response","175","2.0.0","1009530","670feba2e636f738625aa72d","1","43","16808","","","","","","","","","<img src= ""rock_img/I_Andesite_06.jpg"" style=""width:8cm; height:6.840000000000001cm;""><p>What type of rock is this?</p>","0","class_response","1","train","36","Andesite","Andesite","06","true","1","1","",""
"","","","","","","","","","","","html-button-response","176","2.0.0","1010598","670feba2e636f738625aa72d","1","43","1067","","","","","","","","","<img src= rock_img/I_Andesite_06.jpg style=""width:8cm; height:6.840000000000001cm;""><p style='font-size: 30px; color: green;'><strong>Correct!</strong></p><p style='font-size: 30px;'><strong>This rock is andesite</strong></p>","0","corr_feedback","1","train","36","","","","","","","",""
"","","","","","","","","","","","html-button-response","177","2.0.0","1012969","670feba2e636f738625aa72d","1","43","2370","","","","","","","","","<img src= ""rock_img/I_Pumice_06.jpg"" style=""width:8cm; height:6.9399999999999995cm;""><p>What type of rock is this?</p>","7","class_response","1","train","37","Pumice","Pumice","06","true","8","8","",""
"","","","","","","","","","","","html-button-response","178","2.0.0","1014001","670feba2e636f738625aa72d","1","43","1032","","","","","","","","","<img src= rock_img/I_Pumice_06.jpg style=""width:8cm; height:6.9399999999999995cm;""><p style='font-size: 30px; color: green;'><strong>Correct!</strong></p><p style='font-size: 30px;'><strong>This rock is pumice</strong></p>","0","corr_feedback","1","train","37","","","","","","","",""
"","","","","","","","","","","","html-button-response","179","2.0.0","1022891","670feba2e636f738625aa72d","1","43","8888","","","","","","","","","<img src= ""rock_img/I_Andesite_05.jpg"" style=""width:8cm; height:4.12cm;""><p>What type of rock is this?</p>","3","class_response","1","train","38","Gabbro","Andesite","05","false","4","1","",""
"","","","","","","","","","","","html-button-response","180","2.0.0","1028350","670feba2e636f738625aa72d","1","43","5458","","","","","","","","","<img src= rock_img/I_Andesite_05.jpg style=""width:8cm; height:4.12cm;""><p style='font-size: 30px; color: red;'><strong>Incorrect!</strong></p><p style='font-size: 30px;'><strong>This rock is andesite</strong></p>","0","corr_feedback","1","train","38","","","","","","","",""
"","","","","","","","","","","","html-button-response","181","2.0.0","1030224","670feba2e636f738625aa72d","1","43","1872","","","","","","","","","<img src= ""rock_img/I_Pegmatite_15.jpg"" style=""width:8cm; height:6cm;""><p>What type of rock is this?</p>","4","class_response","1","train","39","Obsidian","Pegmatite","15","false","5","6","",""
"","","","","","","","","","","","html-button-response","182","2.0.0","1034808","670feba2e636f738625aa72d","1","43","4583","","","","","","","","","<img src= rock_img/I_Pegmatite_15.jpg style=""width:8cm; height:6cm;""><p style='font-size: 30px; color: red;'><strong>Incorrect!</strong></p><p style='font-size: 30px;'><strong>This rock is pegmatite</strong></p>","0","corr_feedback","1","train","39","","","","","","","",""
"","","","","","","","","","","","html-button-response","183","2.0.0","1036340","670feba2e636f738625aa72d","1","43","1530","","","","","","","","","<img src= ""rock_img/I_Obsidian_07.jpg"" style=""width:8cm; height:4.76cm;""><p>What type of rock is this?</p>","4","class_response","1","train","40","Obsidian","Obsidian","07","true","5","5","",""
"","","","","","","","","","","","html-button-response","184","2.0.0","1037372","670feba2e636f738625aa72d","1","43","1030","","","","","","","","","<img src= rock_img/I_Obsidian_07.jpg style=""width:8cm; height:4.76cm;""><p style='font-size: 30px; color: green;'><strong>Correct!</strong></p><p style='font-size: 30px;'><strong>This rock is obsidian</strong></p>","0","corr_feedback","1","train","40","","","","","","","",""
"","","","","","","","","","","","html-button-response","185","2.0.0","1038684","670feba2e636f738625aa72d","1","43","1311","","","","","","","","","<img src= ""rock_img/I_Obsidian_10.jpg"" style=""width:8cm; height:6.260000000000001cm;""><p>What type of rock is this?</p>","4","class_response","1","train","41","Obsidian","Obsidian","10","true","5","5","",""
"","","","","","","","","","","","html-button-response","186","2.0.0","1039577","670feba2e636f738625aa72d","1","43","892","","","","","","","","","<img src= rock_img/I_Obsidian_10.jpg style=""width:8cm; height:6.260000000000001cm;""><p style='font-size: 30px; color: green;'><strong>Correct!</strong></p><p style='font-size: 30px;'><strong>This rock is obsidian</strong></p>","0","corr_feedback","1","train","41","","","","","","","",""
"","","","","","","","","","","","html-button-response","187","2.0.0","1075374","670feba2e636f738625aa72d","1","43","35796","","","","","","","","","<img src= ""rock_img/I_Andesite_10.jpg"" style=""width:8cm; height:4.16cm;""><p>What type of rock is this?</p>","0","class_response","1","train","42","Andesite","Andesite","10","true","1","1","",""
"","","","","","","","","","","","html-button-response","188","2.0.0","1081604","670feba2e636f738625aa72d","1","43","6229","","","","","","","","","<img src= rock_img/I_Andesite_10.jpg style=""width:8cm; height:4.16cm;""><p style='font-size: 30px; color: green;'><strong>Correct!</strong></p><p style='font-size: 30px;'><strong>This rock is andesite</strong></p>","0","corr_feedback","1","train","42","","","","","","","",""
"","","","","","","","","","","","html-button-response","189","2.0.0","1122486","670feba2e636f738625aa72d","1","43","40879","","","","","","","","","<img src= ""rock_img/I_Pumice_08.jpg"" style=""width:8cm; height:6.67cm;""><p>What type of rock is this?</p>","6","class_response","1","train","43","Peridotite","Pumice","08","false","7","8","",""
"","","","","","","","","","","","html-button-response","190","2.0.0","1128777","670feba2e636f738625aa72d","1","43","6290","","","","","","","","","<img src= rock_img/I_Pumice_08.jpg style=""width:8cm; height:6.67cm;""><p style='font-size: 30px; color: red;'><strong>Incorrect!</strong></p><p style='font-size: 30px;'><strong>This rock is pumice</strong></p>","0","corr_feedback","1","train","43","","","","","","","",""
"","","","","","","","","","","","html-button-response","191","2.0.0","1150250","670feba2e636f738625aa72d","1","43","21472","","","","","","","","","<img src= ""rock_img/I_Gabbro_11.jpg"" style=""width:8cm; height:6.2cm;""><p>What type of rock is this?</p>","1","class_response","1","train","44","Basalt","Gabbro","11","false","2","4","",""
"","","","","","","","","","","","html-button-response","192","2.0.0","1155831","670feba2e636f738625aa72d","1","43","5581","","","","","","","","","<img src= rock_img/I_Gabbro_11.jpg style=""width:8cm; height:6.2cm;""><p style='font-size: 30px; color: red;'><strong>Incorrect!</strong></p><p style='font-size: 30px;'><strong>This rock is gabbro</strong></p>","0","corr_feedback","1","train","44","","","","","","","",""
"","","","","","","","","","","","html-button-response","193","2.0.0","1185101","670feba2e636f738625aa72d","1","43","29268","","","","","","","","","<img src= ""rock_img/I_Gabbro_03.jpg"" style=""width:8cm; height:8.52cm;""><p>What type of rock is this?</p>","3","class_response","1","train","45","Gabbro","Gabbro","03","true","4","4","",""
"","","","","","","","","","","","html-button-response","194","2.0.0","1190316","670feba2e636f738625aa72d","1","43","5214","","","","","","","","","<img src= rock_img/I_Gabbro_03.jpg style=""width:8cm; height:8.52cm;""><p style='font-size: 30px; color: green;'><strong>Correct!</strong></p><p style='font-size: 30px;'><strong>This rock is gabbro</strong></p>","0","corr_feedback","1","train","45","","","","","","","",""
"","","","","","","","","","","","html-button-response","195","2.0.0","1207554","670feba2e636f738625aa72d","1","43","17236","","","","","","","","","<img src= ""rock_img/I_Gabbro_16.jpg"" style=""width:8cm; height:6.44cm;""><p>What type of rock is this?</p>","1","class_response","1","train","46","Basalt","Gabbro","16","false","2","4","",""
"","","","","","","","","","","","html-button-response","196","2.0.0","1213224","670feba2e636f738625aa72d","1","43","5669","","","","","","","","","<img src= rock_img/I_Gabbro_16.jpg style=""width:8cm; height:6.44cm;""><p style='font-size: 30px; color: red;'><strong>Incorrect!</strong></p><p style='font-size: 30px;'><strong>This rock is gabbro</strong></p>","0","corr_feedback","1","train","46","","","","","","","",""
"","","","","","","","","","","","html-button-response","197","2.0.0","1229150","670feba2e636f738625aa72d","1","43","15925","","","","","","","","","<img src= ""rock_img/I_Pegmatite_10.jpg"" style=""width:8cm; height:4.16cm;""><p>What type of rock is this?</p>","5","class_response","1","train","47","Pegmatite","Pegmatite","10","true","6","6","",""
"","","","","","","","","","","","html-button-response","198","2.0.0","1234137","670feba2e636f738625aa72d","1","43","4987","","","","","","","","","<img src= rock_img/I_Pegmatite_10.jpg style=""width:8cm; height:4.16cm;""><p style='font-size: 30px; color: green;'><strong>Correct!</strong></p><p style='font-size: 30px;'><strong>This rock is pegmatite</strong></p>","0","corr_feedback","1","train","47","","","","","","","",""
"","","","","","","","","","","","html-button-response","199","2.0.0","1236245","670feba2e636f738625aa72d","1","43","2107","","","","","","","","","<img src= ""rock_img/I_Pumice_09.jpg"" style=""width:8cm; height:6.44cm;""><p>What type of rock is this?</p>","7","class_response","1","train","48","Pumice","Pumice","09","true","8","8","",""
"","","","","","","","","","","","html-button-response","200","2.0.0","1237944","670feba2e636f738625aa72d","1","43","1697","","","","","","","","","<img src= rock_img/I_Pumice_09.jpg style=""width:8cm; height:6.44cm;""><p style='font-size: 30px; color: green;'><strong>Correct!</strong></p><p style='font-size: 30px;'><strong>This rock is pumice</strong></p>","0","corr_feedback","1","train","48","","","","","","","",""
"","","","","","","","","","","","instructions","203","2.0.0","1265778","670feba2e636f738625aa72d","1","43","27833","","","","","","","","[{""page_index"":0,""viewing_time"":8022},{""page_index"":1,""viewing_time"":19811}]","","","","","","","","","","","","","",""
"","","","","","","","","","","","html-button-response","204","2.0.0","1268612","670feba2e636f738625aa72d","1","43","2834","","","","","","","","","","0","start_test","","","","","","","","","","",""
"","","","","","","","","","","","html-button-response","205","2.0.0","1309161","670feba2e636f738625aa72d","1","43","40546","","","","","","","","","<img src= ""rock_img/I_Peridotite_07.jpg"" style=""width:8cm; height:4.83cm;""><p>What type of rock is this?</p>","6","class_response","1","test","1","Peridotite","Peridotite","07","true","7","7","",""
"","","","","","","","","","","","html-keyboard-response","206","2.0.0","1309675","670feba2e636f738625aa72d","1","43","null","","","","","","","","","<p style='font-size: 30px;'><strong>Okay</strong></p>","null","neutral_feedback","1","test","1","","","","","","","",""
"","","","","","","","","","","","html-button-response","207","2.0.0","1376091","670feba2e636f738625aa72d","1","43","66413","","","","","","","","","<img src= ""rock_img/I_Gabbro_10.jpg"" style=""width:8cm; height:5.680000000000001cm;""><p>What type of rock is this?</p>","3","class_response","1","test","2","Gabbro","Gabbro","10","true","4","4","",""
"","","","","","","","","","","","html-keyboard-response","208","2.0.0","1376599","670feba2e636f738625aa72d","1","43","null","","","","","","","","","<p style='font-size: 30px;'><strong>Okay</strong></p>","null","neutral_feedback","1","test","2","","","","","","","",""
"","","","","","","","","","","","html-button-response","209","2.0.0","1378112","670feba2e636f738625aa72d","1","43","1511","","","","","","","","","<img src= ""rock_img/I_Pumice_02.jpg"" style=""width:8cm; height:7.3999999999999995cm;""><p>What type of rock is this?</p>","7","class_response","1","test","3","Pumice","Pumice","02","true","8","8","",""
"","","","","","","","","","","","html-keyboard-response","210","2.0.0","1378626","670feba2e636f738625aa72d","1","43","null","","","","","","","","","<p style='font-size: 30px;'><strong>Okay</strong></p>","null","neutral_feedback","1","test","3","","","","","","","",""
"","","","","","","","","","","","html-button-response","211","2.0.0","1393822","670feba2e636f738625aa72d","1","43","15193","","","","","","","","","<img src= ""rock_img/I_Diorite_10.jpg"" style=""width:8cm; height:5.949999999999999cm;""><p>What type of rock is this?</p>","6","class_response","1","test","4","Peridotite","Diorite","10","false","7","3","",""
"","","","","","","","","","","","html-keyboard-response","212","2.0.0","1394335","670feba2e636f738625aa72d","1","43","null","","","","","","","","","<p style='font-size: 30px;'><strong>Okay</strong></p>","null","neutral_feedback","1","test","4","","","","","","","",""
"","","","","","","","","","","","html-button-response","213","2.0.0","1427323","670feba2e636f738625aa72d","1","43","32985","","","","","","","","","<img src= ""rock_img/I_Andesite_07.jpg"" style=""width:8cm; height:5.93cm;""><p>What type of rock is this?</p>","2","class_response","1","test","5","Diorite","Andesite","07","false","3","1","",""
"","","","","","","","","","","","html-keyboard-response","214","2.0.0","1427829","670feba2e636f738625aa72d","1","43","null","","","","","","","","","<p style='font-size: 30px;'><strong>Okay</strong></p>","null","neutral_feedback","1","test","5","","","","","","","",""
"","","","","","","","","","","","html-button-response","215","2.0.0","1438934","670feba2e636f738625aa72d","1","43","11104","","","","","","","","","<img src= ""rock_img/I_Diorite_15.jpg"" style=""width:8cm; height:5.54cm;""><p>What type of rock is this?</p>","2","class_response","1","test","6","Diorite","Diorite","15","true","3","3","",""
"","","","","","","","","","","","html-keyboard-response","216","2.0.0","1439436","670feba2e636f738625aa72d","1","43","null","","","","","","","","","<p style='font-size: 30px;'><strong>Okay</strong></p>","null","neutral_feedback","1","test","6","","","","","","","",""
"","","","","","","","","","","","html-button-response","217","2.0.0","1449924","670feba2e636f738625aa72d","1","43","10485","","","","","","","","","<img src= ""rock_img/I_Andesite_02.jpg"" style=""width:8cm; height:8.5cm;""><p>What type of rock is this?</p>","0","class_response","1","test","7","Andesite","Andesite","02","true","1","1","",""
"","","","","","","","","","","","html-keyboard-response","218","2.0.0","1450425","670feba2e636f738625aa72d","1","43","null","","","","","","","","","<p style='font-size: 30px;'><strong>Okay</strong></p>","null","neutral_feedback","1","test","7","","","","","","","",""
"","","","","","","","","","","","html-button-response","219","2.0.0","1474065","670feba2e636f738625aa72d","1","43","23638","","","","","","","","","<img src= ""rock_img/I_Gabbro_14.jpg"" style=""width:8cm; height:8.48cm;""><p>What type of rock is this?</p>","3","class_response","1","test","8","Gabbro","Gabbro","14","true","4","4","",""
"","","","","","","","","","","","html-keyboard-response","220","2.0.0","1474579","670feba2e636f738625aa72d","1","43","null","","","","","","","","","<p style='font-size: 30px;'><strong>Okay</strong></p>","null","neutral_feedback","1","test","8","","","","","","","",""
"","","","","","","","","","","","html-button-response","221","2.0.0","1483026","670feba2e636f738625aa72d","1","43","8445","","","","","","","","","<img src= ""rock_img/I_Pumice_10.jpg"" style=""width:8cm; height:7.609999999999999cm;""><p>What type of rock is this?</p>","7","class_response","1","test","9","Pumice","Pumice","10","true","8","8","",""
"","","","","","","","","","","","html-keyboard-response","222","2.0.0","1483529","670feba2e636f738625aa72d","1","43","null","","","","","","","","","<p style='font-size: 30px;'><strong>Okay</strong></p>","null","neutral_feedback","1","test","9","","","","","","","",""
"","","","","","","","","","","","html-button-response","223","2.0.0","1500483","670feba2e636f738625aa72d","1","43","16951","","","","","","","","","<img src= ""rock_img/I_Gabbro_05.jpg"" style=""width:8cm; height:6cm;""><p>What type of rock is this?</p>","3","class_response","1","test","10","Gabbro","Gabbro","05","true","4","4","",""
"","","","","","","","","","","","html-keyboard-response","224","2.0.0","1500999","670feba2e636f738625aa72d","1","43","null","","","","","","","","","<p style='font-size: 30px;'><strong>Okay</strong></p>","null","neutral_feedback","1","test","10","","","","","","","",""
"","","","","","","","","","","","html-button-response","225","2.0.0","1503142","670feba2e636f738625aa72d","1","43","2141","","","","","","","","","<img src= ""rock_img/I_Pegmatite_08.jpg"" style=""width:8cm; height:7.68cm;""><p>What type of rock is this?</p>","4","class_response","1","test","11","Obsidian","Pegmatite","08","false","5","6","",""
"","","","","","","","","","","","html-keyboard-response","226","2.0.0","1503646","670feba2e636f738625aa72d","1","43","null","","","","","","","","","<p style='font-size: 30px;'><strong>Okay</strong></p>","null","neutral_feedback","1","test","11","","","","","","","",""
"","","","","","","","","","","","html-button-response","227","2.0.0","1505102","670feba2e636f738625aa72d","1","43","1454","","","","","","","","","<img src= ""rock_img/I_Obsidian_05.jpg"" style=""width:8cm; height:6.33cm;""><p>What type of rock is this?</p>","4","class_response","1","test","12","Obsidian","Obsidian","05","true","5","5","",""
"","","","","","","","","","","","html-keyboard-response","228","2.0.0","1505607","670feba2e636f738625aa72d","1","43","null","","","","","","","","","<p style='font-size: 30px;'><strong>Okay</strong></p>","null","neutral_feedback","1","test","12","","","","","","","",""
"","","","","","","","","","","","html-button-response","229","2.0.0","1507517","670feba2e636f738625aa72d","1","43","1908","","","","","","","","","<img src= ""rock_img/I_Pumice_04.jpg"" style=""width:8cm; height:6.819999999999999cm;""><p>What type of rock is this?</p>","7","class_response","1","test","13","Pumice","Pumice","04","true","8","8","",""
"","","","","","","","","","","","html-keyboard-response","230","2.0.0","1508021","670feba2e636f738625aa72d","1","43","null","","","","","","","","","<p style='font-size: 30px;'><strong>Okay</strong></p>","null","neutral_feedback","1","test","13","","","","","","","",""
"","","","","","","","","","","","html-button-response","231","2.0.0","1522690","670feba2e636f738625aa72d","1","43","14667","","","","","","","","","<img src= ""rock_img/I_Pegmatite_09.jpg"" style=""width:8cm; height:4.03cm;""><p>What type of rock is this?</p>","5","class_response","1","test","14","Pegmatite","Pegmatite","09","true","6","6","",""
"","","","","","","","","","","","html-keyboard-response","232","2.0.0","1523200","670feba2e636f738625aa72d","1","43","null","","","","","","","","","<p style='font-size: 30px;'><strong>Okay</strong></p>","null","neutral_feedback","1","test","14","","","","","","","",""
"","","","","","","","","","","","html-button-response","233","2.0.0","1545161","670feba2e636f738625aa72d","1","43","21959","","","","","","","","","<img src= ""rock_img/I_Diorite_13.jpg"" style=""width:8cm; height:6.29cm;""><p>What type of rock is this?</p>","2","class_response","1","test","15","Diorite","Diorite","13","true","3","3","",""
"","","","","","","","","","","","html-keyboard-response","234","2.0.0","1545671","670feba2e636f738625aa72d","1","43","null","","","","","","","","","<p style='font-size: 30px;'><strong>Okay</strong></p>","null","neutral_feedback","1","test","15","","","","","","","",""
"","","","","","","","","","","","html-button-response","235","2.0.0","1558643","670feba2e636f738625aa72d","1","43","12970","","","","","","","","","<img src= ""rock_img/I_Peridotite_10.jpg"" style=""width:8cm; height:5.390000000000001cm;""><p>What type of rock is this?</p>","0","class_response","1","test","16","Andesite","Peridotite","10","false","1","7","",""
"","","","","","","","","","","","html-keyboard-response","236","2.0.0","1559148","670feba2e636f738625aa72d","1","43","null","","","","","","","","","<p style='font-size: 30px;'><strong>Okay</strong></p>","null","neutral_feedback","1","test","16","","","","","","","",""
"","","","","","","","","","","","html-button-response","237","2.0.0","1566520","670feba2e636f738625aa72d","1","43","7372","","","","","","","","","<img src= ""rock_img/I_Pumice_15.jpg"" style=""width:8cm; height:7.86cm;""><p>What type of rock is this?</p>","7","class_response","1","test","17","Pumice","Pumice","15","true","8","8","",""
"","","","","","","","","","","","html-keyboard-response","238","2.0.0","1567022","670feba2e636f738625aa72d","1","43","null","","","","","","","","","<p style='font-size: 30px;'><strong>Okay</strong></p>","null","neutral_feedback","1","test","17","","","","","","","",""
"","","","","","","","","","","","html-button-response","239","2.0.0","1574797","670feba2e636f738625aa72d","1","43","7774","","","","","","","","","<img src= ""rock_img/I_Andesite_01.jpg"" style=""width:8cm; height:5.87cm;""><p>What type of rock is this?</p>","2","class_response","1","test","18","Diorite","Andesite","01","false","3","1","",""
"","","","","","","","","","","","html-keyboard-response","240","2.0.0","1575305","670feba2e636f738625aa72d","1","43","null","","","","","","","","","<p style='font-size: 30px;'><strong>Okay</strong></p>","null","neutral_feedback","1","test","18","","","","","","","",""
"","","","","","","","","","","","html-button-response","241","2.0.0","1597740","670feba2e636f738625aa72d","1","43","22434","","","","","","","","","<img src= ""rock_img/I_Peridotite_16.jpg"" style=""width:8cm; height:6.989999999999999cm;""><p>What type of rock is this?</p>","6","class_response","1","test","19","Peridotite","Peridotite","16","true","7","7","",""
"","","","","","","","","","","","html-keyboard-response","242","2.0.0","1598255","670feba2e636f738625aa72d","1","43","null","","","","","","","","","<p style='font-size: 30px;'><strong>Okay</strong></p>","null","neutral_feedback","1","test","19","","","","","","","",""
"","","","","","","","","","","","html-button-response","243","2.0.0","1611373","670feba2e636f738625aa72d","1","43","13116","","","","","","","","","<img src= ""rock_img/I_Gabbro_12.jpg"" style=""width:8cm; height:7.800000000000001cm;""><p>What type of rock is this?</p>","3","class_response","1","test","20","Gabbro","Gabbro","12","true","4","4","",""
"","","","","","","","","","","","html-keyboard-response","244","2.0.0","1611883","670feba2e636f738625aa72d","1","43","null","","","","","","","","","<p style='font-size: 30px;'><strong>Okay</strong></p>","null","neutral_feedback","1","test","20","","","","","","","",""
"","","","","","","","","","","","html-button-response","245","2.0.0","1632513","670feba2e636f738625aa72d","1","43","20628","","","","","","","","","<img src= ""rock_img/I_Andesite_11.jpg"" style=""width:8cm; height:4.92cm;""><p>What type of rock is this?</p>","0","class_response","1","test","21","Andesite","Andesite","11","true","1","1","",""
"","","","","","","","","","","","html-keyboard-response","246","2.0.0","1633027","670feba2e636f738625aa72d","1","43","null","","","","","","","","","<p style='font-size: 30px;'><strong>Okay</strong></p>","null","neutral_feedback","1","test","21","","","","","","","",""
"","","","","","","","","","","","html-button-response","247","2.0.0","1667566","670feba2e636f738625aa72d","1","43","34537","","","","","","","","","<img src= ""rock_img/I_Gabbro_09.jpg"" style=""width:8cm; height:7.279999999999999cm;""><p>What type of rock is this?</p>","3","class_response","1","test","22","Gabbro","Gabbro","09","true","4","4","",""
"","","","","","","","","","","","html-keyboard-response","248","2.0.0","1668077","670feba2e636f738625aa72d","1","43","null","","","","","","","","","<p style='font-size: 30px;'><strong>Okay</strong></p>","null","neutral_feedback","1","test","22","","","","","","","",""
"","","","","","","","","","","","html-button-response","249","2.0.0","1691909","670feba2e636f738625aa72d","1","43","23831","","","","","","","","","<img src= ""rock_img/I_Pumice_13.jpg"" style=""width:8cm; height:8.200000000000001cm;""><p>What type of rock is this?</p>","7","class_response","1","test","23","Pumice","Pumice","13","true","8","8","",""
"","","","","","","","","","","","html-keyboard-response","250","2.0.0","1692421","670feba2e636f738625aa72d","1","43","null","","","","","","","","","<p style='font-size: 30px;'><strong>Okay</strong></p>","null","neutral_feedback","1","test","23","","","","","","","",""
"","","","","","","","","","","","html-button-response","251","2.0.0","1735600","670feba2e636f738625aa72d","1","43","43176","","","","","","","","","<img src= ""rock_img/I_Basalt_16.jpg"" style=""width:8cm; height:7.659999999999999cm;""><p>What type of rock is this?</p>","1","class_response","1","test","24","Basalt","Basalt","16","true","2","2","",""
"","","","","","","","","","","","html-keyboard-response","252","2.0.0","1736114","670feba2e636f738625aa72d","1","43","null","","","","","","","","","<p style='font-size: 30px;'><strong>Okay</strong></p>","null","neutral_feedback","1","test","24","","","","","","","",""
"","","","","","","","","","","","html-button-response","253","2.0.0","1769505","670feba2e636f738625aa72d","1","43","33389","","","","","","","","","<img src= ""rock_img/I_Basalt_12.jpg"" style=""width:8cm; height:6.010000000000001cm;""><p>What type of rock is this?</p>","0","class_response","1","test","25","Andesite","Basalt","12","false","1","2","",""
"","","","","","","","","","","","html-keyboard-response","254","2.0.0","1770019","670feba2e636f738625aa72d","1","43","null","","","","","","","","","<p style='font-size: 30px;'><strong>Okay</strong></p>","null","neutral_feedback","1","test","25","","","","","","","",""
"","","","","","","","","","","","html-button-response","255","2.0.0","1796512","670feba2e636f738625aa72d","1","43","26492","","","","","","","","","<img src= ""rock_img/I_Gabbro_08.jpg"" style=""width:8cm; height:5.15cm;""><p>What type of rock is this?</p>","0","class_response","1","test","26","Andesite","Gabbro","08","false","1","4","",""
"","","","","","","","","","","","html-keyboard-response","256","2.0.0","1797028","670feba2e636f738625aa72d","1","43","null","","","","","","","","","<p style='font-size: 30px;'><strong>Okay</strong></p>","null","neutral_feedback","1","test","26","","","","","","","",""
"","","","","","","","","","","","html-button-response","257","2.0.0","1798521","670feba2e636f738625aa72d","1","43","1492","","","","","","","","","<img src= ""rock_img/I_Obsidian_14.jpg"" style=""width:8cm; height:7.64cm;""><p>What type of rock is this?</p>","4","class_response","1","test","27","Obsidian","Obsidian","14","true","5","5","",""
"","","","","","","","","","","","html-keyboard-response","258","2.0.0","1799035","670feba2e636f738625aa72d","1","43","null","","","","","","","","","<p style='font-size: 30px;'><strong>Okay</strong></p>","null","neutral_feedback","1","test","27","","","","","","","",""
"","","","","","","","","","","","html-button-response","259","2.0.0","1843391","670feba2e636f738625aa72d","1","43","44354","","","","","","","","","<img src= ""rock_img/I_Peridotite_05.jpg"" style=""width:8cm; height:7.1499999999999995cm;""><p>What type of rock is this?</p>","3","class_response","1","test","28","Gabbro","Peridotite","05","false","4","7","",""
"","","","","","","","","","","","html-keyboard-response","260","2.0.0","1843906","670feba2e636f738625aa72d","1","43","null","","","","","","","","","<p style='font-size: 30px;'><strong>Okay</strong></p>","null","neutral_feedback","1","test","28","","","","","","","",""
"","","","","","","","","","","","html-button-response","261","2.0.0","1846008","670feba2e636f738625aa72d","1","43","2099","","","","","","","","","<img src= ""rock_img/I_Pumice_05.jpg"" style=""width:8cm; height:7.25cm;""><p>What type of rock is this?</p>","7","class_response","1","test","29","Pumice","Pumice","05","true","8","8","",""
"","","","","","","","","","","","html-keyboard-response","262","2.0.0","1846517","670feba2e636f738625aa72d","1","43","null","","","","","","","","","<p style='font-size: 30px;'><strong>Okay</strong></p>","null","neutral_feedback","1","test","29","","","","","","","",""
"","","","","","","","","","","","html-button-response","263","2.0.0","1848799","670feba2e636f738625aa72d","1","43","2279","","","","","","","","","<img src= ""rock_img/I_Diorite_14.jpg"" style=""width:8cm; height:5.71cm;""><p>What type of rock is this?</p>","2","class_response","1","test","30","Diorite","Diorite","14","true","3","3","",""
"","","","","","","","","","","","html-keyboard-response","264","2.0.0","1849303","670feba2e636f738625aa72d","1","43","null","","","","","","","","","<p style='font-size: 30px;'><strong>Okay</strong></p>","null","neutral_feedback","1","test","30","","","","","","","",""
"","","","","","","","","","","","html-button-response","265","2.0.0","1873895","670feba2e636f738625aa72d","1","43","24591","","","","","","","","","<img src= ""rock_img/I_Basalt_08.jpg"" style=""width:8cm; height:10.44cm;""><p>What type of rock is this?</p>","1","class_response","1","test","31","Basalt","Basalt","08","true","2","2","",""
"","","","","","","","","","","","html-keyboard-response","266","2.0.0","1874401","670feba2e636f738625aa72d","1","43","null","","","","","","","","","<p style='font-size: 30px;'><strong>Okay</strong></p>","null","neutral_feedback","1","test","31","","","","","","","",""
"","","","","","","","","","","","html-button-response","267","2.0.0","1878125","670feba2e636f738625aa72d","1","43","3723","","","","","","","","","<img src= ""rock_img/I_Pegmatite_11.jpg"" style=""width:8cm; height:8.14cm;""><p>What type of rock is this?</p>","4","class_response","1","test","32","Obsidian","Pegmatite","11","false","5","6","",""
"","","","","","","","","","","","html-keyboard-response","268","2.0.0","1878628","670feba2e636f738625aa72d","1","43","null","","","","","","","","","<p style='font-size: 30px;'><strong>Okay</strong></p>","null","neutral_feedback","1","test","32","","","","","","","",""
"","","","","","","","","","","","html-button-response","269","2.0.0","1880912","670feba2e636f738625aa72d","1","43","2283","","","","","","","","","<img src= ""rock_img/I_Diorite_11.jpg"" style=""width:8cm; height:7.11cm;""><p>What type of rock is this?</p>","2","class_response","1","test","33","Diorite","Diorite","11","true","3","3","",""
"","","","","","","","","","","","html-keyboard-response","270","2.0.0","1881415","670feba2e636f738625aa72d","1","43","null","","","","","","","","","<p style='font-size: 30px;'><strong>Okay</strong></p>","null","neutral_feedback","1","test","33","","","","","","","",""
"","","","","","","","","","","","html-button-response","271","2.0.0","1889986","670feba2e636f738625aa72d","1","43","8569","","","","","","","","","<img src= ""rock_img/I_Peridotite_14.jpg"" style=""width:8cm; height:5.3cm;""><p>What type of rock is this?</p>","6","class_response","1","test","34","Peridotite","Peridotite","14","true","7","7","",""
"","","","","","","","","","","","html-keyboard-response","272","2.0.0","1890501","670feba2e636f738625aa72d","1","43","null","","","","","","","","","<p style='font-size: 30px;'><strong>Okay</strong></p>","null","neutral_feedback","1","test","34","","","","","","","",""
"","","","","","","","","","","","html-button-response","273","2.0.0","1906480","670feba2e636f738625aa72d","1","43","15977","","","","","","","","","<img src= ""rock_img/I_Basalt_11.jpg"" style=""width:8cm; height:5.359999999999999cm;""><p>What type of rock is this?</p>","7","class_response","1","test","35","Pumice","Basalt","11","false","8","2","",""
"","","","","","","","","","","","html-keyboard-response","274","2.0.0","1906993","670feba2e636f738625aa72d","1","43","null","","","","","","","","","<p style='font-size: 30px;'><strong>Okay</strong></p>","null","neutral_feedback","1","test","35","","","","","","","",""
"","","","","","","","","","","","html-button-response","275","2.0.0","1908256","670feba2e636f738625aa72d","1","43","1261","","","","","","","","","<img src= ""rock_img/I_Pegmatite_07.jpg"" style=""width:8cm; height:6.7cm;""><p>What type of rock is this?</p>","4","class_response","1","test","36","Obsidian","Pegmatite","07","false","5","6","",""
"","","","","","","","","","","","html-keyboard-response","276","2.0.0","1908773","670feba2e636f738625aa72d","1","43","null","","","","","","","","","<p style='font-size: 30px;'><strong>Okay</strong></p>","null","neutral_feedback","1","test","36","","","","","","","",""
"","","","","","","","","","","","html-button-response","277","2.0.0","1916587","670feba2e636f738625aa72d","1","43","7812","","","","","","","","","<img src= ""rock_img/I_Pegmatite_06.jpg"" style=""width:8cm; height:5.17cm;""><p>What type of rock is this?</p>","5","class_response","1","test","37","Pegmatite","Pegmatite","06","true","6","6","",""
"","","","","","","","","","","","html-keyboard-response","278","2.0.0","1917097","670feba2e636f738625aa72d","1","43","null","","","","","","","","","<p style='font-size: 30px;'><strong>Okay</strong></p>","null","neutral_feedback","1","test","37","","","","","","","",""
"","","","","","","","","","","","html-button-response","279","2.0.0","1922966","670feba2e636f738625aa72d","1","43","5867","","","","","","","","","<img src= ""rock_img/I_Andesite_09.jpg"" style=""width:8cm; height:6cm;""><p>What type of rock is this?</p>","0","class_response","1","test","38","Andesite","Andesite","09","true","1","1","",""
"","","","","","","","","","","","html-keyboard-response","280","2.0.0","1923473","670feba2e636f738625aa72d","1","43","null","","","","","","","","","<p style='font-size: 30px;'><strong>Okay</strong></p>","null","neutral_feedback","1","test","38","","","","","","","",""
"","","","","","","","","","","","html-button-response","281","2.0.0","1939074","670feba2e636f738625aa72d","1","43","15599","","","","","","","","","<img src= ""rock_img/I_Peridotite_13.jpg"" style=""width:8cm; height:7.58cm;""><p>What type of rock is this?</p>","6","class_response","1","test","39","Peridotite","Peridotite","13","true","7","7","",""
"","","","","","","","","","","","html-keyboard-response","282","2.0.0","1939581","670feba2e636f738625aa72d","1","43","null","","","","","","","","","<p style='font-size: 30px;'><strong>Okay</strong></p>","null","neutral_feedback","1","test","39","","","","","","","",""
"","","","","","","","","","","","html-button-response","283","2.0.0","1940885","670feba2e636f738625aa72d","1","43","1302","","","","","","","","","<img src= ""rock_img/I_Obsidian_06.jpg"" style=""width:8cm; height:6.8cm;""><p>What type of rock is this?</p>","4","class_response","1","test","40","Obsidian","Obsidian","06","true","5","5","",""
"","","","","","","","","","","","html-keyboard-response","284","2.0.0","1941391","670feba2e636f738625aa72d","1","43","null","","","","","","","","","<p style='font-size: 30px;'><strong>Okay</strong></p>","null","neutral_feedback","1","test","40","","","","","","","",""
"","","","","","","","","","","","html-button-response","285","2.0.0","1953862","670feba2e636f738625aa72d","1","43","12469","","","","","","","","","<img src= ""rock_img/I_Basalt_04.jpg"" style=""width:8cm; height:7.53cm;""><p>What type of rock is this?</p>","3","class_response","1","test","41","Gabbro","Basalt","04","false","4","2","",""
"","","","","","","","","","","","html-keyboard-response","286","2.0.0","1954366","670feba2e636f738625aa72d","1","43","null","","","","","","","","","<p style='font-size: 30px;'><strong>Okay</strong></p>","null","neutral_feedback","1","test","41","","","","","","","",""
"","","","","","","","","","","","html-button-response","287","2.0.0","1955578","670feba2e636f738625aa72d","1","43","1210","","","","","","","","","<img src= ""rock_img/I_Basalt_06.jpg"" style=""width:8cm; height:7.06cm;""><p>What type of rock is this?</p>","3","class_response","1","test","42","Gabbro","Basalt","06","false","4","2","",""
"","","","","","","","","","","","html-keyboard-response","288","2.0.0","1956087","670feba2e636f738625aa72d","1","43","null","","","","","","","","","<p style='font-size: 30px;'><strong>Okay</strong></p>","null","neutral_feedback","1","test","42","","","","","","","",""
"","","","","","","","","","","","html-button-response","289","2.0.0","1958456","670feba2e636f738625aa72d","1","43","2368","","","","","","","","","<img src= ""rock_img/I_Andesite_03.jpg"" style=""width:8cm; height:5.73cm;""><p>What type of rock is this?</p>","2","class_response","1","test","43","Diorite","Andesite","03","false","3","1","",""
"","","","","","","","","","","","html-keyboard-response","290","2.0.0","1958961","670feba2e636f738625aa72d","1","43","null","","","","","","","","","<p style='font-size: 30px;'><strong>Okay</strong></p>","null","neutral_feedback","1","test","43","","","","","","","",""
"","","","","","","","","","","","html-button-response","291","2.0.0","1960338","670feba2e636f738625aa72d","1","43","1374","","","","","","","","","<img src= ""rock_img/I_Obsidian_09.jpg"" style=""width:8cm; height:5cm;""><p>What type of rock is this?</p>","4","class_response","1","test","44","Obsidian","Obsidian","09","true","5","5","",""
"","","","","","","","","","","","html-keyboard-response","292","2.0.0","1960848","670feba2e636f738625aa72d","1","43","null","","","","","","","","","<p style='font-size: 30px;'><strong>Okay</strong></p>","null","neutral_feedback","1","test","44","","","","","","","",""
"","","","","","","","","","","","html-button-response","293","2.0.0","1962228","670feba2e636f738625aa72d","1","43","1378","","","","","","","","","<img src= ""rock_img/I_Obsidian_12.jpg"" style=""width:8cm; height:6.53cm;""><p>What type of rock is this?</p>","4","class_response","1","test","45","Obsidian","Obsidian","12","true","5","5","",""
"","","","","","","","","","","","html-keyboard-response","294","2.0.0","1962739","670feba2e636f738625aa72d","1","43","null","","","","","","","","","<p style='font-size: 30px;'><strong>Okay</strong></p>","null","neutral_feedback","1","test","45","","","","","","","",""
"","","","","","","","","","","","html-button-response","295","2.0.0","1997167","670feba2e636f738625aa72d","1","43","34426","","","","","","","","","<img src= ""rock_img/I_Pegmatite_13.jpg"" style=""width:8cm; height:4.95cm;""><p>What type of rock is this?</p>","6","class_response","1","test","46","Peridotite","Pegmatite","13","false","7","6","",""
"","","","","","","","","","","","html-keyboard-response","296","2.0.0","1997674","670feba2e636f738625aa72d","1","43","null","","","","","","","","","<p style='font-size: 30px;'><strong>Okay</strong></p>","null","neutral_feedback","1","test","46","","","","","","","",""
"","","","","","","","","","","","html-button-response","297","2.0.0","1998838","670feba2e636f738625aa72d","1","43","1162","","","","","","","","","<img src= ""rock_img/I_Obsidian_08.jpg"" style=""width:8cm; height:7.39cm;""><p>What type of rock is this?</p>","4","class_response","1","test","47","Obsidian","Obsidian","08","true","5","5","",""
"","","","","","","","","","","","html-keyboard-response","298","2.0.0","1999350","670feba2e636f738625aa72d","1","43","null","","","","","","","","","<p style='font-size: 30px;'><strong>Okay</strong></p>","null","neutral_feedback","1","test","47","","","","","","","",""
"","","","","","","","","","","","html-button-response","299","2.0.0","2000851","670feba2e636f738625aa72d","1","43","1500","","","","","","","","","<img src= ""rock_img/I_Diorite_16.jpg"" style=""width:8cm; height:6.74cm;""><p>What type of rock is this?</p>","2","class_response","1","test","48","Diorite","Diorite","16","true","3","3","",""
"","","","","","","","","","","","html-keyboard-response","300","2.0.0","2001364","670feba2e636f738625aa72d","1","43","null","","","","","","","","","<p style='font-size: 30px;'><strong>Okay</strong></p>","null","neutral_feedback","1","test","48","","","","","","","",""
"","","","","","","","","","","","html-button-response","301","2.0.0","2055618","670feba2e636f738625aa72d","1","43","","","","","","","","","","","","cycle_feedback","","","","","","","","","","31697","22540"
"","","","","","","","","","","","html-button-response","303","2.0.0","2059677","670feba2e636f738625aa72d","1","43","4059","","","","","","","","","","0","start_train","","","","","","","","","","",""
"","","","","","","","","","","","html-button-response","304","2.0.0","2072085","670feba2e636f738625aa72d","1","43","12406","","","","","","","","","<img src= ""rock_img/I_Gabbro_16.jpg"" style=""width:8cm; height:6.44cm;""><p>What type of rock is this?</p>","3","class_response","2","train","1","Gabbro","Gabbro","16","true","4","4","",""
