"width","height","webaudio","browser","browser_version","mobile","os","fullscreen","vsync_rate","webcam","microphone","trial_type","trial_index","plugin_version","time_elapsed","subjID","condition","stimID","rt","url","success","value","timeout","failed_images","failed_audio","failed_video","view_history","stimulus","response","trialType","cycle","phase","trial","resp","cat","token","corr","resp_num","cat_num","time_fb1","time_fb2"
"1536","777","true","firefox","132.0.0","false","Windows 10","true","144.23","true","true","browser-check","0","2.0.0","427","66eb481a5a94ea27373200b1","1","5","","","","","","","","","","","","","","","","","","","","","","",""
"","","","","","","","","","","","external-html","1","2.0.0","5301","66eb481a5a94ea27373200b1","1","5","4806","consent_form.html","","","","","","","","","","","","","","","","","","","","",""
"","","","","","","","","","","","fullscreen","2","2.0.0","7828","66eb481a5a94ea27373200b1","1","5","1490","","true","","","","","","","","","","","","","","","","","","","",""
"","","","","","","","","","","","call-function","3","2.0.0","7829","66eb481a5a94ea27373200b1","1","5","","","","{}","","","","","","","","","","","","","","","","","","",""
"","","","","","","","","","","","preload","4","2.0.0","10571","66eb481a5a94ea27373200b1","1","5","","","true","","false","[]","[]","[]","","","","","","","","","","","","","","",""
"","","","","","","","","","","","instructions","5","2.0.0","35013","66eb481a5a94ea27373200b1","1","5","24440","","","","","","","","[{""page_index"":0,""viewing_time"":6261},{""page_index"":1,""viewing_time"":9886},{""page_index"":2,""viewing_time"":8293}]","","","","","","","","","","","","","",""
"","","","","","","","","","","","html-button-response","6","2.0.0","37179","66eb481a5a94ea27373200b1","1","5","2163","","","","","","","","","","0","start_test","","","","","","","","","","",""
"","","","","","","","","","","","html-button-response","7","2.0.0","49115","66eb481a5a94ea27373200b1","1","5","11934","","","","","","","","","<img src= ""rock_img/I_Peridotite_06.jpg"" style=""width:8cm; height:7.53cm;""><p>What type of rock is this?</p>","2","class_response","0","test","1","Diorite","Peridotite","06","false","3","7","",""
"","","","","","","","","","","","html-keyboard-response","8","2.0.0","49621","66eb481a5a94ea27373200b1","1","5","null","","","","","","","","","<p style='font-size: 30px;'><strong>Okay</strong></p>","null","neutral_feedback","0","test","1","","","","","","","",""
"","","","","","","","","","","","html-button-response","9","2.0.0","57036","66eb481a5a94ea27373200b1","1","5","7412","","","","","","","","","<img src= ""rock_img/I_Basalt_16.jpg"" style=""width:8cm; height:7.659999999999999cm;""><p>What type of rock is this?</p>","7","class_response","0","test","2","Pumice","Basalt","16","false","8","2","",""
"","","","","","","","","","","","html-keyboard-response","10","2.0.0","57538","66eb481a5a94ea27373200b1","1","5","null","","","","","","","","","<p style='font-size: 30px;'><strong>Okay</strong></p>","null","neutral_feedback","0","test","2","","","","","","","",""
"","","","","","","","","","","","html-button-response","11","2.0.0","63470","66eb481a5a94ea27373200b1","1","5","5931","","","","","","","","","<img src= ""rock_img/I_Andesite_02.jpg"" style=""width:8cm; height:8.5cm;""><p>What type of rock is this?</p>","1","class_response","0","test","3","Basalt","Andesite","02","false","2","1","",""
"","","","","","","","","","","","html-keyboard-response","12","2.0.0","63983","66eb481a5a94ea27373200b1","1","5","null","","","","","","","","","<p style='font-size: 30px;'><strong>Okay</strong></p>","null","neutral_feedback","0","test","3","","","","","","","",""
"","","","","","","","","","","","html-button-response","13","2.0.0","65454","66eb481a5a94ea27373200b1","1","5","1470","","","","","","","","","<img src= ""rock_img/I_Pumice_10.jpg"" style=""width:8cm; height:7.609999999999999cm;""><p>What type of rock is this?</p>","7","class_response","0","test","4","Pumice","Pumice","10","true","8","8","",""
"","","","","","","","","","","","html-keyboard-response","14","2.0.0","65957","66eb481a5a94ea27373200b1","1","5","null","","","","","","","","","<p style='font-size: 30px;'><strong>Okay</strong></p>","null","neutral_feedback","0","test","4","","","","","","","",""
"","","","","","","","","","","","html-button-response","15","2.0.0","72414","66eb481a5a94ea27373200b1","1","5","6455","","","","","","","","","<img src= ""rock_img/I_Diorite_07.jpg"" style=""width:8cm; height:5.239999999999999cm;""><p>What type of rock is this?</p>","5","class_response","0","test","5","Pegmatite","Diorite","07","false","6","3","",""
"","","","","","","","","","","","html-keyboard-response","16","2.0.0","72918","66eb481a5a94ea27373200b1","1","5","null","","","","","","","","","<p style='font-size: 30px;'><strong>Okay</strong></p>","null","neutral_feedback","0","test","5","","","","","","","",""
"","","","","","","","","","","","html-button-response","17","2.0.0","75829","66eb481a5a94ea27373200b1","1","5","2910","","","","","","","","","<img src= ""rock_img/I_Pumice_06.jpg"" style=""width:8cm; height:6.9399999999999995cm;""><p>What type of rock is this?</p>","7","class_response","0","test","6","Pumice","Pumice","06","true","8","8","",""
"","","","","","","","","","","","html-keyboard-response","18","2.0.0","76343","66eb481a5a94ea27373200b1","1","5","null","","","","","","","","","<p style='font-size: 30px;'><strong>Okay</strong></p>","null","neutral_feedback","0","test","6","","","","","","","",""
"","","","","","","","","","","","html-button-response","19","2.0.0","80912","66eb481a5a94ea27373200b1","1","5","4567","","","","","","","","","<img src= ""rock_img/I_Basalt_02.jpg"" style=""width:8cm; height:6.45cm;""><p>What type of rock is this?</p>","1","class_response","0","test","7","Basalt","Basalt","02","true","2","2","",""
"","","","","","","","","","","","html-keyboard-response","20","2.0.0","81421","66eb481a5a94ea27373200b1","1","5","null","","","","","","","","","<p style='font-size: 30px;'><strong>Okay</strong></p>","null","neutral_feedback","0","test","7","","","","","","","",""
"","","","","","","","","","","","html-button-response","21","2.0.0","83760","66eb481a5a94ea27373200b1","1","5","2338","","","","","","","","","<img src= ""rock_img/I_Basalt_01.jpg"" style=""width:8cm; height:7.880000000000001cm;""><p>What type of rock is this?</p>","4","class_response","0","test","8","Obsidian","Basalt","01","false","5","2","",""
"","","","","","","","","","","","html-keyboard-response","22","2.0.0","84265","66eb481a5a94ea27373200b1","1","5","null","","","","","","","","","<p style='font-size: 30px;'><strong>Okay</strong></p>","null","neutral_feedback","0","test","8","","","","","","","",""
"","","","","","","","","","","","html-button-response","23","2.0.0","88313","66eb481a5a94ea27373200b1","1","5","4048","","","","","","","","","<img src= ""rock_img/I_Pegmatite_07.jpg"" style=""width:8cm; height:6.7cm;""><p>What type of rock is this?</p>","2","class_response","0","test","9","Diorite","Pegmatite","07","false","3","6","",""
"","","","","","","","","","","","html-keyboard-response","24","2.0.0","88824","66eb481a5a94ea27373200b1","1","5","null","","","","","","","","","<p style='font-size: 30px;'><strong>Okay</strong></p>","null","neutral_feedback","0","test","9","","","","","","","",""
"","","","","","","","","","","","html-button-response","25","2.0.0","90185","66eb481a5a94ea27373200b1","1","5","1360","","","","","","","","","<img src= ""rock_img/I_Pumice_09.jpg"" style=""width:8cm; height:6.44cm;""><p>What type of rock is this?</p>","7","class_response","0","test","10","Pumice","Pumice","09","true","8","8","",""
"","","","","","","","","","","","html-keyboard-response","26","2.0.0","90695","66eb481a5a94ea27373200b1","1","5","null","","","","","","","","","<p style='font-size: 30px;'><strong>Okay</strong></p>","null","neutral_feedback","0","test","10","","","","","","","",""
"","","","","","","","","","","","html-button-response","27","2.0.0","92382","66eb481a5a94ea27373200b1","1","5","1686","","","","","","","","","<img src= ""rock_img/I_Gabbro_15.jpg"" style=""width:8cm; height:6.29cm;""><p>What type of rock is this?</p>","3","class_response","0","test","11","Gabbro","Gabbro","15","true","4","4","",""
"","","","","","","","","","","","html-keyboard-response","28","2.0.0","92884","66eb481a5a94ea27373200b1","1","5","null","","","","","","","","","<p style='font-size: 30px;'><strong>Okay</strong></p>","null","neutral_feedback","0","test","11","","","","","","","",""
"","","","","","","","","","","","html-button-response","29","2.0.0","95016","66eb481a5a94ea27373200b1","1","5","2131","","","","","","","","","<img src= ""rock_img/I_Pegmatite_03.jpg"" style=""width:8cm; height:5.239999999999999cm;""><p>What type of rock is this?</p>","0","class_response","0","test","12","Andesite","Pegmatite","03","false","1","6","",""
"","","","","","","","","","","","html-keyboard-response","30","2.0.0","95525","66eb481a5a94ea27373200b1","1","5","null","","","","","","","","","<p style='font-size: 30px;'><strong>Okay</strong></p>","null","neutral_feedback","0","test","12","","","","","","","",""
"","","","","","","","","","","","html-button-response","31","2.0.0","97375","66eb481a5a94ea27373200b1","1","5","1848","","","","","","","","","<img src= ""rock_img/I_Pumice_02.jpg"" style=""width:8cm; height:7.3999999999999995cm;""><p>What type of rock is this?</p>","7","class_response","0","test","13","Pumice","Pumice","02","true","8","8","",""
"","","","","","","","","","","","html-keyboard-response","32","2.0.0","97883","66eb481a5a94ea27373200b1","1","5","null","","","","","","","","","<p style='font-size: 30px;'><strong>Okay</strong></p>","null","neutral_feedback","0","test","13","","","","","","","",""
"","","","","","","","","","","","html-button-response","33","2.0.0","99765","66eb481a5a94ea27373200b1","1","5","1881","","","","","","","","","<img src= ""rock_img/I_Obsidian_10.jpg"" style=""width:8cm; height:6.260000000000001cm;""><p>What type of rock is this?</p>","4","class_response","0","test","14","Obsidian","Obsidian","10","true","5","5","",""
"","","","","","","","","","","","html-keyboard-response","34","2.0.0","100278","66eb481a5a94ea27373200b1","1","5","null","","","","","","","","","<p style='font-size: 30px;'><strong>Okay</strong></p>","null","neutral_feedback","0","test","14","","","","","","","",""
"","","","","","","","","","","","html-button-response","35","2.0.0","103485","66eb481a5a94ea27373200b1","1","5","3207","","","","","","","","","<img src= ""rock_img/I_Pegmatite_09.jpg"" style=""width:8cm; height:4.03cm;""><p>What type of rock is this?</p>","5","class_response","0","test","15","Pegmatite","Pegmatite","09","true","6","6","",""
"","","","","","","","","","","","html-keyboard-response","36","2.0.0","103999","66eb481a5a94ea27373200b1","1","5","null","","","","","","","","","<p style='font-size: 30px;'><strong>Okay</strong></p>","null","neutral_feedback","0","test","15","","","","","","","",""
"","","","","","","","","","","","html-button-response","37","2.0.0","105419","66eb481a5a94ea27373200b1","1","5","1419","","","","","","","","","<img src= ""rock_img/I_Peridotite_16.jpg"" style=""width:8cm; height:6.989999999999999cm;""><p>What type of rock is this?</p>","2","class_response","0","test","16","Diorite","Peridotite","16","false","3","7","",""
"","","","","","","","","","","","html-keyboard-response","38","2.0.0","105934","66eb481a5a94ea27373200b1","1","5","null","","","","","","","","","<p style='font-size: 30px;'><strong>Okay</strong></p>","null","neutral_feedback","0","test","16","","","","","","","",""
"","","","","","","","","","","","html-button-response","39","2.0.0","108139","66eb481a5a94ea27373200b1","1","5","2205","","","","","","","","","<img src= ""rock_img/I_Peridotite_15.jpg"" style=""width:8cm; height:6cm;""><p>What type of rock is this?</p>","6","class_response","0","test","17","Peridotite","Peridotite","15","true","7","7","",""
"","","","","","","","","","","","html-keyboard-response","40","2.0.0","108644","66eb481a5a94ea27373200b1","1","5","null","","","","","","","","","<p style='font-size: 30px;'><strong>Okay</strong></p>","null","neutral_feedback","0","test","17","","","","","","","",""
"","","","","","","","","","","","html-button-response","41","2.0.0","111106","66eb481a5a94ea27373200b1","1","5","2461","","","","","","","","","<img src= ""rock_img/I_Basalt_12.jpg"" style=""width:8cm; height:6.010000000000001cm;""><p>What type of rock is this?</p>","1","class_response","0","test","18","Basalt","Basalt","12","true","2","2","",""
"","","","","","","","","","","","html-keyboard-response","42","2.0.0","111608","66eb481a5a94ea27373200b1","1","5","null","","","","","","","","","<p style='font-size: 30px;'><strong>Okay</strong></p>","null","neutral_feedback","0","test","18","","","","","","","",""
"","","","","","","","","","","","html-button-response","43","2.0.0","113639","66eb481a5a94ea27373200b1","1","5","2030","","","","","","","","","<img src= ""rock_img/I_Diorite_11.jpg"" style=""width:8cm; height:7.11cm;""><p>What type of rock is this?</p>","2","class_response","0","test","19","Diorite","Diorite","11","true","3","3","",""
"","","","","","","","","","","","html-keyboard-response","44","2.0.0","114153","66eb481a5a94ea27373200b1","1","5","null","","","","","","","","","<p style='font-size: 30px;'><strong>Okay</strong></p>","null","neutral_feedback","0","test","19","","","","","","","",""
"","","","","","","","","","","","html-button-response","45","2.0.0","115471","66eb481a5a94ea27373200b1","1","5","1318","","","","","","","","","<img src= ""rock_img/I_Andesite_03.jpg"" style=""width:8cm; height:5.73cm;""><p>What type of rock is this?</p>","3","class_response","0","test","20","Gabbro","Andesite","03","false","4","1","",""
"","","","","","","","","","","","html-keyboard-response","46","2.0.0","115980","66eb481a5a94ea27373200b1","1","5","null","","","","","","","","","<p style='font-size: 30px;'><strong>Okay</strong></p>","null","neutral_feedback","0","test","20","","","","","","","",""
"","","","","","","","","","","","html-button-response","47","2.0.0","118009","66eb481a5a94ea27373200b1","1","5","2029","","","","","","","","","<img src= ""rock_img/I_Diorite_16.jpg"" style=""width:8cm; height:6.74cm;""><p>What type of rock is this?</p>","6","class_response","0","test","21","Peridotite","Diorite","16","false","7","3","",""
"","","","","","","","","","","","html-keyboard-response","48","2.0.0","118517","66eb481a5a94ea27373200b1","1","5","null","","","","","","","","","<p style='font-size: 30px;'><strong>Okay</strong></p>","null","neutral_feedback","0","test","21","","","","","","","",""
"","","","","","","","","","","","html-button-response","49","2.0.0","119998","66eb481a5a94ea27373200b1","1","5","1480","","","","","","","","","<img src= ""rock_img/I_Diorite_12.jpg"" style=""width:8cm; height:4.88cm;""><p>What type of rock is this?</p>","6","class_response","0","test","22","Peridotite","Diorite","12","false","7","3","",""
"","","","","","","","","","","","html-keyboard-response","50","2.0.0","120560","66eb481a5a94ea27373200b1","1","5","null","","","","","","","","","<p style='font-size: 30px;'><strong>Okay</strong></p>","null","neutral_feedback","0","test","22","","","","","","","",""
"","","","","","","","","","","","html-button-response","51","2.0.0","123583","66eb481a5a94ea27373200b1","1","5","3021","","","","","","","","","<img src= ""rock_img/I_Gabbro_01.jpg"" style=""width:8cm; height:5.21cm;""><p>What type of rock is this?</p>","0","class_response","0","test","23","Andesite","Gabbro","01","false","1","4","",""
"","","","","","","","","","","","html-keyboard-response","52","2.0.0","124098","66eb481a5a94ea27373200b1","1","5","null","","","","","","","","","<p style='font-size: 30px;'><strong>Okay</strong></p>","null","neutral_feedback","0","test","23","","","","","","","",""
"","","","","","","","","","","","html-button-response","53","2.0.0","125937","66eb481a5a94ea27373200b1","1","5","1837","","","","","","","","","<img src= ""rock_img/I_Pumice_13.jpg"" style=""width:8cm; height:8.200000000000001cm;""><p>What type of rock is this?</p>","7","class_response","0","test","24","Pumice","Pumice","13","true","8","8","",""
"","","","","","","","","","","","html-keyboard-response","54","2.0.0","126452","66eb481a5a94ea27373200b1","1","5","null","","","","","","","","","<p style='font-size: 30px;'><strong>Okay</strong></p>","null","neutral_feedback","0","test","24","","","","","","","",""
"","","","","","","","","","","","html-button-response","55","2.0.0","127947","66eb481a5a94ea27373200b1","1","5","1494","","","","","","","","","<img src= ""rock_img/I_Obsidian_07.jpg"" style=""width:8cm; height:4.76cm;""><p>What type of rock is this?</p>","4","class_response","0","test","25","Obsidian","Obsidian","07","true","5","5","",""
"","","","","","","","","","","","html-keyboard-response","56","2.0.0","128455","66eb481a5a94ea27373200b1","1","5","null","","","","","","","","","<p style='font-size: 30px;'><strong>Okay</strong></p>","null","neutral_feedback","0","test","25","","","","","","","",""
"","","","","","","","","","","","html-button-response","57","2.0.0","130161","66eb481a5a94ea27373200b1","1","5","1706","","","","","","","","","<img src= ""rock_img/I_Gabbro_05.jpg"" style=""width:8cm; height:6cm;""><p>What type of rock is this?</p>","1","class_response","0","test","26","Basalt","Gabbro","05","false","2","4","",""
"","","","","","","","","","","","html-keyboard-response","58","2.0.0","130670","66eb481a5a94ea27373200b1","1","5","null","","","","","","","","","<p style='font-size: 30px;'><strong>Okay</strong></p>","null","neutral_feedback","0","test","26","","","","","","","",""
"","","","","","","","","","","","html-button-response","59","2.0.0","131782","66eb481a5a94ea27373200b1","1","5","1111","","","","","","","","","<img src= ""rock_img/I_Obsidian_11.jpg"" style=""width:8cm; height:6.05cm;""><p>What type of rock is this?</p>","4","class_response","0","test","27","Obsidian","Obsidian","11","true","5","5","",""
"","","","","","","","","","","","html-keyboard-response","60","2.0.0","132294","66eb481a5a94ea27373200b1","1","5","null","","","","","","","","","<p style='font-size: 30px;'><strong>Okay</strong></p>","null","neutral_feedback","0","test","27","","","","","","","",""
"","","","","","","","","","","","html-button-response","61","2.0.0","134616","66eb481a5a94ea27373200b1","1","5","2322","","","","","","","","","<img src= ""rock_img/I_Andesite_06.jpg"" style=""width:8cm; height:6.840000000000001cm;""><p>What type of rock is this?</p>","2","class_response","0","test","28","Diorite","Andesite","06","false","3","1","",""
"","","","","","","","","","","","html-keyboard-response","62","2.0.0","135124","66eb481a5a94ea27373200b1","1","5","null","","","","","","","","","<p style='font-size: 30px;'><strong>Okay</strong></p>","null","neutral_feedback","0","test","28","","","","","","","",""
"","","","","","","","","","","","html-button-response","63","2.0.0","139136","66eb481a5a94ea27373200b1","1","5","4011","","","","","","","","","<img src= ""rock_img/I_Gabbro_16.jpg"" style=""width:8cm; height:6.44cm;""><p>What type of rock is this?</p>","3","class_response","0","test","29","Gabbro","Gabbro","16","true","4","4","",""
"","","","","","","","","","","","html-keyboard-response","64","2.0.0","139638","66eb481a5a94ea27373200b1","1","5","null","","","","","","","","","<p style='font-size: 30px;'><strong>Okay</strong></p>","null","neutral_feedback","0","test","29","","","","","","","",""
"","","","","","","","","","","","html-button-response","65","2.0.0","142606","66eb481a5a94ea27373200b1","1","5","2967","","","","","","","","","<img src= ""rock_img/I_Obsidian_05.jpg"" style=""width:8cm; height:6.33cm;""><p>What type of rock is this?</p>","6","class_response","0","test","30","Peridotite","Obsidian","05","false","7","5","",""
"","","","","","","","","","","","html-keyboard-response","66","2.0.0","143112","66eb481a5a94ea27373200b1","1","5","null","","","","","","","","","<p style='font-size: 30px;'><strong>Okay</strong></p>","null","neutral_feedback","0","test","30","","","","","","","",""
"","","","","","","","","","","","html-button-response","67","2.0.0","145174","66eb481a5a94ea27373200b1","1","5","2062","","","","","","","","","<img src= ""rock_img/I_Pegmatite_16.jpg"" style=""width:8cm; height:5.8cm;""><p>What type of rock is this?</p>","2","class_response","0","test","31","Diorite","Pegmatite","16","false","3","6","",""
"","","","","","","","","","","","html-keyboard-response","68","2.0.0","145687","66eb481a5a94ea27373200b1","1","5","null","","","","","","","","","<p style='font-size: 30px;'><strong>Okay</strong></p>","null","neutral_feedback","0","test","31","","","","","","","",""
"","","","","","","","","","","","html-button-response","69","2.0.0","146834","66eb481a5a94ea27373200b1","1","5","1146","","","","","","","","","<img src= ""rock_img/I_Obsidian_16.jpg"" style=""width:8cm; height:9.3cm;""><p>What type of rock is this?</p>","4","class_response","0","test","32","Obsidian","Obsidian","16","true","5","5","",""
"","","","","","","","","","","","html-keyboard-response","70","2.0.0","147349","66eb481a5a94ea27373200b1","1","5","null","","","","","","","","","<p style='font-size: 30px;'><strong>Okay</strong></p>","null","neutral_feedback","0","test","32","","","","","","","",""
"","","","","","","","","","","","html-button-response","71","2.0.0","148348","66eb481a5a94ea27373200b1","1","5","998","","","","","","","","","<img src= ""rock_img/I_Diorite_09.jpg"" style=""width:8cm; height:5.27cm;""><p>What type of rock is this?</p>","5","class_response","0","test","33","Pegmatite","Diorite","09","false","6","3","",""
"","","","","","","","","","","","html-keyboard-response","72","2.0.0","148852","66eb481a5a94ea27373200b1","1","5","null","","","","","","","","","<p style='font-size: 30px;'><strong>Okay</strong></p>","null","neutral_feedback","0","test","33","","","","","","","",""
"","","","","","","","","","","","html-button-response","73","2.0.0","150047","66eb481a5a94ea27373200b1","1","5","1195","","","","","","","","","<img src= ""rock_img/I_Andesite_09.jpg"" style=""width:8cm; height:6cm;""><p>What type of rock is this?</p>","1","class_response","0","test","34","Basalt","Andesite","09","false","2","1","",""
"","","","","","","","","","","","html-keyboard-response","74","2.0.0","150559","66eb481a5a94ea27373200b1","1","5","null","","","","","","","","","<p style='font-size: 30px;'><strong>Okay</strong></p>","null","neutral_feedback","0","test","34","","","","","","","",""
"","","","","","","","","","","","html-button-response","75","2.0.0","151612","66eb481a5a94ea27373200b1","1","5","1052","","","","","","","","","<img src= ""rock_img/I_Basalt_11.jpg"" style=""width:8cm; height:5.359999999999999cm;""><p>What type of rock is this?</p>","1","class_response","0","test","35","Basalt","Basalt","11","true","2","2","",""
"","","","","","","","","","","","html-keyboard-response","76","2.0.0","152113","66eb481a5a94ea27373200b1","1","5","null","","","","","","","","","<p style='font-size: 30px;'><strong>Okay</strong></p>","null","neutral_feedback","0","test","35","","","","","","","",""
"","","","","","","","","","","","html-button-response","77","2.0.0","153987","66eb481a5a94ea27373200b1","1","5","1873","","","","","","","","","<img src= ""rock_img/I_Pegmatite_11.jpg"" style=""width:8cm; height:8.14cm;""><p>What type of rock is this?</p>","2","class_response","0","test","36","Diorite","Pegmatite","11","false","3","6","",""
"","","","","","","","","","","","html-keyboard-response","78","2.0.0","154492","66eb481a5a94ea27373200b1","1","5","null","","","","","","","","","<p style='font-size: 30px;'><strong>Okay</strong></p>","null","neutral_feedback","0","test","36","","","","","","","",""
"","","","","","","","","","","","html-button-response","79","2.0.0","157352","66eb481a5a94ea27373200b1","1","5","2861","","","","","","","","","<img src= ""rock_img/I_Gabbro_03.jpg"" style=""width:8cm; height:8.52cm;""><p>What type of rock is this?</p>","1","class_response","0","test","37","Basalt","Gabbro","03","false","2","4","",""
"","","","","","","","","","","","html-keyboard-response","80","2.0.0","157862","66eb481a5a94ea27373200b1","1","5","null","","","","","","","","","<p style='font-size: 30px;'><strong>Okay</strong></p>","null","neutral_feedback","0","test","37","","","","","","","",""
"","","","","","","","","","","","html-button-response","81","2.0.0","159495","66eb481a5a94ea27373200b1","1","5","1632","","","","","","","","","<img src= ""rock_img/I_Gabbro_08.jpg"" style=""width:8cm; height:5.15cm;""><p>What type of rock is this?</p>","0","class_response","0","test","38","Andesite","Gabbro","08","false","1","4","",""
"","","","","","","","","","","","html-keyboard-response","82","2.0.0","160006","66eb481a5a94ea27373200b1","1","5","null","","","","","","","","","<p style='font-size: 30px;'><strong>Okay</strong></p>","null","neutral_feedback","0","test","38","","","","","","","",""
"","","","","","","","","","","","html-button-response","83","2.0.0","164075","66eb481a5a94ea27373200b1","1","5","4068","","","","","","","","","<img src= ""rock_img/I_Pegmatite_12.jpg"" style=""width:8cm; height:5.7cm;""><p>What type of rock is this?</p>","5","class_response","0","test","39","Pegmatite","Pegmatite","12","true","6","6","",""
"","","","","","","","","","","","html-keyboard-response","84","2.0.0","164591","66eb481a5a94ea27373200b1","1","5","null","","","","","","","","","<p style='font-size: 30px;'><strong>Okay</strong></p>","null","neutral_feedback","0","test","39","","","","","","","",""
"","","","","","","","","","","","html-button-response","85","2.0.0","166663","66eb481a5a94ea27373200b1","1","5","2072","","","","","","","","","<img src= ""rock_img/I_Peridotite_07.jpg"" style=""width:8cm; height:4.83cm;""><p>What type of rock is this?</p>","6","class_response","0","test","40","Peridotite","Peridotite","07","true","7","7","",""
"","","","","","","","","","","","html-keyboard-response","86","2.0.0","167166","66eb481a5a94ea27373200b1","1","5","null","","","","","","","","","<p style='font-size: 30px;'><strong>Okay</strong></p>","null","neutral_feedback","0","test","40","","","","","","","",""
"","","","","","","","","","","","html-button-response","87","2.0.0","168248","66eb481a5a94ea27373200b1","1","5","1081","","","","","","","","","<img src= ""rock_img/I_Peridotite_10.jpg"" style=""width:8cm; height:5.390000000000001cm;""><p>What type of rock is this?</p>","6","class_response","0","test","41","Peridotite","Peridotite","10","true","7","7","",""
"","","","","","","","","","","","html-keyboard-response","88","2.0.0","168751","66eb481a5a94ea27373200b1","1","5","null","","","","","","","","","<p style='font-size: 30px;'><strong>Okay</strong></p>","null","neutral_feedback","0","test","41","","","","","","","",""
"","","","","","","","","","","","html-button-response","89","2.0.0","169899","66eb481a5a94ea27373200b1","1","5","1148","","","","","","","","","<img src= ""rock_img/I_Pumice_05.jpg"" style=""width:8cm; height:7.25cm;""><p>What type of rock is this?</p>","7","class_response","0","test","42","Pumice","Pumice","05","true","8","8","",""
"","","","","","","","","","","","html-keyboard-response","90","2.0.0","170409","66eb481a5a94ea27373200b1","1","5","null","","","","","","","","","<p style='font-size: 30px;'><strong>Okay</strong></p>","null","neutral_feedback","0","test","42","","","","","","","",""
"","","","","","","","","","","","html-button-response","91","2.0.0","171692","66eb481a5a94ea27373200b1","1","5","1282","","","","","","","","","<img src= ""rock_img/I_Obsidian_09.jpg"" style=""width:8cm; height:5cm;""><p>What type of rock is this?</p>","4","class_response","0","test","43","Obsidian","Obsidian","09","true","5","5","",""
"","","","","","","","","","","","html-keyboard-response","92","2.0.0","172201","66eb481a5a94ea27373200b1","1","5","null","","","","","","","","","<p style='font-size: 30px;'><strong>Okay</strong></p>","null","neutral_feedback","0","test","43","","","","","","","",""
"","","","","","","","","","","","html-button-response","93","2.0.0","176447","66eb481a5a94ea27373200b1","1","5","4246","","","","","","","","","<img src= ""rock_img/I_Peridotite_02.jpg"" style=""width:8cm; height:5.859999999999999cm;""><p>What type of rock is this?</p>","5","class_response","0","test","44","Pegmatite","Peridotite","02","false","6","7","",""
"","","","","","","","","","","","html-keyboard-response","94","2.0.0","176963","66eb481a5a94ea27373200b1","1","5","null","","","","","","","","","<p style='font-size: 30px;'><strong>Okay</strong></p>","null","neutral_feedback","0","test","44","","","","","","","",""
"","","","","","","","","","","","html-button-response","95","2.0.0","180693","66eb481a5a94ea27373200b1","1","5","3729","","","","","","","","","<img src= ""rock_img/I_Andesite_01.jpg"" style=""width:8cm; height:5.87cm;""><p>What type of rock is this?</p>","1","class_response","0","test","45","Basalt","Andesite","01","false","2","1","",""
"","","","","","","","","","","","html-keyboard-response","96","2.0.0","181194","66eb481a5a94ea27373200b1","1","5","null","","","","","","","","","<p style='font-size: 30px;'><strong>Okay</strong></p>","null","neutral_feedback","0","test","45","","","","","","","",""
"","","","","","","","","","","","html-button-response","97","2.0.0","184354","66eb481a5a94ea27373200b1","1","5","3159","","","","","","","","","<img src= ""rock_img/I_Diorite_15.jpg"" style=""width:8cm; height:5.54cm;""><p>What type of rock is this?</p>","0","class_response","0","test","46","Andesite","Diorite","15","false","1","3","",""
"","","","","","","","","","","","html-keyboard-response","98","2.0.0","184856","66eb481a5a94ea27373200b1","1","5","null","","","","","","","","","<p style='font-size: 30px;'><strong>Okay</strong></p>","null","neutral_feedback","0","test","46","","","","","","","",""
"","","","","","","","","","","","html-button-response","99","2.0.0","186113","66eb481a5a94ea27373200b1","1","5","1255","","","","","","","","","<img src= ""rock_img/I_Andesite_11.jpg"" style=""width:8cm; height:4.92cm;""><p>What type of rock is this?</p>","2","class_response","0","test","47","Diorite","Andesite","11","false","3","1","",""
"","","","","","","","","","","","html-keyboard-response","100","2.0.0","186618","66eb481a5a94ea27373200b1","1","5","null","","","","","","","","","<p style='font-size: 30px;'><strong>Okay</strong></p>","null","neutral_feedback","0","test","47","","","","","","","",""
"","","","","","","","","","","","html-button-response","101","2.0.0","188615","66eb481a5a94ea27373200b1","1","5","1998","","","","","","","","","<img src= ""rock_img/I_Basalt_04.jpg"" style=""width:8cm; height:7.53cm;""><p>What type of rock is this?</p>","1","class_response","0","test","48","Basalt","Basalt","04","true","2","2","",""
"","","","","","","","","","","","html-keyboard-response","102","2.0.0","189129","66eb481a5a94ea27373200b1","1","5","null","","","","","","","","","<p style='font-size: 30px;'><strong>Okay</strong></p>","null","neutral_feedback","0","test","48","","","","","","","",""
"","","","","","","","","","","","instructions","103","2.0.0","202380","66eb481a5a94ea27373200b1","1","5","13231","","","","","","","","[{""page_index"":0,""viewing_time"":9406},{""page_index"":1,""viewing_time"":1913},{""page_index"":2,""viewing_time"":1912}]","","","","","","","","","","","","","",""
"","","","","","","","","","","","html-button-response","104","2.0.0","205107","66eb481a5a94ea27373200b1","1","5","2726","","","","","","","","","","0","start_train","","","","","","","","","","",""
"","","","","","","","","","","","html-button-response","105","2.0.0","207419","66eb481a5a94ea27373200b1","1","5","2311","","","","","","","","","<img src= ""rock_img/I_Andesite_16.jpg"" style=""width:8cm; height:6.010000000000001cm;""><p>What type of rock is this?</p>","1","class_response","1","train","1","Basalt","Andesite","16","false","2","1","",""
"","","","","","","","","","","","html-button-response","106","2.0.0","209918","66eb481a5a94ea27373200b1","1","5","2498","","","","","","","","","<img src= rock_img/I_Andesite_16.jpg style=""width:8cm; height:6.010000000000001cm;""><p style='font-size: 30px; color: red;'><strong>Incorrect!</strong></p><p style='font-size: 30px;'><strong>This rock is andesite</strong></p>","0","corr_feedback","1","train","1","","","","","","","",""
"","","","","","","","","","","","html-button-response","107","2.0.0","211279","66eb481a5a94ea27373200b1","1","5","1360","","","","","","","","","<img src= ""rock_img/I_Pumice_08.jpg"" style=""width:8cm; height:6.67cm;""><p>What type of rock is this?</p>","7","class_response","1","train","2","Pumice","Pumice","08","true","8","8","",""
"","","","","","","","","","","","html-button-response","108","2.0.0","212024","66eb481a5a94ea27373200b1","1","5","744","","","","","","","","","<img src= rock_img/I_Pumice_08.jpg style=""width:8cm; height:6.67cm;""><p style='font-size: 30px; color: green;'><strong>Correct!</strong></p><p style='font-size: 30px;'><strong>This rock is pumice</strong></p>","0","corr_feedback","1","train","2","","","","","","","",""
"","","","","","","","","","","","html-button-response","109","2.0.0","214383","66eb481a5a94ea27373200b1","1","5","2358","","","","","","","","","<img src= ""rock_img/I_Diorite_14.jpg"" style=""width:8cm; height:5.71cm;""><p>What type of rock is this?</p>","2","class_response","1","train","3","Diorite","Diorite","14","true","3","3","",""
"","","","","","","","","","","","html-button-response","110","2.0.0","215604","66eb481a5a94ea27373200b1","1","5","1220","","","","","","","","","<img src= rock_img/I_Diorite_14.jpg style=""width:8cm; height:5.71cm;""><p style='font-size: 30px; color: green;'><strong>Correct!</strong></p><p style='font-size: 30px;'><strong>This rock is diorite</strong></p>","0","corr_feedback","1","train","3","","","","","","","",""
"","","","","","","","","","","","html-button-response","111","2.0.0","216935","66eb481a5a94ea27373200b1","1","5","1330","","","","","","","","","<img src= ""rock_img/I_Obsidian_14.jpg"" style=""width:8cm; height:7.64cm;""><p>What type of rock is this?</p>","4","class_response","1","train","4","Obsidian","Obsidian","14","true","5","5","",""
"","","","","","","","","","","","html-button-response","112","2.0.0","217487","66eb481a5a94ea27373200b1","1","5","551","","","","","","","","","<img src= rock_img/I_Obsidian_14.jpg style=""width:8cm; height:7.64cm;""><p style='font-size: 30px; color: green;'><strong>Correct!</strong></p><p style='font-size: 30px;'><strong>This rock is obsidian</strong></p>","0","corr_feedback","1","train","4","","","","","","","",""
"","","","","","","","","","","","html-button-response","113","2.0.0","219188","66eb481a5a94ea27373200b1","1","5","1700","","","","","","","","","<img src= ""rock_img/I_Peridotite_08.jpg"" style=""width:8cm; height:6.7cm;""><p>What type of rock is this?</p>","6","class_response","1","train","5","Peridotite","Peridotite","08","true","7","7","",""
"","","","","","","","","","","","html-button-response","114","2.0.0","220218","66eb481a5a94ea27373200b1","1","5","1029","","","","","","","","","<img src= rock_img/I_Peridotite_08.jpg style=""width:8cm; height:6.7cm;""><p style='font-size: 30px; color: green;'><strong>Correct!</strong></p><p style='font-size: 30px;'><strong>This rock is peridotite</strong></p>","0","corr_feedback","1","train","5","","","","","","","",""
"","","","","","","","","","","","html-button-response","115","2.0.0","222568","66eb481a5a94ea27373200b1","1","5","2349","","","","","","","","","<img src= ""rock_img/I_Andesite_04.jpg"" style=""width:8cm; height:5.96cm;""><p>What type of rock is this?</p>","5","class_response","1","train","6","Pegmatite","Andesite","04","false","6","1","",""
"","","","","","","","","","","","html-button-response","116","2.0.0","224633","66eb481a5a94ea27373200b1","1","5","2064","","","","","","","","","<img src= rock_img/I_Andesite_04.jpg style=""width:8cm; height:5.96cm;""><p style='font-size: 30px; color: red;'><strong>Incorrect!</strong></p><p style='font-size: 30px;'><strong>This rock is andesite</strong></p>","0","corr_feedback","1","train","6","","","","","","","",""
"","","","","","","","","","","","html-button-response","117","2.0.0","229157","66eb481a5a94ea27373200b1","1","5","4523","","","","","","","","","<img src= ""rock_img/I_Gabbro_10.jpg"" style=""width:8cm; height:5.680000000000001cm;""><p>What type of rock is this?</p>","6","class_response","1","train","7","Peridotite","Gabbro","10","false","7","4","",""
"","","","","","","","","","","","html-button-response","118","2.0.0","230583","66eb481a5a94ea27373200b1","1","5","1425","","","","","","","","","<img src= rock_img/I_Gabbro_10.jpg style=""width:8cm; height:5.680000000000001cm;""><p style='font-size: 30px; color: red;'><strong>Incorrect!</strong></p><p style='font-size: 30px;'><strong>This rock is gabbro</strong></p>","0","corr_feedback","1","train","7","","","","","","","",""
"","","","","","","","","","","","html-button-response","119","2.0.0","232438","66eb481a5a94ea27373200b1","1","5","1854","","","","","","","","","<img src= ""rock_img/I_Gabbro_09.jpg"" style=""width:8cm; height:7.279999999999999cm;""><p>What type of rock is this?</p>","3","class_response","1","train","8","Gabbro","Gabbro","09","true","4","4","",""
"","","","","","","","","","","","html-button-response","120","2.0.0","233311","66eb481a5a94ea27373200b1","1","5","872","","","","","","","","","<img src= rock_img/I_Gabbro_09.jpg style=""width:8cm; height:7.279999999999999cm;""><p style='font-size: 30px; color: green;'><strong>Correct!</strong></p><p style='font-size: 30px;'><strong>This rock is gabbro</strong></p>","0","corr_feedback","1","train","8","","","","","","","",""
"","","","","","","","","","","","html-button-response","121","2.0.0","236129","66eb481a5a94ea27373200b1","1","5","2818","","","","","","","","","<img src= ""rock_img/I_Peridotite_12.jpg"" style=""width:8cm; height:4.54cm;""><p>What type of rock is this?</p>","0","class_response","1","train","9","Andesite","Peridotite","12","false","1","7","",""
"","","","","","","","","","","","html-button-response","122","2.0.0","238019","66eb481a5a94ea27373200b1","1","5","1888","","","","","","","","","<img src= rock_img/I_Peridotite_12.jpg style=""width:8cm; height:4.54cm;""><p style='font-size: 30px; color: red;'><strong>Incorrect!</strong></p><p style='font-size: 30px;'><strong>This rock is peridotite</strong></p>","0","corr_feedback","1","train","9","","","","","","","",""
"","","","","","","","","","","","html-button-response","123","2.0.0","239039","66eb481a5a94ea27373200b1","1","5","1019","","","","","","","","","<img src= ""rock_img/I_Obsidian_08.jpg"" style=""width:8cm; height:7.39cm;""><p>What type of rock is this?</p>","4","class_response","1","train","10","Obsidian","Obsidian","08","true","5","5","",""
"","","","","","","","","","","","html-button-response","124","2.0.0","239767","66eb481a5a94ea27373200b1","1","5","729","","","","","","","","","<img src= rock_img/I_Obsidian_08.jpg style=""width:8cm; height:7.39cm;""><p style='font-size: 30px; color: green;'><strong>Correct!</strong></p><p style='font-size: 30px;'><strong>This rock is obsidian</strong></p>","0","corr_feedback","1","train","10","","","","","","","",""
"","","","","","","","","","","","html-button-response","125","2.0.0","241301","66eb481a5a94ea27373200b1","1","5","1532","","","","","","","","","<img src= ""rock_img/I_Peridotite_04.jpg"" style=""width:8cm; height:6.680000000000001cm;""><p>What type of rock is this?</p>","2","class_response","1","train","11","Diorite","Peridotite","04","false","3","7","",""
"","","","","","","","","","","","html-button-response","126","2.0.0","243419","66eb481a5a94ea27373200b1","1","5","2116","","","","","","","","","<img src= rock_img/I_Peridotite_04.jpg style=""width:8cm; height:6.680000000000001cm;""><p style='font-size: 30px; color: red;'><strong>Incorrect!</strong></p><p style='font-size: 30px;'><strong>This rock is peridotite</strong></p>","0","corr_feedback","1","train","11","","","","","","","",""
"","","","","","","","","","","","html-button-response","127","2.0.0","247748","66eb481a5a94ea27373200b1","1","5","4330","","","","","","","","","<img src= ""rock_img/I_Peridotite_13.jpg"" style=""width:8cm; height:7.58cm;""><p>What type of rock is this?</p>","6","class_response","1","train","12","Peridotite","Peridotite","13","true","7","7","",""
"","","","","","","","","","","","html-button-response","128","2.0.0","248542","66eb481a5a94ea27373200b1","1","5","792","","","","","","","","","<img src= rock_img/I_Peridotite_13.jpg style=""width:8cm; height:7.58cm;""><p style='font-size: 30px; color: green;'><strong>Correct!</strong></p><p style='font-size: 30px;'><strong>This rock is peridotite</strong></p>","0","corr_feedback","1","train","12","","","","","","","",""
"","","","","","","","","","","","html-button-response","129","2.0.0","253476","66eb481a5a94ea27373200b1","1","5","4933","","","","","","","","","<img src= ""rock_img/I_Basalt_06.jpg"" style=""width:8cm; height:7.06cm;""><p>What type of rock is this?</p>","3","class_response","1","train","13","Gabbro","Basalt","06","false","4","2","",""
"","","","","","","","","","","","html-button-response","130","2.0.0","254548","66eb481a5a94ea27373200b1","1","5","1071","","","","","","","","","<img src= rock_img/I_Basalt_06.jpg style=""width:8cm; height:7.06cm;""><p style='font-size: 30px; color: red;'><strong>Incorrect!</strong></p><p style='font-size: 30px;'><strong>This rock is basalt</strong></p>","0","corr_feedback","1","train","13","","","","","","","",""
"","","","","","","","","","","","html-button-response","131","2.0.0","262198","66eb481a5a94ea27373200b1","1","5","7649","","","","","","","","","<img src= ""rock_img/I_Basalt_14.jpg"" style=""width:8cm; height:5.82cm;""><p>What type of rock is this?</p>","3","class_response","1","train","14","Gabbro","Basalt","14","false","4","2","",""
"","","","","","","","","","","","html-button-response","132","2.0.0","262879","66eb481a5a94ea27373200b1","1","5","680","","","","","","","","","<img src= rock_img/I_Basalt_14.jpg style=""width:8cm; height:5.82cm;""><p style='font-size: 30px; color: red;'><strong>Incorrect!</strong></p><p style='font-size: 30px;'><strong>This rock is basalt</strong></p>","0","corr_feedback","1","train","14","","","","","","","",""
"","","","","","","","","","","","html-button-response","133","2.0.0","264154","66eb481a5a94ea27373200b1","1","5","1275","","","","","","","","","<img src= ""rock_img/I_Obsidian_12.jpg"" style=""width:8cm; height:6.53cm;""><p>What type of rock is this?</p>","4","class_response","1","train","15","Obsidian","Obsidian","12","true","5","5","",""
"","","","","","","","","","","","html-button-response","134","2.0.0","264785","66eb481a5a94ea27373200b1","1","5","628","","","","","","","","","<img src= rock_img/I_Obsidian_12.jpg style=""width:8cm; height:6.53cm;""><p style='font-size: 30px; color: green;'><strong>Correct!</strong></p><p style='font-size: 30px;'><strong>This rock is obsidian</strong></p>","0","corr_feedback","1","train","15","","","","","","","",""
"","","","","","","","","","","","html-button-response","135","2.0.0","268129","66eb481a5a94ea27373200b1","1","5","3343","","","","","","","","","<img src= ""rock_img/I_Gabbro_13.jpg"" style=""width:8cm; height:5.08cm;""><p>What type of rock is this?</p>","2","class_response","1","train","16","Diorite","Gabbro","13","false","3","4","",""
"","","","","","","","","","","","html-button-response","136","2.0.0","269372","66eb481a5a94ea27373200b1","1","5","1242","","","","","","","","","<img src= rock_img/I_Gabbro_13.jpg style=""width:8cm; height:5.08cm;""><p style='font-size: 30px; color: red;'><strong>Incorrect!</strong></p><p style='font-size: 30px;'><strong>This rock is gabbro</strong></p>","0","corr_feedback","1","train","16","","","","","","","",""
"","","","","","","","","","","","html-button-response","137","2.0.0","270652","66eb481a5a94ea27373200b1","1","5","1280","","","","","","","","","<img src= ""rock_img/I_Pumice_16.jpg"" style=""width:8cm; height:6.79cm;""><p>What type of rock is this?</p>","7","class_response","1","train","17","Pumice","Pumice","16","true","8","8","",""
"","","","","","","","","","","","html-button-response","138","2.0.0","271230","66eb481a5a94ea27373200b1","1","5","577","","","","","","","","","<img src= rock_img/I_Pumice_16.jpg style=""width:8cm; height:6.79cm;""><p style='font-size: 30px; color: green;'><strong>Correct!</strong></p><p style='font-size: 30px;'><strong>This rock is pumice</strong></p>","0","corr_feedback","1","train","17","","","","","","","",""
"","","","","","","","","","","","html-button-response","139","2.0.0","275845","66eb481a5a94ea27373200b1","1","5","4613","","","","","","","","","<img src= ""rock_img/I_Diorite_10.jpg"" style=""width:8cm; height:5.949999999999999cm;""><p>What type of rock is this?</p>","0","class_response","1","train","18","Andesite","Diorite","10","false","1","3","",""
"","","","","","","","","","","","html-button-response","140","2.0.0","277201","66eb481a5a94ea27373200b1","1","5","1355","","","","","","","","","<img src= rock_img/I_Diorite_10.jpg style=""width:8cm; height:5.949999999999999cm;""><p style='font-size: 30px; color: red;'><strong>Incorrect!</strong></p><p style='font-size: 30px;'><strong>This rock is diorite</strong></p>","0","corr_feedback","1","train","18","","","","","","","",""
"","","","","","","","","","","","html-button-response","141","2.0.0","279421","66eb481a5a94ea27373200b1","1","5","2218","","","","","","","","","<img src= ""rock_img/I_Basalt_08.jpg"" style=""width:8cm; height:10.44cm;""><p>What type of rock is this?</p>","3","class_response","1","train","19","Gabbro","Basalt","08","false","4","2","",""
"","","","","","","","","","","","html-button-response","142","2.0.0","280426","66eb481a5a94ea27373200b1","1","5","1006","","","","","","","","","<img src= rock_img/I_Basalt_08.jpg style=""width:8cm; height:10.44cm;""><p style='font-size: 30px; color: red;'><strong>Incorrect!</strong></p><p style='font-size: 30px;'><strong>This rock is basalt</strong></p>","0","corr_feedback","1","train","19","","","","","","","",""
"","","","","","","","","","","","html-button-response","143","2.0.0","288179","66eb481a5a94ea27373200b1","1","5","7750","","","","","","","","","<img src= ""rock_img/I_Gabbro_14.jpg"" style=""width:8cm; height:8.48cm;""><p>What type of rock is this?</p>","0","class_response","1","train","20","Andesite","Gabbro","14","false","1","4","",""
"","","","","","","","","","","","html-button-response","144","2.0.0","289127","66eb481a5a94ea27373200b1","1","5","948","","","","","","","","","<img src= rock_img/I_Gabbro_14.jpg style=""width:8cm; height:8.48cm;""><p style='font-size: 30px; color: red;'><strong>Incorrect!</strong></p><p style='font-size: 30px;'><strong>This rock is gabbro</strong></p>","0","corr_feedback","1","train","20","","","","","","","",""
"","","","","","","","","","","","html-button-response","145","2.0.0","290430","66eb481a5a94ea27373200b1","1","5","1303","","","","","","","","","<img src= ""rock_img/I_Pumice_04.jpg"" style=""width:8cm; height:6.819999999999999cm;""><p>What type of rock is this?</p>","7","class_response","1","train","21","Pumice","Pumice","04","true","8","8","",""
"","","","","","","","","","","","html-button-response","146","2.0.0","290949","66eb481a5a94ea27373200b1","1","5","519","","","","","","","","","<img src= rock_img/I_Pumice_04.jpg style=""width:8cm; height:6.819999999999999cm;""><p style='font-size: 30px; color: green;'><strong>Correct!</strong></p><p style='font-size: 30px;'><strong>This rock is pumice</strong></p>","0","corr_feedback","1","train","21","","","","","","","",""
"","","","","","","","","","","","html-button-response","147","2.0.0","292448","66eb481a5a94ea27373200b1","1","5","1497","","","","","","","","","<img src= ""rock_img/I_Peridotite_14.jpg"" style=""width:8cm; height:5.3cm;""><p>What type of rock is this?</p>","6","class_response","1","train","22","Peridotite","Peridotite","14","true","7","7","",""
"","","","","","","","","","","","html-button-response","148","2.0.0","292971","66eb481a5a94ea27373200b1","1","5","522","","","","","","","","","<img src= rock_img/I_Peridotite_14.jpg style=""width:8cm; height:5.3cm;""><p style='font-size: 30px; color: green;'><strong>Correct!</strong></p><p style='font-size: 30px;'><strong>This rock is peridotite</strong></p>","0","corr_feedback","1","train","22","","","","","","","",""
"","","","","","","","","","","","html-button-response","149","2.0.0","297214","66eb481a5a94ea27373200b1","1","5","4242","","","","","","","","","<img src= ""rock_img/I_Basalt_05.jpg"" style=""width:8cm; height:8.18cm;""><p>What type of rock is this?</p>","1","class_response","1","train","23","Basalt","Basalt","05","true","2","2","",""
"","","","","","","","","","","","html-button-response","150","2.0.0","297875","66eb481a5a94ea27373200b1","1","5","660","","","","","","","","","<img src= rock_img/I_Basalt_05.jpg style=""width:8cm; height:8.18cm;""><p style='font-size: 30px; color: green;'><strong>Correct!</strong></p><p style='font-size: 30px;'><strong>This rock is basalt</strong></p>","0","corr_feedback","1","train","23","","","","","","","",""
"","","","","","","","","","","","html-button-response","151","2.0.0","300139","66eb481a5a94ea27373200b1","1","5","2262","","","","","","","","","<img src= ""rock_img/I_Andesite_07.jpg"" style=""width:8cm; height:5.93cm;""><p>What type of rock is this?</p>","2","class_response","1","train","24","Diorite","Andesite","07","false","3","1","",""
"","","","","","","","","","","","html-button-response","152","2.0.0","301339","66eb481a5a94ea27373200b1","1","5","1199","","","","","","","","","<img src= rock_img/I_Andesite_07.jpg style=""width:8cm; height:5.93cm;""><p style='font-size: 30px; color: red;'><strong>Incorrect!</strong></p><p style='font-size: 30px;'><strong>This rock is andesite</strong></p>","0","corr_feedback","1","train","24","","","","","","","",""
"","","","","","","","","","","","html-button-response","153","2.0.0","303663","66eb481a5a94ea27373200b1","1","5","2325","","","","","","","","","<img src= ""rock_img/I_Basalt_09.jpg"" style=""width:8cm; height:6.2cm;""><p>What type of rock is this?</p>","1","class_response","1","train","25","Basalt","Basalt","09","true","2","2","",""
"","","","","","","","","","","","html-button-response","154","2.0.0","304178","66eb481a5a94ea27373200b1","1","5","513","","","","","","","","","<img src= rock_img/I_Basalt_09.jpg style=""width:8cm; height:6.2cm;""><p style='font-size: 30px; color: green;'><strong>Correct!</strong></p><p style='font-size: 30px;'><strong>This rock is basalt</strong></p>","0","corr_feedback","1","train","25","","","","","","","",""
"","","","","","","","","","","","html-button-response","155","2.0.0","308830","66eb481a5a94ea27373200b1","1","5","4650","","","","","","","","","<img src= ""rock_img/I_Gabbro_11.jpg"" style=""width:8cm; height:6.2cm;""><p>What type of rock is this?</p>","1","class_response","1","train","26","Basalt","Gabbro","11","false","2","4","",""
"","","","","","","","","","","","html-button-response","156","2.0.0","309513","66eb481a5a94ea27373200b1","1","5","682","","","","","","","","","<img src= rock_img/I_Gabbro_11.jpg style=""width:8cm; height:6.2cm;""><p style='font-size: 30px; color: red;'><strong>Incorrect!</strong></p><p style='font-size: 30px;'><strong>This rock is gabbro</strong></p>","0","corr_feedback","1","train","26","","","","","","","",""
"","","","","","","","","","","","html-button-response","157","2.0.0","311135","66eb481a5a94ea27373200b1","1","5","1622","","","","","","","","","<img src= ""rock_img/I_Andesite_14.jpg"" style=""width:8cm; height:5.449999999999999cm;""><p>What type of rock is this?</p>","2","class_response","1","train","27","Diorite","Andesite","14","false","3","1","",""
"","","","","","","","","","","","html-button-response","158","2.0.0","312211","66eb481a5a94ea27373200b1","1","5","1076","","","","","","","","","<img src= rock_img/I_Andesite_14.jpg style=""width:8cm; height:5.449999999999999cm;""><p style='font-size: 30px; color: red;'><strong>Incorrect!</strong></p><p style='font-size: 30px;'><strong>This rock is andesite</strong></p>","0","corr_feedback","1","train","27","","","","","","","",""
"","","","","","","","","","","","html-button-response","159","2.0.0","313032","66eb481a5a94ea27373200b1","1","5","821","","","","","","","","","<img src= ""rock_img/I_Pegmatite_10.jpg"" style=""width:8cm; height:4.16cm;""><p>What type of rock is this?</p>","6","class_response","1","train","28","Peridotite","Pegmatite","10","false","7","6","",""
"","","","","","","","","","","","html-button-response","160","2.0.0","314975","66eb481a5a94ea27373200b1","1","5","1942","","","","","","","","","<img src= rock_img/I_Pegmatite_10.jpg style=""width:8cm; height:4.16cm;""><p style='font-size: 30px; color: red;'><strong>Incorrect!</strong></p><p style='font-size: 30px;'><strong>This rock is pegmatite</strong></p>","0","corr_feedback","1","train","28","","","","","","","",""
"","","","","","","","","","","","html-button-response","161","2.0.0","316327","66eb481a5a94ea27373200b1","1","5","1351","","","","","","","","","<img src= ""rock_img/I_Obsidian_06.jpg"" style=""width:8cm; height:6.8cm;""><p>What type of rock is this?</p>","4","class_response","1","train","29","Obsidian","Obsidian","06","true","5","5","",""
"","","","","","","","","","","","html-button-response","162","2.0.0","316862","66eb481a5a94ea27373200b1","1","5","533","","","","","","","","","<img src= rock_img/I_Obsidian_06.jpg style=""width:8cm; height:6.8cm;""><p style='font-size: 30px; color: green;'><strong>Correct!</strong></p><p style='font-size: 30px;'><strong>This rock is obsidian</strong></p>","0","corr_feedback","1","train","29","","","","","","","",""
"","","","","","","","","","","","html-button-response","163","2.0.0","325136","66eb481a5a94ea27373200b1","1","5","8273","","","","","","","","","<img src= ""rock_img/I_Andesite_05.jpg"" style=""width:8cm; height:4.12cm;""><p>What type of rock is this?</p>","5","class_response","1","train","30","Pegmatite","Andesite","05","false","6","1","",""
"","","","","","","","","","","","html-button-response","164","2.0.0","325913","66eb481a5a94ea27373200b1","1","5","777","","","","","","","","","<img src= rock_img/I_Andesite_05.jpg style=""width:8cm; height:4.12cm;""><p style='font-size: 30px; color: red;'><strong>Incorrect!</strong></p><p style='font-size: 30px;'><strong>This rock is andesite</strong></p>","0","corr_feedback","1","train","30","","","","","","","",""
"","","","","","","","","","","","html-button-response","165","2.0.0","326931","66eb481a5a94ea27373200b1","1","5","1017","","","","","","","","","<img src= ""rock_img/I_Pumice_03.jpg"" style=""width:8cm; height:6.64cm;""><p>What type of rock is this?</p>","7","class_response","1","train","31","Pumice","Pumice","03","true","8","8","",""
"","","","","","","","","","","","html-button-response","166","2.0.0","327465","66eb481a5a94ea27373200b1","1","5","533","","","","","","","","","<img src= rock_img/I_Pumice_03.jpg style=""width:8cm; height:6.64cm;""><p style='font-size: 30px; color: green;'><strong>Correct!</strong></p><p style='font-size: 30px;'><strong>This rock is pumice</strong></p>","0","corr_feedback","1","train","31","","","","","","","",""
"","","","","","","","","","","","html-button-response","167","2.0.0","330245","66eb481a5a94ea27373200b1","1","5","2779","","","","","","","","","<img src= ""rock_img/I_Diorite_08.jpg"" style=""width:8cm; height:6.37cm;""><p>What type of rock is this?</p>","2","class_response","1","train","32","Diorite","Diorite","08","true","3","3","",""
"","","","","","","","","","","","html-button-response","168","2.0.0","331057","66eb481a5a94ea27373200b1","1","5","811","","","","","","","","","<img src= rock_img/I_Diorite_08.jpg style=""width:8cm; height:6.37cm;""><p style='font-size: 30px; color: green;'><strong>Correct!</strong></p><p style='font-size: 30px;'><strong>This rock is diorite</strong></p>","0","corr_feedback","1","train","32","","","","","","","",""
"","","","","","","","","","","","html-button-response","169","2.0.0","335093","66eb481a5a94ea27373200b1","1","5","4035","","","","","","","","","<img src= ""rock_img/I_Pegmatite_15.jpg"" style=""width:8cm; height:6cm;""><p>What type of rock is this?</p>","5","class_response","1","train","33","Pegmatite","Pegmatite","15","true","6","6","",""
"","","","","","","","","","","","html-button-response","170","2.0.0","336322","66eb481a5a94ea27373200b1","1","5","1227","","","","","","","","","<img src= rock_img/I_Pegmatite_15.jpg style=""width:8cm; height:6cm;""><p style='font-size: 30px; color: green;'><strong>Correct!</strong></p><p style='font-size: 30px;'><strong>This rock is pegmatite</strong></p>","0","corr_feedback","1","train","33","","","","","","","",""
"","","","","","","","","","","","html-button-response","171","2.0.0","337245","66eb481a5a94ea27373200b1","1","5","922","","","","","","","","","<img src= ""rock_img/I_Pegmatite_08.jpg"" style=""width:8cm; height:7.68cm;""><p>What type of rock is this?</p>","5","class_response","1","train","34","Pegmatite","Pegmatite","08","true","6","6","",""
"","","","","","","","","","","","html-button-response","172","2.0.0","337686","66eb481a5a94ea27373200b1","1","5","441","","","","","","","","","<img src= rock_img/I_Pegmatite_08.jpg style=""width:8cm; height:7.68cm;""><p style='font-size: 30px; color: green;'><strong>Correct!</strong></p><p style='font-size: 30px;'><strong>This rock is pegmatite</strong></p>","0","corr_feedback","1","train","34","","","","","","","",""
"","","","","","","","","","","","html-button-response","173","2.0.0","338663","66eb481a5a94ea27373200b1","1","5","975","","","","","","","","","<img src= ""rock_img/I_Obsidian_04.jpg"" style=""width:8cm; height:6.930000000000001cm;""><p>What type of rock is this?</p>","4","class_response","1","train","35","Obsidian","Obsidian","04","true","5","5","",""
"","","","","","","","","","","","html-button-response","174","2.0.0","339166","66eb481a5a94ea27373200b1","1","5","503","","","","","","","","","<img src= rock_img/I_Obsidian_04.jpg style=""width:8cm; height:6.930000000000001cm;""><p style='font-size: 30px; color: green;'><strong>Correct!</strong></p><p style='font-size: 30px;'><strong>This rock is obsidian</strong></p>","0","corr_feedback","1","train","35","","","","","","","",""
"","","","","","","","","","","","html-button-response","175","2.0.0","340603","66eb481a5a94ea27373200b1","1","5","1435","","","","","","","","","<img src= ""rock_img/I_Pumice_14.jpg"" style=""width:8cm; height:6.39cm;""><p>What type of rock is this?</p>","7","class_response","1","train","36","Pumice","Pumice","14","true","8","8","",""
"","","","","","","","","","","","html-button-response","176","2.0.0","341035","66eb481a5a94ea27373200b1","1","5","433","","","","","","","","","<img src= rock_img/I_Pumice_14.jpg style=""width:8cm; height:6.39cm;""><p style='font-size: 30px; color: green;'><strong>Correct!</strong></p><p style='font-size: 30px;'><strong>This rock is pumice</strong></p>","0","corr_feedback","1","train","36","","","","","","","",""
"","","","","","","","","","","","html-button-response","177","2.0.0","343442","66eb481a5a94ea27373200b1","1","5","2406","","","","","","","","","<img src= ""rock_img/I_Gabbro_12.jpg"" style=""width:8cm; height:7.800000000000001cm;""><p>What type of rock is this?</p>","3","class_response","1","train","37","Gabbro","Gabbro","12","true","4","4","",""
"","","","","","","","","","","","html-button-response","178","2.0.0","343959","66eb481a5a94ea27373200b1","1","5","516","","","","","","","","","<img src= rock_img/I_Gabbro_12.jpg style=""width:8cm; height:7.800000000000001cm;""><p style='font-size: 30px; color: green;'><strong>Correct!</strong></p><p style='font-size: 30px;'><strong>This rock is gabbro</strong></p>","0","corr_feedback","1","train","37","","","","","","","",""
"","","","","","","","","","","","html-button-response","179","2.0.0","344873","66eb481a5a94ea27373200b1","1","5","912","","","","","","","","","<img src= ""rock_img/I_Obsidian_02.jpg"" style=""width:8cm; height:7.51cm;""><p>What type of rock is this?</p>","4","class_response","1","train","38","Obsidian","Obsidian","02","true","5","5","",""
"","","","","","","","","","","","html-button-response","180","2.0.0","345324","66eb481a5a94ea27373200b1","1","5","451","","","","","","","","","<img src= rock_img/I_Obsidian_02.jpg style=""width:8cm; height:7.51cm;""><p style='font-size: 30px; color: green;'><strong>Correct!</strong></p><p style='font-size: 30px;'><strong>This rock is obsidian</strong></p>","0","corr_feedback","1","train","38","","","","","","","",""
"","","","","","","","","","","","html-button-response","181","2.0.0","348686","66eb481a5a94ea27373200b1","1","5","3360","","","","","","","","","<img src= ""rock_img/I_Peridotite_05.jpg"" style=""width:8cm; height:7.1499999999999995cm;""><p>What type of rock is this?</p>","6","class_response","1","train","39","Peridotite","Peridotite","05","true","7","7","",""
"","","","","","","","","","","","html-button-response","182","2.0.0","349103","66eb481a5a94ea27373200b1","1","5","416","","","","","","","","","<img src= rock_img/I_Peridotite_05.jpg style=""width:8cm; height:7.1499999999999995cm;""><p style='font-size: 30px; color: green;'><strong>Correct!</strong></p><p style='font-size: 30px;'><strong>This rock is peridotite</strong></p>","0","corr_feedback","1","train","39","","","","","","","",""
"","","","","","","","","","","","html-button-response","183","2.0.0","352716","66eb481a5a94ea27373200b1","1","5","3614","","","","","","","","","<img src= ""rock_img/I_Diorite_02.jpg"" style=""width:8cm; height:6.27cm;""><p>What type of rock is this?</p>","0","class_response","1","train","40","Andesite","Diorite","02","false","1","3","",""
"","","","","","","","","","","","html-button-response","184","2.0.0","354160","66eb481a5a94ea27373200b1","1","5","1442","","","","","","","","","<img src= rock_img/I_Diorite_02.jpg style=""width:8cm; height:6.27cm;""><p style='font-size: 30px; color: red;'><strong>Incorrect!</strong></p><p style='font-size: 30px;'><strong>This rock is diorite</strong></p>","0","corr_feedback","1","train","40","","","","","","","",""
"","","","","","","","","","","","html-button-response","185","2.0.0","358600","66eb481a5a94ea27373200b1","1","5","4439","","","","","","","","","<img src= ""rock_img/I_Basalt_10.jpg"" style=""width:8cm; height:5.85cm;""><p>What type of rock is this?</p>","1","class_response","1","train","41","Basalt","Basalt","10","true","2","2","",""
"","","","","","","","","","","","html-button-response","186","2.0.0","359102","66eb481a5a94ea27373200b1","1","5","501","","","","","","","","","<img src= rock_img/I_Basalt_10.jpg style=""width:8cm; height:5.85cm;""><p style='font-size: 30px; color: green;'><strong>Correct!</strong></p><p style='font-size: 30px;'><strong>This rock is basalt</strong></p>","0","corr_feedback","1","train","41","","","","","","","",""
"","","","","","","","","","","","html-button-response","187","2.0.0","360290","66eb481a5a94ea27373200b1","1","5","1187","","","","","","","","","<img src= ""rock_img/I_Pumice_15.jpg"" style=""width:8cm; height:7.86cm;""><p>What type of rock is this?</p>","7","class_response","1","train","42","Pumice","Pumice","15","true","8","8","",""
"","","","","","","","","","","","html-button-response","188","2.0.0","361108","66eb481a5a94ea27373200b1","1","5","817","","","","","","","","","<img src= rock_img/I_Pumice_15.jpg style=""width:8cm; height:7.86cm;""><p style='font-size: 30px; color: green;'><strong>Correct!</strong></p><p style='font-size: 30px;'><strong>This rock is pumice</strong></p>","0","corr_feedback","1","train","42","","","","","","","",""
"","","","","","","","","","","","html-button-response","189","2.0.0","365633","66eb481a5a94ea27373200b1","1","5","4525","","","","","","","","","<img src= ""rock_img/I_Pegmatite_05.jpg"" style=""width:8cm; height:7.300000000000001cm;""><p>What type of rock is this?</p>","5","class_response","1","train","43","Pegmatite","Pegmatite","05","true","6","6","",""
"","","","","","","","","","","","html-button-response","190","2.0.0","366339","66eb481a5a94ea27373200b1","1","5","703","","","","","","","","","<img src= rock_img/I_Pegmatite_05.jpg style=""width:8cm; height:7.300000000000001cm;""><p style='font-size: 30px; color: green;'><strong>Correct!</strong></p><p style='font-size: 30px;'><strong>This rock is pegmatite</strong></p>","0","corr_feedback","1","train","43","","","","","","","",""
"","","","","","","","","","","","html-button-response","191","2.0.0","370487","66eb481a5a94ea27373200b1","1","5","4148","","","","","","","","","<img src= ""rock_img/I_Andesite_10.jpg"" style=""width:8cm; height:4.16cm;""><p>What type of rock is this?</p>","3","class_response","1","train","44","Gabbro","Andesite","10","false","4","1","",""
"","","","","","","","","","","","html-button-response","192","2.0.0","371708","66eb481a5a94ea27373200b1","1","5","1221","","","","","","","","","<img src= rock_img/I_Andesite_10.jpg style=""width:8cm; height:4.16cm;""><p style='font-size: 30px; color: red;'><strong>Incorrect!</strong></p><p style='font-size: 30px;'><strong>This rock is andesite</strong></p>","0","corr_feedback","1","train","44","","","","","","","",""
"","","","","","","","","","","","html-button-response","193","2.0.0","374753","66eb481a5a94ea27373200b1","1","5","3044","","","","","","","","","<img src= ""rock_img/I_Diorite_06.jpg"" style=""width:8cm; height:6.03cm;""><p>What type of rock is this?</p>","2","class_response","1","train","45","Diorite","Diorite","06","true","3","3","",""
"","","","","","","","","","","","html-button-response","194","2.0.0","375400","66eb481a5a94ea27373200b1","1","5","646","","","","","","","","","<img src= rock_img/I_Diorite_06.jpg style=""width:8cm; height:6.03cm;""><p style='font-size: 30px; color: green;'><strong>Correct!</strong></p><p style='font-size: 30px;'><strong>This rock is diorite</strong></p>","0","corr_feedback","1","train","45","","","","","","","",""
"","","","","","","","","","","","html-button-response","195","2.0.0","381620","66eb481a5a94ea27373200b1","1","5","6219","","","","","","","","","<img src= ""rock_img/I_Pegmatite_06.jpg"" style=""width:8cm; height:5.17cm;""><p>What type of rock is this?</p>","5","class_response","1","train","46","Pegmatite","Pegmatite","06","true","6","6","",""
"","","","","","","","","","","","html-button-response","196","2.0.0","382277","66eb481a5a94ea27373200b1","1","5","656","","","","","","","","","<img src= rock_img/I_Pegmatite_06.jpg style=""width:8cm; height:5.17cm;""><p style='font-size: 30px; color: green;'><strong>Correct!</strong></p><p style='font-size: 30px;'><strong>This rock is pegmatite</strong></p>","0","corr_feedback","1","train","46","","","","","","","",""
"","","","","","","","","","","","html-button-response","197","2.0.0","385849","66eb481a5a94ea27373200b1","1","5","3572","","","","","","","","","<img src= ""rock_img/I_Diorite_13.jpg"" style=""width:8cm; height:6.29cm;""><p>What type of rock is this?</p>","2","class_response","1","train","47","Diorite","Diorite","13","true","3","3","",""
"","","","","","","","","","","","html-button-response","198","2.0.0","386427","66eb481a5a94ea27373200b1","1","5","577","","","","","","","","","<img src= rock_img/I_Diorite_13.jpg style=""width:8cm; height:6.29cm;""><p style='font-size: 30px; color: green;'><strong>Correct!</strong></p><p style='font-size: 30px;'><strong>This rock is diorite</strong></p>","0","corr_feedback","1","train","47","","","","","","","",""
"","","","","","","","","","","","html-button-response","199","2.0.0","388583","66eb481a5a94ea27373200b1","1","5","2155","","","","","","","","","<img src= ""rock_img/I_Pegmatite_13.jpg"" style=""width:8cm; height:4.95cm;""><p>What type of rock is this?</p>","5","class_response","1","train","48","Pegmatite","Pegmatite","13","true","6","6","",""
"","","","","","","","","","","","html-button-response","200","2.0.0","389031","66eb481a5a94ea27373200b1","1","5","448","","","","","","","","","<img src= rock_img/I_Pegmatite_13.jpg style=""width:8cm; height:4.95cm;""><p style='font-size: 30px; color: green;'><strong>Correct!</strong></p><p style='font-size: 30px;'><strong>This rock is pegmatite</strong></p>","0","corr_feedback","1","train","48","","","","","","","",""
"","","","","","","","","","","","instructions","203","2.0.0","403810","66eb481a5a94ea27373200b1","1","5","14779","","","","","","","","[{""page_index"":0,""viewing_time"":5691},{""page_index"":1,""viewing_time"":9088}]","","","","","","","","","","","","","",""
"","","","","","","","","","","","html-button-response","204","2.0.0","405021","66eb481a5a94ea27373200b1","1","5","1210","","","","","","","","","","0","start_test","","","","","","","","","","",""
"","","","","","","","","","","","html-button-response","205","2.0.0","409207","66eb481a5a94ea27373200b1","1","5","4186","","","","","","","","","<img src= ""rock_img/I_Peridotite_06.jpg"" style=""width:8cm; height:7.53cm;""><p>What type of rock is this?</p>","6","class_response","1","test","1","Peridotite","Peridotite","06","true","7","7","",""
"","","","","","","","","","","","html-keyboard-response","206","2.0.0","409713","66eb481a5a94ea27373200b1","1","5","null","","","","","","","","","<p style='font-size: 30px;'><strong>Okay</strong></p>","null","neutral_feedback","1","test","1","","","","","","","",""
"","","","","","","","","","","","html-button-response","207","2.0.0","414935","66eb481a5a94ea27373200b1","1","5","5222","","","","","","","","","<img src= ""rock_img/I_Gabbro_01.jpg"" style=""width:8cm; height:5.21cm;""><p>What type of rock is this?</p>","0","class_response","1","test","2","Andesite","Gabbro","01","false","1","4","",""
"","","","","","","","","","","","html-keyboard-response","208","2.0.0","415437","66eb481a5a94ea27373200b1","1","5","null","","","","","","","","","<p style='font-size: 30px;'><strong>Okay</strong></p>","null","neutral_feedback","1","test","2","","","","","","","",""
"","","","","","","","","","","","html-button-response","209","2.0.0","418111","66eb481a5a94ea27373200b1","1","5","2674","","","","","","","","","<img src= ""rock_img/I_Andesite_09.jpg"" style=""width:8cm; height:6cm;""><p>What type of rock is this?</p>","3","class_response","1","test","3","Gabbro","Andesite","09","false","4","1","",""
"","","","","","","","","","","","html-keyboard-response","210","2.0.0","418624","66eb481a5a94ea27373200b1","1","5","null","","","","","","","","","<p style='font-size: 30px;'><strong>Okay</strong></p>","null","neutral_feedback","1","test","3","","","","","","","",""
"","","","","","","","","","","","html-button-response","211","2.0.0","419756","66eb481a5a94ea27373200b1","1","5","1131","","","","","","","","","<img src= ""rock_img/I_Pumice_02.jpg"" style=""width:8cm; height:7.3999999999999995cm;""><p>What type of rock is this?</p>","7","class_response","1","test","4","Pumice","Pumice","02","true","8","8","",""
"","","","","","","","","","","","html-keyboard-response","212","2.0.0","420270","66eb481a5a94ea27373200b1","1","5","null","","","","","","","","","<p style='font-size: 30px;'><strong>Okay</strong></p>","null","neutral_feedback","1","test","4","","","","","","","",""
"","","","","","","","","","","","html-button-response","213","2.0.0","424906","66eb481a5a94ea27373200b1","1","5","4635","","","","","","","","","<img src= ""rock_img/I_Andesite_03.jpg"" style=""width:8cm; height:5.73cm;""><p>What type of rock is this?</p>","3","class_response","1","test","5","Gabbro","Andesite","03","false","4","1","",""
"","","","","","","","","","","","html-keyboard-response","214","2.0.0","425419","66eb481a5a94ea27373200b1","1","5","null","","","","","","","","","<p style='font-size: 30px;'><strong>Okay</strong></p>","null","neutral_feedback","1","test","5","","","","","","","",""
"","","","","","","","","","","","html-button-response","215","2.0.0","427026","66eb481a5a94ea27373200b1","1","5","1606","","","","","","","","","<img src= ""rock_img/I_Diorite_16.jpg"" style=""width:8cm; height:6.74cm;""><p>What type of rock is this?</p>","2","class_response","1","test","6","Diorite","Diorite","16","true","3","3","",""
"","","","","","","","","","","","html-keyboard-response","216","2.0.0","427540","66eb481a5a94ea27373200b1","1","5","null","","","","","","","","","<p style='font-size: 30px;'><strong>Okay</strong></p>","null","neutral_feedback","1","test","6","","","","","","","",""
"","","","","","","","","","","","html-button-response","217","2.0.0","429666","66eb481a5a94ea27373200b1","1","5","2124","","","","","","","","","<img src= ""rock_img/I_Diorite_07.jpg"" style=""width:8cm; height:5.239999999999999cm;""><p>What type of rock is this?</p>","2","class_response","1","test","7","Diorite","Diorite","07","true","3","3","",""
"","","","","","","","","","","","html-keyboard-response","218","2.0.0","430169","66eb481a5a94ea27373200b1","1","5","null","","","","","","","","","<p style='font-size: 30px;'><strong>Okay</strong></p>","null","neutral_feedback","1","test","7","","","","","","","",""
"","","","","","","","","","","","html-button-response","219","2.0.0","435436","66eb481a5a94ea27373200b1","1","5","5268","","","","","","","","","<img src= ""rock_img/I_Gabbro_15.jpg"" style=""width:8cm; height:6.29cm;""><p>What type of rock is this?</p>","0","class_response","1","test","8","Andesite","Gabbro","15","false","1","4","",""
"","","","","","","","","","","","html-keyboard-response","220","2.0.0","435992","66eb481a5a94ea27373200b1","1","5","null","","","","","","","","","<p style='font-size: 30px;'><strong>Okay</strong></p>","null","neutral_feedback","1","test","8","","","","","","","",""
"","","","","","","","","","","","html-button-response","221","2.0.0","441085","66eb481a5a94ea27373200b1","1","5","5093","","","","","","","","","<img src= ""rock_img/I_Gabbro_16.jpg"" style=""width:8cm; height:6.44cm;""><p>What type of rock is this?</p>","3","class_response","1","test","9","Gabbro","Gabbro","16","true","4","4","",""
"","","","","","","","","","","","html-keyboard-response","222","2.0.0","441589","66eb481a5a94ea27373200b1","1","5","null","","","","","","","","","<p style='font-size: 30px;'><strong>Okay</strong></p>","null","neutral_feedback","1","test","9","","","","","","","",""
"","","","","","","","","","","","html-button-response","223","2.0.0","446276","66eb481a5a94ea27373200b1","1","5","4688","","","","","","","","","<img src= ""rock_img/I_Gabbro_05.jpg"" style=""width:8cm; height:6cm;""><p>What type of rock is this?</p>","6","class_response","1","test","10","Peridotite","Gabbro","05","false","7","4","",""
"","","","","","","","","","","","html-keyboard-response","224","2.0.0","446781","66eb481a5a94ea27373200b1","1","5","null","","","","","","","","","<p style='font-size: 30px;'><strong>Okay</strong></p>","null","neutral_feedback","1","test","10","","","","","","","",""
"","","","","","","","","","","","html-button-response","225","2.0.0","449134","66eb481a5a94ea27373200b1","1","5","2352","","","","","","","","","<img src= ""rock_img/I_Pegmatite_03.jpg"" style=""width:8cm; height:5.239999999999999cm;""><p>What type of rock is this?</p>","5","class_response","1","test","11","Pegmatite","Pegmatite","03","true","6","6","",""
"","","","","","","","","","","","html-keyboard-response","226","2.0.0","449643","66eb481a5a94ea27373200b1","1","5","null","","","","","","","","","<p style='font-size: 30px;'><strong>Okay</strong></p>","null","neutral_feedback","1","test","11","","","","","","","",""
"","","","","","","","","","","","html-button-response","227","2.0.0","456673","66eb481a5a94ea27373200b1","1","5","7028","","","","","","","","","<img src= ""rock_img/I_Andesite_02.jpg"" style=""width:8cm; height:8.5cm;""><p>What type of rock is this?</p>","0","class_response","1","test","12","Andesite","Andesite","02","true","1","1","",""
"","","","","","","","","","","","html-keyboard-response","228","2.0.0","457179","66eb481a5a94ea27373200b1","1","5","null","","","","","","","","","<p style='font-size: 30px;'><strong>Okay</strong></p>","null","neutral_feedback","1","test","12","","","","","","","",""
"","","","","","","","","","","","html-button-response","229","2.0.0","458278","66eb481a5a94ea27373200b1","1","5","1099","","","","","","","","","<img src= ""rock_img/I_Obsidian_10.jpg"" style=""width:8cm; height:6.260000000000001cm;""><p>What type of rock is this?</p>","4","class_response","1","test","13","Obsidian","Obsidian","10","true","5","5","",""
"","","","","","","","","","","","html-keyboard-response","230","2.0.0","458787","66eb481a5a94ea27373200b1","1","5","null","","","","","","","","","<p style='font-size: 30px;'><strong>Okay</strong></p>","null","neutral_feedback","1","test","13","","","","","","","",""
"","","","","","","","","","","","html-button-response","231","2.0.0","459614","66eb481a5a94ea27373200b1","1","5","826","","","","","","","","","<img src= ""rock_img/I_Obsidian_07.jpg"" style=""width:8cm; height:4.76cm;""><p>What type of rock is this?</p>","4","class_response","1","test","14","Obsidian","Obsidian","07","true","5","5","",""
"","","","","","","","","","","","html-keyboard-response","232","2.0.0","460122","66eb481a5a94ea27373200b1","1","5","null","","","","","","","","","<p style='font-size: 30px;'><strong>Okay</strong></p>","null","neutral_feedback","1","test","14","","","","","","","",""
"","","","","","","","","","","","html-button-response","233","2.0.0","461346","66eb481a5a94ea27373200b1","1","5","1223","","","","","","","","","<img src= ""rock_img/I_Peridotite_15.jpg"" style=""width:8cm; height:6cm;""><p>What type of rock is this?</p>","6","class_response","1","test","15","Peridotite","Peridotite","15","true","7","7","",""
"","","","","","","","","","","","html-keyboard-response","234","2.0.0","461862","66eb481a5a94ea27373200b1","1","5","null","","","","","","","","","<p style='font-size: 30px;'><strong>Okay</strong></p>","null","neutral_feedback","1","test","15","","","","","","","",""
"","","","","","","","","","","","html-button-response","235","2.0.0","467729","66eb481a5a94ea27373200b1","1","5","5866","","","","","","","","","<img src= ""rock_img/I_Gabbro_08.jpg"" style=""width:8cm; height:5.15cm;""><p>What type of rock is this?</p>","0","class_response","1","test","16","Andesite","Gabbro","08","false","1","4","",""
"","","","","","","","","","","","html-keyboard-response","236","2.0.0","468230","66eb481a5a94ea27373200b1","1","5","null","","","","","","","","","<p style='font-size: 30px;'><strong>Okay</strong></p>","null","neutral_feedback","1","test","16","","","","","","","",""
"","","","","","","","","","","","html-button-response","237","2.0.0","472610","66eb481a5a94ea27373200b1","1","5","4379","","","","","","","","","<img src= ""rock_img/I_Peridotite_16.jpg"" style=""width:8cm; height:6.989999999999999cm;""><p>What type of rock is this?</p>","6","class_response","1","test","17","Peridotite","Peridotite","16","true","7","7","",""
"","","","","","","","","","","","html-keyboard-response","238","2.0.0","473117","66eb481a5a94ea27373200b1","1","5","null","","","","","","","","","<p style='font-size: 30px;'><strong>Okay</strong></p>","null","neutral_feedback","1","test","17","","","","","","","",""
"","","","","","","","","","","","html-button-response","239","2.0.0","475687","66eb481a5a94ea27373200b1","1","5","2568","","","","","","","","","<img src= ""rock_img/I_Basalt_11.jpg"" style=""width:8cm; height:5.359999999999999cm;""><p>What type of rock is this?</p>","3","class_response","1","test","18","Gabbro","Basalt","11","false","4","2","",""
"","","","","","","","","","","","html-keyboard-response","240","2.0.0","476189","66eb481a5a94ea27373200b1","1","5","null","","","","","","","","","<p style='font-size: 30px;'><strong>Okay</strong></p>","null","neutral_feedback","1","test","18","","","","","","","",""
"","","","","","","","","","","","html-button-response","241","2.0.0","477376","66eb481a5a94ea27373200b1","1","5","1186","","","","","","","","","<img src= ""rock_img/I_Pumice_05.jpg"" style=""width:8cm; height:7.25cm;""><p>What type of rock is this?</p>","7","class_response","1","test","19","Pumice","Pumice","05","true","8","8","",""
"","","","","","","","","","","","html-keyboard-response","242","2.0.0","477880","66eb481a5a94ea27373200b1","1","5","null","","","","","","","","","<p style='font-size: 30px;'><strong>Okay</strong></p>","null","neutral_feedback","1","test","19","","","","","","","",""
"","","","","","","","","","","","html-button-response","243","2.0.0","481680","66eb481a5a94ea27373200b1","1","5","3801","","","","","","","","","<img src= ""rock_img/I_Gabbro_03.jpg"" style=""width:8cm; height:8.52cm;""><p>What type of rock is this?</p>","0","class_response","1","test","20","Andesite","Gabbro","03","false","1","4","",""
"","","","","","","","","","","","html-keyboard-response","244","2.0.0","482196","66eb481a5a94ea27373200b1","1","5","null","","","","","","","","","<p style='font-size: 30px;'><strong>Okay</strong></p>","null","neutral_feedback","1","test","20","","","","","","","",""
"","","","","","","","","","","","html-button-response","245","2.0.0","483423","66eb481a5a94ea27373200b1","1","5","1227","","","","","","","","","<img src= ""rock_img/I_Peridotite_10.jpg"" style=""width:8cm; height:5.390000000000001cm;""><p>What type of rock is this?</p>","6","class_response","1","test","21","Peridotite","Peridotite","10","true","7","7","",""
"","","","","","","","","","","","html-keyboard-response","246","2.0.0","483931","66eb481a5a94ea27373200b1","1","5","null","","","","","","","","","<p style='font-size: 30px;'><strong>Okay</strong></p>","null","neutral_feedback","1","test","21","","","","","","","",""
"","","","","","","","","","","","html-button-response","247","2.0.0","485084","66eb481a5a94ea27373200b1","1","5","1152","","","","","","","","","<img src= ""rock_img/I_Basalt_02.jpg"" style=""width:8cm; height:6.45cm;""><p>What type of rock is this?</p>","1","class_response","1","test","22","Basalt","Basalt","02","true","2","2","",""
"","","","","","","","","","","","html-keyboard-response","248","2.0.0","485590","66eb481a5a94ea27373200b1","1","5","null","","","","","","","","","<p style='font-size: 30px;'><strong>Okay</strong></p>","null","neutral_feedback","1","test","22","","","","","","","",""
"","","","","","","","","","","","html-button-response","249","2.0.0","489965","66eb481a5a94ea27373200b1","1","5","4375","","","","","","","","","<img src= ""rock_img/I_Basalt_12.jpg"" style=""width:8cm; height:6.010000000000001cm;""><p>What type of rock is this?</p>","3","class_response","1","test","23","Gabbro","Basalt","12","false","4","2","",""
"","","","","","","","","","","","html-keyboard-response","250","2.0.0","490479","66eb481a5a94ea27373200b1","1","5","null","","","","","","","","","<p style='font-size: 30px;'><strong>Okay</strong></p>","null","neutral_feedback","1","test","23","","","","","","","",""
"","","","","","","","","","","","html-button-response","251","2.0.0","492452","66eb481a5a94ea27373200b1","1","5","1974","","","","","","","","","<img src= ""rock_img/I_Basalt_04.jpg"" style=""width:8cm; height:7.53cm;""><p>What type of rock is this?</p>","1","class_response","1","test","24","Basalt","Basalt","04","true","2","2","",""
"","","","","","","","","","","","html-keyboard-response","252","2.0.0","492960","66eb481a5a94ea27373200b1","1","5","null","","","","","","","","","<p style='font-size: 30px;'><strong>Okay</strong></p>","null","neutral_feedback","1","test","24","","","","","","","",""
"","","","","","","","","","","","html-button-response","253","2.0.0","494026","66eb481a5a94ea27373200b1","1","5","1064","","","","","","","","","<img src= ""rock_img/I_Pumice_13.jpg"" style=""width:8cm; height:8.200000000000001cm;""><p>What type of rock is this?</p>","7","class_response","1","test","25","Pumice","Pumice","13","true","8","8","",""
"","","","","","","","","","","","html-keyboard-response","254","2.0.0","494556","66eb481a5a94ea27373200b1","1","5","null","","","","","","","","","<p style='font-size: 30px;'><strong>Okay</strong></p>","null","neutral_feedback","1","test","25","","","","","","","",""
"","","","","","","","","","","","html-button-response","255","2.0.0","495776","66eb481a5a94ea27373200b1","1","5","1220","","","","","","","","","<img src= ""rock_img/I_Diorite_11.jpg"" style=""width:8cm; height:7.11cm;""><p>What type of rock is this?</p>","2","class_response","1","test","26","Diorite","Diorite","11","true","3","3","",""
"","","","","","","","","","","","html-keyboard-response","256","2.0.0","496278","66eb481a5a94ea27373200b1","1","5","null","","","","","","","","","<p style='font-size: 30px;'><strong>Okay</strong></p>","null","neutral_feedback","1","test","26","","","","","","","",""
"","","","","","","","","","","","html-button-response","257","2.0.0","498259","66eb481a5a94ea27373200b1","1","5","1980","","","","","","","","","<img src= ""rock_img/I_Basalt_01.jpg"" style=""width:8cm; height:7.880000000000001cm;""><p>What type of rock is this?</p>","1","class_response","1","test","27","Basalt","Basalt","01","true","2","2","",""
"","","","","","","","","","","","html-keyboard-response","258","2.0.0","498769","66eb481a5a94ea27373200b1","1","5","null","","","","","","","","","<p style='font-size: 30px;'><strong>Okay</strong></p>","null","neutral_feedback","1","test","27","","","","","","","",""
"","","","","","","","","","","","html-button-response","259","2.0.0","499912","66eb481a5a94ea27373200b1","1","5","1142","","","","","","","","","<img src= ""rock_img/I_Pegmatite_12.jpg"" style=""width:8cm; height:5.7cm;""><p>What type of rock is this?</p>","5","class_response","1","test","28","Pegmatite","Pegmatite","12","true","6","6","",""
"","","","","","","","","","","","html-keyboard-response","260","2.0.0","500425","66eb481a5a94ea27373200b1","1","5","null","","","","","","","","","<p style='font-size: 30px;'><strong>Okay</strong></p>","null","neutral_feedback","1","test","28","","","","","","","",""
"","","","","","","","","","","","html-button-response","261","2.0.0","504767","66eb481a5a94ea27373200b1","1","5","4342","","","","","","","","","<img src= ""rock_img/I_Diorite_15.jpg"" style=""width:8cm; height:5.54cm;""><p>What type of rock is this?</p>","0","class_response","1","test","29","Andesite","Diorite","15","false","1","3","",""
"","","","","","","","","","","","html-keyboard-response","262","2.0.0","505271","66eb481a5a94ea27373200b1","1","5","null","","","","","","","","","<p style='font-size: 30px;'><strong>Okay</strong></p>","null","neutral_feedback","1","test","29","","","","","","","",""
"","","","","","","","","","","","html-button-response","263","2.0.0","507968","66eb481a5a94ea27373200b1","1","5","2698","","","","","","","","","<img src= ""rock_img/I_Diorite_12.jpg"" style=""width:8cm; height:4.88cm;""><p>What type of rock is this?</p>","2","class_response","1","test","30","Diorite","Diorite","12","true","3","3","",""
"","","","","","","","","","","","html-keyboard-response","264","2.0.0","508478","66eb481a5a94ea27373200b1","1","5","null","","","","","","","","","<p style='font-size: 30px;'><strong>Okay</strong></p>","null","neutral_feedback","1","test","30","","","","","","","",""
"","","","","","","","","","","","html-button-response","265","2.0.0","514904","66eb481a5a94ea27373200b1","1","5","6424","","","","","","","","","<img src= ""rock_img/I_Pegmatite_16.jpg"" style=""width:8cm; height:5.8cm;""><p>What type of rock is this?</p>","5","class_response","1","test","31","Pegmatite","Pegmatite","16","true","6","6","",""
"","","","","","","","","","","","html-keyboard-response","266","2.0.0","515416","66eb481a5a94ea27373200b1","1","5","null","","","","","","","","","<p style='font-size: 30px;'><strong>Okay</strong></p>","null","neutral_feedback","1","test","31","","","","","","","",""
"","","","","","","","","","","","html-button-response","267","2.0.0","518371","66eb481a5a94ea27373200b1","1","5","2953","","","","","","","","","<img src= ""rock_img/I_Basalt_16.jpg"" style=""width:8cm; height:7.659999999999999cm;""><p>What type of rock is this?</p>","3","class_response","1","test","32","Gabbro","Basalt","16","false","4","2","",""
"","","","","","","","","","","","html-keyboard-response","268","2.0.0","518874","66eb481a5a94ea27373200b1","1","5","null","","","","","","","","","<p style='font-size: 30px;'><strong>Okay</strong></p>","null","neutral_feedback","1","test","32","","","","","","","",""
"","","","","","","","","","","","html-button-response","269","2.0.0","520183","66eb481a5a94ea27373200b1","1","5","1308","","","","","","","","","<img src= ""rock_img/I_Pegmatite_11.jpg"" style=""width:8cm; height:8.14cm;""><p>What type of rock is this?</p>","5","class_response","1","test","33","Pegmatite","Pegmatite","11","true","6","6","",""
"","","","","","","","","","","","html-keyboard-response","270","2.0.0","520692","66eb481a5a94ea27373200b1","1","5","null","","","","","","","","","<p style='font-size: 30px;'><strong>Okay</strong></p>","null","neutral_feedback","1","test","33","","","","","","","",""
"","","","","","","","","","","","html-button-response","271","2.0.0","521703","66eb481a5a94ea27373200b1","1","5","1011","","","","","","","","","<img src= ""rock_img/I_Pumice_09.jpg"" style=""width:8cm; height:6.44cm;""><p>What type of rock is this?</p>","7","class_response","1","test","34","Pumice","Pumice","09","true","8","8","",""
"","","","","","","","","","","","html-keyboard-response","272","2.0.0","522211","66eb481a5a94ea27373200b1","1","5","null","","","","","","","","","<p style='font-size: 30px;'><strong>Okay</strong></p>","null","neutral_feedback","1","test","34","","","","","","","",""
"","","","","","","","","","","","html-button-response","273","2.0.0","532721","66eb481a5a94ea27373200b1","1","5","10508","","","","","","","","","<img src= ""rock_img/I_Andesite_11.jpg"" style=""width:8cm; height:4.92cm;""><p>What type of rock is this?</p>","2","class_response","1","test","35","Diorite","Andesite","11","false","3","1","",""
"","","","","","","","","","","","html-keyboard-response","274","2.0.0","533225","66eb481a5a94ea27373200b1","1","5","null","","","","","","","","","<p style='font-size: 30px;'><strong>Okay</strong></p>","null","neutral_feedback","1","test","35","","","","","","","",""
"","","","","","","","","","","","html-button-response","275","2.0.0","535193","66eb481a5a94ea27373200b1","1","5","1967","","","","","","","","","<img src= ""rock_img/I_Andesite_06.jpg"" style=""width:8cm; height:6.840000000000001cm;""><p>What type of rock is this?</p>","0","class_response","1","test","36","Andesite","Andesite","06","true","1","1","",""
"","","","","","","","","","","","html-keyboard-response","276","2.0.0","535695","66eb481a5a94ea27373200b1","1","5","null","","","","","","","","","<p style='font-size: 30px;'><strong>Okay</strong></p>","null","neutral_feedback","1","test","36","","","","","","","",""
"","","","","","","","","","","","html-button-response","277","2.0.0","536989","66eb481a5a94ea27373200b1","1","5","1293","","","","","","","","","<img src= ""rock_img/I_Pegmatite_09.jpg"" style=""width:8cm; height:4.03cm;""><p>What type of rock is this?</p>","6","class_response","1","test","37","Peridotite","Pegmatite","09","false","7","6","",""
"","","","","","","","","","","","html-keyboard-response","278","2.0.0","537492","66eb481a5a94ea27373200b1","1","5","null","","","","","","","","","<p style='font-size: 30px;'><strong>Okay</strong></p>","null","neutral_feedback","1","test","37","","","","","","","",""
"","","","","","","","","","","","html-button-response","279","2.0.0","538774","66eb481a5a94ea27373200b1","1","5","1280","","","","","","","","","<img src= ""rock_img/I_Pumice_10.jpg"" style=""width:8cm; height:7.609999999999999cm;""><p>What type of rock is this?</p>","7","class_response","1","test","38","Pumice","Pumice","10","true","8","8","",""
"","","","","","","","","","","","html-keyboard-response","280","2.0.0","539277","66eb481a5a94ea27373200b1","1","5","null","","","","","","","","","<p style='font-size: 30px;'><strong>Okay</strong></p>","null","neutral_feedback","1","test","38","","","","","","","",""
"","","","","","","","","","","","html-button-response","281","2.0.0","541274","66eb481a5a94ea27373200b1","1","5","1996","","","","","","","","","<img src= ""rock_img/I_Diorite_09.jpg"" style=""width:8cm; height:5.27cm;""><p>What type of rock is this?</p>","2","class_response","1","test","39","Diorite","Diorite","09","true","3","3","",""
"","","","","","","","","","","","html-keyboard-response","282","2.0.0","541786","66eb481a5a94ea27373200b1","1","5","null","","","","","","","","","<p style='font-size: 30px;'><strong>Okay</strong></p>","null","neutral_feedback","1","test","39","","","","","","","",""
"","","","","","","","","","","","html-button-response","283","2.0.0","542738","66eb481a5a94ea27373200b1","1","5","951","","","","","","","","","<img src= ""rock_img/I_Obsidian_11.jpg"" style=""width:8cm; height:6.05cm;""><p>What type of rock is this?</p>","4","class_response","1","test","40","Obsidian","Obsidian","11","true","5","5","",""
"","","","","","","","","","","","html-keyboard-response","284","2.0.0","543243","66eb481a5a94ea27373200b1","1","5","null","","","","","","","","","<p style='font-size: 30px;'><strong>Okay</strong></p>","null","neutral_feedback","1","test","40","","","","","","","",""
"","","","","","","","","","","","html-button-response","285","2.0.0","544314","66eb481a5a94ea27373200b1","1","5","1068","","","","","","","","","<img src= ""rock_img/I_Obsidian_16.jpg"" style=""width:8cm; height:9.3cm;""><p>What type of rock is this?</p>","4","class_response","1","test","41","Obsidian","Obsidian","16","true","5","5","",""
"","","","","","","","","","","","html-keyboard-response","286","2.0.0","544817","66eb481a5a94ea27373200b1","1","5","null","","","","","","","","","<p style='font-size: 30px;'><strong>Okay</strong></p>","null","neutral_feedback","1","test","41","","","","","","","",""
"","","","","","","","","","","","html-button-response","287","2.0.0","552702","66eb481a5a94ea27373200b1","1","5","7883","","","","","","","","","<img src= ""rock_img/I_Andesite_01.jpg"" style=""width:8cm; height:5.87cm;""><p>What type of rock is this?</p>","2","class_response","1","test","42","Diorite","Andesite","01","false","3","1","",""
"","","","","","","","","","","","html-keyboard-response","288","2.0.0","553206","66eb481a5a94ea27373200b1","1","5","null","","","","","","","","","<p style='font-size: 30px;'><strong>Okay</strong></p>","null","neutral_feedback","1","test","42","","","","","","","",""
"","","","","","","","","","","","html-button-response","289","2.0.0","554201","66eb481a5a94ea27373200b1","1","5","995","","","","","","","","","<img src= ""rock_img/I_Pegmatite_07.jpg"" style=""width:8cm; height:6.7cm;""><p>What type of rock is this?</p>","5","class_response","1","test","43","Pegmatite","Pegmatite","07","true","6","6","",""
"","","","","","","","","","","","html-keyboard-response","290","2.0.0","554708","66eb481a5a94ea27373200b1","1","5","null","","","","","","","","","<p style='font-size: 30px;'><strong>Okay</strong></p>","null","neutral_feedback","1","test","43","","","","","","","",""
"","","","","","","","","","","","html-button-response","291","2.0.0","557339","66eb481a5a94ea27373200b1","1","5","2630","","","","","","","","","<img src= ""rock_img/I_Obsidian_05.jpg"" style=""width:8cm; height:6.33cm;""><p>What type of rock is this?</p>","2","class_response","1","test","44","Diorite","Obsidian","05","false","3","5","",""
"","","","","","","","","","","","html-keyboard-response","292","2.0.0","557853","66eb481a5a94ea27373200b1","1","5","null","","","","","","","","","<p style='font-size: 30px;'><strong>Okay</strong></p>","null","neutral_feedback","1","test","44","","","","","","","",""
"","","","","","","","","","","","html-button-response","293","2.0.0","558803","66eb481a5a94ea27373200b1","1","5","948","","","","","","","","","<img src= ""rock_img/I_Obsidian_09.jpg"" style=""width:8cm; height:5cm;""><p>What type of rock is this?</p>","4","class_response","1","test","45","Obsidian","Obsidian","09","true","5","5","",""
"","","","","","","","","","","","html-keyboard-response","294","2.0.0","559360","66eb481a5a94ea27373200b1","1","5","null","","","","","","","","","<p style='font-size: 30px;'><strong>Okay</strong></p>","null","neutral_feedback","1","test","45","","","","","","","",""
"","","","","","","","","","","","html-button-response","295","2.0.0","560333","66eb481a5a94ea27373200b1","1","5","971","","","","","","","","","<img src= ""rock_img/I_Pumice_06.jpg"" style=""width:8cm; height:6.9399999999999995cm;""><p>What type of rock is this?</p>","7","class_response","1","test","46","Pumice","Pumice","06","true","8","8","",""
"","","","","","","","","","","","html-keyboard-response","296","2.0.0","560839","66eb481a5a94ea27373200b1","1","5","null","","","","","","","","","<p style='font-size: 30px;'><strong>Okay</strong></p>","null","neutral_feedback","1","test","46","","","","","","","",""
"","","","","","","","","","","","html-button-response","297","2.0.0","561753","66eb481a5a94ea27373200b1","1","5","913","","","","","","","","","<img src= ""rock_img/I_Peridotite_02.jpg"" style=""width:8cm; height:5.859999999999999cm;""><p>What type of rock is this?</p>","6","class_response","1","test","47","Peridotite","Peridotite","02","true","7","7","",""
"","","","","","","","","","","","html-keyboard-response","298","2.0.0","562263","66eb481a5a94ea27373200b1","1","5","null","","","","","","","","","<p style='font-size: 30px;'><strong>Okay</strong></p>","null","neutral_feedback","1","test","47","","","","","","","",""
"","","","","","","","","","","","html-button-response","299","2.0.0","564026","66eb481a5a94ea27373200b1","1","5","1761","","","","","","","","","<img src= ""rock_img/I_Peridotite_07.jpg"" style=""width:8cm; height:4.83cm;""><p>What type of rock is this?</p>","6","class_response","1","test","48","Peridotite","Peridotite","07","true","7","7","",""
"","","","","","","","","","","","html-keyboard-response","300","2.0.0","564535","66eb481a5a94ea27373200b1","1","5","null","","","","","","","","","<p style='font-size: 30px;'><strong>Okay</strong></p>","null","neutral_feedback","1","test","48","","","","","","","",""
"","","","","","","","","","","","html-button-response","301","2.0.0","592354","66eb481a5a94ea27373200b1","1","5","","","","","","","","","","","","cycle_feedback","","","","","","","","","","13655","14149"
"","","","","","","","","","","","html-button-response","303","2.0.0","598262","66eb481a5a94ea27373200b1","1","5","5906","","","","","","","","","","0","start_train","","","","","","","","","","",""
"","","","","","","","","","","","html-button-response","304","2.0.0","600044","66eb481a5a94ea27373200b1","1","5","1780","","","","","","","","","<img src= ""rock_img/I_Diorite_08.jpg"" style=""width:8cm; height:6.37cm;""><p>What type of rock is this?</p>","2","class_response","2","train","1","Diorite","Diorite","08","true","3","3","",""
"","","","","","","","","","","","html-button-response","305","2.0.0","601474","66eb481a5a94ea27373200b1","1","5","1429","","","","","","","","","<img src= rock_img/I_Diorite_08.jpg style=""width:8cm; height:6.37cm;""><p style='font-size: 30px; color: green;'><strong>Correct!</strong></p><p style='font-size: 30px;'><strong>This rock is diorite</strong></p>","0","corr_feedback","2","train","1","","","","","","","",""
