width,height,webaudio,browser,browser_version,mobile,os,fullscreen,vsync_rate,webcam,microphone,trial_type,trial_index,plugin_version,time_elapsed,subjID,condition,stimID,rt,url,success,value,timeout,failed_images,failed_audio,failed_video,view_history,stimulus,response,trialType,cycle,phase,trial,resp,cat,token,corr,resp_num,cat_num,time_fb1,time_fb2
1768,831,TRUE,edge-chromium,131.0.0,FALSE,Windows 10,TRUE,52.96,TRUE,TRUE,browser-check,0,2.0.0,1149,651eea44194fa8c200606af7,1,47,,,,,,,,,,,,,,,,,,,,,,,
,,,,,,,,,,,external-html,1,2.0.0,26170,651eea44194fa8c200606af7,1,47,24871,consent_form.html,,,,,,,,,,,,,,,,,,,,,
,,,,,,,,,,,fullscreen,2,2.0.0,30863,651eea44194fa8c200606af7,1,47,3678,,TRUE,,,,,,,,,,,,,,,,,,,,
,,,,,,,,,,,call-function,3,2.0.0,30865,651eea44194fa8c200606af7,1,47,,,,{},,,,,,,,,,,,,,,,,,,
,,,,,,,,,,,preload,4,2.0.0,34911,651eea44194fa8c200606af7,1,47,,,TRUE,,FALSE,[],[],[],,,,,,,,,,,,,,,
,,,,,,,,,,,instructions,5,2.0.0,67573,651eea44194fa8c200606af7,1,47,32660,,,,,,,,"[{""page_index"":0,""viewing_time"":7368},{""page_index"":1,""viewing_time"":13504},{""page_index"":2,""viewing_time"":11788}]",,,,,,,,,,,,,,
,,,,,,,,,,,html-button-response,6,2.0.0,71197,651eea44194fa8c200606af7,1,47,3622,,,,,,,,,,0,start_test,,,,,,,,,,,
,,,,,,,,,,,html-button-response,7,2.0.0,80059,651eea44194fa8c200606af7,1,47,8860,,,,,,,,,"<img src= ""rock_img/I_Diorite_14.jpg"" style=""width:8cm; height:5.71cm;""><p>What type of rock is this?</p>",6,class_response,0,test,1,Peridotite,Diorite,14,FALSE,7,3,,
,,,,,,,,,,,html-keyboard-response,8,2.0.0,80569,651eea44194fa8c200606af7,1,47,null,,,,,,,,,<p style='font-size: 30px;'><strong>Okay</strong></p>,null,neutral_feedback,0,test,1,,,,,,,,
,,,,,,,,,,,html-button-response,9,2.0.0,86507,651eea44194fa8c200606af7,1,47,5935,,,,,,,,,"<img src= ""rock_img/I_Andesite_02.jpg"" style=""width:8cm; height:8.5cm;""><p>What type of rock is this?</p>",7,class_response,0,test,2,Pumice,Andesite,2,FALSE,8,1,,
,,,,,,,,,,,html-keyboard-response,10,2.0.0,87017,651eea44194fa8c200606af7,1,47,null,,,,,,,,,<p style='font-size: 30px;'><strong>Okay</strong></p>,null,neutral_feedback,0,test,2,,,,,,,,
,,,,,,,,,,,html-button-response,11,2.0.0,88993,651eea44194fa8c200606af7,1,47,1972,,,,,,,,,"<img src= ""rock_img/I_Pumice_08.jpg"" style=""width:8cm; height:6.67cm;""><p>What type of rock is this?</p>",7,class_response,0,test,3,Pumice,Pumice,8,TRUE,8,8,,
,,,,,,,,,,,html-keyboard-response,12,2.0.0,89507,651eea44194fa8c200606af7,1,47,null,,,,,,,,,<p style='font-size: 30px;'><strong>Okay</strong></p>,null,neutral_feedback,0,test,3,,,,,,,,
,,,,,,,,,,,html-button-response,13,2.0.0,92743,651eea44194fa8c200606af7,1,47,3232,,,,,,,,,"<img src= ""rock_img/I_Gabbro_11.jpg"" style=""width:8cm; height:6.2cm;""><p>What type of rock is this?</p>",4,class_response,0,test,4,Obsidian,Gabbro,11,FALSE,5,4,,
,,,,,,,,,,,html-keyboard-response,14,2.0.0,93253,651eea44194fa8c200606af7,1,47,null,,,,,,,,,<p style='font-size: 30px;'><strong>Okay</strong></p>,null,neutral_feedback,0,test,4,,,,,,,,
,,,,,,,,,,,html-button-response,15,2.0.0,96915,651eea44194fa8c200606af7,1,47,3659,,,,,,,,,"<img src= ""rock_img/I_Diorite_16.jpg"" style=""width:8cm; height:6.74cm;""><p>What type of rock is this?</p>",6,class_response,0,test,5,Peridotite,Diorite,16,FALSE,7,3,,
,,,,,,,,,,,html-keyboard-response,16,2.0.0,97423,651eea44194fa8c200606af7,1,47,null,,,,,,,,,<p style='font-size: 30px;'><strong>Okay</strong></p>,null,neutral_feedback,0,test,5,,,,,,,,
,,,,,,,,,,,html-button-response,17,2.0.0,100703,651eea44194fa8c200606af7,1,47,3277,,,,,,,,,"<img src= ""rock_img/I_Pegmatite_10.jpg"" style=""width:8cm; height:4.16cm;""><p>What type of rock is this?</p>",3,class_response,0,test,6,Gabbro,Pegmatite,10,FALSE,4,6,,
,,,,,,,,,,,html-keyboard-response,18,2.0.0,101206,651eea44194fa8c200606af7,1,47,null,,,,,,,,,<p style='font-size: 30px;'><strong>Okay</strong></p>,null,neutral_feedback,0,test,6,,,,,,,,
,,,,,,,,,,,html-button-response,19,2.0.0,104947,651eea44194fa8c200606af7,1,47,3739,,,,,,,,,"<img src= ""rock_img/I_Peridotite_07.jpg"" style=""width:8cm; height:4.83cm;""><p>What type of rock is this?</p>",0,class_response,0,test,7,Andesite,Peridotite,7,FALSE,1,7,,
,,,,,,,,,,,html-keyboard-response,20,2.0.0,105449,651eea44194fa8c200606af7,1,47,null,,,,,,,,,<p style='font-size: 30px;'><strong>Okay</strong></p>,null,neutral_feedback,0,test,7,,,,,,,,
,,,,,,,,,,,html-button-response,21,2.0.0,108155,651eea44194fa8c200606af7,1,47,2703,,,,,,,,,"<img src= ""rock_img/I_Diorite_11.jpg"" style=""width:8cm; height:7.11cm;""><p>What type of rock is this?</p>",1,class_response,0,test,8,Basalt,Diorite,11,FALSE,2,3,,
,,,,,,,,,,,html-keyboard-response,22,2.0.0,108662,651eea44194fa8c200606af7,1,47,null,,,,,,,,,<p style='font-size: 30px;'><strong>Okay</strong></p>,null,neutral_feedback,0,test,8,,,,,,,,
,,,,,,,,,,,html-button-response,23,2.0.0,114531,651eea44194fa8c200606af7,1,47,5866,,,,,,,,,"<img src= ""rock_img/I_Obsidian_07.jpg"" style=""width:8cm; height:4.76cm;""><p>What type of rock is this?</p>",4,class_response,0,test,9,Obsidian,Obsidian,7,TRUE,5,5,,
,,,,,,,,,,,html-keyboard-response,24,2.0.0,115033,651eea44194fa8c200606af7,1,47,null,,,,,,,,,<p style='font-size: 30px;'><strong>Okay</strong></p>,null,neutral_feedback,0,test,9,,,,,,,,
,,,,,,,,,,,html-button-response,25,2.0.0,118829,651eea44194fa8c200606af7,1,47,3794,,,,,,,,,"<img src= ""rock_img/I_Basalt_04.jpg"" style=""width:8cm; height:7.53cm;""><p>What type of rock is this?</p>",1,class_response,0,test,10,Basalt,Basalt,4,TRUE,2,2,,
,,,,,,,,,,,html-keyboard-response,26,2.0.0,119337,651eea44194fa8c200606af7,1,47,null,,,,,,,,,<p style='font-size: 30px;'><strong>Okay</strong></p>,null,neutral_feedback,0,test,10,,,,,,,,
,,,,,,,,,,,html-button-response,27,2.0.0,125591,651eea44194fa8c200606af7,1,47,6251,,,,,,,,,"<img src= ""rock_img/I_Gabbro_03.jpg"" style=""width:8cm; height:8.52cm;""><p>What type of rock is this?</p>",0,class_response,0,test,11,Andesite,Gabbro,3,FALSE,1,4,,
,,,,,,,,,,,html-keyboard-response,28,2.0.0,126108,651eea44194fa8c200606af7,1,47,null,,,,,,,,,<p style='font-size: 30px;'><strong>Okay</strong></p>,null,neutral_feedback,0,test,11,,,,,,,,
,,,,,,,,,,,html-button-response,29,2.0.0,133253,651eea44194fa8c200606af7,1,47,7143,,,,,,,,,"<img src= ""rock_img/I_Gabbro_15.jpg"" style=""width:8cm; height:6.29cm;""><p>What type of rock is this?</p>",2,class_response,0,test,12,Diorite,Gabbro,15,FALSE,3,4,,
,,,,,,,,,,,html-keyboard-response,30,2.0.0,133760,651eea44194fa8c200606af7,1,47,null,,,,,,,,,<p style='font-size: 30px;'><strong>Okay</strong></p>,null,neutral_feedback,0,test,12,,,,,,,,
,,,,,,,,,,,html-button-response,31,2.0.0,140767,651eea44194fa8c200606af7,1,47,7004,,,,,,,,,"<img src= ""rock_img/I_Peridotite_12.jpg"" style=""width:8cm; height:4.54cm;""><p>What type of rock is this?</p>",6,class_response,0,test,13,Peridotite,Peridotite,12,TRUE,7,7,,
,,,,,,,,,,,html-keyboard-response,32,2.0.0,141274,651eea44194fa8c200606af7,1,47,null,,,,,,,,,<p style='font-size: 30px;'><strong>Okay</strong></p>,null,neutral_feedback,0,test,13,,,,,,,,
,,,,,,,,,,,html-button-response,33,2.0.0,148023,651eea44194fa8c200606af7,1,47,6746,,,,,,,,,"<img src= ""rock_img/I_Obsidian_12.jpg"" style=""width:8cm; height:6.53cm;""><p>What type of rock is this?</p>",0,class_response,0,test,14,Andesite,Obsidian,12,FALSE,1,5,,
,,,,,,,,,,,html-keyboard-response,34,2.0.0,148525,651eea44194fa8c200606af7,1,47,null,,,,,,,,,<p style='font-size: 30px;'><strong>Okay</strong></p>,null,neutral_feedback,0,test,14,,,,,,,,
,,,,,,,,,,,html-button-response,35,2.0.0,154595,651eea44194fa8c200606af7,1,47,6067,,,,,,,,,"<img src= ""rock_img/I_Gabbro_09.jpg"" style=""width:8cm; height:7.279999999999999cm;""><p>What type of rock is this?</p>",5,class_response,0,test,15,Pegmatite,Gabbro,9,FALSE,6,4,,
,,,,,,,,,,,html-keyboard-response,36,2.0.0,155110,651eea44194fa8c200606af7,1,47,null,,,,,,,,,<p style='font-size: 30px;'><strong>Okay</strong></p>,null,neutral_feedback,0,test,15,,,,,,,,
,,,,,,,,,,,html-button-response,37,2.0.0,158979,651eea44194fa8c200606af7,1,47,3867,,,,,,,,,"<img src= ""rock_img/I_Gabbro_16.jpg"" style=""width:8cm; height:6.44cm;""><p>What type of rock is this?</p>",0,class_response,0,test,16,Andesite,Gabbro,16,FALSE,1,4,,
,,,,,,,,,,,html-keyboard-response,38,2.0.0,159484,651eea44194fa8c200606af7,1,47,null,,,,,,,,,<p style='font-size: 30px;'><strong>Okay</strong></p>,null,neutral_feedback,0,test,16,,,,,,,,
,,,,,,,,,,,html-button-response,39,2.0.0,162241,651eea44194fa8c200606af7,1,47,2755,,,,,,,,,"<img src= ""rock_img/I_Basalt_08.jpg"" style=""width:8cm; height:10.44cm;""><p>What type of rock is this?</p>",4,class_response,0,test,17,Obsidian,Basalt,8,FALSE,5,2,,
,,,,,,,,,,,html-keyboard-response,40,2.0.0,162747,651eea44194fa8c200606af7,1,47,null,,,,,,,,,<p style='font-size: 30px;'><strong>Okay</strong></p>,null,neutral_feedback,0,test,17,,,,,,,,
,,,,,,,,,,,html-button-response,41,2.0.0,165347,651eea44194fa8c200606af7,1,47,2598,,,,,,,,,"<img src= ""rock_img/I_Pumice_09.jpg"" style=""width:8cm; height:6.44cm;""><p>What type of rock is this?</p>",7,class_response,0,test,18,Pumice,Pumice,9,TRUE,8,8,,
,,,,,,,,,,,html-keyboard-response,42,2.0.0,165861,651eea44194fa8c200606af7,1,47,null,,,,,,,,,<p style='font-size: 30px;'><strong>Okay</strong></p>,null,neutral_feedback,0,test,18,,,,,,,,
,,,,,,,,,,,html-button-response,43,2.0.0,167607,651eea44194fa8c200606af7,1,47,1745,,,,,,,,,"<img src= ""rock_img/I_Pumice_04.jpg"" style=""width:8cm; height:6.819999999999999cm;""><p>What type of rock is this?</p>",7,class_response,0,test,19,Pumice,Pumice,4,TRUE,8,8,,
,,,,,,,,,,,html-keyboard-response,44,2.0.0,168110,651eea44194fa8c200606af7,1,47,null,,,,,,,,,<p style='font-size: 30px;'><strong>Okay</strong></p>,null,neutral_feedback,0,test,19,,,,,,,,
,,,,,,,,,,,html-button-response,45,2.0.0,172743,651eea44194fa8c200606af7,1,47,4630,,,,,,,,,"<img src= ""rock_img/I_Pegmatite_13.jpg"" style=""width:8cm; height:4.95cm;""><p>What type of rock is this?</p>",6,class_response,0,test,20,Peridotite,Pegmatite,13,FALSE,7,6,,
,,,,,,,,,,,html-keyboard-response,46,2.0.0,173250,651eea44194fa8c200606af7,1,47,null,,,,,,,,,<p style='font-size: 30px;'><strong>Okay</strong></p>,null,neutral_feedback,0,test,20,,,,,,,,
,,,,,,,,,,,html-button-response,47,2.0.0,177355,651eea44194fa8c200606af7,1,47,4102,,,,,,,,,"<img src= ""rock_img/I_Diorite_08.jpg"" style=""width:8cm; height:6.37cm;""><p>What type of rock is this?</p>",1,class_response,0,test,21,Basalt,Diorite,8,FALSE,2,3,,
,,,,,,,,,,,html-keyboard-response,48,2.0.0,177865,651eea44194fa8c200606af7,1,47,null,,,,,,,,,<p style='font-size: 30px;'><strong>Okay</strong></p>,null,neutral_feedback,0,test,21,,,,,,,,
,,,,,,,,,,,html-button-response,49,2.0.0,183261,651eea44194fa8c200606af7,1,47,5393,,,,,,,,,"<img src= ""rock_img/I_Pumice_02.jpg"" style=""width:8cm; height:7.3999999999999995cm;""><p>What type of rock is this?</p>",4,class_response,0,test,22,Obsidian,Pumice,2,FALSE,5,8,,
,,,,,,,,,,,html-keyboard-response,50,2.0.0,183768,651eea44194fa8c200606af7,1,47,null,,,,,,,,,<p style='font-size: 30px;'><strong>Okay</strong></p>,null,neutral_feedback,0,test,22,,,,,,,,
,,,,,,,,,,,html-button-response,51,2.0.0,186391,651eea44194fa8c200606af7,1,47,2620,,,,,,,,,"<img src= ""rock_img/I_Peridotite_13.jpg"" style=""width:8cm; height:7.58cm;""><p>What type of rock is this?</p>",1,class_response,0,test,23,Basalt,Peridotite,13,FALSE,2,7,,
,,,,,,,,,,,html-keyboard-response,52,2.0.0,186904,651eea44194fa8c200606af7,1,47,null,,,,,,,,,<p style='font-size: 30px;'><strong>Okay</strong></p>,null,neutral_feedback,0,test,23,,,,,,,,
,,,,,,,,,,,html-button-response,53,2.0.0,190045,651eea44194fa8c200606af7,1,47,3138,,,,,,,,,"<img src= ""rock_img/I_Peridotite_08.jpg"" style=""width:8cm; height:6.7cm;""><p>What type of rock is this?</p>",7,class_response,0,test,24,Pumice,Peridotite,8,FALSE,8,7,,
,,,,,,,,,,,html-keyboard-response,54,2.0.0,190556,651eea44194fa8c200606af7,1,47,null,,,,,,,,,<p style='font-size: 30px;'><strong>Okay</strong></p>,null,neutral_feedback,0,test,24,,,,,,,,
,,,,,,,,,,,html-button-response,55,2.0.0,193081,651eea44194fa8c200606af7,1,47,2522,,,,,,,,,"<img src= ""rock_img/I_Obsidian_11.jpg"" style=""width:8cm; height:6.05cm;""><p>What type of rock is this?</p>",2,class_response,0,test,25,Diorite,Obsidian,11,FALSE,3,5,,
,,,,,,,,,,,html-keyboard-response,56,2.0.0,193590,651eea44194fa8c200606af7,1,47,null,,,,,,,,,<p style='font-size: 30px;'><strong>Okay</strong></p>,null,neutral_feedback,0,test,25,,,,,,,,
,,,,,,,,,,,html-button-response,57,2.0.0,196225,651eea44194fa8c200606af7,1,47,2632,,,,,,,,,"<img src= ""rock_img/I_Andesite_06.jpg"" style=""width:8cm; height:6.840000000000001cm;""><p>What type of rock is this?</p>",0,class_response,0,test,26,Andesite,Andesite,6,TRUE,1,1,,
,,,,,,,,,,,html-keyboard-response,58,2.0.0,196733,651eea44194fa8c200606af7,1,47,null,,,,,,,,,<p style='font-size: 30px;'><strong>Okay</strong></p>,null,neutral_feedback,0,test,26,,,,,,,,
,,,,,,,,,,,html-button-response,59,2.0.0,200797,651eea44194fa8c200606af7,1,47,4062,,,,,,,,,"<img src= ""rock_img/I_Basalt_16.jpg"" style=""width:8cm; height:7.659999999999999cm;""><p>What type of rock is this?</p>",5,class_response,0,test,27,Pegmatite,Basalt,16,FALSE,6,2,,
,,,,,,,,,,,html-keyboard-response,60,2.0.0,201303,651eea44194fa8c200606af7,1,47,null,,,,,,,,,<p style='font-size: 30px;'><strong>Okay</strong></p>,null,neutral_feedback,0,test,27,,,,,,,,
,,,,,,,,,,,html-button-response,61,2.0.0,205175,651eea44194fa8c200606af7,1,47,3869,,,,,,,,,"<img src= ""rock_img/I_Peridotite_16.jpg"" style=""width:8cm; height:6.989999999999999cm;""><p>What type of rock is this?</p>",2,class_response,0,test,28,Diorite,Peridotite,16,FALSE,3,7,,
,,,,,,,,,,,html-keyboard-response,62,2.0.0,205680,651eea44194fa8c200606af7,1,47,null,,,,,,,,,<p style='font-size: 30px;'><strong>Okay</strong></p>,null,neutral_feedback,0,test,28,,,,,,,,
,,,,,,,,,,,html-button-response,63,2.0.0,207895,651eea44194fa8c200606af7,1,47,2213,,,,,,,,,"<img src= ""rock_img/I_Gabbro_05.jpg"" style=""width:8cm; height:6cm;""><p>What type of rock is this?</p>",6,class_response,0,test,29,Peridotite,Gabbro,5,FALSE,7,4,,
,,,,,,,,,,,html-keyboard-response,64,2.0.0,208400,651eea44194fa8c200606af7,1,47,null,,,,,,,,,<p style='font-size: 30px;'><strong>Okay</strong></p>,null,neutral_feedback,0,test,29,,,,,,,,
,,,,,,,,,,,html-button-response,65,2.0.0,211401,651eea44194fa8c200606af7,1,47,2998,,,,,,,,,"<img src= ""rock_img/I_Basalt_06.jpg"" style=""width:8cm; height:7.06cm;""><p>What type of rock is this?</p>",1,class_response,0,test,30,Basalt,Basalt,6,TRUE,2,2,,
,,,,,,,,,,,html-keyboard-response,66,2.0.0,211914,651eea44194fa8c200606af7,1,47,null,,,,,,,,,<p style='font-size: 30px;'><strong>Okay</strong></p>,null,neutral_feedback,0,test,30,,,,,,,,
,,,,,,,,,,,html-button-response,67,2.0.0,214367,651eea44194fa8c200606af7,1,47,2450,,,,,,,,,"<img src= ""rock_img/I_Pegmatite_11.jpg"" style=""width:8cm; height:8.14cm;""><p>What type of rock is this?</p>",2,class_response,0,test,31,Diorite,Pegmatite,11,FALSE,3,6,,
,,,,,,,,,,,html-keyboard-response,68,2.0.0,214875,651eea44194fa8c200606af7,1,47,null,,,,,,,,,<p style='font-size: 30px;'><strong>Okay</strong></p>,null,neutral_feedback,0,test,31,,,,,,,,
,,,,,,,,,,,html-button-response,69,2.0.0,217825,651eea44194fa8c200606af7,1,47,2947,,,,,,,,,"<img src= ""rock_img/I_Andesite_16.jpg"" style=""width:8cm; height:6.010000000000001cm;""><p>What type of rock is this?</p>",4,class_response,0,test,32,Obsidian,Andesite,16,FALSE,5,1,,
,,,,,,,,,,,html-keyboard-response,70,2.0.0,218335,651eea44194fa8c200606af7,1,47,null,,,,,,,,,<p style='font-size: 30px;'><strong>Okay</strong></p>,null,neutral_feedback,0,test,32,,,,,,,,
,,,,,,,,,,,html-button-response,71,2.0.0,220577,651eea44194fa8c200606af7,1,47,2240,,,,,,,,,"<img src= ""rock_img/I_Obsidian_10.jpg"" style=""width:8cm; height:6.260000000000001cm;""><p>What type of rock is this?</p>",5,class_response,0,test,33,Pegmatite,Obsidian,10,FALSE,6,5,,
,,,,,,,,,,,html-keyboard-response,72,2.0.0,221083,651eea44194fa8c200606af7,1,47,null,,,,,,,,,<p style='font-size: 30px;'><strong>Okay</strong></p>,null,neutral_feedback,0,test,33,,,,,,,,
,,,,,,,,,,,html-button-response,73,2.0.0,222899,651eea44194fa8c200606af7,1,47,1814,,,,,,,,,"<img src= ""rock_img/I_Pumice_05.jpg"" style=""width:8cm; height:7.25cm;""><p>What type of rock is this?</p>",7,class_response,0,test,34,Pumice,Pumice,5,TRUE,8,8,,
,,,,,,,,,,,html-keyboard-response,74,2.0.0,223412,651eea44194fa8c200606af7,1,47,null,,,,,,,,,<p style='font-size: 30px;'><strong>Okay</strong></p>,null,neutral_feedback,0,test,34,,,,,,,,
,,,,,,,,,,,html-button-response,75,2.0.0,228437,651eea44194fa8c200606af7,1,47,5022,,,,,,,,,"<img src= ""rock_img/I_Pegmatite_03.jpg"" style=""width:8cm; height:5.239999999999999cm;""><p>What type of rock is this?</p>",0,class_response,0,test,35,Andesite,Pegmatite,3,FALSE,1,6,,
,,,,,,,,,,,html-keyboard-response,76,2.0.0,228941,651eea44194fa8c200606af7,1,47,null,,,,,,,,,<p style='font-size: 30px;'><strong>Okay</strong></p>,null,neutral_feedback,0,test,35,,,,,,,,
,,,,,,,,,,,html-button-response,77,2.0.0,231457,651eea44194fa8c200606af7,1,47,2514,,,,,,,,,"<img src= ""rock_img/I_Pegmatite_16.jpg"" style=""width:8cm; height:5.8cm;""><p>What type of rock is this?</p>",3,class_response,0,test,36,Gabbro,Pegmatite,16,FALSE,4,6,,
,,,,,,,,,,,html-keyboard-response,78,2.0.0,231969,651eea44194fa8c200606af7,1,47,null,,,,,,,,,<p style='font-size: 30px;'><strong>Okay</strong></p>,null,neutral_feedback,0,test,36,,,,,,,,
,,,,,,,,,,,html-button-response,79,2.0.0,235025,651eea44194fa8c200606af7,1,47,3054,,,,,,,,,"<img src= ""rock_img/I_Andesite_14.jpg"" style=""width:8cm; height:5.449999999999999cm;""><p>What type of rock is this?</p>",4,class_response,0,test,37,Obsidian,Andesite,14,FALSE,5,1,,
,,,,,,,,,,,html-keyboard-response,80,2.0.0,235532,651eea44194fa8c200606af7,1,47,null,,,,,,,,,<p style='font-size: 30px;'><strong>Okay</strong></p>,null,neutral_feedback,0,test,37,,,,,,,,
,,,,,,,,,,,html-button-response,81,2.0.0,238069,651eea44194fa8c200606af7,1,47,2534,,,,,,,,,"<img src= ""rock_img/I_Basalt_05.jpg"" style=""width:8cm; height:8.18cm;""><p>What type of rock is this?</p>",1,class_response,0,test,38,Basalt,Basalt,5,TRUE,2,2,,
,,,,,,,,,,,html-keyboard-response,82,2.0.0,238577,651eea44194fa8c200606af7,1,47,null,,,,,,,,,<p style='font-size: 30px;'><strong>Okay</strong></p>,null,neutral_feedback,0,test,38,,,,,,,,
,,,,,,,,,,,html-button-response,83,2.0.0,240485,651eea44194fa8c200606af7,1,47,1905,,,,,,,,,"<img src= ""rock_img/I_Pumice_15.jpg"" style=""width:8cm; height:7.86cm;""><p>What type of rock is this?</p>",7,class_response,0,test,39,Pumice,Pumice,15,TRUE,8,8,,
,,,,,,,,,,,html-keyboard-response,84,2.0.0,240990,651eea44194fa8c200606af7,1,47,null,,,,,,,,,<p style='font-size: 30px;'><strong>Okay</strong></p>,null,neutral_feedback,0,test,39,,,,,,,,
,,,,,,,,,,,html-button-response,85,2.0.0,244005,651eea44194fa8c200606af7,1,47,3013,,,,,,,,,"<img src= ""rock_img/I_Peridotite_02.jpg"" style=""width:8cm; height:5.859999999999999cm;""><p>What type of rock is this?</p>",5,class_response,0,test,40,Pegmatite,Peridotite,2,FALSE,6,7,,
,,,,,,,,,,,html-keyboard-response,86,2.0.0,244521,651eea44194fa8c200606af7,1,47,null,,,,,,,,,<p style='font-size: 30px;'><strong>Okay</strong></p>,null,neutral_feedback,0,test,40,,,,,,,,
,,,,,,,,,,,html-button-response,87,2.0.0,247065,651eea44194fa8c200606af7,1,47,2541,,,,,,,,,"<img src= ""rock_img/I_Basalt_10.jpg"" style=""width:8cm; height:5.85cm;""><p>What type of rock is this?</p>",0,class_response,0,test,41,Andesite,Basalt,10,FALSE,1,2,,
,,,,,,,,,,,html-keyboard-response,88,2.0.0,247568,651eea44194fa8c200606af7,1,47,null,,,,,,,,,<p style='font-size: 30px;'><strong>Okay</strong></p>,null,neutral_feedback,0,test,41,,,,,,,,
,,,,,,,,,,,html-button-response,89,2.0.0,250013,651eea44194fa8c200606af7,1,47,2442,,,,,,,,,"<img src= ""rock_img/I_Andesite_03.jpg"" style=""width:8cm; height:5.73cm;""><p>What type of rock is this?</p>",4,class_response,0,test,42,Obsidian,Andesite,3,FALSE,5,1,,
,,,,,,,,,,,html-keyboard-response,90,2.0.0,250515,651eea44194fa8c200606af7,1,47,null,,,,,,,,,<p style='font-size: 30px;'><strong>Okay</strong></p>,null,neutral_feedback,0,test,42,,,,,,,,
,,,,,,,,,,,html-button-response,91,2.0.0,252711,651eea44194fa8c200606af7,1,47,2193,,,,,,,,,"<img src= ""rock_img/I_Diorite_12.jpg"" style=""width:8cm; height:4.88cm;""><p>What type of rock is this?</p>",7,class_response,0,test,43,Pumice,Diorite,12,FALSE,8,3,,
,,,,,,,,,,,html-keyboard-response,92,2.0.0,253227,651eea44194fa8c200606af7,1,47,null,,,,,,,,,<p style='font-size: 30px;'><strong>Okay</strong></p>,null,neutral_feedback,0,test,43,,,,,,,,
,,,,,,,,,,,html-button-response,93,2.0.0,257565,651eea44194fa8c200606af7,1,47,4335,,,,,,,,,"<img src= ""rock_img/I_Diorite_15.jpg"" style=""width:8cm; height:5.54cm;""><p>What type of rock is this?</p>",2,class_response,0,test,44,Diorite,Diorite,15,TRUE,3,3,,
,,,,,,,,,,,html-keyboard-response,94,2.0.0,258067,651eea44194fa8c200606af7,1,47,null,,,,,,,,,<p style='font-size: 30px;'><strong>Okay</strong></p>,null,neutral_feedback,0,test,44,,,,,,,,
,,,,,,,,,,,html-button-response,95,2.0.0,261573,651eea44194fa8c200606af7,1,47,3502,,,,,,,,,"<img src= ""rock_img/I_Obsidian_02.jpg"" style=""width:8cm; height:7.51cm;""><p>What type of rock is this?</p>",0,class_response,0,test,45,Andesite,Obsidian,2,FALSE,1,5,,
,,,,,,,,,,,html-keyboard-response,96,2.0.0,262079,651eea44194fa8c200606af7,1,47,null,,,,,,,,,<p style='font-size: 30px;'><strong>Okay</strong></p>,null,neutral_feedback,0,test,45,,,,,,,,
,,,,,,,,,,,html-button-response,97,2.0.0,263871,651eea44194fa8c200606af7,1,47,1790,,,,,,,,,"<img src= ""rock_img/I_Obsidian_14.jpg"" style=""width:8cm; height:7.64cm;""><p>What type of rock is this?</p>",0,class_response,0,test,46,Andesite,Obsidian,14,FALSE,1,5,,
,,,,,,,,,,,html-keyboard-response,98,2.0.0,264377,651eea44194fa8c200606af7,1,47,null,,,,,,,,,<p style='font-size: 30px;'><strong>Okay</strong></p>,null,neutral_feedback,0,test,46,,,,,,,,
,,,,,,,,,,,html-button-response,99,2.0.0,266279,651eea44194fa8c200606af7,1,47,1900,,,,,,,,,"<img src= ""rock_img/I_Andesite_04.jpg"" style=""width:8cm; height:5.96cm;""><p>What type of rock is this?</p>",2,class_response,0,test,47,Diorite,Andesite,4,FALSE,3,1,,
,,,,,,,,,,,html-keyboard-response,100,2.0.0,266790,651eea44194fa8c200606af7,1,47,null,,,,,,,,,<p style='font-size: 30px;'><strong>Okay</strong></p>,null,neutral_feedback,0,test,47,,,,,,,,
,,,,,,,,,,,html-button-response,101,2.0.0,269753,651eea44194fa8c200606af7,1,47,2960,,,,,,,,,"<img src= ""rock_img/I_Pegmatite_06.jpg"" style=""width:8cm; height:5.17cm;""><p>What type of rock is this?</p>",6,class_response,0,test,48,Peridotite,Pegmatite,6,FALSE,7,6,,
,,,,,,,,,,,html-keyboard-response,102,2.0.0,270259,651eea44194fa8c200606af7,1,47,null,,,,,,,,,<p style='font-size: 30px;'><strong>Okay</strong></p>,null,neutral_feedback,0,test,48,,,,,,,,
,,,,,,,,,,,instructions,103,2.0.0,298565,651eea44194fa8c200606af7,1,47,28275,,,,,,,,"[{""page_index"":0,""viewing_time"":18253},{""page_index"":1,""viewing_time"":6916},{""page_index"":2,""viewing_time"":3106}]",,,,,,,,,,,,,,
,,,,,,,,,,,html-button-response,104,2.0.0,300597,651eea44194fa8c200606af7,1,47,2030,,,,,,,,,,0,start_train,,,,,,,,,,,
,,,,,,,,,,,html-button-response,105,2.0.0,303075,651eea44194fa8c200606af7,1,47,2476,,,,,,,,,"<img src= ""rock_img/I_Obsidian_08.jpg"" style=""width:8cm; height:7.39cm;""><p>What type of rock is this?</p>",0,class_response,1,train,1,Andesite,Obsidian,8,FALSE,1,5,,
,,,,,,,,,,,html-button-response,106,2.0.0,317259,651eea44194fa8c200606af7,1,47,14183,,,,,,,,,"<img src= rock_img/I_Obsidian_08.jpg style=""width:8cm; height:7.39cm;""><p style='font-size: 30px; color: red;'><strong>Incorrect!</strong></p><p style='font-size: 30px;'><strong>This rock is obsidian</strong></p>",0,corr_feedback,1,train,1,,,,,,,,
,,,,,,,,,,,html-button-response,107,2.0.0,320387,651eea44194fa8c200606af7,1,47,3127,,,,,,,,,"<img src= ""rock_img/I_Pegmatite_15.jpg"" style=""width:8cm; height:6cm;""><p>What type of rock is this?</p>",2,class_response,1,train,2,Diorite,Pegmatite,15,FALSE,3,6,,
,,,,,,,,,,,html-button-response,108,2.0.0,327071,651eea44194fa8c200606af7,1,47,6682,,,,,,,,,"<img src= rock_img/I_Pegmatite_15.jpg style=""width:8cm; height:6cm;""><p style='font-size: 30px; color: red;'><strong>Incorrect!</strong></p><p style='font-size: 30px;'><strong>This rock is pegmatite</strong></p>",0,corr_feedback,1,train,2,,,,,,,,
,,,,,,,,,,,html-button-response,109,2.0.0,330363,651eea44194fa8c200606af7,1,47,3291,,,,,,,,,"<img src= ""rock_img/I_Obsidian_05.jpg"" style=""width:8cm; height:6.33cm;""><p>What type of rock is this?</p>",3,class_response,1,train,3,Gabbro,Obsidian,5,FALSE,4,5,,
,,,,,,,,,,,html-button-response,110,2.0.0,336607,651eea44194fa8c200606af7,1,47,6242,,,,,,,,,"<img src= rock_img/I_Obsidian_05.jpg style=""width:8cm; height:6.33cm;""><p style='font-size: 30px; color: red;'><strong>Incorrect!</strong></p><p style='font-size: 30px;'><strong>This rock is obsidian</strong></p>",0,corr_feedback,1,train,3,,,,,,,,
,,,,,,,,,,,html-button-response,111,2.0.0,339901,651eea44194fa8c200606af7,1,47,3293,,,,,,,,,"<img src= ""rock_img/I_Pegmatite_07.jpg"" style=""width:8cm; height:6.7cm;""><p>What type of rock is this?</p>",6,class_response,1,train,4,Peridotite,Pegmatite,7,FALSE,7,6,,
,,,,,,,,,,,html-button-response,112,2.0.0,346027,651eea44194fa8c200606af7,1,47,6124,,,,,,,,,"<img src= rock_img/I_Pegmatite_07.jpg style=""width:8cm; height:6.7cm;""><p style='font-size: 30px; color: red;'><strong>Incorrect!</strong></p><p style='font-size: 30px;'><strong>This rock is pegmatite</strong></p>",0,corr_feedback,1,train,4,,,,,,,,
,,,,,,,,,,,html-button-response,113,2.0.0,348945,651eea44194fa8c200606af7,1,47,2917,,,,,,,,,"<img src= ""rock_img/I_Pumice_13.jpg"" style=""width:8cm; height:8.200000000000001cm;""><p>What type of rock is this?</p>",7,class_response,1,train,5,Pumice,Pumice,13,TRUE,8,8,,
,,,,,,,,,,,html-button-response,114,2.0.0,353863,651eea44194fa8c200606af7,1,47,4916,,,,,,,,,"<img src= rock_img/I_Pumice_13.jpg style=""width:8cm; height:8.200000000000001cm;""><p style='font-size: 30px; color: green;'><strong>Correct!</strong></p><p style='font-size: 30px;'><strong>This rock is pumice</strong></p>",0,corr_feedback,1,train,5,,,,,,,,
,,,,,,,,,,,html-button-response,115,2.0.0,356967,651eea44194fa8c200606af7,1,47,3103,,,,,,,,,"<img src= ""rock_img/I_Diorite_10.jpg"" style=""width:8cm; height:5.949999999999999cm;""><p>What type of rock is this?</p>",1,class_response,1,train,6,Basalt,Diorite,10,FALSE,2,3,,
,,,,,,,,,,,html-button-response,116,2.0.0,362897,651eea44194fa8c200606af7,1,47,5929,,,,,,,,,"<img src= rock_img/I_Diorite_10.jpg style=""width:8cm; height:5.949999999999999cm;""><p style='font-size: 30px; color: red;'><strong>Incorrect!</strong></p><p style='font-size: 30px;'><strong>This rock is diorite</strong></p>",0,corr_feedback,1,train,6,,,,,,,,
,,,,,,,,,,,html-button-response,117,2.0.0,366019,651eea44194fa8c200606af7,1,47,3120,,,,,,,,,"<img src= ""rock_img/I_Peridotite_10.jpg"" style=""width:8cm; height:5.390000000000001cm;""><p>What type of rock is this?</p>",3,class_response,1,train,7,Gabbro,Peridotite,10,FALSE,4,7,,
,,,,,,,,,,,html-button-response,118,2.0.0,371847,651eea44194fa8c200606af7,1,47,5827,,,,,,,,,"<img src= rock_img/I_Peridotite_10.jpg style=""width:8cm; height:5.390000000000001cm;""><p style='font-size: 30px; color: red;'><strong>Incorrect!</strong></p><p style='font-size: 30px;'><strong>This rock is peridotite</strong></p>",0,corr_feedback,1,train,7,,,,,,,,
,,,,,,,,,,,html-button-response,119,2.0.0,374535,651eea44194fa8c200606af7,1,47,2687,,,,,,,,,"<img src= ""rock_img/I_Obsidian_16.jpg"" style=""width:8cm; height:9.3cm;""><p>What type of rock is this?</p>",4,class_response,1,train,8,Obsidian,Obsidian,16,TRUE,5,5,,
,,,,,,,,,,,html-button-response,120,2.0.0,377823,651eea44194fa8c200606af7,1,47,3287,,,,,,,,,"<img src= rock_img/I_Obsidian_16.jpg style=""width:8cm; height:9.3cm;""><p style='font-size: 30px; color: green;'><strong>Correct!</strong></p><p style='font-size: 30px;'><strong>This rock is obsidian</strong></p>",0,corr_feedback,1,train,8,,,,,,,,
,,,,,,,,,,,html-button-response,121,2.0.0,383439,651eea44194fa8c200606af7,1,47,5615,,,,,,,,,"<img src= ""rock_img/I_Andesite_10.jpg"" style=""width:8cm; height:4.16cm;""><p>What type of rock is this?</p>",0,class_response,1,train,9,Andesite,Andesite,10,TRUE,1,1,,
,,,,,,,,,,,html-button-response,122,2.0.0,391469,651eea44194fa8c200606af7,1,47,8028,,,,,,,,,"<img src= rock_img/I_Andesite_10.jpg style=""width:8cm; height:4.16cm;""><p style='font-size: 30px; color: green;'><strong>Correct!</strong></p><p style='font-size: 30px;'><strong>This rock is andesite</strong></p>",0,corr_feedback,1,train,9,,,,,,,,
,,,,,,,,,,,html-button-response,123,2.0.0,394653,651eea44194fa8c200606af7,1,47,3183,,,,,,,,,"<img src= ""rock_img/I_Basalt_12.jpg"" style=""width:8cm; height:6.010000000000001cm;""><p>What type of rock is this?</p>",2,class_response,1,train,10,Diorite,Basalt,12,FALSE,3,2,,
,,,,,,,,,,,html-button-response,124,2.0.0,401297,651eea44194fa8c200606af7,1,47,6642,,,,,,,,,"<img src= rock_img/I_Basalt_12.jpg style=""width:8cm; height:6.010000000000001cm;""><p style='font-size: 30px; color: red;'><strong>Incorrect!</strong></p><p style='font-size: 30px;'><strong>This rock is basalt</strong></p>",0,corr_feedback,1,train,10,,,,,,,,
,,,,,,,,,,,html-button-response,125,2.0.0,403429,651eea44194fa8c200606af7,1,47,2130,,,,,,,,,"<img src= ""rock_img/I_Pumice_06.jpg"" style=""width:8cm; height:6.9399999999999995cm;""><p>What type of rock is this?</p>",7,class_response,1,train,11,Pumice,Pumice,6,TRUE,8,8,,
,,,,,,,,,,,html-button-response,126,2.0.0,405367,651eea44194fa8c200606af7,1,47,1937,,,,,,,,,"<img src= rock_img/I_Pumice_06.jpg style=""width:8cm; height:6.9399999999999995cm;""><p style='font-size: 30px; color: green;'><strong>Correct!</strong></p><p style='font-size: 30px;'><strong>This rock is pumice</strong></p>",0,corr_feedback,1,train,11,,,,,,,,
,,,,,,,,,,,html-button-response,127,2.0.0,409641,651eea44194fa8c200606af7,1,47,4272,,,,,,,,,"<img src= ""rock_img/I_Basalt_11.jpg"" style=""width:8cm; height:5.359999999999999cm;""><p>What type of rock is this?</p>",0,class_response,1,train,12,Andesite,Basalt,11,FALSE,1,2,,
,,,,,,,,,,,html-button-response,128,2.0.0,415539,651eea44194fa8c200606af7,1,47,5897,,,,,,,,,"<img src= rock_img/I_Basalt_11.jpg style=""width:8cm; height:5.359999999999999cm;""><p style='font-size: 30px; color: red;'><strong>Incorrect!</strong></p><p style='font-size: 30px;'><strong>This rock is basalt</strong></p>",0,corr_feedback,1,train,12,,,,,,,,
,,,,,,,,,,,html-button-response,129,2.0.0,421483,651eea44194fa8c200606af7,1,47,5943,,,,,,,,,"<img src= ""rock_img/I_Pegmatite_08.jpg"" style=""width:8cm; height:7.68cm;""><p>What type of rock is this?</p>",5,class_response,1,train,13,Pegmatite,Pegmatite,8,TRUE,6,6,,
,,,,,,,,,,,html-button-response,130,2.0.0,427139,651eea44194fa8c200606af7,1,47,5654,,,,,,,,,"<img src= rock_img/I_Pegmatite_08.jpg style=""width:8cm; height:7.68cm;""><p style='font-size: 30px; color: green;'><strong>Correct!</strong></p><p style='font-size: 30px;'><strong>This rock is pegmatite</strong></p>",0,corr_feedback,1,train,13,,,,,,,,
,,,,,,,,,,,html-button-response,131,2.0.0,428895,651eea44194fa8c200606af7,1,47,1754,,,,,,,,,"<img src= ""rock_img/I_Basalt_14.jpg"" style=""width:8cm; height:5.82cm;""><p>What type of rock is this?</p>",6,class_response,1,train,14,Peridotite,Basalt,14,FALSE,7,2,,
,,,,,,,,,,,html-button-response,132,2.0.0,434895,651eea44194fa8c200606af7,1,47,5998,,,,,,,,,"<img src= rock_img/I_Basalt_14.jpg style=""width:8cm; height:5.82cm;""><p style='font-size: 30px; color: red;'><strong>Incorrect!</strong></p><p style='font-size: 30px;'><strong>This rock is basalt</strong></p>",0,corr_feedback,1,train,14,,,,,,,,
,,,,,,,,,,,html-button-response,133,2.0.0,436747,651eea44194fa8c200606af7,1,47,1851,,,,,,,,,"<img src= ""rock_img/I_Pumice_10.jpg"" style=""width:8cm; height:7.609999999999999cm;""><p>What type of rock is this?</p>",7,class_response,1,train,15,Pumice,Pumice,10,TRUE,8,8,,
,,,,,,,,,,,html-button-response,134,2.0.0,438087,651eea44194fa8c200606af7,1,47,1339,,,,,,,,,"<img src= rock_img/I_Pumice_10.jpg style=""width:8cm; height:7.609999999999999cm;""><p style='font-size: 30px; color: green;'><strong>Correct!</strong></p><p style='font-size: 30px;'><strong>This rock is pumice</strong></p>",0,corr_feedback,1,train,15,,,,,,,,
,,,,,,,,,,,html-button-response,135,2.0.0,440809,651eea44194fa8c200606af7,1,47,2721,,,,,,,,,"<img src= ""rock_img/I_Andesite_09.jpg"" style=""width:8cm; height:6cm;""><p>What type of rock is this?</p>",6,class_response,1,train,16,Peridotite,Andesite,9,FALSE,7,1,,
,,,,,,,,,,,html-button-response,136,2.0.0,448645,651eea44194fa8c200606af7,1,47,7834,,,,,,,,,"<img src= rock_img/I_Andesite_09.jpg style=""width:8cm; height:6cm;""><p style='font-size: 30px; color: red;'><strong>Incorrect!</strong></p><p style='font-size: 30px;'><strong>This rock is andesite</strong></p>",0,corr_feedback,1,train,16,,,,,,,,
,,,,,,,,,,,html-button-response,137,2.0.0,451139,651eea44194fa8c200606af7,1,47,2492,,,,,,,,,"<img src= ""rock_img/I_Andesite_05.jpg"" style=""width:8cm; height:4.12cm;""><p>What type of rock is this?</p>",4,class_response,1,train,17,Obsidian,Andesite,5,FALSE,5,1,,
,,,,,,,,,,,html-button-response,138,2.0.0,452825,651eea44194fa8c200606af7,1,47,1684,,,,,,,,,"<img src= rock_img/I_Andesite_05.jpg style=""width:8cm; height:4.12cm;""><p style='font-size: 30px; color: red;'><strong>Incorrect!</strong></p><p style='font-size: 30px;'><strong>This rock is andesite</strong></p>",0,corr_feedback,1,train,17,,,,,,,,
,,,,,,,,,,,html-button-response,139,2.0.0,461083,651eea44194fa8c200606af7,1,47,8257,,,,,,,,,"<img src= ""rock_img/I_Basalt_02.jpg"" style=""width:8cm; height:6.45cm;""><p>What type of rock is this?</p>",5,class_response,1,train,18,Pegmatite,Basalt,2,FALSE,6,2,,
,,,,,,,,,,,html-button-response,140,2.0.0,466071,651eea44194fa8c200606af7,1,47,4986,,,,,,,,,"<img src= rock_img/I_Basalt_02.jpg style=""width:8cm; height:6.45cm;""><p style='font-size: 30px; color: red;'><strong>Incorrect!</strong></p><p style='font-size: 30px;'><strong>This rock is basalt</strong></p>",0,corr_feedback,1,train,18,,,,,,,,
,,,,,,,,,,,html-button-response,141,2.0.0,468455,651eea44194fa8c200606af7,1,47,2383,,,,,,,,,"<img src= ""rock_img/I_Peridotite_05.jpg"" style=""width:8cm; height:7.1499999999999995cm;""><p>What type of rock is this?</p>",6,class_response,1,train,19,Peridotite,Peridotite,5,TRUE,7,7,,
,,,,,,,,,,,html-button-response,142,2.0.0,475851,651eea44194fa8c200606af7,1,47,7395,,,,,,,,,"<img src= rock_img/I_Peridotite_05.jpg style=""width:8cm; height:7.1499999999999995cm;""><p style='font-size: 30px; color: green;'><strong>Correct!</strong></p><p style='font-size: 30px;'><strong>This rock is peridotite</strong></p>",0,corr_feedback,1,train,19,,,,,,,,
,,,,,,,,,,,html-button-response,143,2.0.0,477663,651eea44194fa8c200606af7,1,47,1811,,,,,,,,,"<img src= ""rock_img/I_Basalt_09.jpg"" style=""width:8cm; height:6.2cm;""><p>What type of rock is this?</p>",1,class_response,1,train,20,Basalt,Basalt,9,TRUE,2,2,,
,,,,,,,,,,,html-button-response,144,2.0.0,480205,651eea44194fa8c200606af7,1,47,2541,,,,,,,,,"<img src= rock_img/I_Basalt_09.jpg style=""width:8cm; height:6.2cm;""><p style='font-size: 30px; color: green;'><strong>Correct!</strong></p><p style='font-size: 30px;'><strong>This rock is basalt</strong></p>",0,corr_feedback,1,train,20,,,,,,,,
,,,,,,,,,,,html-button-response,145,2.0.0,484595,651eea44194fa8c200606af7,1,47,4389,,,,,,,,,"<img src= ""rock_img/I_Andesite_07.jpg"" style=""width:8cm; height:5.93cm;""><p>What type of rock is this?</p>",0,class_response,1,train,21,Andesite,Andesite,7,TRUE,1,1,,
,,,,,,,,,,,html-button-response,146,2.0.0,488573,651eea44194fa8c200606af7,1,47,3977,,,,,,,,,"<img src= rock_img/I_Andesite_07.jpg style=""width:8cm; height:5.93cm;""><p style='font-size: 30px; color: green;'><strong>Correct!</strong></p><p style='font-size: 30px;'><strong>This rock is andesite</strong></p>",0,corr_feedback,1,train,21,,,,,,,,
,,,,,,,,,,,html-button-response,147,2.0.0,492243,651eea44194fa8c200606af7,1,47,3669,,,,,,,,,"<img src= ""rock_img/I_Peridotite_14.jpg"" style=""width:8cm; height:5.3cm;""><p>What type of rock is this?</p>",3,class_response,1,train,22,Gabbro,Peridotite,14,FALSE,4,7,,
,,,,,,,,,,,html-button-response,148,2.0.0,497999,651eea44194fa8c200606af7,1,47,5755,,,,,,,,,"<img src= rock_img/I_Peridotite_14.jpg style=""width:8cm; height:5.3cm;""><p style='font-size: 30px; color: red;'><strong>Incorrect!</strong></p><p style='font-size: 30px;'><strong>This rock is peridotite</strong></p>",0,corr_feedback,1,train,22,,,,,,,,
,,,,,,,,,,,html-button-response,149,2.0.0,500611,651eea44194fa8c200606af7,1,47,2611,,,,,,,,,"<img src= ""rock_img/I_Gabbro_01.jpg"" style=""width:8cm; height:5.21cm;""><p>What type of rock is this?</p>",5,class_response,1,train,23,Pegmatite,Gabbro,1,FALSE,6,4,,
,,,,,,,,,,,html-button-response,150,2.0.0,506815,651eea44194fa8c200606af7,1,47,6202,,,,,,,,,"<img src= rock_img/I_Gabbro_01.jpg style=""width:8cm; height:5.21cm;""><p style='font-size: 30px; color: red;'><strong>Incorrect!</strong></p><p style='font-size: 30px;'><strong>This rock is gabbro</strong></p>",0,corr_feedback,1,train,23,,,,,,,,
,,,,,,,,,,,html-button-response,151,2.0.0,508729,651eea44194fa8c200606af7,1,47,1913,,,,,,,,,"<img src= ""rock_img/I_Diorite_09.jpg"" style=""width:8cm; height:5.27cm;""><p>What type of rock is this?</p>",7,class_response,1,train,24,Pumice,Diorite,9,FALSE,8,3,,
,,,,,,,,,,,html-button-response,152,2.0.0,515889,651eea44194fa8c200606af7,1,47,7159,,,,,,,,,"<img src= rock_img/I_Diorite_09.jpg style=""width:8cm; height:5.27cm;""><p style='font-size: 30px; color: red;'><strong>Incorrect!</strong></p><p style='font-size: 30px;'><strong>This rock is diorite</strong></p>",0,corr_feedback,1,train,24,,,,,,,,
,,,,,,,,,,,html-button-response,153,2.0.0,518375,651eea44194fa8c200606af7,1,47,2485,,,,,,,,,"<img src= ""rock_img/I_Pumice_03.jpg"" style=""width:8cm; height:6.64cm;""><p>What type of rock is this?</p>",7,class_response,1,train,25,Pumice,Pumice,3,TRUE,8,8,,
,,,,,,,,,,,html-button-response,154,2.0.0,519503,651eea44194fa8c200606af7,1,47,1126,,,,,,,,,"<img src= rock_img/I_Pumice_03.jpg style=""width:8cm; height:6.64cm;""><p style='font-size: 30px; color: green;'><strong>Correct!</strong></p><p style='font-size: 30px;'><strong>This rock is pumice</strong></p>",0,corr_feedback,1,train,25,,,,,,,,
,,,,,,,,,,,html-button-response,155,2.0.0,524367,651eea44194fa8c200606af7,1,47,4863,,,,,,,,,"<img src= ""rock_img/I_Diorite_06.jpg"" style=""width:8cm; height:6.03cm;""><p>What type of rock is this?</p>",6,class_response,1,train,26,Peridotite,Diorite,6,FALSE,7,3,,
,,,,,,,,,,,html-button-response,156,2.0.0,530492,651eea44194fa8c200606af7,1,47,6124,,,,,,,,,"<img src= rock_img/I_Diorite_06.jpg style=""width:8cm; height:6.03cm;""><p style='font-size: 30px; color: red;'><strong>Incorrect!</strong></p><p style='font-size: 30px;'><strong>This rock is diorite</strong></p>",0,corr_feedback,1,train,26,,,,,,,,
,,,,,,,,,,,html-button-response,157,2.0.0,532209,651eea44194fa8c200606af7,1,47,1715,,,,,,,,,"<img src= ""rock_img/I_Pumice_14.jpg"" style=""width:8cm; height:6.39cm;""><p>What type of rock is this?</p>",7,class_response,1,train,27,Pumice,Pumice,14,TRUE,8,8,,
,,,,,,,,,,,html-button-response,158,2.0.0,533221,651eea44194fa8c200606af7,1,47,1010,,,,,,,,,"<img src= rock_img/I_Pumice_14.jpg style=""width:8cm; height:6.39cm;""><p style='font-size: 30px; color: green;'><strong>Correct!</strong></p><p style='font-size: 30px;'><strong>This rock is pumice</strong></p>",0,corr_feedback,1,train,27,,,,,,,,
,,,,,,,,,,,html-button-response,159,2.0.0,537167,651eea44194fa8c200606af7,1,47,3945,,,,,,,,,"<img src= ""rock_img/I_Peridotite_15.jpg"" style=""width:8cm; height:6cm;""><p>What type of rock is this?</p>",3,class_response,1,train,28,Gabbro,Peridotite,15,FALSE,4,7,,
,,,,,,,,,,,html-button-response,160,2.0.0,543581,651eea44194fa8c200606af7,1,47,6413,,,,,,,,,"<img src= rock_img/I_Peridotite_15.jpg style=""width:8cm; height:6cm;""><p style='font-size: 30px; color: red;'><strong>Incorrect!</strong></p><p style='font-size: 30px;'><strong>This rock is peridotite</strong></p>",0,corr_feedback,1,train,28,,,,,,,,
,,,,,,,,,,,html-button-response,161,2.0.0,545479,651eea44194fa8c200606af7,1,47,1897,,,,,,,,,"<img src= ""rock_img/I_Obsidian_04.jpg"" style=""width:8cm; height:6.930000000000001cm;""><p>What type of rock is this?</p>",4,class_response,1,train,29,Obsidian,Obsidian,4,TRUE,5,5,,
,,,,,,,,,,,html-button-response,162,2.0.0,546617,651eea44194fa8c200606af7,1,47,1136,,,,,,,,,"<img src= rock_img/I_Obsidian_04.jpg style=""width:8cm; height:6.930000000000001cm;""><p style='font-size: 30px; color: green;'><strong>Correct!</strong></p><p style='font-size: 30px;'><strong>This rock is obsidian</strong></p>",0,corr_feedback,1,train,29,,,,,,,,
,,,,,,,,,,,html-button-response,163,2.0.0,550075,651eea44194fa8c200606af7,1,47,3457,,,,,,,,,"<img src= ""rock_img/I_Pegmatite_05.jpg"" style=""width:8cm; height:7.300000000000001cm;""><p>What type of rock is this?</p>",5,class_response,1,train,30,Pegmatite,Pegmatite,5,TRUE,6,6,,
,,,,,,,,,,,html-button-response,164,2.0.0,556451,651eea44194fa8c200606af7,1,47,6375,,,,,,,,,"<img src= rock_img/I_Pegmatite_05.jpg style=""width:8cm; height:7.300000000000001cm;""><p style='font-size: 30px; color: green;'><strong>Correct!</strong></p><p style='font-size: 30px;'><strong>This rock is pegmatite</strong></p>",0,corr_feedback,1,train,30,,,,,,,,
,,,,,,,,,,,html-button-response,165,2.0.0,558569,651eea44194fa8c200606af7,1,47,2117,,,,,,,,,"<img src= ""rock_img/I_Obsidian_06.jpg"" style=""width:8cm; height:6.8cm;""><p>What type of rock is this?</p>",4,class_response,1,train,31,Obsidian,Obsidian,6,TRUE,5,5,,
,,,,,,,,,,,html-button-response,166,2.0.0,559495,651eea44194fa8c200606af7,1,47,924,,,,,,,,,"<img src= rock_img/I_Obsidian_06.jpg style=""width:8cm; height:6.8cm;""><p style='font-size: 30px; color: green;'><strong>Correct!</strong></p><p style='font-size: 30px;'><strong>This rock is obsidian</strong></p>",0,corr_feedback,1,train,31,,,,,,,,
,,,,,,,,,,,html-button-response,167,2.0.0,561887,651eea44194fa8c200606af7,1,47,2391,,,,,,,,,"<img src= ""rock_img/I_Pegmatite_12.jpg"" style=""width:8cm; height:5.7cm;""><p>What type of rock is this?</p>",6,class_response,1,train,32,Peridotite,Pegmatite,12,FALSE,7,6,,
,,,,,,,,,,,html-button-response,168,2.0.0,567417,651eea44194fa8c200606af7,1,47,5529,,,,,,,,,"<img src= rock_img/I_Pegmatite_12.jpg style=""width:8cm; height:5.7cm;""><p style='font-size: 30px; color: red;'><strong>Incorrect!</strong></p><p style='font-size: 30px;'><strong>This rock is pegmatite</strong></p>",0,corr_feedback,1,train,32,,,,,,,,
,,,,,,,,,,,html-button-response,169,2.0.0,569117,651eea44194fa8c200606af7,1,47,1699,,,,,,,,,"<img src= ""rock_img/I_Obsidian_09.jpg"" style=""width:8cm; height:5cm;""><p>What type of rock is this?</p>",4,class_response,1,train,33,Obsidian,Obsidian,9,TRUE,5,5,,
,,,,,,,,,,,html-button-response,170,2.0.0,570389,651eea44194fa8c200606af7,1,47,1271,,,,,,,,,"<img src= rock_img/I_Obsidian_09.jpg style=""width:8cm; height:5cm;""><p style='font-size: 30px; color: green;'><strong>Correct!</strong></p><p style='font-size: 30px;'><strong>This rock is obsidian</strong></p>",0,corr_feedback,1,train,33,,,,,,,,
,,,,,,,,,,,html-button-response,171,2.0.0,572569,651eea44194fa8c200606af7,1,47,2178,,,,,,,,,"<img src= ""rock_img/I_Gabbro_10.jpg"" style=""width:8cm; height:5.680000000000001cm;""><p>What type of rock is this?</p>",1,class_response,1,train,34,Basalt,Gabbro,10,FALSE,2,4,,
,,,,,,,,,,,html-button-response,172,2.0.0,578569,651eea44194fa8c200606af7,1,47,5999,,,,,,,,,"<img src= rock_img/I_Gabbro_10.jpg style=""width:8cm; height:5.680000000000001cm;""><p style='font-size: 30px; color: red;'><strong>Incorrect!</strong></p><p style='font-size: 30px;'><strong>This rock is gabbro</strong></p>",0,corr_feedback,1,train,34,,,,,,,,
,,,,,,,,,,,html-button-response,173,2.0.0,584975,651eea44194fa8c200606af7,1,47,6405,,,,,,,,,"<img src= ""rock_img/I_Gabbro_08.jpg"" style=""width:8cm; height:5.15cm;""><p>What type of rock is this?</p>",0,class_response,1,train,35,Andesite,Gabbro,8,FALSE,1,4,,
,,,,,,,,,,,html-button-response,174,2.0.0,590951,651eea44194fa8c200606af7,1,47,5975,,,,,,,,,"<img src= rock_img/I_Gabbro_08.jpg style=""width:8cm; height:5.15cm;""><p style='font-size: 30px; color: red;'><strong>Incorrect!</strong></p><p style='font-size: 30px;'><strong>This rock is gabbro</strong></p>",0,corr_feedback,1,train,35,,,,,,,,
,,,,,,,,,,,html-button-response,175,2.0.0,594159,651eea44194fa8c200606af7,1,47,3207,,,,,,,,,"<img src= ""rock_img/I_Gabbro_13.jpg"" style=""width:8cm; height:5.08cm;""><p>What type of rock is this?</p>",2,class_response,1,train,36,Diorite,Gabbro,13,FALSE,3,4,,
,,,,,,,,,,,html-button-response,176,2.0.0,601383,651eea44194fa8c200606af7,1,47,7222,,,,,,,,,"<img src= rock_img/I_Gabbro_13.jpg style=""width:8cm; height:5.08cm;""><p style='font-size: 30px; color: red;'><strong>Incorrect!</strong></p><p style='font-size: 30px;'><strong>This rock is gabbro</strong></p>",0,corr_feedback,1,train,36,,,,,,,,
,,,,,,,,,,,html-button-response,177,2.0.0,605343,651eea44194fa8c200606af7,1,47,3958,,,,,,,,,"<img src= ""rock_img/I_Andesite_11.jpg"" style=""width:8cm; height:4.92cm;""><p>What type of rock is this?</p>",0,class_response,1,train,37,Andesite,Andesite,11,TRUE,1,1,,
,,,,,,,,,,,html-button-response,178,2.0.0,611783,651eea44194fa8c200606af7,1,47,6439,,,,,,,,,"<img src= rock_img/I_Andesite_11.jpg style=""width:8cm; height:4.92cm;""><p style='font-size: 30px; color: green;'><strong>Correct!</strong></p><p style='font-size: 30px;'><strong>This rock is andesite</strong></p>",0,corr_feedback,1,train,37,,,,,,,,
,,,,,,,,,,,html-button-response,179,2.0.0,615953,651eea44194fa8c200606af7,1,47,4169,,,,,,,,,"<img src= ""rock_img/I_Peridotite_06.jpg"" style=""width:8cm; height:7.53cm;""><p>What type of rock is this?</p>",2,class_response,1,train,38,Diorite,Peridotite,6,FALSE,3,7,,
,,,,,,,,,,,html-button-response,180,2.0.0,621859,651eea44194fa8c200606af7,1,47,5904,,,,,,,,,"<img src= rock_img/I_Peridotite_06.jpg style=""width:8cm; height:7.53cm;""><p style='font-size: 30px; color: red;'><strong>Incorrect!</strong></p><p style='font-size: 30px;'><strong>This rock is peridotite</strong></p>",0,corr_feedback,1,train,38,,,,,,,,
,,,,,,,,,,,html-button-response,181,2.0.0,628761,651eea44194fa8c200606af7,1,47,6901,,,,,,,,,"<img src= ""rock_img/I_Diorite_07.jpg"" style=""width:8cm; height:5.239999999999999cm;""><p>What type of rock is this?</p>",2,class_response,1,train,39,Diorite,Diorite,7,TRUE,3,3,,
,,,,,,,,,,,html-button-response,182,2.0.0,634399,651eea44194fa8c200606af7,1,47,5636,,,,,,,,,"<img src= rock_img/I_Diorite_07.jpg style=""width:8cm; height:5.239999999999999cm;""><p style='font-size: 30px; color: green;'><strong>Correct!</strong></p><p style='font-size: 30px;'><strong>This rock is diorite</strong></p>",0,corr_feedback,1,train,39,,,,,,,,
,,,,,,,,,,,html-button-response,183,2.0.0,636815,651eea44194fa8c200606af7,1,47,2415,,,,,,,,,"<img src= ""rock_img/I_Basalt_01.jpg"" style=""width:8cm; height:7.880000000000001cm;""><p>What type of rock is this?</p>",0,class_response,1,train,40,Andesite,Basalt,1,FALSE,1,2,,
,,,,,,,,,,,html-button-response,184,2.0.0,642445,651eea44194fa8c200606af7,1,47,5629,,,,,,,,,"<img src= rock_img/I_Basalt_01.jpg style=""width:8cm; height:7.880000000000001cm;""><p style='font-size: 30px; color: red;'><strong>Incorrect!</strong></p><p style='font-size: 30px;'><strong>This rock is basalt</strong></p>",0,corr_feedback,1,train,40,,,,,,,,
,,,,,,,,,,,html-button-response,185,2.0.0,644821,651eea44194fa8c200606af7,1,47,2375,,,,,,,,,"<img src= ""rock_img/I_Andesite_01.jpg"" style=""width:8cm; height:5.87cm;""><p>What type of rock is this?</p>",0,class_response,1,train,41,Andesite,Andesite,1,TRUE,1,1,,
,,,,,,,,,,,html-button-response,186,2.0.0,650617,651eea44194fa8c200606af7,1,47,5795,,,,,,,,,"<img src= rock_img/I_Andesite_01.jpg style=""width:8cm; height:5.87cm;""><p style='font-size: 30px; color: green;'><strong>Correct!</strong></p><p style='font-size: 30px;'><strong>This rock is andesite</strong></p>",0,corr_feedback,1,train,41,,,,,,,,
,,,,,,,,,,,html-button-response,187,2.0.0,652797,651eea44194fa8c200606af7,1,47,2179,,,,,,,,,"<img src= ""rock_img/I_Diorite_13.jpg"" style=""width:8cm; height:6.29cm;""><p>What type of rock is this?</p>",7,class_response,1,train,42,Pumice,Diorite,13,FALSE,8,3,,
,,,,,,,,,,,html-button-response,188,2.0.0,658671,651eea44194fa8c200606af7,1,47,5873,,,,,,,,,"<img src= rock_img/I_Diorite_13.jpg style=""width:8cm; height:6.29cm;""><p style='font-size: 30px; color: red;'><strong>Incorrect!</strong></p><p style='font-size: 30px;'><strong>This rock is diorite</strong></p>",0,corr_feedback,1,train,42,,,,,,,,
,,,,,,,,,,,html-button-response,189,2.0.0,661581,651eea44194fa8c200606af7,1,47,2909,,,,,,,,,"<img src= ""rock_img/I_Peridotite_04.jpg"" style=""width:8cm; height:6.680000000000001cm;""><p>What type of rock is this?</p>",3,class_response,1,train,43,Gabbro,Peridotite,4,FALSE,4,7,,
,,,,,,,,,,,html-button-response,190,2.0.0,667477,651eea44194fa8c200606af7,1,47,5894,,,,,,,,,"<img src= rock_img/I_Peridotite_04.jpg style=""width:8cm; height:6.680000000000001cm;""><p style='font-size: 30px; color: red;'><strong>Incorrect!</strong></p><p style='font-size: 30px;'><strong>This rock is peridotite</strong></p>",0,corr_feedback,1,train,43,,,,,,,,
,,,,,,,,,,,html-button-response,191,2.0.0,669015,651eea44194fa8c200606af7,1,47,1537,,,,,,,,,"<img src= ""rock_img/I_Pumice_16.jpg"" style=""width:8cm; height:6.79cm;""><p>What type of rock is this?</p>",7,class_response,1,train,44,Pumice,Pumice,16,TRUE,8,8,,
,,,,,,,,,,,html-button-response,192,2.0.0,669885,651eea44194fa8c200606af7,1,47,869,,,,,,,,,"<img src= rock_img/I_Pumice_16.jpg style=""width:8cm; height:6.79cm;""><p style='font-size: 30px; color: green;'><strong>Correct!</strong></p><p style='font-size: 30px;'><strong>This rock is pumice</strong></p>",0,corr_feedback,1,train,44,,,,,,,,
,,,,,,,,,,,html-button-response,193,2.0.0,675241,651eea44194fa8c200606af7,1,47,5355,,,,,,,,,"<img src= ""rock_img/I_Diorite_02.jpg"" style=""width:8cm; height:6.27cm;""><p>What type of rock is this?</p>",0,class_response,1,train,45,Andesite,Diorite,2,FALSE,1,3,,
,,,,,,,,,,,html-button-response,194,2.0.0,681045,651eea44194fa8c200606af7,1,47,5803,,,,,,,,,"<img src= rock_img/I_Diorite_02.jpg style=""width:8cm; height:6.27cm;""><p style='font-size: 30px; color: red;'><strong>Incorrect!</strong></p><p style='font-size: 30px;'><strong>This rock is diorite</strong></p>",0,corr_feedback,1,train,45,,,,,,,,
,,,,,,,,,,,html-button-response,195,2.0.0,684353,651eea44194fa8c200606af7,1,47,3306,,,,,,,,,"<img src= ""rock_img/I_Gabbro_14.jpg"" style=""width:8cm; height:8.48cm;""><p>What type of rock is this?</p>",5,class_response,1,train,46,Pegmatite,Gabbro,14,FALSE,6,4,,
,,,,,,,,,,,html-button-response,196,2.0.0,690001,651eea44194fa8c200606af7,1,47,5646,,,,,,,,,"<img src= rock_img/I_Gabbro_14.jpg style=""width:8cm; height:8.48cm;""><p style='font-size: 30px; color: red;'><strong>Incorrect!</strong></p><p style='font-size: 30px;'><strong>This rock is gabbro</strong></p>",0,corr_feedback,1,train,46,,,,,,,,
,,,,,,,,,,,html-button-response,197,2.0.0,695693,651eea44194fa8c200606af7,1,47,5691,,,,,,,,,"<img src= ""rock_img/I_Gabbro_12.jpg"" style=""width:8cm; height:7.800000000000001cm;""><p>What type of rock is this?</p>",0,class_response,1,train,47,Andesite,Gabbro,12,FALSE,1,4,,
,,,,,,,,,,,html-button-response,198,2.0.0,701239,651eea44194fa8c200606af7,1,47,5545,,,,,,,,,"<img src= rock_img/I_Gabbro_12.jpg style=""width:8cm; height:7.800000000000001cm;""><p style='font-size: 30px; color: red;'><strong>Incorrect!</strong></p><p style='font-size: 30px;'><strong>This rock is gabbro</strong></p>",0,corr_feedback,1,train,47,,,,,,,,
,,,,,,,,,,,html-button-response,199,2.0.0,703599,651eea44194fa8c200606af7,1,47,2359,,,,,,,,,"<img src= ""rock_img/I_Pegmatite_09.jpg"" style=""width:8cm; height:4.03cm;""><p>What type of rock is this?</p>",2,class_response,1,train,48,Diorite,Pegmatite,9,FALSE,3,6,,
,,,,,,,,,,,html-button-response,200,2.0.0,709465,651eea44194fa8c200606af7,1,47,5864,,,,,,,,,"<img src= rock_img/I_Pegmatite_09.jpg style=""width:8cm; height:4.03cm;""><p style='font-size: 30px; color: red;'><strong>Incorrect!</strong></p><p style='font-size: 30px;'><strong>This rock is pegmatite</strong></p>",0,corr_feedback,1,train,48,,,,,,,,
,,,,,,,,,,,instructions,203,2.0.0,746947,651eea44194fa8c200606af7,1,47,37480,,,,,,,,"[{""page_index"":0,""viewing_time"":22338},{""page_index"":1,""viewing_time"":15142}]",,,,,,,,,,,,,,
,,,,,,,,,,,html-button-response,204,2.0.0,750955,651eea44194fa8c200606af7,1,47,4007,,,,,,,,,,0,start_test,,,,,,,,,,,
,,,,,,,,,,,html-button-response,205,2.0.0,753597,651eea44194fa8c200606af7,1,47,2641,,,,,,,,,"<img src= ""rock_img/I_Obsidian_14.jpg"" style=""width:8cm; height:7.64cm;""><p>What type of rock is this?</p>",4,class_response,1,test,1,Obsidian,Obsidian,14,TRUE,5,5,,
,,,,,,,,,,,html-keyboard-response,206,2.0.0,754100,651eea44194fa8c200606af7,1,47,null,,,,,,,,,<p style='font-size: 30px;'><strong>Okay</strong></p>,null,neutral_feedback,1,test,1,,,,,,,,
,,,,,,,,,,,html-button-response,207,2.0.0,765945,651eea44194fa8c200606af7,1,47,11842,,,,,,,,,"<img src= ""rock_img/I_Andesite_14.jpg"" style=""width:8cm; height:5.449999999999999cm;""><p>What type of rock is this?</p>",5,class_response,1,test,2,Pegmatite,Andesite,14,FALSE,6,1,,
,,,,,,,,,,,html-keyboard-response,208,2.0.0,766448,651eea44194fa8c200606af7,1,47,null,,,,,,,,,<p style='font-size: 30px;'><strong>Okay</strong></p>,null,neutral_feedback,1,test,2,,,,,,,,
,,,,,,,,,,,html-button-response,209,2.0.0,789179,651eea44194fa8c200606af7,1,47,22729,,,,,,,,,"<img src= ""rock_img/I_Diorite_11.jpg"" style=""width:8cm; height:7.11cm;""><p>What type of rock is this?</p>",6,class_response,1,test,3,Peridotite,Diorite,11,FALSE,7,3,,
,,,,,,,,,,,html-keyboard-response,210,2.0.0,789684,651eea44194fa8c200606af7,1,47,null,,,,,,,,,<p style='font-size: 30px;'><strong>Okay</strong></p>,null,neutral_feedback,1,test,3,,,,,,,,
,,,,,,,,,,,html-button-response,211,2.0.0,812299,651eea44194fa8c200606af7,1,47,22612,,,,,,,,,"<img src= ""rock_img/I_Basalt_16.jpg"" style=""width:8cm; height:7.659999999999999cm;""><p>What type of rock is this?</p>",1,class_response,1,test,4,Basalt,Basalt,16,TRUE,2,2,,
,,,,,,,,,,,html-keyboard-response,212,2.0.0,812815,651eea44194fa8c200606af7,1,47,null,,,,,,,,,<p style='font-size: 30px;'><strong>Okay</strong></p>,null,neutral_feedback,1,test,4,,,,,,,,
,,,,,,,,,,,html-button-response,213,2.0.0,834087,651eea44194fa8c200606af7,1,47,21270,,,,,,,,,"<img src= ""rock_img/I_Andesite_06.jpg"" style=""width:8cm; height:6.840000000000001cm;""><p>What type of rock is this?</p>",5,class_response,1,test,5,Pegmatite,Andesite,6,FALSE,6,1,,
,,,,,,,,,,,html-keyboard-response,214,2.0.0,834602,651eea44194fa8c200606af7,1,47,null,,,,,,,,,<p style='font-size: 30px;'><strong>Okay</strong></p>,null,neutral_feedback,1,test,5,,,,,,,,
,,,,,,,,,,,html-button-response,215,2.0.0,836637,651eea44194fa8c200606af7,1,47,2031,,,,,,,,,"<img src= ""rock_img/I_Basalt_06.jpg"" style=""width:8cm; height:7.06cm;""><p>What type of rock is this?</p>",4,class_response,1,test,6,Obsidian,Basalt,6,FALSE,5,2,,
,,,,,,,,,,,html-keyboard-response,216,2.0.0,837148,651eea44194fa8c200606af7,1,47,null,,,,,,,,,<p style='font-size: 30px;'><strong>Okay</strong></p>,null,neutral_feedback,1,test,6,,,,,,,,
,,,,,,,,,,,html-button-response,217,2.0.0,853197,651eea44194fa8c200606af7,1,47,16047,,,,,,,,,"<img src= ""rock_img/I_Peridotite_02.jpg"" style=""width:8cm; height:5.859999999999999cm;""><p>What type of rock is this?</p>",5,class_response,1,test,7,Pegmatite,Peridotite,2,FALSE,6,7,,
,,,,,,,,,,,html-keyboard-response,218,2.0.0,853703,651eea44194fa8c200606af7,1,47,null,,,,,,,,,<p style='font-size: 30px;'><strong>Okay</strong></p>,null,neutral_feedback,1,test,7,,,,,,,,
,,,,,,,,,,,html-button-response,219,2.0.0,868663,651eea44194fa8c200606af7,1,47,14957,,,,,,,,,"<img src= ""rock_img/I_Peridotite_07.jpg"" style=""width:8cm; height:4.83cm;""><p>What type of rock is this?</p>",3,class_response,1,test,8,Gabbro,Peridotite,7,FALSE,4,7,,
,,,,,,,,,,,html-keyboard-response,220,2.0.0,869167,651eea44194fa8c200606af7,1,47,null,,,,,,,,,<p style='font-size: 30px;'><strong>Okay</strong></p>,null,neutral_feedback,1,test,8,,,,,,,,
,,,,,,,,,,,html-button-response,221,2.0.0,871525,651eea44194fa8c200606af7,1,47,2355,,,,,,,,,"<img src= ""rock_img/I_Pumice_08.jpg"" style=""width:8cm; height:6.67cm;""><p>What type of rock is this?</p>",7,class_response,1,test,9,Pumice,Pumice,8,TRUE,8,8,,
,,,,,,,,,,,html-keyboard-response,222,2.0.0,872026,651eea44194fa8c200606af7,1,47,null,,,,,,,,,<p style='font-size: 30px;'><strong>Okay</strong></p>,null,neutral_feedback,1,test,9,,,,,,,,
,,,,,,,,,,,html-button-response,223,2.0.0,874355,651eea44194fa8c200606af7,1,47,2326,,,,,,,,,"<img src= ""rock_img/I_Pumice_09.jpg"" style=""width:8cm; height:6.44cm;""><p>What type of rock is this?</p>",7,class_response,1,test,10,Pumice,Pumice,9,TRUE,8,8,,
,,,,,,,,,,,html-keyboard-response,224,2.0.0,874866,651eea44194fa8c200606af7,1,47,null,,,,,,,,,<p style='font-size: 30px;'><strong>Okay</strong></p>,null,neutral_feedback,1,test,10,,,,,,,,
,,,,,,,,,,,html-button-response,225,2.0.0,878089,651eea44194fa8c200606af7,1,47,3220,,,,,,,,,"<img src= ""rock_img/I_Obsidian_07.jpg"" style=""width:8cm; height:4.76cm;""><p>What type of rock is this?</p>",4,class_response,1,test,11,Obsidian,Obsidian,7,TRUE,5,5,,
,,,,,,,,,,,html-keyboard-response,226,2.0.0,878605,651eea44194fa8c200606af7,1,47,null,,,,,,,,,<p style='font-size: 30px;'><strong>Okay</strong></p>,null,neutral_feedback,1,test,11,,,,,,,,
,,,,,,,,,,,html-button-response,227,2.0.0,880261,651eea44194fa8c200606af7,1,47,1653,,,,,,,,,"<img src= ""rock_img/I_Obsidian_02.jpg"" style=""width:8cm; height:7.51cm;""><p>What type of rock is this?</p>",4,class_response,1,test,12,Obsidian,Obsidian,2,TRUE,5,5,,
,,,,,,,,,,,html-keyboard-response,228,2.0.0,880769,651eea44194fa8c200606af7,1,47,null,,,,,,,,,<p style='font-size: 30px;'><strong>Okay</strong></p>,null,neutral_feedback,1,test,12,,,,,,,,
,,,,,,,,,,,html-button-response,229,2.0.0,883107,651eea44194fa8c200606af7,1,47,2335,,,,,,,,,"<img src= ""rock_img/I_Obsidian_12.jpg"" style=""width:8cm; height:6.53cm;""><p>What type of rock is this?</p>",4,class_response,1,test,13,Obsidian,Obsidian,12,TRUE,5,5,,
,,,,,,,,,,,html-keyboard-response,230,2.0.0,883615,651eea44194fa8c200606af7,1,47,null,,,,,,,,,<p style='font-size: 30px;'><strong>Okay</strong></p>,null,neutral_feedback,1,test,13,,,,,,,,
,,,,,,,,,,,html-button-response,231,2.0.0,885891,651eea44194fa8c200606af7,1,47,2273,,,,,,,,,"<img src= ""rock_img/I_Pumice_15.jpg"" style=""width:8cm; height:7.86cm;""><p>What type of rock is this?</p>",7,class_response,1,test,14,Pumice,Pumice,15,TRUE,8,8,,
,,,,,,,,,,,html-keyboard-response,232,2.0.0,886397,651eea44194fa8c200606af7,1,47,null,,,,,,,,,<p style='font-size: 30px;'><strong>Okay</strong></p>,null,neutral_feedback,1,test,14,,,,,,,,
,,,,,,,,,,,html-button-response,233,2.0.0,899955,651eea44194fa8c200606af7,1,47,13555,,,,,,,,,"<img src= ""rock_img/I_Pegmatite_10.jpg"" style=""width:8cm; height:4.16cm;""><p>What type of rock is this?</p>",5,class_response,1,test,15,Pegmatite,Pegmatite,10,TRUE,6,6,,
,,,,,,,,,,,html-keyboard-response,234,2.0.0,900456,651eea44194fa8c200606af7,1,47,null,,,,,,,,,<p style='font-size: 30px;'><strong>Okay</strong></p>,null,neutral_feedback,1,test,15,,,,,,,,
,,,,,,,,,,,html-button-response,235,2.0.0,917997,651eea44194fa8c200606af7,1,47,17538,,,,,,,,,"<img src= ""rock_img/I_Diorite_16.jpg"" style=""width:8cm; height:6.74cm;""><p>What type of rock is this?</p>",2,class_response,1,test,16,Diorite,Diorite,16,TRUE,3,3,,
,,,,,,,,,,,html-keyboard-response,236,2.0.0,918509,651eea44194fa8c200606af7,1,47,null,,,,,,,,,<p style='font-size: 30px;'><strong>Okay</strong></p>,null,neutral_feedback,1,test,16,,,,,,,,
,,,,,,,,,,,html-button-response,237,2.0.0,920733,651eea44194fa8c200606af7,1,47,2221,,,,,,,,,"<img src= ""rock_img/I_Gabbro_11.jpg"" style=""width:8cm; height:6.2cm;""><p>What type of rock is this?</p>",1,class_response,1,test,17,Basalt,Gabbro,11,FALSE,2,4,,
,,,,,,,,,,,html-keyboard-response,238,2.0.0,921238,651eea44194fa8c200606af7,1,47,null,,,,,,,,,<p style='font-size: 30px;'><strong>Okay</strong></p>,null,neutral_feedback,1,test,17,,,,,,,,
,,,,,,,,,,,html-button-response,239,2.0.0,939619,651eea44194fa8c200606af7,1,47,18378,,,,,,,,,"<img src= ""rock_img/I_Andesite_03.jpg"" style=""width:8cm; height:5.73cm;""><p>What type of rock is this?</p>",0,class_response,1,test,18,Andesite,Andesite,3,TRUE,1,1,,
,,,,,,,,,,,html-keyboard-response,240,2.0.0,940121,651eea44194fa8c200606af7,1,47,null,,,,,,,,,<p style='font-size: 30px;'><strong>Okay</strong></p>,null,neutral_feedback,1,test,18,,,,,,,,
,,,,,,,,,,,html-button-response,241,2.0.0,948183,651eea44194fa8c200606af7,1,47,8059,,,,,,,,,"<img src= ""rock_img/I_Pegmatite_03.jpg"" style=""width:8cm; height:5.239999999999999cm;""><p>What type of rock is this?</p>",2,class_response,1,test,19,Diorite,Pegmatite,3,FALSE,3,6,,
,,,,,,,,,,,html-keyboard-response,242,2.0.0,948689,651eea44194fa8c200606af7,1,47,null,,,,,,,,,<p style='font-size: 30px;'><strong>Okay</strong></p>,null,neutral_feedback,1,test,19,,,,,,,,
,,,,,,,,,,,html-button-response,243,2.0.0,972463,651eea44194fa8c200606af7,1,47,23771,,,,,,,,,"<img src= ""rock_img/I_Gabbro_16.jpg"" style=""width:8cm; height:6.44cm;""><p>What type of rock is this?</p>",3,class_response,1,test,20,Gabbro,Gabbro,16,TRUE,4,4,,
,,,,,,,,,,,html-keyboard-response,244,2.0.0,972965,651eea44194fa8c200606af7,1,47,null,,,,,,,,,<p style='font-size: 30px;'><strong>Okay</strong></p>,null,neutral_feedback,1,test,20,,,,,,,,
,,,,,,,,,,,html-button-response,245,2.0.0,979961,651eea44194fa8c200606af7,1,47,6993,,,,,,,,,"<img src= ""rock_img/I_Gabbro_15.jpg"" style=""width:8cm; height:6.29cm;""><p>What type of rock is this?</p>",3,class_response,1,test,21,Gabbro,Gabbro,15,TRUE,4,4,,
,,,,,,,,,,,html-keyboard-response,246,2.0.0,980467,651eea44194fa8c200606af7,1,47,null,,,,,,,,,<p style='font-size: 30px;'><strong>Okay</strong></p>,null,neutral_feedback,1,test,21,,,,,,,,
,,,,,,,,,,,html-button-response,247,2.0.0,994251,651eea44194fa8c200606af7,1,47,13781,,,,,,,,,"<img src= ""rock_img/I_Peridotite_13.jpg"" style=""width:8cm; height:7.58cm;""><p>What type of rock is this?</p>",5,class_response,1,test,22,Pegmatite,Peridotite,13,FALSE,6,7,,
,,,,,,,,,,,html-keyboard-response,248,2.0.0,994753,651eea44194fa8c200606af7,1,47,null,,,,,,,,,<p style='font-size: 30px;'><strong>Okay</strong></p>,null,neutral_feedback,1,test,22,,,,,,,,
,,,,,,,,,,,html-button-response,249,2.0.0,1000541,651eea44194fa8c200606af7,1,47,5786,,,,,,,,,"<img src= ""rock_img/I_Diorite_15.jpg"" style=""width:8cm; height:5.54cm;""><p>What type of rock is this?</p>",3,class_response,1,test,23,Gabbro,Diorite,15,FALSE,4,3,,
,,,,,,,,,,,html-keyboard-response,250,2.0.0,1001056,651eea44194fa8c200606af7,1,47,null,,,,,,,,,<p style='font-size: 30px;'><strong>Okay</strong></p>,null,neutral_feedback,1,test,23,,,,,,,,
,,,,,,,,,,,html-button-response,251,2.0.0,1024073,651eea44194fa8c200606af7,1,47,23014,,,,,,,,,"<img src= ""rock_img/I_Pegmatite_06.jpg"" style=""width:8cm; height:5.17cm;""><p>What type of rock is this?</p>",2,class_response,1,test,24,Diorite,Pegmatite,6,FALSE,3,6,,
,,,,,,,,,,,html-keyboard-response,252,2.0.0,1024584,651eea44194fa8c200606af7,1,47,null,,,,,,,,,<p style='font-size: 30px;'><strong>Okay</strong></p>,null,neutral_feedback,1,test,24,,,,,,,,
,,,,,,,,,,,html-button-response,253,2.0.0,1028497,651eea44194fa8c200606af7,1,47,3910,,,,,,,,,"<img src= ""rock_img/I_Pegmatite_13.jpg"" style=""width:8cm; height:4.95cm;""><p>What type of rock is this?</p>",2,class_response,1,test,25,Diorite,Pegmatite,13,FALSE,3,6,,
,,,,,,,,,,,html-keyboard-response,254,2.0.0,1028999,651eea44194fa8c200606af7,1,47,null,,,,,,,,,<p style='font-size: 30px;'><strong>Okay</strong></p>,null,neutral_feedback,1,test,25,,,,,,,,
,,,,,,,,,,,html-button-response,255,2.0.0,1038347,651eea44194fa8c200606af7,1,47,9345,,,,,,,,,"<img src= ""rock_img/I_Diorite_14.jpg"" style=""width:8cm; height:5.71cm;""><p>What type of rock is this?</p>",5,class_response,1,test,26,Pegmatite,Diorite,14,FALSE,6,3,,
,,,,,,,,,,,html-keyboard-response,256,2.0.0,1038853,651eea44194fa8c200606af7,1,47,null,,,,,,,,,<p style='font-size: 30px;'><strong>Okay</strong></p>,null,neutral_feedback,1,test,26,,,,,,,,
,,,,,,,,,,,html-button-response,257,2.0.0,1042903,651eea44194fa8c200606af7,1,47,4047,,,,,,,,,"<img src= ""rock_img/I_Basalt_10.jpg"" style=""width:8cm; height:5.85cm;""><p>What type of rock is this?</p>",1,class_response,1,test,27,Basalt,Basalt,10,TRUE,2,2,,
,,,,,,,,,,,html-keyboard-response,258,2.0.0,1043414,651eea44194fa8c200606af7,1,47,null,,,,,,,,,<p style='font-size: 30px;'><strong>Okay</strong></p>,null,neutral_feedback,1,test,27,,,,,,,,
,,,,,,,,,,,html-button-response,259,2.0.0,1046517,651eea44194fa8c200606af7,1,47,3100,,,,,,,,,"<img src= ""rock_img/I_Basalt_05.jpg"" style=""width:8cm; height:8.18cm;""><p>What type of rock is this?</p>",1,class_response,1,test,28,Basalt,Basalt,5,TRUE,2,2,,
,,,,,,,,,,,html-keyboard-response,260,2.0.0,1047027,651eea44194fa8c200606af7,1,47,null,,,,,,,,,<p style='font-size: 30px;'><strong>Okay</strong></p>,null,neutral_feedback,1,test,28,,,,,,,,
,,,,,,,,,,,html-button-response,261,2.0.0,1049577,651eea44194fa8c200606af7,1,47,2547,,,,,,,,,"<img src= ""rock_img/I_Gabbro_03.jpg"" style=""width:8cm; height:8.52cm;""><p>What type of rock is this?</p>",0,class_response,1,test,29,Andesite,Gabbro,3,FALSE,1,4,,
,,,,,,,,,,,html-keyboard-response,262,2.0.0,1050079,651eea44194fa8c200606af7,1,47,null,,,,,,,,,<p style='font-size: 30px;'><strong>Okay</strong></p>,null,neutral_feedback,1,test,29,,,,,,,,
,,,,,,,,,,,html-button-response,263,2.0.0,1051827,651eea44194fa8c200606af7,1,47,1745,,,,,,,,,"<img src= ""rock_img/I_Obsidian_11.jpg"" style=""width:8cm; height:6.05cm;""><p>What type of rock is this?</p>",4,class_response,1,test,30,Obsidian,Obsidian,11,TRUE,5,5,,
,,,,,,,,,,,html-keyboard-response,264,2.0.0,1052328,651eea44194fa8c200606af7,1,47,null,,,,,,,,,<p style='font-size: 30px;'><strong>Okay</strong></p>,null,neutral_feedback,1,test,30,,,,,,,,
,,,,,,,,,,,html-button-response,265,2.0.0,1074401,651eea44194fa8c200606af7,1,47,22070,,,,,,,,,"<img src= ""rock_img/I_Gabbro_05.jpg"" style=""width:8cm; height:6cm;""><p>What type of rock is this?</p>",5,class_response,1,test,31,Pegmatite,Gabbro,5,FALSE,6,4,,
,,,,,,,,,,,html-keyboard-response,266,2.0.0,1074913,651eea44194fa8c200606af7,1,47,null,,,,,,,,,<p style='font-size: 30px;'><strong>Okay</strong></p>,null,neutral_feedback,1,test,31,,,,,,,,
,,,,,,,,,,,html-button-response,267,2.0.0,1077059,651eea44194fa8c200606af7,1,47,2144,,,,,,,,,"<img src= ""rock_img/I_Basalt_04.jpg"" style=""width:8cm; height:7.53cm;""><p>What type of rock is this?</p>",1,class_response,1,test,32,Basalt,Basalt,4,TRUE,2,2,,
,,,,,,,,,,,html-keyboard-response,268,2.0.0,1077560,651eea44194fa8c200606af7,1,47,null,,,,,,,,,<p style='font-size: 30px;'><strong>Okay</strong></p>,null,neutral_feedback,1,test,32,,,,,,,,
,,,,,,,,,,,html-button-response,269,2.0.0,1078989,651eea44194fa8c200606af7,1,47,1426,,,,,,,,,"<img src= ""rock_img/I_Pumice_04.jpg"" style=""width:8cm; height:6.819999999999999cm;""><p>What type of rock is this?</p>",7,class_response,1,test,33,Pumice,Pumice,4,TRUE,8,8,,
,,,,,,,,,,,html-keyboard-response,270,2.0.0,1079491,651eea44194fa8c200606af7,1,47,null,,,,,,,,,<p style='font-size: 30px;'><strong>Okay</strong></p>,null,neutral_feedback,1,test,33,,,,,,,,
,,,,,,,,,,,html-button-response,271,2.0.0,1083403,651eea44194fa8c200606af7,1,47,3909,,,,,,,,,"<img src= ""rock_img/I_Basalt_08.jpg"" style=""width:8cm; height:10.44cm;""><p>What type of rock is this?</p>",1,class_response,1,test,34,Basalt,Basalt,8,TRUE,2,2,,
,,,,,,,,,,,html-keyboard-response,272,2.0.0,1083906,651eea44194fa8c200606af7,1,47,null,,,,,,,,,<p style='font-size: 30px;'><strong>Okay</strong></p>,null,neutral_feedback,1,test,34,,,,,,,,
,,,,,,,,,,,html-button-response,273,2.0.0,1092869,651eea44194fa8c200606af7,1,47,8960,,,,,,,,,"<img src= ""rock_img/I_Peridotite_12.jpg"" style=""width:8cm; height:4.54cm;""><p>What type of rock is this?</p>",3,class_response,1,test,35,Gabbro,Peridotite,12,FALSE,4,7,,
,,,,,,,,,,,html-keyboard-response,274,2.0.0,1093375,651eea44194fa8c200606af7,1,47,null,,,,,,,,,<p style='font-size: 30px;'><strong>Okay</strong></p>,null,neutral_feedback,1,test,35,,,,,,,,
,,,,,,,,,,,html-button-response,275,2.0.0,1105299,651eea44194fa8c200606af7,1,47,11922,,,,,,,,,"<img src= ""rock_img/I_Pegmatite_11.jpg"" style=""width:8cm; height:8.14cm;""><p>What type of rock is this?</p>",6,class_response,1,test,36,Peridotite,Pegmatite,11,FALSE,7,6,,
,,,,,,,,,,,html-keyboard-response,276,2.0.0,1105800,651eea44194fa8c200606af7,1,47,null,,,,,,,,,<p style='font-size: 30px;'><strong>Okay</strong></p>,null,neutral_feedback,1,test,36,,,,,,,,
,,,,,,,,,,,html-button-response,277,2.0.0,1120309,651eea44194fa8c200606af7,1,47,14506,,,,,,,,,"<img src= ""rock_img/I_Andesite_02.jpg"" style=""width:8cm; height:8.5cm;""><p>What type of rock is this?</p>",2,class_response,1,test,37,Diorite,Andesite,2,FALSE,3,1,,
,,,,,,,,,,,html-keyboard-response,278,2.0.0,1120811,651eea44194fa8c200606af7,1,47,null,,,,,,,,,<p style='font-size: 30px;'><strong>Okay</strong></p>,null,neutral_feedback,1,test,37,,,,,,,,
,,,,,,,,,,,html-button-response,279,2.0.0,1136529,651eea44194fa8c200606af7,1,47,15715,,,,,,,,,"<img src= ""rock_img/I_Diorite_08.jpg"" style=""width:8cm; height:6.37cm;""><p>What type of rock is this?</p>",2,class_response,1,test,38,Diorite,Diorite,8,TRUE,3,3,,
,,,,,,,,,,,html-keyboard-response,280,2.0.0,1137040,651eea44194fa8c200606af7,1,47,null,,,,,,,,,<p style='font-size: 30px;'><strong>Okay</strong></p>,null,neutral_feedback,1,test,38,,,,,,,,
,,,,,,,,,,,html-button-response,281,2.0.0,1140403,651eea44194fa8c200606af7,1,47,3360,,,,,,,,,"<img src= ""rock_img/I_Pegmatite_16.jpg"" style=""width:8cm; height:5.8cm;""><p>What type of rock is this?</p>",3,class_response,1,test,39,Gabbro,Pegmatite,16,FALSE,4,6,,
,,,,,,,,,,,html-keyboard-response,282,2.0.0,1140906,651eea44194fa8c200606af7,1,47,null,,,,,,,,,<p style='font-size: 30px;'><strong>Okay</strong></p>,null,neutral_feedback,1,test,39,,,,,,,,
,,,,,,,,,,,html-button-response,283,2.0.0,1150983,651eea44194fa8c200606af7,1,47,10074,,,,,,,,,"<img src= ""rock_img/I_Andesite_16.jpg"" style=""width:8cm; height:6.010000000000001cm;""><p>What type of rock is this?</p>",2,class_response,1,test,40,Diorite,Andesite,16,FALSE,3,1,,
,,,,,,,,,,,html-keyboard-response,284,2.0.0,1151489,651eea44194fa8c200606af7,1,47,null,,,,,,,,,<p style='font-size: 30px;'><strong>Okay</strong></p>,null,neutral_feedback,1,test,40,,,,,,,,
,,,,,,,,,,,html-button-response,285,2.0.0,1153273,651eea44194fa8c200606af7,1,47,1781,,,,,,,,,"<img src= ""rock_img/I_Pumice_05.jpg"" style=""width:8cm; height:7.25cm;""><p>What type of rock is this?</p>",7,class_response,1,test,41,Pumice,Pumice,5,TRUE,8,8,,
,,,,,,,,,,,html-keyboard-response,286,2.0.0,1153787,651eea44194fa8c200606af7,1,47,null,,,,,,,,,<p style='font-size: 30px;'><strong>Okay</strong></p>,null,neutral_feedback,1,test,41,,,,,,,,
,,,,,,,,,,,html-button-response,287,2.0.0,1155437,651eea44194fa8c200606af7,1,47,1646,,,,,,,,,"<img src= ""rock_img/I_Obsidian_10.jpg"" style=""width:8cm; height:6.260000000000001cm;""><p>What type of rock is this?</p>",4,class_response,1,test,42,Obsidian,Obsidian,10,TRUE,5,5,,
,,,,,,,,,,,html-keyboard-response,288,2.0.0,1155952,651eea44194fa8c200606af7,1,47,null,,,,,,,,,<p style='font-size: 30px;'><strong>Okay</strong></p>,null,neutral_feedback,1,test,42,,,,,,,,
,,,,,,,,,,,html-button-response,289,2.0.0,1160769,651eea44194fa8c200606af7,1,47,4816,,,,,,,,,"<img src= ""rock_img/I_Andesite_04.jpg"" style=""width:8cm; height:5.96cm;""><p>What type of rock is this?</p>",6,class_response,1,test,43,Peridotite,Andesite,4,FALSE,7,1,,
,,,,,,,,,,,html-keyboard-response,290,2.0.0,1161276,651eea44194fa8c200606af7,1,47,null,,,,,,,,,<p style='font-size: 30px;'><strong>Okay</strong></p>,null,neutral_feedback,1,test,43,,,,,,,,
,,,,,,,,,,,html-button-response,291,2.0.0,1177677,651eea44194fa8c200606af7,1,47,16398,,,,,,,,,"<img src= ""rock_img/I_Diorite_12.jpg"" style=""width:8cm; height:4.88cm;""><p>What type of rock is this?</p>",2,class_response,1,test,44,Diorite,Diorite,12,TRUE,3,3,,
,,,,,,,,,,,html-keyboard-response,292,2.0.0,1178179,651eea44194fa8c200606af7,1,47,null,,,,,,,,,<p style='font-size: 30px;'><strong>Okay</strong></p>,null,neutral_feedback,1,test,44,,,,,,,,
,,,,,,,,,,,html-button-response,293,2.0.0,1183942,651eea44194fa8c200606af7,1,47,5760,,,,,,,,,"<img src= ""rock_img/I_Peridotite_16.jpg"" style=""width:8cm; height:6.989999999999999cm;""><p>What type of rock is this?</p>",6,class_response,1,test,45,Peridotite,Peridotite,16,TRUE,7,7,,
,,,,,,,,,,,html-keyboard-response,294,2.0.0,1184453,651eea44194fa8c200606af7,1,47,null,,,,,,,,,<p style='font-size: 30px;'><strong>Okay</strong></p>,null,neutral_feedback,1,test,45,,,,,,,,
,,,,,,,,,,,html-button-response,295,2.0.0,1186537,651eea44194fa8c200606af7,1,47,2083,,,,,,,,,"<img src= ""rock_img/I_Gabbro_09.jpg"" style=""width:8cm; height:7.279999999999999cm;""><p>What type of rock is this?</p>",0,class_response,1,test,46,Andesite,Gabbro,9,FALSE,1,4,,
,,,,,,,,,,,html-keyboard-response,296,2.0.0,1187049,651eea44194fa8c200606af7,1,47,null,,,,,,,,,<p style='font-size: 30px;'><strong>Okay</strong></p>,null,neutral_feedback,1,test,46,,,,,,,,
,,,,,,,,,,,html-button-response,297,2.0.0,1205605,651eea44194fa8c200606af7,1,47,18554,,,,,,,,,"<img src= ""rock_img/I_Peridotite_08.jpg"" style=""width:8cm; height:6.7cm;""><p>What type of rock is this?</p>",2,class_response,1,test,47,Diorite,Peridotite,8,FALSE,3,7,,
,,,,,,,,,,,html-keyboard-response,298,2.0.0,1206111,651eea44194fa8c200606af7,1,47,null,,,,,,,,,<p style='font-size: 30px;'><strong>Okay</strong></p>,null,neutral_feedback,1,test,47,,,,,,,,
,,,,,,,,,,,html-button-response,299,2.0.0,1207721,651eea44194fa8c200606af7,1,47,1607,,,,,,,,,"<img src= ""rock_img/I_Pumice_02.jpg"" style=""width:8cm; height:7.3999999999999995cm;""><p>What type of rock is this?</p>",7,class_response,1,test,48,Pumice,Pumice,2,TRUE,8,8,,
,,,,,,,,,,,html-keyboard-response,300,2.0.0,1208225,651eea44194fa8c200606af7,1,47,null,,,,,,,,,<p style='font-size: 30px;'><strong>Okay</strong></p>,null,neutral_feedback,1,test,48,,,,,,,,
,,,,,,,,,,,html-button-response,301,2.0.0,1230729,651eea44194fa8c200606af7,1,47,,,,,,,,,,,,cycle_feedback,,,,,,,,,,14205.8,8279.9
,,,,,,,,,,,html-button-response,303,2.0.0,1233433,651eea44194fa8c200606af7,1,47,2702,,,,,,,,,,0,start_train,,,,,,,,,,,
,,,,,,,,,,,html-button-response,304,2.0.0,1236273,651eea44194fa8c200606af7,1,47,2838,,,,,,,,,"<img src= ""rock_img/I_Pumice_06.jpg"" style=""width:8cm; height:6.9399999999999995cm;""><p>What type of rock is this?</p>",7,class_response,2,train,1,Pumice,Pumice,6,TRUE,8,8,,
,,,,,,,,,,,html-button-response,305,2.0.0,1238498,651eea44194fa8c200606af7,1,47,2224,,,,,,,,,"<img src= rock_img/I_Pumice_06.jpg style=""width:8cm; height:6.9399999999999995cm;""><p style='font-size: 30px; color: green;'><strong>Correct!</strong></p><p style='font-size: 30px;'><strong>This rock is pumice</strong></p>",0,corr_feedback,2,train,1,,,,,,,,
,,,,,,,,,,,html-button-response,306,2.0.0,1242453,651eea44194fa8c200606af7,1,47,3953,,,,,,,,,"<img src= ""rock_img/I_Pumice_16.jpg"" style=""width:8cm; height:6.79cm;""><p>What type of rock is this?</p>",7,class_response,2,train,2,Pumice,Pumice,16,TRUE,8,8,,
,,,,,,,,,,,html-button-response,307,2.0.0,1244349,651eea44194fa8c200606af7,1,47,1894,,,,,,,,,"<img src= rock_img/I_Pumice_16.jpg style=""width:8cm; height:6.79cm;""><p style='font-size: 30px; color: green;'><strong>Correct!</strong></p><p style='font-size: 30px;'><strong>This rock is pumice</strong></p>",0,corr_feedback,2,train,2,,,,,,,,
,,,,,,,,,,,html-button-response,308,2.0.0,1253414,651eea44194fa8c200606af7,1,47,9064,,,,,,,,,"<img src= ""rock_img/I_Gabbro_14.jpg"" style=""width:8cm; height:8.48cm;""><p>What type of rock is this?</p>",5,class_response,2,train,3,Pegmatite,Gabbro,14,FALSE,6,4,,
,,,,,,,,,,,html-button-response,309,2.0.0,1254843,651eea44194fa8c200606af7,1,47,1427,,,,,,,,,"<img src= rock_img/I_Gabbro_14.jpg style=""width:8cm; height:8.48cm;""><p style='font-size: 30px; color: red;'><strong>Incorrect!</strong></p><p style='font-size: 30px;'><strong>This rock is gabbro</strong></p>",0,corr_feedback,2,train,3,,,,,,,,
,,,,,,,,,,,html-button-response,310,2.0.0,1256951,651eea44194fa8c200606af7,1,47,2107,,,,,,,,,"<img src= ""rock_img/I_Diorite_09.jpg"" style=""width:8cm; height:5.27cm;""><p>What type of rock is this?</p>",2,class_response,2,train,4,Diorite,Diorite,9,TRUE,3,3,,
,,,,,,,,,,,html-button-response,311,2.0.0,1258387,651eea44194fa8c200606af7,1,47,1435,,,,,,,,,"<img src= rock_img/I_Diorite_09.jpg style=""width:8cm; height:5.27cm;""><p style='font-size: 30px; color: green;'><strong>Correct!</strong></p><p style='font-size: 30px;'><strong>This rock is diorite</strong></p>",0,corr_feedback,2,train,4,,,,,,,,
,,,,,,,,,,,html-button-response,312,2.0.0,1260277,651eea44194fa8c200606af7,1,47,1889,,,,,,,,,"<img src= ""rock_img/I_Pumice_03.jpg"" style=""width:8cm; height:6.64cm;""><p>What type of rock is this?</p>",7,class_response,2,train,5,Pumice,Pumice,3,TRUE,8,8,,
,,,,,,,,,,,html-button-response,313,2.0.0,1261571,651eea44194fa8c200606af7,1,47,1292,,,,,,,,,"<img src= rock_img/I_Pumice_03.jpg style=""width:8cm; height:6.64cm;""><p style='font-size: 30px; color: green;'><strong>Correct!</strong></p><p style='font-size: 30px;'><strong>This rock is pumice</strong></p>",0,corr_feedback,2,train,5,,,,,,,,
,,,,,,,,,,,html-button-response,314,2.0.0,1267397,651eea44194fa8c200606af7,1,47,5824,,,,,,,,,"<img src= ""rock_img/I_Pegmatite_15.jpg"" style=""width:8cm; height:6cm;""><p>What type of rock is this?</p>",2,class_response,2,train,6,Diorite,Pegmatite,15,FALSE,3,6,,
,,,,,,,,,,,html-button-response,315,2.0.0,1268463,651eea44194fa8c200606af7,1,47,1065,,,,,,,,,"<img src= rock_img/I_Pegmatite_15.jpg style=""width:8cm; height:6cm;""><p style='font-size: 30px; color: red;'><strong>Incorrect!</strong></p><p style='font-size: 30px;'><strong>This rock is pegmatite</strong></p>",0,corr_feedback,2,train,6,,,,,,,,
,,,,,,,,,,,html-button-response,316,2.0.0,1271757,651eea44194fa8c200606af7,1,47,3293,,,,,,,,,"<img src= ""rock_img/I_Gabbro_01.jpg"" style=""width:8cm; height:5.21cm;""><p>What type of rock is this?</p>",6,class_response,2,train,7,Peridotite,Gabbro,1,FALSE,7,4,,
,,,,,,,,,,,html-button-response,317,2.0.0,1272761,651eea44194fa8c200606af7,1,47,1002,,,,,,,,,"<img src= rock_img/I_Gabbro_01.jpg style=""width:8cm; height:5.21cm;""><p style='font-size: 30px; color: red;'><strong>Incorrect!</strong></p><p style='font-size: 30px;'><strong>This rock is gabbro</strong></p>",0,corr_feedback,2,train,7,,,,,,,,
,,,,,,,,,,,html-button-response,318,2.0.0,1278179,651eea44194fa8c200606af7,1,47,5417,,,,,,,,,"<img src= ""rock_img/I_Andesite_05.jpg"" style=""width:8cm; height:4.12cm;""><p>What type of rock is this?</p>",6,class_response,2,train,8,Peridotite,Andesite,5,FALSE,7,1,,
,,,,,,,,,,,html-button-response,319,2.0.0,1279561,651eea44194fa8c200606af7,1,47,1380,,,,,,,,,"<img src= rock_img/I_Andesite_05.jpg style=""width:8cm; height:4.12cm;""><p style='font-size: 30px; color: red;'><strong>Incorrect!</strong></p><p style='font-size: 30px;'><strong>This rock is andesite</strong></p>",0,corr_feedback,2,train,8,,,,,,,,
,,,,,,,,,,,html-button-response,320,2.0.0,1285801,651eea44194fa8c200606af7,1,47,6239,,,,,,,,,"<img src= ""rock_img/I_Diorite_10.jpg"" style=""width:8cm; height:5.949999999999999cm;""><p>What type of rock is this?</p>",6,class_response,2,train,9,Peridotite,Diorite,10,FALSE,7,3,,
,,,,,,,,,,,html-button-response,321,2.0.0,1286883,651eea44194fa8c200606af7,1,47,1081,,,,,,,,,"<img src= rock_img/I_Diorite_10.jpg style=""width:8cm; height:5.949999999999999cm;""><p style='font-size: 30px; color: red;'><strong>Incorrect!</strong></p><p style='font-size: 30px;'><strong>This rock is diorite</strong></p>",0,corr_feedback,2,train,9,,,,,,,,
,,,,,,,,,,,html-button-response,322,2.0.0,1289919,651eea44194fa8c200606af7,1,47,3035,,,,,,,,,"<img src= ""rock_img/I_Andesite_11.jpg"" style=""width:8cm; height:4.92cm;""><p>What type of rock is this?</p>",5,class_response,2,train,10,Pegmatite,Andesite,11,FALSE,6,1,,
,,,,,,,,,,,html-button-response,323,2.0.0,1290953,651eea44194fa8c200606af7,1,47,1033,,,,,,,,,"<img src= rock_img/I_Andesite_11.jpg style=""width:8cm; height:4.92cm;""><p style='font-size: 30px; color: red;'><strong>Incorrect!</strong></p><p style='font-size: 30px;'><strong>This rock is andesite</strong></p>",0,corr_feedback,2,train,10,,,,,,,,
,,,,,,,,,,,html-button-response,324,2.0.0,1292451,651eea44194fa8c200606af7,1,47,1497,,,,,,,,,"<img src= ""rock_img/I_Obsidian_04.jpg"" style=""width:8cm; height:6.930000000000001cm;""><p>What type of rock is this?</p>",4,class_response,2,train,11,Obsidian,Obsidian,4,TRUE,5,5,,
,,,,,,,,,,,html-button-response,325,2.0.0,1293793,651eea44194fa8c200606af7,1,47,1341,,,,,,,,,"<img src= rock_img/I_Obsidian_04.jpg style=""width:8cm; height:6.930000000000001cm;""><p style='font-size: 30px; color: green;'><strong>Correct!</strong></p><p style='font-size: 30px;'><strong>This rock is obsidian</strong></p>",0,corr_feedback,2,train,11,,,,,,,,
,,,,,,,,,,,html-button-response,326,2.0.0,1296005,651eea44194fa8c200606af7,1,47,2210,,,,,,,,,"<img src= ""rock_img/I_Basalt_09.jpg"" style=""width:8cm; height:6.2cm;""><p>What type of rock is this?</p>",1,class_response,2,train,12,Basalt,Basalt,9,TRUE,2,2,,
,,,,,,,,,,,html-button-response,327,2.0.0,1297219,651eea44194fa8c200606af7,1,47,1213,,,,,,,,,"<img src= rock_img/I_Basalt_09.jpg style=""width:8cm; height:6.2cm;""><p style='font-size: 30px; color: green;'><strong>Correct!</strong></p><p style='font-size: 30px;'><strong>This rock is basalt</strong></p>",0,corr_feedback,2,train,12,,,,,,,,
,,,,,,,,,,,html-button-response,328,2.0.0,1305797,651eea44194fa8c200606af7,1,47,8577,,,,,,,,,"<img src= ""rock_img/I_Basalt_14.jpg"" style=""width:8cm; height:5.82cm;""><p>What type of rock is this?</p>",6,class_response,2,train,13,Peridotite,Basalt,14,FALSE,7,2,,
,,,,,,,,,,,html-button-response,329,2.0.0,1306895,651eea44194fa8c200606af7,1,47,1096,,,,,,,,,"<img src= rock_img/I_Basalt_14.jpg style=""width:8cm; height:5.82cm;""><p style='font-size: 30px; color: red;'><strong>Incorrect!</strong></p><p style='font-size: 30px;'><strong>This rock is basalt</strong></p>",0,corr_feedback,2,train,13,,,,,,,,
,,,,,,,,,,,html-button-response,330,2.0.0,1308519,651eea44194fa8c200606af7,1,47,1623,,,,,,,,,"<img src= ""rock_img/I_Obsidian_05.jpg"" style=""width:8cm; height:6.33cm;""><p>What type of rock is this?</p>",4,class_response,2,train,14,Obsidian,Obsidian,5,TRUE,5,5,,
,,,,,,,,,,,html-button-response,331,2.0.0,1309561,651eea44194fa8c200606af7,1,47,1040,,,,,,,,,"<img src= rock_img/I_Obsidian_05.jpg style=""width:8cm; height:6.33cm;""><p style='font-size: 30px; color: green;'><strong>Correct!</strong></p><p style='font-size: 30px;'><strong>This rock is obsidian</strong></p>",0,corr_feedback,2,train,14,,,,,,,,
,,,,,,,,,,,html-button-response,332,2.0.0,1311043,651eea44194fa8c200606af7,1,47,1481,,,,,,,,,"<img src= ""rock_img/I_Obsidian_06.jpg"" style=""width:8cm; height:6.8cm;""><p>What type of rock is this?</p>",4,class_response,2,train,15,Obsidian,Obsidian,6,TRUE,5,5,,
,,,,,,,,,,,html-button-response,333,2.0.0,1312103,651eea44194fa8c200606af7,1,47,1059,,,,,,,,,"<img src= rock_img/I_Obsidian_06.jpg style=""width:8cm; height:6.8cm;""><p style='font-size: 30px; color: green;'><strong>Correct!</strong></p><p style='font-size: 30px;'><strong>This rock is obsidian</strong></p>",0,corr_feedback,2,train,15,,,,,,,,
,,,,,,,,,,,html-button-response,334,2.0.0,1319285,651eea44194fa8c200606af7,1,47,7181,,,,,,,,,"<img src= ""rock_img/I_Pegmatite_09.jpg"" style=""width:8cm; height:4.03cm;""><p>What type of rock is this?</p>",3,class_response,2,train,16,Gabbro,Pegmatite,9,FALSE,4,6,,
,,,,,,,,,,,html-button-response,335,2.0.0,1320280,651eea44194fa8c200606af7,1,47,994,,,,,,,,,"<img src= rock_img/I_Pegmatite_09.jpg style=""width:8cm; height:4.03cm;""><p style='font-size: 30px; color: red;'><strong>Incorrect!</strong></p><p style='font-size: 30px;'><strong>This rock is pegmatite</strong></p>",0,corr_feedback,2,train,16,,,,,,,,
,,,,,,,,,,,html-button-response,336,2.0.0,1323379,651eea44194fa8c200606af7,1,47,3097,,,,,,,,,"<img src= ""rock_img/I_Gabbro_13.jpg"" style=""width:8cm; height:5.08cm;""><p>What type of rock is this?</p>",6,class_response,2,train,17,Peridotite,Gabbro,13,FALSE,7,4,,
,,,,,,,,,,,html-button-response,337,2.0.0,1324476,651eea44194fa8c200606af7,1,47,1097,,,,,,,,,"<img src= rock_img/I_Gabbro_13.jpg style=""width:8cm; height:5.08cm;""><p style='font-size: 30px; color: red;'><strong>Incorrect!</strong></p><p style='font-size: 30px;'><strong>This rock is gabbro</strong></p>",0,corr_feedback,2,train,17,,,,,,,,
,,,,,,,,,,,html-button-response,338,2.0.0,1327025,651eea44194fa8c200606af7,1,47,2547,,,,,,,,,"<img src= ""rock_img/I_Pegmatite_08.jpg"" style=""width:8cm; height:7.68cm;""><p>What type of rock is this?</p>",6,class_response,2,train,18,Peridotite,Pegmatite,8,FALSE,7,6,,
,,,,,,,,,,,html-button-response,339,2.0.0,1328085,651eea44194fa8c200606af7,1,47,1059,,,,,,,,,"<img src= rock_img/I_Pegmatite_08.jpg style=""width:8cm; height:7.68cm;""><p style='font-size: 30px; color: red;'><strong>Incorrect!</strong></p><p style='font-size: 30px;'><strong>This rock is pegmatite</strong></p>",0,corr_feedback,2,train,18,,,,,,,,
,,,,,,,,,,,html-button-response,340,2.0.0,1330053,651eea44194fa8c200606af7,1,47,1967,,,,,,,,,"<img src= ""rock_img/I_Peridotite_05.jpg"" style=""width:8cm; height:7.1499999999999995cm;""><p>What type of rock is this?</p>",6,class_response,2,train,19,Peridotite,Peridotite,5,TRUE,7,7,,
,,,,,,,,,,,html-button-response,341,2.0.0,1334421,651eea44194fa8c200606af7,1,47,4366,,,,,,,,,"<img src= rock_img/I_Peridotite_05.jpg style=""width:8cm; height:7.1499999999999995cm;""><p style='font-size: 30px; color: green;'><strong>Correct!</strong></p><p style='font-size: 30px;'><strong>This rock is peridotite</strong></p>",0,corr_feedback,2,train,19,,,,,,,,
,,,,,,,,,,,html-button-response,342,2.0.0,1336679,651eea44194fa8c200606af7,1,47,2257,,,,,,,,,"<img src= ""rock_img/I_Gabbro_10.jpg"" style=""width:8cm; height:5.680000000000001cm;""><p>What type of rock is this?</p>",5,class_response,2,train,20,Pegmatite,Gabbro,10,FALSE,6,4,,
,,,,,,,,,,,html-button-response,343,2.0.0,1337699,651eea44194fa8c200606af7,1,47,1019,,,,,,,,,"<img src= rock_img/I_Gabbro_10.jpg style=""width:8cm; height:5.680000000000001cm;""><p style='font-size: 30px; color: red;'><strong>Incorrect!</strong></p><p style='font-size: 30px;'><strong>This rock is gabbro</strong></p>",0,corr_feedback,2,train,20,,,,,,,,
,,,,,,,,,,,html-button-response,344,2.0.0,1339817,651eea44194fa8c200606af7,1,47,2117,,,,,,,,,"<img src= ""rock_img/I_Pegmatite_05.jpg"" style=""width:8cm; height:7.300000000000001cm;""><p>What type of rock is this?</p>",5,class_response,2,train,21,Pegmatite,Pegmatite,5,TRUE,6,6,,
,,,,,,,,,,,html-button-response,345,2.0.0,1341226,651eea44194fa8c200606af7,1,47,1408,,,,,,,,,"<img src= rock_img/I_Pegmatite_05.jpg style=""width:8cm; height:7.300000000000001cm;""><p style='font-size: 30px; color: green;'><strong>Correct!</strong></p><p style='font-size: 30px;'><strong>This rock is pegmatite</strong></p>",0,corr_feedback,2,train,21,,,,,,,,
,,,,,,,,,,,html-button-response,346,2.0.0,1343007,651eea44194fa8c200606af7,1,47,1779,,,,,,,,,"<img src= ""rock_img/I_Basalt_02.jpg"" style=""width:8cm; height:6.45cm;""><p>What type of rock is this?</p>",1,class_response,2,train,22,Basalt,Basalt,2,TRUE,2,2,,
,,,,,,,,,,,html-button-response,347,2.0.0,1344270,651eea44194fa8c200606af7,1,47,1263,,,,,,,,,"<img src= rock_img/I_Basalt_02.jpg style=""width:8cm; height:6.45cm;""><p style='font-size: 30px; color: green;'><strong>Correct!</strong></p><p style='font-size: 30px;'><strong>This rock is basalt</strong></p>",0,corr_feedback,2,train,22,,,,,,,,
,,,,,,,,,,,html-button-response,348,2.0.0,1345761,651eea44194fa8c200606af7,1,47,1489,,,,,,,,,"<img src= ""rock_img/I_Obsidian_08.jpg"" style=""width:8cm; height:7.39cm;""><p>What type of rock is this?</p>",4,class_response,2,train,23,Obsidian,Obsidian,8,TRUE,5,5,,
,,,,,,,,,,,html-button-response,349,2.0.0,1347133,651eea44194fa8c200606af7,1,47,1370,,,,,,,,,"<img src= rock_img/I_Obsidian_08.jpg style=""width:8cm; height:7.39cm;""><p style='font-size: 30px; color: green;'><strong>Correct!</strong></p><p style='font-size: 30px;'><strong>This rock is obsidian</strong></p>",0,corr_feedback,2,train,23,,,,,,,,
,,,,,,,,,,,html-button-response,350,2.0.0,1352559,651eea44194fa8c200606af7,1,47,5424,,,,,,,,,"<img src= ""rock_img/I_Diorite_07.jpg"" style=""width:8cm; height:5.239999999999999cm;""><p>What type of rock is this?</p>",3,class_response,2,train,24,Gabbro,Diorite,7,FALSE,4,3,,
,,,,,,,,,,,html-button-response,351,2.0.0,1353727,651eea44194fa8c200606af7,1,47,1166,,,,,,,,,"<img src= rock_img/I_Diorite_07.jpg style=""width:8cm; height:5.239999999999999cm;""><p style='font-size: 30px; color: red;'><strong>Incorrect!</strong></p><p style='font-size: 30px;'><strong>This rock is diorite</strong></p>",0,corr_feedback,2,train,24,,,,,,,,
,,,,,,,,,,,html-button-response,352,2.0.0,1357859,651eea44194fa8c200606af7,1,47,4131,,,,,,,,,"<img src= ""rock_img/I_Andesite_01.jpg"" style=""width:8cm; height:5.87cm;""><p>What type of rock is this?</p>",0,class_response,2,train,25,Andesite,Andesite,1,TRUE,1,1,,
,,,,,,,,,,,html-button-response,353,2.0.0,1358887,651eea44194fa8c200606af7,1,47,1027,,,,,,,,,"<img src= rock_img/I_Andesite_01.jpg style=""width:8cm; height:5.87cm;""><p style='font-size: 30px; color: green;'><strong>Correct!</strong></p><p style='font-size: 30px;'><strong>This rock is andesite</strong></p>",0,corr_feedback,2,train,25,,,,,,,,
,,,,,,,,,,,html-button-response,354,2.0.0,1366862,651eea44194fa8c200606af7,1,47,7974,,,,,,,,,"<img src= ""rock_img/I_Pegmatite_12.jpg"" style=""width:8cm; height:5.7cm;""><p>What type of rock is this?</p>",2,class_response,2,train,26,Diorite,Pegmatite,12,FALSE,3,6,,
,,,,,,,,,,,html-button-response,355,2.0.0,1368076,651eea44194fa8c200606af7,1,47,1213,,,,,,,,,"<img src= rock_img/I_Pegmatite_12.jpg style=""width:8cm; height:5.7cm;""><p style='font-size: 30px; color: red;'><strong>Incorrect!</strong></p><p style='font-size: 30px;'><strong>This rock is pegmatite</strong></p>",0,corr_feedback,2,train,26,,,,,,,,
,,,,,,,,,,,html-button-response,356,2.0.0,1374013,651eea44194fa8c200606af7,1,47,5935,,,,,,,,,"<img src= ""rock_img/I_Peridotite_14.jpg"" style=""width:8cm; height:5.3cm;""><p>What type of rock is this?</p>",6,class_response,2,train,27,Peridotite,Peridotite,14,TRUE,7,7,,
,,,,,,,,,,,html-button-response,357,2.0.0,1375361,651eea44194fa8c200606af7,1,47,1346,,,,,,,,,"<img src= rock_img/I_Peridotite_14.jpg style=""width:8cm; height:5.3cm;""><p style='font-size: 30px; color: green;'><strong>Correct!</strong></p><p style='font-size: 30px;'><strong>This rock is peridotite</strong></p>",0,corr_feedback,2,train,27,,,,,,,,
,,,,,,,,,,,html-button-response,358,2.0.0,1378749,651eea44194fa8c200606af7,1,47,3386,,,,,,,,,"<img src= ""rock_img/I_Peridotite_06.jpg"" style=""width:8cm; height:7.53cm;""><p>What type of rock is this?</p>",6,class_response,2,train,28,Peridotite,Peridotite,6,TRUE,7,7,,
,,,,,,,,,,,html-button-response,359,2.0.0,1379806,651eea44194fa8c200606af7,1,47,1056,,,,,,,,,"<img src= rock_img/I_Peridotite_06.jpg style=""width:8cm; height:7.53cm;""><p style='font-size: 30px; color: green;'><strong>Correct!</strong></p><p style='font-size: 30px;'><strong>This rock is peridotite</strong></p>",0,corr_feedback,2,train,28,,,,,,,,
,,,,,,,,,,,html-button-response,360,2.0.0,1382379,651eea44194fa8c200606af7,1,47,2571,,,,,,,,,"<img src= ""rock_img/I_Basalt_12.jpg"" style=""width:8cm; height:6.010000000000001cm;""><p>What type of rock is this?</p>",1,class_response,2,train,29,Basalt,Basalt,12,TRUE,2,2,,
,,,,,,,,,,,html-button-response,361,2.0.0,1383485,651eea44194fa8c200606af7,1,47,1105,,,,,,,,,"<img src= rock_img/I_Basalt_12.jpg style=""width:8cm; height:6.010000000000001cm;""><p style='font-size: 30px; color: green;'><strong>Correct!</strong></p><p style='font-size: 30px;'><strong>This rock is basalt</strong></p>",0,corr_feedback,2,train,29,,,,,,,,
,,,,,,,,,,,html-button-response,362,2.0.0,1385031,651eea44194fa8c200606af7,1,47,1545,,,,,,,,,"<img src= ""rock_img/I_Basalt_01.jpg"" style=""width:8cm; height:7.880000000000001cm;""><p>What type of rock is this?</p>",1,class_response,2,train,30,Basalt,Basalt,1,TRUE,2,2,,
,,,,,,,,,,,html-button-response,363,2.0.0,1386112,651eea44194fa8c200606af7,1,47,1081,,,,,,,,,"<img src= rock_img/I_Basalt_01.jpg style=""width:8cm; height:7.880000000000001cm;""><p style='font-size: 30px; color: green;'><strong>Correct!</strong></p><p style='font-size: 30px;'><strong>This rock is basalt</strong></p>",0,corr_feedback,2,train,30,,,,,,,,
,,,,,,,,,,,html-button-response,364,2.0.0,1398857,651eea44194fa8c200606af7,1,47,12743,,,,,,,,,"<img src= ""rock_img/I_Peridotite_04.jpg"" style=""width:8cm; height:6.680000000000001cm;""><p>What type of rock is this?</p>",2,class_response,2,train,31,Diorite,Peridotite,4,FALSE,3,7,,
,,,,,,,,,,,html-button-response,365,2.0.0,1399866,651eea44194fa8c200606af7,1,47,1009,,,,,,,,,"<img src= rock_img/I_Peridotite_04.jpg style=""width:8cm; height:6.680000000000001cm;""><p style='font-size: 30px; color: red;'><strong>Incorrect!</strong></p><p style='font-size: 30px;'><strong>This rock is peridotite</strong></p>",0,corr_feedback,2,train,31,,,,,,,,
,,,,,,,,,,,html-button-response,366,2.0.0,1402989,651eea44194fa8c200606af7,1,47,3121,,,,,,,,,"<img src= ""rock_img/I_Pegmatite_07.jpg"" style=""width:8cm; height:6.7cm;""><p>What type of rock is this?</p>",6,class_response,2,train,32,Peridotite,Pegmatite,7,FALSE,7,6,,
,,,,,,,,,,,html-button-response,367,2.0.0,1403969,651eea44194fa8c200606af7,1,47,979,,,,,,,,,"<img src= rock_img/I_Pegmatite_07.jpg style=""width:8cm; height:6.7cm;""><p style='font-size: 30px; color: red;'><strong>Incorrect!</strong></p><p style='font-size: 30px;'><strong>This rock is pegmatite</strong></p>",0,corr_feedback,2,train,32,,,,,,,,
,,,,,,,,,,,html-button-response,368,2.0.0,1405999,651eea44194fa8c200606af7,1,47,2029,,,,,,,,,"<img src= ""rock_img/I_Obsidian_09.jpg"" style=""width:8cm; height:5cm;""><p>What type of rock is this?</p>",4,class_response,2,train,33,Obsidian,Obsidian,9,TRUE,5,5,,
,,,,,,,,,,,html-button-response,369,2.0.0,1407214,651eea44194fa8c200606af7,1,47,1215,,,,,,,,,"<img src= rock_img/I_Obsidian_09.jpg style=""width:8cm; height:5cm;""><p style='font-size: 30px; color: green;'><strong>Correct!</strong></p><p style='font-size: 30px;'><strong>This rock is obsidian</strong></p>",0,corr_feedback,2,train,33,,,,,,,,
,,,,,,,,,,,html-button-response,370,2.0.0,1411913,651eea44194fa8c200606af7,1,47,4697,,,,,,,,,"<img src= ""rock_img/I_Basalt_11.jpg"" style=""width:8cm; height:5.359999999999999cm;""><p>What type of rock is this?</p>",3,class_response,2,train,34,Gabbro,Basalt,11,FALSE,4,2,,
,,,,,,,,,,,html-button-response,371,2.0.0,1413198,651eea44194fa8c200606af7,1,47,1284,,,,,,,,,"<img src= rock_img/I_Basalt_11.jpg style=""width:8cm; height:5.359999999999999cm;""><p style='font-size: 30px; color: red;'><strong>Incorrect!</strong></p><p style='font-size: 30px;'><strong>This rock is basalt</strong></p>",0,corr_feedback,2,train,34,,,,,,,,
,,,,,,,,,,,html-button-response,372,2.0.0,1415001,651eea44194fa8c200606af7,1,47,1801,,,,,,,,,"<img src= ""rock_img/I_Pumice_13.jpg"" style=""width:8cm; height:8.200000000000001cm;""><p>What type of rock is this?</p>",7,class_response,2,train,35,Pumice,Pumice,13,TRUE,8,8,,
,,,,,,,,,,,html-button-response,373,2.0.0,1415975,651eea44194fa8c200606af7,1,47,973,,,,,,,,,"<img src= rock_img/I_Pumice_13.jpg style=""width:8cm; height:8.200000000000001cm;""><p style='font-size: 30px; color: green;'><strong>Correct!</strong></p><p style='font-size: 30px;'><strong>This rock is pumice</strong></p>",0,corr_feedback,2,train,35,,,,,,,,
,,,,,,,,,,,html-button-response,374,2.0.0,1417723,651eea44194fa8c200606af7,1,47,1747,,,,,,,,,"<img src= ""rock_img/I_Pumice_14.jpg"" style=""width:8cm; height:6.39cm;""><p>What type of rock is this?</p>",7,class_response,2,train,36,Pumice,Pumice,14,TRUE,8,8,,
,,,,,,,,,,,html-button-response,375,2.0.0,1418931,651eea44194fa8c200606af7,1,47,1207,,,,,,,,,"<img src= rock_img/I_Pumice_14.jpg style=""width:8cm; height:6.39cm;""><p style='font-size: 30px; color: green;'><strong>Correct!</strong></p><p style='font-size: 30px;'><strong>This rock is pumice</strong></p>",0,corr_feedback,2,train,36,,,,,,,,
,,,,,,,,,,,html-button-response,376,2.0.0,1430633,651eea44194fa8c200606af7,1,47,11701,,,,,,,,,"<img src= ""rock_img/I_Andesite_09.jpg"" style=""width:8cm; height:6cm;""><p>What type of rock is this?</p>",1,class_response,2,train,37,Basalt,Andesite,9,FALSE,2,1,,
,,,,,,,,,,,html-button-response,377,2.0.0,1432568,651eea44194fa8c200606af7,1,47,1935,,,,,,,,,"<img src= rock_img/I_Andesite_09.jpg style=""width:8cm; height:6cm;""><p style='font-size: 30px; color: red;'><strong>Incorrect!</strong></p><p style='font-size: 30px;'><strong>This rock is andesite</strong></p>",0,corr_feedback,2,train,37,,,,,,,,
,,,,,,,,,,,html-button-response,378,2.0.0,1434679,651eea44194fa8c200606af7,1,47,2109,,,,,,,,,"<img src= ""rock_img/I_Andesite_07.jpg"" style=""width:8cm; height:5.93cm;""><p>What type of rock is this?</p>",2,class_response,2,train,38,Diorite,Andesite,7,FALSE,3,1,,
,,,,,,,,,,,html-button-response,379,2.0.0,1435948,651eea44194fa8c200606af7,1,47,1269,,,,,,,,,"<img src= rock_img/I_Andesite_07.jpg style=""width:8cm; height:5.93cm;""><p style='font-size: 30px; color: red;'><strong>Incorrect!</strong></p><p style='font-size: 30px;'><strong>This rock is andesite</strong></p>",0,corr_feedback,2,train,38,,,,,,,,
,,,,,,,,,,,html-button-response,380,2.0.0,1440639,651eea44194fa8c200606af7,1,47,4689,,,,,,,,,"<img src= ""rock_img/I_Gabbro_08.jpg"" style=""width:8cm; height:5.15cm;""><p>What type of rock is this?</p>",6,class_response,2,train,39,Peridotite,Gabbro,8,FALSE,7,4,,
,,,,,,,,,,,html-button-response,381,2.0.0,1442010,651eea44194fa8c200606af7,1,47,1371,,,,,,,,,"<img src= rock_img/I_Gabbro_08.jpg style=""width:8cm; height:5.15cm;""><p style='font-size: 30px; color: red;'><strong>Incorrect!</strong></p><p style='font-size: 30px;'><strong>This rock is gabbro</strong></p>",0,corr_feedback,2,train,39,,,,,,,,
,,,,,,,,,,,html-button-response,382,2.0.0,1449397,651eea44194fa8c200606af7,1,47,7385,,,,,,,,,"<img src= ""rock_img/I_Diorite_06.jpg"" style=""width:8cm; height:6.03cm;""><p>What type of rock is this?</p>",2,class_response,2,train,40,Diorite,Diorite,6,TRUE,3,3,,
,,,,,,,,,,,html-button-response,383,2.0.0,1451224,651eea44194fa8c200606af7,1,47,1827,,,,,,,,,"<img src= rock_img/I_Diorite_06.jpg style=""width:8cm; height:6.03cm;""><p style='font-size: 30px; color: green;'><strong>Correct!</strong></p><p style='font-size: 30px;'><strong>This rock is diorite</strong></p>",0,corr_feedback,2,train,40,,,,,,,,
,,,,,,,,,,,html-button-response,384,2.0.0,1452699,651eea44194fa8c200606af7,1,47,1473,,,,,,,,,"<img src= ""rock_img/I_Obsidian_16.jpg"" style=""width:8cm; height:9.3cm;""><p>What type of rock is this?</p>",4,class_response,2,train,41,Obsidian,Obsidian,16,TRUE,5,5,,
