"width","height","webaudio","browser","browser_version","mobile","os","fullscreen","vsync_rate","webcam","microphone","trial_type","trial_index","plugin_version","time_elapsed","subjID","condition","stimID","rt","url","success","value","timeout","failed_images","failed_audio","failed_video","view_history","stimulus","response","trialType","cycle","phase","trial","resp","cat","token","corr","resp_num","cat_num","time_fb1","time_fb2"
"1920","955","true","firefox","132.0.0","false","Windows 10","true","2.46","false","true","browser-check","0","2.0.0","25429","617452347986aeaf4d2e5278","1","1","","","","","","","","","","","","","","","","","","","","","","",""
"","","","","","","","","","","","external-html","1","2.0.0","28367","617452347986aeaf4d2e5278","1","1","2786","consent_form.html","","","","","","","","","","","","","","","","","","","","",""
"","","","","","","","","","","","fullscreen","2","2.0.0","37101","617452347986aeaf4d2e5278","1","1","7727","","true","","","","","","","","","","","","","","","","","","","",""
"","","","","","","","","","","","call-function","3","2.0.0","37103","617452347986aeaf4d2e5278","1","1","","","","{}","","","","","","","","","","","","","","","","","","",""
"","","","","","","","","","","","preload","4","2.0.0","38832","617452347986aeaf4d2e5278","1","1","","","true","","false","[]","[]","[]","","","","","","","","","","","","","","",""
"","","","","","","","","","","","instructions","5","2.0.0","49827","617452347986aeaf4d2e5278","1","1","10994","","","","","","","","[{""page_index"":0,""viewing_time"":5235},{""page_index"":1,""viewing_time"":3873},{""page_index"":2,""viewing_time"":1886}]","","","","","","","","","","","","","",""
"","","","","","","","","","","","html-button-response","6","2.0.0","50726","617452347986aeaf4d2e5278","1","1","898","","","","","","","","","","0","start_test","","","","","","","","","","",""
"","","","","","","","","","","","html-button-response","7","2.0.0","57263","617452347986aeaf4d2e5278","1","1","6534","","","","","","","","","<img src= ""rock_img/I_Andesite_05.jpg"" style=""width:8cm; height:4.12cm;""><p>What type of rock is this?</p>","7","class_response","0","test","1","Pumice","Andesite","05","false","8","1","",""
"","","","","","","","","","","","html-keyboard-response","8","2.0.0","57766","617452347986aeaf4d2e5278","1","1","null","","","","","","","","","<p style='font-size: 30px;'><strong>Okay</strong></p>","null","neutral_feedback","0","test","1","","","","","","","",""
"","","","","","","","","","","","html-button-response","9","2.0.0","59620","617452347986aeaf4d2e5278","1","1","1851","","","","","","","","","<img src= ""rock_img/I_Andesite_09.jpg"" style=""width:8cm; height:6cm;""><p>What type of rock is this?</p>","2","class_response","0","test","2","Diorite","Andesite","09","false","3","1","",""
"","","","","","","","","","","","html-keyboard-response","10","2.0.0","60137","617452347986aeaf4d2e5278","1","1","null","","","","","","","","","<p style='font-size: 30px;'><strong>Okay</strong></p>","null","neutral_feedback","0","test","2","","","","","","","",""
"","","","","","","","","","","","html-button-response","11","2.0.0","63899","617452347986aeaf4d2e5278","1","1","3761","","","","","","","","","<img src= ""rock_img/I_Diorite_02.jpg"" style=""width:8cm; height:6.27cm;""><p>What type of rock is this?</p>","0","class_response","0","test","3","Andesite","Diorite","02","false","1","3","",""
"","","","","","","","","","","","html-keyboard-response","12","2.0.0","64439","617452347986aeaf4d2e5278","1","1","null","","","","","","","","","<p style='font-size: 30px;'><strong>Okay</strong></p>","null","neutral_feedback","0","test","3","","","","","","","",""
"","","","","","","","","","","","html-button-response","13","2.0.0","69244","617452347986aeaf4d2e5278","1","1","4801","","","","","","","","","<img src= ""rock_img/I_Diorite_15.jpg"" style=""width:8cm; height:5.54cm;""><p>What type of rock is this?</p>","1","class_response","0","test","4","Basalt","Diorite","15","false","2","3","",""
"","","","","","","","","","","","html-keyboard-response","14","2.0.0","69760","617452347986aeaf4d2e5278","1","1","null","","","","","","","","","<p style='font-size: 30px;'><strong>Okay</strong></p>","null","neutral_feedback","0","test","4","","","","","","","",""
"","","","","","","","","","","","html-button-response","15","2.0.0","72494","617452347986aeaf4d2e5278","1","1","2733","","","","","","","","","<img src= ""rock_img/I_Basalt_14.jpg"" style=""width:8cm; height:5.82cm;""><p>What type of rock is this?</p>","6","class_response","0","test","5","Peridotite","Basalt","14","false","7","2","",""
"","","","","","","","","","","","html-keyboard-response","16","2.0.0","73005","617452347986aeaf4d2e5278","1","1","null","","","","","","","","","<p style='font-size: 30px;'><strong>Okay</strong></p>","null","neutral_feedback","0","test","5","","","","","","","",""
"","","","","","","","","","","","html-button-response","17","2.0.0","74994","617452347986aeaf4d2e5278","1","1","1987","","","","","","","","","<img src= ""rock_img/I_Basalt_09.jpg"" style=""width:8cm; height:6.2cm;""><p>What type of rock is this?</p>","1","class_response","0","test","6","Basalt","Basalt","09","true","2","2","",""
"","","","","","","","","","","","html-keyboard-response","18","2.0.0","75505","617452347986aeaf4d2e5278","1","1","null","","","","","","","","","<p style='font-size: 30px;'><strong>Okay</strong></p>","null","neutral_feedback","0","test","6","","","","","","","",""
"","","","","","","","","","","","html-button-response","19","2.0.0","79251","617452347986aeaf4d2e5278","1","1","3745","","","","","","","","","<img src= ""rock_img/I_Andesite_01.jpg"" style=""width:8cm; height:5.87cm;""><p>What type of rock is this?</p>","5","class_response","0","test","7","Pegmatite","Andesite","01","false","6","1","",""
"","","","","","","","","","","","html-keyboard-response","20","2.0.0","79764","617452347986aeaf4d2e5278","1","1","null","","","","","","","","","<p style='font-size: 30px;'><strong>Okay</strong></p>","null","neutral_feedback","0","test","7","","","","","","","",""
"","","","","","","","","","","","html-button-response","21","2.0.0","82305","617452347986aeaf4d2e5278","1","1","2540","","","","","","","","","<img src= ""rock_img/I_Pegmatite_10.jpg"" style=""width:8cm; height:4.16cm;""><p>What type of rock is this?</p>","3","class_response","0","test","8","Gabbro","Pegmatite","10","false","4","6","",""
"","","","","","","","","","","","html-keyboard-response","22","2.0.0","82807","617452347986aeaf4d2e5278","1","1","null","","","","","","","","","<p style='font-size: 30px;'><strong>Okay</strong></p>","null","neutral_feedback","0","test","8","","","","","","","",""
"","","","","","","","","","","","html-button-response","23","2.0.0","84773","617452347986aeaf4d2e5278","1","1","1963","","","","","","","","","<img src= ""rock_img/I_Andesite_03.jpg"" style=""width:8cm; height:5.73cm;""><p>What type of rock is this?</p>","1","class_response","0","test","9","Basalt","Andesite","03","false","2","1","",""
"","","","","","","","","","","","html-keyboard-response","24","2.0.0","85284","617452347986aeaf4d2e5278","1","1","null","","","","","","","","","<p style='font-size: 30px;'><strong>Okay</strong></p>","null","neutral_feedback","0","test","9","","","","","","","",""
"","","","","","","","","","","","html-button-response","25","2.0.0","89639","617452347986aeaf4d2e5278","1","1","4352","","","","","","","","","<img src= ""rock_img/I_Gabbro_10.jpg"" style=""width:8cm; height:5.680000000000001cm;""><p>What type of rock is this?</p>","7","class_response","0","test","10","Pumice","Gabbro","10","false","8","4","",""
"","","","","","","","","","","","html-keyboard-response","26","2.0.0","90144","617452347986aeaf4d2e5278","1","1","null","","","","","","","","","<p style='font-size: 30px;'><strong>Okay</strong></p>","null","neutral_feedback","0","test","10","","","","","","","",""
"","","","","","","","","","","","html-button-response","27","2.0.0","95760","617452347986aeaf4d2e5278","1","1","5615","","","","","","","","","<img src= ""rock_img/I_Pegmatite_12.jpg"" style=""width:8cm; height:5.7cm;""><p>What type of rock is this?</p>","6","class_response","0","test","11","Peridotite","Pegmatite","12","false","7","6","",""
"","","","","","","","","","","","html-keyboard-response","28","2.0.0","96268","617452347986aeaf4d2e5278","1","1","null","","","","","","","","","<p style='font-size: 30px;'><strong>Okay</strong></p>","null","neutral_feedback","0","test","11","","","","","","","",""
"","","","","","","","","","","","html-button-response","29","2.0.0","98908","617452347986aeaf4d2e5278","1","1","2638","","","","","","","","","<img src= ""rock_img/I_Basalt_11.jpg"" style=""width:8cm; height:5.359999999999999cm;""><p>What type of rock is this?</p>","4","class_response","0","test","12","Obsidian","Basalt","11","false","5","2","",""
"","","","","","","","","","","","html-keyboard-response","30","2.0.0","99420","617452347986aeaf4d2e5278","1","1","null","","","","","","","","","<p style='font-size: 30px;'><strong>Okay</strong></p>","null","neutral_feedback","0","test","12","","","","","","","",""
"","","","","","","","","","","","html-button-response","31","2.0.0","101815","617452347986aeaf4d2e5278","1","1","2393","","","","","","","","","<img src= ""rock_img/I_Diorite_06.jpg"" style=""width:8cm; height:6.03cm;""><p>What type of rock is this?</p>","2","class_response","0","test","13","Diorite","Diorite","06","true","3","3","",""
"","","","","","","","","","","","html-keyboard-response","32","2.0.0","102320","617452347986aeaf4d2e5278","1","1","null","","","","","","","","","<p style='font-size: 30px;'><strong>Okay</strong></p>","null","neutral_feedback","0","test","13","","","","","","","",""
"","","","","","","","","","","","html-button-response","33","2.0.0","103519","617452347986aeaf4d2e5278","1","1","1198","","","","","","","","","<img src= ""rock_img/I_Obsidian_12.jpg"" style=""width:8cm; height:6.53cm;""><p>What type of rock is this?</p>","4","class_response","0","test","14","Obsidian","Obsidian","12","true","5","5","",""
"","","","","","","","","","","","html-keyboard-response","34","2.0.0","104071","617452347986aeaf4d2e5278","1","1","null","","","","","","","","","<p style='font-size: 30px;'><strong>Okay</strong></p>","null","neutral_feedback","0","test","14","","","","","","","",""
"","","","","","","","","","","","html-button-response","35","2.0.0","107238","617452347986aeaf4d2e5278","1","1","3164","","","","","","","","","<img src= ""rock_img/I_Gabbro_09.jpg"" style=""width:8cm; height:7.279999999999999cm;""><p>What type of rock is this?</p>","3","class_response","0","test","15","Gabbro","Gabbro","09","true","4","4","",""
"","","","","","","","","","","","html-keyboard-response","36","2.0.0","107742","617452347986aeaf4d2e5278","1","1","null","","","","","","","","","<p style='font-size: 30px;'><strong>Okay</strong></p>","null","neutral_feedback","0","test","15","","","","","","","",""
"","","","","","","","","","","","html-button-response","37","2.0.0","111977","617452347986aeaf4d2e5278","1","1","4235","","","","","","","","","<img src= ""rock_img/I_Pegmatite_03.jpg"" style=""width:8cm; height:5.239999999999999cm;""><p>What type of rock is this?</p>","6","class_response","0","test","16","Peridotite","Pegmatite","03","false","7","6","",""
"","","","","","","","","","","","html-keyboard-response","38","2.0.0","112492","617452347986aeaf4d2e5278","1","1","null","","","","","","","","","<p style='font-size: 30px;'><strong>Okay</strong></p>","null","neutral_feedback","0","test","16","","","","","","","",""
"","","","","","","","","","","","html-button-response","39","2.0.0","115815","617452347986aeaf4d2e5278","1","1","3322","","","","","","","","","<img src= ""rock_img/I_Pegmatite_08.jpg"" style=""width:8cm; height:7.68cm;""><p>What type of rock is this?</p>","6","class_response","0","test","17","Peridotite","Pegmatite","08","false","7","6","",""
"","","","","","","","","","","","html-keyboard-response","40","2.0.0","116325","617452347986aeaf4d2e5278","1","1","null","","","","","","","","","<p style='font-size: 30px;'><strong>Okay</strong></p>","null","neutral_feedback","0","test","17","","","","","","","",""
"","","","","","","","","","","","html-button-response","41","2.0.0","118710","617452347986aeaf4d2e5278","1","1","2384","","","","","","","","","<img src= ""rock_img/I_Peridotite_13.jpg"" style=""width:8cm; height:7.58cm;""><p>What type of rock is this?</p>","5","class_response","0","test","18","Pegmatite","Peridotite","13","false","6","7","",""
"","","","","","","","","","","","html-keyboard-response","42","2.0.0","119217","617452347986aeaf4d2e5278","1","1","null","","","","","","","","","<p style='font-size: 30px;'><strong>Okay</strong></p>","null","neutral_feedback","0","test","18","","","","","","","",""
"","","","","","","","","","","","html-button-response","43","2.0.0","120638","617452347986aeaf4d2e5278","1","1","1420","","","","","","","","","<img src= ""rock_img/I_Peridotite_07.jpg"" style=""width:8cm; height:4.83cm;""><p>What type of rock is this?</p>","7","class_response","0","test","19","Pumice","Peridotite","07","false","8","7","",""
"","","","","","","","","","","","html-keyboard-response","44","2.0.0","121140","617452347986aeaf4d2e5278","1","1","null","","","","","","","","","<p style='font-size: 30px;'><strong>Okay</strong></p>","null","neutral_feedback","0","test","19","","","","","","","",""
"","","","","","","","","","","","html-button-response","45","2.0.0","123936","617452347986aeaf4d2e5278","1","1","2794","","","","","","","","","<img src= ""rock_img/I_Basalt_12.jpg"" style=""width:8cm; height:6.010000000000001cm;""><p>What type of rock is this?</p>","7","class_response","0","test","20","Pumice","Basalt","12","false","8","2","",""
"","","","","","","","","","","","html-keyboard-response","46","2.0.0","124437","617452347986aeaf4d2e5278","1","1","null","","","","","","","","","<p style='font-size: 30px;'><strong>Okay</strong></p>","null","neutral_feedback","0","test","20","","","","","","","",""
"","","","","","","","","","","","html-button-response","47","2.0.0","125783","617452347986aeaf4d2e5278","1","1","1344","","","","","","","","","<img src= ""rock_img/I_Obsidian_07.jpg"" style=""width:8cm; height:4.76cm;""><p>What type of rock is this?</p>","4","class_response","0","test","21","Obsidian","Obsidian","07","true","5","5","",""
"","","","","","","","","","","","html-keyboard-response","48","2.0.0","126287","617452347986aeaf4d2e5278","1","1","null","","","","","","","","","<p style='font-size: 30px;'><strong>Okay</strong></p>","null","neutral_feedback","0","test","21","","","","","","","",""
"","","","","","","","","","","","html-button-response","49","2.0.0","129957","617452347986aeaf4d2e5278","1","1","3669","","","","","","","","","<img src= ""rock_img/I_Pumice_14.jpg"" style=""width:8cm; height:6.39cm;""><p>What type of rock is this?</p>","3","class_response","0","test","22","Gabbro","Pumice","14","false","4","8","",""
"","","","","","","","","","","","html-keyboard-response","50","2.0.0","130468","617452347986aeaf4d2e5278","1","1","null","","","","","","","","","<p style='font-size: 30px;'><strong>Okay</strong></p>","null","neutral_feedback","0","test","22","","","","","","","",""
"","","","","","","","","","","","html-button-response","51","2.0.0","134732","617452347986aeaf4d2e5278","1","1","4264","","","","","","","","","<img src= ""rock_img/I_Pumice_09.jpg"" style=""width:8cm; height:6.44cm;""><p>What type of rock is this?</p>","0","class_response","0","test","23","Andesite","Pumice","09","false","1","8","",""
"","","","","","","","","","","","html-keyboard-response","52","2.0.0","135243","617452347986aeaf4d2e5278","1","1","null","","","","","","","","","<p style='font-size: 30px;'><strong>Okay</strong></p>","null","neutral_feedback","0","test","23","","","","","","","",""
"","","","","","","","","","","","html-button-response","53","2.0.0","136851","617452347986aeaf4d2e5278","1","1","1606","","","","","","","","","<img src= ""rock_img/I_Diorite_10.jpg"" style=""width:8cm; height:5.949999999999999cm;""><p>What type of rock is this?</p>","2","class_response","0","test","24","Diorite","Diorite","10","true","3","3","",""
"","","","","","","","","","","","html-keyboard-response","54","2.0.0","137358","617452347986aeaf4d2e5278","1","1","null","","","","","","","","","<p style='font-size: 30px;'><strong>Okay</strong></p>","null","neutral_feedback","0","test","24","","","","","","","",""
"","","","","","","","","","","","html-button-response","55","2.0.0","138493","617452347986aeaf4d2e5278","1","1","1135","","","","","","","","","<img src= ""rock_img/I_Basalt_10.jpg"" style=""width:8cm; height:5.85cm;""><p>What type of rock is this?</p>","4","class_response","0","test","25","Obsidian","Basalt","10","false","5","2","",""
"","","","","","","","","","","","html-keyboard-response","56","2.0.0","139010","617452347986aeaf4d2e5278","1","1","null","","","","","","","","","<p style='font-size: 30px;'><strong>Okay</strong></p>","null","neutral_feedback","0","test","25","","","","","","","",""
"","","","","","","","","","","","html-button-response","57","2.0.0","140992","617452347986aeaf4d2e5278","1","1","1981","","","","","","","","","<img src= ""rock_img/I_Pumice_13.jpg"" style=""width:8cm; height:8.200000000000001cm;""><p>What type of rock is this?</p>","0","class_response","0","test","26","Andesite","Pumice","13","false","1","8","",""
"","","","","","","","","","","","html-keyboard-response","58","2.0.0","141497","617452347986aeaf4d2e5278","1","1","null","","","","","","","","","<p style='font-size: 30px;'><strong>Okay</strong></p>","null","neutral_feedback","0","test","26","","","","","","","",""
"","","","","","","","","","","","html-button-response","59","2.0.0","143435","617452347986aeaf4d2e5278","1","1","1937","","","","","","","","","<img src= ""rock_img/I_Diorite_11.jpg"" style=""width:8cm; height:7.11cm;""><p>What type of rock is this?</p>","3","class_response","0","test","27","Gabbro","Diorite","11","false","4","3","",""
"","","","","","","","","","","","html-keyboard-response","60","2.0.0","143979","617452347986aeaf4d2e5278","1","1","null","","","","","","","","","<p style='font-size: 30px;'><strong>Okay</strong></p>","null","neutral_feedback","0","test","27","","","","","","","",""
"","","","","","","","","","","","html-button-response","61","2.0.0","145720","617452347986aeaf4d2e5278","1","1","1740","","","","","","","","","<img src= ""rock_img/I_Basalt_08.jpg"" style=""width:8cm; height:10.44cm;""><p>What type of rock is this?</p>","4","class_response","0","test","28","Obsidian","Basalt","08","false","5","2","",""
"","","","","","","","","","","","html-keyboard-response","62","2.0.0","146235","617452347986aeaf4d2e5278","1","1","null","","","","","","","","","<p style='font-size: 30px;'><strong>Okay</strong></p>","null","neutral_feedback","0","test","28","","","","","","","",""
"","","","","","","","","","","","html-button-response","63","2.0.0","147021","617452347986aeaf4d2e5278","1","1","785","","","","","","","","","<img src= ""rock_img/I_Obsidian_16.jpg"" style=""width:8cm; height:9.3cm;""><p>What type of rock is this?</p>","4","class_response","0","test","29","Obsidian","Obsidian","16","true","5","5","",""
"","","","","","","","","","","","html-keyboard-response","64","2.0.0","147534","617452347986aeaf4d2e5278","1","1","null","","","","","","","","","<p style='font-size: 30px;'><strong>Okay</strong></p>","null","neutral_feedback","0","test","29","","","","","","","",""
"","","","","","","","","","","","html-button-response","65","2.0.0","149163","617452347986aeaf4d2e5278","1","1","1629","","","","","","","","","<img src= ""rock_img/I_Pumice_08.jpg"" style=""width:8cm; height:6.67cm;""><p>What type of rock is this?</p>","2","class_response","0","test","30","Diorite","Pumice","08","false","3","8","",""
"","","","","","","","","","","","html-keyboard-response","66","2.0.0","149667","617452347986aeaf4d2e5278","1","1","null","","","","","","","","","<p style='font-size: 30px;'><strong>Okay</strong></p>","null","neutral_feedback","0","test","30","","","","","","","",""
"","","","","","","","","","","","html-button-response","67","2.0.0","151479","617452347986aeaf4d2e5278","1","1","1810","","","","","","","","","<img src= ""rock_img/I_Peridotite_04.jpg"" style=""width:8cm; height:6.680000000000001cm;""><p>What type of rock is this?</p>","0","class_response","0","test","31","Andesite","Peridotite","04","false","1","7","",""
"","","","","","","","","","","","html-keyboard-response","68","2.0.0","151994","617452347986aeaf4d2e5278","1","1","null","","","","","","","","","<p style='font-size: 30px;'><strong>Okay</strong></p>","null","neutral_feedback","0","test","31","","","","","","","",""
"","","","","","","","","","","","html-button-response","69","2.0.0","153082","617452347986aeaf4d2e5278","1","1","1086","","","","","","","","","<img src= ""rock_img/I_Pumice_10.jpg"" style=""width:8cm; height:7.609999999999999cm;""><p>What type of rock is this?</p>","2","class_response","0","test","32","Diorite","Pumice","10","false","3","8","",""
"","","","","","","","","","","","html-keyboard-response","70","2.0.0","153602","617452347986aeaf4d2e5278","1","1","null","","","","","","","","","<p style='font-size: 30px;'><strong>Okay</strong></p>","null","neutral_feedback","0","test","32","","","","","","","",""
"","","","","","","","","","","","html-button-response","71","2.0.0","154537","617452347986aeaf4d2e5278","1","1","932","","","","","","","","","<img src= ""rock_img/I_Obsidian_11.jpg"" style=""width:8cm; height:6.05cm;""><p>What type of rock is this?</p>","4","class_response","0","test","33","Obsidian","Obsidian","11","true","5","5","",""
"","","","","","","","","","","","html-keyboard-response","72","2.0.0","155048","617452347986aeaf4d2e5278","1","1","null","","","","","","","","","<p style='font-size: 30px;'><strong>Okay</strong></p>","null","neutral_feedback","0","test","33","","","","","","","",""
"","","","","","","","","","","","html-button-response","73","2.0.0","156742","617452347986aeaf4d2e5278","1","1","1692","","","","","","","","","<img src= ""rock_img/I_Peridotite_15.jpg"" style=""width:8cm; height:6cm;""><p>What type of rock is this?</p>","5","class_response","0","test","34","Pegmatite","Peridotite","15","false","6","7","",""
"","","","","","","","","","","","html-keyboard-response","74","2.0.0","157246","617452347986aeaf4d2e5278","1","1","null","","","","","","","","","<p style='font-size: 30px;'><strong>Okay</strong></p>","null","neutral_feedback","0","test","34","","","","","","","",""
"","","","","","","","","","","","html-button-response","75","2.0.0","163104","617452347986aeaf4d2e5278","1","1","5856","","","","","","","","","<img src= ""rock_img/I_Andesite_07.jpg"" style=""width:8cm; height:5.93cm;""><p>What type of rock is this?</p>","0","class_response","0","test","35","Andesite","Andesite","07","true","1","1","",""
"","","","","","","","","","","","html-keyboard-response","76","2.0.0","163608","617452347986aeaf4d2e5278","1","1","null","","","","","","","","","<p style='font-size: 30px;'><strong>Okay</strong></p>","null","neutral_feedback","0","test","35","","","","","","","",""
"","","","","","","","","","","","html-button-response","77","2.0.0","164982","617452347986aeaf4d2e5278","1","1","1373","","","","","","","","","<img src= ""rock_img/I_Pegmatite_16.jpg"" style=""width:8cm; height:5.8cm;""><p>What type of rock is this?</p>","3","class_response","0","test","36","Gabbro","Pegmatite","16","false","4","6","",""
"","","","","","","","","","","","html-keyboard-response","78","2.0.0","165495","617452347986aeaf4d2e5278","1","1","null","","","","","","","","","<p style='font-size: 30px;'><strong>Okay</strong></p>","null","neutral_feedback","0","test","36","","","","","","","",""
"","","","","","","","","","","","html-button-response","79","2.0.0","166874","617452347986aeaf4d2e5278","1","1","1377","","","","","","","","","<img src= ""rock_img/I_Gabbro_15.jpg"" style=""width:8cm; height:6.29cm;""><p>What type of rock is this?</p>","6","class_response","0","test","37","Peridotite","Gabbro","15","false","7","4","",""
"","","","","","","","","","","","html-keyboard-response","80","2.0.0","167376","617452347986aeaf4d2e5278","1","1","null","","","","","","","","","<p style='font-size: 30px;'><strong>Okay</strong></p>","null","neutral_feedback","0","test","37","","","","","","","",""
"","","","","","","","","","","","html-button-response","81","2.0.0","168950","617452347986aeaf4d2e5278","1","1","1572","","","","","","","","","<img src= ""rock_img/I_Gabbro_16.jpg"" style=""width:8cm; height:6.44cm;""><p>What type of rock is this?</p>","5","class_response","0","test","38","Pegmatite","Gabbro","16","false","6","4","",""
"","","","","","","","","","","","html-keyboard-response","82","2.0.0","169462","617452347986aeaf4d2e5278","1","1","null","","","","","","","","","<p style='font-size: 30px;'><strong>Okay</strong></p>","null","neutral_feedback","0","test","38","","","","","","","",""
"","","","","","","","","","","","html-button-response","83","2.0.0","171033","617452347986aeaf4d2e5278","1","1","1569","","","","","","","","","<img src= ""rock_img/I_Peridotite_14.jpg"" style=""width:8cm; height:5.3cm;""><p>What type of rock is this?</p>","6","class_response","0","test","39","Peridotite","Peridotite","14","true","7","7","",""
"","","","","","","","","","","","html-keyboard-response","84","2.0.0","171547","617452347986aeaf4d2e5278","1","1","null","","","","","","","","","<p style='font-size: 30px;'><strong>Okay</strong></p>","null","neutral_feedback","0","test","39","","","","","","","",""
"","","","","","","","","","","","html-button-response","85","2.0.0","174208","617452347986aeaf4d2e5278","1","1","2659","","","","","","","","","<img src= ""rock_img/I_Peridotite_10.jpg"" style=""width:8cm; height:5.390000000000001cm;""><p>What type of rock is this?</p>","7","class_response","0","test","40","Pumice","Peridotite","10","false","8","7","",""
"","","","","","","","","","","","html-keyboard-response","86","2.0.0","174730","617452347986aeaf4d2e5278","1","1","null","","","","","","","","","<p style='font-size: 30px;'><strong>Okay</strong></p>","null","neutral_feedback","0","test","40","","","","","","","",""
"","","","","","","","","","","","html-button-response","87","2.0.0","177920","617452347986aeaf4d2e5278","1","1","3190","","","","","","","","","<img src= ""rock_img/I_Diorite_09.jpg"" style=""width:8cm; height:5.27cm;""><p>What type of rock is this?</p>","2","class_response","0","test","41","Diorite","Diorite","09","true","3","3","",""
"","","","","","","","","","","","html-keyboard-response","88","2.0.0","178423","617452347986aeaf4d2e5278","1","1","null","","","","","","","","","<p style='font-size: 30px;'><strong>Okay</strong></p>","null","neutral_feedback","0","test","41","","","","","","","",""
"","","","","","","","","","","","html-button-response","89","2.0.0","179899","617452347986aeaf4d2e5278","1","1","1474","","","","","","","","","<img src= ""rock_img/I_Andesite_11.jpg"" style=""width:8cm; height:4.92cm;""><p>What type of rock is this?</p>","0","class_response","0","test","42","Andesite","Andesite","11","true","1","1","",""
"","","","","","","","","","","","html-keyboard-response","90","2.0.0","180404","617452347986aeaf4d2e5278","1","1","null","","","","","","","","","<p style='font-size: 30px;'><strong>Okay</strong></p>","null","neutral_feedback","0","test","42","","","","","","","",""
"","","","","","","","","","","","html-button-response","91","2.0.0","182427","617452347986aeaf4d2e5278","1","1","2023","","","","","","","","","<img src= ""rock_img/I_Pegmatite_06.jpg"" style=""width:8cm; height:5.17cm;""><p>What type of rock is this?</p>","5","class_response","0","test","43","Pegmatite","Pegmatite","06","true","6","6","",""
"","","","","","","","","","","","html-keyboard-response","92","2.0.0","182941","617452347986aeaf4d2e5278","1","1","null","","","","","","","","","<p style='font-size: 30px;'><strong>Okay</strong></p>","null","neutral_feedback","0","test","43","","","","","","","",""
"","","","","","","","","","","","html-button-response","93","2.0.0","183728","617452347986aeaf4d2e5278","1","1","786","","","","","","","","","<img src= ""rock_img/I_Obsidian_08.jpg"" style=""width:8cm; height:7.39cm;""><p>What type of rock is this?</p>","4","class_response","0","test","44","Obsidian","Obsidian","08","true","5","5","",""
"","","","","","","","","","","","html-keyboard-response","94","2.0.0","184240","617452347986aeaf4d2e5278","1","1","null","","","","","","","","","<p style='font-size: 30px;'><strong>Okay</strong></p>","null","neutral_feedback","0","test","44","","","","","","","",""
"","","","","","","","","","","","html-button-response","95","2.0.0","184930","617452347986aeaf4d2e5278","1","1","688","","","","","","","","","<img src= ""rock_img/I_Obsidian_06.jpg"" style=""width:8cm; height:6.8cm;""><p>What type of rock is this?</p>","4","class_response","0","test","45","Obsidian","Obsidian","06","true","5","5","",""
"","","","","","","","","","","","html-keyboard-response","96","2.0.0","185437","617452347986aeaf4d2e5278","1","1","null","","","","","","","","","<p style='font-size: 30px;'><strong>Okay</strong></p>","null","neutral_feedback","0","test","45","","","","","","","",""
"","","","","","","","","","","","html-button-response","97","2.0.0","186443","617452347986aeaf4d2e5278","1","1","1002","","","","","","","","","<img src= ""rock_img/I_Gabbro_13.jpg"" style=""width:8cm; height:5.08cm;""><p>What type of rock is this?</p>","3","class_response","0","test","46","Gabbro","Gabbro","13","true","4","4","",""
"","","","","","","","","","","","html-keyboard-response","98","2.0.0","187000","617452347986aeaf4d2e5278","1","1","null","","","","","","","","","<p style='font-size: 30px;'><strong>Okay</strong></p>","null","neutral_feedback","0","test","46","","","","","","","",""
"","","","","","","","","","","","html-button-response","99","2.0.0","188073","617452347986aeaf4d2e5278","1","1","1071","","","","","","","","","<img src= ""rock_img/I_Pumice_05.jpg"" style=""width:8cm; height:7.25cm;""><p>What type of rock is this?</p>","2","class_response","0","test","47","Diorite","Pumice","05","false","3","8","",""
"","","","","","","","","","","","html-keyboard-response","100","2.0.0","188590","617452347986aeaf4d2e5278","1","1","null","","","","","","","","","<p style='font-size: 30px;'><strong>Okay</strong></p>","null","neutral_feedback","0","test","47","","","","","","","",""
"","","","","","","","","","","","html-button-response","101","2.0.0","190633","617452347986aeaf4d2e5278","1","1","2042","","","","","","","","","<img src= ""rock_img/I_Gabbro_12.jpg"" style=""width:8cm; height:7.800000000000001cm;""><p>What type of rock is this?</p>","1","class_response","0","test","48","Basalt","Gabbro","12","false","2","4","",""
"","","","","","","","","","","","html-keyboard-response","102","2.0.0","191135","617452347986aeaf4d2e5278","1","1","null","","","","","","","","","<p style='font-size: 30px;'><strong>Okay</strong></p>","null","neutral_feedback","0","test","48","","","","","","","",""
"","","","","","","","","","","","instructions","103","2.0.0","196069","617452347986aeaf4d2e5278","1","1","4902","","","","","","","","[{""page_index"":0,""viewing_time"":1784},{""page_index"":1,""viewing_time"":1909},{""page_index"":2,""viewing_time"":1209}]","","","","","","","","","","","","","",""
"","","","","","","","","","","","html-button-response","104","2.0.0","197180","617452347986aeaf4d2e5278","1","1","1110","","","","","","","","","","0","start_train","","","","","","","","","","",""
"","","","","","","","","","","","html-button-response","105","2.0.0","199248","617452347986aeaf4d2e5278","1","1","2064","","","","","","","","","<img src= ""rock_img/I_Pumice_15.jpg"" style=""width:8cm; height:7.86cm;""><p>What type of rock is this?</p>","2","class_response","1","train","1","Diorite","Pumice","15","false","3","8","",""
"","","","","","","","","","","","html-button-response","106","2.0.0","200461","617452347986aeaf4d2e5278","1","1","1211","","","","","","","","","<img src= rock_img/I_Pumice_15.jpg style=""width:8cm; height:7.86cm;""><p style='font-size: 30px; color: red;'><strong>Incorrect!</strong></p><p style='font-size: 30px;'><strong>This rock is pumice</strong></p>","0","corr_feedback","1","train","1","","","","","","","",""
"","","","","","","","","","","","html-button-response","107","2.0.0","201831","617452347986aeaf4d2e5278","1","1","1368","","","","","","","","","<img src= ""rock_img/I_Pegmatite_09.jpg"" style=""width:8cm; height:4.03cm;""><p>What type of rock is this?</p>","3","class_response","1","train","2","Gabbro","Pegmatite","09","false","4","6","",""
"","","","","","","","","","","","html-button-response","108","2.0.0","202729","617452347986aeaf4d2e5278","1","1","897","","","","","","","","","<img src= rock_img/I_Pegmatite_09.jpg style=""width:8cm; height:4.03cm;""><p style='font-size: 30px; color: red;'><strong>Incorrect!</strong></p><p style='font-size: 30px;'><strong>This rock is pegmatite</strong></p>","0","corr_feedback","1","train","2","","","","","","","",""
"","","","","","","","","","","","html-button-response","109","2.0.0","203695","617452347986aeaf4d2e5278","1","1","964","","","","","","","","","<img src= ""rock_img/I_Obsidian_14.jpg"" style=""width:8cm; height:7.64cm;""><p>What type of rock is this?</p>","4","class_response","1","train","3","Obsidian","Obsidian","14","true","5","5","",""
"","","","","","","","","","","","html-button-response","110","2.0.0","204416","617452347986aeaf4d2e5278","1","1","719","","","","","","","","","<img src= rock_img/I_Obsidian_14.jpg style=""width:8cm; height:7.64cm;""><p style='font-size: 30px; color: green;'><strong>Correct!</strong></p><p style='font-size: 30px;'><strong>This rock is obsidian</strong></p>","0","corr_feedback","1","train","3","","","","","","","",""
"","","","","","","","","","","","html-button-response","111","2.0.0","205440","617452347986aeaf4d2e5278","1","1","1022","","","","","","","","","<img src= ""rock_img/I_Obsidian_09.jpg"" style=""width:8cm; height:5cm;""><p>What type of rock is this?</p>","4","class_response","1","train","4","Obsidian","Obsidian","09","true","5","5","",""
"","","","","","","","","","","","html-button-response","112","2.0.0","206106","617452347986aeaf4d2e5278","1","1","664","","","","","","","","","<img src= rock_img/I_Obsidian_09.jpg style=""width:8cm; height:5cm;""><p style='font-size: 30px; color: green;'><strong>Correct!</strong></p><p style='font-size: 30px;'><strong>This rock is obsidian</strong></p>","0","corr_feedback","1","train","4","","","","","","","",""
"","","","","","","","","","","","html-button-response","113","2.0.0","208045","617452347986aeaf4d2e5278","1","1","1937","","","","","","","","","<img src= ""rock_img/I_Pegmatite_07.jpg"" style=""width:8cm; height:6.7cm;""><p>What type of rock is this?</p>","5","class_response","1","train","5","Pegmatite","Pegmatite","07","true","6","6","",""
"","","","","","","","","","","","html-button-response","114","2.0.0","208821","617452347986aeaf4d2e5278","1","1","774","","","","","","","","","<img src= rock_img/I_Pegmatite_07.jpg style=""width:8cm; height:6.7cm;""><p style='font-size: 30px; color: green;'><strong>Correct!</strong></p><p style='font-size: 30px;'><strong>This rock is pegmatite</strong></p>","0","corr_feedback","1","train","5","","","","","","","",""
"","","","","","","","","","","","html-button-response","115","2.0.0","210066","617452347986aeaf4d2e5278","1","1","1244","","","","","","","","","<img src= ""rock_img/I_Gabbro_11.jpg"" style=""width:8cm; height:6.2cm;""><p>What type of rock is this?</p>","2","class_response","1","train","6","Diorite","Gabbro","11","false","3","4","",""
"","","","","","","","","","","","html-button-response","116","2.0.0","210800","617452347986aeaf4d2e5278","1","1","731","","","","","","","","","<img src= rock_img/I_Gabbro_11.jpg style=""width:8cm; height:6.2cm;""><p style='font-size: 30px; color: red;'><strong>Incorrect!</strong></p><p style='font-size: 30px;'><strong>This rock is gabbro</strong></p>","0","corr_feedback","1","train","6","","","","","","","",""
"","","","","","","","","","","","html-button-response","117","2.0.0","211654","617452347986aeaf4d2e5278","1","1","852","","","","","","","","","<img src= ""rock_img/I_Diorite_12.jpg"" style=""width:8cm; height:4.88cm;""><p>What type of rock is this?</p>","2","class_response","1","train","7","Diorite","Diorite","12","true","3","3","",""
"","","","","","","","","","","","html-button-response","118","2.0.0","212272","617452347986aeaf4d2e5278","1","1","617","","","","","","","","","<img src= rock_img/I_Diorite_12.jpg style=""width:8cm; height:4.88cm;""><p style='font-size: 30px; color: green;'><strong>Correct!</strong></p><p style='font-size: 30px;'><strong>This rock is diorite</strong></p>","0","corr_feedback","1","train","7","","","","","","","",""
"","","","","","","","","","","","html-button-response","119","2.0.0","213127","617452347986aeaf4d2e5278","1","1","854","","","","","","","","","<img src= ""rock_img/I_Andesite_02.jpg"" style=""width:8cm; height:8.5cm;""><p>What type of rock is this?</p>","3","class_response","1","train","8","Gabbro","Andesite","02","false","4","1","",""
"","","","","","","","","","","","html-button-response","120","2.0.0","213875","617452347986aeaf4d2e5278","1","1","747","","","","","","","","","<img src= rock_img/I_Andesite_02.jpg style=""width:8cm; height:8.5cm;""><p style='font-size: 30px; color: red;'><strong>Incorrect!</strong></p><p style='font-size: 30px;'><strong>This rock is andesite</strong></p>","0","corr_feedback","1","train","8","","","","","","","",""
"","","","","","","","","","","","html-button-response","121","2.0.0","215863","617452347986aeaf4d2e5278","1","1","1986","","","","","","","","","<img src= ""rock_img/I_Pegmatite_05.jpg"" style=""width:8cm; height:7.300000000000001cm;""><p>What type of rock is this?</p>","3","class_response","1","train","9","Gabbro","Pegmatite","05","false","4","6","",""
"","","","","","","","","","","","html-button-response","122","2.0.0","216543","617452347986aeaf4d2e5278","1","1","678","","","","","","","","","<img src= rock_img/I_Pegmatite_05.jpg style=""width:8cm; height:7.300000000000001cm;""><p style='font-size: 30px; color: red;'><strong>Incorrect!</strong></p><p style='font-size: 30px;'><strong>This rock is pegmatite</strong></p>","0","corr_feedback","1","train","9","","","","","","","",""
"","","","","","","","","","","","html-button-response","123","2.0.0","217646","617452347986aeaf4d2e5278","1","1","1102","","","","","","","","","<img src= ""rock_img/I_Pegmatite_11.jpg"" style=""width:8cm; height:8.14cm;""><p>What type of rock is this?</p>","5","class_response","1","train","10","Pegmatite","Pegmatite","11","true","6","6","",""
"","","","","","","","","","","","html-button-response","124","2.0.0","218292","617452347986aeaf4d2e5278","1","1","644","","","","","","","","","<img src= rock_img/I_Pegmatite_11.jpg style=""width:8cm; height:8.14cm;""><p style='font-size: 30px; color: green;'><strong>Correct!</strong></p><p style='font-size: 30px;'><strong>This rock is pegmatite</strong></p>","0","corr_feedback","1","train","10","","","","","","","",""
"","","","","","","","","","","","html-button-response","125","2.0.0","219433","617452347986aeaf4d2e5278","1","1","1141","","","","","","","","","<img src= ""rock_img/I_Gabbro_03.jpg"" style=""width:8cm; height:8.52cm;""><p>What type of rock is this?</p>","1","class_response","1","train","11","Basalt","Gabbro","03","false","2","4","",""
"","","","","","","","","","","","html-button-response","126","2.0.0","220226","617452347986aeaf4d2e5278","1","1","790","","","","","","","","","<img src= rock_img/I_Gabbro_03.jpg style=""width:8cm; height:8.52cm;""><p style='font-size: 30px; color: red;'><strong>Incorrect!</strong></p><p style='font-size: 30px;'><strong>This rock is gabbro</strong></p>","0","corr_feedback","1","train","11","","","","","","","",""
"","","","","","","","","","","","html-button-response","127","2.0.0","222059","617452347986aeaf4d2e5278","1","1","1831","","","","","","","","","<img src= ""rock_img/I_Gabbro_14.jpg"" style=""width:8cm; height:8.48cm;""><p>What type of rock is this?</p>","6","class_response","1","train","12","Peridotite","Gabbro","14","false","7","4","",""
"","","","","","","","","","","","html-button-response","128","2.0.0","222769","617452347986aeaf4d2e5278","1","1","709","","","","","","","","","<img src= rock_img/I_Gabbro_14.jpg style=""width:8cm; height:8.48cm;""><p style='font-size: 30px; color: red;'><strong>Incorrect!</strong></p><p style='font-size: 30px;'><strong>This rock is gabbro</strong></p>","0","corr_feedback","1","train","12","","","","","","","",""
"","","","","","","","","","","","html-button-response","129","2.0.0","223734","617452347986aeaf4d2e5278","1","1","964","","","","","","","","","<img src= ""rock_img/I_Diorite_14.jpg"" style=""width:8cm; height:5.71cm;""><p>What type of rock is this?</p>","2","class_response","1","train","13","Diorite","Diorite","14","true","3","3","",""
"","","","","","","","","","","","html-button-response","130","2.0.0","224289","617452347986aeaf4d2e5278","1","1","552","","","","","","","","","<img src= rock_img/I_Diorite_14.jpg style=""width:8cm; height:5.71cm;""><p style='font-size: 30px; color: green;'><strong>Correct!</strong></p><p style='font-size: 30px;'><strong>This rock is diorite</strong></p>","0","corr_feedback","1","train","13","","","","","","","",""
"","","","","","","","","","","","html-button-response","131","2.0.0","226541","617452347986aeaf4d2e5278","1","1","2251","","","","","","","","","<img src= ""rock_img/I_Pumice_16.jpg"" style=""width:8cm; height:6.79cm;""><p>What type of rock is this?</p>","0","class_response","1","train","14","Andesite","Pumice","16","false","1","8","",""
"","","","","","","","","","","","html-button-response","132","2.0.0","227204","617452347986aeaf4d2e5278","1","1","662","","","","","","","","","<img src= rock_img/I_Pumice_16.jpg style=""width:8cm; height:6.79cm;""><p style='font-size: 30px; color: red;'><strong>Incorrect!</strong></p><p style='font-size: 30px;'><strong>This rock is pumice</strong></p>","0","corr_feedback","1","train","14","","","","","","","",""
"","","","","","","","","","","","html-button-response","133","2.0.0","228388","617452347986aeaf4d2e5278","1","1","1183","","","","","","","","","<img src= ""rock_img/I_Diorite_16.jpg"" style=""width:8cm; height:6.74cm;""><p>What type of rock is this?</p>","3","class_response","1","train","15","Gabbro","Diorite","16","false","4","3","",""
"","","","","","","","","","","","html-button-response","134","2.0.0","229032","617452347986aeaf4d2e5278","1","1","641","","","","","","","","","<img src= rock_img/I_Diorite_16.jpg style=""width:8cm; height:6.74cm;""><p style='font-size: 30px; color: red;'><strong>Incorrect!</strong></p><p style='font-size: 30px;'><strong>This rock is diorite</strong></p>","0","corr_feedback","1","train","15","","","","","","","",""
"","","","","","","","","","","","html-button-response","135","2.0.0","229939","617452347986aeaf4d2e5278","1","1","905","","","","","","","","","<img src= ""rock_img/I_Obsidian_02.jpg"" style=""width:8cm; height:7.51cm;""><p>What type of rock is this?</p>","4","class_response","1","train","16","Obsidian","Obsidian","02","true","5","5","",""
"","","","","","","","","","","","html-button-response","136","2.0.0","230527","617452347986aeaf4d2e5278","1","1","586","","","","","","","","","<img src= rock_img/I_Obsidian_02.jpg style=""width:8cm; height:7.51cm;""><p style='font-size: 30px; color: green;'><strong>Correct!</strong></p><p style='font-size: 30px;'><strong>This rock is obsidian</strong></p>","0","corr_feedback","1","train","16","","","","","","","",""
"","","","","","","","","","","","html-button-response","137","2.0.0","231780","617452347986aeaf4d2e5278","1","1","1252","","","","","","","","","<img src= ""rock_img/I_Basalt_01.jpg"" style=""width:8cm; height:7.880000000000001cm;""><p>What type of rock is this?</p>","4","class_response","1","train","17","Obsidian","Basalt","01","false","5","2","",""
"","","","","","","","","","","","html-button-response","138","2.0.0","232406","617452347986aeaf4d2e5278","1","1","624","","","","","","","","","<img src= rock_img/I_Basalt_01.jpg style=""width:8cm; height:7.880000000000001cm;""><p style='font-size: 30px; color: red;'><strong>Incorrect!</strong></p><p style='font-size: 30px;'><strong>This rock is basalt</strong></p>","0","corr_feedback","1","train","17","","","","","","","",""
"","","","","","","","","","","","html-button-response","139","2.0.0","233751","617452347986aeaf4d2e5278","1","1","1344","","","","","","","","","<img src= ""rock_img/I_Andesite_14.jpg"" style=""width:8cm; height:5.449999999999999cm;""><p>What type of rock is this?</p>","2","class_response","1","train","18","Diorite","Andesite","14","false","3","1","",""
"","","","","","","","","","","","html-button-response","140","2.0.0","234421","617452347986aeaf4d2e5278","1","1","668","","","","","","","","","<img src= rock_img/I_Andesite_14.jpg style=""width:8cm; height:5.449999999999999cm;""><p style='font-size: 30px; color: red;'><strong>Incorrect!</strong></p><p style='font-size: 30px;'><strong>This rock is andesite</strong></p>","0","corr_feedback","1","train","18","","","","","","","",""
"","","","","","","","","","","","html-button-response","141","2.0.0","235404","617452347986aeaf4d2e5278","1","1","982","","","","","","","","","<img src= ""rock_img/I_Gabbro_08.jpg"" style=""width:8cm; height:5.15cm;""><p>What type of rock is this?</p>","0","class_response","1","train","19","Andesite","Gabbro","08","false","1","4","",""
"","","","","","","","","","","","html-button-response","142","2.0.0","236115","617452347986aeaf4d2e5278","1","1","709","","","","","","","","","<img src= rock_img/I_Gabbro_08.jpg style=""width:8cm; height:5.15cm;""><p style='font-size: 30px; color: red;'><strong>Incorrect!</strong></p><p style='font-size: 30px;'><strong>This rock is gabbro</strong></p>","0","corr_feedback","1","train","19","","","","","","","",""
"","","","","","","","","","","","html-button-response","143","2.0.0","237121","617452347986aeaf4d2e5278","1","1","1005","","","","","","","","","<img src= ""rock_img/I_Pumice_04.jpg"" style=""width:8cm; height:6.819999999999999cm;""><p>What type of rock is this?</p>","2","class_response","1","train","20","Diorite","Pumice","04","false","3","8","",""
"","","","","","","","","","","","html-button-response","144","2.0.0","237745","617452347986aeaf4d2e5278","1","1","622","","","","","","","","","<img src= rock_img/I_Pumice_04.jpg style=""width:8cm; height:6.819999999999999cm;""><p style='font-size: 30px; color: red;'><strong>Incorrect!</strong></p><p style='font-size: 30px;'><strong>This rock is pumice</strong></p>","0","corr_feedback","1","train","20","","","","","","","",""
"","","","","","","","","","","","html-button-response","145","2.0.0","240091","617452347986aeaf4d2e5278","1","1","2344","","","","","","","","","<img src= ""rock_img/I_Pegmatite_15.jpg"" style=""width:8cm; height:6cm;""><p>What type of rock is this?</p>","5","class_response","1","train","21","Pegmatite","Pegmatite","15","true","6","6","",""
"","","","","","","","","","","","html-button-response","146","2.0.0","240644","617452347986aeaf4d2e5278","1","1","552","","","","","","","","","<img src= rock_img/I_Pegmatite_15.jpg style=""width:8cm; height:6cm;""><p style='font-size: 30px; color: green;'><strong>Correct!</strong></p><p style='font-size: 30px;'><strong>This rock is pegmatite</strong></p>","0","corr_feedback","1","train","21","","","","","","","",""
"","","","","","","","","","","","html-button-response","147","2.0.0","242037","617452347986aeaf4d2e5278","1","1","1392","","","","","","","","","<img src= ""rock_img/I_Peridotite_08.jpg"" style=""width:8cm; height:6.7cm;""><p>What type of rock is this?</p>","6","class_response","1","train","22","Peridotite","Peridotite","08","true","7","7","",""
"","","","","","","","","","","","html-button-response","148","2.0.0","242603","617452347986aeaf4d2e5278","1","1","565","","","","","","","","","<img src= rock_img/I_Peridotite_08.jpg style=""width:8cm; height:6.7cm;""><p style='font-size: 30px; color: green;'><strong>Correct!</strong></p><p style='font-size: 30px;'><strong>This rock is peridotite</strong></p>","0","corr_feedback","1","train","22","","","","","","","",""
"","","","","","","","","","","","html-button-response","149","2.0.0","244448","617452347986aeaf4d2e5278","1","1","1843","","","","","","","","","<img src= ""rock_img/I_Basalt_05.jpg"" style=""width:8cm; height:8.18cm;""><p>What type of rock is this?</p>","3","class_response","1","train","23","Gabbro","Basalt","05","false","4","2","",""
"","","","","","","","","","","","html-button-response","150","2.0.0","245116","617452347986aeaf4d2e5278","1","1","667","","","","","","","","","<img src= rock_img/I_Basalt_05.jpg style=""width:8cm; height:8.18cm;""><p style='font-size: 30px; color: red;'><strong>Incorrect!</strong></p><p style='font-size: 30px;'><strong>This rock is basalt</strong></p>","0","corr_feedback","1","train","23","","","","","","","",""
"","","","","","","","","","","","html-button-response","151","2.0.0","246020","617452347986aeaf4d2e5278","1","1","902","","","","","","","","","<img src= ""rock_img/I_Diorite_07.jpg"" style=""width:8cm; height:5.239999999999999cm;""><p>What type of rock is this?</p>","2","class_response","1","train","24","Diorite","Diorite","07","true","3","3","",""
"","","","","","","","","","","","html-button-response","152","2.0.0","246537","617452347986aeaf4d2e5278","1","1","516","","","","","","","","","<img src= rock_img/I_Diorite_07.jpg style=""width:8cm; height:5.239999999999999cm;""><p style='font-size: 30px; color: green;'><strong>Correct!</strong></p><p style='font-size: 30px;'><strong>This rock is diorite</strong></p>","0","corr_feedback","1","train","24","","","","","","","",""
"","","","","","","","","","","","html-button-response","153","2.0.0","248215","617452347986aeaf4d2e5278","1","1","1675","","","","","","","","","<img src= ""rock_img/I_Pumice_06.jpg"" style=""width:8cm; height:6.9399999999999995cm;""><p>What type of rock is this?</p>","0","class_response","1","train","25","Andesite","Pumice","06","false","1","8","",""
"","","","","","","","","","","","html-button-response","154","2.0.0","248740","617452347986aeaf4d2e5278","1","1","525","","","","","","","","","<img src= rock_img/I_Pumice_06.jpg style=""width:8cm; height:6.9399999999999995cm;""><p style='font-size: 30px; color: red;'><strong>Incorrect!</strong></p><p style='font-size: 30px;'><strong>This rock is pumice</strong></p>","0","corr_feedback","1","train","25","","","","","","","",""
"","","","","","","","","","","","html-button-response","155","2.0.0","249698","617452347986aeaf4d2e5278","1","1","957","","","","","","","","","<img src= ""rock_img/I_Diorite_13.jpg"" style=""width:8cm; height:6.29cm;""><p>What type of rock is this?</p>","7","class_response","1","train","26","Pumice","Diorite","13","false","8","3","",""
"","","","","","","","","","","","html-button-response","156","2.0.0","250279","617452347986aeaf4d2e5278","1","1","580","","","","","","","","","<img src= rock_img/I_Diorite_13.jpg style=""width:8cm; height:6.29cm;""><p style='font-size: 30px; color: red;'><strong>Incorrect!</strong></p><p style='font-size: 30px;'><strong>This rock is diorite</strong></p>","0","corr_feedback","1","train","26","","","","","","","",""
"","","","","","","","","","","","html-button-response","157","2.0.0","251965","617452347986aeaf4d2e5278","1","1","1684","","","","","","","","","<img src= ""rock_img/I_Obsidian_05.jpg"" style=""width:8cm; height:6.33cm;""><p>What type of rock is this?</p>","4","class_response","1","train","27","Obsidian","Obsidian","05","true","5","5","",""
"","","","","","","","","","","","html-button-response","158","2.0.0","252568","617452347986aeaf4d2e5278","1","1","604","","","","","","","","","<img src= rock_img/I_Obsidian_05.jpg style=""width:8cm; height:6.33cm;""><p style='font-size: 30px; color: green;'><strong>Correct!</strong></p><p style='font-size: 30px;'><strong>This rock is obsidian</strong></p>","0","corr_feedback","1","train","27","","","","","","","",""
"","","","","","","","","","","","html-button-response","159","2.0.0","253754","617452347986aeaf4d2e5278","1","1","1184","","","","","","","","","<img src= ""rock_img/I_Andesite_06.jpg"" style=""width:8cm; height:6.840000000000001cm;""><p>What type of rock is this?</p>","1","class_response","1","train","28","Basalt","Andesite","06","false","2","1","",""
"","","","","","","","","","","","html-button-response","160","2.0.0","254409","617452347986aeaf4d2e5278","1","1","653","","","","","","","","","<img src= rock_img/I_Andesite_06.jpg style=""width:8cm; height:6.840000000000001cm;""><p style='font-size: 30px; color: red;'><strong>Incorrect!</strong></p><p style='font-size: 30px;'><strong>This rock is andesite</strong></p>","0","corr_feedback","1","train","28","","","","","","","",""
"","","","","","","","","","","","html-button-response","161","2.0.0","255219","617452347986aeaf4d2e5278","1","1","809","","","","","","","","","<img src= ""rock_img/I_Andesite_10.jpg"" style=""width:8cm; height:4.16cm;""><p>What type of rock is this?</p>","0","class_response","1","train","29","Andesite","Andesite","10","true","1","1","",""
"","","","","","","","","","","","html-button-response","162","2.0.0","255768","617452347986aeaf4d2e5278","1","1","546","","","","","","","","","<img src= rock_img/I_Andesite_10.jpg style=""width:8cm; height:4.16cm;""><p style='font-size: 30px; color: green;'><strong>Correct!</strong></p><p style='font-size: 30px;'><strong>This rock is andesite</strong></p>","0","corr_feedback","1","train","29","","","","","","","",""
"","","","","","","","","","","","html-button-response","163","2.0.0","258134","617452347986aeaf4d2e5278","1","1","2365","","","","","","","","","<img src= ""rock_img/I_Gabbro_05.jpg"" style=""width:8cm; height:6cm;""><p>What type of rock is this?</p>","3","class_response","1","train","30","Gabbro","Gabbro","05","true","4","4","",""
"","","","","","","","","","","","html-button-response","164","2.0.0","258732","617452347986aeaf4d2e5278","1","1","596","","","","","","","","","<img src= rock_img/I_Gabbro_05.jpg style=""width:8cm; height:6cm;""><p style='font-size: 30px; color: green;'><strong>Correct!</strong></p><p style='font-size: 30px;'><strong>This rock is gabbro</strong></p>","0","corr_feedback","1","train","30","","","","","","","",""
"","","","","","","","","","","","html-button-response","165","2.0.0","259641","617452347986aeaf4d2e5278","1","1","908","","","","","","","","","<img src= ""rock_img/I_Obsidian_04.jpg"" style=""width:8cm; height:6.930000000000001cm;""><p>What type of rock is this?</p>","4","class_response","1","train","31","Obsidian","Obsidian","04","true","5","5","",""
"","","","","","","","","","","","html-button-response","166","2.0.0","260309","617452347986aeaf4d2e5278","1","1","668","","","","","","","","","<img src= rock_img/I_Obsidian_04.jpg style=""width:8cm; height:6.930000000000001cm;""><p style='font-size: 30px; color: green;'><strong>Correct!</strong></p><p style='font-size: 30px;'><strong>This rock is obsidian</strong></p>","0","corr_feedback","1","train","31","","","","","","","",""
"","","","","","","","","","","","html-button-response","167","2.0.0","261900","617452347986aeaf4d2e5278","1","1","1590","","","","","","","","","<img src= ""rock_img/I_Andesite_16.jpg"" style=""width:8cm; height:6.010000000000001cm;""><p>What type of rock is this?</p>","0","class_response","1","train","32","Andesite","Andesite","16","true","1","1","",""
"","","","","","","","","","","","html-button-response","168","2.0.0","262465","617452347986aeaf4d2e5278","1","1","564","","","","","","","","","<img src= rock_img/I_Andesite_16.jpg style=""width:8cm; height:6.010000000000001cm;""><p style='font-size: 30px; color: green;'><strong>Correct!</strong></p><p style='font-size: 30px;'><strong>This rock is andesite</strong></p>","0","corr_feedback","1","train","32","","","","","","","",""
"","","","","","","","","","","","html-button-response","169","2.0.0","263296","617452347986aeaf4d2e5278","1","1","828","","","","","","","","","<img src= ""rock_img/I_Gabbro_01.jpg"" style=""width:8cm; height:5.21cm;""><p>What type of rock is this?</p>","0","class_response","1","train","33","Andesite","Gabbro","01","false","1","4","",""
"","","","","","","","","","","","html-button-response","170","2.0.0","263845","617452347986aeaf4d2e5278","1","1","547","","","","","","","","","<img src= rock_img/I_Gabbro_01.jpg style=""width:8cm; height:5.21cm;""><p style='font-size: 30px; color: red;'><strong>Incorrect!</strong></p><p style='font-size: 30px;'><strong>This rock is gabbro</strong></p>","0","corr_feedback","1","train","33","","","","","","","",""
"","","","","","","","","","","","html-button-response","171","2.0.0","265504","617452347986aeaf4d2e5278","1","1","1658","","","","","","","","","<img src= ""rock_img/I_Basalt_02.jpg"" style=""width:8cm; height:6.45cm;""><p>What type of rock is this?</p>","7","class_response","1","train","34","Pumice","Basalt","02","false","8","2","",""
"","","","","","","","","","","","html-button-response","172","2.0.0","266124","617452347986aeaf4d2e5278","1","1","619","","","","","","","","","<img src= rock_img/I_Basalt_02.jpg style=""width:8cm; height:6.45cm;""><p style='font-size: 30px; color: red;'><strong>Incorrect!</strong></p><p style='font-size: 30px;'><strong>This rock is basalt</strong></p>","0","corr_feedback","1","train","34","","","","","","","",""
"","","","","","","","","","","","html-button-response","173","2.0.0","267090","617452347986aeaf4d2e5278","1","1","963","","","","","","","","","<img src= ""rock_img/I_Andesite_04.jpg"" style=""width:8cm; height:5.96cm;""><p>What type of rock is this?</p>","2","class_response","1","train","35","Diorite","Andesite","04","false","3","1","",""
"","","","","","","","","","","","html-button-response","174","2.0.0","267568","617452347986aeaf4d2e5278","1","1","475","","","","","","","","","<img src= rock_img/I_Andesite_04.jpg style=""width:8cm; height:5.96cm;""><p style='font-size: 30px; color: red;'><strong>Incorrect!</strong></p><p style='font-size: 30px;'><strong>This rock is andesite</strong></p>","0","corr_feedback","1","train","35","","","","","","","",""
"","","","","","","","","","","","html-button-response","175","2.0.0","269417","617452347986aeaf4d2e5278","1","1","1848","","","","","","","","","<img src= ""rock_img/I_Peridotite_16.jpg"" style=""width:8cm; height:6.989999999999999cm;""><p>What type of rock is this?</p>","3","class_response","1","train","36","Gabbro","Peridotite","16","false","4","7","",""
"","","","","","","","","","","","html-button-response","176","2.0.0","270018","617452347986aeaf4d2e5278","1","1","600","","","","","","","","","<img src= rock_img/I_Peridotite_16.jpg style=""width:8cm; height:6.989999999999999cm;""><p style='font-size: 30px; color: red;'><strong>Incorrect!</strong></p><p style='font-size: 30px;'><strong>This rock is peridotite</strong></p>","0","corr_feedback","1","train","36","","","","","","","",""
"","","","","","","","","","","","html-button-response","177","2.0.0","271824","617452347986aeaf4d2e5278","1","1","1805","","","","","","","","","<img src= ""rock_img/I_Basalt_06.jpg"" style=""width:8cm; height:7.06cm;""><p>What type of rock is this?</p>","1","class_response","1","train","37","Basalt","Basalt","06","true","2","2","",""
"","","","","","","","","","","","html-button-response","178","2.0.0","272345","617452347986aeaf4d2e5278","1","1","521","","","","","","","","","<img src= rock_img/I_Basalt_06.jpg style=""width:8cm; height:7.06cm;""><p style='font-size: 30px; color: green;'><strong>Correct!</strong></p><p style='font-size: 30px;'><strong>This rock is basalt</strong></p>","0","corr_feedback","1","train","37","","","","","","","",""
"","","","","","","","","","","","html-button-response","179","2.0.0","273845","617452347986aeaf4d2e5278","1","1","1498","","","","","","","","","<img src= ""rock_img/I_Peridotite_06.jpg"" style=""width:8cm; height:7.53cm;""><p>What type of rock is this?</p>","6","class_response","1","train","38","Peridotite","Peridotite","06","true","7","7","",""
"","","","","","","","","","","","html-button-response","180","2.0.0","274352","617452347986aeaf4d2e5278","1","1","505","","","","","","","","","<img src= rock_img/I_Peridotite_06.jpg style=""width:8cm; height:7.53cm;""><p style='font-size: 30px; color: green;'><strong>Correct!</strong></p><p style='font-size: 30px;'><strong>This rock is peridotite</strong></p>","0","corr_feedback","1","train","38","","","","","","","",""
"","","","","","","","","","","","html-button-response","181","2.0.0","275284","617452347986aeaf4d2e5278","1","1","931","","","","","","","","","<img src= ""rock_img/I_Obsidian_10.jpg"" style=""width:8cm; height:6.260000000000001cm;""><p>What type of rock is this?</p>","4","class_response","1","train","39","Obsidian","Obsidian","10","true","5","5","",""
"","","","","","","","","","","","html-button-response","182","2.0.0","275794","617452347986aeaf4d2e5278","1","1","508","","","","","","","","","<img src= rock_img/I_Obsidian_10.jpg style=""width:8cm; height:6.260000000000001cm;""><p style='font-size: 30px; color: green;'><strong>Correct!</strong></p><p style='font-size: 30px;'><strong>This rock is obsidian</strong></p>","0","corr_feedback","1","train","39","","","","","","","",""
"","","","","","","","","","","","html-button-response","183","2.0.0","277172","617452347986aeaf4d2e5278","1","1","1375","","","","","","","","","<img src= ""rock_img/I_Pumice_02.jpg"" style=""width:8cm; height:7.3999999999999995cm;""><p>What type of rock is this?</p>","0","class_response","1","train","40","Andesite","Pumice","02","false","1","8","",""
"","","","","","","","","","","","html-button-response","184","2.0.0","277814","617452347986aeaf4d2e5278","1","1","641","","","","","","","","","<img src= rock_img/I_Pumice_02.jpg style=""width:8cm; height:7.3999999999999995cm;""><p style='font-size: 30px; color: red;'><strong>Incorrect!</strong></p><p style='font-size: 30px;'><strong>This rock is pumice</strong></p>","0","corr_feedback","1","train","40","","","","","","","",""
"","","","","","","","","","","","html-button-response","185","2.0.0","278656","617452347986aeaf4d2e5278","1","1","840","","","","","","","","","<img src= ""rock_img/I_Diorite_08.jpg"" style=""width:8cm; height:6.37cm;""><p>What type of rock is this?</p>","7","class_response","1","train","41","Pumice","Diorite","08","false","8","3","",""
"","","","","","","","","","","","html-button-response","186","2.0.0","279197","617452347986aeaf4d2e5278","1","1","540","","","","","","","","","<img src= rock_img/I_Diorite_08.jpg style=""width:8cm; height:6.37cm;""><p style='font-size: 30px; color: red;'><strong>Incorrect!</strong></p><p style='font-size: 30px;'><strong>This rock is diorite</strong></p>","0","corr_feedback","1","train","41","","","","","","","",""
"","","","","","","","","","","","html-button-response","187","2.0.0","280528","617452347986aeaf4d2e5278","1","1","1329","","","","","","","","","<img src= ""rock_img/I_Basalt_16.jpg"" style=""width:8cm; height:7.659999999999999cm;""><p>What type of rock is this?</p>","0","class_response","1","train","42","Andesite","Basalt","16","false","1","2","",""
"","","","","","","","","","","","html-button-response","188","2.0.0","281195","617452347986aeaf4d2e5278","1","1","664","","","","","","","","","<img src= rock_img/I_Basalt_16.jpg style=""width:8cm; height:7.659999999999999cm;""><p style='font-size: 30px; color: red;'><strong>Incorrect!</strong></p><p style='font-size: 30px;'><strong>This rock is basalt</strong></p>","0","corr_feedback","1","train","42","","","","","","","",""
"","","","","","","","","","","","html-button-response","189","2.0.0","282340","617452347986aeaf4d2e5278","1","1","1144","","","","","","","","","<img src= ""rock_img/I_Pumice_03.jpg"" style=""width:8cm; height:6.64cm;""><p>What type of rock is this?</p>","2","class_response","1","train","43","Diorite","Pumice","03","false","3","8","",""
"","","","","","","","","","","","html-button-response","190","2.0.0","282856","617452347986aeaf4d2e5278","1","1","513","","","","","","","","","<img src= rock_img/I_Pumice_03.jpg style=""width:8cm; height:6.64cm;""><p style='font-size: 30px; color: red;'><strong>Incorrect!</strong></p><p style='font-size: 30px;'><strong>This rock is pumice</strong></p>","0","corr_feedback","1","train","43","","","","","","","",""
"","","","","","","","","","","","html-button-response","191","2.0.0","283866","617452347986aeaf4d2e5278","1","1","1008","","","","","","","","","<img src= ""rock_img/I_Peridotite_05.jpg"" style=""width:8cm; height:7.1499999999999995cm;""><p>What type of rock is this?</p>","7","class_response","1","train","44","Pumice","Peridotite","05","false","8","7","",""
"","","","","","","","","","","","html-button-response","192","2.0.0","284412","617452347986aeaf4d2e5278","1","1","545","","","","","","","","","<img src= rock_img/I_Peridotite_05.jpg style=""width:8cm; height:7.1499999999999995cm;""><p style='font-size: 30px; color: red;'><strong>Incorrect!</strong></p><p style='font-size: 30px;'><strong>This rock is peridotite</strong></p>","0","corr_feedback","1","train","44","","","","","","","",""
"","","","","","","","","","","","html-button-response","193","2.0.0","285617","617452347986aeaf4d2e5278","1","1","1203","","","","","","","","","<img src= ""rock_img/I_Peridotite_12.jpg"" style=""width:8cm; height:4.54cm;""><p>What type of rock is this?</p>","6","class_response","1","train","45","Peridotite","Peridotite","12","true","7","7","",""
"","","","","","","","","","","","html-button-response","194","2.0.0","286182","617452347986aeaf4d2e5278","1","1","565","","","","","","","","","<img src= rock_img/I_Peridotite_12.jpg style=""width:8cm; height:4.54cm;""><p style='font-size: 30px; color: green;'><strong>Correct!</strong></p><p style='font-size: 30px;'><strong>This rock is peridotite</strong></p>","0","corr_feedback","1","train","45","","","","","","","",""
"","","","","","","","","","","","html-button-response","195","2.0.0","287957","617452347986aeaf4d2e5278","1","1","1774","","","","","","","","","<img src= ""rock_img/I_Pegmatite_13.jpg"" style=""width:8cm; height:4.95cm;""><p>What type of rock is this?</p>","3","class_response","1","train","46","Gabbro","Pegmatite","13","false","4","6","",""
"","","","","","","","","","","","html-button-response","196","2.0.0","288541","617452347986aeaf4d2e5278","1","1","581","","","","","","","","","<img src= rock_img/I_Pegmatite_13.jpg style=""width:8cm; height:4.95cm;""><p style='font-size: 30px; color: red;'><strong>Incorrect!</strong></p><p style='font-size: 30px;'><strong>This rock is pegmatite</strong></p>","0","corr_feedback","1","train","46","","","","","","","",""
"","","","","","","","","","","","html-button-response","197","2.0.0","290507","617452347986aeaf4d2e5278","1","1","1964","","","","","","","","","<img src= ""rock_img/I_Basalt_04.jpg"" style=""width:8cm; height:7.53cm;""><p>What type of rock is this?</p>","3","class_response","1","train","47","Gabbro","Basalt","04","false","4","2","",""
"","","","","","","","","","","","html-button-response","198","2.0.0","291121","617452347986aeaf4d2e5278","1","1","610","","","","","","","","","<img src= rock_img/I_Basalt_04.jpg style=""width:8cm; height:7.53cm;""><p style='font-size: 30px; color: red;'><strong>Incorrect!</strong></p><p style='font-size: 30px;'><strong>This rock is basalt</strong></p>","0","corr_feedback","1","train","47","","","","","","","",""
"","","","","","","","","","","","html-button-response","199","2.0.0","292248","617452347986aeaf4d2e5278","1","1","1126","","","","","","","","","<img src= ""rock_img/I_Peridotite_02.jpg"" style=""width:8cm; height:5.859999999999999cm;""><p>What type of rock is this?</p>","5","class_response","1","train","48","Pegmatite","Peridotite","02","false","6","7","",""
"","","","","","","","","","","","html-button-response","200","2.0.0","292783","617452347986aeaf4d2e5278","1","1","534","","","","","","","","","<img src= rock_img/I_Peridotite_02.jpg style=""width:8cm; height:5.859999999999999cm;""><p style='font-size: 30px; color: red;'><strong>Incorrect!</strong></p><p style='font-size: 30px;'><strong>This rock is peridotite</strong></p>","0","corr_feedback","1","train","48","","","","","","","",""
"","","","","","","","","","","","instructions","203","2.0.0","299959","617452347986aeaf4d2e5278","1","1","7175","","","","","","","","[{""page_index"":0,""viewing_time"":1001},{""page_index"":1,""viewing_time"":6174}]","","","","","","","","","","","","","",""
"","","","","","","","","","","","html-button-response","204","2.0.0","300781","617452347986aeaf4d2e5278","1","1","820","","","","","","","","","","0","start_test","","","","","","","","","","",""
"","","","","","","","","","","","html-button-response","205","2.0.0","301964","617452347986aeaf4d2e5278","1","1","1182","","","","","","","","","<img src= ""rock_img/I_Diorite_11.jpg"" style=""width:8cm; height:7.11cm;""><p>What type of rock is this?</p>","2","class_response","1","test","1","Diorite","Diorite","11","true","3","3","",""
"","","","","","","","","","","","html-keyboard-response","206","2.0.0","302483","617452347986aeaf4d2e5278","1","1","null","","","","","","","","","<p style='font-size: 30px;'><strong>Okay</strong></p>","null","neutral_feedback","1","test","1","","","","","","","",""
"","","","","","","","","","","","html-button-response","207","2.0.0","304466","617452347986aeaf4d2e5278","1","1","1982","","","","","","","","","<img src= ""rock_img/I_Diorite_15.jpg"" style=""width:8cm; height:5.54cm;""><p>What type of rock is this?</p>","3","class_response","1","test","2","Gabbro","Diorite","15","false","4","3","",""
"","","","","","","","","","","","html-keyboard-response","208","2.0.0","304978","617452347986aeaf4d2e5278","1","1","null","","","","","","","","","<p style='font-size: 30px;'><strong>Okay</strong></p>","null","neutral_feedback","1","test","2","","","","","","","",""
"","","","","","","","","","","","html-button-response","209","2.0.0","306291","617452347986aeaf4d2e5278","1","1","1312","","","","","","","","","<img src= ""rock_img/I_Pegmatite_03.jpg"" style=""width:8cm; height:5.239999999999999cm;""><p>What type of rock is this?</p>","3","class_response","1","test","3","Gabbro","Pegmatite","03","false","4","6","",""
"","","","","","","","","","","","html-keyboard-response","210","2.0.0","306807","617452347986aeaf4d2e5278","1","1","null","","","","","","","","","<p style='font-size: 30px;'><strong>Okay</strong></p>","null","neutral_feedback","1","test","3","","","","","","","",""
"","","","","","","","","","","","html-button-response","211","2.0.0","310630","617452347986aeaf4d2e5278","1","1","3822","","","","","","","","","<img src= ""rock_img/I_Andesite_11.jpg"" style=""width:8cm; height:4.92cm;""><p>What type of rock is this?</p>","0","class_response","1","test","4","Andesite","Andesite","11","true","1","1","",""
"","","","","","","","","","","","html-keyboard-response","212","2.0.0","311141","617452347986aeaf4d2e5278","1","1","null","","","","","","","","","<p style='font-size: 30px;'><strong>Okay</strong></p>","null","neutral_feedback","1","test","4","","","","","","","",""
"","","","","","","","","","","","html-button-response","213","2.0.0","312647","617452347986aeaf4d2e5278","1","1","1504","","","","","","","","","<img src= ""rock_img/I_Pumice_10.jpg"" style=""width:8cm; height:7.609999999999999cm;""><p>What type of rock is this?</p>","7","class_response","1","test","5","Pumice","Pumice","10","true","8","8","",""
"","","","","","","","","","","","html-keyboard-response","214","2.0.0","313164","617452347986aeaf4d2e5278","1","1","null","","","","","","","","","<p style='font-size: 30px;'><strong>Okay</strong></p>","null","neutral_feedback","1","test","5","","","","","","","",""
"","","","","","","","","","","","html-button-response","215","2.0.0","314615","617452347986aeaf4d2e5278","1","1","1449","","","","","","","","","<img src= ""rock_img/I_Gabbro_12.jpg"" style=""width:8cm; height:7.800000000000001cm;""><p>What type of rock is this?</p>","1","class_response","1","test","6","Basalt","Gabbro","12","false","2","4","",""
"","","","","","","","","","","","html-keyboard-response","216","2.0.0","315117","617452347986aeaf4d2e5278","1","1","null","","","","","","","","","<p style='font-size: 30px;'><strong>Okay</strong></p>","null","neutral_feedback","1","test","6","","","","","","","",""
"","","","","","","","","","","","html-button-response","217","2.0.0","316574","617452347986aeaf4d2e5278","1","1","1456","","","","","","","","","<img src= ""rock_img/I_Andesite_07.jpg"" style=""width:8cm; height:5.93cm;""><p>What type of rock is this?</p>","1","class_response","1","test","7","Basalt","Andesite","07","false","2","1","",""
"","","","","","","","","","","","html-keyboard-response","218","2.0.0","317080","617452347986aeaf4d2e5278","1","1","null","","","","","","","","","<p style='font-size: 30px;'><strong>Okay</strong></p>","null","neutral_feedback","1","test","7","","","","","","","",""
"","","","","","","","","","","","html-button-response","219","2.0.0","318915","617452347986aeaf4d2e5278","1","1","1833","","","","","","","","","<img src= ""rock_img/I_Pegmatite_10.jpg"" style=""width:8cm; height:4.16cm;""><p>What type of rock is this?</p>","6","class_response","1","test","8","Peridotite","Pegmatite","10","false","7","6","",""
"","","","","","","","","","","","html-keyboard-response","220","2.0.0","319426","617452347986aeaf4d2e5278","1","1","null","","","","","","","","","<p style='font-size: 30px;'><strong>Okay</strong></p>","null","neutral_feedback","1","test","8","","","","","","","",""
"","","","","","","","","","","","html-button-response","221","2.0.0","320792","617452347986aeaf4d2e5278","1","1","1364","","","","","","","","","<img src= ""rock_img/I_Basalt_14.jpg"" style=""width:8cm; height:5.82cm;""><p>What type of rock is this?</p>","0","class_response","1","test","9","Andesite","Basalt","14","false","1","2","",""
"","","","","","","","","","","","html-keyboard-response","222","2.0.0","321353","617452347986aeaf4d2e5278","1","1","null","","","","","","","","","<p style='font-size: 30px;'><strong>Okay</strong></p>","null","neutral_feedback","1","test","9","","","","","","","",""
"","","","","","","","","","","","html-button-response","223","2.0.0","322697","617452347986aeaf4d2e5278","1","1","1343","","","","","","","","","<img src= ""rock_img/I_Gabbro_10.jpg"" style=""width:8cm; height:5.680000000000001cm;""><p>What type of rock is this?</p>","7","class_response","1","test","10","Pumice","Gabbro","10","false","8","4","",""
"","","","","","","","","","","","html-keyboard-response","224","2.0.0","323207","617452347986aeaf4d2e5278","1","1","null","","","","","","","","","<p style='font-size: 30px;'><strong>Okay</strong></p>","null","neutral_feedback","1","test","10","","","","","","","",""
"","","","","","","","","","","","html-button-response","225","2.0.0","324731","617452347986aeaf4d2e5278","1","1","1523","","","","","","","","","<img src= ""rock_img/I_Gabbro_15.jpg"" style=""width:8cm; height:6.29cm;""><p>What type of rock is this?</p>","7","class_response","1","test","11","Pumice","Gabbro","15","false","8","4","",""
"","","","","","","","","","","","html-keyboard-response","226","2.0.0","325243","617452347986aeaf4d2e5278","1","1","null","","","","","","","","","<p style='font-size: 30px;'><strong>Okay</strong></p>","null","neutral_feedback","1","test","11","","","","","","","",""
"","","","","","","","","","","","html-button-response","227","2.0.0","326701","617452347986aeaf4d2e5278","1","1","1457","","","","","","","","","<img src= ""rock_img/I_Basalt_11.jpg"" style=""width:8cm; height:5.359999999999999cm;""><p>What type of rock is this?</p>","1","class_response","1","test","12","Basalt","Basalt","11","true","2","2","",""
"","","","","","","","","","","","html-keyboard-response","228","2.0.0","327205","617452347986aeaf4d2e5278","1","1","null","","","","","","","","","<p style='font-size: 30px;'><strong>Okay</strong></p>","null","neutral_feedback","1","test","12","","","","","","","",""
"","","","","","","","","","","","html-button-response","229","2.0.0","329633","617452347986aeaf4d2e5278","1","1","2428","","","","","","","","","<img src= ""rock_img/I_Andesite_01.jpg"" style=""width:8cm; height:5.87cm;""><p>What type of rock is this?</p>","5","class_response","1","test","13","Pegmatite","Andesite","01","false","6","1","",""
"","","","","","","","","","","","html-keyboard-response","230","2.0.0","330144","617452347986aeaf4d2e5278","1","1","null","","","","","","","","","<p style='font-size: 30px;'><strong>Okay</strong></p>","null","neutral_feedback","1","test","13","","","","","","","",""
"","","","","","","","","","","","html-button-response","231","2.0.0","333559","617452347986aeaf4d2e5278","1","1","3414","","","","","","","","","<img src= ""rock_img/I_Pumice_13.jpg"" style=""width:8cm; height:8.200000000000001cm;""><p>What type of rock is this?</p>","0","class_response","1","test","14","Andesite","Pumice","13","false","1","8","",""
"","","","","","","","","","","","html-keyboard-response","232","2.0.0","334071","617452347986aeaf4d2e5278","1","1","null","","","","","","","","","<p style='font-size: 30px;'><strong>Okay</strong></p>","null","neutral_feedback","1","test","14","","","","","","","",""
"","","","","","","","","","","","html-button-response","233","2.0.0","335147","617452347986aeaf4d2e5278","1","1","1074","","","","","","","","","<img src= ""rock_img/I_Andesite_03.jpg"" style=""width:8cm; height:5.73cm;""><p>What type of rock is this?</p>","1","class_response","1","test","15","Basalt","Andesite","03","false","2","1","",""
"","","","","","","","","","","","html-keyboard-response","234","2.0.0","335660","617452347986aeaf4d2e5278","1","1","null","","","","","","","","","<p style='font-size: 30px;'><strong>Okay</strong></p>","null","neutral_feedback","1","test","15","","","","","","","",""
"","","","","","","","","","","","html-button-response","235","2.0.0","337116","617452347986aeaf4d2e5278","1","1","1454","","","","","","","","","<img src= ""rock_img/I_Pegmatite_12.jpg"" style=""width:8cm; height:5.7cm;""><p>What type of rock is this?</p>","3","class_response","1","test","16","Gabbro","Pegmatite","12","false","4","6","",""
"","","","","","","","","","","","html-keyboard-response","236","2.0.0","337617","617452347986aeaf4d2e5278","1","1","null","","","","","","","","","<p style='font-size: 30px;'><strong>Okay</strong></p>","null","neutral_feedback","1","test","16","","","","","","","",""
"","","","","","","","","","","","html-button-response","237","2.0.0","338948","617452347986aeaf4d2e5278","1","1","1331","","","","","","","","","<img src= ""rock_img/I_Diorite_02.jpg"" style=""width:8cm; height:6.27cm;""><p>What type of rock is this?</p>","6","class_response","1","test","17","Peridotite","Diorite","02","false","7","3","",""
"","","","","","","","","","","","html-keyboard-response","238","2.0.0","339499","617452347986aeaf4d2e5278","1","1","null","","","","","","","","","<p style='font-size: 30px;'><strong>Okay</strong></p>","null","neutral_feedback","1","test","17","","","","","","","",""
"","","","","","","","","","","","html-button-response","239","2.0.0","341297","617452347986aeaf4d2e5278","1","1","1797","","","","","","","","","<img src= ""rock_img/I_Andesite_09.jpg"" style=""width:8cm; height:6cm;""><p>What type of rock is this?</p>","1","class_response","1","test","18","Basalt","Andesite","09","false","2","1","",""
"","","","","","","","","","","","html-keyboard-response","240","2.0.0","341802","617452347986aeaf4d2e5278","1","1","null","","","","","","","","","<p style='font-size: 30px;'><strong>Okay</strong></p>","null","neutral_feedback","1","test","18","","","","","","","",""
"","","","","","","","","","","","html-button-response","241","2.0.0","344361","617452347986aeaf4d2e5278","1","1","2557","","","","","","","","","<img src= ""rock_img/I_Gabbro_09.jpg"" style=""width:8cm; height:7.279999999999999cm;""><p>What type of rock is this?</p>","3","class_response","1","test","19","Gabbro","Gabbro","09","true","4","4","",""
"","","","","","","","","","","","html-keyboard-response","242","2.0.0","344869","617452347986aeaf4d2e5278","1","1","null","","","","","","","","","<p style='font-size: 30px;'><strong>Okay</strong></p>","null","neutral_feedback","1","test","19","","","","","","","",""
"","","","","","","","","","","","html-button-response","243","2.0.0","346338","617452347986aeaf4d2e5278","1","1","1468","","","","","","","","","<img src= ""rock_img/I_Peridotite_10.jpg"" style=""width:8cm; height:5.390000000000001cm;""><p>What type of rock is this?</p>","7","class_response","1","test","20","Pumice","Peridotite","10","false","8","7","",""
"","","","","","","","","","","","html-keyboard-response","244","2.0.0","346847","617452347986aeaf4d2e5278","1","1","null","","","","","","","","","<p style='font-size: 30px;'><strong>Okay</strong></p>","null","neutral_feedback","1","test","20","","","","","","","",""
"","","","","","","","","","","","html-button-response","245","2.0.0","347796","617452347986aeaf4d2e5278","1","1","949","","","","","","","","","<img src= ""rock_img/I_Obsidian_07.jpg"" style=""width:8cm; height:4.76cm;""><p>What type of rock is this?</p>","4","class_response","1","test","21","Obsidian","Obsidian","07","true","5","5","",""
"","","","","","","","","","","","html-keyboard-response","246","2.0.0","348306","617452347986aeaf4d2e5278","1","1","null","","","","","","","","","<p style='font-size: 30px;'><strong>Okay</strong></p>","null","neutral_feedback","1","test","21","","","","","","","",""
"","","","","","","","","","","","html-button-response","247","2.0.0","350390","617452347986aeaf4d2e5278","1","1","2082","","","","","","","","","<img src= ""rock_img/I_Gabbro_16.jpg"" style=""width:8cm; height:6.44cm;""><p>What type of rock is this?</p>","5","class_response","1","test","22","Pegmatite","Gabbro","16","false","6","4","",""
"","","","","","","","","","","","html-keyboard-response","248","2.0.0","350897","617452347986aeaf4d2e5278","1","1","null","","","","","","","","","<p style='font-size: 30px;'><strong>Okay</strong></p>","null","neutral_feedback","1","test","22","","","","","","","",""
"","","","","","","","","","","","html-button-response","249","2.0.0","353331","617452347986aeaf4d2e5278","1","1","2434","","","","","","","","","<img src= ""rock_img/I_Pegmatite_16.jpg"" style=""width:8cm; height:5.8cm;""><p>What type of rock is this?</p>","6","class_response","1","test","23","Peridotite","Pegmatite","16","false","7","6","",""
"","","","","","","","","","","","html-keyboard-response","250","2.0.0","353844","617452347986aeaf4d2e5278","1","1","null","","","","","","","","","<p style='font-size: 30px;'><strong>Okay</strong></p>","null","neutral_feedback","1","test","23","","","","","","","",""
"","","","","","","","","","","","html-button-response","251","2.0.0","355447","617452347986aeaf4d2e5278","1","1","1602","","","","","","","","","<img src= ""rock_img/I_Basalt_08.jpg"" style=""width:8cm; height:10.44cm;""><p>What type of rock is this?</p>","1","class_response","1","test","24","Basalt","Basalt","08","true","2","2","",""
"","","","","","","","","","","","html-keyboard-response","252","2.0.0","355954","617452347986aeaf4d2e5278","1","1","null","","","","","","","","","<p style='font-size: 30px;'><strong>Okay</strong></p>","null","neutral_feedback","1","test","24","","","","","","","",""
"","","","","","","","","","","","html-button-response","253","2.0.0","356858","617452347986aeaf4d2e5278","1","1","902","","","","","","","","","<img src= ""rock_img/I_Obsidian_08.jpg"" style=""width:8cm; height:7.39cm;""><p>What type of rock is this?</p>","4","class_response","1","test","25","Obsidian","Obsidian","08","true","5","5","",""
"","","","","","","","","","","","html-keyboard-response","254","2.0.0","357373","617452347986aeaf4d2e5278","1","1","null","","","","","","","","","<p style='font-size: 30px;'><strong>Okay</strong></p>","null","neutral_feedback","1","test","25","","","","","","","",""
"","","","","","","","","","","","html-button-response","255","2.0.0","358525","617452347986aeaf4d2e5278","1","1","1150","","","","","","","","","<img src= ""rock_img/I_Basalt_10.jpg"" style=""width:8cm; height:5.85cm;""><p>What type of rock is this?</p>","4","class_response","1","test","26","Obsidian","Basalt","10","false","5","2","",""
"","","","","","","","","","","","html-keyboard-response","256","2.0.0","359037","617452347986aeaf4d2e5278","1","1","null","","","","","","","","","<p style='font-size: 30px;'><strong>Okay</strong></p>","null","neutral_feedback","1","test","26","","","","","","","",""
"","","","","","","","","","","","html-button-response","257","2.0.0","363116","617452347986aeaf4d2e5278","1","1","4079","","","","","","","","","<img src= ""rock_img/I_Andesite_05.jpg"" style=""width:8cm; height:4.12cm;""><p>What type of rock is this?</p>","3","class_response","1","test","27","Gabbro","Andesite","05","false","4","1","",""
"","","","","","","","","","","","html-keyboard-response","258","2.0.0","363620","617452347986aeaf4d2e5278","1","1","null","","","","","","","","","<p style='font-size: 30px;'><strong>Okay</strong></p>","null","neutral_feedback","1","test","27","","","","","","","",""
"","","","","","","","","","","","html-button-response","259","2.0.0","365954","617452347986aeaf4d2e5278","1","1","2332","","","","","","","","","<img src= ""rock_img/I_Pumice_05.jpg"" style=""width:8cm; height:7.25cm;""><p>What type of rock is this?</p>","7","class_response","1","test","28","Pumice","Pumice","05","true","8","8","",""
"","","","","","","","","","","","html-keyboard-response","260","2.0.0","366455","617452347986aeaf4d2e5278","1","1","null","","","","","","","","","<p style='font-size: 30px;'><strong>Okay</strong></p>","null","neutral_feedback","1","test","28","","","","","","","",""
"","","","","","","","","","","","html-button-response","261","2.0.0","368337","617452347986aeaf4d2e5278","1","1","1879","","","","","","","","","<img src= ""rock_img/I_Pegmatite_08.jpg"" style=""width:8cm; height:7.68cm;""><p>What type of rock is this?</p>","5","class_response","1","test","29","Pegmatite","Pegmatite","08","true","6","6","",""
"","","","","","","","","","","","html-keyboard-response","262","2.0.0","368838","617452347986aeaf4d2e5278","1","1","null","","","","","","","","","<p style='font-size: 30px;'><strong>Okay</strong></p>","null","neutral_feedback","1","test","29","","","","","","","",""
"","","","","","","","","","","","html-button-response","263","2.0.0","370103","617452347986aeaf4d2e5278","1","1","1263","","","","","","","","","<img src= ""rock_img/I_Peridotite_15.jpg"" style=""width:8cm; height:6cm;""><p>What type of rock is this?</p>","5","class_response","1","test","30","Pegmatite","Peridotite","15","false","6","7","",""
"","","","","","","","","","","","html-keyboard-response","264","2.0.0","370605","617452347986aeaf4d2e5278","1","1","null","","","","","","","","","<p style='font-size: 30px;'><strong>Okay</strong></p>","null","neutral_feedback","1","test","30","","","","","","","",""
"","","","","","","","","","","","html-button-response","265","2.0.0","371975","617452347986aeaf4d2e5278","1","1","1369","","","","","","","","","<img src= ""rock_img/I_Pegmatite_06.jpg"" style=""width:8cm; height:5.17cm;""><p>What type of rock is this?</p>","3","class_response","1","test","31","Gabbro","Pegmatite","06","false","4","6","",""
"","","","","","","","","","","","html-keyboard-response","266","2.0.0","372489","617452347986aeaf4d2e5278","1","1","null","","","","","","","","","<p style='font-size: 30px;'><strong>Okay</strong></p>","null","neutral_feedback","1","test","31","","","","","","","",""
"","","","","","","","","","","","html-button-response","267","2.0.0","374000","617452347986aeaf4d2e5278","1","1","1509","","","","","","","","","<img src= ""rock_img/I_Diorite_10.jpg"" style=""width:8cm; height:5.949999999999999cm;""><p>What type of rock is this?</p>","0","class_response","1","test","32","Andesite","Diorite","10","false","1","3","",""
"","","","","","","","","","","","html-keyboard-response","268","2.0.0","374518","617452347986aeaf4d2e5278","1","1","null","","","","","","","","","<p style='font-size: 30px;'><strong>Okay</strong></p>","null","neutral_feedback","1","test","32","","","","","","","",""
"","","","","","","","","","","","html-button-response","269","2.0.0","375494","617452347986aeaf4d2e5278","1","1","976","","","","","","","","","<img src= ""rock_img/I_Basalt_09.jpg"" style=""width:8cm; height:6.2cm;""><p>What type of rock is this?</p>","1","class_response","1","test","33","Basalt","Basalt","09","true","2","2","",""
"","","","","","","","","","","","html-keyboard-response","270","2.0.0","376007","617452347986aeaf4d2e5278","1","1","null","","","","","","","","","<p style='font-size: 30px;'><strong>Okay</strong></p>","null","neutral_feedback","1","test","33","","","","","","","",""
"","","","","","","","","","","","html-button-response","271","2.0.0","377385","617452347986aeaf4d2e5278","1","1","1376","","","","","","","","","<img src= ""rock_img/I_Peridotite_14.jpg"" style=""width:8cm; height:5.3cm;""><p>What type of rock is this?</p>","6","class_response","1","test","34","Peridotite","Peridotite","14","true","7","7","",""
"","","","","","","","","","","","html-keyboard-response","272","2.0.0","377907","617452347986aeaf4d2e5278","1","1","null","","","","","","","","","<p style='font-size: 30px;'><strong>Okay</strong></p>","null","neutral_feedback","1","test","34","","","","","","","",""
"","","","","","","","","","","","html-button-response","273","2.0.0","378917","617452347986aeaf4d2e5278","1","1","1007","","","","","","","","","<img src= ""rock_img/I_Basalt_12.jpg"" style=""width:8cm; height:6.010000000000001cm;""><p>What type of rock is this?</p>","1","class_response","1","test","35","Basalt","Basalt","12","true","2","2","",""
"","","","","","","","","","","","html-keyboard-response","274","2.0.0","379425","617452347986aeaf4d2e5278","1","1","null","","","","","","","","","<p style='font-size: 30px;'><strong>Okay</strong></p>","null","neutral_feedback","1","test","35","","","","","","","",""
"","","","","","","","","","","","html-button-response","275","2.0.0","381649","617452347986aeaf4d2e5278","1","1","2223","","","","","","","","","<img src= ""rock_img/I_Diorite_06.jpg"" style=""width:8cm; height:6.03cm;""><p>What type of rock is this?</p>","6","class_response","1","test","36","Peridotite","Diorite","06","false","7","3","",""
"","","","","","","","","","","","html-keyboard-response","276","2.0.0","382162","617452347986aeaf4d2e5278","1","1","null","","","","","","","","","<p style='font-size: 30px;'><strong>Okay</strong></p>","null","neutral_feedback","1","test","36","","","","","","","",""
"","","","","","","","","","","","html-button-response","277","2.0.0","383177","617452347986aeaf4d2e5278","1","1","1015","","","","","","","","","<img src= ""rock_img/I_Obsidian_16.jpg"" style=""width:8cm; height:9.3cm;""><p>What type of rock is this?</p>","4","class_response","1","test","37","Obsidian","Obsidian","16","true","5","5","",""
"","","","","","","","","","","","html-keyboard-response","278","2.0.0","383685","617452347986aeaf4d2e5278","1","1","null","","","","","","","","","<p style='font-size: 30px;'><strong>Okay</strong></p>","null","neutral_feedback","1","test","37","","","","","","","",""
"","","","","","","","","","","","html-button-response","279","2.0.0","384703","617452347986aeaf4d2e5278","1","1","1017","","","","","","","","","<img src= ""rock_img/I_Pumice_09.jpg"" style=""width:8cm; height:6.44cm;""><p>What type of rock is this?</p>","7","class_response","1","test","38","Pumice","Pumice","09","true","8","8","",""
"","","","","","","","","","","","html-keyboard-response","280","2.0.0","385209","617452347986aeaf4d2e5278","1","1","null","","","","","","","","","<p style='font-size: 30px;'><strong>Okay</strong></p>","null","neutral_feedback","1","test","38","","","","","","","",""
"","","","","","","","","","","","html-button-response","281","2.0.0","387511","617452347986aeaf4d2e5278","1","1","2300","","","","","","","","","<img src= ""rock_img/I_Peridotite_07.jpg"" style=""width:8cm; height:4.83cm;""><p>What type of rock is this?</p>","0","class_response","1","test","39","Andesite","Peridotite","07","false","1","7","",""
"","","","","","","","","","","","html-keyboard-response","282","2.0.0","388023","617452347986aeaf4d2e5278","1","1","null","","","","","","","","","<p style='font-size: 30px;'><strong>Okay</strong></p>","null","neutral_feedback","1","test","39","","","","","","","",""
"","","","","","","","","","","","html-button-response","283","2.0.0","389363","617452347986aeaf4d2e5278","1","1","1338","","","","","","","","","<img src= ""rock_img/I_Gabbro_13.jpg"" style=""width:8cm; height:5.08cm;""><p>What type of rock is this?</p>","7","class_response","1","test","40","Pumice","Gabbro","13","false","8","4","",""
"","","","","","","","","","","","html-keyboard-response","284","2.0.0","389876","617452347986aeaf4d2e5278","1","1","null","","","","","","","","","<p style='font-size: 30px;'><strong>Okay</strong></p>","null","neutral_feedback","1","test","40","","","","","","","",""
"","","","","","","","","","","","html-button-response","285","2.0.0","390799","617452347986aeaf4d2e5278","1","1","923","","","","","","","","","<img src= ""rock_img/I_Obsidian_06.jpg"" style=""width:8cm; height:6.8cm;""><p>What type of rock is this?</p>","4","class_response","1","test","41","Obsidian","Obsidian","06","true","5","5","",""
"","","","","","","","","","","","html-keyboard-response","286","2.0.0","391302","617452347986aeaf4d2e5278","1","1","null","","","","","","","","","<p style='font-size: 30px;'><strong>Okay</strong></p>","null","neutral_feedback","1","test","41","","","","","","","",""
"","","","","","","","","","","","html-button-response","287","2.0.0","395305","617452347986aeaf4d2e5278","1","1","4003","","","","","","","","","<img src= ""rock_img/I_Pumice_14.jpg"" style=""width:8cm; height:6.39cm;""><p>What type of rock is this?</p>","7","class_response","1","test","42","Pumice","Pumice","14","true","8","8","",""
"","","","","","","","","","","","html-keyboard-response","288","2.0.0","395818","617452347986aeaf4d2e5278","1","1","null","","","","","","","","","<p style='font-size: 30px;'><strong>Okay</strong></p>","null","neutral_feedback","1","test","42","","","","","","","",""
"","","","","","","","","","","","html-button-response","289","2.0.0","396771","617452347986aeaf4d2e5278","1","1","953","","","","","","","","","<img src= ""rock_img/I_Obsidian_12.jpg"" style=""width:8cm; height:6.53cm;""><p>What type of rock is this?</p>","4","class_response","1","test","43","Obsidian","Obsidian","12","true","5","5","",""
"","","","","","","","","","","","html-keyboard-response","290","2.0.0","397282","617452347986aeaf4d2e5278","1","1","null","","","","","","","","","<p style='font-size: 30px;'><strong>Okay</strong></p>","null","neutral_feedback","1","test","43","","","","","","","",""
"","","","","","","","","","","","html-button-response","291","2.0.0","399069","617452347986aeaf4d2e5278","1","1","1786","","","","","","","","","<img src= ""rock_img/I_Peridotite_04.jpg"" style=""width:8cm; height:6.680000000000001cm;""><p>What type of rock is this?</p>","6","class_response","1","test","44","Peridotite","Peridotite","04","true","7","7","",""
"","","","","","","","","","","","html-keyboard-response","292","2.0.0","399572","617452347986aeaf4d2e5278","1","1","null","","","","","","","","","<p style='font-size: 30px;'><strong>Okay</strong></p>","null","neutral_feedback","1","test","44","","","","","","","",""
"","","","","","","","","","","","html-button-response","293","2.0.0","401284","617452347986aeaf4d2e5278","1","1","1711","","","","","","","","","<img src= ""rock_img/I_Pumice_08.jpg"" style=""width:8cm; height:6.67cm;""><p>What type of rock is this?</p>","7","class_response","1","test","45","Pumice","Pumice","08","true","8","8","",""
"","","","","","","","","","","","html-keyboard-response","294","2.0.0","401787","617452347986aeaf4d2e5278","1","1","null","","","","","","","","","<p style='font-size: 30px;'><strong>Okay</strong></p>","null","neutral_feedback","1","test","45","","","","","","","",""
"","","","","","","","","","","","html-button-response","295","2.0.0","402658","617452347986aeaf4d2e5278","1","1","869","","","","","","","","","<img src= ""rock_img/I_Obsidian_11.jpg"" style=""width:8cm; height:6.05cm;""><p>What type of rock is this?</p>","4","class_response","1","test","46","Obsidian","Obsidian","11","true","5","5","",""
"","","","","","","","","","","","html-keyboard-response","296","2.0.0","403169","617452347986aeaf4d2e5278","1","1","null","","","","","","","","","<p style='font-size: 30px;'><strong>Okay</strong></p>","null","neutral_feedback","1","test","46","","","","","","","",""
"","","","","","","","","","","","html-button-response","297","2.0.0","404463","617452347986aeaf4d2e5278","1","1","1292","","","","","","","","","<img src= ""rock_img/I_Peridotite_13.jpg"" style=""width:8cm; height:7.58cm;""><p>What type of rock is this?</p>","3","class_response","1","test","47","Gabbro","Peridotite","13","false","4","7","",""
"","","","","","","","","","","","html-keyboard-response","298","2.0.0","404979","617452347986aeaf4d2e5278","1","1","null","","","","","","","","","<p style='font-size: 30px;'><strong>Okay</strong></p>","null","neutral_feedback","1","test","47","","","","","","","",""
"","","","","","","","","","","","html-button-response","299","2.0.0","406720","617452347986aeaf4d2e5278","1","1","1740","","","","","","","","","<img src= ""rock_img/I_Diorite_09.jpg"" style=""width:8cm; height:5.27cm;""><p>What type of rock is this?</p>","5","class_response","1","test","48","Pegmatite","Diorite","09","false","6","3","",""
"","","","","","","","","","","","html-keyboard-response","300","2.0.0","407236","617452347986aeaf4d2e5278","1","1","null","","","","","","","","","<p style='font-size: 30px;'><strong>Okay</strong></p>","null","neutral_feedback","1","test","48","","","","","","","",""
"","","","","","","","","","","","html-button-response","301","2.0.0","416701","617452347986aeaf4d2e5278","1","1","","","","","","","","","","","","cycle_feedback","","","","","","","","","","3230","6228"
"","","","","","","","","","","","html-button-response","303","2.0.0","417657","617452347986aeaf4d2e5278","1","1","956","","","","","","","","","","0","start_train","","","","","","","","","","",""
"","","","","","","","","","","","html-button-response","304","2.0.0","418952","617452347986aeaf4d2e5278","1","1","1294","","","","","","","","","<img src= ""rock_img/I_Obsidian_05.jpg"" style=""width:8cm; height:6.33cm;""><p>What type of rock is this?</p>","4","class_response","2","train","1","Obsidian","Obsidian","05","true","5","5","",""
"","","","","","","","","","","","html-button-response","305","2.0.0","419727","617452347986aeaf4d2e5278","1","1","774","","","","","","","","","<img src= rock_img/I_Obsidian_05.jpg style=""width:8cm; height:6.33cm;""><p style='font-size: 30px; color: green;'><strong>Correct!</strong></p><p style='font-size: 30px;'><strong>This rock is obsidian</strong></p>","0","corr_feedback","2","train","1","","","","","","","",""
