"width","height","webaudio","browser","browser_version","mobile","os","fullscreen","vsync_rate","webcam","microphone","trial_type","trial_index","plugin_version","time_elapsed","subjID","condition","stimID","rt","url","success","value","timeout","failed_images","failed_audio","failed_video","view_history","stimulus","response","trialType","cycle","phase","trial","resp","cat","token","corr","resp_num","cat_num","time_fb1","time_fb2"
"1920","919","true","chrome","130.0.0","false","Windows 10","true","61.47","false","true","browser-check","0","2.0.0","1027","66c3dfeeebce955a71524f5a","1","18","","","","","","","","","","","","","","","","","","","","","","",""
"","","","","","","","","","","","external-html","1","2.0.0","34443","66c3dfeeebce955a71524f5a","1","18","33276","consent_form.html","","","","","","","","","","","","","","","","","","","","",""
"","","","","","","","","","","","fullscreen","2","2.0.0","38690","66c3dfeeebce955a71524f5a","1","18","3231","","true","","","","","","","","","","","","","","","","","","","",""
"","","","","","","","","","","","call-function","3","2.0.0","38691","66c3dfeeebce955a71524f5a","1","18","","","","{}","","","","","","","","","","","","","","","","","","",""
"","","","","","","","","","","","preload","4","2.0.0","51709","66c3dfeeebce955a71524f5a","1","18","","","true","","false","[]","[]","[]","","","","","","","","","","","","","","",""
"","","","","","","","","","","","instructions","5","2.0.0","112506","66c3dfeeebce955a71524f5a","1","18","60796","","","","","","","","[{""page_index"":0,""viewing_time"":7204},{""page_index"":1,""viewing_time"":30384},{""page_index"":2,""viewing_time"":23208}]","","","","","","","","","","","","","",""
"","","","","","","","","","","","html-button-response","6","2.0.0","115507","66c3dfeeebce955a71524f5a","1","18","2999","","","","","","","","","","0","start_test","","","","","","","","","","",""
"","","","","","","","","","","","html-button-response","7","2.0.0","135002","66c3dfeeebce955a71524f5a","1","18","19494","","","","","","","","","<img src= ""rock_img/I_Pegmatite_06.jpg"" style=""width:8cm; height:5.17cm;""><p>What type of rock is this?</p>","0","class_response","0","test","1","Andesite","Pegmatite","06","false","1","6","",""
"","","","","","","","","","","","html-keyboard-response","8","2.0.0","135518","66c3dfeeebce955a71524f5a","1","18","null","","","","","","","","","<p style='font-size: 30px;'><strong>Okay</strong></p>","null","neutral_feedback","0","test","1","","","","","","","",""
"","","","","","","","","","","","html-button-response","9","2.0.0","140739","66c3dfeeebce955a71524f5a","1","18","5219","","","","","","","","","<img src= ""rock_img/I_Basalt_04.jpg"" style=""width:8cm; height:7.53cm;""><p>What type of rock is this?</p>","4","class_response","0","test","2","Obsidian","Basalt","04","false","5","2","",""
"","","","","","","","","","","","html-keyboard-response","10","2.0.0","141251","66c3dfeeebce955a71524f5a","1","18","null","","","","","","","","","<p style='font-size: 30px;'><strong>Okay</strong></p>","null","neutral_feedback","0","test","2","","","","","","","",""
"","","","","","","","","","","","html-button-response","11","2.0.0","156330","66c3dfeeebce955a71524f5a","1","18","15076","","","","","","","","","<img src= ""rock_img/I_Obsidian_07.jpg"" style=""width:8cm; height:4.76cm;""><p>What type of rock is this?</p>","5","class_response","0","test","3","Pegmatite","Obsidian","07","false","6","5","",""
"","","","","","","","","","","","html-keyboard-response","12","2.0.0","156837","66c3dfeeebce955a71524f5a","1","18","null","","","","","","","","","<p style='font-size: 30px;'><strong>Okay</strong></p>","null","neutral_feedback","0","test","3","","","","","","","",""
"","","","","","","","","","","","html-button-response","13","2.0.0","159074","66c3dfeeebce955a71524f5a","1","18","2235","","","","","","","","","<img src= ""rock_img/I_Obsidian_16.jpg"" style=""width:8cm; height:9.3cm;""><p>What type of rock is this?</p>","4","class_response","0","test","4","Obsidian","Obsidian","16","true","5","5","",""
"","","","","","","","","","","","html-keyboard-response","14","2.0.0","159584","66c3dfeeebce955a71524f5a","1","18","null","","","","","","","","","<p style='font-size: 30px;'><strong>Okay</strong></p>","null","neutral_feedback","0","test","4","","","","","","","",""
"","","","","","","","","","","","html-button-response","15","2.0.0","168330","66c3dfeeebce955a71524f5a","1","18","8744","","","","","","","","","<img src= ""rock_img/I_Gabbro_12.jpg"" style=""width:8cm; height:7.800000000000001cm;""><p>What type of rock is this?</p>","1","class_response","0","test","5","Basalt","Gabbro","12","false","2","4","",""
"","","","","","","","","","","","html-keyboard-response","16","2.0.0","168841","66c3dfeeebce955a71524f5a","1","18","null","","","","","","","","","<p style='font-size: 30px;'><strong>Okay</strong></p>","null","neutral_feedback","0","test","5","","","","","","","",""
"","","","","","","","","","","","html-button-response","17","2.0.0","180426","66c3dfeeebce955a71524f5a","1","18","11584","","","","","","","","","<img src= ""rock_img/I_Diorite_02.jpg"" style=""width:8cm; height:6.27cm;""><p>What type of rock is this?</p>","2","class_response","0","test","6","Diorite","Diorite","02","true","3","3","",""
"","","","","","","","","","","","html-keyboard-response","18","2.0.0","180937","66c3dfeeebce955a71524f5a","1","18","null","","","","","","","","","<p style='font-size: 30px;'><strong>Okay</strong></p>","null","neutral_feedback","0","test","6","","","","","","","",""
"","","","","","","","","","","","html-button-response","19","2.0.0","188354","66c3dfeeebce955a71524f5a","1","18","7415","","","","","","","","","<img src= ""rock_img/I_Peridotite_04.jpg"" style=""width:8cm; height:6.680000000000001cm;""><p>What type of rock is this?</p>","6","class_response","0","test","7","Peridotite","Peridotite","04","true","7","7","",""
"","","","","","","","","","","","html-keyboard-response","20","2.0.0","188866","66c3dfeeebce955a71524f5a","1","18","null","","","","","","","","","<p style='font-size: 30px;'><strong>Okay</strong></p>","null","neutral_feedback","0","test","7","","","","","","","",""
"","","","","","","","","","","","html-button-response","21","2.0.0","198114","66c3dfeeebce955a71524f5a","1","18","9247","","","","","","","","","<img src= ""rock_img/I_Gabbro_05.jpg"" style=""width:8cm; height:6cm;""><p>What type of rock is this?</p>","3","class_response","0","test","8","Gabbro","Gabbro","05","true","4","4","",""
"","","","","","","","","","","","html-keyboard-response","22","2.0.0","198616","66c3dfeeebce955a71524f5a","1","18","null","","","","","","","","","<p style='font-size: 30px;'><strong>Okay</strong></p>","null","neutral_feedback","0","test","8","","","","","","","",""
"","","","","","","","","","","","html-button-response","23","2.0.0","206618","66c3dfeeebce955a71524f5a","1","18","8001","","","","","","","","","<img src= ""rock_img/I_Andesite_02.jpg"" style=""width:8cm; height:8.5cm;""><p>What type of rock is this?</p>","2","class_response","0","test","9","Diorite","Andesite","02","false","3","1","",""
"","","","","","","","","","","","html-keyboard-response","24","2.0.0","207121","66c3dfeeebce955a71524f5a","1","18","null","","","","","","","","","<p style='font-size: 30px;'><strong>Okay</strong></p>","null","neutral_feedback","0","test","9","","","","","","","",""
"","","","","","","","","","","","html-button-response","25","2.0.0","210826","66c3dfeeebce955a71524f5a","1","18","3703","","","","","","","","","<img src= ""rock_img/I_Pegmatite_09.jpg"" style=""width:8cm; height:4.03cm;""><p>What type of rock is this?</p>","6","class_response","0","test","10","Peridotite","Pegmatite","09","false","7","6","",""
"","","","","","","","","","","","html-keyboard-response","26","2.0.0","211337","66c3dfeeebce955a71524f5a","1","18","null","","","","","","","","","<p style='font-size: 30px;'><strong>Okay</strong></p>","null","neutral_feedback","0","test","10","","","","","","","",""
"","","","","","","","","","","","html-button-response","27","2.0.0","213402","66c3dfeeebce955a71524f5a","1","18","2064","","","","","","","","","<img src= ""rock_img/I_Pumice_16.jpg"" style=""width:8cm; height:6.79cm;""><p>What type of rock is this?</p>","7","class_response","0","test","11","Pumice","Pumice","16","true","8","8","",""
"","","","","","","","","","","","html-keyboard-response","28","2.0.0","213913","66c3dfeeebce955a71524f5a","1","18","null","","","","","","","","","<p style='font-size: 30px;'><strong>Okay</strong></p>","null","neutral_feedback","0","test","11","","","","","","","",""
"","","","","","","","","","","","html-button-response","29","2.0.0","223858","66c3dfeeebce955a71524f5a","1","18","9944","","","","","","","","","<img src= ""rock_img/I_Gabbro_15.jpg"" style=""width:8cm; height:6.29cm;""><p>What type of rock is this?</p>","2","class_response","0","test","12","Diorite","Gabbro","15","false","3","4","",""
"","","","","","","","","","","","html-keyboard-response","30","2.0.0","224366","66c3dfeeebce955a71524f5a","1","18","null","","","","","","","","","<p style='font-size: 30px;'><strong>Okay</strong></p>","null","neutral_feedback","0","test","12","","","","","","","",""
"","","","","","","","","","","","html-button-response","31","2.0.0","229035","66c3dfeeebce955a71524f5a","1","18","4667","","","","","","","","","<img src= ""rock_img/I_Diorite_14.jpg"" style=""width:8cm; height:5.71cm;""><p>What type of rock is this?</p>","2","class_response","0","test","13","Diorite","Diorite","14","true","3","3","",""
"","","","","","","","","","","","html-keyboard-response","32","2.0.0","229546","66c3dfeeebce955a71524f5a","1","18","null","","","","","","","","","<p style='font-size: 30px;'><strong>Okay</strong></p>","null","neutral_feedback","0","test","13","","","","","","","",""
"","","","","","","","","","","","html-button-response","33","2.0.0","233179","66c3dfeeebce955a71524f5a","1","18","3631","","","","","","","","","<img src= ""rock_img/I_Gabbro_10.jpg"" style=""width:8cm; height:5.680000000000001cm;""><p>What type of rock is this?</p>","7","class_response","0","test","14","Pumice","Gabbro","10","false","8","4","",""
"","","","","","","","","","","","html-keyboard-response","34","2.0.0","233694","66c3dfeeebce955a71524f5a","1","18","null","","","","","","","","","<p style='font-size: 30px;'><strong>Okay</strong></p>","null","neutral_feedback","0","test","14","","","","","","","",""
"","","","","","","","","","","","html-button-response","35","2.0.0","236779","66c3dfeeebce955a71524f5a","1","18","3082","","","","","","","","","<img src= ""rock_img/I_Diorite_13.jpg"" style=""width:8cm; height:6.29cm;""><p>What type of rock is this?</p>","2","class_response","0","test","15","Diorite","Diorite","13","true","3","3","",""
"","","","","","","","","","","","html-keyboard-response","36","2.0.0","237286","66c3dfeeebce955a71524f5a","1","18","null","","","","","","","","","<p style='font-size: 30px;'><strong>Okay</strong></p>","null","neutral_feedback","0","test","15","","","","","","","",""
"","","","","","","","","","","","html-button-response","37","2.0.0","240539","66c3dfeeebce955a71524f5a","1","18","3251","","","","","","","","","<img src= ""rock_img/I_Gabbro_11.jpg"" style=""width:8cm; height:6.2cm;""><p>What type of rock is this?</p>","1","class_response","0","test","16","Basalt","Gabbro","11","false","2","4","",""
"","","","","","","","","","","","html-keyboard-response","38","2.0.0","241044","66c3dfeeebce955a71524f5a","1","18","null","","","","","","","","","<p style='font-size: 30px;'><strong>Okay</strong></p>","null","neutral_feedback","0","test","16","","","","","","","",""
"","","","","","","","","","","","html-button-response","39","2.0.0","247411","66c3dfeeebce955a71524f5a","1","18","6365","","","","","","","","","<img src= ""rock_img/I_Obsidian_06.jpg"" style=""width:8cm; height:6.8cm;""><p>What type of rock is this?</p>","4","class_response","0","test","17","Obsidian","Obsidian","06","true","5","5","",""
"","","","","","","","","","","","html-keyboard-response","40","2.0.0","247917","66c3dfeeebce955a71524f5a","1","18","null","","","","","","","","","<p style='font-size: 30px;'><strong>Okay</strong></p>","null","neutral_feedback","0","test","17","","","","","","","",""
"","","","","","","","","","","","html-button-response","41","2.0.0","252363","66c3dfeeebce955a71524f5a","1","18","4444","","","","","","","","","<img src= ""rock_img/I_Pegmatite_05.jpg"" style=""width:8cm; height:7.300000000000001cm;""><p>What type of rock is this?</p>","4","class_response","0","test","18","Obsidian","Pegmatite","05","false","5","6","",""
"","","","","","","","","","","","html-keyboard-response","42","2.0.0","252877","66c3dfeeebce955a71524f5a","1","18","null","","","","","","","","","<p style='font-size: 30px;'><strong>Okay</strong></p>","null","neutral_feedback","0","test","18","","","","","","","",""
"","","","","","","","","","","","html-button-response","43","2.0.0","259851","66c3dfeeebce955a71524f5a","1","18","6972","","","","","","","","","<img src= ""rock_img/I_Peridotite_02.jpg"" style=""width:8cm; height:5.859999999999999cm;""><p>What type of rock is this?</p>","6","class_response","0","test","19","Peridotite","Peridotite","02","true","7","7","",""
"","","","","","","","","","","","html-keyboard-response","44","2.0.0","260366","66c3dfeeebce955a71524f5a","1","18","null","","","","","","","","","<p style='font-size: 30px;'><strong>Okay</strong></p>","null","neutral_feedback","0","test","19","","","","","","","",""
"","","","","","","","","","","","html-button-response","45","2.0.0","267403","66c3dfeeebce955a71524f5a","1","18","7035","","","","","","","","","<img src= ""rock_img/I_Basalt_02.jpg"" style=""width:8cm; height:6.45cm;""><p>What type of rock is this?</p>","5","class_response","0","test","20","Pegmatite","Basalt","02","false","6","2","",""
"","","","","","","","","","","","html-keyboard-response","46","2.0.0","267907","66c3dfeeebce955a71524f5a","1","18","null","","","","","","","","","<p style='font-size: 30px;'><strong>Okay</strong></p>","null","neutral_feedback","0","test","20","","","","","","","",""
"","","","","","","","","","","","html-button-response","47","2.0.0","269707","66c3dfeeebce955a71524f5a","1","18","1798","","","","","","","","","<img src= ""rock_img/I_Obsidian_09.jpg"" style=""width:8cm; height:5cm;""><p>What type of rock is this?</p>","4","class_response","0","test","21","Obsidian","Obsidian","09","true","5","5","",""
"","","","","","","","","","","","html-keyboard-response","48","2.0.0","270213","66c3dfeeebce955a71524f5a","1","18","null","","","","","","","","","<p style='font-size: 30px;'><strong>Okay</strong></p>","null","neutral_feedback","0","test","21","","","","","","","",""
"","","","","","","","","","","","html-button-response","49","2.0.0","272323","66c3dfeeebce955a71524f5a","1","18","2108","","","","","","","","","<img src= ""rock_img/I_Pumice_02.jpg"" style=""width:8cm; height:7.3999999999999995cm;""><p>What type of rock is this?</p>","7","class_response","0","test","22","Pumice","Pumice","02","true","8","8","",""
"","","","","","","","","","","","html-keyboard-response","50","2.0.0","272828","66c3dfeeebce955a71524f5a","1","18","null","","","","","","","","","<p style='font-size: 30px;'><strong>Okay</strong></p>","null","neutral_feedback","0","test","22","","","","","","","",""
"","","","","","","","","","","","html-button-response","51","2.0.0","277283","66c3dfeeebce955a71524f5a","1","18","4453","","","","","","","","","<img src= ""rock_img/I_Peridotite_15.jpg"" style=""width:8cm; height:6cm;""><p>What type of rock is this?</p>","3","class_response","0","test","23","Gabbro","Peridotite","15","false","4","7","",""
"","","","","","","","","","","","html-keyboard-response","52","2.0.0","277795","66c3dfeeebce955a71524f5a","1","18","null","","","","","","","","","<p style='font-size: 30px;'><strong>Okay</strong></p>","null","neutral_feedback","0","test","23","","","","","","","",""
"","","","","","","","","","","","html-button-response","53","2.0.0","284916","66c3dfeeebce955a71524f5a","1","18","7118","","","","","","","","","<img src= ""rock_img/I_Pegmatite_15.jpg"" style=""width:8cm; height:6cm;""><p>What type of rock is this?</p>","5","class_response","0","test","24","Pegmatite","Pegmatite","15","true","6","6","",""
"","","","","","","","","","","","html-keyboard-response","54","2.0.0","285421","66c3dfeeebce955a71524f5a","1","18","null","","","","","","","","","<p style='font-size: 30px;'><strong>Okay</strong></p>","null","neutral_feedback","0","test","24","","","","","","","",""
"","","","","","","","","","","","html-button-response","55","2.0.0","287587","66c3dfeeebce955a71524f5a","1","18","2165","","","","","","","","","<img src= ""rock_img/I_Pumice_06.jpg"" style=""width:8cm; height:6.9399999999999995cm;""><p>What type of rock is this?</p>","7","class_response","0","test","25","Pumice","Pumice","06","true","8","8","",""
"","","","","","","","","","","","html-keyboard-response","56","2.0.0","288091","66c3dfeeebce955a71524f5a","1","18","null","","","","","","","","","<p style='font-size: 30px;'><strong>Okay</strong></p>","null","neutral_feedback","0","test","25","","","","","","","",""
"","","","","","","","","","","","html-button-response","57","2.0.0","292226","66c3dfeeebce955a71524f5a","1","18","4134","","","","","","","","","<img src= ""rock_img/I_Pegmatite_11.jpg"" style=""width:8cm; height:8.14cm;""><p>What type of rock is this?</p>","4","class_response","0","test","26","Obsidian","Pegmatite","11","false","5","6","",""
"","","","","","","","","","","","html-keyboard-response","58","2.0.0","292728","66c3dfeeebce955a71524f5a","1","18","null","","","","","","","","","<p style='font-size: 30px;'><strong>Okay</strong></p>","null","neutral_feedback","0","test","26","","","","","","","",""
"","","","","","","","","","","","html-button-response","59","2.0.0","295458","66c3dfeeebce955a71524f5a","1","18","2729","","","","","","","","","<img src= ""rock_img/I_Peridotite_16.jpg"" style=""width:8cm; height:6.989999999999999cm;""><p>What type of rock is this?</p>","3","class_response","0","test","27","Gabbro","Peridotite","16","false","4","7","",""
"","","","","","","","","","","","html-keyboard-response","60","2.0.0","295960","66c3dfeeebce955a71524f5a","1","18","null","","","","","","","","","<p style='font-size: 30px;'><strong>Okay</strong></p>","null","neutral_feedback","0","test","27","","","","","","","",""
"","","","","","","","","","","","html-button-response","61","2.0.0","301442","66c3dfeeebce955a71524f5a","1","18","5480","","","","","","","","","<img src= ""rock_img/I_Pumice_13.jpg"" style=""width:8cm; height:8.200000000000001cm;""><p>What type of rock is this?</p>","7","class_response","0","test","28","Pumice","Pumice","13","true","8","8","",""
"","","","","","","","","","","","html-keyboard-response","62","2.0.0","301949","66c3dfeeebce955a71524f5a","1","18","null","","","","","","","","","<p style='font-size: 30px;'><strong>Okay</strong></p>","null","neutral_feedback","0","test","28","","","","","","","",""
"","","","","","","","","","","","html-button-response","63","2.0.0","308802","66c3dfeeebce955a71524f5a","1","18","6851","","","","","","","","","<img src= ""rock_img/I_Andesite_03.jpg"" style=""width:8cm; height:5.73cm;""><p>What type of rock is this?</p>","1","class_response","0","test","29","Basalt","Andesite","03","false","2","1","",""
"","","","","","","","","","","","html-keyboard-response","64","2.0.0","309315","66c3dfeeebce955a71524f5a","1","18","null","","","","","","","","","<p style='font-size: 30px;'><strong>Okay</strong></p>","null","neutral_feedback","0","test","29","","","","","","","",""
"","","","","","","","","","","","html-button-response","65","2.0.0","311298","66c3dfeeebce955a71524f5a","1","18","1982","","","","","","","","","<img src= ""rock_img/I_Pumice_15.jpg"" style=""width:8cm; height:7.86cm;""><p>What type of rock is this?</p>","7","class_response","0","test","30","Pumice","Pumice","15","true","8","8","",""
"","","","","","","","","","","","html-keyboard-response","66","2.0.0","311810","66c3dfeeebce955a71524f5a","1","18","null","","","","","","","","","<p style='font-size: 30px;'><strong>Okay</strong></p>","null","neutral_feedback","0","test","30","","","","","","","",""
"","","","","","","","","","","","html-button-response","67","2.0.0","317538","66c3dfeeebce955a71524f5a","1","18","5727","","","","","","","","","<img src= ""rock_img/I_Andesite_05.jpg"" style=""width:8cm; height:4.12cm;""><p>What type of rock is this?</p>","3","class_response","0","test","31","Gabbro","Andesite","05","false","4","1","",""
"","","","","","","","","","","","html-keyboard-response","68","2.0.0","318039","66c3dfeeebce955a71524f5a","1","18","null","","","","","","","","","<p style='font-size: 30px;'><strong>Okay</strong></p>","null","neutral_feedback","0","test","31","","","","","","","",""
"","","","","","","","","","","","html-button-response","69","2.0.0","324834","66c3dfeeebce955a71524f5a","1","18","6794","","","","","","","","","<img src= ""rock_img/I_Diorite_08.jpg"" style=""width:8cm; height:6.37cm;""><p>What type of rock is this?</p>","2","class_response","0","test","32","Diorite","Diorite","08","true","3","3","",""
"","","","","","","","","","","","html-keyboard-response","70","2.0.0","325339","66c3dfeeebce955a71524f5a","1","18","null","","","","","","","","","<p style='font-size: 30px;'><strong>Okay</strong></p>","null","neutral_feedback","0","test","32","","","","","","","",""
"","","","","","","","","","","","html-button-response","71","2.0.0","330626","66c3dfeeebce955a71524f5a","1","18","5285","","","","","","","","","<img src= ""rock_img/I_Andesite_07.jpg"" style=""width:8cm; height:5.93cm;""><p>What type of rock is this?</p>","0","class_response","0","test","33","Andesite","Andesite","07","true","1","1","",""
"","","","","","","","","","","","html-keyboard-response","72","2.0.0","331136","66c3dfeeebce955a71524f5a","1","18","null","","","","","","","","","<p style='font-size: 30px;'><strong>Okay</strong></p>","null","neutral_feedback","0","test","33","","","","","","","",""
"","","","","","","","","","","","html-button-response","73","2.0.0","336738","66c3dfeeebce955a71524f5a","1","18","5600","","","","","","","","","<img src= ""rock_img/I_Gabbro_09.jpg"" style=""width:8cm; height:7.279999999999999cm;""><p>What type of rock is this?</p>","7","class_response","0","test","34","Pumice","Gabbro","09","false","8","4","",""
"","","","","","","","","","","","html-keyboard-response","74","2.0.0","337248","66c3dfeeebce955a71524f5a","1","18","null","","","","","","","","","<p style='font-size: 30px;'><strong>Okay</strong></p>","null","neutral_feedback","0","test","34","","","","","","","",""
"","","","","","","","","","","","html-button-response","75","2.0.0","340034","66c3dfeeebce955a71524f5a","1","18","2784","","","","","","","","","<img src= ""rock_img/I_Peridotite_07.jpg"" style=""width:8cm; height:4.83cm;""><p>What type of rock is this?</p>","0","class_response","0","test","35","Andesite","Peridotite","07","false","1","7","",""
"","","","","","","","","","","","html-keyboard-response","76","2.0.0","340545","66c3dfeeebce955a71524f5a","1","18","null","","","","","","","","","<p style='font-size: 30px;'><strong>Okay</strong></p>","null","neutral_feedback","0","test","35","","","","","","","",""
"","","","","","","","","","","","html-button-response","77","2.0.0","342306","66c3dfeeebce955a71524f5a","1","18","1760","","","","","","","","","<img src= ""rock_img/I_Obsidian_02.jpg"" style=""width:8cm; height:7.51cm;""><p>What type of rock is this?</p>","4","class_response","0","test","36","Obsidian","Obsidian","02","true","5","5","",""
"","","","","","","","","","","","html-keyboard-response","78","2.0.0","342823","66c3dfeeebce955a71524f5a","1","18","null","","","","","","","","","<p style='font-size: 30px;'><strong>Okay</strong></p>","null","neutral_feedback","0","test","36","","","","","","","",""
"","","","","","","","","","","","html-button-response","79","2.0.0","345634","66c3dfeeebce955a71524f5a","1","18","2809","","","","","","","","","<img src= ""rock_img/I_Basalt_06.jpg"" style=""width:8cm; height:7.06cm;""><p>What type of rock is this?</p>","4","class_response","0","test","37","Obsidian","Basalt","06","false","5","2","",""
"","","","","","","","","","","","html-keyboard-response","80","2.0.0","346147","66c3dfeeebce955a71524f5a","1","18","null","","","","","","","","","<p style='font-size: 30px;'><strong>Okay</strong></p>","null","neutral_feedback","0","test","37","","","","","","","",""
"","","","","","","","","","","","html-button-response","81","2.0.0","347858","66c3dfeeebce955a71524f5a","1","18","1710","","","","","","","","","<img src= ""rock_img/I_Peridotite_05.jpg"" style=""width:8cm; height:7.1499999999999995cm;""><p>What type of rock is this?</p>","3","class_response","0","test","38","Gabbro","Peridotite","05","false","4","7","",""
"","","","","","","","","","","","html-keyboard-response","82","2.0.0","348369","66c3dfeeebce955a71524f5a","1","18","null","","","","","","","","","<p style='font-size: 30px;'><strong>Okay</strong></p>","null","neutral_feedback","0","test","38","","","","","","","",""
"","","","","","","","","","","","html-button-response","83","2.0.0","355858","66c3dfeeebce955a71524f5a","1","18","7487","","","","","","","","","<img src= ""rock_img/I_Basalt_09.jpg"" style=""width:8cm; height:6.2cm;""><p>What type of rock is this?</p>","0","class_response","0","test","39","Andesite","Basalt","09","false","1","2","",""
"","","","","","","","","","","","html-keyboard-response","84","2.0.0","356370","66c3dfeeebce955a71524f5a","1","18","null","","","","","","","","","<p style='font-size: 30px;'><strong>Okay</strong></p>","null","neutral_feedback","0","test","39","","","","","","","",""
"","","","","","","","","","","","html-button-response","85","2.0.0","358674","66c3dfeeebce955a71524f5a","1","18","2303","","","","","","","","","<img src= ""rock_img/I_Andesite_16.jpg"" style=""width:8cm; height:6.010000000000001cm;""><p>What type of rock is this?</p>","0","class_response","0","test","40","Andesite","Andesite","16","true","1","1","",""
"","","","","","","","","","","","html-keyboard-response","86","2.0.0","359177","66c3dfeeebce955a71524f5a","1","18","null","","","","","","","","","<p style='font-size: 30px;'><strong>Okay</strong></p>","null","neutral_feedback","0","test","40","","","","","","","",""
"","","","","","","","","","","","html-button-response","87","2.0.0","363906","66c3dfeeebce955a71524f5a","1","18","4728","","","","","","","","","<img src= ""rock_img/I_Andesite_11.jpg"" style=""width:8cm; height:4.92cm;""><p>What type of rock is this?</p>","3","class_response","0","test","41","Gabbro","Andesite","11","false","4","1","",""
"","","","","","","","","","","","html-keyboard-response","88","2.0.0","364419","66c3dfeeebce955a71524f5a","1","18","null","","","","","","","","","<p style='font-size: 30px;'><strong>Okay</strong></p>","null","neutral_feedback","0","test","41","","","","","","","",""
"","","","","","","","","","","","html-button-response","89","2.0.0","367970","66c3dfeeebce955a71524f5a","1","18","3550","","","","","","","","","<img src= ""rock_img/I_Pegmatite_07.jpg"" style=""width:8cm; height:6.7cm;""><p>What type of rock is this?</p>","4","class_response","0","test","42","Obsidian","Pegmatite","07","false","5","6","",""
"","","","","","","","","","","","html-keyboard-response","90","2.0.0","368472","66c3dfeeebce955a71524f5a","1","18","null","","","","","","","","","<p style='font-size: 30px;'><strong>Okay</strong></p>","null","neutral_feedback","0","test","42","","","","","","","",""
"","","","","","","","","","","","html-button-response","91","2.0.0","369522","66c3dfeeebce955a71524f5a","1","18","1050","","","","","","","","","<img src= ""rock_img/I_Obsidian_14.jpg"" style=""width:8cm; height:7.64cm;""><p>What type of rock is this?</p>","4","class_response","0","test","43","Obsidian","Obsidian","14","true","5","5","",""
"","","","","","","","","","","","html-keyboard-response","92","2.0.0","370031","66c3dfeeebce955a71524f5a","1","18","null","","","","","","","","","<p style='font-size: 30px;'><strong>Okay</strong></p>","null","neutral_feedback","0","test","43","","","","","","","",""
"","","","","","","","","","","","html-button-response","93","2.0.0","374290","66c3dfeeebce955a71524f5a","1","18","4257","","","","","","","","","<img src= ""rock_img/I_Diorite_09.jpg"" style=""width:8cm; height:5.27cm;""><p>What type of rock is this?</p>","3","class_response","0","test","44","Gabbro","Diorite","09","false","4","3","",""
"","","","","","","","","","","","html-keyboard-response","94","2.0.0","374791","66c3dfeeebce955a71524f5a","1","18","null","","","","","","","","","<p style='font-size: 30px;'><strong>Okay</strong></p>","null","neutral_feedback","0","test","44","","","","","","","",""
"","","","","","","","","","","","html-button-response","95","2.0.0","377410","66c3dfeeebce955a71524f5a","1","18","2617","","","","","","","","","<img src= ""rock_img/I_Basalt_16.jpg"" style=""width:8cm; height:7.659999999999999cm;""><p>What type of rock is this?</p>","7","class_response","0","test","45","Pumice","Basalt","16","false","8","2","",""
"","","","","","","","","","","","html-keyboard-response","96","2.0.0","377921","66c3dfeeebce955a71524f5a","1","18","null","","","","","","","","","<p style='font-size: 30px;'><strong>Okay</strong></p>","null","neutral_feedback","0","test","45","","","","","","","",""
"","","","","","","","","","","","html-button-response","97","2.0.0","379306","66c3dfeeebce955a71524f5a","1","18","1383","","","","","","","","","<img src= ""rock_img/I_Pumice_05.jpg"" style=""width:8cm; height:7.25cm;""><p>What type of rock is this?</p>","7","class_response","0","test","46","Pumice","Pumice","05","true","8","8","",""
"","","","","","","","","","","","html-keyboard-response","98","2.0.0","379809","66c3dfeeebce955a71524f5a","1","18","null","","","","","","","","","<p style='font-size: 30px;'><strong>Okay</strong></p>","null","neutral_feedback","0","test","46","","","","","","","",""
"","","","","","","","","","","","html-button-response","99","2.0.0","385122","66c3dfeeebce955a71524f5a","1","18","5312","","","","","","","","","<img src= ""rock_img/I_Diorite_16.jpg"" style=""width:8cm; height:6.74cm;""><p>What type of rock is this?</p>","3","class_response","0","test","47","Gabbro","Diorite","16","false","4","3","",""
"","","","","","","","","","","","html-keyboard-response","100","2.0.0","385628","66c3dfeeebce955a71524f5a","1","18","null","","","","","","","","","<p style='font-size: 30px;'><strong>Okay</strong></p>","null","neutral_feedback","0","test","47","","","","","","","",""
"","","","","","","","","","","","html-button-response","101","2.0.0","388458","66c3dfeeebce955a71524f5a","1","18","2829","","","","","","","","","<img src= ""rock_img/I_Basalt_05.jpg"" style=""width:8cm; height:8.18cm;""><p>What type of rock is this?</p>","4","class_response","0","test","48","Obsidian","Basalt","05","false","5","2","",""
"","","","","","","","","","","","html-keyboard-response","102","2.0.0","388966","66c3dfeeebce955a71524f5a","1","18","null","","","","","","","","","<p style='font-size: 30px;'><strong>Okay</strong></p>","null","neutral_feedback","0","test","48","","","","","","","",""
"","","","","","","","","","","","instructions","103","2.0.0","421914","66c3dfeeebce955a71524f5a","1","18","32929","","","","","","","","[{""page_index"":0,""viewing_time"":21465},{""page_index"":1,""viewing_time"":6816},{""page_index"":2,""viewing_time"":4648}]","","","","","","","","","","","","","",""
"","","","","","","","","","","","html-button-response","104","2.0.0","424506","66c3dfeeebce955a71524f5a","1","18","2591","","","","","","","","","","0","start_train","","","","","","","","","","",""
"","","","","","","","","","","","html-button-response","105","2.0.0","426770","66c3dfeeebce955a71524f5a","1","18","2263","","","","","","","","","<img src= ""rock_img/I_Obsidian_12.jpg"" style=""width:8cm; height:6.53cm;""><p>What type of rock is this?</p>","4","class_response","1","train","1","Obsidian","Obsidian","12","true","5","5","",""
"","","","","","","","","","","","html-button-response","106","2.0.0","428050","66c3dfeeebce955a71524f5a","1","18","1279","","","","","","","","","<img src= rock_img/I_Obsidian_12.jpg style=""width:8cm; height:6.53cm;""><p style='font-size: 30px; color: green;'><strong>Correct!</strong></p><p style='font-size: 30px;'><strong>This rock is obsidian</strong></p>","0","corr_feedback","1","train","1","","","","","","","",""
"","","","","","","","","","","","html-button-response","107","2.0.0","431138","66c3dfeeebce955a71524f5a","1","18","3087","","","","","","","","","<img src= ""rock_img/I_Diorite_10.jpg"" style=""width:8cm; height:5.949999999999999cm;""><p>What type of rock is this?</p>","3","class_response","1","train","2","Gabbro","Diorite","10","false","4","3","",""
"","","","","","","","","","","","html-button-response","108","2.0.0","434170","66c3dfeeebce955a71524f5a","1","18","3031","","","","","","","","","<img src= rock_img/I_Diorite_10.jpg style=""width:8cm; height:5.949999999999999cm;""><p style='font-size: 30px; color: red;'><strong>Incorrect!</strong></p><p style='font-size: 30px;'><strong>This rock is diorite</strong></p>","0","corr_feedback","1","train","2","","","","","","","",""
"","","","","","","","","","","","html-button-response","109","2.0.0","436954","66c3dfeeebce955a71524f5a","1","18","2783","","","","","","","","","<img src= ""rock_img/I_Peridotite_08.jpg"" style=""width:8cm; height:6.7cm;""><p>What type of rock is this?</p>","7","class_response","1","train","3","Pumice","Peridotite","08","false","8","7","",""
"","","","","","","","","","","","html-button-response","110","2.0.0","439402","66c3dfeeebce955a71524f5a","1","18","2447","","","","","","","","","<img src= rock_img/I_Peridotite_08.jpg style=""width:8cm; height:6.7cm;""><p style='font-size: 30px; color: red;'><strong>Incorrect!</strong></p><p style='font-size: 30px;'><strong>This rock is peridotite</strong></p>","0","corr_feedback","1","train","3","","","","","","","",""
"","","","","","","","","","","","html-button-response","111","2.0.0","441402","66c3dfeeebce955a71524f5a","1","18","1999","","","","","","","","","<img src= ""rock_img/I_Pegmatite_03.jpg"" style=""width:8cm; height:5.239999999999999cm;""><p>What type of rock is this?</p>","6","class_response","1","train","4","Peridotite","Pegmatite","03","false","7","6","",""
"","","","","","","","","","","","html-button-response","112","2.0.0","443802","66c3dfeeebce955a71524f5a","1","18","2399","","","","","","","","","<img src= rock_img/I_Pegmatite_03.jpg style=""width:8cm; height:5.239999999999999cm;""><p style='font-size: 30px; color: red;'><strong>Incorrect!</strong></p><p style='font-size: 30px;'><strong>This rock is pegmatite</strong></p>","0","corr_feedback","1","train","4","","","","","","","",""
"","","","","","","","","","","","html-button-response","113","2.0.0","449442","66c3dfeeebce955a71524f5a","1","18","5639","","","","","","","","","<img src= ""rock_img/I_Andesite_04.jpg"" style=""width:8cm; height:5.96cm;""><p>What type of rock is this?</p>","3","class_response","1","train","5","Gabbro","Andesite","04","false","4","1","",""
"","","","","","","","","","","","html-button-response","114","2.0.0","451874","66c3dfeeebce955a71524f5a","1","18","2431","","","","","","","","","<img src= rock_img/I_Andesite_04.jpg style=""width:8cm; height:5.96cm;""><p style='font-size: 30px; color: red;'><strong>Incorrect!</strong></p><p style='font-size: 30px;'><strong>This rock is andesite</strong></p>","0","corr_feedback","1","train","5","","","","","","","",""
"","","","","","","","","","","","html-button-response","115","2.0.0","453498","66c3dfeeebce955a71524f5a","1","18","1623","","","","","","","","","<img src= ""rock_img/I_Pumice_08.jpg"" style=""width:8cm; height:6.67cm;""><p>What type of rock is this?</p>","7","class_response","1","train","6","Pumice","Pumice","08","true","8","8","",""
"","","","","","","","","","","","html-button-response","116","2.0.0","454866","66c3dfeeebce955a71524f5a","1","18","1367","","","","","","","","","<img src= rock_img/I_Pumice_08.jpg style=""width:8cm; height:6.67cm;""><p style='font-size: 30px; color: green;'><strong>Correct!</strong></p><p style='font-size: 30px;'><strong>This rock is pumice</strong></p>","0","corr_feedback","1","train","6","","","","","","","",""
"","","","","","","","","","","","html-button-response","117","2.0.0","456490","66c3dfeeebce955a71524f5a","1","18","1623","","","","","","","","","<img src= ""rock_img/I_Basalt_08.jpg"" style=""width:8cm; height:10.44cm;""><p>What type of rock is this?</p>","4","class_response","1","train","7","Obsidian","Basalt","08","false","5","2","",""
"","","","","","","","","","","","html-button-response","118","2.0.0","458618","66c3dfeeebce955a71524f5a","1","18","2127","","","","","","","","","<img src= rock_img/I_Basalt_08.jpg style=""width:8cm; height:10.44cm;""><p style='font-size: 30px; color: red;'><strong>Incorrect!</strong></p><p style='font-size: 30px;'><strong>This rock is basalt</strong></p>","0","corr_feedback","1","train","7","","","","","","","",""
"","","","","","","","","","","","html-button-response","119","2.0.0","462290","66c3dfeeebce955a71524f5a","1","18","3671","","","","","","","","","<img src= ""rock_img/I_Pegmatite_10.jpg"" style=""width:8cm; height:4.16cm;""><p>What type of rock is this?</p>","6","class_response","1","train","8","Peridotite","Pegmatite","10","false","7","6","",""
"","","","","","","","","","","","html-button-response","120","2.0.0","464002","66c3dfeeebce955a71524f5a","1","18","1711","","","","","","","","","<img src= rock_img/I_Pegmatite_10.jpg style=""width:8cm; height:4.16cm;""><p style='font-size: 30px; color: red;'><strong>Incorrect!</strong></p><p style='font-size: 30px;'><strong>This rock is pegmatite</strong></p>","0","corr_feedback","1","train","8","","","","","","","",""
"","","","","","","","","","","","html-button-response","121","2.0.0","466170","66c3dfeeebce955a71524f5a","1","18","2167","","","","","","","","","<img src= ""rock_img/I_Andesite_06.jpg"" style=""width:8cm; height:6.840000000000001cm;""><p>What type of rock is this?</p>","2","class_response","1","train","9","Diorite","Andesite","06","false","3","1","",""
"","","","","","","","","","","","html-button-response","122","2.0.0","468066","66c3dfeeebce955a71524f5a","1","18","1895","","","","","","","","","<img src= rock_img/I_Andesite_06.jpg style=""width:8cm; height:6.840000000000001cm;""><p style='font-size: 30px; color: red;'><strong>Incorrect!</strong></p><p style='font-size: 30px;'><strong>This rock is andesite</strong></p>","0","corr_feedback","1","train","9","","","","","","","",""
"","","","","","","","","","","","html-button-response","123","2.0.0","469946","66c3dfeeebce955a71524f5a","1","18","1879","","","","","","","","","<img src= ""rock_img/I_Gabbro_13.jpg"" style=""width:8cm; height:5.08cm;""><p>What type of rock is this?</p>","2","class_response","1","train","10","Diorite","Gabbro","13","false","3","4","",""
"","","","","","","","","","","","html-button-response","124","2.0.0","471490","66c3dfeeebce955a71524f5a","1","18","1543","","","","","","","","","<img src= rock_img/I_Gabbro_13.jpg style=""width:8cm; height:5.08cm;""><p style='font-size: 30px; color: red;'><strong>Incorrect!</strong></p><p style='font-size: 30px;'><strong>This rock is gabbro</strong></p>","0","corr_feedback","1","train","10","","","","","","","",""
"","","","","","","","","","","","html-button-response","125","2.0.0","474810","66c3dfeeebce955a71524f5a","1","18","3319","","","","","","","","","<img src= ""rock_img/I_Peridotite_14.jpg"" style=""width:8cm; height:5.3cm;""><p>What type of rock is this?</p>","3","class_response","1","train","11","Gabbro","Peridotite","14","false","4","7","",""
"","","","","","","","","","","","html-button-response","126","2.0.0","476162","66c3dfeeebce955a71524f5a","1","18","1351","","","","","","","","","<img src= rock_img/I_Peridotite_14.jpg style=""width:8cm; height:5.3cm;""><p style='font-size: 30px; color: red;'><strong>Incorrect!</strong></p><p style='font-size: 30px;'><strong>This rock is peridotite</strong></p>","0","corr_feedback","1","train","11","","","","","","","",""
"","","","","","","","","","","","html-button-response","127","2.0.0","478746","66c3dfeeebce955a71524f5a","1","18","2583","","","","","","","","","<img src= ""rock_img/I_Diorite_06.jpg"" style=""width:8cm; height:6.03cm;""><p>What type of rock is this?</p>","3","class_response","1","train","12","Gabbro","Diorite","06","false","4","3","",""
"","","","","","","","","","","","html-button-response","128","2.0.0","480562","66c3dfeeebce955a71524f5a","1","18","1815","","","","","","","","","<img src= rock_img/I_Diorite_06.jpg style=""width:8cm; height:6.03cm;""><p style='font-size: 30px; color: red;'><strong>Incorrect!</strong></p><p style='font-size: 30px;'><strong>This rock is diorite</strong></p>","0","corr_feedback","1","train","12","","","","","","","",""
"","","","","","","","","","","","html-button-response","129","2.0.0","487634","66c3dfeeebce955a71524f5a","1","18","7071","","","","","","","","","<img src= ""rock_img/I_Gabbro_14.jpg"" style=""width:8cm; height:8.48cm;""><p>What type of rock is this?</p>","0","class_response","1","train","13","Andesite","Gabbro","14","false","1","4","",""
"","","","","","","","","","","","html-button-response","130","2.0.0","489426","66c3dfeeebce955a71524f5a","1","18","1792","","","","","","","","","<img src= rock_img/I_Gabbro_14.jpg style=""width:8cm; height:8.48cm;""><p style='font-size: 30px; color: red;'><strong>Incorrect!</strong></p><p style='font-size: 30px;'><strong>This rock is gabbro</strong></p>","0","corr_feedback","1","train","13","","","","","","","",""
"","","","","","","","","","","","html-button-response","131","2.0.0","492450","66c3dfeeebce955a71524f5a","1","18","3022","","","","","","","","","<img src= ""rock_img/I_Peridotite_10.jpg"" style=""width:8cm; height:5.390000000000001cm;""><p>What type of rock is this?</p>","6","class_response","1","train","14","Peridotite","Peridotite","10","true","7","7","",""
"","","","","","","","","","","","html-button-response","132","2.0.0","493842","66c3dfeeebce955a71524f5a","1","18","1391","","","","","","","","","<img src= rock_img/I_Peridotite_10.jpg style=""width:8cm; height:5.390000000000001cm;""><p style='font-size: 30px; color: green;'><strong>Correct!</strong></p><p style='font-size: 30px;'><strong>This rock is peridotite</strong></p>","0","corr_feedback","1","train","14","","","","","","","",""
"","","","","","","","","","","","html-button-response","133","2.0.0","497826","66c3dfeeebce955a71524f5a","1","18","3983","","","","","","","","","<img src= ""rock_img/I_Peridotite_06.jpg"" style=""width:8cm; height:7.53cm;""><p>What type of rock is this?</p>","3","class_response","1","train","15","Gabbro","Peridotite","06","false","4","7","",""
"","","","","","","","","","","","html-button-response","134","2.0.0","499418","66c3dfeeebce955a71524f5a","1","18","1591","","","","","","","","","<img src= rock_img/I_Peridotite_06.jpg style=""width:8cm; height:7.53cm;""><p style='font-size: 30px; color: red;'><strong>Incorrect!</strong></p><p style='font-size: 30px;'><strong>This rock is peridotite</strong></p>","0","corr_feedback","1","train","15","","","","","","","",""
"","","","","","","","","","","","html-button-response","135","2.0.0","500970","66c3dfeeebce955a71524f5a","1","18","1551","","","","","","","","","<img src= ""rock_img/I_Obsidian_10.jpg"" style=""width:8cm; height:6.260000000000001cm;""><p>What type of rock is this?</p>","4","class_response","1","train","16","Obsidian","Obsidian","10","true","5","5","",""
"","","","","","","","","","","","html-button-response","136","2.0.0","502378","66c3dfeeebce955a71524f5a","1","18","1407","","","","","","","","","<img src= rock_img/I_Obsidian_10.jpg style=""width:8cm; height:6.260000000000001cm;""><p style='font-size: 30px; color: green;'><strong>Correct!</strong></p><p style='font-size: 30px;'><strong>This rock is obsidian</strong></p>","0","corr_feedback","1","train","16","","","","","","","",""
"","","","","","","","","","","","html-button-response","137","2.0.0","504754","66c3dfeeebce955a71524f5a","1","18","2375","","","","","","","","","<img src= ""rock_img/I_Diorite_11.jpg"" style=""width:8cm; height:7.11cm;""><p>What type of rock is this?</p>","2","class_response","1","train","17","Diorite","Diorite","11","true","3","3","",""
"","","","","","","","","","","","html-button-response","138","2.0.0","506242","66c3dfeeebce955a71524f5a","1","18","1487","","","","","","","","","<img src= rock_img/I_Diorite_11.jpg style=""width:8cm; height:7.11cm;""><p style='font-size: 30px; color: green;'><strong>Correct!</strong></p><p style='font-size: 30px;'><strong>This rock is diorite</strong></p>","0","corr_feedback","1","train","17","","","","","","","",""
"","","","","","","","","","","","html-button-response","139","2.0.0","508562","66c3dfeeebce955a71524f5a","1","18","2319","","","","","","","","","<img src= ""rock_img/I_Gabbro_03.jpg"" style=""width:8cm; height:8.52cm;""><p>What type of rock is this?</p>","0","class_response","1","train","18","Andesite","Gabbro","03","false","1","4","",""
"","","","","","","","","","","","html-button-response","140","2.0.0","509882","66c3dfeeebce955a71524f5a","1","18","1319","","","","","","","","","<img src= rock_img/I_Gabbro_03.jpg style=""width:8cm; height:8.52cm;""><p style='font-size: 30px; color: red;'><strong>Incorrect!</strong></p><p style='font-size: 30px;'><strong>This rock is gabbro</strong></p>","0","corr_feedback","1","train","18","","","","","","","",""
"","","","","","","","","","","","html-button-response","141","2.0.0","511626","66c3dfeeebce955a71524f5a","1","18","1743","","","","","","","","","<img src= ""rock_img/I_Pumice_10.jpg"" style=""width:8cm; height:7.609999999999999cm;""><p>What type of rock is this?</p>","7","class_response","1","train","19","Pumice","Pumice","10","true","8","8","",""
"","","","","","","","","","","","html-button-response","142","2.0.0","513930","66c3dfeeebce955a71524f5a","1","18","2303","","","","","","","","","<img src= rock_img/I_Pumice_10.jpg style=""width:8cm; height:7.609999999999999cm;""><p style='font-size: 30px; color: green;'><strong>Correct!</strong></p><p style='font-size: 30px;'><strong>This rock is pumice</strong></p>","0","corr_feedback","1","train","19","","","","","","","",""
"","","","","","","","","","","","html-button-response","143","2.0.0","517482","66c3dfeeebce955a71524f5a","1","18","3551","","","","","","","","","<img src= ""rock_img/I_Gabbro_01.jpg"" style=""width:8cm; height:5.21cm;""><p>What type of rock is this?</p>","3","class_response","1","train","20","Gabbro","Gabbro","01","true","4","4","",""
"","","","","","","","","","","","html-button-response","144","2.0.0","519106","66c3dfeeebce955a71524f5a","1","18","1623","","","","","","","","","<img src= rock_img/I_Gabbro_01.jpg style=""width:8cm; height:5.21cm;""><p style='font-size: 30px; color: green;'><strong>Correct!</strong></p><p style='font-size: 30px;'><strong>This rock is gabbro</strong></p>","0","corr_feedback","1","train","20","","","","","","","",""
"","","","","","","","","","","","html-button-response","145","2.0.0","522618","66c3dfeeebce955a71524f5a","1","18","3511","","","","","","","","","<img src= ""rock_img/I_Pegmatite_16.jpg"" style=""width:8cm; height:5.8cm;""><p>What type of rock is this?</p>","0","class_response","1","train","21","Andesite","Pegmatite","16","false","1","6","",""
"","","","","","","","","","","","html-button-response","146","2.0.0","524337","66c3dfeeebce955a71524f5a","1","18","1719","","","","","","","","","<img src= rock_img/I_Pegmatite_16.jpg style=""width:8cm; height:5.8cm;""><p style='font-size: 30px; color: red;'><strong>Incorrect!</strong></p><p style='font-size: 30px;'><strong>This rock is pegmatite</strong></p>","0","corr_feedback","1","train","21","","","","","","","",""
"","","","","","","","","","","","html-button-response","147","2.0.0","526346","66c3dfeeebce955a71524f5a","1","18","2007","","","","","","","","","<img src= ""rock_img/I_Andesite_10.jpg"" style=""width:8cm; height:4.16cm;""><p>What type of rock is this?</p>","0","class_response","1","train","22","Andesite","Andesite","10","true","1","1","",""
"","","","","","","","","","","","html-button-response","148","2.0.0","528242","66c3dfeeebce955a71524f5a","1","18","1895","","","","","","","","","<img src= rock_img/I_Andesite_10.jpg style=""width:8cm; height:4.16cm;""><p style='font-size: 30px; color: green;'><strong>Correct!</strong></p><p style='font-size: 30px;'><strong>This rock is andesite</strong></p>","0","corr_feedback","1","train","22","","","","","","","",""
"","","","","","","","","","","","html-button-response","149","2.0.0","530786","66c3dfeeebce955a71524f5a","1","18","2543","","","","","","","","","<img src= ""rock_img/I_Gabbro_16.jpg"" style=""width:8cm; height:6.44cm;""><p>What type of rock is this?</p>","3","class_response","1","train","23","Gabbro","Gabbro","16","true","4","4","",""
"","","","","","","","","","","","html-button-response","150","2.0.0","532258","66c3dfeeebce955a71524f5a","1","18","1471","","","","","","","","","<img src= rock_img/I_Gabbro_16.jpg style=""width:8cm; height:6.44cm;""><p style='font-size: 30px; color: green;'><strong>Correct!</strong></p><p style='font-size: 30px;'><strong>This rock is gabbro</strong></p>","0","corr_feedback","1","train","23","","","","","","","",""
"","","","","","","","","","","","html-button-response","151","2.0.0","535066","66c3dfeeebce955a71524f5a","1","18","2807","","","","","","","","","<img src= ""rock_img/I_Andesite_14.jpg"" style=""width:8cm; height:5.449999999999999cm;""><p>What type of rock is this?</p>","1","class_response","1","train","24","Basalt","Andesite","14","false","2","1","",""
"","","","","","","","","","","","html-button-response","152","2.0.0","536370","66c3dfeeebce955a71524f5a","1","18","1303","","","","","","","","","<img src= rock_img/I_Andesite_14.jpg style=""width:8cm; height:5.449999999999999cm;""><p style='font-size: 30px; color: red;'><strong>Incorrect!</strong></p><p style='font-size: 30px;'><strong>This rock is andesite</strong></p>","0","corr_feedback","1","train","24","","","","","","","",""
"","","","","","","","","","","","html-button-response","153","2.0.0","537738","66c3dfeeebce955a71524f5a","1","18","1367","","","","","","","","","<img src= ""rock_img/I_Obsidian_11.jpg"" style=""width:8cm; height:6.05cm;""><p>What type of rock is this?</p>","4","class_response","1","train","25","Obsidian","Obsidian","11","true","5","5","",""
"","","","","","","","","","","","html-button-response","154","2.0.0","539218","66c3dfeeebce955a71524f5a","1","18","1479","","","","","","","","","<img src= rock_img/I_Obsidian_11.jpg style=""width:8cm; height:6.05cm;""><p style='font-size: 30px; color: green;'><strong>Correct!</strong></p><p style='font-size: 30px;'><strong>This rock is obsidian</strong></p>","0","corr_feedback","1","train","25","","","","","","","",""
"","","","","","","","","","","","html-button-response","155","2.0.0","540962","66c3dfeeebce955a71524f5a","1","18","1743","","","","","","","","","<img src= ""rock_img/I_Pumice_03.jpg"" style=""width:8cm; height:6.64cm;""><p>What type of rock is this?</p>","7","class_response","1","train","26","Pumice","Pumice","03","true","8","8","",""
"","","","","","","","","","","","html-button-response","156","2.0.0","542394","66c3dfeeebce955a71524f5a","1","18","1431","","","","","","","","","<img src= rock_img/I_Pumice_03.jpg style=""width:8cm; height:6.64cm;""><p style='font-size: 30px; color: green;'><strong>Correct!</strong></p><p style='font-size: 30px;'><strong>This rock is pumice</strong></p>","0","corr_feedback","1","train","26","","","","","","","",""
"","","","","","","","","","","","html-button-response","157","2.0.0","547114","66c3dfeeebce955a71524f5a","1","18","4719","","","","","","","","","<img src= ""rock_img/I_Pegmatite_12.jpg"" style=""width:8cm; height:5.7cm;""><p>What type of rock is this?</p>","2","class_response","1","train","27","Diorite","Pegmatite","12","false","3","6","",""
"","","","","","","","","","","","html-button-response","158","2.0.0","548682","66c3dfeeebce955a71524f5a","1","18","1567","","","","","","","","","<img src= rock_img/I_Pegmatite_12.jpg style=""width:8cm; height:5.7cm;""><p style='font-size: 30px; color: red;'><strong>Incorrect!</strong></p><p style='font-size: 30px;'><strong>This rock is pegmatite</strong></p>","0","corr_feedback","1","train","27","","","","","","","",""
"","","","","","","","","","","","html-button-response","159","2.0.0","550874","66c3dfeeebce955a71524f5a","1","18","2191","","","","","","","","","<img src= ""rock_img/I_Pumice_09.jpg"" style=""width:8cm; height:6.44cm;""><p>What type of rock is this?</p>","7","class_response","1","train","28","Pumice","Pumice","09","true","8","8","",""
"","","","","","","","","","","","html-button-response","160","2.0.0","552546","66c3dfeeebce955a71524f5a","1","18","1671","","","","","","","","","<img src= rock_img/I_Pumice_09.jpg style=""width:8cm; height:6.44cm;""><p style='font-size: 30px; color: green;'><strong>Correct!</strong></p><p style='font-size: 30px;'><strong>This rock is pumice</strong></p>","0","corr_feedback","1","train","28","","","","","","","",""
"","","","","","","","","","","","html-button-response","161","2.0.0","554538","66c3dfeeebce955a71524f5a","1","18","1991","","","","","","","","","<img src= ""rock_img/I_Peridotite_13.jpg"" style=""width:8cm; height:7.58cm;""><p>What type of rock is this?</p>","6","class_response","1","train","29","Peridotite","Peridotite","13","true","7","7","",""
"","","","","","","","","","","","html-button-response","162","2.0.0","556130","66c3dfeeebce955a71524f5a","1","18","1591","","","","","","","","","<img src= rock_img/I_Peridotite_13.jpg style=""width:8cm; height:7.58cm;""><p style='font-size: 30px; color: green;'><strong>Correct!</strong></p><p style='font-size: 30px;'><strong>This rock is peridotite</strong></p>","0","corr_feedback","1","train","29","","","","","","","",""
"","","","","","","","","","","","html-button-response","163","2.0.0","558538","66c3dfeeebce955a71524f5a","1","18","2407","","","","","","","","","<img src= ""rock_img/I_Pumice_14.jpg"" style=""width:8cm; height:6.39cm;""><p>What type of rock is this?</p>","7","class_response","1","train","30","Pumice","Pumice","14","true","8","8","",""
"","","","","","","","","","","","html-button-response","164","2.0.0","560090","66c3dfeeebce955a71524f5a","1","18","1551","","","","","","","","","<img src= rock_img/I_Pumice_14.jpg style=""width:8cm; height:6.39cm;""><p style='font-size: 30px; color: green;'><strong>Correct!</strong></p><p style='font-size: 30px;'><strong>This rock is pumice</strong></p>","0","corr_feedback","1","train","30","","","","","","","",""
"","","","","","","","","","","","html-button-response","165","2.0.0","562681","66c3dfeeebce955a71524f5a","1","18","2591","","","","","","","","","<img src= ""rock_img/I_Basalt_11.jpg"" style=""width:8cm; height:5.359999999999999cm;""><p>What type of rock is this?</p>","3","class_response","1","train","31","Gabbro","Basalt","11","false","4","2","",""
"","","","","","","","","","","","html-button-response","166","2.0.0","563882","66c3dfeeebce955a71524f5a","1","18","1200","","","","","","","","","<img src= rock_img/I_Basalt_11.jpg style=""width:8cm; height:5.359999999999999cm;""><p style='font-size: 30px; color: red;'><strong>Incorrect!</strong></p><p style='font-size: 30px;'><strong>This rock is basalt</strong></p>","0","corr_feedback","1","train","31","","","","","","","",""
"","","","","","","","","","","","html-button-response","167","2.0.0","565162","66c3dfeeebce955a71524f5a","1","18","1280","","","","","","","","","<img src= ""rock_img/I_Obsidian_08.jpg"" style=""width:8cm; height:7.39cm;""><p>What type of rock is this?</p>","4","class_response","1","train","32","Obsidian","Obsidian","08","true","5","5","",""
"","","","","","","","","","","","html-button-response","168","2.0.0","566426","66c3dfeeebce955a71524f5a","1","18","1262","","","","","","","","","<img src= rock_img/I_Obsidian_08.jpg style=""width:8cm; height:7.39cm;""><p style='font-size: 30px; color: green;'><strong>Correct!</strong></p><p style='font-size: 30px;'><strong>This rock is obsidian</strong></p>","0","corr_feedback","1","train","32","","","","","","","",""
"","","","","","","","","","","","html-button-response","169","2.0.0","570266","66c3dfeeebce955a71524f5a","1","18","3839","","","","","","","","","<img src= ""rock_img/I_Basalt_10.jpg"" style=""width:8cm; height:5.85cm;""><p>What type of rock is this?</p>","1","class_response","1","train","33","Basalt","Basalt","10","true","2","2","",""
"","","","","","","","","","","","html-button-response","170","2.0.0","571802","66c3dfeeebce955a71524f5a","1","18","1535","","","","","","","","","<img src= rock_img/I_Basalt_10.jpg style=""width:8cm; height:5.85cm;""><p style='font-size: 30px; color: green;'><strong>Correct!</strong></p><p style='font-size: 30px;'><strong>This rock is basalt</strong></p>","0","corr_feedback","1","train","33","","","","","","","",""
"","","","","","","","","","","","html-button-response","171","2.0.0","573714","66c3dfeeebce955a71524f5a","1","18","1911","","","","","","","","","<img src= ""rock_img/I_Diorite_12.jpg"" style=""width:8cm; height:4.88cm;""><p>What type of rock is this?</p>","2","class_response","1","train","34","Diorite","Diorite","12","true","3","3","",""
"","","","","","","","","","","","html-button-response","172","2.0.0","575138","66c3dfeeebce955a71524f5a","1","18","1423","","","","","","","","","<img src= rock_img/I_Diorite_12.jpg style=""width:8cm; height:4.88cm;""><p style='font-size: 30px; color: green;'><strong>Correct!</strong></p><p style='font-size: 30px;'><strong>This rock is diorite</strong></p>","0","corr_feedback","1","train","34","","","","","","","",""
"","","","","","","","","","","","html-button-response","173","2.0.0","577634","66c3dfeeebce955a71524f5a","1","18","2495","","","","","","","","","<img src= ""rock_img/I_Gabbro_08.jpg"" style=""width:8cm; height:5.15cm;""><p>What type of rock is this?</p>","3","class_response","1","train","35","Gabbro","Gabbro","08","true","4","4","",""
"","","","","","","","","","","","html-button-response","174","2.0.0","579297","66c3dfeeebce955a71524f5a","1","18","1663","","","","","","","","","<img src= rock_img/I_Gabbro_08.jpg style=""width:8cm; height:5.15cm;""><p style='font-size: 30px; color: green;'><strong>Correct!</strong></p><p style='font-size: 30px;'><strong>This rock is gabbro</strong></p>","0","corr_feedback","1","train","35","","","","","","","",""
"","","","","","","","","","","","html-button-response","175","2.0.0","580801","66c3dfeeebce955a71524f5a","1","18","1503","","","","","","","","","<img src= ""rock_img/I_Obsidian_04.jpg"" style=""width:8cm; height:6.930000000000001cm;""><p>What type of rock is this?</p>","4","class_response","1","train","36","Obsidian","Obsidian","04","true","5","5","",""
"","","","","","","","","","","","html-button-response","176","2.0.0","582538","66c3dfeeebce955a71524f5a","1","18","1735","","","","","","","","","<img src= rock_img/I_Obsidian_04.jpg style=""width:8cm; height:6.930000000000001cm;""><p style='font-size: 30px; color: green;'><strong>Correct!</strong></p><p style='font-size: 30px;'><strong>This rock is obsidian</strong></p>","0","corr_feedback","1","train","36","","","","","","","",""
"","","","","","","","","","","","html-button-response","177","2.0.0","584921","66c3dfeeebce955a71524f5a","1","18","2383","","","","","","","","","<img src= ""rock_img/I_Peridotite_12.jpg"" style=""width:8cm; height:4.54cm;""><p>What type of rock is this?</p>","6","class_response","1","train","37","Peridotite","Peridotite","12","true","7","7","",""
"","","","","","","","","","","","html-button-response","178","2.0.0","586497","66c3dfeeebce955a71524f5a","1","18","1575","","","","","","","","","<img src= rock_img/I_Peridotite_12.jpg style=""width:8cm; height:4.54cm;""><p style='font-size: 30px; color: green;'><strong>Correct!</strong></p><p style='font-size: 30px;'><strong>This rock is peridotite</strong></p>","0","corr_feedback","1","train","37","","","","","","","",""
"","","","","","","","","","","","html-button-response","179","2.0.0","589649","66c3dfeeebce955a71524f5a","1","18","3151","","","","","","","","","<img src= ""rock_img/I_Obsidian_05.jpg"" style=""width:8cm; height:6.33cm;""><p>What type of rock is this?</p>","5","class_response","1","train","38","Pegmatite","Obsidian","05","false","6","5","",""
"","","","","","","","","","","","html-button-response","180","2.0.0","591666","66c3dfeeebce955a71524f5a","1","18","2015","","","","","","","","","<img src= rock_img/I_Obsidian_05.jpg style=""width:8cm; height:6.33cm;""><p style='font-size: 30px; color: red;'><strong>Incorrect!</strong></p><p style='font-size: 30px;'><strong>This rock is obsidian</strong></p>","0","corr_feedback","1","train","38","","","","","","","",""
"","","","","","","","","","","","html-button-response","181","2.0.0","593874","66c3dfeeebce955a71524f5a","1","18","2207","","","","","","","","","<img src= ""rock_img/I_Diorite_07.jpg"" style=""width:8cm; height:5.239999999999999cm;""><p>What type of rock is this?</p>","5","class_response","1","train","39","Pegmatite","Diorite","07","false","6","3","",""
"","","","","","","","","","","","html-button-response","182","2.0.0","595266","66c3dfeeebce955a71524f5a","1","18","1391","","","","","","","","","<img src= rock_img/I_Diorite_07.jpg style=""width:8cm; height:5.239999999999999cm;""><p style='font-size: 30px; color: red;'><strong>Incorrect!</strong></p><p style='font-size: 30px;'><strong>This rock is diorite</strong></p>","0","corr_feedback","1","train","39","","","","","","","",""
"","","","","","","","","","","","html-button-response","183","2.0.0","598282","66c3dfeeebce955a71524f5a","1","18","3015","","","","","","","","","<img src= ""rock_img/I_Basalt_01.jpg"" style=""width:8cm; height:7.880000000000001cm;""><p>What type of rock is this?</p>","3","class_response","1","train","40","Gabbro","Basalt","01","false","4","2","",""
"","","","","","","","","","","","html-button-response","184","2.0.0","599762","66c3dfeeebce955a71524f5a","1","18","1479","","","","","","","","","<img src= rock_img/I_Basalt_01.jpg style=""width:8cm; height:7.880000000000001cm;""><p style='font-size: 30px; color: red;'><strong>Incorrect!</strong></p><p style='font-size: 30px;'><strong>This rock is basalt</strong></p>","0","corr_feedback","1","train","40","","","","","","","",""
"","","","","","","","","","","","html-button-response","185","2.0.0","605018","66c3dfeeebce955a71524f5a","1","18","5255","","","","","","","","","<img src= ""rock_img/I_Diorite_15.jpg"" style=""width:8cm; height:5.54cm;""><p>What type of rock is this?</p>","2","class_response","1","train","41","Diorite","Diorite","15","true","3","3","",""
"","","","","","","","","","","","html-button-response","186","2.0.0","606538","66c3dfeeebce955a71524f5a","1","18","1519","","","","","","","","","<img src= rock_img/I_Diorite_15.jpg style=""width:8cm; height:5.54cm;""><p style='font-size: 30px; color: green;'><strong>Correct!</strong></p><p style='font-size: 30px;'><strong>This rock is diorite</strong></p>","0","corr_feedback","1","train","41","","","","","","","",""
"","","","","","","","","","","","html-button-response","187","2.0.0","609410","66c3dfeeebce955a71524f5a","1","18","2871","","","","","","","","","<img src= ""rock_img/I_Andesite_09.jpg"" style=""width:8cm; height:6cm;""><p>What type of rock is this?</p>","3","class_response","1","train","42","Gabbro","Andesite","09","false","4","1","",""
"","","","","","","","","","","","html-button-response","188","2.0.0","611026","66c3dfeeebce955a71524f5a","1","18","1615","","","","","","","","","<img src= rock_img/I_Andesite_09.jpg style=""width:8cm; height:6cm;""><p style='font-size: 30px; color: red;'><strong>Incorrect!</strong></p><p style='font-size: 30px;'><strong>This rock is andesite</strong></p>","0","corr_feedback","1","train","42","","","","","","","",""
"","","","","","","","","","","","html-button-response","189","2.0.0","612714","66c3dfeeebce955a71524f5a","1","18","1687","","","","","","","","","<img src= ""rock_img/I_Pumice_04.jpg"" style=""width:8cm; height:6.819999999999999cm;""><p>What type of rock is this?</p>","7","class_response","1","train","43","Pumice","Pumice","04","true","8","8","",""
"","","","","","","","","","","","html-button-response","190","2.0.0","614650","66c3dfeeebce955a71524f5a","1","18","1936","","","","","","","","","<img src= rock_img/I_Pumice_04.jpg style=""width:8cm; height:6.819999999999999cm;""><p style='font-size: 30px; color: green;'><strong>Correct!</strong></p><p style='font-size: 30px;'><strong>This rock is pumice</strong></p>","0","corr_feedback","1","train","43","","","","","","","",""
"","","","","","","","","","","","html-button-response","191","2.0.0","621402","66c3dfeeebce955a71524f5a","1","18","6751","","","","","","","","","<img src= ""rock_img/I_Pegmatite_08.jpg"" style=""width:8cm; height:7.68cm;""><p>What type of rock is this?</p>","5","class_response","1","train","44","Pegmatite","Pegmatite","08","true","6","6","",""
"","","","","","","","","","","","html-button-response","192","2.0.0","623274","66c3dfeeebce955a71524f5a","1","18","1871","","","","","","","","","<img src= rock_img/I_Pegmatite_08.jpg style=""width:8cm; height:7.68cm;""><p style='font-size: 30px; color: green;'><strong>Correct!</strong></p><p style='font-size: 30px;'><strong>This rock is pegmatite</strong></p>","0","corr_feedback","1","train","44","","","","","","","",""
"","","","","","","","","","","","html-button-response","193","2.0.0","626370","66c3dfeeebce955a71524f5a","1","18","3095","","","","","","","","","<img src= ""rock_img/I_Andesite_01.jpg"" style=""width:8cm; height:5.87cm;""><p>What type of rock is this?</p>","3","class_response","1","train","45","Gabbro","Andesite","01","false","4","1","",""
"","","","","","","","","","","","html-button-response","194","2.0.0","627682","66c3dfeeebce955a71524f5a","1","18","1311","","","","","","","","","<img src= rock_img/I_Andesite_01.jpg style=""width:8cm; height:5.87cm;""><p style='font-size: 30px; color: red;'><strong>Incorrect!</strong></p><p style='font-size: 30px;'><strong>This rock is andesite</strong></p>","0","corr_feedback","1","train","45","","","","","","","",""
"","","","","","","","","","","","html-button-response","195","2.0.0","631106","66c3dfeeebce955a71524f5a","1","18","3423","","","","","","","","","<img src= ""rock_img/I_Pegmatite_13.jpg"" style=""width:8cm; height:4.95cm;""><p>What type of rock is this?</p>","3","class_response","1","train","46","Gabbro","Pegmatite","13","false","4","6","",""
"","","","","","","","","","","","html-button-response","196","2.0.0","632298","66c3dfeeebce955a71524f5a","1","18","1191","","","","","","","","","<img src= rock_img/I_Pegmatite_13.jpg style=""width:8cm; height:4.95cm;""><p style='font-size: 30px; color: red;'><strong>Incorrect!</strong></p><p style='font-size: 30px;'><strong>This rock is pegmatite</strong></p>","0","corr_feedback","1","train","46","","","","","","","",""
"","","","","","","","","","","","html-button-response","197","2.0.0","637170","66c3dfeeebce955a71524f5a","1","18","4871","","","","","","","","","<img src= ""rock_img/I_Basalt_14.jpg"" style=""width:8cm; height:5.82cm;""><p>What type of rock is this?</p>","1","class_response","1","train","47","Basalt","Basalt","14","true","2","2","",""
"","","","","","","","","","","","html-button-response","198","2.0.0","638706","66c3dfeeebce955a71524f5a","1","18","1535","","","","","","","","","<img src= rock_img/I_Basalt_14.jpg style=""width:8cm; height:5.82cm;""><p style='font-size: 30px; color: green;'><strong>Correct!</strong></p><p style='font-size: 30px;'><strong>This rock is basalt</strong></p>","0","corr_feedback","1","train","47","","","","","","","",""
"","","","","","","","","","","","html-button-response","199","2.0.0","641562","66c3dfeeebce955a71524f5a","1","18","2855","","","","","","","","","<img src= ""rock_img/I_Basalt_12.jpg"" style=""width:8cm; height:6.010000000000001cm;""><p>What type of rock is this?</p>","7","class_response","1","train","48","Pumice","Basalt","12","false","8","2","",""
"","","","","","","","","","","","html-button-response","200","2.0.0","642866","66c3dfeeebce955a71524f5a","1","18","1303","","","","","","","","","<img src= rock_img/I_Basalt_12.jpg style=""width:8cm; height:6.010000000000001cm;""><p style='font-size: 30px; color: red;'><strong>Incorrect!</strong></p><p style='font-size: 30px;'><strong>This rock is basalt</strong></p>","0","corr_feedback","1","train","48","","","","","","","",""
"","","","","","","","","","","","instructions","203","2.0.0","667786","66c3dfeeebce955a71524f5a","1","18","24919","","","","","","","","[{""page_index"":0,""viewing_time"":8823},{""page_index"":1,""viewing_time"":16096}]","","","","","","","","","","","","","",""
"","","","","","","","","","","","html-button-response","204","2.0.0","670162","66c3dfeeebce955a71524f5a","1","18","2376","","","","","","","","","","0","start_test","","","","","","","","","","",""
"","","","","","","","","","","","html-button-response","205","2.0.0","673914","66c3dfeeebce955a71524f5a","1","18","3751","","","","","","","","","<img src= ""rock_img/I_Andesite_03.jpg"" style=""width:8cm; height:5.73cm;""><p>What type of rock is this?</p>","3","class_response","1","test","1","Gabbro","Andesite","03","false","4","1","",""
"","","","","","","","","","","","html-keyboard-response","206","2.0.0","674426","66c3dfeeebce955a71524f5a","1","18","null","","","","","","","","","<p style='font-size: 30px;'><strong>Okay</strong></p>","null","neutral_feedback","1","test","1","","","","","","","",""
"","","","","","","","","","","","html-button-response","207","2.0.0","682002","66c3dfeeebce955a71524f5a","1","18","7574","","","","","","","","","<img src= ""rock_img/I_Basalt_05.jpg"" style=""width:8cm; height:8.18cm;""><p>What type of rock is this?</p>","1","class_response","1","test","2","Basalt","Basalt","05","true","2","2","",""
"","","","","","","","","","","","html-keyboard-response","208","2.0.0","682510","66c3dfeeebce955a71524f5a","1","18","null","","","","","","","","","<p style='font-size: 30px;'><strong>Okay</strong></p>","null","neutral_feedback","1","test","2","","","","","","","",""
"","","","","","","","","","","","html-button-response","209","2.0.0","684410","66c3dfeeebce955a71524f5a","1","18","1898","","","","","","","","","<img src= ""rock_img/I_Pegmatite_15.jpg"" style=""width:8cm; height:6cm;""><p>What type of rock is this?</p>","5","class_response","1","test","3","Pegmatite","Pegmatite","15","true","6","6","",""
"","","","","","","","","","","","html-keyboard-response","210","2.0.0","684915","66c3dfeeebce955a71524f5a","1","18","null","","","","","","","","","<p style='font-size: 30px;'><strong>Okay</strong></p>","null","neutral_feedback","1","test","3","","","","","","","",""
"","","","","","","","","","","","html-button-response","211","2.0.0","686658","66c3dfeeebce955a71524f5a","1","18","1741","","","","","","","","","<img src= ""rock_img/I_Peridotite_15.jpg"" style=""width:8cm; height:6cm;""><p>What type of rock is this?</p>","6","class_response","1","test","4","Peridotite","Peridotite","15","true","7","7","",""
"","","","","","","","","","","","html-keyboard-response","212","2.0.0","687161","66c3dfeeebce955a71524f5a","1","18","null","","","","","","","","","<p style='font-size: 30px;'><strong>Okay</strong></p>","null","neutral_feedback","1","test","4","","","","","","","",""
"","","","","","","","","","","","html-button-response","213","2.0.0","688682","66c3dfeeebce955a71524f5a","1","18","1519","","","","","","","","","<img src= ""rock_img/I_Pumice_02.jpg"" style=""width:8cm; height:7.3999999999999995cm;""><p>What type of rock is this?</p>","7","class_response","1","test","5","Pumice","Pumice","02","true","8","8","",""
"","","","","","","","","","","","html-keyboard-response","214","2.0.0","689190","66c3dfeeebce955a71524f5a","1","18","null","","","","","","","","","<p style='font-size: 30px;'><strong>Okay</strong></p>","null","neutral_feedback","1","test","5","","","","","","","",""
"","","","","","","","","","","","html-button-response","215","2.0.0","691354","66c3dfeeebce955a71524f5a","1","18","2162","","","","","","","","","<img src= ""rock_img/I_Basalt_06.jpg"" style=""width:8cm; height:7.06cm;""><p>What type of rock is this?</p>","4","class_response","1","test","6","Obsidian","Basalt","06","false","5","2","",""
"","","","","","","","","","","","html-keyboard-response","216","2.0.0","691860","66c3dfeeebce955a71524f5a","1","18","null","","","","","","","","","<p style='font-size: 30px;'><strong>Okay</strong></p>","null","neutral_feedback","1","test","6","","","","","","","",""
"","","","","","","","","","","","html-button-response","217","2.0.0","696898","66c3dfeeebce955a71524f5a","1","18","5036","","","","","","","","","<img src= ""rock_img/I_Pumice_13.jpg"" style=""width:8cm; height:8.200000000000001cm;""><p>What type of rock is this?</p>","0","class_response","1","test","7","Andesite","Pumice","13","false","1","8","",""
"","","","","","","","","","","","html-keyboard-response","218","2.0.0","697406","66c3dfeeebce955a71524f5a","1","18","null","","","","","","","","","<p style='font-size: 30px;'><strong>Okay</strong></p>","null","neutral_feedback","1","test","7","","","","","","","",""
"","","","","","","","","","","","html-button-response","219","2.0.0","698706","66c3dfeeebce955a71524f5a","1","18","1298","","","","","","","","","<img src= ""rock_img/I_Obsidian_14.jpg"" style=""width:8cm; height:7.64cm;""><p>What type of rock is this?</p>","4","class_response","1","test","8","Obsidian","Obsidian","14","true","5","5","",""
"","","","","","","","","","","","html-keyboard-response","220","2.0.0","699214","66c3dfeeebce955a71524f5a","1","18","null","","","","","","","","","<p style='font-size: 30px;'><strong>Okay</strong></p>","null","neutral_feedback","1","test","8","","","","","","","",""
"","","","","","","","","","","","html-button-response","221","2.0.0","703538","66c3dfeeebce955a71524f5a","1","18","4322","","","","","","","","","<img src= ""rock_img/I_Gabbro_09.jpg"" style=""width:8cm; height:7.279999999999999cm;""><p>What type of rock is this?</p>","2","class_response","1","test","9","Diorite","Gabbro","09","false","3","4","",""
"","","","","","","","","","","","html-keyboard-response","222","2.0.0","704039","66c3dfeeebce955a71524f5a","1","18","null","","","","","","","","","<p style='font-size: 30px;'><strong>Okay</strong></p>","null","neutral_feedback","1","test","9","","","","","","","",""
"","","","","","","","","","","","html-button-response","223","2.0.0","709458","66c3dfeeebce955a71524f5a","1","18","5418","","","","","","","","","<img src= ""rock_img/I_Peridotite_07.jpg"" style=""width:8cm; height:4.83cm;""><p>What type of rock is this?</p>","3","class_response","1","test","10","Gabbro","Peridotite","07","false","4","7","",""
"","","","","","","","","","","","html-keyboard-response","224","2.0.0","709963","66c3dfeeebce955a71524f5a","1","18","null","","","","","","","","","<p style='font-size: 30px;'><strong>Okay</strong></p>","null","neutral_feedback","1","test","10","","","","","","","",""
"","","","","","","","","","","","html-button-response","225","2.0.0","712529","66c3dfeeebce955a71524f5a","1","18","2566","","","","","","","","","<img src= ""rock_img/I_Gabbro_11.jpg"" style=""width:8cm; height:6.2cm;""><p>What type of rock is this?</p>","0","class_response","1","test","11","Andesite","Gabbro","11","false","1","4","",""
"","","","","","","","","","","","html-keyboard-response","226","2.0.0","713036","66c3dfeeebce955a71524f5a","1","18","null","","","","","","","","","<p style='font-size: 30px;'><strong>Okay</strong></p>","null","neutral_feedback","1","test","11","","","","","","","",""
"","","","","","","","","","","","html-button-response","227","2.0.0","714554","66c3dfeeebce955a71524f5a","1","18","1515","","","","","","","","","<img src= ""rock_img/I_Obsidian_02.jpg"" style=""width:8cm; height:7.51cm;""><p>What type of rock is this?</p>","4","class_response","1","test","12","Obsidian","Obsidian","02","true","5","5","",""
"","","","","","","","","","","","html-keyboard-response","228","2.0.0","715066","66c3dfeeebce955a71524f5a","1","18","null","","","","","","","","","<p style='font-size: 30px;'><strong>Okay</strong></p>","null","neutral_feedback","1","test","12","","","","","","","",""
"","","","","","","","","","","","html-button-response","229","2.0.0","725049","66c3dfeeebce955a71524f5a","1","18","9981","","","","","","","","","<img src= ""rock_img/I_Andesite_11.jpg"" style=""width:8cm; height:4.92cm;""><p>What type of rock is this?</p>","4","class_response","1","test","13","Obsidian","Andesite","11","false","5","1","",""
"","","","","","","","","","","","html-keyboard-response","230","2.0.0","725558","66c3dfeeebce955a71524f5a","1","18","null","","","","","","","","","<p style='font-size: 30px;'><strong>Okay</strong></p>","null","neutral_feedback","1","test","13","","","","","","","",""
"","","","","","","","","","","","html-button-response","231","2.0.0","730529","66c3dfeeebce955a71524f5a","1","18","4970","","","","","","","","","<img src= ""rock_img/I_Diorite_02.jpg"" style=""width:8cm; height:6.27cm;""><p>What type of rock is this?</p>","2","class_response","1","test","14","Diorite","Diorite","02","true","3","3","",""
"","","","","","","","","","","","html-keyboard-response","232","2.0.0","731038","66c3dfeeebce955a71524f5a","1","18","null","","","","","","","","","<p style='font-size: 30px;'><strong>Okay</strong></p>","null","neutral_feedback","1","test","14","","","","","","","",""
"","","","","","","","","","","","html-button-response","233","2.0.0","735209","66c3dfeeebce955a71524f5a","1","18","4170","","","","","","","","","<img src= ""rock_img/I_Andesite_02.jpg"" style=""width:8cm; height:8.5cm;""><p>What type of rock is this?</p>","1","class_response","1","test","15","Basalt","Andesite","02","false","2","1","",""
"","","","","","","","","","","","html-keyboard-response","234","2.0.0","735722","66c3dfeeebce955a71524f5a","1","18","null","","","","","","","","","<p style='font-size: 30px;'><strong>Okay</strong></p>","null","neutral_feedback","1","test","15","","","","","","","",""
"","","","","","","","","","","","html-button-response","235","2.0.0","740202","66c3dfeeebce955a71524f5a","1","18","4479","","","","","","","","","<img src= ""rock_img/I_Diorite_08.jpg"" style=""width:8cm; height:6.37cm;""><p>What type of rock is this?</p>","2","class_response","1","test","16","Diorite","Diorite","08","true","3","3","",""
"","","","","","","","","","","","html-keyboard-response","236","2.0.0","740714","66c3dfeeebce955a71524f5a","1","18","null","","","","","","","","","<p style='font-size: 30px;'><strong>Okay</strong></p>","null","neutral_feedback","1","test","16","","","","","","","",""
"","","","","","","","","","","","html-button-response","237","2.0.0","742249","66c3dfeeebce955a71524f5a","1","18","1534","","","","","","","","","<img src= ""rock_img/I_Obsidian_16.jpg"" style=""width:8cm; height:9.3cm;""><p>What type of rock is this?</p>","4","class_response","1","test","17","Obsidian","Obsidian","16","true","5","5","",""
"","","","","","","","","","","","html-keyboard-response","238","2.0.0","742761","66c3dfeeebce955a71524f5a","1","18","null","","","","","","","","","<p style='font-size: 30px;'><strong>Okay</strong></p>","null","neutral_feedback","1","test","17","","","","","","","",""
"","","","","","","","","","","","html-button-response","239","2.0.0","744617","66c3dfeeebce955a71524f5a","1","18","1855","","","","","","","","","<img src= ""rock_img/I_Pegmatite_07.jpg"" style=""width:8cm; height:6.7cm;""><p>What type of rock is this?</p>","5","class_response","1","test","18","Pegmatite","Pegmatite","07","true","6","6","",""
"","","","","","","","","","","","html-keyboard-response","240","2.0.0","745121","66c3dfeeebce955a71524f5a","1","18","null","","","","","","","","","<p style='font-size: 30px;'><strong>Okay</strong></p>","null","neutral_feedback","1","test","18","","","","","","","",""
"","","","","","","","","","","","html-button-response","241","2.0.0","747225","66c3dfeeebce955a71524f5a","1","18","2103","","","","","","","","","<img src= ""rock_img/I_Pegmatite_05.jpg"" style=""width:8cm; height:7.300000000000001cm;""><p>What type of rock is this?</p>","5","class_response","1","test","19","Pegmatite","Pegmatite","05","true","6","6","",""
"","","","","","","","","","","","html-keyboard-response","242","2.0.0","747738","66c3dfeeebce955a71524f5a","1","18","null","","","","","","","","","<p style='font-size: 30px;'><strong>Okay</strong></p>","null","neutral_feedback","1","test","19","","","","","","","",""
"","","","","","","","","","","","html-button-response","243","2.0.0","748865","66c3dfeeebce955a71524f5a","1","18","1126","","","","","","","","","<img src= ""rock_img/I_Pegmatite_11.jpg"" style=""width:8cm; height:8.14cm;""><p>What type of rock is this?</p>","5","class_response","1","test","20","Pegmatite","Pegmatite","11","true","6","6","",""
"","","","","","","","","","","","html-keyboard-response","244","2.0.0","749376","66c3dfeeebce955a71524f5a","1","18","null","","","","","","","","","<p style='font-size: 30px;'><strong>Okay</strong></p>","null","neutral_feedback","1","test","20","","","","","","","",""
"","","","","","","","","","","","html-button-response","245","2.0.0","752322","66c3dfeeebce955a71524f5a","1","18","2945","","","","","","","","","<img src= ""rock_img/I_Basalt_09.jpg"" style=""width:8cm; height:6.2cm;""><p>What type of rock is this?</p>","3","class_response","1","test","21","Gabbro","Basalt","09","false","4","2","",""
"","","","","","","","","","","","html-keyboard-response","246","2.0.0","752827","66c3dfeeebce955a71524f5a","1","18","null","","","","","","","","","<p style='font-size: 30px;'><strong>Okay</strong></p>","null","neutral_feedback","1","test","21","","","","","","","",""
"","","","","","","","","","","","html-button-response","247","2.0.0","755033","66c3dfeeebce955a71524f5a","1","18","2204","","","","","","","","","<img src= ""rock_img/I_Diorite_14.jpg"" style=""width:8cm; height:5.71cm;""><p>What type of rock is this?</p>","2","class_response","1","test","22","Diorite","Diorite","14","true","3","3","",""
"","","","","","","","","","","","html-keyboard-response","248","2.0.0","755539","66c3dfeeebce955a71524f5a","1","18","null","","","","","","","","","<p style='font-size: 30px;'><strong>Okay</strong></p>","null","neutral_feedback","1","test","22","","","","","","","",""
"","","","","","","","","","","","html-button-response","249","2.0.0","758497","66c3dfeeebce955a71524f5a","1","18","2957","","","","","","","","","<img src= ""rock_img/I_Gabbro_15.jpg"" style=""width:8cm; height:6.29cm;""><p>What type of rock is this?</p>","1","class_response","1","test","23","Basalt","Gabbro","15","false","2","4","",""
"","","","","","","","","","","","html-keyboard-response","250","2.0.0","759001","66c3dfeeebce955a71524f5a","1","18","null","","","","","","","","","<p style='font-size: 30px;'><strong>Okay</strong></p>","null","neutral_feedback","1","test","23","","","","","","","",""
"","","","","","","","","","","","html-button-response","251","2.0.0","760585","66c3dfeeebce955a71524f5a","1","18","1583","","","","","","","","","<img src= ""rock_img/I_Basalt_02.jpg"" style=""width:8cm; height:6.45cm;""><p>What type of rock is this?</p>","0","class_response","1","test","24","Andesite","Basalt","02","false","1","2","",""
"","","","","","","","","","","","html-keyboard-response","252","2.0.0","761094","66c3dfeeebce955a71524f5a","1","18","null","","","","","","","","","<p style='font-size: 30px;'><strong>Okay</strong></p>","null","neutral_feedback","1","test","24","","","","","","","",""
"","","","","","","","","","","","html-button-response","253","2.0.0","763778","66c3dfeeebce955a71524f5a","1","18","2682","","","","","","","","","<img src= ""rock_img/I_Peridotite_04.jpg"" style=""width:8cm; height:6.680000000000001cm;""><p>What type of rock is this?</p>","6","class_response","1","test","25","Peridotite","Peridotite","04","true","7","7","",""
"","","","","","","","","","","","html-keyboard-response","254","2.0.0","764279","66c3dfeeebce955a71524f5a","1","18","null","","","","","","","","","<p style='font-size: 30px;'><strong>Okay</strong></p>","null","neutral_feedback","1","test","25","","","","","","","",""
"","","","","","","","","","","","html-button-response","255","2.0.0","766433","66c3dfeeebce955a71524f5a","1","18","2154","","","","","","","","","<img src= ""rock_img/I_Pumice_15.jpg"" style=""width:8cm; height:7.86cm;""><p>What type of rock is this?</p>","7","class_response","1","test","26","Pumice","Pumice","15","true","8","8","",""
"","","","","","","","","","","","html-keyboard-response","256","2.0.0","766949","66c3dfeeebce955a71524f5a","1","18","null","","","","","","","","","<p style='font-size: 30px;'><strong>Okay</strong></p>","null","neutral_feedback","1","test","26","","","","","","","",""
"","","","","","","","","","","","html-button-response","257","2.0.0","773753","66c3dfeeebce955a71524f5a","1","18","6802","","","","","","","","","<img src= ""rock_img/I_Obsidian_07.jpg"" style=""width:8cm; height:4.76cm;""><p>What type of rock is this?</p>","2","class_response","1","test","27","Diorite","Obsidian","07","false","3","5","",""
"","","","","","","","","","","","html-keyboard-response","258","2.0.0","774266","66c3dfeeebce955a71524f5a","1","18","null","","","","","","","","","<p style='font-size: 30px;'><strong>Okay</strong></p>","null","neutral_feedback","1","test","27","","","","","","","",""
"","","","","","","","","","","","html-button-response","259","2.0.0","779785","66c3dfeeebce955a71524f5a","1","18","5518","","","","","","","","","<img src= ""rock_img/I_Obsidian_06.jpg"" style=""width:8cm; height:6.8cm;""><p>What type of rock is this?</p>","4","class_response","1","test","28","Obsidian","Obsidian","06","true","5","5","",""
"","","","","","","","","","","","html-keyboard-response","260","2.0.0","780286","66c3dfeeebce955a71524f5a","1","18","null","","","","","","","","","<p style='font-size: 30px;'><strong>Okay</strong></p>","null","neutral_feedback","1","test","28","","","","","","","",""
"","","","","","","","","","","","html-button-response","261","2.0.0","785585","66c3dfeeebce955a71524f5a","1","18","5298","","","","","","","","","<img src= ""rock_img/I_Gabbro_05.jpg"" style=""width:8cm; height:6cm;""><p>What type of rock is this?</p>","0","class_response","1","test","29","Andesite","Gabbro","05","false","1","4","",""
"","","","","","","","","","","","html-keyboard-response","262","2.0.0","786090","66c3dfeeebce955a71524f5a","1","18","null","","","","","","","","","<p style='font-size: 30px;'><strong>Okay</strong></p>","null","neutral_feedback","1","test","29","","","","","","","",""
"","","","","","","","","","","","html-button-response","263","2.0.0","788481","66c3dfeeebce955a71524f5a","1","18","2389","","","","","","","","","<img src= ""rock_img/I_Peridotite_05.jpg"" style=""width:8cm; height:7.1499999999999995cm;""><p>What type of rock is this?</p>","3","class_response","1","test","30","Gabbro","Peridotite","05","false","4","7","",""
"","","","","","","","","","","","html-keyboard-response","264","2.0.0","788990","66c3dfeeebce955a71524f5a","1","18","null","","","","","","","","","<p style='font-size: 30px;'><strong>Okay</strong></p>","null","neutral_feedback","1","test","30","","","","","","","",""
"","","","","","","","","","","","html-button-response","265","2.0.0","793129","66c3dfeeebce955a71524f5a","1","18","4137","","","","","","","","","<img src= ""rock_img/I_Andesite_16.jpg"" style=""width:8cm; height:6.010000000000001cm;""><p>What type of rock is this?</p>","2","class_response","1","test","31","Diorite","Andesite","16","false","3","1","",""
"","","","","","","","","","","","html-keyboard-response","266","2.0.0","793632","66c3dfeeebce955a71524f5a","1","18","null","","","","","","","","","<p style='font-size: 30px;'><strong>Okay</strong></p>","null","neutral_feedback","1","test","31","","","","","","","",""
"","","","","","","","","","","","html-button-response","267","2.0.0","796041","66c3dfeeebce955a71524f5a","1","18","2407","","","","","","","","","<img src= ""rock_img/I_Pegmatite_09.jpg"" style=""width:8cm; height:4.03cm;""><p>What type of rock is this?</p>","6","class_response","1","test","32","Peridotite","Pegmatite","09","false","7","6","",""
"","","","","","","","","","","","html-keyboard-response","268","2.0.0","796547","66c3dfeeebce955a71524f5a","1","18","null","","","","","","","","","<p style='font-size: 30px;'><strong>Okay</strong></p>","null","neutral_feedback","1","test","32","","","","","","","",""
"","","","","","","","","","","","html-button-response","269","2.0.0","802961","66c3dfeeebce955a71524f5a","1","18","6414","","","","","","","","","<img src= ""rock_img/I_Pegmatite_06.jpg"" style=""width:8cm; height:5.17cm;""><p>What type of rock is this?</p>","5","class_response","1","test","33","Pegmatite","Pegmatite","06","true","6","6","",""
"","","","","","","","","","","","html-keyboard-response","270","2.0.0","803470","66c3dfeeebce955a71524f5a","1","18","null","","","","","","","","","<p style='font-size: 30px;'><strong>Okay</strong></p>","null","neutral_feedback","1","test","33","","","","","","","",""
"","","","","","","","","","","","html-button-response","271","2.0.0","805521","66c3dfeeebce955a71524f5a","1","18","2050","","","","","","","","","<img src= ""rock_img/I_Diorite_13.jpg"" style=""width:8cm; height:6.29cm;""><p>What type of rock is this?</p>","2","class_response","1","test","34","Diorite","Diorite","13","true","3","3","",""
"","","","","","","","","","","","html-keyboard-response","272","2.0.0","806025","66c3dfeeebce955a71524f5a","1","18","null","","","","","","","","","<p style='font-size: 30px;'><strong>Okay</strong></p>","null","neutral_feedback","1","test","34","","","","","","","",""
"","","","","","","","","","","","html-button-response","273","2.0.0","809049","66c3dfeeebce955a71524f5a","1","18","3022","","","","","","","","","<img src= ""rock_img/I_Andesite_05.jpg"" style=""width:8cm; height:4.12cm;""><p>What type of rock is this?</p>","0","class_response","1","test","35","Andesite","Andesite","05","true","1","1","",""
"","","","","","","","","","","","html-keyboard-response","274","2.0.0","809552","66c3dfeeebce955a71524f5a","1","18","null","","","","","","","","","<p style='font-size: 30px;'><strong>Okay</strong></p>","null","neutral_feedback","1","test","35","","","","","","","",""
"","","","","","","","","","","","html-button-response","275","2.0.0","812217","66c3dfeeebce955a71524f5a","1","18","2664","","","","","","","","","<img src= ""rock_img/I_Basalt_16.jpg"" style=""width:8cm; height:7.659999999999999cm;""><p>What type of rock is this?</p>","7","class_response","1","test","36","Pumice","Basalt","16","false","8","2","",""
"","","","","","","","","","","","html-keyboard-response","276","2.0.0","812719","66c3dfeeebce955a71524f5a","1","18","null","","","","","","","","","<p style='font-size: 30px;'><strong>Okay</strong></p>","null","neutral_feedback","1","test","36","","","","","","","",""
"","","","","","","","","","","","html-button-response","277","2.0.0","815257","66c3dfeeebce955a71524f5a","1","18","2538","","","","","","","","","<img src= ""rock_img/I_Diorite_09.jpg"" style=""width:8cm; height:5.27cm;""><p>What type of rock is this?</p>","2","class_response","1","test","37","Diorite","Diorite","09","true","3","3","",""
"","","","","","","","","","","","html-keyboard-response","278","2.0.0","815763","66c3dfeeebce955a71524f5a","1","18","null","","","","","","","","","<p style='font-size: 30px;'><strong>Okay</strong></p>","null","neutral_feedback","1","test","37","","","","","","","",""
"","","","","","","","","","","","html-button-response","279","2.0.0","817273","66c3dfeeebce955a71524f5a","1","18","1509","","","","","","","","","<img src= ""rock_img/I_Pumice_06.jpg"" style=""width:8cm; height:6.9399999999999995cm;""><p>What type of rock is this?</p>","7","class_response","1","test","38","Pumice","Pumice","06","true","8","8","",""
"","","","","","","","","","","","html-keyboard-response","280","2.0.0","817787","66c3dfeeebce955a71524f5a","1","18","null","","","","","","","","","<p style='font-size: 30px;'><strong>Okay</strong></p>","null","neutral_feedback","1","test","38","","","","","","","",""
"","","","","","","","","","","","html-button-response","281","2.0.0","820681","66c3dfeeebce955a71524f5a","1","18","2894","","","","","","","","","<img src= ""rock_img/I_Andesite_07.jpg"" style=""width:8cm; height:5.93cm;""><p>What type of rock is this?</p>","2","class_response","1","test","39","Diorite","Andesite","07","false","3","1","",""
"","","","","","","","","","","","html-keyboard-response","282","2.0.0","821190","66c3dfeeebce955a71524f5a","1","18","null","","","","","","","","","<p style='font-size: 30px;'><strong>Okay</strong></p>","null","neutral_feedback","1","test","39","","","","","","","",""
"","","","","","","","","","","","html-button-response","283","2.0.0","822753","66c3dfeeebce955a71524f5a","1","18","1562","","","","","","","","","<img src= ""rock_img/I_Pumice_05.jpg"" style=""width:8cm; height:7.25cm;""><p>What type of rock is this?</p>","7","class_response","1","test","40","Pumice","Pumice","05","true","8","8","",""
"","","","","","","","","","","","html-keyboard-response","284","2.0.0","823268","66c3dfeeebce955a71524f5a","1","18","null","","","","","","","","","<p style='font-size: 30px;'><strong>Okay</strong></p>","null","neutral_feedback","1","test","40","","","","","","","",""
"","","","","","","","","","","","html-button-response","285","2.0.0","825633","66c3dfeeebce955a71524f5a","1","18","2363","","","","","","","","","<img src= ""rock_img/I_Basalt_04.jpg"" style=""width:8cm; height:7.53cm;""><p>What type of rock is this?</p>","4","class_response","1","test","41","Obsidian","Basalt","04","false","5","2","",""
"","","","","","","","","","","","html-keyboard-response","286","2.0.0","826135","66c3dfeeebce955a71524f5a","1","18","null","","","","","","","","","<p style='font-size: 30px;'><strong>Okay</strong></p>","null","neutral_feedback","1","test","41","","","","","","","",""
"","","","","","","","","","","","html-button-response","287","2.0.0","829001","66c3dfeeebce955a71524f5a","1","18","2865","","","","","","","","","<img src= ""rock_img/I_Diorite_16.jpg"" style=""width:8cm; height:6.74cm;""><p>What type of rock is this?</p>","2","class_response","1","test","42","Diorite","Diorite","16","true","3","3","",""
"","","","","","","","","","","","html-keyboard-response","288","2.0.0","829517","66c3dfeeebce955a71524f5a","1","18","null","","","","","","","","","<p style='font-size: 30px;'><strong>Okay</strong></p>","null","neutral_feedback","1","test","42","","","","","","","",""
"","","","","","","","","","","","html-button-response","289","2.0.0","834673","66c3dfeeebce955a71524f5a","1","18","5155","","","","","","","","","<img src= ""rock_img/I_Gabbro_10.jpg"" style=""width:8cm; height:5.680000000000001cm;""><p>What type of rock is this?</p>","1","class_response","1","test","43","Basalt","Gabbro","10","false","2","4","",""
"","","","","","","","","","","","html-keyboard-response","290","2.0.0","835177","66c3dfeeebce955a71524f5a","1","18","null","","","","","","","","","<p style='font-size: 30px;'><strong>Okay</strong></p>","null","neutral_feedback","1","test","43","","","","","","","",""
"","","","","","","","","","","","html-button-response","291","2.0.0","837097","66c3dfeeebce955a71524f5a","1","18","1918","","","","","","","","","<img src= ""rock_img/I_Pumice_16.jpg"" style=""width:8cm; height:6.79cm;""><p>What type of rock is this?</p>","7","class_response","1","test","44","Pumice","Pumice","16","true","8","8","",""
"","","","","","","","","","","","html-keyboard-response","292","2.0.0","837609","66c3dfeeebce955a71524f5a","1","18","null","","","","","","","","","<p style='font-size: 30px;'><strong>Okay</strong></p>","null","neutral_feedback","1","test","44","","","","","","","",""
"","","","","","","","","","","","html-button-response","293","2.0.0","840457","66c3dfeeebce955a71524f5a","1","18","2846","","","","","","","","","<img src= ""rock_img/I_Peridotite_02.jpg"" style=""width:8cm; height:5.859999999999999cm;""><p>What type of rock is this?</p>","6","class_response","1","test","45","Peridotite","Peridotite","02","true","7","7","",""
"","","","","","","","","","","","html-keyboard-response","294","2.0.0","840961","66c3dfeeebce955a71524f5a","1","18","null","","","","","","","","","<p style='font-size: 30px;'><strong>Okay</strong></p>","null","neutral_feedback","1","test","45","","","","","","","",""
"","","","","","","","","","","","html-button-response","295","2.0.0","842473","66c3dfeeebce955a71524f5a","1","18","1511","","","","","","","","","<img src= ""rock_img/I_Obsidian_09.jpg"" style=""width:8cm; height:5cm;""><p>What type of rock is this?</p>","4","class_response","1","test","46","Obsidian","Obsidian","09","true","5","5","",""
"","","","","","","","","","","","html-keyboard-response","296","2.0.0","842981","66c3dfeeebce955a71524f5a","1","18","null","","","","","","","","","<p style='font-size: 30px;'><strong>Okay</strong></p>","null","neutral_feedback","1","test","46","","","","","","","",""
"","","","","","","","","","","","html-button-response","297","2.0.0","846488","66c3dfeeebce955a71524f5a","1","18","3506","","","","","","","","","<img src= ""rock_img/I_Gabbro_12.jpg"" style=""width:8cm; height:7.800000000000001cm;""><p>What type of rock is this?</p>","3","class_response","1","test","47","Gabbro","Gabbro","12","true","4","4","",""
"","","","","","","","","","","","html-keyboard-response","298","2.0.0","846997","66c3dfeeebce955a71524f5a","1","18","null","","","","","","","","","<p style='font-size: 30px;'><strong>Okay</strong></p>","null","neutral_feedback","1","test","47","","","","","","","",""
"","","","","","","","","","","","html-button-response","299","2.0.0","849361","66c3dfeeebce955a71524f5a","1","18","2362","","","","","","","","","<img src= ""rock_img/I_Peridotite_16.jpg"" style=""width:8cm; height:6.989999999999999cm;""><p>What type of rock is this?</p>","6","class_response","1","test","48","Peridotite","Peridotite","16","true","7","7","",""
"","","","","","","","","","","","html-keyboard-response","300","2.0.0","849866","66c3dfeeebce955a71524f5a","1","18","null","","","","","","","","","<p style='font-size: 30px;'><strong>Okay</strong></p>","null","neutral_feedback","1","test","48","","","","","","","",""
"","","","","","","","","","","","html-button-response","301","2.0.0","872569","66c3dfeeebce955a71524f5a","1","18","","","","","","","","","","","","cycle_feedback","","","","","","","","","","9960","12736"
"","","","","","","","","","","","html-button-response","303","2.0.0","876641","66c3dfeeebce955a71524f5a","1","18","4071","","","","","","","","","","0","start_train","","","","","","","","","","",""
"","","","","","","","","","","","html-button-response","304","2.0.0","880705","66c3dfeeebce955a71524f5a","1","18","4063","","","","","","","","","<img src= ""rock_img/I_Pegmatite_12.jpg"" style=""width:8cm; height:5.7cm;""><p>What type of rock is this?</p>","5","class_response","2","train","1","Pegmatite","Pegmatite","12","true","6","6","",""
