"width","height","webaudio","browser","browser_version","mobile","os","fullscreen","vsync_rate","webcam","microphone","trial_type","trial_index","plugin_version","time_elapsed","subjID","condition","stimID","rt","url","success","value","timeout","failed_images","failed_audio","failed_video","view_history","stimulus","response","trialType","cycle","phase","trial","resp","cat","token","corr","resp_num","cat_num","time_fb1","time_fb2"
"1358","650","true","edge-chromium","130.0.0","false","Windows 10","true","58.52","true","true","browser-check","0","2.0.0","1060","66f0eda58aabb19b40a60936","1","6","","","","","","","","","","","","","","","","","","","","","","",""
"","","","","","","","","","","","external-html","1","2.0.0","15327","66f0eda58aabb19b40a60936","1","6","14154","consent_form.html","","","","","","","","","","","","","","","","","","","","",""
"","","","","","","","","","","","fullscreen","2","2.0.0","19905","66f0eda58aabb19b40a60936","1","6","3559","","true","","","","","","","","","","","","","","","","","","","",""
"","","","","","","","","","","","call-function","3","2.0.0","19918","66f0eda58aabb19b40a60936","1","6","","","","{}","","","","","","","","","","","","","","","","","","",""
"","","","","","","","","","","","preload","4","2.0.0","22479","66f0eda58aabb19b40a60936","1","6","","","true","","false","[]","[]","[]","","","","","","","","","","","","","","",""
"","","","","","","","","","","","instructions","5","2.0.0","59323","66f0eda58aabb19b40a60936","1","6","36841","","","","","","","","[{""page_index"":0,""viewing_time"":9417},{""page_index"":1,""viewing_time"":17616},{""page_index"":2,""viewing_time"":9808}]","","","","","","","","","","","","","",""
"","","","","","","","","","","","html-button-response","6","2.0.0","61933","66f0eda58aabb19b40a60936","1","6","2606","","","","","","","","","","0","start_test","","","","","","","","","","",""
"","","","","","","","","","","","html-button-response","7","2.0.0","74107","66f0eda58aabb19b40a60936","1","6","12169","","","","","","","","","<img src= ""rock_img/I_Gabbro_15.jpg"" style=""width:8cm; height:6.29cm;""><p>What type of rock is this?</p>","7","class_response","0","test","1","Pumice","Gabbro","15","false","8","4","",""
"","","","","","","","","","","","html-keyboard-response","8","2.0.0","74613","66f0eda58aabb19b40a60936","1","6","null","","","","","","","","","<p style='font-size: 30px;'><strong>Okay</strong></p>","null","neutral_feedback","0","test","1","","","","","","","",""
"","","","","","","","","","","","html-button-response","9","2.0.0","77400","66f0eda58aabb19b40a60936","1","6","2783","","","","","","","","","<img src= ""rock_img/I_Basalt_12.jpg"" style=""width:8cm; height:6.010000000000001cm;""><p>What type of rock is this?</p>","7","class_response","0","test","2","Pumice","Basalt","12","false","8","2","",""
"","","","","","","","","","","","html-keyboard-response","10","2.0.0","77905","66f0eda58aabb19b40a60936","1","6","null","","","","","","","","","<p style='font-size: 30px;'><strong>Okay</strong></p>","null","neutral_feedback","0","test","2","","","","","","","",""
"","","","","","","","","","","","html-button-response","11","2.0.0","82551","66f0eda58aabb19b40a60936","1","6","4640","","","","","","","","","<img src= ""rock_img/I_Diorite_06.jpg"" style=""width:8cm; height:6.03cm;""><p>What type of rock is this?</p>","4","class_response","0","test","3","Obsidian","Diorite","06","false","5","3","",""
"","","","","","","","","","","","html-keyboard-response","12","2.0.0","83061","66f0eda58aabb19b40a60936","1","6","null","","","","","","","","","<p style='font-size: 30px;'><strong>Okay</strong></p>","null","neutral_feedback","0","test","3","","","","","","","",""
"","","","","","","","","","","","html-button-response","13","2.0.0","85067","66f0eda58aabb19b40a60936","1","6","2000","","","","","","","","","<img src= ""rock_img/I_Andesite_02.jpg"" style=""width:8cm; height:8.5cm;""><p>What type of rock is this?</p>","0","class_response","0","test","4","Andesite","Andesite","02","true","1","1","",""
"","","","","","","","","","","","html-keyboard-response","14","2.0.0","85577","66f0eda58aabb19b40a60936","1","6","null","","","","","","","","","<p style='font-size: 30px;'><strong>Okay</strong></p>","null","neutral_feedback","0","test","4","","","","","","","",""
"","","","","","","","","","","","html-button-response","15","2.0.0","88638","66f0eda58aabb19b40a60936","1","6","3057","","","","","","","","","<img src= ""rock_img/I_Obsidian_16.jpg"" style=""width:8cm; height:9.3cm;""><p>What type of rock is this?</p>","1","class_response","0","test","5","Basalt","Obsidian","16","false","2","5","",""
"","","","","","","","","","","","html-keyboard-response","16","2.0.0","89146","66f0eda58aabb19b40a60936","1","6","null","","","","","","","","","<p style='font-size: 30px;'><strong>Okay</strong></p>","null","neutral_feedback","0","test","5","","","","","","","",""
"","","","","","","","","","","","html-button-response","17","2.0.0","91158","66f0eda58aabb19b40a60936","1","6","2007","","","","","","","","","<img src= ""rock_img/I_Andesite_14.jpg"" style=""width:8cm; height:5.449999999999999cm;""><p>What type of rock is this?</p>","2","class_response","0","test","6","Diorite","Andesite","14","false","3","1","",""
"","","","","","","","","","","","html-keyboard-response","18","2.0.0","91661","66f0eda58aabb19b40a60936","1","6","null","","","","","","","","","<p style='font-size: 30px;'><strong>Okay</strong></p>","null","neutral_feedback","0","test","6","","","","","","","",""
"","","","","","","","","","","","html-button-response","19","2.0.0","93334","66f0eda58aabb19b40a60936","1","6","1669","","","","","","","","","<img src= ""rock_img/I_Pumice_04.jpg"" style=""width:8cm; height:6.819999999999999cm;""><p>What type of rock is this?</p>","3","class_response","0","test","7","Gabbro","Pumice","04","false","4","8","",""
"","","","","","","","","","","","html-keyboard-response","20","2.0.0","93838","66f0eda58aabb19b40a60936","1","6","null","","","","","","","","","<p style='font-size: 30px;'><strong>Okay</strong></p>","null","neutral_feedback","0","test","7","","","","","","","",""
"","","","","","","","","","","","html-button-response","21","2.0.0","95375","66f0eda58aabb19b40a60936","1","6","1532","","","","","","","","","<img src= ""rock_img/I_Diorite_13.jpg"" style=""width:8cm; height:6.29cm;""><p>What type of rock is this?</p>","6","class_response","0","test","8","Peridotite","Diorite","13","false","7","3","",""
"","","","","","","","","","","","html-keyboard-response","22","2.0.0","95880","66f0eda58aabb19b40a60936","1","6","null","","","","","","","","","<p style='font-size: 30px;'><strong>Okay</strong></p>","null","neutral_feedback","0","test","8","","","","","","","",""
"","","","","","","","","","","","html-button-response","23","2.0.0","98236","66f0eda58aabb19b40a60936","1","6","2346","","","","","","","","","<img src= ""rock_img/I_Peridotite_15.jpg"" style=""width:8cm; height:6cm;""><p>What type of rock is this?</p>","5","class_response","0","test","9","Pegmatite","Peridotite","15","false","6","7","",""
"","","","","","","","","","","","html-keyboard-response","24","2.0.0","98751","66f0eda58aabb19b40a60936","1","6","null","","","","","","","","","<p style='font-size: 30px;'><strong>Okay</strong></p>","null","neutral_feedback","0","test","9","","","","","","","",""
"","","","","","","","","","","","html-button-response","25","2.0.0","102774","66f0eda58aabb19b40a60936","1","6","4019","","","","","","","","","<img src= ""rock_img/I_Basalt_02.jpg"" style=""width:8cm; height:6.45cm;""><p>What type of rock is this?</p>","1","class_response","0","test","10","Basalt","Basalt","02","true","2","2","",""
"","","","","","","","","","","","html-keyboard-response","26","2.0.0","103283","66f0eda58aabb19b40a60936","1","6","null","","","","","","","","","<p style='font-size: 30px;'><strong>Okay</strong></p>","null","neutral_feedback","0","test","10","","","","","","","",""
"","","","","","","","","","","","html-button-response","27","2.0.0","104838","66f0eda58aabb19b40a60936","1","6","1550","","","","","","","","","<img src= ""rock_img/I_Gabbro_13.jpg"" style=""width:8cm; height:5.08cm;""><p>What type of rock is this?</p>","2","class_response","0","test","11","Diorite","Gabbro","13","false","3","4","",""
"","","","","","","","","","","","html-keyboard-response","28","2.0.0","105346","66f0eda58aabb19b40a60936","1","6","null","","","","","","","","","<p style='font-size: 30px;'><strong>Okay</strong></p>","null","neutral_feedback","0","test","11","","","","","","","",""
"","","","","","","","","","","","html-button-response","29","2.0.0","106490","66f0eda58aabb19b40a60936","1","6","1141","","","","","","","","","<img src= ""rock_img/I_Gabbro_10.jpg"" style=""width:8cm; height:5.680000000000001cm;""><p>What type of rock is this?</p>","3","class_response","0","test","12","Gabbro","Gabbro","10","true","4","4","",""
"","","","","","","","","","","","html-keyboard-response","30","2.0.0","107003","66f0eda58aabb19b40a60936","1","6","null","","","","","","","","","<p style='font-size: 30px;'><strong>Okay</strong></p>","null","neutral_feedback","0","test","12","","","","","","","",""
"","","","","","","","","","","","html-button-response","31","2.0.0","108258","66f0eda58aabb19b40a60936","1","6","1251","","","","","","","","","<img src= ""rock_img/I_Pumice_03.jpg"" style=""width:8cm; height:6.64cm;""><p>What type of rock is this?</p>","7","class_response","0","test","13","Pumice","Pumice","03","true","8","8","",""
"","","","","","","","","","","","html-keyboard-response","32","2.0.0","108766","66f0eda58aabb19b40a60936","1","6","null","","","","","","","","","<p style='font-size: 30px;'><strong>Okay</strong></p>","null","neutral_feedback","0","test","13","","","","","","","",""
"","","","","","","","","","","","html-button-response","33","2.0.0","109710","66f0eda58aabb19b40a60936","1","6","940","","","","","","","","","<img src= ""rock_img/I_Peridotite_08.jpg"" style=""width:8cm; height:6.7cm;""><p>What type of rock is this?</p>","6","class_response","0","test","14","Peridotite","Peridotite","08","true","7","7","",""
"","","","","","","","","","","","html-keyboard-response","34","2.0.0","110227","66f0eda58aabb19b40a60936","1","6","null","","","","","","","","","<p style='font-size: 30px;'><strong>Okay</strong></p>","null","neutral_feedback","0","test","14","","","","","","","",""
"","","","","","","","","","","","html-button-response","35","2.0.0","111766","66f0eda58aabb19b40a60936","1","6","1536","","","","","","","","","<img src= ""rock_img/I_Pumice_13.jpg"" style=""width:8cm; height:8.200000000000001cm;""><p>What type of rock is this?</p>","0","class_response","0","test","15","Andesite","Pumice","13","false","1","8","",""
"","","","","","","","","","","","html-keyboard-response","36","2.0.0","112270","66f0eda58aabb19b40a60936","1","6","null","","","","","","","","","<p style='font-size: 30px;'><strong>Okay</strong></p>","null","neutral_feedback","0","test","15","","","","","","","",""
"","","","","","","","","","","","html-button-response","37","2.0.0","114274","66f0eda58aabb19b40a60936","1","6","2000","","","","","","","","","<img src= ""rock_img/I_Basalt_05.jpg"" style=""width:8cm; height:8.18cm;""><p>What type of rock is this?</p>","4","class_response","0","test","16","Obsidian","Basalt","05","false","5","2","",""
"","","","","","","","","","","","html-keyboard-response","38","2.0.0","114788","66f0eda58aabb19b40a60936","1","6","null","","","","","","","","","<p style='font-size: 30px;'><strong>Okay</strong></p>","null","neutral_feedback","0","test","16","","","","","","","",""
"","","","","","","","","","","","html-button-response","39","2.0.0","116769","66f0eda58aabb19b40a60936","1","6","1975","","","","","","","","","<img src= ""rock_img/I_Diorite_14.jpg"" style=""width:8cm; height:5.71cm;""><p>What type of rock is this?</p>","5","class_response","0","test","17","Pegmatite","Diorite","14","false","6","3","",""
"","","","","","","","","","","","html-keyboard-response","40","2.0.0","117272","66f0eda58aabb19b40a60936","1","6","null","","","","","","","","","<p style='font-size: 30px;'><strong>Okay</strong></p>","null","neutral_feedback","0","test","17","","","","","","","",""
"","","","","","","","","","","","html-button-response","41","2.0.0","118489","66f0eda58aabb19b40a60936","1","6","1214","","","","","","","","","<img src= ""rock_img/I_Pegmatite_07.jpg"" style=""width:8cm; height:6.7cm;""><p>What type of rock is this?</p>","2","class_response","0","test","18","Diorite","Pegmatite","07","false","3","6","",""
"","","","","","","","","","","","html-keyboard-response","42","2.0.0","118993","66f0eda58aabb19b40a60936","1","6","null","","","","","","","","","<p style='font-size: 30px;'><strong>Okay</strong></p>","null","neutral_feedback","0","test","18","","","","","","","",""
"","","","","","","","","","","","html-button-response","43","2.0.0","120098","66f0eda58aabb19b40a60936","1","6","1102","","","","","","","","","<img src= ""rock_img/I_Diorite_16.jpg"" style=""width:8cm; height:6.74cm;""><p>What type of rock is this?</p>","3","class_response","0","test","19","Gabbro","Diorite","16","false","4","3","",""
"","","","","","","","","","","","html-keyboard-response","44","2.0.0","120612","66f0eda58aabb19b40a60936","1","6","null","","","","","","","","","<p style='font-size: 30px;'><strong>Okay</strong></p>","null","neutral_feedback","0","test","19","","","","","","","",""
"","","","","","","","","","","","html-button-response","45","2.0.0","122594","66f0eda58aabb19b40a60936","1","6","1978","","","","","","","","","<img src= ""rock_img/I_Obsidian_06.jpg"" style=""width:8cm; height:6.8cm;""><p>What type of rock is this?</p>","4","class_response","0","test","20","Obsidian","Obsidian","06","true","5","5","",""
"","","","","","","","","","","","html-keyboard-response","46","2.0.0","123100","66f0eda58aabb19b40a60936","1","6","null","","","","","","","","","<p style='font-size: 30px;'><strong>Okay</strong></p>","null","neutral_feedback","0","test","20","","","","","","","",""
"","","","","","","","","","","","html-button-response","47","2.0.0","125807","66f0eda58aabb19b40a60936","1","6","2702","","","","","","","","","<img src= ""rock_img/I_Basalt_16.jpg"" style=""width:8cm; height:7.659999999999999cm;""><p>What type of rock is this?</p>","7","class_response","0","test","21","Pumice","Basalt","16","false","8","2","",""
"","","","","","","","","","","","html-keyboard-response","48","2.0.0","126322","66f0eda58aabb19b40a60936","1","6","null","","","","","","","","","<p style='font-size: 30px;'><strong>Okay</strong></p>","null","neutral_feedback","0","test","21","","","","","","","",""
"","","","","","","","","","","","html-button-response","49","2.0.0","127762","66f0eda58aabb19b40a60936","1","6","1437","","","","","","","","","<img src= ""rock_img/I_Pumice_06.jpg"" style=""width:8cm; height:6.9399999999999995cm;""><p>What type of rock is this?</p>","0","class_response","0","test","22","Andesite","Pumice","06","false","1","8","",""
"","","","","","","","","","","","html-keyboard-response","50","2.0.0","128270","66f0eda58aabb19b40a60936","1","6","null","","","","","","","","","<p style='font-size: 30px;'><strong>Okay</strong></p>","null","neutral_feedback","0","test","22","","","","","","","",""
"","","","","","","","","","","","html-button-response","51","2.0.0","129850","66f0eda58aabb19b40a60936","1","6","1576","","","","","","","","","<img src= ""rock_img/I_Pegmatite_05.jpg"" style=""width:8cm; height:7.300000000000001cm;""><p>What type of rock is this?</p>","1","class_response","0","test","23","Basalt","Pegmatite","05","false","2","6","",""
"","","","","","","","","","","","html-keyboard-response","52","2.0.0","130356","66f0eda58aabb19b40a60936","1","6","null","","","","","","","","","<p style='font-size: 30px;'><strong>Okay</strong></p>","null","neutral_feedback","0","test","23","","","","","","","",""
"","","","","","","","","","","","html-button-response","53","2.0.0","131446","66f0eda58aabb19b40a60936","1","6","1086","","","","","","","","","<img src= ""rock_img/I_Gabbro_16.jpg"" style=""width:8cm; height:6.44cm;""><p>What type of rock is this?</p>","2","class_response","0","test","24","Diorite","Gabbro","16","false","3","4","",""
"","","","","","","","","","","","html-keyboard-response","54","2.0.0","131951","66f0eda58aabb19b40a60936","1","6","null","","","","","","","","","<p style='font-size: 30px;'><strong>Okay</strong></p>","null","neutral_feedback","0","test","24","","","","","","","",""
"","","","","","","","","","","","html-button-response","55","2.0.0","134331","66f0eda58aabb19b40a60936","1","6","2373","","","","","","","","","<img src= ""rock_img/I_Obsidian_04.jpg"" style=""width:8cm; height:6.930000000000001cm;""><p>What type of rock is this?</p>","4","class_response","0","test","25","Obsidian","Obsidian","04","true","5","5","",""
"","","","","","","","","","","","html-keyboard-response","56","2.0.0","134841","66f0eda58aabb19b40a60936","1","6","null","","","","","","","","","<p style='font-size: 30px;'><strong>Okay</strong></p>","null","neutral_feedback","0","test","25","","","","","","","",""
"","","","","","","","","","","","html-button-response","57","2.0.0","136724","66f0eda58aabb19b40a60936","1","6","1879","","","","","","","","","<img src= ""rock_img/I_Pegmatite_12.jpg"" style=""width:8cm; height:5.7cm;""><p>What type of rock is this?</p>","5","class_response","0","test","26","Pegmatite","Pegmatite","12","true","6","6","",""
"","","","","","","","","","","","html-keyboard-response","58","2.0.0","137238","66f0eda58aabb19b40a60936","1","6","null","","","","","","","","","<p style='font-size: 30px;'><strong>Okay</strong></p>","null","neutral_feedback","0","test","26","","","","","","","",""
"","","","","","","","","","","","html-button-response","59","2.0.0","139111","66f0eda58aabb19b40a60936","1","6","1869","","","","","","","","","<img src= ""rock_img/I_Gabbro_03.jpg"" style=""width:8cm; height:8.52cm;""><p>What type of rock is this?</p>","6","class_response","0","test","27","Peridotite","Gabbro","03","false","7","4","",""
"","","","","","","","","","","","html-keyboard-response","60","2.0.0","139627","66f0eda58aabb19b40a60936","1","6","null","","","","","","","","","<p style='font-size: 30px;'><strong>Okay</strong></p>","null","neutral_feedback","0","test","27","","","","","","","",""
"","","","","","","","","","","","html-button-response","61","2.0.0","141566","66f0eda58aabb19b40a60936","1","6","1936","","","","","","","","","<img src= ""rock_img/I_Pegmatite_03.jpg"" style=""width:8cm; height:5.239999999999999cm;""><p>What type of rock is this?</p>","5","class_response","0","test","28","Pegmatite","Pegmatite","03","true","6","6","",""
"","","","","","","","","","","","html-keyboard-response","62","2.0.0","142085","66f0eda58aabb19b40a60936","1","6","null","","","","","","","","","<p style='font-size: 30px;'><strong>Okay</strong></p>","null","neutral_feedback","0","test","28","","","","","","","",""
"","","","","","","","","","","","html-button-response","63","2.0.0","144234","66f0eda58aabb19b40a60936","1","6","2144","","","","","","","","","<img src= ""rock_img/I_Andesite_16.jpg"" style=""width:8cm; height:6.010000000000001cm;""><p>What type of rock is this?</p>","3","class_response","0","test","29","Gabbro","Andesite","16","false","4","1","",""
"","","","","","","","","","","","html-keyboard-response","64","2.0.0","144738","66f0eda58aabb19b40a60936","1","6","null","","","","","","","","","<p style='font-size: 30px;'><strong>Okay</strong></p>","null","neutral_feedback","0","test","29","","","","","","","",""
"","","","","","","","","","","","html-button-response","65","2.0.0","145947","66f0eda58aabb19b40a60936","1","6","1206","","","","","","","","","<img src= ""rock_img/I_Basalt_11.jpg"" style=""width:8cm; height:5.359999999999999cm;""><p>What type of rock is this?</p>","3","class_response","0","test","30","Gabbro","Basalt","11","false","4","2","",""
"","","","","","","","","","","","html-keyboard-response","66","2.0.0","146459","66f0eda58aabb19b40a60936","1","6","null","","","","","","","","","<p style='font-size: 30px;'><strong>Okay</strong></p>","null","neutral_feedback","0","test","30","","","","","","","",""
"","","","","","","","","","","","html-button-response","67","2.0.0","148075","66f0eda58aabb19b40a60936","1","6","1612","","","","","","","","","<img src= ""rock_img/I_Andesite_11.jpg"" style=""width:8cm; height:4.92cm;""><p>What type of rock is this?</p>","5","class_response","0","test","31","Pegmatite","Andesite","11","false","6","1","",""
"","","","","","","","","","","","html-keyboard-response","68","2.0.0","148586","66f0eda58aabb19b40a60936","1","6","null","","","","","","","","","<p style='font-size: 30px;'><strong>Okay</strong></p>","null","neutral_feedback","0","test","31","","","","","","","",""
"","","","","","","","","","","","html-button-response","69","2.0.0","150507","66f0eda58aabb19b40a60936","1","6","1916","","","","","","","","","<img src= ""rock_img/I_Andesite_04.jpg"" style=""width:8cm; height:5.96cm;""><p>What type of rock is this?</p>","2","class_response","0","test","32","Diorite","Andesite","04","false","3","1","",""
"","","","","","","","","","","","html-keyboard-response","70","2.0.0","151010","66f0eda58aabb19b40a60936","1","6","null","","","","","","","","","<p style='font-size: 30px;'><strong>Okay</strong></p>","null","neutral_feedback","0","test","32","","","","","","","",""
"","","","","","","","","","","","html-button-response","71","2.0.0","155014","66f0eda58aabb19b40a60936","1","6","4000","","","","","","","","","<img src= ""rock_img/I_Obsidian_09.jpg"" style=""width:8cm; height:5cm;""><p>What type of rock is this?</p>","4","class_response","0","test","33","Obsidian","Obsidian","09","true","5","5","",""
"","","","","","","","","","","","html-keyboard-response","72","2.0.0","155527","66f0eda58aabb19b40a60936","1","6","null","","","","","","","","","<p style='font-size: 30px;'><strong>Okay</strong></p>","null","neutral_feedback","0","test","33","","","","","","","",""
"","","","","","","","","","","","html-button-response","73","2.0.0","157527","66f0eda58aabb19b40a60936","1","6","1997","","","","","","","","","<img src= ""rock_img/I_Peridotite_12.jpg"" style=""width:8cm; height:4.54cm;""><p>What type of rock is this?</p>","0","class_response","0","test","34","Andesite","Peridotite","12","false","1","7","",""
"","","","","","","","","","","","html-keyboard-response","74","2.0.0","158041","66f0eda58aabb19b40a60936","1","6","null","","","","","","","","","<p style='font-size: 30px;'><strong>Okay</strong></p>","null","neutral_feedback","0","test","34","","","","","","","",""
"","","","","","","","","","","","html-button-response","75","2.0.0","159747","66f0eda58aabb19b40a60936","1","6","1701","","","","","","","","","<img src= ""rock_img/I_Pegmatite_10.jpg"" style=""width:8cm; height:4.16cm;""><p>What type of rock is this?</p>","1","class_response","0","test","35","Basalt","Pegmatite","10","false","2","6","",""
"","","","","","","","","","","","html-keyboard-response","76","2.0.0","160254","66f0eda58aabb19b40a60936","1","6","null","","","","","","","","","<p style='font-size: 30px;'><strong>Okay</strong></p>","null","neutral_feedback","0","test","35","","","","","","","",""
"","","","","","","","","","","","html-button-response","77","2.0.0","162210","66f0eda58aabb19b40a60936","1","6","1953","","","","","","","","","<img src= ""rock_img/I_Peridotite_04.jpg"" style=""width:8cm; height:6.680000000000001cm;""><p>What type of rock is this?</p>","2","class_response","0","test","36","Diorite","Peridotite","04","false","3","7","",""
"","","","","","","","","","","","html-keyboard-response","78","2.0.0","162720","66f0eda58aabb19b40a60936","1","6","null","","","","","","","","","<p style='font-size: 30px;'><strong>Okay</strong></p>","null","neutral_feedback","0","test","36","","","","","","","",""
"","","","","","","","","","","","html-button-response","79","2.0.0","164410","66f0eda58aabb19b40a60936","1","6","1685","","","","","","","","","<img src= ""rock_img/I_Pegmatite_06.jpg"" style=""width:8cm; height:5.17cm;""><p>What type of rock is this?</p>","6","class_response","0","test","37","Peridotite","Pegmatite","06","false","7","6","",""
"","","","","","","","","","","","html-keyboard-response","80","2.0.0","164924","66f0eda58aabb19b40a60936","1","6","null","","","","","","","","","<p style='font-size: 30px;'><strong>Okay</strong></p>","null","neutral_feedback","0","test","37","","","","","","","",""
"","","","","","","","","","","","html-button-response","81","2.0.0","167019","66f0eda58aabb19b40a60936","1","6","2091","","","","","","","","","<img src= ""rock_img/I_Gabbro_09.jpg"" style=""width:8cm; height:7.279999999999999cm;""><p>What type of rock is this?</p>","3","class_response","0","test","38","Gabbro","Gabbro","09","true","4","4","",""
"","","","","","","","","","","","html-keyboard-response","82","2.0.0","167528","66f0eda58aabb19b40a60936","1","6","null","","","","","","","","","<p style='font-size: 30px;'><strong>Okay</strong></p>","null","neutral_feedback","0","test","38","","","","","","","",""
"","","","","","","","","","","","html-button-response","83","2.0.0","169327","66f0eda58aabb19b40a60936","1","6","1795","","","","","","","","","<img src= ""rock_img/I_Pumice_08.jpg"" style=""width:8cm; height:6.67cm;""><p>What type of rock is this?</p>","7","class_response","0","test","39","Pumice","Pumice","08","true","8","8","",""
"","","","","","","","","","","","html-keyboard-response","84","2.0.0","169832","66f0eda58aabb19b40a60936","1","6","null","","","","","","","","","<p style='font-size: 30px;'><strong>Okay</strong></p>","null","neutral_feedback","0","test","39","","","","","","","",""
"","","","","","","","","","","","html-button-response","85","2.0.0","173234","66f0eda58aabb19b40a60936","1","6","3399","","","","","","","","","<img src= ""rock_img/I_Pumice_09.jpg"" style=""width:8cm; height:6.44cm;""><p>What type of rock is this?</p>","1","class_response","0","test","40","Basalt","Pumice","09","false","2","8","",""
"","","","","","","","","","","","html-keyboard-response","86","2.0.0","173748","66f0eda58aabb19b40a60936","1","6","null","","","","","","","","","<p style='font-size: 30px;'><strong>Okay</strong></p>","null","neutral_feedback","0","test","40","","","","","","","",""
"","","","","","","","","","","","html-button-response","87","2.0.0","175301","66f0eda58aabb19b40a60936","1","6","1549","","","","","","","","","<img src= ""rock_img/I_Obsidian_11.jpg"" style=""width:8cm; height:6.05cm;""><p>What type of rock is this?</p>","4","class_response","0","test","41","Obsidian","Obsidian","11","true","5","5","",""
"","","","","","","","","","","","html-keyboard-response","88","2.0.0","175803","66f0eda58aabb19b40a60936","1","6","null","","","","","","","","","<p style='font-size: 30px;'><strong>Okay</strong></p>","null","neutral_feedback","0","test","41","","","","","","","",""
"","","","","","","","","","","","html-button-response","89","2.0.0","177460","66f0eda58aabb19b40a60936","1","6","1653","","","","","","","","","<img src= ""rock_img/I_Basalt_04.jpg"" style=""width:8cm; height:7.53cm;""><p>What type of rock is this?</p>","0","class_response","0","test","42","Andesite","Basalt","04","false","1","2","",""
"","","","","","","","","","","","html-keyboard-response","90","2.0.0","177969","66f0eda58aabb19b40a60936","1","6","null","","","","","","","","","<p style='font-size: 30px;'><strong>Okay</strong></p>","null","neutral_feedback","0","test","42","","","","","","","",""
"","","","","","","","","","","","html-button-response","91","2.0.0","179396","66f0eda58aabb19b40a60936","1","6","1424","","","","","","","","","<img src= ""rock_img/I_Diorite_07.jpg"" style=""width:8cm; height:5.239999999999999cm;""><p>What type of rock is this?</p>","5","class_response","0","test","43","Pegmatite","Diorite","07","false","6","3","",""
"","","","","","","","","","","","html-keyboard-response","92","2.0.0","179905","66f0eda58aabb19b40a60936","1","6","null","","","","","","","","","<p style='font-size: 30px;'><strong>Okay</strong></p>","null","neutral_feedback","0","test","43","","","","","","","",""
"","","","","","","","","","","","html-button-response","93","2.0.0","182531","66f0eda58aabb19b40a60936","1","6","2621","","","","","","","","","<img src= ""rock_img/I_Peridotite_14.jpg"" style=""width:8cm; height:5.3cm;""><p>What type of rock is this?</p>","6","class_response","0","test","44","Peridotite","Peridotite","14","true","7","7","",""
"","","","","","","","","","","","html-keyboard-response","94","2.0.0","183047","66f0eda58aabb19b40a60936","1","6","null","","","","","","","","","<p style='font-size: 30px;'><strong>Okay</strong></p>","null","neutral_feedback","0","test","44","","","","","","","",""
"","","","","","","","","","","","html-button-response","95","2.0.0","184727","66f0eda58aabb19b40a60936","1","6","1677","","","","","","","","","<img src= ""rock_img/I_Obsidian_08.jpg"" style=""width:8cm; height:7.39cm;""><p>What type of rock is this?</p>","4","class_response","0","test","45","Obsidian","Obsidian","08","true","5","5","",""
"","","","","","","","","","","","html-keyboard-response","96","2.0.0","185238","66f0eda58aabb19b40a60936","1","6","null","","","","","","","","","<p style='font-size: 30px;'><strong>Okay</strong></p>","null","neutral_feedback","0","test","45","","","","","","","",""
"","","","","","","","","","","","html-button-response","97","2.0.0","186944","66f0eda58aabb19b40a60936","1","6","1702","","","","","","","","","<img src= ""rock_img/I_Diorite_15.jpg"" style=""width:8cm; height:5.54cm;""><p>What type of rock is this?</p>","3","class_response","0","test","46","Gabbro","Diorite","15","false","4","3","",""
"","","","","","","","","","","","html-keyboard-response","98","2.0.0","187453","66f0eda58aabb19b40a60936","1","6","null","","","","","","","","","<p style='font-size: 30px;'><strong>Okay</strong></p>","null","neutral_feedback","0","test","46","","","","","","","",""
"","","","","","","","","","","","html-button-response","99","2.0.0","188978","66f0eda58aabb19b40a60936","1","6","1520","","","","","","","","","<img src= ""rock_img/I_Andesite_09.jpg"" style=""width:8cm; height:6cm;""><p>What type of rock is this?</p>","7","class_response","0","test","47","Pumice","Andesite","09","false","8","1","",""
"","","","","","","","","","","","html-keyboard-response","100","2.0.0","189481","66f0eda58aabb19b40a60936","1","6","null","","","","","","","","","<p style='font-size: 30px;'><strong>Okay</strong></p>","null","neutral_feedback","0","test","47","","","","","","","",""
"","","","","","","","","","","","html-button-response","101","2.0.0","191171","66f0eda58aabb19b40a60936","1","6","1686","","","","","","","","","<img src= ""rock_img/I_Peridotite_07.jpg"" style=""width:8cm; height:4.83cm;""><p>What type of rock is this?</p>","6","class_response","0","test","48","Peridotite","Peridotite","07","true","7","7","",""
"","","","","","","","","","","","html-keyboard-response","102","2.0.0","191680","66f0eda58aabb19b40a60936","1","6","null","","","","","","","","","<p style='font-size: 30px;'><strong>Okay</strong></p>","null","neutral_feedback","0","test","48","","","","","","","",""
"","","","","","","","","","","","instructions","103","2.0.0","205506","66f0eda58aabb19b40a60936","1","6","13771","","","","","","","","[{""page_index"":0,""viewing_time"":7000},{""page_index"":1,""viewing_time"":3468},{""page_index"":2,""viewing_time"":3304}]","","","","","","","","","","","","","",""
"","","","","","","","","","","","html-button-response","104","2.0.0","207938","66f0eda58aabb19b40a60936","1","6","2429","","","","","","","","","","0","start_train","","","","","","","","","","",""
"","","","","","","","","","","","html-button-response","105","2.0.0","211135","66f0eda58aabb19b40a60936","1","6","3192","","","","","","","","","<img src= ""rock_img/I_Gabbro_11.jpg"" style=""width:8cm; height:6.2cm;""><p>What type of rock is this?</p>","0","class_response","1","train","1","Andesite","Gabbro","11","false","1","4","",""
"","","","","","","","","","","","html-button-response","106","2.0.0","213398","66f0eda58aabb19b40a60936","1","6","2259","","","","","","","","","<img src= rock_img/I_Gabbro_11.jpg style=""width:8cm; height:6.2cm;""><p style='font-size: 30px; color: red;'><strong>Incorrect!</strong></p><p style='font-size: 30px;'><strong>This rock is gabbro</strong></p>","0","corr_feedback","1","train","1","","","","","","","",""
"","","","","","","","","","","","html-button-response","107","2.0.0","215847","66f0eda58aabb19b40a60936","1","6","2445","","","","","","","","","<img src= ""rock_img/I_Pumice_14.jpg"" style=""width:8cm; height:6.39cm;""><p>What type of rock is this?</p>","0","class_response","1","train","2","Andesite","Pumice","14","false","1","8","",""
"","","","","","","","","","","","html-button-response","108","2.0.0","217638","66f0eda58aabb19b40a60936","1","6","1786","","","","","","","","","<img src= rock_img/I_Pumice_14.jpg style=""width:8cm; height:6.39cm;""><p style='font-size: 30px; color: red;'><strong>Incorrect!</strong></p><p style='font-size: 30px;'><strong>This rock is pumice</strong></p>","0","corr_feedback","1","train","2","","","","","","","",""
"","","","","","","","","","","","html-button-response","109","2.0.0","219890","66f0eda58aabb19b40a60936","1","6","2249","","","","","","","","","<img src= ""rock_img/I_Diorite_08.jpg"" style=""width:8cm; height:6.37cm;""><p>What type of rock is this?</p>","1","class_response","1","train","3","Basalt","Diorite","08","false","2","3","",""
"","","","","","","","","","","","html-button-response","110","2.0.0","221538","66f0eda58aabb19b40a60936","1","6","1644","","","","","","","","","<img src= rock_img/I_Diorite_08.jpg style=""width:8cm; height:6.37cm;""><p style='font-size: 30px; color: red;'><strong>Incorrect!</strong></p><p style='font-size: 30px;'><strong>This rock is diorite</strong></p>","0","corr_feedback","1","train","3","","","","","","","",""
"","","","","","","","","","","","html-button-response","111","2.0.0","224710","66f0eda58aabb19b40a60936","1","6","3169","","","","","","","","","<img src= ""rock_img/I_Pumice_10.jpg"" style=""width:8cm; height:7.609999999999999cm;""><p>What type of rock is this?</p>","7","class_response","1","train","4","Pumice","Pumice","10","true","8","8","",""
"","","","","","","","","","","","html-button-response","112","2.0.0","226374","66f0eda58aabb19b40a60936","1","6","1659","","","","","","","","","<img src= rock_img/I_Pumice_10.jpg style=""width:8cm; height:7.609999999999999cm;""><p style='font-size: 30px; color: green;'><strong>Correct!</strong></p><p style='font-size: 30px;'><strong>This rock is pumice</strong></p>","0","corr_feedback","1","train","4","","","","","","","",""
"","","","","","","","","","","","html-button-response","113","2.0.0","228802","66f0eda58aabb19b40a60936","1","6","2425","","","","","","","","","<img src= ""rock_img/I_Diorite_02.jpg"" style=""width:8cm; height:6.27cm;""><p>What type of rock is this?</p>","5","class_response","1","train","5","Pegmatite","Diorite","02","false","6","3","",""
"","","","","","","","","","","","html-button-response","114","2.0.0","230202","66f0eda58aabb19b40a60936","1","6","1395","","","","","","","","","<img src= rock_img/I_Diorite_02.jpg style=""width:8cm; height:6.27cm;""><p style='font-size: 30px; color: red;'><strong>Incorrect!</strong></p><p style='font-size: 30px;'><strong>This rock is diorite</strong></p>","0","corr_feedback","1","train","5","","","","","","","",""
"","","","","","","","","","","","html-button-response","115","2.0.0","233554","66f0eda58aabb19b40a60936","1","6","3348","","","","","","","","","<img src= ""rock_img/I_Pumice_02.jpg"" style=""width:8cm; height:7.3999999999999995cm;""><p>What type of rock is this?</p>","6","class_response","1","train","6","Peridotite","Pumice","02","false","7","8","",""
"","","","","","","","","","","","html-button-response","116","2.0.0","234834","66f0eda58aabb19b40a60936","1","6","1276","","","","","","","","","<img src= rock_img/I_Pumice_02.jpg style=""width:8cm; height:7.3999999999999995cm;""><p style='font-size: 30px; color: red;'><strong>Incorrect!</strong></p><p style='font-size: 30px;'><strong>This rock is pumice</strong></p>","0","corr_feedback","1","train","6","","","","","","","",""
"","","","","","","","","","","","html-button-response","117","2.0.0","236707","66f0eda58aabb19b40a60936","1","6","1868","","","","","","","","","<img src= ""rock_img/I_Pegmatite_09.jpg"" style=""width:8cm; height:4.03cm;""><p>What type of rock is this?</p>","4","class_response","1","train","7","Obsidian","Pegmatite","09","false","5","6","",""
"","","","","","","","","","","","html-button-response","118","2.0.0","238010","66f0eda58aabb19b40a60936","1","6","1299","","","","","","","","","<img src= rock_img/I_Pegmatite_09.jpg style=""width:8cm; height:4.03cm;""><p style='font-size: 30px; color: red;'><strong>Incorrect!</strong></p><p style='font-size: 30px;'><strong>This rock is pegmatite</strong></p>","0","corr_feedback","1","train","7","","","","","","","",""
"","","","","","","","","","","","html-button-response","119","2.0.0","239426","66f0eda58aabb19b40a60936","1","6","1413","","","","","","","","","<img src= ""rock_img/I_Obsidian_07.jpg"" style=""width:8cm; height:4.76cm;""><p>What type of rock is this?</p>","4","class_response","1","train","8","Obsidian","Obsidian","07","true","5","5","",""
"","","","","","","","","","","","html-button-response","120","2.0.0","240986","66f0eda58aabb19b40a60936","1","6","1554","","","","","","","","","<img src= rock_img/I_Obsidian_07.jpg style=""width:8cm; height:4.76cm;""><p style='font-size: 30px; color: green;'><strong>Correct!</strong></p><p style='font-size: 30px;'><strong>This rock is obsidian</strong></p>","0","corr_feedback","1","train","8","","","","","","","",""
"","","","","","","","","","","","html-button-response","121","2.0.0","243082","66f0eda58aabb19b40a60936","1","6","2093","","","","","","","","","<img src= ""rock_img/I_Andesite_01.jpg"" style=""width:8cm; height:5.87cm;""><p>What type of rock is this?</p>","6","class_response","1","train","9","Peridotite","Andesite","01","false","7","1","",""
"","","","","","","","","","","","html-button-response","122","2.0.0","244278","66f0eda58aabb19b40a60936","1","6","1192","","","","","","","","","<img src= rock_img/I_Andesite_01.jpg style=""width:8cm; height:5.87cm;""><p style='font-size: 30px; color: red;'><strong>Incorrect!</strong></p><p style='font-size: 30px;'><strong>This rock is andesite</strong></p>","0","corr_feedback","1","train","9","","","","","","","",""
"","","","","","","","","","","","html-button-response","123","2.0.0","247218","66f0eda58aabb19b40a60936","1","6","2935","","","","","","","","","<img src= ""rock_img/I_Diorite_11.jpg"" style=""width:8cm; height:7.11cm;""><p>What type of rock is this?</p>","0","class_response","1","train","10","Andesite","Diorite","11","false","1","3","",""
"","","","","","","","","","","","html-button-response","124","2.0.0","248932","66f0eda58aabb19b40a60936","1","6","1708","","","","","","","","","<img src= rock_img/I_Diorite_11.jpg style=""width:8cm; height:7.11cm;""><p style='font-size: 30px; color: red;'><strong>Incorrect!</strong></p><p style='font-size: 30px;'><strong>This rock is diorite</strong></p>","0","corr_feedback","1","train","10","","","","","","","",""
"","","","","","","","","","","","html-button-response","125","2.0.0","252826","66f0eda58aabb19b40a60936","1","6","3890","","","","","","","","","<img src= ""rock_img/I_Peridotite_02.jpg"" style=""width:8cm; height:5.859999999999999cm;""><p>What type of rock is this?</p>","1","class_response","1","train","11","Basalt","Peridotite","02","false","2","7","",""
"","","","","","","","","","","","html-button-response","126","2.0.0","254210","66f0eda58aabb19b40a60936","1","6","1380","","","","","","","","","<img src= rock_img/I_Peridotite_02.jpg style=""width:8cm; height:5.859999999999999cm;""><p style='font-size: 30px; color: red;'><strong>Incorrect!</strong></p><p style='font-size: 30px;'><strong>This rock is peridotite</strong></p>","0","corr_feedback","1","train","11","","","","","","","",""
"","","","","","","","","","","","html-button-response","127","2.0.0","257446","66f0eda58aabb19b40a60936","1","6","3233","","","","","","","","","<img src= ""rock_img/I_Gabbro_12.jpg"" style=""width:8cm; height:7.800000000000001cm;""><p>What type of rock is this?</p>","3","class_response","1","train","12","Gabbro","Gabbro","12","true","4","4","",""
"","","","","","","","","","","","html-button-response","128","2.0.0","258867","66f0eda58aabb19b40a60936","1","6","1415","","","","","","","","","<img src= rock_img/I_Gabbro_12.jpg style=""width:8cm; height:7.800000000000001cm;""><p style='font-size: 30px; color: green;'><strong>Correct!</strong></p><p style='font-size: 30px;'><strong>This rock is gabbro</strong></p>","0","corr_feedback","1","train","12","","","","","","","",""
"","","","","","","","","","","","html-button-response","129","2.0.0","261186","66f0eda58aabb19b40a60936","1","6","2316","","","","","","","","","<img src= ""rock_img/I_Pegmatite_11.jpg"" style=""width:8cm; height:8.14cm;""><p>What type of rock is this?</p>","2","class_response","1","train","13","Diorite","Pegmatite","11","false","3","6","",""
"","","","","","","","","","","","html-button-response","130","2.0.0","262402","66f0eda58aabb19b40a60936","1","6","1213","","","","","","","","","<img src= rock_img/I_Pegmatite_11.jpg style=""width:8cm; height:8.14cm;""><p style='font-size: 30px; color: red;'><strong>Incorrect!</strong></p><p style='font-size: 30px;'><strong>This rock is pegmatite</strong></p>","0","corr_feedback","1","train","13","","","","","","","",""
"","","","","","","","","","","","html-button-response","131","2.0.0","267402","66f0eda58aabb19b40a60936","1","6","4996","","","","","","","","","<img src= ""rock_img/I_Andesite_07.jpg"" style=""width:8cm; height:5.93cm;""><p>What type of rock is this?</p>","0","class_response","1","train","14","Andesite","Andesite","07","true","1","1","",""
"","","","","","","","","","","","html-button-response","132","2.0.0","269014","66f0eda58aabb19b40a60936","1","6","1609","","","","","","","","","<img src= rock_img/I_Andesite_07.jpg style=""width:8cm; height:5.93cm;""><p style='font-size: 30px; color: green;'><strong>Correct!</strong></p><p style='font-size: 30px;'><strong>This rock is andesite</strong></p>","0","corr_feedback","1","train","14","","","","","","","",""
"","","","","","","","","","","","html-button-response","133","2.0.0","270627","66f0eda58aabb19b40a60936","1","6","1606","","","","","","","","","<img src= ""rock_img/I_Peridotite_05.jpg"" style=""width:8cm; height:7.1499999999999995cm;""><p>What type of rock is this?</p>","7","class_response","1","train","15","Pumice","Peridotite","05","false","8","7","",""
"","","","","","","","","","","","html-button-response","134","2.0.0","271874","66f0eda58aabb19b40a60936","1","6","1243","","","","","","","","","<img src= rock_img/I_Peridotite_05.jpg style=""width:8cm; height:7.1499999999999995cm;""><p style='font-size: 30px; color: red;'><strong>Incorrect!</strong></p><p style='font-size: 30px;'><strong>This rock is peridotite</strong></p>","0","corr_feedback","1","train","15","","","","","","","",""
"","","","","","","","","","","","html-button-response","135","2.0.0","274690","66f0eda58aabb19b40a60936","1","6","2813","","","","","","","","","<img src= ""rock_img/I_Diorite_10.jpg"" style=""width:8cm; height:5.949999999999999cm;""><p>What type of rock is this?</p>","6","class_response","1","train","16","Peridotite","Diorite","10","false","7","3","",""
"","","","","","","","","","","","html-button-response","136","2.0.0","275954","66f0eda58aabb19b40a60936","1","6","1259","","","","","","","","","<img src= rock_img/I_Diorite_10.jpg style=""width:8cm; height:5.949999999999999cm;""><p style='font-size: 30px; color: red;'><strong>Incorrect!</strong></p><p style='font-size: 30px;'><strong>This rock is diorite</strong></p>","0","corr_feedback","1","train","16","","","","","","","",""
"","","","","","","","","","","","html-button-response","137","2.0.0","280122","66f0eda58aabb19b40a60936","1","6","4164","","","","","","","","","<img src= ""rock_img/I_Pegmatite_16.jpg"" style=""width:8cm; height:5.8cm;""><p>What type of rock is this?</p>","6","class_response","1","train","17","Peridotite","Pegmatite","16","false","7","6","",""
"","","","","","","","","","","","html-button-response","138","2.0.0","281466","66f0eda58aabb19b40a60936","1","6","1341","","","","","","","","","<img src= rock_img/I_Pegmatite_16.jpg style=""width:8cm; height:5.8cm;""><p style='font-size: 30px; color: red;'><strong>Incorrect!</strong></p><p style='font-size: 30px;'><strong>This rock is pegmatite</strong></p>","0","corr_feedback","1","train","17","","","","","","","",""
"","","","","","","","","","","","html-button-response","139","2.0.0","282967","66f0eda58aabb19b40a60936","1","6","1495","","","","","","","","","<img src= ""rock_img/I_Obsidian_10.jpg"" style=""width:8cm; height:6.260000000000001cm;""><p>What type of rock is this?</p>","4","class_response","1","train","18","Obsidian","Obsidian","10","true","5","5","",""
"","","","","","","","","","","","html-button-response","140","2.0.0","284146","66f0eda58aabb19b40a60936","1","6","1175","","","","","","","","","<img src= rock_img/I_Obsidian_10.jpg style=""width:8cm; height:6.260000000000001cm;""><p style='font-size: 30px; color: green;'><strong>Correct!</strong></p><p style='font-size: 30px;'><strong>This rock is obsidian</strong></p>","0","corr_feedback","1","train","18","","","","","","","",""
"","","","","","","","","","","","html-button-response","141","2.0.0","286314","66f0eda58aabb19b40a60936","1","6","2165","","","","","","","","","<img src= ""rock_img/I_Andesite_10.jpg"" style=""width:8cm; height:4.16cm;""><p>What type of rock is this?</p>","7","class_response","1","train","19","Pumice","Andesite","10","false","8","1","",""
"","","","","","","","","","","","html-button-response","142","2.0.0","287538","66f0eda58aabb19b40a60936","1","6","1221","","","","","","","","","<img src= rock_img/I_Andesite_10.jpg style=""width:8cm; height:4.16cm;""><p style='font-size: 30px; color: red;'><strong>Incorrect!</strong></p><p style='font-size: 30px;'><strong>This rock is andesite</strong></p>","0","corr_feedback","1","train","19","","","","","","","",""
"","","","","","","","","","","","html-button-response","143","2.0.0","292010","66f0eda58aabb19b40a60936","1","6","4468","","","","","","","","","<img src= ""rock_img/I_Basalt_10.jpg"" style=""width:8cm; height:5.85cm;""><p>What type of rock is this?</p>","2","class_response","1","train","20","Diorite","Basalt","10","false","3","2","",""
"","","","","","","","","","","","html-button-response","144","2.0.0","292994","66f0eda58aabb19b40a60936","1","6","980","","","","","","","","","<img src= rock_img/I_Basalt_10.jpg style=""width:8cm; height:5.85cm;""><p style='font-size: 30px; color: red;'><strong>Incorrect!</strong></p><p style='font-size: 30px;'><strong>This rock is basalt</strong></p>","0","corr_feedback","1","train","20","","","","","","","",""
"","","","","","","","","","","","html-button-response","145","2.0.0","296166","66f0eda58aabb19b40a60936","1","6","3169","","","","","","","","","<img src= ""rock_img/I_Pegmatite_08.jpg"" style=""width:8cm; height:7.68cm;""><p>What type of rock is this?</p>","5","class_response","1","train","21","Pegmatite","Pegmatite","08","true","6","6","",""
"","","","","","","","","","","","html-button-response","146","2.0.0","297362","66f0eda58aabb19b40a60936","1","6","1190","","","","","","","","","<img src= rock_img/I_Pegmatite_08.jpg style=""width:8cm; height:7.68cm;""><p style='font-size: 30px; color: green;'><strong>Correct!</strong></p><p style='font-size: 30px;'><strong>This rock is pegmatite</strong></p>","0","corr_feedback","1","train","21","","","","","","","",""
"","","","","","","","","","","","html-button-response","147","2.0.0","299795","66f0eda58aabb19b40a60936","1","6","2428","","","","","","","","","<img src= ""rock_img/I_Andesite_03.jpg"" style=""width:8cm; height:5.73cm;""><p>What type of rock is this?</p>","7","class_response","1","train","22","Pumice","Andesite","03","false","8","1","",""
"","","","","","","","","","","","html-button-response","148","2.0.0","301004","66f0eda58aabb19b40a60936","1","6","1203","","","","","","","","","<img src= rock_img/I_Andesite_03.jpg style=""width:8cm; height:5.73cm;""><p style='font-size: 30px; color: red;'><strong>Incorrect!</strong></p><p style='font-size: 30px;'><strong>This rock is andesite</strong></p>","0","corr_feedback","1","train","22","","","","","","","",""
"","","","","","","","","","","","html-button-response","149","2.0.0","303527","66f0eda58aabb19b40a60936","1","6","2520","","","","","","","","","<img src= ""rock_img/I_Diorite_09.jpg"" style=""width:8cm; height:5.27cm;""><p>What type of rock is this?</p>","3","class_response","1","train","23","Gabbro","Diorite","09","false","4","3","",""
"","","","","","","","","","","","html-button-response","150","2.0.0","304606","66f0eda58aabb19b40a60936","1","6","1075","","","","","","","","","<img src= rock_img/I_Diorite_09.jpg style=""width:8cm; height:5.27cm;""><p style='font-size: 30px; color: red;'><strong>Incorrect!</strong></p><p style='font-size: 30px;'><strong>This rock is diorite</strong></p>","0","corr_feedback","1","train","23","","","","","","","",""
"","","","","","","","","","","","html-button-response","151","2.0.0","306562","66f0eda58aabb19b40a60936","1","6","1952","","","","","","","","","<img src= ""rock_img/I_Obsidian_14.jpg"" style=""width:8cm; height:7.64cm;""><p>What type of rock is this?</p>","4","class_response","1","train","24","Obsidian","Obsidian","14","true","5","5","",""
"","","","","","","","","","","","html-button-response","152","2.0.0","307810","66f0eda58aabb19b40a60936","1","6","1243","","","","","","","","","<img src= rock_img/I_Obsidian_14.jpg style=""width:8cm; height:7.64cm;""><p style='font-size: 30px; color: green;'><strong>Correct!</strong></p><p style='font-size: 30px;'><strong>This rock is obsidian</strong></p>","0","corr_feedback","1","train","24","","","","","","","",""
"","","","","","","","","","","","html-button-response","153","2.0.0","309694","66f0eda58aabb19b40a60936","1","6","1880","","","","","","","","","<img src= ""rock_img/I_Pegmatite_15.jpg"" style=""width:8cm; height:6cm;""><p>What type of rock is this?</p>","1","class_response","1","train","25","Basalt","Pegmatite","15","false","2","6","",""
"","","","","","","","","","","","html-button-response","154","2.0.0","310822","66f0eda58aabb19b40a60936","1","6","1125","","","","","","","","","<img src= rock_img/I_Pegmatite_15.jpg style=""width:8cm; height:6cm;""><p style='font-size: 30px; color: red;'><strong>Incorrect!</strong></p><p style='font-size: 30px;'><strong>This rock is pegmatite</strong></p>","0","corr_feedback","1","train","25","","","","","","","",""
"","","","","","","","","","","","html-button-response","155","2.0.0","314388","66f0eda58aabb19b40a60936","1","6","3560","","","","","","","","","<img src= ""rock_img/I_Gabbro_05.jpg"" style=""width:8cm; height:6cm;""><p>What type of rock is this?</p>","6","class_response","1","train","26","Peridotite","Gabbro","05","false","7","4","",""
"","","","","","","","","","","","html-button-response","156","2.0.0","315314","66f0eda58aabb19b40a60936","1","6","922","","","","","","","","","<img src= rock_img/I_Gabbro_05.jpg style=""width:8cm; height:6cm;""><p style='font-size: 30px; color: red;'><strong>Incorrect!</strong></p><p style='font-size: 30px;'><strong>This rock is gabbro</strong></p>","0","corr_feedback","1","train","26","","","","","","","",""
"","","","","","","","","","","","html-button-response","157","2.0.0","317635","66f0eda58aabb19b40a60936","1","6","2316","","","","","","","","","<img src= ""rock_img/I_Basalt_06.jpg"" style=""width:8cm; height:7.06cm;""><p>What type of rock is this?</p>","4","class_response","1","train","27","Obsidian","Basalt","06","false","5","2","",""
"","","","","","","","","","","","html-button-response","158","2.0.0","318690","66f0eda58aabb19b40a60936","1","6","1050","","","","","","","","","<img src= rock_img/I_Basalt_06.jpg style=""width:8cm; height:7.06cm;""><p style='font-size: 30px; color: red;'><strong>Incorrect!</strong></p><p style='font-size: 30px;'><strong>This rock is basalt</strong></p>","0","corr_feedback","1","train","27","","","","","","","",""
"","","","","","","","","","","","html-button-response","159","2.0.0","320634","66f0eda58aabb19b40a60936","1","6","1941","","","","","","","","","<img src= ""rock_img/I_Pumice_15.jpg"" style=""width:8cm; height:7.86cm;""><p>What type of rock is this?</p>","7","class_response","1","train","28","Pumice","Pumice","15","true","8","8","",""
"","","","","","","","","","","","html-button-response","160","2.0.0","321690","66f0eda58aabb19b40a60936","1","6","1050","","","","","","","","","<img src= rock_img/I_Pumice_15.jpg style=""width:8cm; height:7.86cm;""><p style='font-size: 30px; color: green;'><strong>Correct!</strong></p><p style='font-size: 30px;'><strong>This rock is pumice</strong></p>","0","corr_feedback","1","train","28","","","","","","","",""
"","","","","","","","","","","","html-button-response","161","2.0.0","323970","66f0eda58aabb19b40a60936","1","6","2277","","","","","","","","","<img src= ""rock_img/I_Peridotite_10.jpg"" style=""width:8cm; height:5.390000000000001cm;""><p>What type of rock is this?</p>","6","class_response","1","train","29","Peridotite","Peridotite","10","true","7","7","",""
"","","","","","","","","","","","html-button-response","162","2.0.0","325774","66f0eda58aabb19b40a60936","1","6","1798","","","","","","","","","<img src= rock_img/I_Peridotite_10.jpg style=""width:8cm; height:5.390000000000001cm;""><p style='font-size: 30px; color: green;'><strong>Correct!</strong></p><p style='font-size: 30px;'><strong>This rock is peridotite</strong></p>","0","corr_feedback","1","train","29","","","","","","","",""
"","","","","","","","","","","","html-button-response","163","2.0.0","327774","66f0eda58aabb19b40a60936","1","6","1997","","","","","","","","","<img src= ""rock_img/I_Gabbro_14.jpg"" style=""width:8cm; height:8.48cm;""><p>What type of rock is this?</p>","1","class_response","1","train","30","Basalt","Gabbro","14","false","2","4","",""
"","","","","","","","","","","","html-button-response","164","2.0.0","328923","66f0eda58aabb19b40a60936","1","6","1144","","","","","","","","","<img src= rock_img/I_Gabbro_14.jpg style=""width:8cm; height:8.48cm;""><p style='font-size: 30px; color: red;'><strong>Incorrect!</strong></p><p style='font-size: 30px;'><strong>This rock is gabbro</strong></p>","0","corr_feedback","1","train","30","","","","","","","",""
"","","","","","","","","","","","html-button-response","165","2.0.0","330570","66f0eda58aabb19b40a60936","1","6","1644","","","","","","","","","<img src= ""rock_img/I_Pumice_05.jpg"" style=""width:8cm; height:7.25cm;""><p>What type of rock is this?</p>","7","class_response","1","train","31","Pumice","Pumice","05","true","8","8","",""
"","","","","","","","","","","","html-button-response","166","2.0.0","331650","66f0eda58aabb19b40a60936","1","6","1074","","","","","","","","","<img src= rock_img/I_Pumice_05.jpg style=""width:8cm; height:7.25cm;""><p style='font-size: 30px; color: green;'><strong>Correct!</strong></p><p style='font-size: 30px;'><strong>This rock is pumice</strong></p>","0","corr_feedback","1","train","31","","","","","","","",""
"","","","","","","","","","","","html-button-response","167","2.0.0","335130","66f0eda58aabb19b40a60936","1","6","3477","","","","","","","","","<img src= ""rock_img/I_Peridotite_13.jpg"" style=""width:8cm; height:7.58cm;""><p>What type of rock is this?</p>","0","class_response","1","train","32","Andesite","Peridotite","13","false","1","7","",""
"","","","","","","","","","","","html-button-response","168","2.0.0","336282","66f0eda58aabb19b40a60936","1","6","1149","","","","","","","","","<img src= rock_img/I_Peridotite_13.jpg style=""width:8cm; height:7.58cm;""><p style='font-size: 30px; color: red;'><strong>Incorrect!</strong></p><p style='font-size: 30px;'><strong>This rock is peridotite</strong></p>","0","corr_feedback","1","train","32","","","","","","","",""
"","","","","","","","","","","","html-button-response","169","2.0.0","342946","66f0eda58aabb19b40a60936","1","6","6661","","","","","","","","","<img src= ""rock_img/I_Andesite_05.jpg"" style=""width:8cm; height:4.12cm;""><p>What type of rock is this?</p>","5","class_response","1","train","33","Pegmatite","Andesite","05","false","6","1","",""
"","","","","","","","","","","","html-button-response","170","2.0.0","344066","66f0eda58aabb19b40a60936","1","6","1115","","","","","","","","","<img src= rock_img/I_Andesite_05.jpg style=""width:8cm; height:4.12cm;""><p style='font-size: 30px; color: red;'><strong>Incorrect!</strong></p><p style='font-size: 30px;'><strong>This rock is andesite</strong></p>","0","corr_feedback","1","train","33","","","","","","","",""
"","","","","","","","","","","","html-button-response","171","2.0.0","345775","66f0eda58aabb19b40a60936","1","6","1705","","","","","","","","","<img src= ""rock_img/I_Andesite_06.jpg"" style=""width:8cm; height:6.840000000000001cm;""><p>What type of rock is this?</p>","0","class_response","1","train","34","Andesite","Andesite","06","true","1","1","",""
"","","","","","","","","","","","html-button-response","172","2.0.0","346950","66f0eda58aabb19b40a60936","1","6","1171","","","","","","","","","<img src= rock_img/I_Andesite_06.jpg style=""width:8cm; height:6.840000000000001cm;""><p style='font-size: 30px; color: green;'><strong>Correct!</strong></p><p style='font-size: 30px;'><strong>This rock is andesite</strong></p>","0","corr_feedback","1","train","34","","","","","","","",""
"","","","","","","","","","","","html-button-response","173","2.0.0","348428","66f0eda58aabb19b40a60936","1","6","1475","","","","","","","","","<img src= ""rock_img/I_Obsidian_05.jpg"" style=""width:8cm; height:6.33cm;""><p>What type of rock is this?</p>","4","class_response","1","train","35","Obsidian","Obsidian","05","true","5","5","",""
"","","","","","","","","","","","html-button-response","174","2.0.0","349882","66f0eda58aabb19b40a60936","1","6","1450","","","","","","","","","<img src= rock_img/I_Obsidian_05.jpg style=""width:8cm; height:6.33cm;""><p style='font-size: 30px; color: green;'><strong>Correct!</strong></p><p style='font-size: 30px;'><strong>This rock is obsidian</strong></p>","0","corr_feedback","1","train","35","","","","","","","",""
"","","","","","","","","","","","html-button-response","175","2.0.0","353563","66f0eda58aabb19b40a60936","1","6","3676","","","","","","","","","<img src= ""rock_img/I_Gabbro_08.jpg"" style=""width:8cm; height:5.15cm;""><p>What type of rock is this?</p>","3","class_response","1","train","36","Gabbro","Gabbro","08","true","4","4","",""
"","","","","","","","","","","","html-button-response","176","2.0.0","355078","66f0eda58aabb19b40a60936","1","6","1511","","","","","","","","","<img src= rock_img/I_Gabbro_08.jpg style=""width:8cm; height:5.15cm;""><p style='font-size: 30px; color: green;'><strong>Correct!</strong></p><p style='font-size: 30px;'><strong>This rock is gabbro</strong></p>","0","corr_feedback","1","train","36","","","","","","","",""
"","","","","","","","","","","","html-button-response","177","2.0.0","358793","66f0eda58aabb19b40a60936","1","6","3710","","","","","","","","","<img src= ""rock_img/I_Basalt_09.jpg"" style=""width:8cm; height:6.2cm;""><p>What type of rock is this?</p>","2","class_response","1","train","37","Diorite","Basalt","09","false","3","2","",""
"","","","","","","","","","","","html-button-response","178","2.0.0","359960","66f0eda58aabb19b40a60936","1","6","1164","","","","","","","","","<img src= rock_img/I_Basalt_09.jpg style=""width:8cm; height:6.2cm;""><p style='font-size: 30px; color: red;'><strong>Incorrect!</strong></p><p style='font-size: 30px;'><strong>This rock is basalt</strong></p>","0","corr_feedback","1","train","37","","","","","","","",""
"","","","","","","","","","","","html-button-response","179","2.0.0","365630","66f0eda58aabb19b40a60936","1","6","5667","","","","","","","","","<img src= ""rock_img/I_Pegmatite_13.jpg"" style=""width:8cm; height:4.95cm;""><p>What type of rock is this?</p>","5","class_response","1","train","38","Pegmatite","Pegmatite","13","true","6","6","",""
"","","","","","","","","","","","html-button-response","180","2.0.0","367013","66f0eda58aabb19b40a60936","1","6","1379","","","","","","","","","<img src= rock_img/I_Pegmatite_13.jpg style=""width:8cm; height:4.95cm;""><p style='font-size: 30px; color: green;'><strong>Correct!</strong></p><p style='font-size: 30px;'><strong>This rock is pegmatite</strong></p>","0","corr_feedback","1","train","38","","","","","","","",""
"","","","","","","","","","","","html-button-response","181","2.0.0","368449","66f0eda58aabb19b40a60936","1","6","1432","","","","","","","","","<img src= ""rock_img/I_Peridotite_06.jpg"" style=""width:8cm; height:7.53cm;""><p>What type of rock is this?</p>","5","class_response","1","train","39","Pegmatite","Peridotite","06","false","6","7","",""
"","","","","","","","","","","","html-button-response","182","2.0.0","369494","66f0eda58aabb19b40a60936","1","6","1042","","","","","","","","","<img src= rock_img/I_Peridotite_06.jpg style=""width:8cm; height:7.53cm;""><p style='font-size: 30px; color: red;'><strong>Incorrect!</strong></p><p style='font-size: 30px;'><strong>This rock is peridotite</strong></p>","0","corr_feedback","1","train","39","","","","","","","",""
"","","","","","","","","","","","html-button-response","183","2.0.0","371390","66f0eda58aabb19b40a60936","1","6","1892","","","","","","","","","<img src= ""rock_img/I_Diorite_12.jpg"" style=""width:8cm; height:4.88cm;""><p>What type of rock is this?</p>","5","class_response","1","train","40","Pegmatite","Diorite","12","false","6","3","",""
"","","","","","","","","","","","html-button-response","184","2.0.0","372145","66f0eda58aabb19b40a60936","1","6","751","","","","","","","","","<img src= rock_img/I_Diorite_12.jpg style=""width:8cm; height:4.88cm;""><p style='font-size: 30px; color: red;'><strong>Incorrect!</strong></p><p style='font-size: 30px;'><strong>This rock is diorite</strong></p>","0","corr_feedback","1","train","40","","","","","","","",""
"","","","","","","","","","","","html-button-response","185","2.0.0","376090","66f0eda58aabb19b40a60936","1","6","3941","","","","","","","","","<img src= ""rock_img/I_Obsidian_02.jpg"" style=""width:8cm; height:7.51cm;""><p>What type of rock is this?</p>","4","class_response","1","train","41","Obsidian","Obsidian","02","true","5","5","",""
"","","","","","","","","","","","html-button-response","186","2.0.0","377353","66f0eda58aabb19b40a60936","1","6","1258","","","","","","","","","<img src= rock_img/I_Obsidian_02.jpg style=""width:8cm; height:7.51cm;""><p style='font-size: 30px; color: green;'><strong>Correct!</strong></p><p style='font-size: 30px;'><strong>This rock is obsidian</strong></p>","0","corr_feedback","1","train","41","","","","","","","",""
"","","","","","","","","","","","html-button-response","187","2.0.0","378770","66f0eda58aabb19b40a60936","1","6","1413","","","","","","","","","<img src= ""rock_img/I_Obsidian_12.jpg"" style=""width:8cm; height:6.53cm;""><p>What type of rock is this?</p>","4","class_response","1","train","42","Obsidian","Obsidian","12","true","5","5","",""
"","","","","","","","","","","","html-button-response","188","2.0.0","379821","66f0eda58aabb19b40a60936","1","6","1048","","","","","","","","","<img src= rock_img/I_Obsidian_12.jpg style=""width:8cm; height:6.53cm;""><p style='font-size: 30px; color: green;'><strong>Correct!</strong></p><p style='font-size: 30px;'><strong>This rock is obsidian</strong></p>","0","corr_feedback","1","train","42","","","","","","","",""
"","","","","","","","","","","","html-button-response","189","2.0.0","381495","66f0eda58aabb19b40a60936","1","6","1669","","","","","","","","","<img src= ""rock_img/I_Basalt_08.jpg"" style=""width:8cm; height:10.44cm;""><p>What type of rock is this?</p>","1","class_response","1","train","43","Basalt","Basalt","08","true","2","2","",""
"","","","","","","","","","","","html-button-response","190","2.0.0","382962","66f0eda58aabb19b40a60936","1","6","1463","","","","","","","","","<img src= rock_img/I_Basalt_08.jpg style=""width:8cm; height:10.44cm;""><p style='font-size: 30px; color: green;'><strong>Correct!</strong></p><p style='font-size: 30px;'><strong>This rock is basalt</strong></p>","0","corr_feedback","1","train","43","","","","","","","",""
"","","","","","","","","","","","html-button-response","191","2.0.0","385090","66f0eda58aabb19b40a60936","1","6","2123","","","","","","","","","<img src= ""rock_img/I_Basalt_14.jpg"" style=""width:8cm; height:5.82cm;""><p>What type of rock is this?</p>","7","class_response","1","train","44","Pumice","Basalt","14","false","8","2","",""
"","","","","","","","","","","","html-button-response","192","2.0.0","386354","66f0eda58aabb19b40a60936","1","6","1260","","","","","","","","","<img src= rock_img/I_Basalt_14.jpg style=""width:8cm; height:5.82cm;""><p style='font-size: 30px; color: red;'><strong>Incorrect!</strong></p><p style='font-size: 30px;'><strong>This rock is basalt</strong></p>","0","corr_feedback","1","train","44","","","","","","","",""
"","","","","","","","","","","","html-button-response","193","2.0.0","391906","66f0eda58aabb19b40a60936","1","6","5548","","","","","","","","","<img src= ""rock_img/I_Basalt_01.jpg"" style=""width:8cm; height:7.880000000000001cm;""><p>What type of rock is this?</p>","5","class_response","1","train","45","Pegmatite","Basalt","01","false","6","2","",""
"","","","","","","","","","","","html-button-response","194","2.0.0","393073","66f0eda58aabb19b40a60936","1","6","1164","","","","","","","","","<img src= rock_img/I_Basalt_01.jpg style=""width:8cm; height:7.880000000000001cm;""><p style='font-size: 30px; color: red;'><strong>Incorrect!</strong></p><p style='font-size: 30px;'><strong>This rock is basalt</strong></p>","0","corr_feedback","1","train","45","","","","","","","",""
"","","","","","","","","","","","html-button-response","195","2.0.0","395414","66f0eda58aabb19b40a60936","1","6","2337","","","","","","","","","<img src= ""rock_img/I_Peridotite_16.jpg"" style=""width:8cm; height:6.989999999999999cm;""><p>What type of rock is this?</p>","6","class_response","1","train","46","Peridotite","Peridotite","16","true","7","7","",""
"","","","","","","","","","","","html-button-response","196","2.0.0","396330","66f0eda58aabb19b40a60936","1","6","913","","","","","","","","","<img src= rock_img/I_Peridotite_16.jpg style=""width:8cm; height:6.989999999999999cm;""><p style='font-size: 30px; color: green;'><strong>Correct!</strong></p><p style='font-size: 30px;'><strong>This rock is peridotite</strong></p>","0","corr_feedback","1","train","46","","","","","","","",""
"","","","","","","","","","","","html-button-response","197","2.0.0","398350","66f0eda58aabb19b40a60936","1","6","2015","","","","","","","","","<img src= ""rock_img/I_Pumice_16.jpg"" style=""width:8cm; height:6.79cm;""><p>What type of rock is this?</p>","7","class_response","1","train","47","Pumice","Pumice","16","true","8","8","",""
"","","","","","","","","","","","html-button-response","198","2.0.0","399449","66f0eda58aabb19b40a60936","1","6","1095","","","","","","","","","<img src= rock_img/I_Pumice_16.jpg style=""width:8cm; height:6.79cm;""><p style='font-size: 30px; color: green;'><strong>Correct!</strong></p><p style='font-size: 30px;'><strong>This rock is pumice</strong></p>","0","corr_feedback","1","train","47","","","","","","","",""
"","","","","","","","","","","","html-button-response","199","2.0.0","402834","66f0eda58aabb19b40a60936","1","6","3380","","","","","","","","","<img src= ""rock_img/I_Gabbro_01.jpg"" style=""width:8cm; height:5.21cm;""><p>What type of rock is this?</p>","3","class_response","1","train","48","Gabbro","Gabbro","01","true","4","4","",""
"","","","","","","","","","","","html-button-response","200","2.0.0","404005","66f0eda58aabb19b40a60936","1","6","1168","","","","","","","","","<img src= rock_img/I_Gabbro_01.jpg style=""width:8cm; height:5.21cm;""><p style='font-size: 30px; color: green;'><strong>Correct!</strong></p><p style='font-size: 30px;'><strong>This rock is gabbro</strong></p>","0","corr_feedback","1","train","48","","","","","","","",""
"","","","","","","","","","","","instructions","203","2.0.0","410349","66f0eda58aabb19b40a60936","1","6","6341","","","","","","","","[{""page_index"":0,""viewing_time"":1885},{""page_index"":1,""viewing_time"":4456}]","","","","","","","","","","","","","",""
"","","","","","","","","","","","html-button-response","204","2.0.0","411981","66f0eda58aabb19b40a60936","1","6","1629","","","","","","","","","","0","start_test","","","","","","","","","","",""
"","","","","","","","","","","","html-button-response","205","2.0.0","416634","66f0eda58aabb19b40a60936","1","6","4648","","","","","","","","","<img src= ""rock_img/I_Andesite_16.jpg"" style=""width:8cm; height:6.010000000000001cm;""><p>What type of rock is this?</p>","0","class_response","1","test","1","Andesite","Andesite","16","true","1","1","",""
"","","","","","","","","","","","html-keyboard-response","206","2.0.0","417138","66f0eda58aabb19b40a60936","1","6","null","","","","","","","","","<p style='font-size: 30px;'><strong>Okay</strong></p>","null","neutral_feedback","1","test","1","","","","","","","",""
"","","","","","","","","","","","html-button-response","207","2.0.0","421261","66f0eda58aabb19b40a60936","1","6","4120","","","","","","","","","<img src= ""rock_img/I_Diorite_07.jpg"" style=""width:8cm; height:5.239999999999999cm;""><p>What type of rock is this?</p>","1","class_response","1","test","2","Basalt","Diorite","07","false","2","3","",""
"","","","","","","","","","","","html-keyboard-response","208","2.0.0","421781","66f0eda58aabb19b40a60936","1","6","null","","","","","","","","","<p style='font-size: 30px;'><strong>Okay</strong></p>","null","neutral_feedback","1","test","2","","","","","","","",""
"","","","","","","","","","","","html-button-response","209","2.0.0","423593","66f0eda58aabb19b40a60936","1","6","1810","","","","","","","","","<img src= ""rock_img/I_Pumice_06.jpg"" style=""width:8cm; height:6.9399999999999995cm;""><p>What type of rock is this?</p>","7","class_response","1","test","3","Pumice","Pumice","06","true","8","8","",""
"","","","","","","","","","","","html-keyboard-response","210","2.0.0","424096","66f0eda58aabb19b40a60936","1","6","null","","","","","","","","","<p style='font-size: 30px;'><strong>Okay</strong></p>","null","neutral_feedback","1","test","3","","","","","","","",""
"","","","","","","","","","","","html-button-response","211","2.0.0","426901","66f0eda58aabb19b40a60936","1","6","2800","","","","","","","","","<img src= ""rock_img/I_Basalt_12.jpg"" style=""width:8cm; height:6.010000000000001cm;""><p>What type of rock is this?</p>","1","class_response","1","test","4","Basalt","Basalt","12","true","2","2","",""
"","","","","","","","","","","","html-keyboard-response","212","2.0.0","427414","66f0eda58aabb19b40a60936","1","6","null","","","","","","","","","<p style='font-size: 30px;'><strong>Okay</strong></p>","null","neutral_feedback","1","test","4","","","","","","","",""
"","","","","","","","","","","","html-button-response","213","2.0.0","429578","66f0eda58aabb19b40a60936","1","6","2159","","","","","","","","","<img src= ""rock_img/I_Pegmatite_03.jpg"" style=""width:8cm; height:5.239999999999999cm;""><p>What type of rock is this?</p>","6","class_response","1","test","5","Peridotite","Pegmatite","03","false","7","6","",""
"","","","","","","","","","","","html-keyboard-response","214","2.0.0","430089","66f0eda58aabb19b40a60936","1","6","null","","","","","","","","","<p style='font-size: 30px;'><strong>Okay</strong></p>","null","neutral_feedback","1","test","5","","","","","","","",""
"","","","","","","","","","","","html-button-response","215","2.0.0","431452","66f0eda58aabb19b40a60936","1","6","1358","","","","","","","","","<img src= ""rock_img/I_Peridotite_12.jpg"" style=""width:8cm; height:4.54cm;""><p>What type of rock is this?</p>","6","class_response","1","test","6","Peridotite","Peridotite","12","true","7","7","",""
"","","","","","","","","","","","html-keyboard-response","216","2.0.0","431956","66f0eda58aabb19b40a60936","1","6","null","","","","","","","","","<p style='font-size: 30px;'><strong>Okay</strong></p>","null","neutral_feedback","1","test","6","","","","","","","",""
"","","","","","","","","","","","html-button-response","217","2.0.0","436682","66f0eda58aabb19b40a60936","1","6","4721","","","","","","","","","<img src= ""rock_img/I_Pegmatite_12.jpg"" style=""width:8cm; height:5.7cm;""><p>What type of rock is this?</p>","2","class_response","1","test","7","Diorite","Pegmatite","12","false","3","6","",""
"","","","","","","","","","","","html-keyboard-response","218","2.0.0","437191","66f0eda58aabb19b40a60936","1","6","null","","","","","","","","","<p style='font-size: 30px;'><strong>Okay</strong></p>","null","neutral_feedback","1","test","7","","","","","","","",""
"","","","","","","","","","","","html-button-response","219","2.0.0","440629","66f0eda58aabb19b40a60936","1","6","3435","","","","","","","","","<img src= ""rock_img/I_Peridotite_07.jpg"" style=""width:8cm; height:4.83cm;""><p>What type of rock is this?</p>","2","class_response","1","test","8","Diorite","Peridotite","07","false","3","7","",""
"","","","","","","","","","","","html-keyboard-response","220","2.0.0","441141","66f0eda58aabb19b40a60936","1","6","null","","","","","","","","","<p style='font-size: 30px;'><strong>Okay</strong></p>","null","neutral_feedback","1","test","8","","","","","","","",""
"","","","","","","","","","","","html-button-response","221","2.0.0","442534","66f0eda58aabb19b40a60936","1","6","1389","","","","","","","","","<img src= ""rock_img/I_Obsidian_11.jpg"" style=""width:8cm; height:6.05cm;""><p>What type of rock is this?</p>","4","class_response","1","test","9","Obsidian","Obsidian","11","true","5","5","",""
"","","","","","","","","","","","html-keyboard-response","222","2.0.0","443044","66f0eda58aabb19b40a60936","1","6","null","","","","","","","","","<p style='font-size: 30px;'><strong>Okay</strong></p>","null","neutral_feedback","1","test","9","","","","","","","",""
"","","","","","","","","","","","html-button-response","223","2.0.0","444785","66f0eda58aabb19b40a60936","1","6","1738","","","","","","","","","<img src= ""rock_img/I_Diorite_14.jpg"" style=""width:8cm; height:5.71cm;""><p>What type of rock is this?</p>","0","class_response","1","test","10","Andesite","Diorite","14","false","1","3","",""
"","","","","","","","","","","","html-keyboard-response","224","2.0.0","445299","66f0eda58aabb19b40a60936","1","6","null","","","","","","","","","<p style='font-size: 30px;'><strong>Okay</strong></p>","null","neutral_feedback","1","test","10","","","","","","","",""
"","","","","","","","","","","","html-button-response","225","2.0.0","447219","66f0eda58aabb19b40a60936","1","6","1916","","","","","","","","","<img src= ""rock_img/I_Peridotite_15.jpg"" style=""width:8cm; height:6cm;""><p>What type of rock is this?</p>","6","class_response","1","test","11","Peridotite","Peridotite","15","true","7","7","",""
"","","","","","","","","","","","html-keyboard-response","226","2.0.0","447738","66f0eda58aabb19b40a60936","1","6","null","","","","","","","","","<p style='font-size: 30px;'><strong>Okay</strong></p>","null","neutral_feedback","1","test","11","","","","","","","",""
"","","","","","","","","","","","html-button-response","227","2.0.0","450577","66f0eda58aabb19b40a60936","1","6","2836","","","","","","","","","<img src= ""rock_img/I_Diorite_15.jpg"" style=""width:8cm; height:5.54cm;""><p>What type of rock is this?</p>","1","class_response","1","test","12","Basalt","Diorite","15","false","2","3","",""
"","","","","","","","","","","","html-keyboard-response","228","2.0.0","451089","66f0eda58aabb19b40a60936","1","6","null","","","","","","","","","<p style='font-size: 30px;'><strong>Okay</strong></p>","null","neutral_feedback","1","test","12","","","","","","","",""
"","","","","","","","","","","","html-button-response","229","2.0.0","452810","66f0eda58aabb19b40a60936","1","6","1715","","","","","","","","","<img src= ""rock_img/I_Pumice_04.jpg"" style=""width:8cm; height:6.819999999999999cm;""><p>What type of rock is this?</p>","7","class_response","1","test","13","Pumice","Pumice","04","true","8","8","",""
"","","","","","","","","","","","html-keyboard-response","230","2.0.0","453316","66f0eda58aabb19b40a60936","1","6","null","","","","","","","","","<p style='font-size: 30px;'><strong>Okay</strong></p>","null","neutral_feedback","1","test","13","","","","","","","",""
"","","","","","","","","","","","html-button-response","231","2.0.0","456330","66f0eda58aabb19b40a60936","1","6","3010","","","","","","","","","<img src= ""rock_img/I_Basalt_11.jpg"" style=""width:8cm; height:5.359999999999999cm;""><p>What type of rock is this?</p>","3","class_response","1","test","14","Gabbro","Basalt","11","false","4","2","",""
"","","","","","","","","","","","html-keyboard-response","232","2.0.0","456836","66f0eda58aabb19b40a60936","1","6","null","","","","","","","","","<p style='font-size: 30px;'><strong>Okay</strong></p>","null","neutral_feedback","1","test","14","","","","","","","",""
"","","","","","","","","","","","html-button-response","233","2.0.0","461634","66f0eda58aabb19b40a60936","1","6","4793","","","","","","","","","<img src= ""rock_img/I_Pegmatite_05.jpg"" style=""width:8cm; height:7.300000000000001cm;""><p>What type of rock is this?</p>","5","class_response","1","test","15","Pegmatite","Pegmatite","05","true","6","6","",""
"","","","","","","","","","","","html-keyboard-response","234","2.0.0","462151","66f0eda58aabb19b40a60936","1","6","null","","","","","","","","","<p style='font-size: 30px;'><strong>Okay</strong></p>","null","neutral_feedback","1","test","15","","","","","","","",""
"","","","","","","","","","","","html-button-response","235","2.0.0","466633","66f0eda58aabb19b40a60936","1","6","4479","","","","","","","","","<img src= ""rock_img/I_Andesite_09.jpg"" style=""width:8cm; height:6cm;""><p>What type of rock is this?</p>","5","class_response","1","test","16","Pegmatite","Andesite","09","false","6","1","",""
"","","","","","","","","","","","html-keyboard-response","236","2.0.0","467148","66f0eda58aabb19b40a60936","1","6","null","","","","","","","","","<p style='font-size: 30px;'><strong>Okay</strong></p>","null","neutral_feedback","1","test","16","","","","","","","",""
"","","","","","","","","","","","html-button-response","237","2.0.0","473377","66f0eda58aabb19b40a60936","1","6","6226","","","","","","","","","<img src= ""rock_img/I_Gabbro_16.jpg"" style=""width:8cm; height:6.44cm;""><p>What type of rock is this?</p>","0","class_response","1","test","17","Andesite","Gabbro","16","false","1","4","",""
"","","","","","","","","","","","html-keyboard-response","238","2.0.0","473889","66f0eda58aabb19b40a60936","1","6","null","","","","","","","","","<p style='font-size: 30px;'><strong>Okay</strong></p>","null","neutral_feedback","1","test","17","","","","","","","",""
"","","","","","","","","","","","html-button-response","239","2.0.0","476014","66f0eda58aabb19b40a60936","1","6","2121","","","","","","","","","<img src= ""rock_img/I_Pumice_03.jpg"" style=""width:8cm; height:6.64cm;""><p>What type of rock is this?</p>","7","class_response","1","test","18","Pumice","Pumice","03","true","8","8","",""
"","","","","","","","","","","","html-keyboard-response","240","2.0.0","476524","66f0eda58aabb19b40a60936","1","6","null","","","","","","","","","<p style='font-size: 30px;'><strong>Okay</strong></p>","null","neutral_feedback","1","test","18","","","","","","","",""
"","","","","","","","","","","","html-button-response","241","2.0.0","480877","66f0eda58aabb19b40a60936","1","6","4350","","","","","","","","","<img src= ""rock_img/I_Andesite_04.jpg"" style=""width:8cm; height:5.96cm;""><p>What type of rock is this?</p>","3","class_response","1","test","19","Gabbro","Andesite","04","false","4","1","",""
"","","","","","","","","","","","html-keyboard-response","242","2.0.0","481393","66f0eda58aabb19b40a60936","1","6","null","","","","","","","","","<p style='font-size: 30px;'><strong>Okay</strong></p>","null","neutral_feedback","1","test","19","","","","","","","",""
"","","","","","","","","","","","html-button-response","243","2.0.0","482841","66f0eda58aabb19b40a60936","1","6","1445","","","","","","","","","<img src= ""rock_img/I_Obsidian_06.jpg"" style=""width:8cm; height:6.8cm;""><p>What type of rock is this?</p>","4","class_response","1","test","20","Obsidian","Obsidian","06","true","5","5","",""
"","","","","","","","","","","","html-keyboard-response","244","2.0.0","483348","66f0eda58aabb19b40a60936","1","6","null","","","","","","","","","<p style='font-size: 30px;'><strong>Okay</strong></p>","null","neutral_feedback","1","test","20","","","","","","","",""
"","","","","","","","","","","","html-button-response","245","2.0.0","486094","66f0eda58aabb19b40a60936","1","6","2742","","","","","","","","","<img src= ""rock_img/I_Andesite_02.jpg"" style=""width:8cm; height:8.5cm;""><p>What type of rock is this?</p>","2","class_response","1","test","21","Diorite","Andesite","02","false","3","1","",""
"","","","","","","","","","","","html-keyboard-response","246","2.0.0","486598","66f0eda58aabb19b40a60936","1","6","null","","","","","","","","","<p style='font-size: 30px;'><strong>Okay</strong></p>","null","neutral_feedback","1","test","21","","","","","","","",""
"","","","","","","","","","","","html-button-response","247","2.0.0","490078","66f0eda58aabb19b40a60936","1","6","3476","","","","","","","","","<img src= ""rock_img/I_Andesite_11.jpg"" style=""width:8cm; height:4.92cm;""><p>What type of rock is this?</p>","5","class_response","1","test","22","Pegmatite","Andesite","11","false","6","1","",""
"","","","","","","","","","","","html-keyboard-response","248","2.0.0","490587","66f0eda58aabb19b40a60936","1","6","null","","","","","","","","","<p style='font-size: 30px;'><strong>Okay</strong></p>","null","neutral_feedback","1","test","22","","","","","","","",""
"","","","","","","","","","","","html-button-response","249","2.0.0","492889","66f0eda58aabb19b40a60936","1","6","2299","","","","","","","","","<img src= ""rock_img/I_Andesite_14.jpg"" style=""width:8cm; height:5.449999999999999cm;""><p>What type of rock is this?</p>","5","class_response","1","test","23","Pegmatite","Andesite","14","false","6","1","",""
"","","","","","","","","","","","html-keyboard-response","250","2.0.0","493407","66f0eda58aabb19b40a60936","1","6","null","","","","","","","","","<p style='font-size: 30px;'><strong>Okay</strong></p>","null","neutral_feedback","1","test","23","","","","","","","",""
"","","","","","","","","","","","html-button-response","251","2.0.0","494674","66f0eda58aabb19b40a60936","1","6","1262","","","","","","","","","<img src= ""rock_img/I_Obsidian_09.jpg"" style=""width:8cm; height:5cm;""><p>What type of rock is this?</p>","4","class_response","1","test","24","Obsidian","Obsidian","09","true","5","5","",""
"","","","","","","","","","","","html-keyboard-response","252","2.0.0","495189","66f0eda58aabb19b40a60936","1","6","null","","","","","","","","","<p style='font-size: 30px;'><strong>Okay</strong></p>","null","neutral_feedback","1","test","24","","","","","","","",""
"","","","","","","","","","","","html-button-response","253","2.0.0","496813","66f0eda58aabb19b40a60936","1","6","1620","","","","","","","","","<img src= ""rock_img/I_Pumice_09.jpg"" style=""width:8cm; height:6.44cm;""><p>What type of rock is this?</p>","7","class_response","1","test","25","Pumice","Pumice","09","true","8","8","",""
"","","","","","","","","","","","html-keyboard-response","254","2.0.0","497321","66f0eda58aabb19b40a60936","1","6","null","","","","","","","","","<p style='font-size: 30px;'><strong>Okay</strong></p>","null","neutral_feedback","1","test","25","","","","","","","",""
"","","","","","","","","","","","html-button-response","255","2.0.0","498729","66f0eda58aabb19b40a60936","1","6","1405","","","","","","","","","<img src= ""rock_img/I_Pumice_08.jpg"" style=""width:8cm; height:6.67cm;""><p>What type of rock is this?</p>","7","class_response","1","test","26","Pumice","Pumice","08","true","8","8","",""
"","","","","","","","","","","","html-keyboard-response","256","2.0.0","499233","66f0eda58aabb19b40a60936","1","6","null","","","","","","","","","<p style='font-size: 30px;'><strong>Okay</strong></p>","null","neutral_feedback","1","test","26","","","","","","","",""
"","","","","","","","","","","","html-button-response","257","2.0.0","502293","66f0eda58aabb19b40a60936","1","6","3057","","","","","","","","","<img src= ""rock_img/I_Basalt_16.jpg"" style=""width:8cm; height:7.659999999999999cm;""><p>What type of rock is this?</p>","3","class_response","1","test","27","Gabbro","Basalt","16","false","4","2","",""
"","","","","","","","","","","","html-keyboard-response","258","2.0.0","502796","66f0eda58aabb19b40a60936","1","6","null","","","","","","","","","<p style='font-size: 30px;'><strong>Okay</strong></p>","null","neutral_feedback","1","test","27","","","","","","","",""
"","","","","","","","","","","","html-button-response","259","2.0.0","505734","66f0eda58aabb19b40a60936","1","6","2933","","","","","","","","","<img src= ""rock_img/I_Peridotite_04.jpg"" style=""width:8cm; height:6.680000000000001cm;""><p>What type of rock is this?</p>","0","class_response","1","test","28","Andesite","Peridotite","04","false","1","7","",""
"","","","","","","","","","","","html-keyboard-response","260","2.0.0","506239","66f0eda58aabb19b40a60936","1","6","null","","","","","","","","","<p style='font-size: 30px;'><strong>Okay</strong></p>","null","neutral_feedback","1","test","28","","","","","","","",""
"","","","","","","","","","","","html-button-response","261","2.0.0","508661","66f0eda58aabb19b40a60936","1","6","2419","","","","","","","","","<img src= ""rock_img/I_Gabbro_13.jpg"" style=""width:8cm; height:5.08cm;""><p>What type of rock is this?</p>","0","class_response","1","test","29","Andesite","Gabbro","13","false","1","4","",""
"","","","","","","","","","","","html-keyboard-response","262","2.0.0","509167","66f0eda58aabb19b40a60936","1","6","null","","","","","","","","","<p style='font-size: 30px;'><strong>Okay</strong></p>","null","neutral_feedback","1","test","29","","","","","","","",""
"","","","","","","","","","","","html-button-response","263","2.0.0","511174","66f0eda58aabb19b40a60936","1","6","2003","","","","","","","","","<img src= ""rock_img/I_Pegmatite_06.jpg"" style=""width:8cm; height:5.17cm;""><p>What type of rock is this?</p>","0","class_response","1","test","30","Andesite","Pegmatite","06","false","1","6","",""
"","","","","","","","","","","","html-keyboard-response","264","2.0.0","511692","66f0eda58aabb19b40a60936","1","6","null","","","","","","","","","<p style='font-size: 30px;'><strong>Okay</strong></p>","null","neutral_feedback","1","test","30","","","","","","","",""
"","","","","","","","","","","","html-button-response","265","2.0.0","514509","66f0eda58aabb19b40a60936","1","6","2813","","","","","","","","","<img src= ""rock_img/I_Pumice_13.jpg"" style=""width:8cm; height:8.200000000000001cm;""><p>What type of rock is this?</p>","7","class_response","1","test","31","Pumice","Pumice","13","true","8","8","",""
"","","","","","","","","","","","html-keyboard-response","266","2.0.0","515014","66f0eda58aabb19b40a60936","1","6","null","","","","","","","","","<p style='font-size: 30px;'><strong>Okay</strong></p>","null","neutral_feedback","1","test","31","","","","","","","",""
"","","","","","","","","","","","html-button-response","267","2.0.0","516658","66f0eda58aabb19b40a60936","1","6","1639","","","","","","","","","<img src= ""rock_img/I_Obsidian_16.jpg"" style=""width:8cm; height:9.3cm;""><p>What type of rock is this?</p>","4","class_response","1","test","32","Obsidian","Obsidian","16","true","5","5","",""
"","","","","","","","","","","","html-keyboard-response","268","2.0.0","517175","66f0eda58aabb19b40a60936","1","6","null","","","","","","","","","<p style='font-size: 30px;'><strong>Okay</strong></p>","null","neutral_feedback","1","test","32","","","","","","","",""
"","","","","","","","","","","","html-button-response","269","2.0.0","522078","66f0eda58aabb19b40a60936","1","6","4899","","","","","","","","","<img src= ""rock_img/I_Diorite_16.jpg"" style=""width:8cm; height:6.74cm;""><p>What type of rock is this?</p>","5","class_response","1","test","33","Pegmatite","Diorite","16","false","6","3","",""
"","","","","","","","","","","","html-keyboard-response","270","2.0.0","522584","66f0eda58aabb19b40a60936","1","6","null","","","","","","","","","<p style='font-size: 30px;'><strong>Okay</strong></p>","null","neutral_feedback","1","test","33","","","","","","","",""
"","","","","","","","","","","","html-button-response","271","2.0.0","524565","66f0eda58aabb19b40a60936","1","6","1977","","","","","","","","","<img src= ""rock_img/I_Peridotite_14.jpg"" style=""width:8cm; height:5.3cm;""><p>What type of rock is this?</p>","6","class_response","1","test","34","Peridotite","Peridotite","14","true","7","7","",""
"","","","","","","","","","","","html-keyboard-response","272","2.0.0","525070","66f0eda58aabb19b40a60936","1","6","null","","","","","","","","","<p style='font-size: 30px;'><strong>Okay</strong></p>","null","neutral_feedback","1","test","34","","","","","","","",""
"","","","","","","","","","","","html-button-response","273","2.0.0","527243","66f0eda58aabb19b40a60936","1","6","2167","","","","","","","","","<img src= ""rock_img/I_Basalt_05.jpg"" style=""width:8cm; height:8.18cm;""><p>What type of rock is this?</p>","1","class_response","1","test","35","Basalt","Basalt","05","true","2","2","",""
"","","","","","","","","","","","html-keyboard-response","274","2.0.0","527751","66f0eda58aabb19b40a60936","1","6","null","","","","","","","","","<p style='font-size: 30px;'><strong>Okay</strong></p>","null","neutral_feedback","1","test","35","","","","","","","",""
"","","","","","","","","","","","html-button-response","275","2.0.0","530261","66f0eda58aabb19b40a60936","1","6","2507","","","","","","","","","<img src= ""rock_img/I_Peridotite_08.jpg"" style=""width:8cm; height:6.7cm;""><p>What type of rock is this?</p>","6","class_response","1","test","36","Peridotite","Peridotite","08","true","7","7","",""
"","","","","","","","","","","","html-keyboard-response","276","2.0.0","530764","66f0eda58aabb19b40a60936","1","6","null","","","","","","","","","<p style='font-size: 30px;'><strong>Okay</strong></p>","null","neutral_feedback","1","test","36","","","","","","","",""
"","","","","","","","","","","","html-button-response","277","2.0.0","533197","66f0eda58aabb19b40a60936","1","6","2430","","","","","","","","","<img src= ""rock_img/I_Gabbro_09.jpg"" style=""width:8cm; height:7.279999999999999cm;""><p>What type of rock is this?</p>","3","class_response","1","test","37","Gabbro","Gabbro","09","true","4","4","",""
"","","","","","","","","","","","html-keyboard-response","278","2.0.0","533716","66f0eda58aabb19b40a60936","1","6","null","","","","","","","","","<p style='font-size: 30px;'><strong>Okay</strong></p>","null","neutral_feedback","1","test","37","","","","","","","",""
"","","","","","","","","","","","html-button-response","279","2.0.0","535497","66f0eda58aabb19b40a60936","1","6","1778","","","","","","","","","<img src= ""rock_img/I_Basalt_04.jpg"" style=""width:8cm; height:7.53cm;""><p>What type of rock is this?</p>","3","class_response","1","test","38","Gabbro","Basalt","04","false","4","2","",""
"","","","","","","","","","","","html-keyboard-response","280","2.0.0","536000","66f0eda58aabb19b40a60936","1","6","null","","","","","","","","","<p style='font-size: 30px;'><strong>Okay</strong></p>","null","neutral_feedback","1","test","38","","","","","","","",""
"","","","","","","","","","","","html-button-response","281","2.0.0","538633","66f0eda58aabb19b40a60936","1","6","2630","","","","","","","","","<img src= ""rock_img/I_Gabbro_10.jpg"" style=""width:8cm; height:5.680000000000001cm;""><p>What type of rock is this?</p>","1","class_response","1","test","39","Basalt","Gabbro","10","false","2","4","",""
"","","","","","","","","","","","html-keyboard-response","282","2.0.0","539150","66f0eda58aabb19b40a60936","1","6","null","","","","","","","","","<p style='font-size: 30px;'><strong>Okay</strong></p>","null","neutral_feedback","1","test","39","","","","","","","",""
"","","","","","","","","","","","html-button-response","283","2.0.0","540697","66f0eda58aabb19b40a60936","1","6","1544","","","","","","","","","<img src= ""rock_img/I_Gabbro_03.jpg"" style=""width:8cm; height:8.52cm;""><p>What type of rock is this?</p>","1","class_response","1","test","40","Basalt","Gabbro","03","false","2","4","",""
"","","","","","","","","","","","html-keyboard-response","284","2.0.0","541211","66f0eda58aabb19b40a60936","1","6","null","","","","","","","","","<p style='font-size: 30px;'><strong>Okay</strong></p>","null","neutral_feedback","1","test","40","","","","","","","",""
"","","","","","","","","","","","html-button-response","285","2.0.0","542485","66f0eda58aabb19b40a60936","1","6","1271","","","","","","","","","<img src= ""rock_img/I_Pegmatite_10.jpg"" style=""width:8cm; height:4.16cm;""><p>What type of rock is this?</p>","6","class_response","1","test","41","Peridotite","Pegmatite","10","false","7","6","",""
"","","","","","","","","","","","html-keyboard-response","286","2.0.0","542994","66f0eda58aabb19b40a60936","1","6","null","","","","","","","","","<p style='font-size: 30px;'><strong>Okay</strong></p>","null","neutral_feedback","1","test","41","","","","","","","",""
"","","","","","","","","","","","html-button-response","287","2.0.0","545495","66f0eda58aabb19b40a60936","1","6","2497","","","","","","","","","<img src= ""rock_img/I_Basalt_02.jpg"" style=""width:8cm; height:6.45cm;""><p>What type of rock is this?</p>","3","class_response","1","test","42","Gabbro","Basalt","02","false","4","2","",""
"","","","","","","","","","","","html-keyboard-response","288","2.0.0","546007","66f0eda58aabb19b40a60936","1","6","null","","","","","","","","","<p style='font-size: 30px;'><strong>Okay</strong></p>","null","neutral_feedback","1","test","42","","","","","","","",""
"","","","","","","","","","","","html-button-response","289","2.0.0","547327","66f0eda58aabb19b40a60936","1","6","1314","","","","","","","","","<img src= ""rock_img/I_Obsidian_04.jpg"" style=""width:8cm; height:6.930000000000001cm;""><p>What type of rock is this?</p>","4","class_response","1","test","43","Obsidian","Obsidian","04","true","5","5","",""
"","","","","","","","","","","","html-keyboard-response","290","2.0.0","547833","66f0eda58aabb19b40a60936","1","6","null","","","","","","","","","<p style='font-size: 30px;'><strong>Okay</strong></p>","null","neutral_feedback","1","test","43","","","","","","","",""
"","","","","","","","","","","","html-button-response","291","2.0.0","550066","66f0eda58aabb19b40a60936","1","6","2229","","","","","","","","","<img src= ""rock_img/I_Diorite_13.jpg"" style=""width:8cm; height:6.29cm;""><p>What type of rock is this?</p>","5","class_response","1","test","44","Pegmatite","Diorite","13","false","6","3","",""
"","","","","","","","","","","","html-keyboard-response","292","2.0.0","550570","66f0eda58aabb19b40a60936","1","6","null","","","","","","","","","<p style='font-size: 30px;'><strong>Okay</strong></p>","null","neutral_feedback","1","test","44","","","","","","","",""
"","","","","","","","","","","","html-button-response","293","2.0.0","553566","66f0eda58aabb19b40a60936","1","6","2991","","","","","","","","","<img src= ""rock_img/I_Diorite_06.jpg"" style=""width:8cm; height:6.03cm;""><p>What type of rock is this?</p>","1","class_response","1","test","45","Basalt","Diorite","06","false","2","3","",""
"","","","","","","","","","","","html-keyboard-response","294","2.0.0","554072","66f0eda58aabb19b40a60936","1","6","null","","","","","","","","","<p style='font-size: 30px;'><strong>Okay</strong></p>","null","neutral_feedback","1","test","45","","","","","","","",""
"","","","","","","","","","","","html-button-response","295","2.0.0","555921","66f0eda58aabb19b40a60936","1","6","1846","","","","","","","","","<img src= ""rock_img/I_Pegmatite_07.jpg"" style=""width:8cm; height:6.7cm;""><p>What type of rock is this?</p>","6","class_response","1","test","46","Peridotite","Pegmatite","07","false","7","6","",""
"","","","","","","","","","","","html-keyboard-response","296","2.0.0","556437","66f0eda58aabb19b40a60936","1","6","null","","","","","","","","","<p style='font-size: 30px;'><strong>Okay</strong></p>","null","neutral_feedback","1","test","46","","","","","","","",""
"","","","","","","","","","","","html-button-response","297","2.0.0","557725","66f0eda58aabb19b40a60936","1","6","1284","","","","","","","","","<img src= ""rock_img/I_Obsidian_08.jpg"" style=""width:8cm; height:7.39cm;""><p>What type of rock is this?</p>","4","class_response","1","test","47","Obsidian","Obsidian","08","true","5","5","",""
"","","","","","","","","","","","html-keyboard-response","298","2.0.0","558239","66f0eda58aabb19b40a60936","1","6","null","","","","","","","","","<p style='font-size: 30px;'><strong>Okay</strong></p>","null","neutral_feedback","1","test","47","","","","","","","",""
"","","","","","","","","","","","html-button-response","299","2.0.0","559981","66f0eda58aabb19b40a60936","1","6","1738","","","","","","","","","<img src= ""rock_img/I_Gabbro_15.jpg"" style=""width:8cm; height:6.29cm;""><p>What type of rock is this?</p>","3","class_response","1","test","48","Gabbro","Gabbro","15","true","4","4","",""
"","","","","","","","","","","","html-keyboard-response","300","2.0.0","560489","66f0eda58aabb19b40a60936","1","6","null","","","","","","","","","<p style='font-size: 30px;'><strong>Okay</strong></p>","null","neutral_feedback","1","test","48","","","","","","","",""
"","","","","","","","","","","","html-button-response","301","2.0.0","1091732","66f0eda58aabb19b40a60936","1","6","","","","","","","","","","","","cycle_feedback","","","","","","","","","","7564.100000023842","523662.10000002384"
"","","","","","","","","","","","html-button-response","303","2.0.0","1093248","66f0eda58aabb19b40a60936","1","6","1512","","","","","","","","","","0","start_train","","","","","","","","","","",""
"","","","","","","","","","","","html-button-response","304","2.0.0","1095872","66f0eda58aabb19b40a60936","1","6","2619","","","","","","","","","<img src= ""rock_img/I_Obsidian_14.jpg"" style=""width:8cm; height:7.64cm;""><p>What type of rock is this?</p>","4","class_response","2","train","1","Obsidian","Obsidian","14","true","5","5","",""
"","","","","","","","","","","","html-button-response","305","2.0.0","1097424","66f0eda58aabb19b40a60936","1","6","1549","","","","","","","","","<img src= rock_img/I_Obsidian_14.jpg style=""width:8cm; height:7.64cm;""><p style='font-size: 30px; color: green;'><strong>Correct!</strong></p><p style='font-size: 30px;'><strong>This rock is obsidian</strong></p>","0","corr_feedback","2","train","1","","","","","","","",""
