"width","height","webaudio","browser","browser_version","mobile","os","fullscreen","vsync_rate","webcam","microphone","trial_type","trial_index","plugin_version","time_elapsed","subjID","condition","stimID","rt","url","success","value","timeout","failed_images","failed_audio","failed_video","view_history","stimulus","response","trialType","cycle","phase","trial","resp","cat","token","corr","resp_num","cat_num","time_fb1","time_fb2"
"1536","730","true","chrome","130.0.0","false","Windows 10","true","60.28","true","true","browser-check","0","2.0.0","1009","60ee4bb7de4352af0286e091","1","12","","","","","","","","","","","","","","","","","","","","","","",""
"","","","","","","","","","","","external-html","1","2.0.0","4914","60ee4bb7de4352af0286e091","1","12","3821","consent_form.html","","","","","","","","","","","","","","","","","","","","",""
"","","","","","","","","","","","fullscreen","2","2.0.0","7223","60ee4bb7de4352af0286e091","1","12","1298","","true","","","","","","","","","","","","","","","","","","","",""
"","","","","","","","","","","","call-function","3","2.0.0","7226","60ee4bb7de4352af0286e091","1","12","","","","{}","","","","","","","","","","","","","","","","","","",""
"","","","","","","","","","","","preload","4","2.0.0","15021","60ee4bb7de4352af0286e091","1","12","","","true","","false","[]","[]","[]","","","","","","","","","","","","","","",""
"","","","","","","","","","","","instructions","5","2.0.0","23902","60ee4bb7de4352af0286e091","1","12","8879","","","","","","","","[{""page_index"":0,""viewing_time"":1539},{""page_index"":1,""viewing_time"":3632},{""page_index"":2,""viewing_time"":3708}]","","","","","","","","","","","","","",""
"","","","","","","","","","","","html-button-response","6","2.0.0","26046","60ee4bb7de4352af0286e091","1","12","2143","","","","","","","","","","0","start_test","","","","","","","","","","",""
"","","","","","","","","","","","html-button-response","7","2.0.0","28662","60ee4bb7de4352af0286e091","1","12","2615","","","","","","","","","<img src= ""rock_img/I_Basalt_01.jpg"" style=""width:8cm; height:7.880000000000001cm;""><p>What type of rock is this?</p>","1","class_response","0","test","1","Basalt","Basalt","01","true","2","2","",""
"","","","","","","","","","","","html-keyboard-response","8","2.0.0","29166","60ee4bb7de4352af0286e091","1","12","null","","","","","","","","","<p style='font-size: 30px;'><strong>Okay</strong></p>","null","neutral_feedback","0","test","1","","","","","","","",""
"","","","","","","","","","","","html-button-response","9","2.0.0","32535","60ee4bb7de4352af0286e091","1","12","3365","","","","","","","","","<img src= ""rock_img/I_Pumice_04.jpg"" style=""width:8cm; height:6.819999999999999cm;""><p>What type of rock is this?</p>","6","class_response","0","test","2","Peridotite","Pumice","04","false","7","8","",""
"","","","","","","","","","","","html-keyboard-response","10","2.0.0","33037","60ee4bb7de4352af0286e091","1","12","null","","","","","","","","","<p style='font-size: 30px;'><strong>Okay</strong></p>","null","neutral_feedback","0","test","2","","","","","","","",""
"","","","","","","","","","","","html-button-response","11","2.0.0","39144","60ee4bb7de4352af0286e091","1","12","6104","","","","","","","","","<img src= ""rock_img/I_Pegmatite_12.jpg"" style=""width:8cm; height:5.7cm;""><p>What type of rock is this?</p>","2","class_response","0","test","3","Diorite","Pegmatite","12","false","3","6","",""
"","","","","","","","","","","","html-keyboard-response","12","2.0.0","39651","60ee4bb7de4352af0286e091","1","12","null","","","","","","","","","<p style='font-size: 30px;'><strong>Okay</strong></p>","null","neutral_feedback","0","test","3","","","","","","","",""
"","","","","","","","","","","","html-button-response","13","2.0.0","42671","60ee4bb7de4352af0286e091","1","12","3018","","","","","","","","","<img src= ""rock_img/I_Pumice_09.jpg"" style=""width:8cm; height:6.44cm;""><p>What type of rock is this?</p>","7","class_response","0","test","4","Pumice","Pumice","09","true","8","8","",""
"","","","","","","","","","","","html-keyboard-response","14","2.0.0","43175","60ee4bb7de4352af0286e091","1","12","null","","","","","","","","","<p style='font-size: 30px;'><strong>Okay</strong></p>","null","neutral_feedback","0","test","4","","","","","","","",""
"","","","","","","","","","","","html-button-response","15","2.0.0","48222","60ee4bb7de4352af0286e091","1","12","5045","","","","","","","","","<img src= ""rock_img/I_Pegmatite_03.jpg"" style=""width:8cm; height:5.239999999999999cm;""><p>What type of rock is this?</p>","3","class_response","0","test","5","Gabbro","Pegmatite","03","false","4","6","",""
"","","","","","","","","","","","html-keyboard-response","16","2.0.0","48729","60ee4bb7de4352af0286e091","1","12","null","","","","","","","","","<p style='font-size: 30px;'><strong>Okay</strong></p>","null","neutral_feedback","0","test","5","","","","","","","",""
"","","","","","","","","","","","html-button-response","17","2.0.0","50652","60ee4bb7de4352af0286e091","1","12","1921","","","","","","","","","<img src= ""rock_img/I_Andesite_07.jpg"" style=""width:8cm; height:5.93cm;""><p>What type of rock is this?</p>","0","class_response","0","test","6","Andesite","Andesite","07","true","1","1","",""
"","","","","","","","","","","","html-keyboard-response","18","2.0.0","51158","60ee4bb7de4352af0286e091","1","12","null","","","","","","","","","<p style='font-size: 30px;'><strong>Okay</strong></p>","null","neutral_feedback","0","test","6","","","","","","","",""
"","","","","","","","","","","","html-button-response","19","2.0.0","53940","60ee4bb7de4352af0286e091","1","12","2780","","","","","","","","","<img src= ""rock_img/I_Diorite_08.jpg"" style=""width:8cm; height:6.37cm;""><p>What type of rock is this?</p>","2","class_response","0","test","7","Diorite","Diorite","08","true","3","3","",""
"","","","","","","","","","","","html-keyboard-response","20","2.0.0","54451","60ee4bb7de4352af0286e091","1","12","null","","","","","","","","","<p style='font-size: 30px;'><strong>Okay</strong></p>","null","neutral_feedback","0","test","7","","","","","","","",""
"","","","","","","","","","","","html-button-response","21","2.0.0","56057","60ee4bb7de4352af0286e091","1","12","1605","","","","","","","","","<img src= ""rock_img/I_Gabbro_05.jpg"" style=""width:8cm; height:6cm;""><p>What type of rock is this?</p>","6","class_response","0","test","8","Peridotite","Gabbro","05","false","7","4","",""
"","","","","","","","","","","","html-keyboard-response","22","2.0.0","56558","60ee4bb7de4352af0286e091","1","12","null","","","","","","","","","<p style='font-size: 30px;'><strong>Okay</strong></p>","null","neutral_feedback","0","test","8","","","","","","","",""
"","","","","","","","","","","","html-button-response","23","2.0.0","58009","60ee4bb7de4352af0286e091","1","12","1449","","","","","","","","","<img src= ""rock_img/I_Pegmatite_16.jpg"" style=""width:8cm; height:5.8cm;""><p>What type of rock is this?</p>","5","class_response","0","test","9","Pegmatite","Pegmatite","16","true","6","6","",""
"","","","","","","","","","","","html-keyboard-response","24","2.0.0","58522","60ee4bb7de4352af0286e091","1","12","null","","","","","","","","","<p style='font-size: 30px;'><strong>Okay</strong></p>","null","neutral_feedback","0","test","9","","","","","","","",""
"","","","","","","","","","","","html-button-response","25","2.0.0","60287","60ee4bb7de4352af0286e091","1","12","1769","","","","","","","","","<img src= ""rock_img/I_Pegmatite_10.jpg"" style=""width:8cm; height:4.16cm;""><p>What type of rock is this?</p>","2","class_response","0","test","10","Diorite","Pegmatite","10","false","3","6","",""
"","","","","","","","","","","","html-keyboard-response","26","2.0.0","60794","60ee4bb7de4352af0286e091","1","12","null","","","","","","","","","<p style='font-size: 30px;'><strong>Okay</strong></p>","null","neutral_feedback","0","test","10","","","","","","","",""
"","","","","","","","","","","","html-button-response","27","2.0.0","61257","60ee4bb7de4352af0286e091","1","12","459","","","","","","","","","<img src= ""rock_img/I_Andesite_11.jpg"" style=""width:8cm; height:4.92cm;""><p>What type of rock is this?</p>","2","class_response","0","test","11","Diorite","Andesite","11","false","3","1","",""
"","","","","","","","","","","","html-keyboard-response","28","2.0.0","61758","60ee4bb7de4352af0286e091","1","12","null","","","","","","","","","<p style='font-size: 30px;'><strong>Okay</strong></p>","null","neutral_feedback","0","test","11","","","","","","","",""
"","","","","","","","","","","","html-button-response","29","2.0.0","62118","60ee4bb7de4352af0286e091","1","12","360","","","","","","","","","<img src= ""rock_img/I_Pegmatite_15.jpg"" style=""width:8cm; height:6cm;""><p>What type of rock is this?</p>","1","class_response","0","test","12","Basalt","Pegmatite","15","false","2","6","",""
"","","","","","","","","","","","html-keyboard-response","30","2.0.0","62620","60ee4bb7de4352af0286e091","1","12","null","","","","","","","","","<p style='font-size: 30px;'><strong>Okay</strong></p>","null","neutral_feedback","0","test","12","","","","","","","",""
"","","","","","","","","","","","html-button-response","31","2.0.0","63721","60ee4bb7de4352af0286e091","1","12","1099","","","","","","","","","<img src= ""rock_img/I_Gabbro_10.jpg"" style=""width:8cm; height:5.680000000000001cm;""><p>What type of rock is this?</p>","6","class_response","0","test","13","Peridotite","Gabbro","10","false","7","4","",""
"","","","","","","","","","","","html-keyboard-response","32","2.0.0","64226","60ee4bb7de4352af0286e091","1","12","null","","","","","","","","","<p style='font-size: 30px;'><strong>Okay</strong></p>","null","neutral_feedback","0","test","13","","","","","","","",""
"","","","","","","","","","","","html-button-response","33","2.0.0","65633","60ee4bb7de4352af0286e091","1","12","1404","","","","","","","","","<img src= ""rock_img/I_Peridotite_14.jpg"" style=""width:8cm; height:5.3cm;""><p>What type of rock is this?</p>","5","class_response","0","test","14","Pegmatite","Peridotite","14","false","6","7","",""
"","","","","","","","","","","","html-keyboard-response","34","2.0.0","66135","60ee4bb7de4352af0286e091","1","12","null","","","","","","","","","<p style='font-size: 30px;'><strong>Okay</strong></p>","null","neutral_feedback","0","test","14","","","","","","","",""
"","","","","","","","","","","","html-button-response","35","2.0.0","66551","60ee4bb7de4352af0286e091","1","12","414","","","","","","","","","<img src= ""rock_img/I_Diorite_16.jpg"" style=""width:8cm; height:6.74cm;""><p>What type of rock is this?</p>","2","class_response","0","test","15","Diorite","Diorite","16","true","3","3","",""
"","","","","","","","","","","","html-keyboard-response","36","2.0.0","67053","60ee4bb7de4352af0286e091","1","12","null","","","","","","","","","<p style='font-size: 30px;'><strong>Okay</strong></p>","null","neutral_feedback","0","test","15","","","","","","","",""
"","","","","","","","","","","","html-button-response","37","2.0.0","67965","60ee4bb7de4352af0286e091","1","12","910","","","","","","","","","<img src= ""rock_img/I_Basalt_08.jpg"" style=""width:8cm; height:10.44cm;""><p>What type of rock is this?</p>","7","class_response","0","test","16","Pumice","Basalt","08","false","8","2","",""
"","","","","","","","","","","","html-keyboard-response","38","2.0.0","68471","60ee4bb7de4352af0286e091","1","12","null","","","","","","","","","<p style='font-size: 30px;'><strong>Okay</strong></p>","null","neutral_feedback","0","test","16","","","","","","","",""
"","","","","","","","","","","","html-button-response","39","2.0.0","69582","60ee4bb7de4352af0286e091","1","12","1109","","","","","","","","","<img src= ""rock_img/I_Pumice_03.jpg"" style=""width:8cm; height:6.64cm;""><p>What type of rock is this?</p>","7","class_response","0","test","17","Pumice","Pumice","03","true","8","8","",""
"","","","","","","","","","","","html-keyboard-response","40","2.0.0","70097","60ee4bb7de4352af0286e091","1","12","null","","","","","","","","","<p style='font-size: 30px;'><strong>Okay</strong></p>","null","neutral_feedback","0","test","17","","","","","","","",""
"","","","","","","","","","","","html-button-response","41","2.0.0","72907","60ee4bb7de4352af0286e091","1","12","2808","","","","","","","","","<img src= ""rock_img/I_Basalt_05.jpg"" style=""width:8cm; height:8.18cm;""><p>What type of rock is this?</p>","0","class_response","0","test","18","Andesite","Basalt","05","false","1","2","",""
"","","","","","","","","","","","html-keyboard-response","42","2.0.0","73415","60ee4bb7de4352af0286e091","1","12","null","","","","","","","","","<p style='font-size: 30px;'><strong>Okay</strong></p>","null","neutral_feedback","0","test","18","","","","","","","",""
"","","","","","","","","","","","html-button-response","43","2.0.0","74380","60ee4bb7de4352af0286e091","1","12","964","","","","","","","","","<img src= ""rock_img/I_Peridotite_07.jpg"" style=""width:8cm; height:4.83cm;""><p>What type of rock is this?</p>","5","class_response","0","test","19","Pegmatite","Peridotite","07","false","6","7","",""
"","","","","","","","","","","","html-keyboard-response","44","2.0.0","74895","60ee4bb7de4352af0286e091","1","12","null","","","","","","","","","<p style='font-size: 30px;'><strong>Okay</strong></p>","null","neutral_feedback","0","test","19","","","","","","","",""
"","","","","","","","","","","","html-button-response","45","2.0.0","76487","60ee4bb7de4352af0286e091","1","12","1590","","","","","","","","","<img src= ""rock_img/I_Pegmatite_08.jpg"" style=""width:8cm; height:7.68cm;""><p>What type of rock is this?</p>","1","class_response","0","test","20","Basalt","Pegmatite","08","false","2","6","",""
"","","","","","","","","","","","html-keyboard-response","46","2.0.0","77001","60ee4bb7de4352af0286e091","1","12","null","","","","","","","","","<p style='font-size: 30px;'><strong>Okay</strong></p>","null","neutral_feedback","0","test","20","","","","","","","",""
"","","","","","","","","","","","html-button-response","47","2.0.0","78516","60ee4bb7de4352af0286e091","1","12","1512","","","","","","","","","<img src= ""rock_img/I_Gabbro_11.jpg"" style=""width:8cm; height:6.2cm;""><p>What type of rock is this?</p>","2","class_response","0","test","21","Diorite","Gabbro","11","false","3","4","",""
"","","","","","","","","","","","html-keyboard-response","48","2.0.0","79027","60ee4bb7de4352af0286e091","1","12","null","","","","","","","","","<p style='font-size: 30px;'><strong>Okay</strong></p>","null","neutral_feedback","0","test","21","","","","","","","",""
"","","","","","","","","","","","html-button-response","49","2.0.0","80047","60ee4bb7de4352af0286e091","1","12","1019","","","","","","","","","<img src= ""rock_img/I_Gabbro_03.jpg"" style=""width:8cm; height:8.52cm;""><p>What type of rock is this?</p>","5","class_response","0","test","22","Pegmatite","Gabbro","03","false","6","4","",""
"","","","","","","","","","","","html-keyboard-response","50","2.0.0","80557","60ee4bb7de4352af0286e091","1","12","null","","","","","","","","","<p style='font-size: 30px;'><strong>Okay</strong></p>","null","neutral_feedback","0","test","22","","","","","","","",""
"","","","","","","","","","","","html-button-response","51","2.0.0","81341","60ee4bb7de4352af0286e091","1","12","781","","","","","","","","","<img src= ""rock_img/I_Pumice_08.jpg"" style=""width:8cm; height:6.67cm;""><p>What type of rock is this?</p>","2","class_response","0","test","23","Diorite","Pumice","08","false","3","8","",""
"","","","","","","","","","","","html-keyboard-response","52","2.0.0","81842","60ee4bb7de4352af0286e091","1","12","null","","","","","","","","","<p style='font-size: 30px;'><strong>Okay</strong></p>","null","neutral_feedback","0","test","23","","","","","","","",""
"","","","","","","","","","","","html-button-response","53","2.0.0","82727","60ee4bb7de4352af0286e091","1","12","883","","","","","","","","","<img src= ""rock_img/I_Gabbro_01.jpg"" style=""width:8cm; height:5.21cm;""><p>What type of rock is this?</p>","2","class_response","0","test","24","Diorite","Gabbro","01","false","3","4","",""
"","","","","","","","","","","","html-keyboard-response","54","2.0.0","83233","60ee4bb7de4352af0286e091","1","12","null","","","","","","","","","<p style='font-size: 30px;'><strong>Okay</strong></p>","null","neutral_feedback","0","test","24","","","","","","","",""
"","","","","","","","","","","","html-button-response","55","2.0.0","84307","60ee4bb7de4352af0286e091","1","12","1071","","","","","","","","","<img src= ""rock_img/I_Peridotite_16.jpg"" style=""width:8cm; height:6.989999999999999cm;""><p>What type of rock is this?</p>","5","class_response","0","test","25","Pegmatite","Peridotite","16","false","6","7","",""
"","","","","","","","","","","","html-keyboard-response","56","2.0.0","84809","60ee4bb7de4352af0286e091","1","12","null","","","","","","","","","<p style='font-size: 30px;'><strong>Okay</strong></p>","null","neutral_feedback","0","test","25","","","","","","","",""
"","","","","","","","","","","","html-button-response","57","2.0.0","85983","60ee4bb7de4352af0286e091","1","12","1173","","","","","","","","","<img src= ""rock_img/I_Obsidian_06.jpg"" style=""width:8cm; height:6.8cm;""><p>What type of rock is this?</p>","2","class_response","0","test","26","Diorite","Obsidian","06","false","3","5","",""
"","","","","","","","","","","","html-keyboard-response","58","2.0.0","86491","60ee4bb7de4352af0286e091","1","12","null","","","","","","","","","<p style='font-size: 30px;'><strong>Okay</strong></p>","null","neutral_feedback","0","test","26","","","","","","","",""
"","","","","","","","","","","","html-button-response","59","2.0.0","96496","60ee4bb7de4352af0286e091","1","12","10003","","","","","","","","","<img src= ""rock_img/I_Obsidian_04.jpg"" style=""width:8cm; height:6.930000000000001cm;""><p>What type of rock is this?</p>","1","class_response","0","test","27","Basalt","Obsidian","04","false","2","5","",""
"","","","","","","","","","","","html-keyboard-response","60","2.0.0","96997","60ee4bb7de4352af0286e091","1","12","null","","","","","","","","","<p style='font-size: 30px;'><strong>Okay</strong></p>","null","neutral_feedback","0","test","27","","","","","","","",""
"","","","","","","","","","","","html-button-response","61","2.0.0","97789","60ee4bb7de4352af0286e091","1","12","790","","","","","","","","","<img src= ""rock_img/I_Obsidian_14.jpg"" style=""width:8cm; height:7.64cm;""><p>What type of rock is this?</p>","1","class_response","0","test","28","Basalt","Obsidian","14","false","2","5","",""
"","","","","","","","","","","","html-keyboard-response","62","2.0.0","98290","60ee4bb7de4352af0286e091","1","12","null","","","","","","","","","<p style='font-size: 30px;'><strong>Okay</strong></p>","null","neutral_feedback","0","test","28","","","","","","","",""
"","","","","","","","","","","","html-button-response","63","2.0.0","98844","60ee4bb7de4352af0286e091","1","12","553","","","","","","","","","<img src= ""rock_img/I_Andesite_05.jpg"" style=""width:8cm; height:4.12cm;""><p>What type of rock is this?</p>","2","class_response","0","test","29","Diorite","Andesite","05","false","3","1","",""
"","","","","","","","","","","","html-keyboard-response","64","2.0.0","99345","60ee4bb7de4352af0286e091","1","12","null","","","","","","","","","<p style='font-size: 30px;'><strong>Okay</strong></p>","null","neutral_feedback","0","test","29","","","","","","","",""
"","","","","","","","","","","","html-button-response","65","2.0.0","99928","60ee4bb7de4352af0286e091","1","12","581","","","","","","","","","<img src= ""rock_img/I_Peridotite_06.jpg"" style=""width:8cm; height:7.53cm;""><p>What type of rock is this?</p>","2","class_response","0","test","30","Diorite","Peridotite","06","false","3","7","",""
"","","","","","","","","","","","html-keyboard-response","66","2.0.0","100439","60ee4bb7de4352af0286e091","1","12","null","","","","","","","","","<p style='font-size: 30px;'><strong>Okay</strong></p>","null","neutral_feedback","0","test","30","","","","","","","",""
"","","","","","","","","","","","html-button-response","67","2.0.0","101204","60ee4bb7de4352af0286e091","1","12","763","","","","","","","","","<img src= ""rock_img/I_Andesite_03.jpg"" style=""width:8cm; height:5.73cm;""><p>What type of rock is this?</p>","1","class_response","0","test","31","Basalt","Andesite","03","false","2","1","",""
"","","","","","","","","","","","html-keyboard-response","68","2.0.0","101704","60ee4bb7de4352af0286e091","1","12","null","","","","","","","","","<p style='font-size: 30px;'><strong>Okay</strong></p>","null","neutral_feedback","0","test","31","","","","","","","",""
"","","","","","","","","","","","html-button-response","69","2.0.0","102657","60ee4bb7de4352af0286e091","1","12","951","","","","","","","","","<img src= ""rock_img/I_Basalt_02.jpg"" style=""width:8cm; height:6.45cm;""><p>What type of rock is this?</p>","5","class_response","0","test","32","Pegmatite","Basalt","02","false","6","2","",""
"","","","","","","","","","","","html-keyboard-response","70","2.0.0","103172","60ee4bb7de4352af0286e091","1","12","null","","","","","","","","","<p style='font-size: 30px;'><strong>Okay</strong></p>","null","neutral_feedback","0","test","32","","","","","","","",""
"","","","","","","","","","","","html-button-response","71","2.0.0","105101","60ee4bb7de4352af0286e091","1","12","1926","","","","","","","","","<img src= ""rock_img/I_Basalt_14.jpg"" style=""width:8cm; height:5.82cm;""><p>What type of rock is this?</p>","2","class_response","0","test","33","Diorite","Basalt","14","false","3","2","",""
"","","","","","","","","","","","html-keyboard-response","72","2.0.0","105603","60ee4bb7de4352af0286e091","1","12","null","","","","","","","","","<p style='font-size: 30px;'><strong>Okay</strong></p>","null","neutral_feedback","0","test","33","","","","","","","",""
"","","","","","","","","","","","html-button-response","73","2.0.0","106851","60ee4bb7de4352af0286e091","1","12","1246","","","","","","","","","<img src= ""rock_img/I_Pumice_05.jpg"" style=""width:8cm; height:7.25cm;""><p>What type of rock is this?</p>","7","class_response","0","test","34","Pumice","Pumice","05","true","8","8","",""
"","","","","","","","","","","","html-keyboard-response","74","2.0.0","107358","60ee4bb7de4352af0286e091","1","12","null","","","","","","","","","<p style='font-size: 30px;'><strong>Okay</strong></p>","null","neutral_feedback","0","test","34","","","","","","","",""
"","","","","","","","","","","","html-button-response","75","2.0.0","108506","60ee4bb7de4352af0286e091","1","12","1146","","","","","","","","","<img src= ""rock_img/I_Diorite_10.jpg"" style=""width:8cm; height:5.949999999999999cm;""><p>What type of rock is this?</p>","4","class_response","0","test","35","Obsidian","Diorite","10","false","5","3","",""
"","","","","","","","","","","","html-keyboard-response","76","2.0.0","109011","60ee4bb7de4352af0286e091","1","12","null","","","","","","","","","<p style='font-size: 30px;'><strong>Okay</strong></p>","null","neutral_feedback","0","test","35","","","","","","","",""
"","","","","","","","","","","","html-button-response","77","2.0.0","110013","60ee4bb7de4352af0286e091","1","12","999","","","","","","","","","<img src= ""rock_img/I_Obsidian_16.jpg"" style=""width:8cm; height:9.3cm;""><p>What type of rock is this?</p>","4","class_response","0","test","36","Obsidian","Obsidian","16","true","5","5","",""
"","","","","","","","","","","","html-keyboard-response","78","2.0.0","110514","60ee4bb7de4352af0286e091","1","12","null","","","","","","","","","<p style='font-size: 30px;'><strong>Okay</strong></p>","null","neutral_feedback","0","test","36","","","","","","","",""
"","","","","","","","","","","","html-button-response","79","2.0.0","111490","60ee4bb7de4352af0286e091","1","12","975","","","","","","","","","<img src= ""rock_img/I_Obsidian_07.jpg"" style=""width:8cm; height:4.76cm;""><p>What type of rock is this?</p>","4","class_response","0","test","37","Obsidian","Obsidian","07","true","5","5","",""
"","","","","","","","","","","","html-keyboard-response","80","2.0.0","112006","60ee4bb7de4352af0286e091","1","12","null","","","","","","","","","<p style='font-size: 30px;'><strong>Okay</strong></p>","null","neutral_feedback","0","test","37","","","","","","","",""
"","","","","","","","","","","","html-button-response","81","2.0.0","112988","60ee4bb7de4352af0286e091","1","12","980","","","","","","","","","<img src= ""rock_img/I_Obsidian_05.jpg"" style=""width:8cm; height:6.33cm;""><p>What type of rock is this?</p>","4","class_response","0","test","38","Obsidian","Obsidian","05","true","5","5","",""
"","","","","","","","","","","","html-keyboard-response","82","2.0.0","113497","60ee4bb7de4352af0286e091","1","12","null","","","","","","","","","<p style='font-size: 30px;'><strong>Okay</strong></p>","null","neutral_feedback","0","test","38","","","","","","","",""
"","","","","","","","","","","","html-button-response","83","2.0.0","114655","60ee4bb7de4352af0286e091","1","12","1155","","","","","","","","","<img src= ""rock_img/I_Pumice_14.jpg"" style=""width:8cm; height:6.39cm;""><p>What type of rock is this?</p>","7","class_response","0","test","39","Pumice","Pumice","14","true","8","8","",""
"","","","","","","","","","","","html-keyboard-response","84","2.0.0","115170","60ee4bb7de4352af0286e091","1","12","null","","","","","","","","","<p style='font-size: 30px;'><strong>Okay</strong></p>","null","neutral_feedback","0","test","39","","","","","","","",""
"","","","","","","","","","","","html-button-response","85","2.0.0","116411","60ee4bb7de4352af0286e091","1","12","1238","","","","","","","","","<img src= ""rock_img/I_Andesite_16.jpg"" style=""width:8cm; height:6.010000000000001cm;""><p>What type of rock is this?</p>","1","class_response","0","test","40","Basalt","Andesite","16","false","2","1","",""
"","","","","","","","","","","","html-keyboard-response","86","2.0.0","116912","60ee4bb7de4352af0286e091","1","12","null","","","","","","","","","<p style='font-size: 30px;'><strong>Okay</strong></p>","null","neutral_feedback","0","test","40","","","","","","","",""
"","","","","","","","","","","","html-button-response","87","2.0.0","117523","60ee4bb7de4352af0286e091","1","12","609","","","","","","","","","<img src= ""rock_img/I_Peridotite_12.jpg"" style=""width:8cm; height:4.54cm;""><p>What type of rock is this?</p>","1","class_response","0","test","41","Basalt","Peridotite","12","false","2","7","",""
"","","","","","","","","","","","html-keyboard-response","88","2.0.0","118038","60ee4bb7de4352af0286e091","1","12","null","","","","","","","","","<p style='font-size: 30px;'><strong>Okay</strong></p>","null","neutral_feedback","0","test","41","","","","","","","",""
"","","","","","","","","","","","html-button-response","89","2.0.0","119067","60ee4bb7de4352af0286e091","1","12","1027","","","","","","","","","<img src= ""rock_img/I_Andesite_01.jpg"" style=""width:8cm; height:5.87cm;""><p>What type of rock is this?</p>","6","class_response","0","test","42","Peridotite","Andesite","01","false","7","1","",""
"","","","","","","","","","","","html-keyboard-response","90","2.0.0","119574","60ee4bb7de4352af0286e091","1","12","null","","","","","","","","","<p style='font-size: 30px;'><strong>Okay</strong></p>","null","neutral_feedback","0","test","42","","","","","","","",""
"","","","","","","","","","","","html-button-response","91","2.0.0","120742","60ee4bb7de4352af0286e091","1","12","1167","","","","","","","","","<img src= ""rock_img/I_Peridotite_02.jpg"" style=""width:8cm; height:5.859999999999999cm;""><p>What type of rock is this?</p>","6","class_response","0","test","43","Peridotite","Peridotite","02","true","7","7","",""
"","","","","","","","","","","","html-keyboard-response","92","2.0.0","121248","60ee4bb7de4352af0286e091","1","12","null","","","","","","","","","<p style='font-size: 30px;'><strong>Okay</strong></p>","null","neutral_feedback","0","test","43","","","","","","","",""
"","","","","","","","","","","","html-button-response","93","2.0.0","122328","60ee4bb7de4352af0286e091","1","12","1078","","","","","","","","","<img src= ""rock_img/I_Diorite_11.jpg"" style=""width:8cm; height:7.11cm;""><p>What type of rock is this?</p>","2","class_response","0","test","44","Diorite","Diorite","11","true","3","3","",""
"","","","","","","","","","","","html-keyboard-response","94","2.0.0","122833","60ee4bb7de4352af0286e091","1","12","null","","","","","","","","","<p style='font-size: 30px;'><strong>Okay</strong></p>","null","neutral_feedback","0","test","44","","","","","","","",""
"","","","","","","","","","","","html-button-response","95","2.0.0","124344","60ee4bb7de4352af0286e091","1","12","1509","","","","","","","","","<img src= ""rock_img/I_Basalt_09.jpg"" style=""width:8cm; height:6.2cm;""><p>What type of rock is this?</p>","5","class_response","0","test","45","Pegmatite","Basalt","09","false","6","2","",""
"","","","","","","","","","","","html-keyboard-response","96","2.0.0","124856","60ee4bb7de4352af0286e091","1","12","null","","","","","","","","","<p style='font-size: 30px;'><strong>Okay</strong></p>","null","neutral_feedback","0","test","45","","","","","","","",""
"","","","","","","","","","","","html-button-response","97","2.0.0","125824","60ee4bb7de4352af0286e091","1","12","965","","","","","","","","","<img src= ""rock_img/I_Diorite_07.jpg"" style=""width:8cm; height:5.239999999999999cm;""><p>What type of rock is this?</p>","1","class_response","0","test","46","Basalt","Diorite","07","false","2","3","",""
"","","","","","","","","","","","html-keyboard-response","98","2.0.0","126333","60ee4bb7de4352af0286e091","1","12","null","","","","","","","","","<p style='font-size: 30px;'><strong>Okay</strong></p>","null","neutral_feedback","0","test","46","","","","","","","",""
"","","","","","","","","","","","html-button-response","99","2.0.0","126960","60ee4bb7de4352af0286e091","1","12","625","","","","","","","","","<img src= ""rock_img/I_Gabbro_15.jpg"" style=""width:8cm; height:6.29cm;""><p>What type of rock is this?</p>","2","class_response","0","test","47","Diorite","Gabbro","15","false","3","4","",""
"","","","","","","","","","","","html-keyboard-response","100","2.0.0","127462","60ee4bb7de4352af0286e091","1","12","null","","","","","","","","","<p style='font-size: 30px;'><strong>Okay</strong></p>","null","neutral_feedback","0","test","47","","","","","","","",""
"","","","","","","","","","","","html-button-response","101","2.0.0","128127","60ee4bb7de4352af0286e091","1","12","662","","","","","","","","","<img src= ""rock_img/I_Diorite_15.jpg"" style=""width:8cm; height:5.54cm;""><p>What type of rock is this?</p>","5","class_response","0","test","48","Pegmatite","Diorite","15","false","6","3","",""
"","","","","","","","","","","","html-keyboard-response","102","2.0.0","128628","60ee4bb7de4352af0286e091","1","12","null","","","","","","","","","<p style='font-size: 30px;'><strong>Okay</strong></p>","null","neutral_feedback","0","test","48","","","","","","","",""
"","","","","","","","","","","","instructions","103","2.0.0","157856","60ee4bb7de4352af0286e091","1","12","29214","","","","","","","","[{""page_index"":0,""viewing_time"":18597},{""page_index"":1,""viewing_time"":4850},{""page_index"":2,""viewing_time"":5766}]","","","","","","","","","","","","","",""
"","","","","","","","","","","","html-button-response","104","2.0.0","163044","60ee4bb7de4352af0286e091","1","12","5187","","","","","","","","","","0","start_train","","","","","","","","","","",""
"","","","","","","","","","","","html-button-response","105","2.0.0","164738","60ee4bb7de4352af0286e091","1","12","1692","","","","","","","","","<img src= ""rock_img/I_Peridotite_05.jpg"" style=""width:8cm; height:7.1499999999999995cm;""><p>What type of rock is this?</p>","0","class_response","1","train","1","Andesite","Peridotite","05","false","1","7","",""
"","","","","","","","","","","","html-button-response","106","2.0.0","166129","60ee4bb7de4352af0286e091","1","12","1389","","","","","","","","","<img src= rock_img/I_Peridotite_05.jpg style=""width:8cm; height:7.1499999999999995cm;""><p style='font-size: 30px; color: red;'><strong>Incorrect!</strong></p><p style='font-size: 30px;'><strong>This rock is peridotite</strong></p>","0","corr_feedback","1","train","1","","","","","","","",""
"","","","","","","","","","","","html-button-response","107","2.0.0","167496","60ee4bb7de4352af0286e091","1","12","1366","","","","","","","","","<img src= ""rock_img/I_Basalt_10.jpg"" style=""width:8cm; height:5.85cm;""><p>What type of rock is this?</p>","4","class_response","1","train","2","Obsidian","Basalt","10","false","5","2","",""
"","","","","","","","","","","","html-button-response","108","2.0.0","168441","60ee4bb7de4352af0286e091","1","12","944","","","","","","","","","<img src= rock_img/I_Basalt_10.jpg style=""width:8cm; height:5.85cm;""><p style='font-size: 30px; color: red;'><strong>Incorrect!</strong></p><p style='font-size: 30px;'><strong>This rock is basalt</strong></p>","0","corr_feedback","1","train","2","","","","","","","",""
"","","","","","","","","","","","html-button-response","109","2.0.0","169598","60ee4bb7de4352af0286e091","1","12","1156","","","","","","","","","<img src= ""rock_img/I_Peridotite_04.jpg"" style=""width:8cm; height:6.680000000000001cm;""><p>What type of rock is this?</p>","5","class_response","1","train","3","Pegmatite","Peridotite","04","false","6","7","",""
"","","","","","","","","","","","html-button-response","110","2.0.0","171098","60ee4bb7de4352af0286e091","1","12","1499","","","","","","","","","<img src= rock_img/I_Peridotite_04.jpg style=""width:8cm; height:6.680000000000001cm;""><p style='font-size: 30px; color: red;'><strong>Incorrect!</strong></p><p style='font-size: 30px;'><strong>This rock is peridotite</strong></p>","0","corr_feedback","1","train","3","","","","","","","",""
"","","","","","","","","","","","html-button-response","111","2.0.0","173434","60ee4bb7de4352af0286e091","1","12","2335","","","","","","","","","<img src= ""rock_img/I_Andesite_10.jpg"" style=""width:8cm; height:4.16cm;""><p>What type of rock is this?</p>","7","class_response","1","train","4","Pumice","Andesite","10","false","8","1","",""
"","","","","","","","","","","","html-button-response","112","2.0.0","174133","60ee4bb7de4352af0286e091","1","12","697","","","","","","","","","<img src= rock_img/I_Andesite_10.jpg style=""width:8cm; height:4.16cm;""><p style='font-size: 30px; color: red;'><strong>Incorrect!</strong></p><p style='font-size: 30px;'><strong>This rock is andesite</strong></p>","0","corr_feedback","1","train","4","","","","","","","",""
"","","","","","","","","","","","html-button-response","113","2.0.0","175166","60ee4bb7de4352af0286e091","1","12","1032","","","","","","","","","<img src= ""rock_img/I_Pumice_10.jpg"" style=""width:8cm; height:7.609999999999999cm;""><p>What type of rock is this?</p>","7","class_response","1","train","5","Pumice","Pumice","10","true","8","8","",""
"","","","","","","","","","","","html-button-response","114","2.0.0","175846","60ee4bb7de4352af0286e091","1","12","679","","","","","","","","","<img src= rock_img/I_Pumice_10.jpg style=""width:8cm; height:7.609999999999999cm;""><p style='font-size: 30px; color: green;'><strong>Correct!</strong></p><p style='font-size: 30px;'><strong>This rock is pumice</strong></p>","0","corr_feedback","1","train","5","","","","","","","",""
"","","","","","","","","","","","html-button-response","115","2.0.0","177842","60ee4bb7de4352af0286e091","1","12","1994","","","","","","","","","<img src= ""rock_img/I_Diorite_06.jpg"" style=""width:8cm; height:6.03cm;""><p>What type of rock is this?</p>","3","class_response","1","train","6","Gabbro","Diorite","06","false","4","3","",""
"","","","","","","","","","","","html-button-response","116","2.0.0","178574","60ee4bb7de4352af0286e091","1","12","731","","","","","","","","","<img src= rock_img/I_Diorite_06.jpg style=""width:8cm; height:6.03cm;""><p style='font-size: 30px; color: red;'><strong>Incorrect!</strong></p><p style='font-size: 30px;'><strong>This rock is diorite</strong></p>","0","corr_feedback","1","train","6","","","","","","","",""
"","","","","","","","","","","","html-button-response","117","2.0.0","179929","60ee4bb7de4352af0286e091","1","12","1361","","","","","","","","","<img src= ""rock_img/I_Gabbro_14.jpg"" style=""width:8cm; height:8.48cm;""><p>What type of rock is this?</p>","2","class_response","1","train","7","Diorite","Gabbro","14","false","3","4","",""
"","","","","","","","","","","","html-button-response","118","2.0.0","180687","60ee4bb7de4352af0286e091","1","12","757","","","","","","","","","<img src= rock_img/I_Gabbro_14.jpg style=""width:8cm; height:8.48cm;""><p style='font-size: 30px; color: red;'><strong>Incorrect!</strong></p><p style='font-size: 30px;'><strong>This rock is gabbro</strong></p>","0","corr_feedback","1","train","7","","","","","","","",""
"","","","","","","","","","","","html-button-response","119","2.0.0","183576","60ee4bb7de4352af0286e091","1","12","2888","","","","","","","","","<img src= ""rock_img/I_Peridotite_15.jpg"" style=""width:8cm; height:6cm;""><p>What type of rock is this?</p>","6","class_response","1","train","8","Peridotite","Peridotite","15","true","7","7","",""
"","","","","","","","","","","","html-button-response","120","2.0.0","186485","60ee4bb7de4352af0286e091","1","12","2908","","","","","","","","","<img src= rock_img/I_Peridotite_15.jpg style=""width:8cm; height:6cm;""><p style='font-size: 30px; color: green;'><strong>Correct!</strong></p><p style='font-size: 30px;'><strong>This rock is peridotite</strong></p>","0","corr_feedback","1","train","8","","","","","","","",""
"","","","","","","","","","","","html-button-response","121","2.0.0","189033","60ee4bb7de4352af0286e091","1","12","2547","","","","","","","","","<img src= ""rock_img/I_Gabbro_16.jpg"" style=""width:8cm; height:6.44cm;""><p>What type of rock is this?</p>","4","class_response","1","train","9","Obsidian","Gabbro","16","false","5","4","",""
"","","","","","","","","","","","html-button-response","122","2.0.0","189851","60ee4bb7de4352af0286e091","1","12","817","","","","","","","","","<img src= rock_img/I_Gabbro_16.jpg style=""width:8cm; height:6.44cm;""><p style='font-size: 30px; color: red;'><strong>Incorrect!</strong></p><p style='font-size: 30px;'><strong>This rock is gabbro</strong></p>","0","corr_feedback","1","train","9","","","","","","","",""
"","","","","","","","","","","","html-button-response","123","2.0.0","191333","60ee4bb7de4352af0286e091","1","12","1480","","","","","","","","","<img src= ""rock_img/I_Diorite_13.jpg"" style=""width:8cm; height:6.29cm;""><p>What type of rock is this?</p>","5","class_response","1","train","10","Pegmatite","Diorite","13","false","6","3","",""
"","","","","","","","","","","","html-button-response","124","2.0.0","192219","60ee4bb7de4352af0286e091","1","12","885","","","","","","","","","<img src= rock_img/I_Diorite_13.jpg style=""width:8cm; height:6.29cm;""><p style='font-size: 30px; color: red;'><strong>Incorrect!</strong></p><p style='font-size: 30px;'><strong>This rock is diorite</strong></p>","0","corr_feedback","1","train","10","","","","","","","",""
"","","","","","","","","","","","html-button-response","125","2.0.0","196547","60ee4bb7de4352af0286e091","1","12","4327","","","","","","","","","<img src= ""rock_img/I_Pumice_02.jpg"" style=""width:8cm; height:7.3999999999999995cm;""><p>What type of rock is this?</p>","7","class_response","1","train","11","Pumice","Pumice","02","true","8","8","",""
"","","","","","","","","","","","html-button-response","126","2.0.0","197427","60ee4bb7de4352af0286e091","1","12","879","","","","","","","","","<img src= rock_img/I_Pumice_02.jpg style=""width:8cm; height:7.3999999999999995cm;""><p style='font-size: 30px; color: green;'><strong>Correct!</strong></p><p style='font-size: 30px;'><strong>This rock is pumice</strong></p>","0","corr_feedback","1","train","11","","","","","","","",""
"","","","","","","","","","","","html-button-response","127","2.0.0","199310","60ee4bb7de4352af0286e091","1","12","1883","","","","","","","","","<img src= ""rock_img/I_Peridotite_10.jpg"" style=""width:8cm; height:5.390000000000001cm;""><p>What type of rock is this?</p>","4","class_response","1","train","12","Obsidian","Peridotite","10","false","5","7","",""
"","","","","","","","","","","","html-button-response","128","2.0.0","200208","60ee4bb7de4352af0286e091","1","12","897","","","","","","","","","<img src= rock_img/I_Peridotite_10.jpg style=""width:8cm; height:5.390000000000001cm;""><p style='font-size: 30px; color: red;'><strong>Incorrect!</strong></p><p style='font-size: 30px;'><strong>This rock is peridotite</strong></p>","0","corr_feedback","1","train","12","","","","","","","",""
"","","","","","","","","","","","html-button-response","129","2.0.0","203758","60ee4bb7de4352af0286e091","1","12","3548","","","","","","","","","<img src= ""rock_img/I_Basalt_16.jpg"" style=""width:8cm; height:7.659999999999999cm;""><p>What type of rock is this?</p>","5","class_response","1","train","13","Pegmatite","Basalt","16","false","6","2","",""
"","","","","","","","","","","","html-button-response","130","2.0.0","204471","60ee4bb7de4352af0286e091","1","12","711","","","","","","","","","<img src= rock_img/I_Basalt_16.jpg style=""width:8cm; height:7.659999999999999cm;""><p style='font-size: 30px; color: red;'><strong>Incorrect!</strong></p><p style='font-size: 30px;'><strong>This rock is basalt</strong></p>","0","corr_feedback","1","train","13","","","","","","","",""
"","","","","","","","","","","","html-button-response","131","2.0.0","206363","60ee4bb7de4352af0286e091","1","12","1891","","","","","","","","","<img src= ""rock_img/I_Pegmatite_07.jpg"" style=""width:8cm; height:6.7cm;""><p>What type of rock is this?</p>","2","class_response","1","train","14","Diorite","Pegmatite","07","false","3","6","",""
"","","","","","","","","","","","html-button-response","132","2.0.0","207185","60ee4bb7de4352af0286e091","1","12","820","","","","","","","","","<img src= rock_img/I_Pegmatite_07.jpg style=""width:8cm; height:6.7cm;""><p style='font-size: 30px; color: red;'><strong>Incorrect!</strong></p><p style='font-size: 30px;'><strong>This rock is pegmatite</strong></p>","0","corr_feedback","1","train","14","","","","","","","",""
"","","","","","","","","","","","html-button-response","133","2.0.0","208905","60ee4bb7de4352af0286e091","1","12","1719","","","","","","","","","<img src= ""rock_img/I_Pegmatite_09.jpg"" style=""width:8cm; height:4.03cm;""><p>What type of rock is this?</p>","0","class_response","1","train","15","Andesite","Pegmatite","09","false","1","6","",""
"","","","","","","","","","","","html-button-response","134","2.0.0","209657","60ee4bb7de4352af0286e091","1","12","751","","","","","","","","","<img src= rock_img/I_Pegmatite_09.jpg style=""width:8cm; height:4.03cm;""><p style='font-size: 30px; color: red;'><strong>Incorrect!</strong></p><p style='font-size: 30px;'><strong>This rock is pegmatite</strong></p>","0","corr_feedback","1","train","15","","","","","","","",""
"","","","","","","","","","","","html-button-response","135","2.0.0","210707","60ee4bb7de4352af0286e091","1","12","1049","","","","","","","","","<img src= ""rock_img/I_Basalt_04.jpg"" style=""width:8cm; height:7.53cm;""><p>What type of rock is this?</p>","4","class_response","1","train","16","Obsidian","Basalt","04","false","5","2","",""
"","","","","","","","","","","","html-button-response","136","2.0.0","211381","60ee4bb7de4352af0286e091","1","12","673","","","","","","","","","<img src= rock_img/I_Basalt_04.jpg style=""width:8cm; height:7.53cm;""><p style='font-size: 30px; color: red;'><strong>Incorrect!</strong></p><p style='font-size: 30px;'><strong>This rock is basalt</strong></p>","0","corr_feedback","1","train","16","","","","","","","",""
"","","","","","","","","","","","html-button-response","137","2.0.0","213225","60ee4bb7de4352af0286e091","1","12","1843","","","","","","","","","<img src= ""rock_img/I_Pumice_15.jpg"" style=""width:8cm; height:7.86cm;""><p>What type of rock is this?</p>","1","class_response","1","train","17","Basalt","Pumice","15","false","2","8","",""
"","","","","","","","","","","","html-button-response","138","2.0.0","213831","60ee4bb7de4352af0286e091","1","12","605","","","","","","","","","<img src= rock_img/I_Pumice_15.jpg style=""width:8cm; height:7.86cm;""><p style='font-size: 30px; color: red;'><strong>Incorrect!</strong></p><p style='font-size: 30px;'><strong>This rock is pumice</strong></p>","0","corr_feedback","1","train","17","","","","","","","",""
"","","","","","","","","","","","html-button-response","139","2.0.0","214899","60ee4bb7de4352af0286e091","1","12","1066","","","","","","","","","<img src= ""rock_img/I_Pegmatite_13.jpg"" style=""width:8cm; height:4.95cm;""><p>What type of rock is this?</p>","5","class_response","1","train","18","Pegmatite","Pegmatite","13","true","6","6","",""
"","","","","","","","","","","","html-button-response","140","2.0.0","215654","60ee4bb7de4352af0286e091","1","12","754","","","","","","","","","<img src= rock_img/I_Pegmatite_13.jpg style=""width:8cm; height:4.95cm;""><p style='font-size: 30px; color: green;'><strong>Correct!</strong></p><p style='font-size: 30px;'><strong>This rock is pegmatite</strong></p>","0","corr_feedback","1","train","18","","","","","","","",""
"","","","","","","","","","","","html-button-response","141","2.0.0","216409","60ee4bb7de4352af0286e091","1","12","753","","","","","","","","","<img src= ""rock_img/I_Gabbro_09.jpg"" style=""width:8cm; height:7.279999999999999cm;""><p>What type of rock is this?</p>","2","class_response","1","train","19","Diorite","Gabbro","09","false","3","4","",""
"","","","","","","","","","","","html-button-response","142","2.0.0","217111","60ee4bb7de4352af0286e091","1","12","701","","","","","","","","","<img src= rock_img/I_Gabbro_09.jpg style=""width:8cm; height:7.279999999999999cm;""><p style='font-size: 30px; color: red;'><strong>Incorrect!</strong></p><p style='font-size: 30px;'><strong>This rock is gabbro</strong></p>","0","corr_feedback","1","train","19","","","","","","","",""
"","","","","","","","","","","","html-button-response","143","2.0.0","217763","60ee4bb7de4352af0286e091","1","12","651","","","","","","","","","<img src= ""rock_img/I_Andesite_02.jpg"" style=""width:8cm; height:8.5cm;""><p>What type of rock is this?</p>","6","class_response","1","train","20","Peridotite","Andesite","02","false","7","1","",""
"","","","","","","","","","","","html-button-response","144","2.0.0","218244","60ee4bb7de4352af0286e091","1","12","480","","","","","","","","","<img src= rock_img/I_Andesite_02.jpg style=""width:8cm; height:8.5cm;""><p style='font-size: 30px; color: red;'><strong>Incorrect!</strong></p><p style='font-size: 30px;'><strong>This rock is andesite</strong></p>","0","corr_feedback","1","train","20","","","","","","","",""
"","","","","","","","","","","","html-button-response","145","2.0.0","219591","60ee4bb7de4352af0286e091","1","12","1346","","","","","","","","","<img src= ""rock_img/I_Pegmatite_05.jpg"" style=""width:8cm; height:7.300000000000001cm;""><p>What type of rock is this?</p>","3","class_response","1","train","21","Gabbro","Pegmatite","05","false","4","6","",""
"","","","","","","","","","","","html-button-response","146","2.0.0","220201","60ee4bb7de4352af0286e091","1","12","609","","","","","","","","","<img src= rock_img/I_Pegmatite_05.jpg style=""width:8cm; height:7.300000000000001cm;""><p style='font-size: 30px; color: red;'><strong>Incorrect!</strong></p><p style='font-size: 30px;'><strong>This rock is pegmatite</strong></p>","0","corr_feedback","1","train","21","","","","","","","",""
"","","","","","","","","","","","html-button-response","147","2.0.0","222067","60ee4bb7de4352af0286e091","1","12","1865","","","","","","","","","<img src= ""rock_img/I_Andesite_09.jpg"" style=""width:8cm; height:6cm;""><p>What type of rock is this?</p>","3","class_response","1","train","22","Gabbro","Andesite","09","false","4","1","",""
"","","","","","","","","","","","html-button-response","148","2.0.0","223094","60ee4bb7de4352af0286e091","1","12","1026","","","","","","","","","<img src= rock_img/I_Andesite_09.jpg style=""width:8cm; height:6cm;""><p style='font-size: 30px; color: red;'><strong>Incorrect!</strong></p><p style='font-size: 30px;'><strong>This rock is andesite</strong></p>","0","corr_feedback","1","train","22","","","","","","","",""
"","","","","","","","","","","","html-button-response","149","2.0.0","224739","60ee4bb7de4352af0286e091","1","12","1643","","","","","","","","","<img src= ""rock_img/I_Gabbro_08.jpg"" style=""width:8cm; height:5.15cm;""><p>What type of rock is this?</p>","5","class_response","1","train","23","Pegmatite","Gabbro","08","false","6","4","",""
"","","","","","","","","","","","html-button-response","150","2.0.0","225291","60ee4bb7de4352af0286e091","1","12","552","","","","","","","","","<img src= rock_img/I_Gabbro_08.jpg style=""width:8cm; height:5.15cm;""><p style='font-size: 30px; color: red;'><strong>Incorrect!</strong></p><p style='font-size: 30px;'><strong>This rock is gabbro</strong></p>","0","corr_feedback","1","train","23","","","","","","","",""
"","","","","","","","","","","","html-button-response","151","2.0.0","225895","60ee4bb7de4352af0286e091","1","12","602","","","","","","","","","<img src= ""rock_img/I_Obsidian_10.jpg"" style=""width:8cm; height:6.260000000000001cm;""><p>What type of rock is this?</p>","0","class_response","1","train","24","Andesite","Obsidian","10","false","1","5","",""
"","","","","","","","","","","","html-button-response","152","2.0.0","226735","60ee4bb7de4352af0286e091","1","12","838","","","","","","","","","<img src= rock_img/I_Obsidian_10.jpg style=""width:8cm; height:6.260000000000001cm;""><p style='font-size: 30px; color: red;'><strong>Incorrect!</strong></p><p style='font-size: 30px;'><strong>This rock is obsidian</strong></p>","0","corr_feedback","1","train","24","","","","","","","",""
"","","","","","","","","","","","html-button-response","153","2.0.0","227393","60ee4bb7de4352af0286e091","1","12","657","","","","","","","","","<img src= ""rock_img/I_Diorite_14.jpg"" style=""width:8cm; height:5.71cm;""><p>What type of rock is this?</p>","4","class_response","1","train","25","Obsidian","Diorite","14","false","5","3","",""
"","","","","","","","","","","","html-button-response","154","2.0.0","228007","60ee4bb7de4352af0286e091","1","12","613","","","","","","","","","<img src= rock_img/I_Diorite_14.jpg style=""width:8cm; height:5.71cm;""><p style='font-size: 30px; color: red;'><strong>Incorrect!</strong></p><p style='font-size: 30px;'><strong>This rock is diorite</strong></p>","0","corr_feedback","1","train","25","","","","","","","",""
"","","","","","","","","","","","html-button-response","155","2.0.0","228477","60ee4bb7de4352af0286e091","1","12","469","","","","","","","","","<img src= ""rock_img/I_Peridotite_08.jpg"" style=""width:8cm; height:6.7cm;""><p>What type of rock is this?</p>","6","class_response","1","train","26","Peridotite","Peridotite","08","true","7","7","",""
"","","","","","","","","","","","html-button-response","156","2.0.0","229199","60ee4bb7de4352af0286e091","1","12","721","","","","","","","","","<img src= rock_img/I_Peridotite_08.jpg style=""width:8cm; height:6.7cm;""><p style='font-size: 30px; color: green;'><strong>Correct!</strong></p><p style='font-size: 30px;'><strong>This rock is peridotite</strong></p>","0","corr_feedback","1","train","26","","","","","","","",""
"","","","","","","","","","","","html-button-response","157","2.0.0","230573","60ee4bb7de4352af0286e091","1","12","1372","","","","","","","","","<img src= ""rock_img/I_Andesite_14.jpg"" style=""width:8cm; height:5.449999999999999cm;""><p>What type of rock is this?</p>","2","class_response","1","train","27","Diorite","Andesite","14","false","3","1","",""
"","","","","","","","","","","","html-button-response","158","2.0.0","231139","60ee4bb7de4352af0286e091","1","12","565","","","","","","","","","<img src= rock_img/I_Andesite_14.jpg style=""width:8cm; height:5.449999999999999cm;""><p style='font-size: 30px; color: red;'><strong>Incorrect!</strong></p><p style='font-size: 30px;'><strong>This rock is andesite</strong></p>","0","corr_feedback","1","train","27","","","","","","","",""
"","","","","","","","","","","","html-button-response","159","2.0.0","232599","60ee4bb7de4352af0286e091","1","12","1459","","","","","","","","","<img src= ""rock_img/I_Pumice_06.jpg"" style=""width:8cm; height:6.9399999999999995cm;""><p>What type of rock is this?</p>","0","class_response","1","train","28","Andesite","Pumice","06","false","1","8","",""
"","","","","","","","","","","","html-button-response","160","2.0.0","233467","60ee4bb7de4352af0286e091","1","12","867","","","","","","","","","<img src= rock_img/I_Pumice_06.jpg style=""width:8cm; height:6.9399999999999995cm;""><p style='font-size: 30px; color: red;'><strong>Incorrect!</strong></p><p style='font-size: 30px;'><strong>This rock is pumice</strong></p>","0","corr_feedback","1","train","28","","","","","","","",""
"","","","","","","","","","","","html-button-response","161","2.0.0","234707","60ee4bb7de4352af0286e091","1","12","1239","","","","","","","","","<img src= ""rock_img/I_Obsidian_11.jpg"" style=""width:8cm; height:6.05cm;""><p>What type of rock is this?</p>","4","class_response","1","train","29","Obsidian","Obsidian","11","true","5","5","",""
"","","","","","","","","","","","html-button-response","162","2.0.0","235352","60ee4bb7de4352af0286e091","1","12","644","","","","","","","","","<img src= rock_img/I_Obsidian_11.jpg style=""width:8cm; height:6.05cm;""><p style='font-size: 30px; color: green;'><strong>Correct!</strong></p><p style='font-size: 30px;'><strong>This rock is obsidian</strong></p>","0","corr_feedback","1","train","29","","","","","","","",""
"","","","","","","","","","","","html-button-response","163","2.0.0","242791","60ee4bb7de4352af0286e091","1","12","7439","","","","","","","","","<img src= ""rock_img/I_Pegmatite_11.jpg"" style=""width:8cm; height:8.14cm;""><p>What type of rock is this?</p>","5","class_response","1","train","30","Pegmatite","Pegmatite","11","true","6","6","",""
"","","","","","","","","","","","html-button-response","164","2.0.0","243412","60ee4bb7de4352af0286e091","1","12","621","","","","","","","","","<img src= rock_img/I_Pegmatite_11.jpg style=""width:8cm; height:8.14cm;""><p style='font-size: 30px; color: green;'><strong>Correct!</strong></p><p style='font-size: 30px;'><strong>This rock is pegmatite</strong></p>","0","corr_feedback","1","train","30","","","","","","","",""
"","","","","","","","","","","","html-button-response","165","2.0.0","244834","60ee4bb7de4352af0286e091","1","12","1421","","","","","","","","","<img src= ""rock_img/I_Basalt_11.jpg"" style=""width:8cm; height:5.359999999999999cm;""><p>What type of rock is this?</p>","7","class_response","1","train","31","Pumice","Basalt","11","false","8","2","",""
"","","","","","","","","","","","html-button-response","166","2.0.0","245564","60ee4bb7de4352af0286e091","1","12","729","","","","","","","","","<img src= rock_img/I_Basalt_11.jpg style=""width:8cm; height:5.359999999999999cm;""><p style='font-size: 30px; color: red;'><strong>Incorrect!</strong></p><p style='font-size: 30px;'><strong>This rock is basalt</strong></p>","0","corr_feedback","1","train","31","","","","","","","",""
"","","","","","","","","","","","html-button-response","167","2.0.0","246479","60ee4bb7de4352af0286e091","1","12","913","","","","","","","","","<img src= ""rock_img/I_Diorite_09.jpg"" style=""width:8cm; height:5.27cm;""><p>What type of rock is this?</p>","2","class_response","1","train","32","Diorite","Diorite","09","true","3","3","",""
"","","","","","","","","","","","html-button-response","168","2.0.0","248001","60ee4bb7de4352af0286e091","1","12","1521","","","","","","","","","<img src= rock_img/I_Diorite_09.jpg style=""width:8cm; height:5.27cm;""><p style='font-size: 30px; color: green;'><strong>Correct!</strong></p><p style='font-size: 30px;'><strong>This rock is diorite</strong></p>","0","corr_feedback","1","train","32","","","","","","","",""
"","","","","","","","","","","","html-button-response","169","2.0.0","248727","60ee4bb7de4352af0286e091","1","12","724","","","","","","","","","<img src= ""rock_img/I_Andesite_06.jpg"" style=""width:8cm; height:6.840000000000001cm;""><p>What type of rock is this?</p>","1","class_response","1","train","33","Basalt","Andesite","06","false","2","1","",""
"","","","","","","","","","","","html-button-response","170","2.0.0","249302","60ee4bb7de4352af0286e091","1","12","574","","","","","","","","","<img src= rock_img/I_Andesite_06.jpg style=""width:8cm; height:6.840000000000001cm;""><p style='font-size: 30px; color: red;'><strong>Incorrect!</strong></p><p style='font-size: 30px;'><strong>This rock is andesite</strong></p>","0","corr_feedback","1","train","33","","","","","","","",""
"","","","","","","","","","","","html-button-response","171","2.0.0","249797","60ee4bb7de4352af0286e091","1","12","493","","","","","","","","","<img src= ""rock_img/I_Obsidian_12.jpg"" style=""width:8cm; height:6.53cm;""><p>What type of rock is this?</p>","5","class_response","1","train","34","Pegmatite","Obsidian","12","false","6","5","",""
"","","","","","","","","","","","html-button-response","172","2.0.0","250724","60ee4bb7de4352af0286e091","1","12","927","","","","","","","","","<img src= rock_img/I_Obsidian_12.jpg style=""width:8cm; height:6.53cm;""><p style='font-size: 30px; color: red;'><strong>Incorrect!</strong></p><p style='font-size: 30px;'><strong>This rock is obsidian</strong></p>","0","corr_feedback","1","train","34","","","","","","","",""
"","","","","","","","","","","","html-button-response","173","2.0.0","252419","60ee4bb7de4352af0286e091","1","12","1693","","","","","","","","","<img src= ""rock_img/I_Basalt_12.jpg"" style=""width:8cm; height:6.010000000000001cm;""><p>What type of rock is this?</p>","7","class_response","1","train","35","Pumice","Basalt","12","false","8","2","",""
"","","","","","","","","","","","html-button-response","174","2.0.0","253042","60ee4bb7de4352af0286e091","1","12","622","","","","","","","","","<img src= rock_img/I_Basalt_12.jpg style=""width:8cm; height:6.010000000000001cm;""><p style='font-size: 30px; color: red;'><strong>Incorrect!</strong></p><p style='font-size: 30px;'><strong>This rock is basalt</strong></p>","0","corr_feedback","1","train","35","","","","","","","",""
"","","","","","","","","","","","html-button-response","175","2.0.0","254625","60ee4bb7de4352af0286e091","1","12","1581","","","","","","","","","<img src= ""rock_img/I_Andesite_04.jpg"" style=""width:8cm; height:5.96cm;""><p>What type of rock is this?</p>","5","class_response","1","train","36","Pegmatite","Andesite","04","false","6","1","",""
"","","","","","","","","","","","html-button-response","176","2.0.0","255142","60ee4bb7de4352af0286e091","1","12","516","","","","","","","","","<img src= rock_img/I_Andesite_04.jpg style=""width:8cm; height:5.96cm;""><p style='font-size: 30px; color: red;'><strong>Incorrect!</strong></p><p style='font-size: 30px;'><strong>This rock is andesite</strong></p>","0","corr_feedback","1","train","36","","","","","","","",""
"","","","","","","","","","","","html-button-response","177","2.0.0","256714","60ee4bb7de4352af0286e091","1","12","1571","","","","","","","","","<img src= ""rock_img/I_Pumice_16.jpg"" style=""width:8cm; height:6.79cm;""><p>What type of rock is this?</p>","7","class_response","1","train","37","Pumice","Pumice","16","true","8","8","",""
"","","","","","","","","","","","html-button-response","178","2.0.0","257646","60ee4bb7de4352af0286e091","1","12","930","","","","","","","","","<img src= rock_img/I_Pumice_16.jpg style=""width:8cm; height:6.79cm;""><p style='font-size: 30px; color: green;'><strong>Correct!</strong></p><p style='font-size: 30px;'><strong>This rock is pumice</strong></p>","0","corr_feedback","1","train","37","","","","","","","",""
"","","","","","","","","","","","html-button-response","179","2.0.0","259005","60ee4bb7de4352af0286e091","1","12","1357","","","","","","","","","<img src= ""rock_img/I_Diorite_02.jpg"" style=""width:8cm; height:6.27cm;""><p>What type of rock is this?</p>","2","class_response","1","train","38","Diorite","Diorite","02","true","3","3","",""
"","","","","","","","","","","","html-button-response","180","2.0.0","259588","60ee4bb7de4352af0286e091","1","12","582","","","","","","","","","<img src= rock_img/I_Diorite_02.jpg style=""width:8cm; height:6.27cm;""><p style='font-size: 30px; color: green;'><strong>Correct!</strong></p><p style='font-size: 30px;'><strong>This rock is diorite</strong></p>","0","corr_feedback","1","train","38","","","","","","","",""
"","","","","","","","","","","","html-button-response","181","2.0.0","260556","60ee4bb7de4352af0286e091","1","12","966","","","","","","","","","<img src= ""rock_img/I_Obsidian_09.jpg"" style=""width:8cm; height:5cm;""><p>What type of rock is this?</p>","4","class_response","1","train","39","Obsidian","Obsidian","09","true","5","5","",""
"","","","","","","","","","","","html-button-response","182","2.0.0","261299","60ee4bb7de4352af0286e091","1","12","742","","","","","","","","","<img src= rock_img/I_Obsidian_09.jpg style=""width:8cm; height:5cm;""><p style='font-size: 30px; color: green;'><strong>Correct!</strong></p><p style='font-size: 30px;'><strong>This rock is obsidian</strong></p>","0","corr_feedback","1","train","39","","","","","","","",""
"","","","","","","","","","","","html-button-response","183","2.0.0","262600","60ee4bb7de4352af0286e091","1","12","1301","","","","","","","","","<img src= ""rock_img/I_Obsidian_02.jpg"" style=""width:8cm; height:7.51cm;""><p>What type of rock is this?</p>","4","class_response","1","train","40","Obsidian","Obsidian","02","true","5","5","",""
"","","","","","","","","","","","html-button-response","184","2.0.0","263427","60ee4bb7de4352af0286e091","1","12","825","","","","","","","","","<img src= rock_img/I_Obsidian_02.jpg style=""width:8cm; height:7.51cm;""><p style='font-size: 30px; color: green;'><strong>Correct!</strong></p><p style='font-size: 30px;'><strong>This rock is obsidian</strong></p>","0","corr_feedback","1","train","40","","","","","","","",""
"","","","","","","","","","","","html-button-response","185","2.0.0","277091","60ee4bb7de4352af0286e091","1","12","13663","","","","","","","","","<img src= ""rock_img/I_Gabbro_13.jpg"" style=""width:8cm; height:5.08cm;""><p>What type of rock is this?</p>","1","class_response","1","train","41","Basalt","Gabbro","13","false","2","4","",""
"","","","","","","","","","","","html-button-response","186","2.0.0","277981","60ee4bb7de4352af0286e091","1","12","888","","","","","","","","","<img src= rock_img/I_Gabbro_13.jpg style=""width:8cm; height:5.08cm;""><p style='font-size: 30px; color: red;'><strong>Incorrect!</strong></p><p style='font-size: 30px;'><strong>This rock is gabbro</strong></p>","0","corr_feedback","1","train","41","","","","","","","",""
"","","","","","","","","","","","html-button-response","187","2.0.0","279116","60ee4bb7de4352af0286e091","1","12","1134","","","","","","","","","<img src= ""rock_img/I_Gabbro_12.jpg"" style=""width:8cm; height:7.800000000000001cm;""><p>What type of rock is this?</p>","1","class_response","1","train","42","Basalt","Gabbro","12","false","2","4","",""
"","","","","","","","","","","","html-button-response","188","2.0.0","279965","60ee4bb7de4352af0286e091","1","12","848","","","","","","","","","<img src= rock_img/I_Gabbro_12.jpg style=""width:8cm; height:7.800000000000001cm;""><p style='font-size: 30px; color: red;'><strong>Incorrect!</strong></p><p style='font-size: 30px;'><strong>This rock is gabbro</strong></p>","0","corr_feedback","1","train","42","","","","","","","",""
"","","","","","","","","","","","html-button-response","189","2.0.0","281225","60ee4bb7de4352af0286e091","1","12","1259","","","","","","","","","<img src= ""rock_img/I_Obsidian_08.jpg"" style=""width:8cm; height:7.39cm;""><p>What type of rock is this?</p>","4","class_response","1","train","43","Obsidian","Obsidian","08","true","5","5","",""
"","","","","","","","","","","","html-button-response","190","2.0.0","282043","60ee4bb7de4352af0286e091","1","12","817","","","","","","","","","<img src= rock_img/I_Obsidian_08.jpg style=""width:8cm; height:7.39cm;""><p style='font-size: 30px; color: green;'><strong>Correct!</strong></p><p style='font-size: 30px;'><strong>This rock is obsidian</strong></p>","0","corr_feedback","1","train","43","","","","","","","",""
"","","","","","","","","","","","html-button-response","191","2.0.0","283569","60ee4bb7de4352af0286e091","1","12","1525","","","","","","","","","<img src= ""rock_img/I_Pegmatite_06.jpg"" style=""width:8cm; height:5.17cm;""><p>What type of rock is this?</p>","2","class_response","1","train","44","Diorite","Pegmatite","06","false","3","6","",""
"","","","","","","","","","","","html-button-response","192","2.0.0","284467","60ee4bb7de4352af0286e091","1","12","897","","","","","","","","","<img src= rock_img/I_Pegmatite_06.jpg style=""width:8cm; height:5.17cm;""><p style='font-size: 30px; color: red;'><strong>Incorrect!</strong></p><p style='font-size: 30px;'><strong>This rock is pegmatite</strong></p>","0","corr_feedback","1","train","44","","","","","","","",""
"","","","","","","","","","","","html-button-response","193","2.0.0","285733","60ee4bb7de4352af0286e091","1","12","1265","","","","","","","","","<img src= ""rock_img/I_Pumice_13.jpg"" style=""width:8cm; height:8.200000000000001cm;""><p>What type of rock is this?</p>","6","class_response","1","train","45","Peridotite","Pumice","13","false","7","8","",""
"","","","","","","","","","","","html-button-response","194","2.0.0","286488","60ee4bb7de4352af0286e091","1","12","754","","","","","","","","","<img src= rock_img/I_Pumice_13.jpg style=""width:8cm; height:8.200000000000001cm;""><p style='font-size: 30px; color: red;'><strong>Incorrect!</strong></p><p style='font-size: 30px;'><strong>This rock is pumice</strong></p>","0","corr_feedback","1","train","45","","","","","","","",""
"","","","","","","","","","","","html-button-response","195","2.0.0","288652","60ee4bb7de4352af0286e091","1","12","2162","","","","","","","","","<img src= ""rock_img/I_Basalt_06.jpg"" style=""width:8cm; height:7.06cm;""><p>What type of rock is this?</p>","1","class_response","1","train","46","Basalt","Basalt","06","true","2","2","",""
"","","","","","","","","","","","html-button-response","196","2.0.0","289409","60ee4bb7de4352af0286e091","1","12","757","","","","","","","","","<img src= rock_img/I_Basalt_06.jpg style=""width:8cm; height:7.06cm;""><p style='font-size: 30px; color: green;'><strong>Correct!</strong></p><p style='font-size: 30px;'><strong>This rock is basalt</strong></p>","0","corr_feedback","1","train","46","","","","","","","",""
"","","","","","","","","","","","html-button-response","197","2.0.0","292535","60ee4bb7de4352af0286e091","1","12","3124","","","","","","","","","<img src= ""rock_img/I_Diorite_12.jpg"" style=""width:8cm; height:4.88cm;""><p>What type of rock is this?</p>","6","class_response","1","train","47","Peridotite","Diorite","12","false","7","3","",""
"","","","","","","","","","","","html-button-response","198","2.0.0","293492","60ee4bb7de4352af0286e091","1","12","956","","","","","","","","","<img src= rock_img/I_Diorite_12.jpg style=""width:8cm; height:4.88cm;""><p style='font-size: 30px; color: red;'><strong>Incorrect!</strong></p><p style='font-size: 30px;'><strong>This rock is diorite</strong></p>","0","corr_feedback","1","train","47","","","","","","","",""
"","","","","","","","","","","","html-button-response","199","2.0.0","294986","60ee4bb7de4352af0286e091","1","12","1492","","","","","","","","","<img src= ""rock_img/I_Peridotite_13.jpg"" style=""width:8cm; height:7.58cm;""><p>What type of rock is this?</p>","5","class_response","1","train","48","Pegmatite","Peridotite","13","false","6","7","",""
"","","","","","","","","","","","html-button-response","200","2.0.0","295721","60ee4bb7de4352af0286e091","1","12","735","","","","","","","","","<img src= rock_img/I_Peridotite_13.jpg style=""width:8cm; height:7.58cm;""><p style='font-size: 30px; color: red;'><strong>Incorrect!</strong></p><p style='font-size: 30px;'><strong>This rock is peridotite</strong></p>","0","corr_feedback","1","train","48","","","","","","","",""
"","","","","","","","","","","","instructions","203","2.0.0","323220","60ee4bb7de4352af0286e091","1","12","27512","","","","","","","","[{""page_index"":0,""viewing_time"":3012},{""page_index"":1,""viewing_time"":24499}]","","","","","","","","","","","","","",""
"","","","","","","","","","","","html-button-response","204","2.0.0","324501","60ee4bb7de4352af0286e091","1","12","1279","","","","","","","","","","0","start_test","","","","","","","","","","",""
"","","","","","","","","","","","html-button-response","205","2.0.0","326825","60ee4bb7de4352af0286e091","1","12","2323","","","","","","","","","<img src= ""rock_img/I_Andesite_16.jpg"" style=""width:8cm; height:6.010000000000001cm;""><p>What type of rock is this?</p>","2","class_response","1","test","1","Diorite","Andesite","16","false","3","1","",""
"","","","","","","","","","","","html-keyboard-response","206","2.0.0","327328","60ee4bb7de4352af0286e091","1","12","null","","","","","","","","","<p style='font-size: 30px;'><strong>Okay</strong></p>","null","neutral_feedback","1","test","1","","","","","","","",""
"","","","","","","","","","","","html-button-response","207","2.0.0","329939","60ee4bb7de4352af0286e091","1","12","2605","","","","","","","","","<img src= ""rock_img/I_Peridotite_02.jpg"" style=""width:8cm; height:5.859999999999999cm;""><p>What type of rock is this?</p>","5","class_response","1","test","2","Pegmatite","Peridotite","02","false","6","7","",""
"","","","","","","","","","","","html-keyboard-response","208","2.0.0","330443","60ee4bb7de4352af0286e091","1","12","null","","","","","","","","","<p style='font-size: 30px;'><strong>Okay</strong></p>","null","neutral_feedback","1","test","2","","","","","","","",""
"","","","","","","","","","","","html-button-response","209","2.0.0","332599","60ee4bb7de4352af0286e091","1","12","2155","","","","","","","","","<img src= ""rock_img/I_Pegmatite_16.jpg"" style=""width:8cm; height:5.8cm;""><p>What type of rock is this?</p>","1","class_response","1","test","3","Basalt","Pegmatite","16","false","2","6","",""
"","","","","","","","","","","","html-keyboard-response","210","2.0.0","333101","60ee4bb7de4352af0286e091","1","12","null","","","","","","","","","<p style='font-size: 30px;'><strong>Okay</strong></p>","null","neutral_feedback","1","test","3","","","","","","","",""
"","","","","","","","","","","","html-button-response","211","2.0.0","334173","60ee4bb7de4352af0286e091","1","12","1070","","","","","","","","","<img src= ""rock_img/I_Pegmatite_08.jpg"" style=""width:8cm; height:7.68cm;""><p>What type of rock is this?</p>","1","class_response","1","test","4","Basalt","Pegmatite","08","false","2","6","",""
"","","","","","","","","","","","html-keyboard-response","212","2.0.0","334678","60ee4bb7de4352af0286e091","1","12","null","","","","","","","","","<p style='font-size: 30px;'><strong>Okay</strong></p>","null","neutral_feedback","1","test","4","","","","","","","",""
"","","","","","","","","","","","html-button-response","213","2.0.0","338232","60ee4bb7de4352af0286e091","1","12","3551","","","","","","","","","<img src= ""rock_img/I_Diorite_08.jpg"" style=""width:8cm; height:6.37cm;""><p>What type of rock is this?</p>","0","class_response","1","test","5","Andesite","Diorite","08","false","1","3","",""
"","","","","","","","","","","","html-keyboard-response","214","2.0.0","338748","60ee4bb7de4352af0286e091","1","12","null","","","","","","","","","<p style='font-size: 30px;'><strong>Okay</strong></p>","null","neutral_feedback","1","test","5","","","","","","","",""
"","","","","","","","","","","","html-button-response","215","2.0.0","341673","60ee4bb7de4352af0286e091","1","12","2923","","","","","","","","","<img src= ""rock_img/I_Basalt_14.jpg"" style=""width:8cm; height:5.82cm;""><p>What type of rock is this?</p>","7","class_response","1","test","6","Pumice","Basalt","14","false","8","2","",""
"","","","","","","","","","","","html-keyboard-response","216","2.0.0","342181","60ee4bb7de4352af0286e091","1","12","null","","","","","","","","","<p style='font-size: 30px;'><strong>Okay</strong></p>","null","neutral_feedback","1","test","6","","","","","","","",""
"","","","","","","","","","","","html-button-response","217","2.0.0","343731","60ee4bb7de4352af0286e091","1","12","1547","","","","","","","","","<img src= ""rock_img/I_Obsidian_04.jpg"" style=""width:8cm; height:6.930000000000001cm;""><p>What type of rock is this?</p>","4","class_response","1","test","7","Obsidian","Obsidian","04","true","5","5","",""
"","","","","","","","","","","","html-keyboard-response","218","2.0.0","344233","60ee4bb7de4352af0286e091","1","12","null","","","","","","","","","<p style='font-size: 30px;'><strong>Okay</strong></p>","null","neutral_feedback","1","test","7","","","","","","","",""
"","","","","","","","","","","","html-button-response","219","2.0.0","346440","60ee4bb7de4352af0286e091","1","12","2206","","","","","","","","","<img src= ""rock_img/I_Diorite_07.jpg"" style=""width:8cm; height:5.239999999999999cm;""><p>What type of rock is this?</p>","2","class_response","1","test","8","Diorite","Diorite","07","true","3","3","",""
"","","","","","","","","","","","html-keyboard-response","220","2.0.0","346953","60ee4bb7de4352af0286e091","1","12","null","","","","","","","","","<p style='font-size: 30px;'><strong>Okay</strong></p>","null","neutral_feedback","1","test","8","","","","","","","",""
"","","","","","","","","","","","html-button-response","221","2.0.0","349628","60ee4bb7de4352af0286e091","1","12","2672","","","","","","","","","<img src= ""rock_img/I_Pegmatite_15.jpg"" style=""width:8cm; height:6cm;""><p>What type of rock is this?</p>","0","class_response","1","test","9","Andesite","Pegmatite","15","false","1","6","",""
"","","","","","","","","","","","html-keyboard-response","222","2.0.0","350135","60ee4bb7de4352af0286e091","1","12","null","","","","","","","","","<p style='font-size: 30px;'><strong>Okay</strong></p>","null","neutral_feedback","1","test","9","","","","","","","",""
"","","","","","","","","","","","html-button-response","223","2.0.0","353591","60ee4bb7de4352af0286e091","1","12","3454","","","","","","","","","<img src= ""rock_img/I_Basalt_05.jpg"" style=""width:8cm; height:8.18cm;""><p>What type of rock is this?</p>","1","class_response","1","test","10","Basalt","Basalt","05","true","2","2","",""
"","","","","","","","","","","","html-keyboard-response","224","2.0.0","354103","60ee4bb7de4352af0286e091","1","12","null","","","","","","","","","<p style='font-size: 30px;'><strong>Okay</strong></p>","null","neutral_feedback","1","test","10","","","","","","","",""
"","","","","","","","","","","","html-button-response","225","2.0.0","355700","60ee4bb7de4352af0286e091","1","12","1594","","","","","","","","","<img src= ""rock_img/I_Peridotite_14.jpg"" style=""width:8cm; height:5.3cm;""><p>What type of rock is this?</p>","6","class_response","1","test","11","Peridotite","Peridotite","14","true","7","7","",""
"","","","","","","","","","","","html-keyboard-response","226","2.0.0","356209","60ee4bb7de4352af0286e091","1","12","null","","","","","","","","","<p style='font-size: 30px;'><strong>Okay</strong></p>","null","neutral_feedback","1","test","11","","","","","","","",""
"","","","","","","","","","","","html-button-response","227","2.0.0","357645","60ee4bb7de4352af0286e091","1","12","1435","","","","","","","","","<img src= ""rock_img/I_Basalt_02.jpg"" style=""width:8cm; height:6.45cm;""><p>What type of rock is this?</p>","1","class_response","1","test","12","Basalt","Basalt","02","true","2","2","",""
"","","","","","","","","","","","html-keyboard-response","228","2.0.0","358147","60ee4bb7de4352af0286e091","1","12","null","","","","","","","","","<p style='font-size: 30px;'><strong>Okay</strong></p>","null","neutral_feedback","1","test","12","","","","","","","",""
"","","","","","","","","","","","html-button-response","229","2.0.0","359174","60ee4bb7de4352af0286e091","1","12","1024","","","","","","","","","<img src= ""rock_img/I_Basalt_09.jpg"" style=""width:8cm; height:6.2cm;""><p>What type of rock is this?</p>","1","class_response","1","test","13","Basalt","Basalt","09","true","2","2","",""
"","","","","","","","","","","","html-keyboard-response","230","2.0.0","359679","60ee4bb7de4352af0286e091","1","12","null","","","","","","","","","<p style='font-size: 30px;'><strong>Okay</strong></p>","null","neutral_feedback","1","test","13","","","","","","","",""
"","","","","","","","","","","","html-button-response","231","2.0.0","363007","60ee4bb7de4352af0286e091","1","12","3326","","","","","","","","","<img src= ""rock_img/I_Andesite_07.jpg"" style=""width:8cm; height:5.93cm;""><p>What type of rock is this?</p>","3","class_response","1","test","14","Gabbro","Andesite","07","false","4","1","",""
"","","","","","","","","","","","html-keyboard-response","232","2.0.0","363513","60ee4bb7de4352af0286e091","1","12","null","","","","","","","","","<p style='font-size: 30px;'><strong>Okay</strong></p>","null","neutral_feedback","1","test","14","","","","","","","",""
"","","","","","","","","","","","html-button-response","233","2.0.0","365366","60ee4bb7de4352af0286e091","1","12","1850","","","","","","","","","<img src= ""rock_img/I_Peridotite_07.jpg"" style=""width:8cm; height:4.83cm;""><p>What type of rock is this?</p>","2","class_response","1","test","15","Diorite","Peridotite","07","false","3","7","",""
"","","","","","","","","","","","html-keyboard-response","234","2.0.0","365880","60ee4bb7de4352af0286e091","1","12","null","","","","","","","","","<p style='font-size: 30px;'><strong>Okay</strong></p>","null","neutral_feedback","1","test","15","","","","","","","",""
"","","","","","","","","","","","html-button-response","235","2.0.0","367380","60ee4bb7de4352af0286e091","1","12","1499","","","","","","","","","<img src= ""rock_img/I_Basalt_08.jpg"" style=""width:8cm; height:10.44cm;""><p>What type of rock is this?</p>","1","class_response","1","test","16","Basalt","Basalt","08","true","2","2","",""
"","","","","","","","","","","","html-keyboard-response","236","2.0.0","367883","60ee4bb7de4352af0286e091","1","12","null","","","","","","","","","<p style='font-size: 30px;'><strong>Okay</strong></p>","null","neutral_feedback","1","test","16","","","","","","","",""
"","","","","","","","","","","","html-button-response","237","2.0.0","369525","60ee4bb7de4352af0286e091","1","12","1640","","","","","","","","","<img src= ""rock_img/I_Pumice_03.jpg"" style=""width:8cm; height:6.64cm;""><p>What type of rock is this?</p>","7","class_response","1","test","17","Pumice","Pumice","03","true","8","8","",""
"","","","","","","","","","","","html-keyboard-response","238","2.0.0","370042","60ee4bb7de4352af0286e091","1","12","null","","","","","","","","","<p style='font-size: 30px;'><strong>Okay</strong></p>","null","neutral_feedback","1","test","17","","","","","","","",""
"","","","","","","","","","","","html-button-response","239","2.0.0","372152","60ee4bb7de4352af0286e091","1","12","2108","","","","","","","","","<img src= ""rock_img/I_Gabbro_03.jpg"" style=""width:8cm; height:8.52cm;""><p>What type of rock is this?</p>","0","class_response","1","test","18","Andesite","Gabbro","03","false","1","4","",""
"","","","","","","","","","","","html-keyboard-response","240","2.0.0","372656","60ee4bb7de4352af0286e091","1","12","null","","","","","","","","","<p style='font-size: 30px;'><strong>Okay</strong></p>","null","neutral_feedback","1","test","18","","","","","","","",""
"","","","","","","","","","","","html-button-response","241","2.0.0","373877","60ee4bb7de4352af0286e091","1","12","1219","","","","","","","","","<img src= ""rock_img/I_Gabbro_01.jpg"" style=""width:8cm; height:5.21cm;""><p>What type of rock is this?</p>","0","class_response","1","test","19","Andesite","Gabbro","01","false","1","4","",""
"","","","","","","","","","","","html-keyboard-response","242","2.0.0","374385","60ee4bb7de4352af0286e091","1","12","null","","","","","","","","","<p style='font-size: 30px;'><strong>Okay</strong></p>","null","neutral_feedback","1","test","19","","","","","","","",""
"","","","","","","","","","","","html-button-response","243","2.0.0","375426","60ee4bb7de4352af0286e091","1","12","1040","","","","","","","","","<img src= ""rock_img/I_Pegmatite_12.jpg"" style=""width:8cm; height:5.7cm;""><p>What type of rock is this?</p>","0","class_response","1","test","20","Andesite","Pegmatite","12","false","1","6","",""
"","","","","","","","","","","","html-keyboard-response","244","2.0.0","375939","60ee4bb7de4352af0286e091","1","12","null","","","","","","","","","<p style='font-size: 30px;'><strong>Okay</strong></p>","null","neutral_feedback","1","test","20","","","","","","","",""
"","","","","","","","","","","","html-button-response","245","2.0.0","379094","60ee4bb7de4352af0286e091","1","12","3153","","","","","","","","","<img src= ""rock_img/I_Diorite_10.jpg"" style=""width:8cm; height:5.949999999999999cm;""><p>What type of rock is this?</p>","5","class_response","1","test","21","Pegmatite","Diorite","10","false","6","3","",""
"","","","","","","","","","","","html-keyboard-response","246","2.0.0","379600","60ee4bb7de4352af0286e091","1","12","null","","","","","","","","","<p style='font-size: 30px;'><strong>Okay</strong></p>","null","neutral_feedback","1","test","21","","","","","","","",""
"","","","","","","","","","","","html-button-response","247","2.0.0","380840","60ee4bb7de4352af0286e091","1","12","1239","","","","","","","","","<img src= ""rock_img/I_Andesite_01.jpg"" style=""width:8cm; height:5.87cm;""><p>What type of rock is this?</p>","4","class_response","1","test","22","Obsidian","Andesite","01","false","5","1","",""
"","","","","","","","","","","","html-keyboard-response","248","2.0.0","381345","60ee4bb7de4352af0286e091","1","12","null","","","","","","","","","<p style='font-size: 30px;'><strong>Okay</strong></p>","null","neutral_feedback","1","test","22","","","","","","","",""
"","","","","","","","","","","","html-button-response","249","2.0.0","383401","60ee4bb7de4352af0286e091","1","12","2053","","","","","","","","","<img src= ""rock_img/I_Gabbro_05.jpg"" style=""width:8cm; height:6cm;""><p>What type of rock is this?</p>","2","class_response","1","test","23","Diorite","Gabbro","05","false","3","4","",""
"","","","","","","","","","","","html-keyboard-response","250","2.0.0","383905","60ee4bb7de4352af0286e091","1","12","null","","","","","","","","","<p style='font-size: 30px;'><strong>Okay</strong></p>","null","neutral_feedback","1","test","23","","","","","","","",""
"","","","","","","","","","","","html-button-response","251","2.0.0","387435","60ee4bb7de4352af0286e091","1","12","3528","","","","","","","","","<img src= ""rock_img/I_Diorite_15.jpg"" style=""width:8cm; height:5.54cm;""><p>What type of rock is this?</p>","1","class_response","1","test","24","Basalt","Diorite","15","false","2","3","",""
"","","","","","","","","","","","html-keyboard-response","252","2.0.0","387938","60ee4bb7de4352af0286e091","1","12","null","","","","","","","","","<p style='font-size: 30px;'><strong>Okay</strong></p>","null","neutral_feedback","1","test","24","","","","","","","",""
"","","","","","","","","","","","html-button-response","253","2.0.0","390093","60ee4bb7de4352af0286e091","1","12","2153","","","","","","","","","<img src= ""rock_img/I_Pegmatite_03.jpg"" style=""width:8cm; height:5.239999999999999cm;""><p>What type of rock is this?</p>","0","class_response","1","test","25","Andesite","Pegmatite","03","false","1","6","",""
"","","","","","","","","","","","html-keyboard-response","254","2.0.0","390602","60ee4bb7de4352af0286e091","1","12","null","","","","","","","","","<p style='font-size: 30px;'><strong>Okay</strong></p>","null","neutral_feedback","1","test","25","","","","","","","",""
"","","","","","","","","","","","html-button-response","255","2.0.0","391649","60ee4bb7de4352af0286e091","1","12","1045","","","","","","","","","<img src= ""rock_img/I_Pumice_08.jpg"" style=""width:8cm; height:6.67cm;""><p>What type of rock is this?</p>","7","class_response","1","test","26","Pumice","Pumice","08","true","8","8","",""
"","","","","","","","","","","","html-keyboard-response","256","2.0.0","392164","60ee4bb7de4352af0286e091","1","12","null","","","","","","","","","<p style='font-size: 30px;'><strong>Okay</strong></p>","null","neutral_feedback","1","test","26","","","","","","","",""
"","","","","","","","","","","","html-button-response","257","2.0.0","393205","60ee4bb7de4352af0286e091","1","12","1040","","","","","","","","","<img src= ""rock_img/I_Gabbro_15.jpg"" style=""width:8cm; height:6.29cm;""><p>What type of rock is this?</p>","2","class_response","1","test","27","Diorite","Gabbro","15","false","3","4","",""
"","","","","","","","","","","","html-keyboard-response","258","2.0.0","393707","60ee4bb7de4352af0286e091","1","12","null","","","","","","","","","<p style='font-size: 30px;'><strong>Okay</strong></p>","null","neutral_feedback","1","test","27","","","","","","","",""
"","","","","","","","","","","","html-button-response","259","2.0.0","394710","60ee4bb7de4352af0286e091","1","12","1002","","","","","","","","","<img src= ""rock_img/I_Obsidian_16.jpg"" style=""width:8cm; height:9.3cm;""><p>What type of rock is this?</p>","4","class_response","1","test","28","Obsidian","Obsidian","16","true","5","5","",""
"","","","","","","","","","","","html-keyboard-response","260","2.0.0","395212","60ee4bb7de4352af0286e091","1","12","null","","","","","","","","","<p style='font-size: 30px;'><strong>Okay</strong></p>","null","neutral_feedback","1","test","28","","","","","","","",""
"","","","","","","","","","","","html-button-response","261","2.0.0","396236","60ee4bb7de4352af0286e091","1","12","1022","","","","","","","","","<img src= ""rock_img/I_Diorite_16.jpg"" style=""width:8cm; height:6.74cm;""><p>What type of rock is this?</p>","5","class_response","1","test","29","Pegmatite","Diorite","16","false","6","3","",""
"","","","","","","","","","","","html-keyboard-response","262","2.0.0","396746","60ee4bb7de4352af0286e091","1","12","null","","","","","","","","","<p style='font-size: 30px;'><strong>Okay</strong></p>","null","neutral_feedback","1","test","29","","","","","","","",""
"","","","","","","","","","","","html-button-response","263","2.0.0","397420","60ee4bb7de4352af0286e091","1","12","673","","","","","","","","","<img src= ""rock_img/I_Peridotite_12.jpg"" style=""width:8cm; height:4.54cm;""><p>What type of rock is this?</p>","5","class_response","1","test","30","Pegmatite","Peridotite","12","false","6","7","",""
"","","","","","","","","","","","html-keyboard-response","264","2.0.0","397923","60ee4bb7de4352af0286e091","1","12","null","","","","","","","","","<p style='font-size: 30px;'><strong>Okay</strong></p>","null","neutral_feedback","1","test","30","","","","","","","",""
"","","","","","","","","","","","html-button-response","265","2.0.0","400664","60ee4bb7de4352af0286e091","1","12","2740","","","","","","","","","<img src= ""rock_img/I_Pegmatite_10.jpg"" style=""width:8cm; height:4.16cm;""><p>What type of rock is this?</p>","0","class_response","1","test","31","Andesite","Pegmatite","10","false","1","6","",""
"","","","","","","","","","","","html-keyboard-response","266","2.0.0","401177","60ee4bb7de4352af0286e091","1","12","null","","","","","","","","","<p style='font-size: 30px;'><strong>Okay</strong></p>","null","neutral_feedback","1","test","31","","","","","","","",""
"","","","","","","","","","","","html-button-response","267","2.0.0","402110","60ee4bb7de4352af0286e091","1","12","932","","","","","","","","","<img src= ""rock_img/I_Gabbro_11.jpg"" style=""width:8cm; height:6.2cm;""><p>What type of rock is this?</p>","1","class_response","1","test","32","Basalt","Gabbro","11","false","2","4","",""
"","","","","","","","","","","","html-keyboard-response","268","2.0.0","402619","60ee4bb7de4352af0286e091","1","12","null","","","","","","","","","<p style='font-size: 30px;'><strong>Okay</strong></p>","null","neutral_feedback","1","test","32","","","","","","","",""
"","","","","","","","","","","","html-button-response","269","2.0.0","404585","60ee4bb7de4352af0286e091","1","12","1964","","","","","","","","","<img src= ""rock_img/I_Peridotite_16.jpg"" style=""width:8cm; height:6.989999999999999cm;""><p>What type of rock is this?</p>","2","class_response","1","test","33","Diorite","Peridotite","16","false","3","7","",""
"","","","","","","","","","","","html-keyboard-response","270","2.0.0","405093","60ee4bb7de4352af0286e091","1","12","null","","","","","","","","","<p style='font-size: 30px;'><strong>Okay</strong></p>","null","neutral_feedback","1","test","33","","","","","","","",""
"","","","","","","","","","","","html-button-response","271","2.0.0","406110","60ee4bb7de4352af0286e091","1","12","1015","","","","","","","","","<img src= ""rock_img/I_Andesite_03.jpg"" style=""width:8cm; height:5.73cm;""><p>What type of rock is this?</p>","3","class_response","1","test","34","Gabbro","Andesite","03","false","4","1","",""
"","","","","","","","","","","","html-keyboard-response","272","2.0.0","406616","60ee4bb7de4352af0286e091","1","12","null","","","","","","","","","<p style='font-size: 30px;'><strong>Okay</strong></p>","null","neutral_feedback","1","test","34","","","","","","","",""
"","","","","","","","","","","","html-button-response","273","2.0.0","408629","60ee4bb7de4352af0286e091","1","12","2011","","","","","","","","","<img src= ""rock_img/I_Basalt_01.jpg"" style=""width:8cm; height:7.880000000000001cm;""><p>What type of rock is this?</p>","1","class_response","1","test","35","Basalt","Basalt","01","true","2","2","",""
"","","","","","","","","","","","html-keyboard-response","274","2.0.0","409134","60ee4bb7de4352af0286e091","1","12","null","","","","","","","","","<p style='font-size: 30px;'><strong>Okay</strong></p>","null","neutral_feedback","1","test","35","","","","","","","",""
"","","","","","","","","","","","html-button-response","275","2.0.0","410281","60ee4bb7de4352af0286e091","1","12","1145","","","","","","","","","<img src= ""rock_img/I_Pumice_05.jpg"" style=""width:8cm; height:7.25cm;""><p>What type of rock is this?</p>","7","class_response","1","test","36","Pumice","Pumice","05","true","8","8","",""
"","","","","","","","","","","","html-keyboard-response","276","2.0.0","410789","60ee4bb7de4352af0286e091","1","12","null","","","","","","","","","<p style='font-size: 30px;'><strong>Okay</strong></p>","null","neutral_feedback","1","test","36","","","","","","","",""
"","","","","","","","","","","","html-button-response","277","2.0.0","412221","60ee4bb7de4352af0286e091","1","12","1429","","","","","","","","","<img src= ""rock_img/I_Pumice_14.jpg"" style=""width:8cm; height:6.39cm;""><p>What type of rock is this?</p>","7","class_response","1","test","37","Pumice","Pumice","14","true","8","8","",""
"","","","","","","","","","","","html-keyboard-response","278","2.0.0","412724","60ee4bb7de4352af0286e091","1","12","null","","","","","","","","","<p style='font-size: 30px;'><strong>Okay</strong></p>","null","neutral_feedback","1","test","37","","","","","","","",""
"","","","","","","","","","","","html-button-response","279","2.0.0","414307","60ee4bb7de4352af0286e091","1","12","1581","","","","","","","","","<img src= ""rock_img/I_Obsidian_06.jpg"" style=""width:8cm; height:6.8cm;""><p>What type of rock is this?</p>","4","class_response","1","test","38","Obsidian","Obsidian","06","true","5","5","",""
"","","","","","","","","","","","html-keyboard-response","280","2.0.0","414817","60ee4bb7de4352af0286e091","1","12","null","","","","","","","","","<p style='font-size: 30px;'><strong>Okay</strong></p>","null","neutral_feedback","1","test","38","","","","","","","",""
"","","","","","","","","","","","html-button-response","281","2.0.0","416101","60ee4bb7de4352af0286e091","1","12","1282","","","","","","","","","<img src= ""rock_img/I_Gabbro_10.jpg"" style=""width:8cm; height:5.680000000000001cm;""><p>What type of rock is this?</p>","1","class_response","1","test","39","Basalt","Gabbro","10","false","2","4","",""
"","","","","","","","","","","","html-keyboard-response","282","2.0.0","416615","60ee4bb7de4352af0286e091","1","12","null","","","","","","","","","<p style='font-size: 30px;'><strong>Okay</strong></p>","null","neutral_feedback","1","test","39","","","","","","","",""
"","","","","","","","","","","","html-button-response","283","2.0.0","417743","60ee4bb7de4352af0286e091","1","12","1126","","","","","","","","","<img src= ""rock_img/I_Pumice_04.jpg"" style=""width:8cm; height:6.819999999999999cm;""><p>What type of rock is this?</p>","7","class_response","1","test","40","Pumice","Pumice","04","true","8","8","",""
"","","","","","","","","","","","html-keyboard-response","284","2.0.0","418246","60ee4bb7de4352af0286e091","1","12","null","","","","","","","","","<p style='font-size: 30px;'><strong>Okay</strong></p>","null","neutral_feedback","1","test","40","","","","","","","",""
"","","","","","","","","","","","html-button-response","285","2.0.0","419651","60ee4bb7de4352af0286e091","1","12","1402","","","","","","","","","<img src= ""rock_img/I_Obsidian_07.jpg"" style=""width:8cm; height:4.76cm;""><p>What type of rock is this?</p>","4","class_response","1","test","41","Obsidian","Obsidian","07","true","5","5","",""
"","","","","","","","","","","","html-keyboard-response","286","2.0.0","420153","60ee4bb7de4352af0286e091","1","12","null","","","","","","","","","<p style='font-size: 30px;'><strong>Okay</strong></p>","null","neutral_feedback","1","test","41","","","","","","","",""
"","","","","","","","","","","","html-button-response","287","2.0.0","421135","60ee4bb7de4352af0286e091","1","12","980","","","","","","","","","<img src= ""rock_img/I_Pumice_09.jpg"" style=""width:8cm; height:6.44cm;""><p>What type of rock is this?</p>","7","class_response","1","test","42","Pumice","Pumice","09","true","8","8","",""
"","","","","","","","","","","","html-keyboard-response","288","2.0.0","421636","60ee4bb7de4352af0286e091","1","12","null","","","","","","","","","<p style='font-size: 30px;'><strong>Okay</strong></p>","null","neutral_feedback","1","test","42","","","","","","","",""
"","","","","","","","","","","","html-button-response","289","2.0.0","422820","60ee4bb7de4352af0286e091","1","12","1183","","","","","","","","","<img src= ""rock_img/I_Andesite_05.jpg"" style=""width:8cm; height:4.12cm;""><p>What type of rock is this?</p>","1","class_response","1","test","43","Basalt","Andesite","05","false","2","1","",""
"","","","","","","","","","","","html-keyboard-response","290","2.0.0","423327","60ee4bb7de4352af0286e091","1","12","null","","","","","","","","","<p style='font-size: 30px;'><strong>Okay</strong></p>","null","neutral_feedback","1","test","43","","","","","","","",""
"","","","","","","","","","","","html-button-response","291","2.0.0","424453","60ee4bb7de4352af0286e091","1","12","1124","","","","","","","","","<img src= ""rock_img/I_Obsidian_14.jpg"" style=""width:8cm; height:7.64cm;""><p>What type of rock is this?</p>","4","class_response","1","test","44","Obsidian","Obsidian","14","true","5","5","",""
"","","","","","","","","","","","html-keyboard-response","292","2.0.0","424959","60ee4bb7de4352af0286e091","1","12","null","","","","","","","","","<p style='font-size: 30px;'><strong>Okay</strong></p>","null","neutral_feedback","1","test","44","","","","","","","",""
"","","","","","","","","","","","html-button-response","293","2.0.0","425944","60ee4bb7de4352af0286e091","1","12","983","","","","","","","","","<img src= ""rock_img/I_Obsidian_05.jpg"" style=""width:8cm; height:6.33cm;""><p>What type of rock is this?</p>","4","class_response","1","test","45","Obsidian","Obsidian","05","true","5","5","",""
"","","","","","","","","","","","html-keyboard-response","294","2.0.0","426458","60ee4bb7de4352af0286e091","1","12","null","","","","","","","","","<p style='font-size: 30px;'><strong>Okay</strong></p>","null","neutral_feedback","1","test","45","","","","","","","",""
"","","","","","","","","","","","html-button-response","295","2.0.0","427294","60ee4bb7de4352af0286e091","1","12","835","","","","","","","","","<img src= ""rock_img/I_Diorite_11.jpg"" style=""width:8cm; height:7.11cm;""><p>What type of rock is this?</p>","2","class_response","1","test","46","Diorite","Diorite","11","true","3","3","",""
"","","","","","","","","","","","html-keyboard-response","296","2.0.0","427809","60ee4bb7de4352af0286e091","1","12","null","","","","","","","","","<p style='font-size: 30px;'><strong>Okay</strong></p>","null","neutral_feedback","1","test","46","","","","","","","",""
"","","","","","","","","","","","html-button-response","297","2.0.0","428509","60ee4bb7de4352af0286e091","1","12","697","","","","","","","","","<img src= ""rock_img/I_Andesite_11.jpg"" style=""width:8cm; height:4.92cm;""><p>What type of rock is this?</p>","5","class_response","1","test","47","Pegmatite","Andesite","11","false","6","1","",""
"","","","","","","","","","","","html-keyboard-response","298","2.0.0","429024","60ee4bb7de4352af0286e091","1","12","null","","","","","","","","","<p style='font-size: 30px;'><strong>Okay</strong></p>","null","neutral_feedback","1","test","47","","","","","","","",""
"","","","","","","","","","","","html-button-response","299","2.0.0","430425","60ee4bb7de4352af0286e091","1","12","1398","","","","","","","","","<img src= ""rock_img/I_Peridotite_06.jpg"" style=""width:8cm; height:7.53cm;""><p>What type of rock is this?</p>","0","class_response","1","test","48","Andesite","Peridotite","06","false","1","7","",""
"","","","","","","","","","","","html-keyboard-response","300","2.0.0","430936","60ee4bb7de4352af0286e091","1","12","null","","","","","","","","","<p style='font-size: 30px;'><strong>Okay</strong></p>","null","neutral_feedback","1","test","48","","","","","","","",""
"","","","","","","","","","","","html-button-response","301","2.0.0","481604","60ee4bb7de4352af0286e091","1","12","","","","","","","","","","","","cycle_feedback","","","","","","","","","","8154.400000035763","42517.09999996424"
"","","","","","","","","","","","html-button-response","303","2.0.0","483278","60ee4bb7de4352af0286e091","1","12","1673","","","","","","","","","","0","start_train","","","","","","","","","","",""
"","","","","","","","","","","","html-button-response","304","2.0.0","485087","60ee4bb7de4352af0286e091","1","12","1807","","","","","","","","","<img src= ""rock_img/I_Andesite_02.jpg"" style=""width:8cm; height:8.5cm;""><p>What type of rock is this?</p>","1","class_response","2","train","1","Basalt","Andesite","02","false","2","1","",""
