"width","height","webaudio","browser","browser_version","mobile","os","fullscreen","vsync_rate","webcam","microphone","trial_type","trial_index","plugin_version","time_elapsed","subjID","condition","stimID","rt","url","success","value","timeout","failed_images","failed_audio","failed_video","view_history","stimulus","response","trialType","cycle","phase","trial","resp","cat","token","corr","resp_num","cat_num","time_fb1","time_fb2"
"1280","551","true","chrome","129.0.0","false","Windows 10","true","57.54","true","true","browser-check","0","2.0.0","1171","671c8f6c5e23f895f7fa8bae","1","48","","","","","","","","","","","","","","","","","","","","","","",""
"","","","","","","","","","","","external-html","1","2.0.0","5822","671c8f6c5e23f895f7fa8bae","1","48","4368","consent_form.html","","","","","","","","","","","","","","","","","","","","",""
"","","","","","","","","","","","fullscreen","2","2.0.0","8391","671c8f6c5e23f895f7fa8bae","1","48","1563","","true","","","","","","","","","","","","","","","","","","","",""
"","","","","","","","","","","","call-function","3","2.0.0","8395","671c8f6c5e23f895f7fa8bae","1","48","","","","{}","","","","","","","","","","","","","","","","","","",""
"","","","","","","","","","","","preload","4","2.0.0","15424","671c8f6c5e23f895f7fa8bae","1","48","","","true","","false","[]","[]","[]","","","","","","","","","","","","","","",""
"","","","","","","","","","","","instructions","5","2.0.0","26329","671c8f6c5e23f895f7fa8bae","1","48","10903","","","","","","","","[{""page_index"":0,""viewing_time"":2351},{""page_index"":1,""viewing_time"":5621},{""page_index"":2,""viewing_time"":2931}]","","","","","","","","","","","","","",""
"","","","","","","","","","","","html-button-response","6","2.0.0","27914","671c8f6c5e23f895f7fa8bae","1","48","1582","","","","","","","","","","0","start_test","","","","","","","","","","",""
"","","","","","","","","","","","html-button-response","7","2.0.0","35584","671c8f6c5e23f895f7fa8bae","1","48","7662","","","","","","","","","<img src= ""rock_img/I_Diorite_02.jpg"" style=""width:8cm; height:6.27cm;""><p>What type of rock is this?</p>","5","class_response","0","test","1","Pegmatite","Diorite","02","false","6","3","",""
"","","","","","","","","","","","html-keyboard-response","8","2.0.0","36092","671c8f6c5e23f895f7fa8bae","1","48","null","","","","","","","","","<p style='font-size: 30px;'><strong>Okay</strong></p>","null","neutral_feedback","0","test","1","","","","","","","",""
"","","","","","","","","","","","html-button-response","9","2.0.0","40043","671c8f6c5e23f895f7fa8bae","1","48","3946","","","","","","","","","<img src= ""rock_img/I_Gabbro_05.jpg"" style=""width:8cm; height:6cm;""><p>What type of rock is this?</p>","6","class_response","0","test","2","Peridotite","Gabbro","05","false","7","4","",""
"","","","","","","","","","","","html-keyboard-response","10","2.0.0","40551","671c8f6c5e23f895f7fa8bae","1","48","null","","","","","","","","","<p style='font-size: 30px;'><strong>Okay</strong></p>","null","neutral_feedback","0","test","2","","","","","","","",""
"","","","","","","","","","","","html-button-response","11","2.0.0","42503","671c8f6c5e23f895f7fa8bae","1","48","1948","","","","","","","","","<img src= ""rock_img/I_Basalt_11.jpg"" style=""width:8cm; height:5.359999999999999cm;""><p>What type of rock is this?</p>","1","class_response","0","test","3","Basalt","Basalt","11","true","2","2","",""
"","","","","","","","","","","","html-keyboard-response","12","2.0.0","43020","671c8f6c5e23f895f7fa8bae","1","48","null","","","","","","","","","<p style='font-size: 30px;'><strong>Okay</strong></p>","null","neutral_feedback","0","test","3","","","","","","","",""
"","","","","","","","","","","","html-button-response","13","2.0.0","44363","671c8f6c5e23f895f7fa8bae","1","48","1340","","","","","","","","","<img src= ""rock_img/I_Andesite_03.jpg"" style=""width:8cm; height:5.73cm;""><p>What type of rock is this?</p>","1","class_response","0","test","4","Basalt","Andesite","03","false","2","1","",""
"","","","","","","","","","","","html-keyboard-response","14","2.0.0","44870","671c8f6c5e23f895f7fa8bae","1","48","null","","","","","","","","","<p style='font-size: 30px;'><strong>Okay</strong></p>","null","neutral_feedback","0","test","4","","","","","","","",""
"","","","","","","","","","","","html-button-response","15","2.0.0","46526","671c8f6c5e23f895f7fa8bae","1","48","1654","","","","","","","","","<img src= ""rock_img/I_Pegmatite_08.jpg"" style=""width:8cm; height:7.68cm;""><p>What type of rock is this?</p>","4","class_response","0","test","5","Obsidian","Pegmatite","08","false","5","6","",""
"","","","","","","","","","","","html-keyboard-response","16","2.0.0","47028","671c8f6c5e23f895f7fa8bae","1","48","null","","","","","","","","","<p style='font-size: 30px;'><strong>Okay</strong></p>","null","neutral_feedback","0","test","5","","","","","","","",""
"","","","","","","","","","","","html-button-response","17","2.0.0","48429","671c8f6c5e23f895f7fa8bae","1","48","1398","","","","","","","","","<img src= ""rock_img/I_Obsidian_02.jpg"" style=""width:8cm; height:7.51cm;""><p>What type of rock is this?</p>","4","class_response","0","test","6","Obsidian","Obsidian","02","true","5","5","",""
"","","","","","","","","","","","html-keyboard-response","18","2.0.0","48944","671c8f6c5e23f895f7fa8bae","1","48","null","","","","","","","","","<p style='font-size: 30px;'><strong>Okay</strong></p>","null","neutral_feedback","0","test","6","","","","","","","",""
"","","","","","","","","","","","html-button-response","19","2.0.0","51270","671c8f6c5e23f895f7fa8bae","1","48","2321","","","","","","","","","<img src= ""rock_img/I_Pegmatite_15.jpg"" style=""width:8cm; height:6cm;""><p>What type of rock is this?</p>","5","class_response","0","test","7","Pegmatite","Pegmatite","15","true","6","6","",""
"","","","","","","","","","","","html-keyboard-response","20","2.0.0","51779","671c8f6c5e23f895f7fa8bae","1","48","null","","","","","","","","","<p style='font-size: 30px;'><strong>Okay</strong></p>","null","neutral_feedback","0","test","7","","","","","","","",""
"","","","","","","","","","","","html-button-response","21","2.0.0","53166","671c8f6c5e23f895f7fa8bae","1","48","1384","","","","","","","","","<img src= ""rock_img/I_Diorite_13.jpg"" style=""width:8cm; height:6.29cm;""><p>What type of rock is this?</p>","7","class_response","0","test","8","Pumice","Diorite","13","false","8","3","",""
"","","","","","","","","","","","html-keyboard-response","22","2.0.0","53672","671c8f6c5e23f895f7fa8bae","1","48","null","","","","","","","","","<p style='font-size: 30px;'><strong>Okay</strong></p>","null","neutral_feedback","0","test","8","","","","","","","",""
"","","","","","","","","","","","html-button-response","23","2.0.0","55656","671c8f6c5e23f895f7fa8bae","1","48","1981","","","","","","","","","<img src= ""rock_img/I_Pegmatite_09.jpg"" style=""width:8cm; height:4.03cm;""><p>What type of rock is this?</p>","5","class_response","0","test","9","Pegmatite","Pegmatite","09","true","6","6","",""
"","","","","","","","","","","","html-keyboard-response","24","2.0.0","56168","671c8f6c5e23f895f7fa8bae","1","48","null","","","","","","","","","<p style='font-size: 30px;'><strong>Okay</strong></p>","null","neutral_feedback","0","test","9","","","","","","","",""
"","","","","","","","","","","","html-button-response","25","2.0.0","58722","671c8f6c5e23f895f7fa8bae","1","48","2545","","","","","","","","","<img src= ""rock_img/I_Andesite_10.jpg"" style=""width:8cm; height:4.16cm;""><p>What type of rock is this?</p>","0","class_response","0","test","10","Andesite","Andesite","10","true","1","1","",""
"","","","","","","","","","","","html-keyboard-response","26","2.0.0","59230","671c8f6c5e23f895f7fa8bae","1","48","null","","","","","","","","","<p style='font-size: 30px;'><strong>Okay</strong></p>","null","neutral_feedback","0","test","10","","","","","","","",""
"","","","","","","","","","","","html-button-response","27","2.0.0","61916","671c8f6c5e23f895f7fa8bae","1","48","2683","","","","","","","","","<img src= ""rock_img/I_Pumice_05.jpg"" style=""width:8cm; height:7.25cm;""><p>What type of rock is this?</p>","7","class_response","0","test","11","Pumice","Pumice","05","true","8","8","",""
"","","","","","","","","","","","html-keyboard-response","28","2.0.0","62433","671c8f6c5e23f895f7fa8bae","1","48","null","","","","","","","","","<p style='font-size: 30px;'><strong>Okay</strong></p>","null","neutral_feedback","0","test","11","","","","","","","",""
"","","","","","","","","","","","html-button-response","29","2.0.0","64287","671c8f6c5e23f895f7fa8bae","1","48","1851","","","","","","","","","<img src= ""rock_img/I_Andesite_02.jpg"" style=""width:8cm; height:8.5cm;""><p>What type of rock is this?</p>","2","class_response","0","test","12","Diorite","Andesite","02","false","3","1","",""
"","","","","","","","","","","","html-keyboard-response","30","2.0.0","64794","671c8f6c5e23f895f7fa8bae","1","48","null","","","","","","","","","<p style='font-size: 30px;'><strong>Okay</strong></p>","null","neutral_feedback","0","test","12","","","","","","","",""
"","","","","","","","","","","","html-button-response","31","2.0.0","66473","671c8f6c5e23f895f7fa8bae","1","48","1676","","","","","","","","","<img src= ""rock_img/I_Diorite_15.jpg"" style=""width:8cm; height:5.54cm;""><p>What type of rock is this?</p>","5","class_response","0","test","13","Pegmatite","Diorite","15","false","6","3","",""
"","","","","","","","","","","","html-keyboard-response","32","2.0.0","66980","671c8f6c5e23f895f7fa8bae","1","48","null","","","","","","","","","<p style='font-size: 30px;'><strong>Okay</strong></p>","null","neutral_feedback","0","test","13","","","","","","","",""
"","","","","","","","","","","","html-button-response","33","2.0.0","68561","671c8f6c5e23f895f7fa8bae","1","48","1577","","","","","","","","","<img src= ""rock_img/I_Peridotite_16.jpg"" style=""width:8cm; height:6.989999999999999cm;""><p>What type of rock is this?</p>","5","class_response","0","test","14","Pegmatite","Peridotite","16","false","6","7","",""
"","","","","","","","","","","","html-keyboard-response","34","2.0.0","69067","671c8f6c5e23f895f7fa8bae","1","48","null","","","","","","","","","<p style='font-size: 30px;'><strong>Okay</strong></p>","null","neutral_feedback","0","test","14","","","","","","","",""
"","","","","","","","","","","","html-button-response","35","2.0.0","71111","671c8f6c5e23f895f7fa8bae","1","48","2042","","","","","","","","","<img src= ""rock_img/I_Gabbro_03.jpg"" style=""width:8cm; height:8.52cm;""><p>What type of rock is this?</p>","1","class_response","0","test","15","Basalt","Gabbro","03","false","2","4","",""
"","","","","","","","","","","","html-keyboard-response","36","2.0.0","71619","671c8f6c5e23f895f7fa8bae","1","48","null","","","","","","","","","<p style='font-size: 30px;'><strong>Okay</strong></p>","null","neutral_feedback","0","test","15","","","","","","","",""
"","","","","","","","","","","","html-button-response","37","2.0.0","78002","671c8f6c5e23f895f7fa8bae","1","48","6380","","","","","","","","","<img src= ""rock_img/I_Andesite_09.jpg"" style=""width:8cm; height:6cm;""><p>What type of rock is this?</p>","1","class_response","0","test","16","Basalt","Andesite","09","false","2","1","",""
"","","","","","","","","","","","html-keyboard-response","38","2.0.0","78511","671c8f6c5e23f895f7fa8bae","1","48","null","","","","","","","","","<p style='font-size: 30px;'><strong>Okay</strong></p>","null","neutral_feedback","0","test","16","","","","","","","",""
"","","","","","","","","","","","html-button-response","39","2.0.0","88122","671c8f6c5e23f895f7fa8bae","1","48","9609","","","","","","","","","<img src= ""rock_img/I_Basalt_14.jpg"" style=""width:8cm; height:5.82cm;""><p>What type of rock is this?</p>","1","class_response","0","test","17","Basalt","Basalt","14","true","2","2","",""
"","","","","","","","","","","","html-keyboard-response","40","2.0.0","88629","671c8f6c5e23f895f7fa8bae","1","48","null","","","","","","","","","<p style='font-size: 30px;'><strong>Okay</strong></p>","null","neutral_feedback","0","test","17","","","","","","","",""
"","","","","","","","","","","","html-button-response","41","2.0.0","94706","671c8f6c5e23f895f7fa8bae","1","48","6073","","","","","","","","","<img src= ""rock_img/I_Gabbro_11.jpg"" style=""width:8cm; height:6.2cm;""><p>What type of rock is this?</p>","2","class_response","0","test","18","Diorite","Gabbro","11","false","3","4","",""
"","","","","","","","","","","","html-keyboard-response","42","2.0.0","95215","671c8f6c5e23f895f7fa8bae","1","48","null","","","","","","","","","<p style='font-size: 30px;'><strong>Okay</strong></p>","null","neutral_feedback","0","test","18","","","","","","","",""
"","","","","","","","","","","","html-button-response","43","2.0.0","100728","671c8f6c5e23f895f7fa8bae","1","48","5509","","","","","","","","","<img src= ""rock_img/I_Obsidian_06.jpg"" style=""width:8cm; height:6.8cm;""><p>What type of rock is this?</p>","4","class_response","0","test","19","Obsidian","Obsidian","06","true","5","5","",""
"","","","","","","","","","","","html-keyboard-response","44","2.0.0","101238","671c8f6c5e23f895f7fa8bae","1","48","null","","","","","","","","","<p style='font-size: 30px;'><strong>Okay</strong></p>","null","neutral_feedback","0","test","19","","","","","","","",""
"","","","","","","","","","","","html-button-response","45","2.0.0","103361","671c8f6c5e23f895f7fa8bae","1","48","2120","","","","","","","","","<img src= ""rock_img/I_Obsidian_11.jpg"" style=""width:8cm; height:6.05cm;""><p>What type of rock is this?</p>","4","class_response","0","test","20","Obsidian","Obsidian","11","true","5","5","",""
"","","","","","","","","","","","html-keyboard-response","46","2.0.0","103878","671c8f6c5e23f895f7fa8bae","1","48","null","","","","","","","","","<p style='font-size: 30px;'><strong>Okay</strong></p>","null","neutral_feedback","0","test","20","","","","","","","",""
"","","","","","","","","","","","html-button-response","47","2.0.0","108065","671c8f6c5e23f895f7fa8bae","1","48","4184","","","","","","","","","<img src= ""rock_img/I_Andesite_05.jpg"" style=""width:8cm; height:4.12cm;""><p>What type of rock is this?</p>","2","class_response","0","test","21","Diorite","Andesite","05","false","3","1","",""
"","","","","","","","","","","","html-keyboard-response","48","2.0.0","108572","671c8f6c5e23f895f7fa8bae","1","48","null","","","","","","","","","<p style='font-size: 30px;'><strong>Okay</strong></p>","null","neutral_feedback","0","test","21","","","","","","","",""
"","","","","","","","","","","","html-button-response","49","2.0.0","123399","671c8f6c5e23f895f7fa8bae","1","48","14825","","","","","","","","","<img src= ""rock_img/I_Peridotite_06.jpg"" style=""width:8cm; height:7.53cm;""><p>What type of rock is this?</p>","5","class_response","0","test","22","Pegmatite","Peridotite","06","false","6","7","",""
"","","","","","","","","","","","html-keyboard-response","50","2.0.0","123912","671c8f6c5e23f895f7fa8bae","1","48","null","","","","","","","","","<p style='font-size: 30px;'><strong>Okay</strong></p>","null","neutral_feedback","0","test","22","","","","","","","",""
"","","","","","","","","","","","html-button-response","51","2.0.0","125850","671c8f6c5e23f895f7fa8bae","1","48","1935","","","","","","","","","<img src= ""rock_img/I_Pegmatite_05.jpg"" style=""width:8cm; height:7.300000000000001cm;""><p>What type of rock is this?</p>","4","class_response","0","test","23","Obsidian","Pegmatite","05","false","5","6","",""
"","","","","","","","","","","","html-keyboard-response","52","2.0.0","126361","671c8f6c5e23f895f7fa8bae","1","48","null","","","","","","","","","<p style='font-size: 30px;'><strong>Okay</strong></p>","null","neutral_feedback","0","test","23","","","","","","","",""
"","","","","","","","","","","","html-button-response","53","2.0.0","131020","671c8f6c5e23f895f7fa8bae","1","48","4655","","","","","","","","","<img src= ""rock_img/I_Obsidian_07.jpg"" style=""width:8cm; height:4.76cm;""><p>What type of rock is this?</p>","4","class_response","0","test","24","Obsidian","Obsidian","07","true","5","5","",""
"","","","","","","","","","","","html-keyboard-response","54","2.0.0","131530","671c8f6c5e23f895f7fa8bae","1","48","null","","","","","","","","","<p style='font-size: 30px;'><strong>Okay</strong></p>","null","neutral_feedback","0","test","24","","","","","","","",""
"","","","","","","","","","","","html-button-response","55","2.0.0","134160","671c8f6c5e23f895f7fa8bae","1","48","2628","","","","","","","","","<img src= ""rock_img/I_Andesite_04.jpg"" style=""width:8cm; height:5.96cm;""><p>What type of rock is this?</p>","1","class_response","0","test","25","Basalt","Andesite","04","false","2","1","",""
"","","","","","","","","","","","html-keyboard-response","56","2.0.0","134673","671c8f6c5e23f895f7fa8bae","1","48","null","","","","","","","","","<p style='font-size: 30px;'><strong>Okay</strong></p>","null","neutral_feedback","0","test","25","","","","","","","",""
"","","","","","","","","","","","html-button-response","57","2.0.0","136647","671c8f6c5e23f895f7fa8bae","1","48","1970","","","","","","","","","<img src= ""rock_img/I_Pumice_13.jpg"" style=""width:8cm; height:8.200000000000001cm;""><p>What type of rock is this?</p>","7","class_response","0","test","26","Pumice","Pumice","13","true","8","8","",""
"","","","","","","","","","","","html-keyboard-response","58","2.0.0","137149","671c8f6c5e23f895f7fa8bae","1","48","null","","","","","","","","","<p style='font-size: 30px;'><strong>Okay</strong></p>","null","neutral_feedback","0","test","26","","","","","","","",""
"","","","","","","","","","","","html-button-response","59","2.0.0","138781","671c8f6c5e23f895f7fa8bae","1","48","1630","","","","","","","","","<img src= ""rock_img/I_Pegmatite_06.jpg"" style=""width:8cm; height:5.17cm;""><p>What type of rock is this?</p>","5","class_response","0","test","27","Pegmatite","Pegmatite","06","true","6","6","",""
"","","","","","","","","","","","html-keyboard-response","60","2.0.0","139291","671c8f6c5e23f895f7fa8bae","1","48","null","","","","","","","","","<p style='font-size: 30px;'><strong>Okay</strong></p>","null","neutral_feedback","0","test","27","","","","","","","",""
"","","","","","","","","","","","html-button-response","61","2.0.0","140767","671c8f6c5e23f895f7fa8bae","1","48","1474","","","","","","","","","<img src= ""rock_img/I_Gabbro_08.jpg"" style=""width:8cm; height:5.15cm;""><p>What type of rock is this?</p>","2","class_response","0","test","28","Diorite","Gabbro","08","false","3","4","",""
"","","","","","","","","","","","html-keyboard-response","62","2.0.0","141272","671c8f6c5e23f895f7fa8bae","1","48","null","","","","","","","","","<p style='font-size: 30px;'><strong>Okay</strong></p>","null","neutral_feedback","0","test","28","","","","","","","",""
"","","","","","","","","","","","html-button-response","63","2.0.0","144092","671c8f6c5e23f895f7fa8bae","1","48","2817","","","","","","","","","<img src= ""rock_img/I_Pumice_02.jpg"" style=""width:8cm; height:7.3999999999999995cm;""><p>What type of rock is this?</p>","7","class_response","0","test","29","Pumice","Pumice","02","true","8","8","",""
"","","","","","","","","","","","html-keyboard-response","64","2.0.0","144598","671c8f6c5e23f895f7fa8bae","1","48","null","","","","","","","","","<p style='font-size: 30px;'><strong>Okay</strong></p>","null","neutral_feedback","0","test","29","","","","","","","",""
"","","","","","","","","","","","html-button-response","65","2.0.0","150712","671c8f6c5e23f895f7fa8bae","1","48","6111","","","","","","","","","<img src= ""rock_img/I_Basalt_01.jpg"" style=""width:8cm; height:7.880000000000001cm;""><p>What type of rock is this?</p>","1","class_response","0","test","30","Basalt","Basalt","01","true","2","2","",""
"","","","","","","","","","","","html-keyboard-response","66","2.0.0","151220","671c8f6c5e23f895f7fa8bae","1","48","null","","","","","","","","","<p style='font-size: 30px;'><strong>Okay</strong></p>","null","neutral_feedback","0","test","30","","","","","","","",""
"","","","","","","","","","","","html-button-response","67","2.0.0","152864","671c8f6c5e23f895f7fa8bae","1","48","1642","","","","","","","","","<img src= ""rock_img/I_Obsidian_12.jpg"" style=""width:8cm; height:6.53cm;""><p>What type of rock is this?</p>","4","class_response","0","test","31","Obsidian","Obsidian","12","true","5","5","",""
"","","","","","","","","","","","html-keyboard-response","68","2.0.0","153367","671c8f6c5e23f895f7fa8bae","1","48","null","","","","","","","","","<p style='font-size: 30px;'><strong>Okay</strong></p>","null","neutral_feedback","0","test","31","","","","","","","",""
"","","","","","","","","","","","html-button-response","69","2.0.0","155242","671c8f6c5e23f895f7fa8bae","1","48","1870","","","","","","","","","<img src= ""rock_img/I_Peridotite_14.jpg"" style=""width:8cm; height:5.3cm;""><p>What type of rock is this?</p>","5","class_response","0","test","32","Pegmatite","Peridotite","14","false","6","7","",""
"","","","","","","","","","","","html-keyboard-response","70","2.0.0","155755","671c8f6c5e23f895f7fa8bae","1","48","null","","","","","","","","","<p style='font-size: 30px;'><strong>Okay</strong></p>","null","neutral_feedback","0","test","32","","","","","","","",""
"","","","","","","","","","","","html-button-response","71","2.0.0","157557","671c8f6c5e23f895f7fa8bae","1","48","1799","","","","","","","","","<img src= ""rock_img/I_Pegmatite_13.jpg"" style=""width:8cm; height:4.95cm;""><p>What type of rock is this?</p>","4","class_response","0","test","33","Obsidian","Pegmatite","13","false","5","6","",""
"","","","","","","","","","","","html-keyboard-response","72","2.0.0","158073","671c8f6c5e23f895f7fa8bae","1","48","null","","","","","","","","","<p style='font-size: 30px;'><strong>Okay</strong></p>","null","neutral_feedback","0","test","33","","","","","","","",""
"","","","","","","","","","","","html-button-response","73","2.0.0","162947","671c8f6c5e23f895f7fa8bae","1","48","4870","","","","","","","","","<img src= ""rock_img/I_Basalt_12.jpg"" style=""width:8cm; height:6.010000000000001cm;""><p>What type of rock is this?</p>","1","class_response","0","test","34","Basalt","Basalt","12","true","2","2","",""
"","","","","","","","","","","","html-keyboard-response","74","2.0.0","163452","671c8f6c5e23f895f7fa8bae","1","48","null","","","","","","","","","<p style='font-size: 30px;'><strong>Okay</strong></p>","null","neutral_feedback","0","test","34","","","","","","","",""
"","","","","","","","","","","","html-button-response","75","2.0.0","165371","671c8f6c5e23f895f7fa8bae","1","48","1916","","","","","","","","","<img src= ""rock_img/I_Basalt_06.jpg"" style=""width:8cm; height:7.06cm;""><p>What type of rock is this?</p>","1","class_response","0","test","35","Basalt","Basalt","06","true","2","2","",""
"","","","","","","","","","","","html-keyboard-response","76","2.0.0","165879","671c8f6c5e23f895f7fa8bae","1","48","null","","","","","","","","","<p style='font-size: 30px;'><strong>Okay</strong></p>","null","neutral_feedback","0","test","35","","","","","","","",""
"","","","","","","","","","","","html-button-response","77","2.0.0","168144","671c8f6c5e23f895f7fa8bae","1","48","2262","","","","","","","","","<img src= ""rock_img/I_Peridotite_12.jpg"" style=""width:8cm; height:4.54cm;""><p>What type of rock is this?</p>","4","class_response","0","test","36","Obsidian","Peridotite","12","false","5","7","",""
"","","","","","","","","","","","html-keyboard-response","78","2.0.0","168654","671c8f6c5e23f895f7fa8bae","1","48","null","","","","","","","","","<p style='font-size: 30px;'><strong>Okay</strong></p>","null","neutral_feedback","0","test","36","","","","","","","",""
"","","","","","","","","","","","html-button-response","79","2.0.0","178583","671c8f6c5e23f895f7fa8bae","1","48","9932","","","","","","","","","<img src= ""rock_img/I_Peridotite_15.jpg"" style=""width:8cm; height:6cm;""><p>What type of rock is this?</p>","5","class_response","0","test","37","Pegmatite","Peridotite","15","false","6","7","",""
"","","","","","","","","","","","html-keyboard-response","80","2.0.0","179088","671c8f6c5e23f895f7fa8bae","1","48","null","","","","","","","","","<p style='font-size: 30px;'><strong>Okay</strong></p>","null","neutral_feedback","0","test","37","","","","","","","",""
"","","","","","","","","","","","html-button-response","81","2.0.0","185061","671c8f6c5e23f895f7fa8bae","1","48","5969","","","","","","","","","<img src= ""rock_img/I_Diorite_09.jpg"" style=""width:8cm; height:5.27cm;""><p>What type of rock is this?</p>","2","class_response","0","test","38","Diorite","Diorite","09","true","3","3","",""
"","","","","","","","","","","","html-keyboard-response","82","2.0.0","185573","671c8f6c5e23f895f7fa8bae","1","48","null","","","","","","","","","<p style='font-size: 30px;'><strong>Okay</strong></p>","null","neutral_feedback","0","test","38","","","","","","","",""
"","","","","","","","","","","","html-button-response","83","2.0.0","187612","671c8f6c5e23f895f7fa8bae","1","48","2036","","","","","","","","","<img src= ""rock_img/I_Diorite_10.jpg"" style=""width:8cm; height:5.949999999999999cm;""><p>What type of rock is this?</p>","2","class_response","0","test","39","Diorite","Diorite","10","true","3","3","",""
"","","","","","","","","","","","html-keyboard-response","84","2.0.0","188119","671c8f6c5e23f895f7fa8bae","1","48","null","","","","","","","","","<p style='font-size: 30px;'><strong>Okay</strong></p>","null","neutral_feedback","0","test","39","","","","","","","",""
"","","","","","","","","","","","html-button-response","85","2.0.0","190755","671c8f6c5e23f895f7fa8bae","1","48","2633","","","","","","","","","<img src= ""rock_img/I_Gabbro_14.jpg"" style=""width:8cm; height:8.48cm;""><p>What type of rock is this?</p>","3","class_response","0","test","40","Gabbro","Gabbro","14","true","4","4","",""
"","","","","","","","","","","","html-keyboard-response","86","2.0.0","191263","671c8f6c5e23f895f7fa8bae","1","48","null","","","","","","","","","<p style='font-size: 30px;'><strong>Okay</strong></p>","null","neutral_feedback","0","test","40","","","","","","","",""
"","","","","","","","","","","","html-button-response","87","2.0.0","193113","671c8f6c5e23f895f7fa8bae","1","48","1847","","","","","","","","","<img src= ""rock_img/I_Basalt_04.jpg"" style=""width:8cm; height:7.53cm;""><p>What type of rock is this?</p>","1","class_response","0","test","41","Basalt","Basalt","04","true","2","2","",""
"","","","","","","","","","","","html-keyboard-response","88","2.0.0","193625","671c8f6c5e23f895f7fa8bae","1","48","null","","","","","","","","","<p style='font-size: 30px;'><strong>Okay</strong></p>","null","neutral_feedback","0","test","41","","","","","","","",""
"","","","","","","","","","","","html-button-response","89","2.0.0","198633","671c8f6c5e23f895f7fa8bae","1","48","5005","","","","","","","","","<img src= ""rock_img/I_Peridotite_05.jpg"" style=""width:8cm; height:7.1499999999999995cm;""><p>What type of rock is this?</p>","2","class_response","0","test","42","Diorite","Peridotite","05","false","3","7","",""
"","","","","","","","","","","","html-keyboard-response","90","2.0.0","199149","671c8f6c5e23f895f7fa8bae","1","48","null","","","","","","","","","<p style='font-size: 30px;'><strong>Okay</strong></p>","null","neutral_feedback","0","test","42","","","","","","","",""
"","","","","","","","","","","","html-button-response","91","2.0.0","210437","671c8f6c5e23f895f7fa8bae","1","48","11286","","","","","","","","","<img src= ""rock_img/I_Gabbro_16.jpg"" style=""width:8cm; height:6.44cm;""><p>What type of rock is this?</p>","3","class_response","0","test","43","Gabbro","Gabbro","16","true","4","4","",""
"","","","","","","","","","","","html-keyboard-response","92","2.0.0","210941","671c8f6c5e23f895f7fa8bae","1","48","null","","","","","","","","","<p style='font-size: 30px;'><strong>Okay</strong></p>","null","neutral_feedback","0","test","43","","","","","","","",""
"","","","","","","","","","","","html-button-response","93","2.0.0","221573","671c8f6c5e23f895f7fa8bae","1","48","10629","","","","","","","","","<img src= ""rock_img/I_Pumice_15.jpg"" style=""width:8cm; height:7.86cm;""><p>What type of rock is this?</p>","7","class_response","0","test","44","Pumice","Pumice","15","true","8","8","",""
"","","","","","","","","","","","html-keyboard-response","94","2.0.0","222077","671c8f6c5e23f895f7fa8bae","1","48","null","","","","","","","","","<p style='font-size: 30px;'><strong>Okay</strong></p>","null","neutral_feedback","0","test","44","","","","","","","",""
"","","","","","","","","","","","html-button-response","95","2.0.0","224528","671c8f6c5e23f895f7fa8bae","1","48","2447","","","","","","","","","<img src= ""rock_img/I_Pumice_06.jpg"" style=""width:8cm; height:6.9399999999999995cm;""><p>What type of rock is this?</p>","2","class_response","0","test","45","Diorite","Pumice","06","false","3","8","",""
"","","","","","","","","","","","html-keyboard-response","96","2.0.0","225046","671c8f6c5e23f895f7fa8bae","1","48","null","","","","","","","","","<p style='font-size: 30px;'><strong>Okay</strong></p>","null","neutral_feedback","0","test","45","","","","","","","",""
"","","","","","","","","","","","html-button-response","97","2.0.0","227253","671c8f6c5e23f895f7fa8bae","1","48","2205","","","","","","","","","<img src= ""rock_img/I_Diorite_12.jpg"" style=""width:8cm; height:4.88cm;""><p>What type of rock is this?</p>","1","class_response","0","test","46","Basalt","Diorite","12","false","2","3","",""
"","","","","","","","","","","","html-keyboard-response","98","2.0.0","227759","671c8f6c5e23f895f7fa8bae","1","48","null","","","","","","","","","<p style='font-size: 30px;'><strong>Okay</strong></p>","null","neutral_feedback","0","test","46","","","","","","","",""
"","","","","","","","","","","","html-button-response","99","2.0.0","231362","671c8f6c5e23f895f7fa8bae","1","48","3600","","","","","","","","","<img src= ""rock_img/I_Pumice_09.jpg"" style=""width:8cm; height:6.44cm;""><p>What type of rock is this?</p>","7","class_response","0","test","47","Pumice","Pumice","09","true","8","8","",""
"","","","","","","","","","","","html-keyboard-response","100","2.0.0","231867","671c8f6c5e23f895f7fa8bae","1","48","null","","","","","","","","","<p style='font-size: 30px;'><strong>Okay</strong></p>","null","neutral_feedback","0","test","47","","","","","","","",""
"","","","","","","","","","","","html-button-response","101","2.0.0","235770","671c8f6c5e23f895f7fa8bae","1","48","3901","","","","","","","","","<img src= ""rock_img/I_Obsidian_08.jpg"" style=""width:8cm; height:7.39cm;""><p>What type of rock is this?</p>","4","class_response","0","test","48","Obsidian","Obsidian","08","true","5","5","",""
"","","","","","","","","","","","html-keyboard-response","102","2.0.0","236284","671c8f6c5e23f895f7fa8bae","1","48","null","","","","","","","","","<p style='font-size: 30px;'><strong>Okay</strong></p>","null","neutral_feedback","0","test","48","","","","","","","",""
"","","","","","","","","","","","instructions","103","2.0.0","250959","671c8f6c5e23f895f7fa8bae","1","48","14634","","","","","","","","[{""page_index"":0,""viewing_time"":8555},{""page_index"":1,""viewing_time"":3231},{""page_index"":2,""viewing_time"":2848}]","","","","","","","","","","","","","",""
"","","","","","","","","","","","html-button-response","104","2.0.0","253064","671c8f6c5e23f895f7fa8bae","1","48","2101","","","","","","","","","","0","start_train","","","","","","","","","","",""
"","","","","","","","","","","","html-button-response","105","2.0.0","255141","671c8f6c5e23f895f7fa8bae","1","48","2074","","","","","","","","","<img src= ""rock_img/I_Peridotite_10.jpg"" style=""width:8cm; height:5.390000000000001cm;""><p>What type of rock is this?</p>","7","class_response","1","train","1","Pumice","Peridotite","10","false","8","7","",""
"","","","","","","","","","","","html-button-response","106","2.0.0","256519","671c8f6c5e23f895f7fa8bae","1","48","1375","","","","","","","","","<img src= rock_img/I_Peridotite_10.jpg style=""width:8cm; height:5.390000000000001cm;""><p style='font-size: 30px; color: red;'><strong>Incorrect!</strong></p><p style='font-size: 30px;'><strong>This rock is peridotite</strong></p>","0","corr_feedback","1","train","1","","","","","","","",""
"","","","","","","","","","","","html-button-response","107","2.0.0","258481","671c8f6c5e23f895f7fa8bae","1","48","1957","","","","","","","","","<img src= ""rock_img/I_Andesite_07.jpg"" style=""width:8cm; height:5.93cm;""><p>What type of rock is this?</p>","2","class_response","1","train","2","Diorite","Andesite","07","false","3","1","",""
"","","","","","","","","","","","html-button-response","108","2.0.0","259719","671c8f6c5e23f895f7fa8bae","1","48","1235","","","","","","","","","<img src= rock_img/I_Andesite_07.jpg style=""width:8cm; height:5.93cm;""><p style='font-size: 30px; color: red;'><strong>Incorrect!</strong></p><p style='font-size: 30px;'><strong>This rock is andesite</strong></p>","0","corr_feedback","1","train","2","","","","","","","",""
"","","","","","","","","","","","html-button-response","109","2.0.0","261129","671c8f6c5e23f895f7fa8bae","1","48","1405","","","","","","","","","<img src= ""rock_img/I_Obsidian_10.jpg"" style=""width:8cm; height:6.260000000000001cm;""><p>What type of rock is this?</p>","4","class_response","1","train","3","Obsidian","Obsidian","10","true","5","5","",""
"","","","","","","","","","","","html-button-response","110","2.0.0","262076","671c8f6c5e23f895f7fa8bae","1","48","944","","","","","","","","","<img src= rock_img/I_Obsidian_10.jpg style=""width:8cm; height:6.260000000000001cm;""><p style='font-size: 30px; color: green;'><strong>Correct!</strong></p><p style='font-size: 30px;'><strong>This rock is obsidian</strong></p>","0","corr_feedback","1","train","3","","","","","","","",""
"","","","","","","","","","","","html-button-response","111","2.0.0","263250","671c8f6c5e23f895f7fa8bae","1","48","1171","","","","","","","","","<img src= ""rock_img/I_Pegmatite_10.jpg"" style=""width:8cm; height:4.16cm;""><p>What type of rock is this?</p>","5","class_response","1","train","4","Pegmatite","Pegmatite","10","true","6","6","",""
"","","","","","","","","","","","html-button-response","112","2.0.0","264091","671c8f6c5e23f895f7fa8bae","1","48","839","","","","","","","","","<img src= rock_img/I_Pegmatite_10.jpg style=""width:8cm; height:4.16cm;""><p style='font-size: 30px; color: green;'><strong>Correct!</strong></p><p style='font-size: 30px;'><strong>This rock is pegmatite</strong></p>","0","corr_feedback","1","train","4","","","","","","","",""
"","","","","","","","","","","","html-button-response","113","2.0.0","265389","671c8f6c5e23f895f7fa8bae","1","48","1295","","","","","","","","","<img src= ""rock_img/I_Pegmatite_07.jpg"" style=""width:8cm; height:6.7cm;""><p>What type of rock is this?</p>","5","class_response","1","train","5","Pegmatite","Pegmatite","07","true","6","6","",""
"","","","","","","","","","","","html-button-response","114","2.0.0","266130","671c8f6c5e23f895f7fa8bae","1","48","738","","","","","","","","","<img src= rock_img/I_Pegmatite_07.jpg style=""width:8cm; height:6.7cm;""><p style='font-size: 30px; color: green;'><strong>Correct!</strong></p><p style='font-size: 30px;'><strong>This rock is pegmatite</strong></p>","0","corr_feedback","1","train","5","","","","","","","",""
"","","","","","","","","","","","html-button-response","115","2.0.0","267490","671c8f6c5e23f895f7fa8bae","1","48","1355","","","","","","","","","<img src= ""rock_img/I_Pumice_14.jpg"" style=""width:8cm; height:6.39cm;""><p>What type of rock is this?</p>","7","class_response","1","train","6","Pumice","Pumice","14","true","8","8","",""
"","","","","","","","","","","","html-button-response","116","2.0.0","268770","671c8f6c5e23f895f7fa8bae","1","48","1277","","","","","","","","","<img src= rock_img/I_Pumice_14.jpg style=""width:8cm; height:6.39cm;""><p style='font-size: 30px; color: green;'><strong>Correct!</strong></p><p style='font-size: 30px;'><strong>This rock is pumice</strong></p>","0","corr_feedback","1","train","6","","","","","","","",""
"","","","","","","","","","","","html-button-response","117","2.0.0","270956","671c8f6c5e23f895f7fa8bae","1","48","2184","","","","","","","","","<img src= ""rock_img/I_Obsidian_04.jpg"" style=""width:8cm; height:6.930000000000001cm;""><p>What type of rock is this?</p>","4","class_response","1","train","7","Obsidian","Obsidian","04","true","5","5","",""
"","","","","","","","","","","","html-button-response","118","2.0.0","272040","671c8f6c5e23f895f7fa8bae","1","48","1082","","","","","","","","","<img src= rock_img/I_Obsidian_04.jpg style=""width:8cm; height:6.930000000000001cm;""><p style='font-size: 30px; color: green;'><strong>Correct!</strong></p><p style='font-size: 30px;'><strong>This rock is obsidian</strong></p>","0","corr_feedback","1","train","7","","","","","","","",""
"","","","","","","","","","","","html-button-response","119","2.0.0","273556","671c8f6c5e23f895f7fa8bae","1","48","1513","","","","","","","","","<img src= ""rock_img/I_Basalt_05.jpg"" style=""width:8cm; height:8.18cm;""><p>What type of rock is this?</p>","1","class_response","1","train","8","Basalt","Basalt","05","true","2","2","",""
"","","","","","","","","","","","html-button-response","120","2.0.0","274470","671c8f6c5e23f895f7fa8bae","1","48","912","","","","","","","","","<img src= rock_img/I_Basalt_05.jpg style=""width:8cm; height:8.18cm;""><p style='font-size: 30px; color: green;'><strong>Correct!</strong></p><p style='font-size: 30px;'><strong>This rock is basalt</strong></p>","0","corr_feedback","1","train","8","","","","","","","",""
"","","","","","","","","","","","html-button-response","121","2.0.0","275726","671c8f6c5e23f895f7fa8bae","1","48","1250","","","","","","","","","<img src= ""rock_img/I_Pumice_04.jpg"" style=""width:8cm; height:6.819999999999999cm;""><p>What type of rock is this?</p>","7","class_response","1","train","9","Pumice","Pumice","04","true","8","8","",""
"","","","","","","","","","","","html-button-response","122","2.0.0","276443","671c8f6c5e23f895f7fa8bae","1","48","713","","","","","","","","","<img src= rock_img/I_Pumice_04.jpg style=""width:8cm; height:6.819999999999999cm;""><p style='font-size: 30px; color: green;'><strong>Correct!</strong></p><p style='font-size: 30px;'><strong>This rock is pumice</strong></p>","0","corr_feedback","1","train","9","","","","","","","",""
"","","","","","","","","","","","html-button-response","123","2.0.0","277737","671c8f6c5e23f895f7fa8bae","1","48","1291","","","","","","","","","<img src= ""rock_img/I_Diorite_08.jpg"" style=""width:8cm; height:6.37cm;""><p>What type of rock is this?</p>","5","class_response","1","train","10","Pegmatite","Diorite","08","false","6","3","",""
"","","","","","","","","","","","html-button-response","124","2.0.0","278562","671c8f6c5e23f895f7fa8bae","1","48","822","","","","","","","","","<img src= rock_img/I_Diorite_08.jpg style=""width:8cm; height:6.37cm;""><p style='font-size: 30px; color: red;'><strong>Incorrect!</strong></p><p style='font-size: 30px;'><strong>This rock is diorite</strong></p>","0","corr_feedback","1","train","10","","","","","","","",""
"","","","","","","","","","","","html-button-response","125","2.0.0","281042","671c8f6c5e23f895f7fa8bae","1","48","2476","","","","","","","","","<img src= ""rock_img/I_Pumice_08.jpg"" style=""width:8cm; height:6.67cm;""><p>What type of rock is this?</p>","7","class_response","1","train","11","Pumice","Pumice","08","true","8","8","",""
"","","","","","","","","","","","html-button-response","126","2.0.0","281878","671c8f6c5e23f895f7fa8bae","1","48","833","","","","","","","","","<img src= rock_img/I_Pumice_08.jpg style=""width:8cm; height:6.67cm;""><p style='font-size: 30px; color: green;'><strong>Correct!</strong></p><p style='font-size: 30px;'><strong>This rock is pumice</strong></p>","0","corr_feedback","1","train","11","","","","","","","",""
"","","","","","","","","","","","html-button-response","127","2.0.0","283741","671c8f6c5e23f895f7fa8bae","1","48","1859","","","","","","","","","<img src= ""rock_img/I_Andesite_06.jpg"" style=""width:8cm; height:6.840000000000001cm;""><p>What type of rock is this?</p>","5","class_response","1","train","12","Pegmatite","Andesite","06","false","6","1","",""
"","","","","","","","","","","","html-button-response","128","2.0.0","287520","671c8f6c5e23f895f7fa8bae","1","48","3776","","","","","","","","","<img src= rock_img/I_Andesite_06.jpg style=""width:8cm; height:6.840000000000001cm;""><p style='font-size: 30px; color: red;'><strong>Incorrect!</strong></p><p style='font-size: 30px;'><strong>This rock is andesite</strong></p>","0","corr_feedback","1","train","12","","","","","","","",""
"","","","","","","","","","","","html-button-response","129","2.0.0","289334","671c8f6c5e23f895f7fa8bae","1","48","1811","","","","","","","","","<img src= ""rock_img/I_Gabbro_10.jpg"" style=""width:8cm; height:5.680000000000001cm;""><p>What type of rock is this?</p>","2","class_response","1","train","13","Diorite","Gabbro","10","false","3","4","",""
"","","","","","","","","","","","html-button-response","130","2.0.0","290162","671c8f6c5e23f895f7fa8bae","1","48","826","","","","","","","","","<img src= rock_img/I_Gabbro_10.jpg style=""width:8cm; height:5.680000000000001cm;""><p style='font-size: 30px; color: red;'><strong>Incorrect!</strong></p><p style='font-size: 30px;'><strong>This rock is gabbro</strong></p>","0","corr_feedback","1","train","13","","","","","","","",""
"","","","","","","","","","","","html-button-response","131","2.0.0","291517","671c8f6c5e23f895f7fa8bae","1","48","1352","","","","","","","","","<img src= ""rock_img/I_Pumice_10.jpg"" style=""width:8cm; height:7.609999999999999cm;""><p>What type of rock is this?</p>","7","class_response","1","train","14","Pumice","Pumice","10","true","8","8","",""
"","","","","","","","","","","","html-button-response","132","2.0.0","292427","671c8f6c5e23f895f7fa8bae","1","48","908","","","","","","","","","<img src= rock_img/I_Pumice_10.jpg style=""width:8cm; height:7.609999999999999cm;""><p style='font-size: 30px; color: green;'><strong>Correct!</strong></p><p style='font-size: 30px;'><strong>This rock is pumice</strong></p>","0","corr_feedback","1","train","14","","","","","","","",""
"","","","","","","","","","","","html-button-response","133","2.0.0","293768","671c8f6c5e23f895f7fa8bae","1","48","1338","","","","","","","","","<img src= ""rock_img/I_Andesite_11.jpg"" style=""width:8cm; height:4.92cm;""><p>What type of rock is this?</p>","5","class_response","1","train","15","Pegmatite","Andesite","11","false","6","1","",""
"","","","","","","","","","","","html-button-response","134","2.0.0","294620","671c8f6c5e23f895f7fa8bae","1","48","850","","","","","","","","","<img src= rock_img/I_Andesite_11.jpg style=""width:8cm; height:4.92cm;""><p style='font-size: 30px; color: red;'><strong>Incorrect!</strong></p><p style='font-size: 30px;'><strong>This rock is andesite</strong></p>","0","corr_feedback","1","train","15","","","","","","","",""
"","","","","","","","","","","","html-button-response","135","2.0.0","296201","671c8f6c5e23f895f7fa8bae","1","48","1579","","","","","","","","","<img src= ""rock_img/I_Peridotite_08.jpg"" style=""width:8cm; height:6.7cm;""><p>What type of rock is this?</p>","5","class_response","1","train","16","Pegmatite","Peridotite","08","false","6","7","",""
"","","","","","","","","","","","html-button-response","136","2.0.0","297015","671c8f6c5e23f895f7fa8bae","1","48","813","","","","","","","","","<img src= rock_img/I_Peridotite_08.jpg style=""width:8cm; height:6.7cm;""><p style='font-size: 30px; color: red;'><strong>Incorrect!</strong></p><p style='font-size: 30px;'><strong>This rock is peridotite</strong></p>","0","corr_feedback","1","train","16","","","","","","","",""
"","","","","","","","","","","","html-button-response","137","2.0.0","298297","671c8f6c5e23f895f7fa8bae","1","48","1277","","","","","","","","","<img src= ""rock_img/I_Diorite_07.jpg"" style=""width:8cm; height:5.239999999999999cm;""><p>What type of rock is this?</p>","4","class_response","1","train","17","Obsidian","Diorite","07","false","5","3","",""
"","","","","","","","","","","","html-button-response","138","2.0.0","299105","671c8f6c5e23f895f7fa8bae","1","48","805","","","","","","","","","<img src= rock_img/I_Diorite_07.jpg style=""width:8cm; height:5.239999999999999cm;""><p style='font-size: 30px; color: red;'><strong>Incorrect!</strong></p><p style='font-size: 30px;'><strong>This rock is diorite</strong></p>","0","corr_feedback","1","train","17","","","","","","","",""
"","","","","","","","","","","","html-button-response","139","2.0.0","301185","671c8f6c5e23f895f7fa8bae","1","48","2079","","","","","","","","","<img src= ""rock_img/I_Gabbro_09.jpg"" style=""width:8cm; height:7.279999999999999cm;""><p>What type of rock is this?</p>","4","class_response","1","train","18","Obsidian","Gabbro","09","false","5","4","",""
"","","","","","","","","","","","html-button-response","140","2.0.0","302449","671c8f6c5e23f895f7fa8bae","1","48","1261","","","","","","","","","<img src= rock_img/I_Gabbro_09.jpg style=""width:8cm; height:7.279999999999999cm;""><p style='font-size: 30px; color: red;'><strong>Incorrect!</strong></p><p style='font-size: 30px;'><strong>This rock is gabbro</strong></p>","0","corr_feedback","1","train","18","","","","","","","",""
"","","","","","","","","","","","html-button-response","141","2.0.0","304706","671c8f6c5e23f895f7fa8bae","1","48","2254","","","","","","","","","<img src= ""rock_img/I_Basalt_16.jpg"" style=""width:8cm; height:7.659999999999999cm;""><p>What type of rock is this?</p>","3","class_response","1","train","19","Gabbro","Basalt","16","false","4","2","",""
"","","","","","","","","","","","html-button-response","142","2.0.0","305652","671c8f6c5e23f895f7fa8bae","1","48","943","","","","","","","","","<img src= rock_img/I_Basalt_16.jpg style=""width:8cm; height:7.659999999999999cm;""><p style='font-size: 30px; color: red;'><strong>Incorrect!</strong></p><p style='font-size: 30px;'><strong>This rock is basalt</strong></p>","0","corr_feedback","1","train","19","","","","","","","",""
"","","","","","","","","","","","html-button-response","143","2.0.0","307006","671c8f6c5e23f895f7fa8bae","1","48","1352","","","","","","","","","<img src= ""rock_img/I_Obsidian_09.jpg"" style=""width:8cm; height:5cm;""><p>What type of rock is this?</p>","4","class_response","1","train","20","Obsidian","Obsidian","09","true","5","5","",""
"","","","","","","","","","","","html-button-response","144","2.0.0","308301","671c8f6c5e23f895f7fa8bae","1","48","1292","","","","","","","","","<img src= rock_img/I_Obsidian_09.jpg style=""width:8cm; height:5cm;""><p style='font-size: 30px; color: green;'><strong>Correct!</strong></p><p style='font-size: 30px;'><strong>This rock is obsidian</strong></p>","0","corr_feedback","1","train","20","","","","","","","",""
"","","","","","","","","","","","html-button-response","145","2.0.0","310357","671c8f6c5e23f895f7fa8bae","1","48","2054","","","","","","","","","<img src= ""rock_img/I_Pegmatite_11.jpg"" style=""width:8cm; height:8.14cm;""><p>What type of rock is this?</p>","5","class_response","1","train","21","Pegmatite","Pegmatite","11","true","6","6","",""
"","","","","","","","","","","","html-button-response","146","2.0.0","311858","671c8f6c5e23f895f7fa8bae","1","48","1498","","","","","","","","","<img src= rock_img/I_Pegmatite_11.jpg style=""width:8cm; height:8.14cm;""><p style='font-size: 30px; color: green;'><strong>Correct!</strong></p><p style='font-size: 30px;'><strong>This rock is pegmatite</strong></p>","0","corr_feedback","1","train","21","","","","","","","",""
"","","","","","","","","","","","html-button-response","147","2.0.0","313845","671c8f6c5e23f895f7fa8bae","1","48","1984","","","","","","","","","<img src= ""rock_img/I_Basalt_10.jpg"" style=""width:8cm; height:5.85cm;""><p>What type of rock is this?</p>","1","class_response","1","train","22","Basalt","Basalt","10","true","2","2","",""
"","","","","","","","","","","","html-button-response","148","2.0.0","314687","671c8f6c5e23f895f7fa8bae","1","48","840","","","","","","","","","<img src= rock_img/I_Basalt_10.jpg style=""width:8cm; height:5.85cm;""><p style='font-size: 30px; color: green;'><strong>Correct!</strong></p><p style='font-size: 30px;'><strong>This rock is basalt</strong></p>","0","corr_feedback","1","train","22","","","","","","","",""
"","","","","","","","","","","","html-button-response","149","2.0.0","315945","671c8f6c5e23f895f7fa8bae","1","48","1254","","","","","","","","","<img src= ""rock_img/I_Pumice_03.jpg"" style=""width:8cm; height:6.64cm;""><p>What type of rock is this?</p>","7","class_response","1","train","23","Pumice","Pumice","03","true","8","8","",""
"","","","","","","","","","","","html-button-response","150","2.0.0","316888","671c8f6c5e23f895f7fa8bae","1","48","940","","","","","","","","","<img src= rock_img/I_Pumice_03.jpg style=""width:8cm; height:6.64cm;""><p style='font-size: 30px; color: green;'><strong>Correct!</strong></p><p style='font-size: 30px;'><strong>This rock is pumice</strong></p>","0","corr_feedback","1","train","23","","","","","","","",""
"","","","","","","","","","","","html-button-response","151","2.0.0","318119","671c8f6c5e23f895f7fa8bae","1","48","1227","","","","","","","","","<img src= ""rock_img/I_Peridotite_02.jpg"" style=""width:8cm; height:5.859999999999999cm;""><p>What type of rock is this?</p>","5","class_response","1","train","24","Pegmatite","Peridotite","02","false","6","7","",""
"","","","","","","","","","","","html-button-response","152","2.0.0","318861","671c8f6c5e23f895f7fa8bae","1","48","740","","","","","","","","","<img src= rock_img/I_Peridotite_02.jpg style=""width:8cm; height:5.859999999999999cm;""><p style='font-size: 30px; color: red;'><strong>Incorrect!</strong></p><p style='font-size: 30px;'><strong>This rock is peridotite</strong></p>","0","corr_feedback","1","train","24","","","","","","","",""
"","","","","","","","","","","","html-button-response","153","2.0.0","321182","671c8f6c5e23f895f7fa8bae","1","48","2318","","","","","","","","","<img src= ""rock_img/I_Obsidian_05.jpg"" style=""width:8cm; height:6.33cm;""><p>What type of rock is this?</p>","4","class_response","1","train","25","Obsidian","Obsidian","05","true","5","5","",""
"","","","","","","","","","","","html-button-response","154","2.0.0","322217","671c8f6c5e23f895f7fa8bae","1","48","1032","","","","","","","","","<img src= rock_img/I_Obsidian_05.jpg style=""width:8cm; height:6.33cm;""><p style='font-size: 30px; color: green;'><strong>Correct!</strong></p><p style='font-size: 30px;'><strong>This rock is obsidian</strong></p>","0","corr_feedback","1","train","25","","","","","","","",""
"","","","","","","","","","","","html-button-response","155","2.0.0","324334","671c8f6c5e23f895f7fa8bae","1","48","2114","","","","","","","","","<img src= ""rock_img/I_Obsidian_14.jpg"" style=""width:8cm; height:7.64cm;""><p>What type of rock is this?</p>","1","class_response","1","train","26","Basalt","Obsidian","14","false","2","5","",""
"","","","","","","","","","","","html-button-response","156","2.0.0","325257","671c8f6c5e23f895f7fa8bae","1","48","918","","","","","","","","","<img src= rock_img/I_Obsidian_14.jpg style=""width:8cm; height:7.64cm;""><p style='font-size: 30px; color: red;'><strong>Incorrect!</strong></p><p style='font-size: 30px;'><strong>This rock is obsidian</strong></p>","0","corr_feedback","1","train","26","","","","","","","",""
"","","","","","","","","","","","html-button-response","157","2.0.0","327980","671c8f6c5e23f895f7fa8bae","1","48","2719","","","","","","","","","<img src= ""rock_img/I_Andesite_01.jpg"" style=""width:8cm; height:5.87cm;""><p>What type of rock is this?</p>","2","class_response","1","train","27","Diorite","Andesite","01","false","3","1","",""
"","","","","","","","","","","","html-button-response","158","2.0.0","328943","671c8f6c5e23f895f7fa8bae","1","48","960","","","","","","","","","<img src= rock_img/I_Andesite_01.jpg style=""width:8cm; height:5.87cm;""><p style='font-size: 30px; color: red;'><strong>Incorrect!</strong></p><p style='font-size: 30px;'><strong>This rock is andesite</strong></p>","0","corr_feedback","1","train","27","","","","","","","",""
"","","","","","","","","","","","html-button-response","159","2.0.0","330242","671c8f6c5e23f895f7fa8bae","1","48","1295","","","","","","","","","<img src= ""rock_img/I_Diorite_11.jpg"" style=""width:8cm; height:7.11cm;""><p>What type of rock is this?</p>","2","class_response","1","train","28","Diorite","Diorite","11","true","3","3","",""
"","","","","","","","","","","","html-button-response","160","2.0.0","331092","671c8f6c5e23f895f7fa8bae","1","48","848","","","","","","","","","<img src= rock_img/I_Diorite_11.jpg style=""width:8cm; height:7.11cm;""><p style='font-size: 30px; color: green;'><strong>Correct!</strong></p><p style='font-size: 30px;'><strong>This rock is diorite</strong></p>","0","corr_feedback","1","train","28","","","","","","","",""
"","","","","","","","","","","","html-button-response","161","2.0.0","333035","671c8f6c5e23f895f7fa8bae","1","48","1940","","","","","","","","","<img src= ""rock_img/I_Diorite_06.jpg"" style=""width:8cm; height:6.03cm;""><p>What type of rock is this?</p>","2","class_response","1","train","29","Diorite","Diorite","06","true","3","3","",""
"","","","","","","","","","","","html-button-response","162","2.0.0","334116","671c8f6c5e23f895f7fa8bae","1","48","1079","","","","","","","","","<img src= rock_img/I_Diorite_06.jpg style=""width:8cm; height:6.03cm;""><p style='font-size: 30px; color: green;'><strong>Correct!</strong></p><p style='font-size: 30px;'><strong>This rock is diorite</strong></p>","0","corr_feedback","1","train","29","","","","","","","",""
"","","","","","","","","","","","html-button-response","163","2.0.0","336104","671c8f6c5e23f895f7fa8bae","1","48","1985","","","","","","","","","<img src= ""rock_img/I_Gabbro_15.jpg"" style=""width:8cm; height:6.29cm;""><p>What type of rock is this?</p>","0","class_response","1","train","30","Andesite","Gabbro","15","false","1","4","",""
"","","","","","","","","","","","html-button-response","164","2.0.0","337317","671c8f6c5e23f895f7fa8bae","1","48","1207","","","","","","","","","<img src= rock_img/I_Gabbro_15.jpg style=""width:8cm; height:6.29cm;""><p style='font-size: 30px; color: red;'><strong>Incorrect!</strong></p><p style='font-size: 30px;'><strong>This rock is gabbro</strong></p>","0","corr_feedback","1","train","30","","","","","","","",""
"","","","","","","","","","","","html-button-response","165","2.0.0","340558","671c8f6c5e23f895f7fa8bae","1","48","3237","","","","","","","","","<img src= ""rock_img/I_Gabbro_12.jpg"" style=""width:8cm; height:7.800000000000001cm;""><p>What type of rock is this?</p>","0","class_response","1","train","31","Andesite","Gabbro","12","false","1","4","",""
"","","","","","","","","","","","html-button-response","166","2.0.0","341812","671c8f6c5e23f895f7fa8bae","1","48","1250","","","","","","","","","<img src= rock_img/I_Gabbro_12.jpg style=""width:8cm; height:7.800000000000001cm;""><p style='font-size: 30px; color: red;'><strong>Incorrect!</strong></p><p style='font-size: 30px;'><strong>This rock is gabbro</strong></p>","0","corr_feedback","1","train","31","","","","","","","",""
"","","","","","","","","","","","html-button-response","167","2.0.0","344906","671c8f6c5e23f895f7fa8bae","1","48","3090","","","","","","","","","<img src= ""rock_img/I_Andesite_16.jpg"" style=""width:8cm; height:6.010000000000001cm;""><p>What type of rock is this?</p>","6","class_response","1","train","32","Peridotite","Andesite","16","false","7","1","",""
"","","","","","","","","","","","html-button-response","168","2.0.0","345809","671c8f6c5e23f895f7fa8bae","1","48","900","","","","","","","","","<img src= rock_img/I_Andesite_16.jpg style=""width:8cm; height:6.010000000000001cm;""><p style='font-size: 30px; color: red;'><strong>Incorrect!</strong></p><p style='font-size: 30px;'><strong>This rock is andesite</strong></p>","0","corr_feedback","1","train","32","","","","","","","",""
"","","","","","","","","","","","html-button-response","169","2.0.0","347506","671c8f6c5e23f895f7fa8bae","1","48","1694","","","","","","","","","<img src= ""rock_img/I_Gabbro_13.jpg"" style=""width:8cm; height:5.08cm;""><p>What type of rock is this?</p>","3","class_response","1","train","33","Gabbro","Gabbro","13","true","4","4","",""
"","","","","","","","","","","","html-button-response","170","2.0.0","348411","671c8f6c5e23f895f7fa8bae","1","48","903","","","","","","","","","<img src= rock_img/I_Gabbro_13.jpg style=""width:8cm; height:5.08cm;""><p style='font-size: 30px; color: green;'><strong>Correct!</strong></p><p style='font-size: 30px;'><strong>This rock is gabbro</strong></p>","0","corr_feedback","1","train","33","","","","","","","",""
"","","","","","","","","","","","html-button-response","171","2.0.0","350086","671c8f6c5e23f895f7fa8bae","1","48","1671","","","","","","","","","<img src= ""rock_img/I_Pegmatite_12.jpg"" style=""width:8cm; height:5.7cm;""><p>What type of rock is this?</p>","5","class_response","1","train","34","Pegmatite","Pegmatite","12","true","6","6","",""
"","","","","","","","","","","","html-button-response","172","2.0.0","351095","671c8f6c5e23f895f7fa8bae","1","48","1006","","","","","","","","","<img src= rock_img/I_Pegmatite_12.jpg style=""width:8cm; height:5.7cm;""><p style='font-size: 30px; color: green;'><strong>Correct!</strong></p><p style='font-size: 30px;'><strong>This rock is pegmatite</strong></p>","0","corr_feedback","1","train","34","","","","","","","",""
"","","","","","","","","","","","html-button-response","173","2.0.0","354408","671c8f6c5e23f895f7fa8bae","1","48","3309","","","","","","","","","<img src= ""rock_img/I_Andesite_14.jpg"" style=""width:8cm; height:5.449999999999999cm;""><p>What type of rock is this?</p>","6","class_response","1","train","35","Peridotite","Andesite","14","false","7","1","",""
"","","","","","","","","","","","html-button-response","174","2.0.0","355263","671c8f6c5e23f895f7fa8bae","1","48","853","","","","","","","","","<img src= rock_img/I_Andesite_14.jpg style=""width:8cm; height:5.449999999999999cm;""><p style='font-size: 30px; color: red;'><strong>Incorrect!</strong></p><p style='font-size: 30px;'><strong>This rock is andesite</strong></p>","0","corr_feedback","1","train","35","","","","","","","",""
"","","","","","","","","","","","html-button-response","175","2.0.0","357282","671c8f6c5e23f895f7fa8bae","1","48","2014","","","","","","","","","<img src= ""rock_img/I_Basalt_08.jpg"" style=""width:8cm; height:10.44cm;""><p>What type of rock is this?</p>","1","class_response","1","train","36","Basalt","Basalt","08","true","2","2","",""
"","","","","","","","","","","","html-button-response","176","2.0.0","358382","671c8f6c5e23f895f7fa8bae","1","48","1097","","","","","","","","","<img src= rock_img/I_Basalt_08.jpg style=""width:8cm; height:10.44cm;""><p style='font-size: 30px; color: green;'><strong>Correct!</strong></p><p style='font-size: 30px;'><strong>This rock is basalt</strong></p>","0","corr_feedback","1","train","36","","","","","","","",""
"","","","","","","","","","","","html-button-response","177","2.0.0","360130","671c8f6c5e23f895f7fa8bae","1","48","1744","","","","","","","","","<img src= ""rock_img/I_Peridotite_07.jpg"" style=""width:8cm; height:4.83cm;""><p>What type of rock is this?</p>","6","class_response","1","train","37","Peridotite","Peridotite","07","true","7","7","",""
"","","","","","","","","","","","html-button-response","178","2.0.0","361142","671c8f6c5e23f895f7fa8bae","1","48","1009","","","","","","","","","<img src= rock_img/I_Peridotite_07.jpg style=""width:8cm; height:4.83cm;""><p style='font-size: 30px; color: green;'><strong>Correct!</strong></p><p style='font-size: 30px;'><strong>This rock is peridotite</strong></p>","0","corr_feedback","1","train","37","","","","","","","",""
"","","","","","","","","","","","html-button-response","179","2.0.0","362740","671c8f6c5e23f895f7fa8bae","1","48","1596","","","","","","","","","<img src= ""rock_img/I_Pumice_16.jpg"" style=""width:8cm; height:6.79cm;""><p>What type of rock is this?</p>","1","class_response","1","train","38","Basalt","Pumice","16","false","2","8","",""
"","","","","","","","","","","","html-button-response","180","2.0.0","364166","671c8f6c5e23f895f7fa8bae","1","48","1424","","","","","","","","","<img src= rock_img/I_Pumice_16.jpg style=""width:8cm; height:6.79cm;""><p style='font-size: 30px; color: red;'><strong>Incorrect!</strong></p><p style='font-size: 30px;'><strong>This rock is pumice</strong></p>","0","corr_feedback","1","train","38","","","","","","","",""
"","","","","","","","","","","","html-button-response","181","2.0.0","365774","671c8f6c5e23f895f7fa8bae","1","48","1605","","","","","","","","","<img src= ""rock_img/I_Diorite_16.jpg"" style=""width:8cm; height:6.74cm;""><p>What type of rock is this?</p>","0","class_response","1","train","39","Andesite","Diorite","16","false","1","3","",""
"","","","","","","","","","","","html-button-response","182","2.0.0","366828","671c8f6c5e23f895f7fa8bae","1","48","1051","","","","","","","","","<img src= rock_img/I_Diorite_16.jpg style=""width:8cm; height:6.74cm;""><p style='font-size: 30px; color: red;'><strong>Incorrect!</strong></p><p style='font-size: 30px;'><strong>This rock is diorite</strong></p>","0","corr_feedback","1","train","39","","","","","","","",""
"","","","","","","","","","","","html-button-response","183","2.0.0","368301","671c8f6c5e23f895f7fa8bae","1","48","1471","","","","","","","","","<img src= ""rock_img/I_Pegmatite_16.jpg"" style=""width:8cm; height:5.8cm;""><p>What type of rock is this?</p>","4","class_response","1","train","40","Obsidian","Pegmatite","16","false","5","6","",""
"","","","","","","","","","","","html-button-response","184","2.0.0","369323","671c8f6c5e23f895f7fa8bae","1","48","1020","","","","","","","","","<img src= rock_img/I_Pegmatite_16.jpg style=""width:8cm; height:5.8cm;""><p style='font-size: 30px; color: red;'><strong>Incorrect!</strong></p><p style='font-size: 30px;'><strong>This rock is pegmatite</strong></p>","0","corr_feedback","1","train","40","","","","","","","",""
"","","","","","","","","","","","html-button-response","185","2.0.0","371752","671c8f6c5e23f895f7fa8bae","1","48","2424","","","","","","","","","<img src= ""rock_img/I_Basalt_09.jpg"" style=""width:8cm; height:6.2cm;""><p>What type of rock is this?</p>","1","class_response","1","train","41","Basalt","Basalt","09","true","2","2","",""
"","","","","","","","","","","","html-button-response","186","2.0.0","372587","671c8f6c5e23f895f7fa8bae","1","48","831","","","","","","","","","<img src= rock_img/I_Basalt_09.jpg style=""width:8cm; height:6.2cm;""><p style='font-size: 30px; color: green;'><strong>Correct!</strong></p><p style='font-size: 30px;'><strong>This rock is basalt</strong></p>","0","corr_feedback","1","train","41","","","","","","","",""
"","","","","","","","","","","","html-button-response","187","2.0.0","373896","671c8f6c5e23f895f7fa8bae","1","48","1306","","","","","","","","","<img src= ""rock_img/I_Basalt_02.jpg"" style=""width:8cm; height:6.45cm;""><p>What type of rock is this?</p>","1","class_response","1","train","42","Basalt","Basalt","02","true","2","2","",""
"","","","","","","","","","","","html-button-response","188","2.0.0","375061","671c8f6c5e23f895f7fa8bae","1","48","1160","","","","","","","","","<img src= rock_img/I_Basalt_02.jpg style=""width:8cm; height:6.45cm;""><p style='font-size: 30px; color: green;'><strong>Correct!</strong></p><p style='font-size: 30px;'><strong>This rock is basalt</strong></p>","0","corr_feedback","1","train","42","","","","","","","",""
"","","","","","","","","","","","html-button-response","189","2.0.0","377202","671c8f6c5e23f895f7fa8bae","1","48","2138","","","","","","","","","<img src= ""rock_img/I_Pegmatite_03.jpg"" style=""width:8cm; height:5.239999999999999cm;""><p>What type of rock is this?</p>","6","class_response","1","train","43","Peridotite","Pegmatite","03","false","7","6","",""
"","","","","","","","","","","","html-button-response","190","2.0.0","377934","671c8f6c5e23f895f7fa8bae","1","48","729","","","","","","","","","<img src= rock_img/I_Pegmatite_03.jpg style=""width:8cm; height:5.239999999999999cm;""><p style='font-size: 30px; color: red;'><strong>Incorrect!</strong></p><p style='font-size: 30px;'><strong>This rock is pegmatite</strong></p>","0","corr_feedback","1","train","43","","","","","","","",""
"","","","","","","","","","","","html-button-response","191","2.0.0","380176","671c8f6c5e23f895f7fa8bae","1","48","2238","","","","","","","","","<img src= ""rock_img/I_Peridotite_13.jpg"" style=""width:8cm; height:7.58cm;""><p>What type of rock is this?</p>","6","class_response","1","train","44","Peridotite","Peridotite","13","true","7","7","",""
"","","","","","","","","","","","html-button-response","192","2.0.0","380916","671c8f6c5e23f895f7fa8bae","1","48","737","","","","","","","","","<img src= rock_img/I_Peridotite_13.jpg style=""width:8cm; height:7.58cm;""><p style='font-size: 30px; color: green;'><strong>Correct!</strong></p><p style='font-size: 30px;'><strong>This rock is peridotite</strong></p>","0","corr_feedback","1","train","44","","","","","","","",""
"","","","","","","","","","","","html-button-response","193","2.0.0","384217","671c8f6c5e23f895f7fa8bae","1","48","3297","","","","","","","","","<img src= ""rock_img/I_Gabbro_01.jpg"" style=""width:8cm; height:5.21cm;""><p>What type of rock is this?</p>","2","class_response","1","train","45","Diorite","Gabbro","01","false","3","4","",""
"","","","","","","","","","","","html-button-response","194","2.0.0","385106","671c8f6c5e23f895f7fa8bae","1","48","887","","","","","","","","","<img src= rock_img/I_Gabbro_01.jpg style=""width:8cm; height:5.21cm;""><p style='font-size: 30px; color: red;'><strong>Incorrect!</strong></p><p style='font-size: 30px;'><strong>This rock is gabbro</strong></p>","0","corr_feedback","1","train","45","","","","","","","",""
"","","","","","","","","","","","html-button-response","195","2.0.0","386606","671c8f6c5e23f895f7fa8bae","1","48","1496","","","","","","","","","<img src= ""rock_img/I_Obsidian_16.jpg"" style=""width:8cm; height:9.3cm;""><p>What type of rock is this?</p>","4","class_response","1","train","46","Obsidian","Obsidian","16","true","5","5","",""
"","","","","","","","","","","","html-button-response","196","2.0.0","387727","671c8f6c5e23f895f7fa8bae","1","48","1118","","","","","","","","","<img src= rock_img/I_Obsidian_16.jpg style=""width:8cm; height:9.3cm;""><p style='font-size: 30px; color: green;'><strong>Correct!</strong></p><p style='font-size: 30px;'><strong>This rock is obsidian</strong></p>","0","corr_feedback","1","train","46","","","","","","","",""
"","","","","","","","","","","","html-button-response","197","2.0.0","389381","671c8f6c5e23f895f7fa8bae","1","48","1651","","","","","","","","","<img src= ""rock_img/I_Peridotite_04.jpg"" style=""width:8cm; height:6.680000000000001cm;""><p>What type of rock is this?</p>","6","class_response","1","train","47","Peridotite","Peridotite","04","true","7","7","",""
"","","","","","","","","","","","html-button-response","198","2.0.0","390541","671c8f6c5e23f895f7fa8bae","1","48","1156","","","","","","","","","<img src= rock_img/I_Peridotite_04.jpg style=""width:8cm; height:6.680000000000001cm;""><p style='font-size: 30px; color: green;'><strong>Correct!</strong></p><p style='font-size: 30px;'><strong>This rock is peridotite</strong></p>","0","corr_feedback","1","train","47","","","","","","","",""
"","","","","","","","","","","","html-button-response","199","2.0.0","392587","671c8f6c5e23f895f7fa8bae","1","48","2042","","","","","","","","","<img src= ""rock_img/I_Diorite_14.jpg"" style=""width:8cm; height:5.71cm;""><p>What type of rock is this?</p>","2","class_response","1","train","48","Diorite","Diorite","14","true","3","3","",""
"","","","","","","","","","","","html-button-response","200","2.0.0","393433","671c8f6c5e23f895f7fa8bae","1","48","844","","","","","","","","","<img src= rock_img/I_Diorite_14.jpg style=""width:8cm; height:5.71cm;""><p style='font-size: 30px; color: green;'><strong>Correct!</strong></p><p style='font-size: 30px;'><strong>This rock is diorite</strong></p>","0","corr_feedback","1","train","48","","","","","","","",""
"","","","","","","","","","","","instructions","203","2.0.0","396783","671c8f6c5e23f895f7fa8bae","1","48","3347","","","","","","","","[{""page_index"":0,""viewing_time"":1535},{""page_index"":1,""viewing_time"":1812}]","","","","","","","","","","","","","",""
"","","","","","","","","","","","html-button-response","204","2.0.0","398589","671c8f6c5e23f895f7fa8bae","1","48","1804","","","","","","","","","","0","start_test","","","","","","","","","","",""
"","","","","","","","","","","","html-button-response","205","2.0.0","400268","671c8f6c5e23f895f7fa8bae","1","48","1675","","","","","","","","","<img src= ""rock_img/I_Pumice_06.jpg"" style=""width:8cm; height:6.9399999999999995cm;""><p>What type of rock is this?</p>","7","class_response","1","test","1","Pumice","Pumice","06","true","8","8","",""
"","","","","","","","","","","","html-keyboard-response","206","2.0.0","400772","671c8f6c5e23f895f7fa8bae","1","48","null","","","","","","","","","<p style='font-size: 30px;'><strong>Okay</strong></p>","null","neutral_feedback","1","test","1","","","","","","","",""
"","","","","","","","","","","","html-button-response","207","2.0.0","402604","671c8f6c5e23f895f7fa8bae","1","48","1828","","","","","","","","","<img src= ""rock_img/I_Pegmatite_09.jpg"" style=""width:8cm; height:4.03cm;""><p>What type of rock is this?</p>","5","class_response","1","test","2","Pegmatite","Pegmatite","09","true","6","6","",""
"","","","","","","","","","","","html-keyboard-response","208","2.0.0","403122","671c8f6c5e23f895f7fa8bae","1","48","null","","","","","","","","","<p style='font-size: 30px;'><strong>Okay</strong></p>","null","neutral_feedback","1","test","2","","","","","","","",""
"","","","","","","","","","","","html-button-response","209","2.0.0","404422","671c8f6c5e23f895f7fa8bae","1","48","1296","","","","","","","","","<img src= ""rock_img/I_Basalt_01.jpg"" style=""width:8cm; height:7.880000000000001cm;""><p>What type of rock is this?</p>","1","class_response","1","test","3","Basalt","Basalt","01","true","2","2","",""
"","","","","","","","","","","","html-keyboard-response","210","2.0.0","404928","671c8f6c5e23f895f7fa8bae","1","48","null","","","","","","","","","<p style='font-size: 30px;'><strong>Okay</strong></p>","null","neutral_feedback","1","test","3","","","","","","","",""
"","","","","","","","","","","","html-button-response","211","2.0.0","406755","671c8f6c5e23f895f7fa8bae","1","48","1825","","","","","","","","","<img src= ""rock_img/I_Gabbro_03.jpg"" style=""width:8cm; height:8.52cm;""><p>What type of rock is this?</p>","2","class_response","1","test","4","Diorite","Gabbro","03","false","3","4","",""
"","","","","","","","","","","","html-keyboard-response","212","2.0.0","407272","671c8f6c5e23f895f7fa8bae","1","48","null","","","","","","","","","<p style='font-size: 30px;'><strong>Okay</strong></p>","null","neutral_feedback","1","test","4","","","","","","","",""
"","","","","","","","","","","","html-button-response","213","2.0.0","408939","671c8f6c5e23f895f7fa8bae","1","48","1664","","","","","","","","","<img src= ""rock_img/I_Peridotite_12.jpg"" style=""width:8cm; height:4.54cm;""><p>What type of rock is this?</p>","6","class_response","1","test","5","Peridotite","Peridotite","12","true","7","7","",""
"","","","","","","","","","","","html-keyboard-response","214","2.0.0","409449","671c8f6c5e23f895f7fa8bae","1","48","null","","","","","","","","","<p style='font-size: 30px;'><strong>Okay</strong></p>","null","neutral_feedback","1","test","5","","","","","","","",""
"","","","","","","","","","","","html-button-response","215","2.0.0","411416","671c8f6c5e23f895f7fa8bae","1","48","1964","","","","","","","","","<img src= ""rock_img/I_Peridotite_06.jpg"" style=""width:8cm; height:7.53cm;""><p>What type of rock is this?</p>","6","class_response","1","test","6","Peridotite","Peridotite","06","true","7","7","",""
"","","","","","","","","","","","html-keyboard-response","216","2.0.0","411925","671c8f6c5e23f895f7fa8bae","1","48","null","","","","","","","","","<p style='font-size: 30px;'><strong>Okay</strong></p>","null","neutral_feedback","1","test","6","","","","","","","",""
"","","","","","","","","","","","html-button-response","217","2.0.0","413565","671c8f6c5e23f895f7fa8bae","1","48","1637","","","","","","","","","<img src= ""rock_img/I_Diorite_12.jpg"" style=""width:8cm; height:4.88cm;""><p>What type of rock is this?</p>","6","class_response","1","test","7","Peridotite","Diorite","12","false","7","3","",""
"","","","","","","","","","","","html-keyboard-response","218","2.0.0","414072","671c8f6c5e23f895f7fa8bae","1","48","null","","","","","","","","","<p style='font-size: 30px;'><strong>Okay</strong></p>","null","neutral_feedback","1","test","7","","","","","","","",""
"","","","","","","","","","","","html-button-response","219","2.0.0","414848","671c8f6c5e23f895f7fa8bae","1","48","774","","","","","","","","","<img src= ""rock_img/I_Diorite_09.jpg"" style=""width:8cm; height:5.27cm;""><p>What type of rock is this?</p>","1","class_response","1","test","8","Basalt","Diorite","09","false","2","3","",""
"","","","","","","","","","","","html-keyboard-response","220","2.0.0","415355","671c8f6c5e23f895f7fa8bae","1","48","null","","","","","","","","","<p style='font-size: 30px;'><strong>Okay</strong></p>","null","neutral_feedback","1","test","8","","","","","","","",""
"","","","","","","","","","","","html-button-response","221","2.0.0","416194","671c8f6c5e23f895f7fa8bae","1","48","836","","","","","","","","","<img src= ""rock_img/I_Peridotite_14.jpg"" style=""width:8cm; height:5.3cm;""><p>What type of rock is this?</p>","2","class_response","1","test","9","Diorite","Peridotite","14","false","3","7","",""
"","","","","","","","","","","","html-keyboard-response","222","2.0.0","416711","671c8f6c5e23f895f7fa8bae","1","48","null","","","","","","","","","<p style='font-size: 30px;'><strong>Okay</strong></p>","null","neutral_feedback","1","test","9","","","","","","","",""
"","","","","","","","","","","","html-button-response","223","2.0.0","418369","671c8f6c5e23f895f7fa8bae","1","48","1662","","","","","","","","","<img src= ""rock_img/I_Pegmatite_06.jpg"" style=""width:8cm; height:5.17cm;""><p>What type of rock is this?</p>","5","class_response","1","test","10","Pegmatite","Pegmatite","06","true","6","6","",""
"","","","","","","","","","","","html-keyboard-response","224","2.0.0","418879","671c8f6c5e23f895f7fa8bae","1","48","null","","","","","","","","","<p style='font-size: 30px;'><strong>Okay</strong></p>","null","neutral_feedback","1","test","10","","","","","","","",""
"","","","","","","","","","","","html-button-response","225","2.0.0","420458","671c8f6c5e23f895f7fa8bae","1","48","1576","","","","","","","","","<img src= ""rock_img/I_Pegmatite_08.jpg"" style=""width:8cm; height:7.68cm;""><p>What type of rock is this?</p>","5","class_response","1","test","11","Pegmatite","Pegmatite","08","true","6","6","",""
"","","","","","","","","","","","html-keyboard-response","226","2.0.0","420972","671c8f6c5e23f895f7fa8bae","1","48","null","","","","","","","","","<p style='font-size: 30px;'><strong>Okay</strong></p>","null","neutral_feedback","1","test","11","","","","","","","",""
"","","","","","","","","","","","html-button-response","227","2.0.0","422339","671c8f6c5e23f895f7fa8bae","1","48","1364","","","","","","","","","<img src= ""rock_img/I_Obsidian_12.jpg"" style=""width:8cm; height:6.53cm;""><p>What type of rock is this?</p>","4","class_response","1","test","12","Obsidian","Obsidian","12","true","5","5","",""
"","","","","","","","","","","","html-keyboard-response","228","2.0.0","422849","671c8f6c5e23f895f7fa8bae","1","48","null","","","","","","","","","<p style='font-size: 30px;'><strong>Okay</strong></p>","null","neutral_feedback","1","test","12","","","","","","","",""
"","","","","","","","","","","","html-button-response","229","2.0.0","424429","671c8f6c5e23f895f7fa8bae","1","48","1577","","","","","","","","","<img src= ""rock_img/I_Gabbro_14.jpg"" style=""width:8cm; height:8.48cm;""><p>What type of rock is this?</p>","2","class_response","1","test","13","Diorite","Gabbro","14","false","3","4","",""
"","","","","","","","","","","","html-keyboard-response","230","2.0.0","424939","671c8f6c5e23f895f7fa8bae","1","48","null","","","","","","","","","<p style='font-size: 30px;'><strong>Okay</strong></p>","null","neutral_feedback","1","test","13","","","","","","","",""
"","","","","","","","","","","","html-button-response","231","2.0.0","428086","671c8f6c5e23f895f7fa8bae","1","48","3145","","","","","","","","","<img src= ""rock_img/I_Diorite_02.jpg"" style=""width:8cm; height:6.27cm;""><p>What type of rock is this?</p>","0","class_response","1","test","14","Andesite","Diorite","02","false","1","3","",""
"","","","","","","","","","","","html-keyboard-response","232","2.0.0","428590","671c8f6c5e23f895f7fa8bae","1","48","null","","","","","","","","","<p style='font-size: 30px;'><strong>Okay</strong></p>","null","neutral_feedback","1","test","14","","","","","","","",""
"","","","","","","","","","","","html-button-response","233","2.0.0","429922","671c8f6c5e23f895f7fa8bae","1","48","1330","","","","","","","","","<img src= ""rock_img/I_Pumice_15.jpg"" style=""width:8cm; height:7.86cm;""><p>What type of rock is this?</p>","7","class_response","1","test","15","Pumice","Pumice","15","true","8","8","",""
"","","","","","","","","","","","html-keyboard-response","234","2.0.0","430427","671c8f6c5e23f895f7fa8bae","1","48","null","","","","","","","","","<p style='font-size: 30px;'><strong>Okay</strong></p>","null","neutral_feedback","1","test","15","","","","","","","",""
"","","","","","","","","","","","html-button-response","235","2.0.0","431982","671c8f6c5e23f895f7fa8bae","1","48","1553","","","","","","","","","<img src= ""rock_img/I_Basalt_06.jpg"" style=""width:8cm; height:7.06cm;""><p>What type of rock is this?</p>","1","class_response","1","test","16","Basalt","Basalt","06","true","2","2","",""
"","","","","","","","","","","","html-keyboard-response","236","2.0.0","432488","671c8f6c5e23f895f7fa8bae","1","48","null","","","","","","","","","<p style='font-size: 30px;'><strong>Okay</strong></p>","null","neutral_feedback","1","test","16","","","","","","","",""
"","","","","","","","","","","","html-button-response","237","2.0.0","434422","671c8f6c5e23f895f7fa8bae","1","48","1931","","","","","","","","","<img src= ""rock_img/I_Andesite_02.jpg"" style=""width:8cm; height:8.5cm;""><p>What type of rock is this?</p>","2","class_response","1","test","17","Diorite","Andesite","02","false","3","1","",""
"","","","","","","","","","","","html-keyboard-response","238","2.0.0","434937","671c8f6c5e23f895f7fa8bae","1","48","null","","","","","","","","","<p style='font-size: 30px;'><strong>Okay</strong></p>","null","neutral_feedback","1","test","17","","","","","","","",""
"","","","","","","","","","","","html-button-response","239","2.0.0","436422","671c8f6c5e23f895f7fa8bae","1","48","1483","","","","","","","","","<img src= ""rock_img/I_Pumice_13.jpg"" style=""width:8cm; height:8.200000000000001cm;""><p>What type of rock is this?</p>","7","class_response","1","test","18","Pumice","Pumice","13","true","8","8","",""
"","","","","","","","","","","","html-keyboard-response","240","2.0.0","436929","671c8f6c5e23f895f7fa8bae","1","48","null","","","","","","","","","<p style='font-size: 30px;'><strong>Okay</strong></p>","null","neutral_feedback","1","test","18","","","","","","","",""
"","","","","","","","","","","","html-button-response","241","2.0.0","438315","671c8f6c5e23f895f7fa8bae","1","48","1384","","","","","","","","","<img src= ""rock_img/I_Obsidian_07.jpg"" style=""width:8cm; height:4.76cm;""><p>What type of rock is this?</p>","4","class_response","1","test","19","Obsidian","Obsidian","07","true","5","5","",""
"","","","","","","","","","","","html-keyboard-response","242","2.0.0","438822","671c8f6c5e23f895f7fa8bae","1","48","null","","","","","","","","","<p style='font-size: 30px;'><strong>Okay</strong></p>","null","neutral_feedback","1","test","19","","","","","","","",""
"","","","","","","","","","","","html-button-response","243","2.0.0","440169","671c8f6c5e23f895f7fa8bae","1","48","1343","","","","","","","","","<img src= ""rock_img/I_Peridotite_16.jpg"" style=""width:8cm; height:6.989999999999999cm;""><p>What type of rock is this?</p>","6","class_response","1","test","20","Peridotite","Peridotite","16","true","7","7","",""
"","","","","","","","","","","","html-keyboard-response","244","2.0.0","440671","671c8f6c5e23f895f7fa8bae","1","48","null","","","","","","","","","<p style='font-size: 30px;'><strong>Okay</strong></p>","null","neutral_feedback","1","test","20","","","","","","","",""
"","","","","","","","","","","","html-button-response","245","2.0.0","442315","671c8f6c5e23f895f7fa8bae","1","48","1641","","","","","","","","","<img src= ""rock_img/I_Andesite_10.jpg"" style=""width:8cm; height:4.16cm;""><p>What type of rock is this?</p>","1","class_response","1","test","21","Basalt","Andesite","10","false","2","1","",""
"","","","","","","","","","","","html-keyboard-response","246","2.0.0","442819","671c8f6c5e23f895f7fa8bae","1","48","null","","","","","","","","","<p style='font-size: 30px;'><strong>Okay</strong></p>","null","neutral_feedback","1","test","21","","","","","","","",""
"","","","","","","","","","","","html-button-response","247","2.0.0","444939","671c8f6c5e23f895f7fa8bae","1","48","2118","","","","","","","","","<img src= ""rock_img/I_Peridotite_15.jpg"" style=""width:8cm; height:6cm;""><p>What type of rock is this?</p>","6","class_response","1","test","22","Peridotite","Peridotite","15","true","7","7","",""
"","","","","","","","","","","","html-keyboard-response","248","2.0.0","445446","671c8f6c5e23f895f7fa8bae","1","48","null","","","","","","","","","<p style='font-size: 30px;'><strong>Okay</strong></p>","null","neutral_feedback","1","test","22","","","","","","","",""
"","","","","","","","","","","","html-button-response","249","2.0.0","447376","671c8f6c5e23f895f7fa8bae","1","48","1927","","","","","","","","","<img src= ""rock_img/I_Obsidian_08.jpg"" style=""width:8cm; height:7.39cm;""><p>What type of rock is this?</p>","4","class_response","1","test","23","Obsidian","Obsidian","08","true","5","5","",""
"","","","","","","","","","","","html-keyboard-response","250","2.0.0","447888","671c8f6c5e23f895f7fa8bae","1","48","null","","","","","","","","","<p style='font-size: 30px;'><strong>Okay</strong></p>","null","neutral_feedback","1","test","23","","","","","","","",""
"","","","","","","","","","","","html-button-response","251","2.0.0","449887","671c8f6c5e23f895f7fa8bae","1","48","1996","","","","","","","","","<img src= ""rock_img/I_Basalt_12.jpg"" style=""width:8cm; height:6.010000000000001cm;""><p>What type of rock is this?</p>","1","class_response","1","test","24","Basalt","Basalt","12","true","2","2","",""
"","","","","","","","","","","","html-keyboard-response","252","2.0.0","450391","671c8f6c5e23f895f7fa8bae","1","48","null","","","","","","","","","<p style='font-size: 30px;'><strong>Okay</strong></p>","null","neutral_feedback","1","test","24","","","","","","","",""
"","","","","","","","","","","","html-button-response","253","2.0.0","452256","671c8f6c5e23f895f7fa8bae","1","48","1863","","","","","","","","","<img src= ""rock_img/I_Pumice_02.jpg"" style=""width:8cm; height:7.3999999999999995cm;""><p>What type of rock is this?</p>","7","class_response","1","test","25","Pumice","Pumice","02","true","8","8","",""
"","","","","","","","","","","","html-keyboard-response","254","2.0.0","452766","671c8f6c5e23f895f7fa8bae","1","48","null","","","","","","","","","<p style='font-size: 30px;'><strong>Okay</strong></p>","null","neutral_feedback","1","test","25","","","","","","","",""
"","","","","","","","","","","","html-button-response","255","2.0.0","454300","671c8f6c5e23f895f7fa8bae","1","48","1532","","","","","","","","","<img src= ""rock_img/I_Basalt_11.jpg"" style=""width:8cm; height:5.359999999999999cm;""><p>What type of rock is this?</p>","1","class_response","1","test","26","Basalt","Basalt","11","true","2","2","",""
"","","","","","","","","","","","html-keyboard-response","256","2.0.0","454810","671c8f6c5e23f895f7fa8bae","1","48","null","","","","","","","","","<p style='font-size: 30px;'><strong>Okay</strong></p>","null","neutral_feedback","1","test","26","","","","","","","",""
"","","","","","","","","","","","html-button-response","257","2.0.0","456543","671c8f6c5e23f895f7fa8bae","1","48","1728","","","","","","","","","<img src= ""rock_img/I_Obsidian_02.jpg"" style=""width:8cm; height:7.51cm;""><p>What type of rock is this?</p>","4","class_response","1","test","27","Obsidian","Obsidian","02","true","5","5","",""
"","","","","","","","","","","","html-keyboard-response","258","2.0.0","457049","671c8f6c5e23f895f7fa8bae","1","48","null","","","","","","","","","<p style='font-size: 30px;'><strong>Okay</strong></p>","null","neutral_feedback","1","test","27","","","","","","","",""
"","","","","","","","","","","","html-button-response","259","2.0.0","459147","671c8f6c5e23f895f7fa8bae","1","48","2096","","","","","","","","","<img src= ""rock_img/I_Andesite_09.jpg"" style=""width:8cm; height:6cm;""><p>What type of rock is this?</p>","2","class_response","1","test","28","Diorite","Andesite","09","false","3","1","",""
"","","","","","","","","","","","html-keyboard-response","260","2.0.0","459656","671c8f6c5e23f895f7fa8bae","1","48","null","","","","","","","","","<p style='font-size: 30px;'><strong>Okay</strong></p>","null","neutral_feedback","1","test","28","","","","","","","",""
"","","","","","","","","","","","html-button-response","261","2.0.0","461284","671c8f6c5e23f895f7fa8bae","1","48","1625","","","","","","","","","<img src= ""rock_img/I_Obsidian_06.jpg"" style=""width:8cm; height:6.8cm;""><p>What type of rock is this?</p>","4","class_response","1","test","29","Obsidian","Obsidian","06","true","5","5","",""
"","","","","","","","","","","","html-keyboard-response","262","2.0.0","461792","671c8f6c5e23f895f7fa8bae","1","48","null","","","","","","","","","<p style='font-size: 30px;'><strong>Okay</strong></p>","null","neutral_feedback","1","test","29","","","","","","","",""
"","","","","","","","","","","","html-button-response","263","2.0.0","463333","671c8f6c5e23f895f7fa8bae","1","48","1539","","","","","","","","","<img src= ""rock_img/I_Diorite_15.jpg"" style=""width:8cm; height:5.54cm;""><p>What type of rock is this?</p>","7","class_response","1","test","30","Pumice","Diorite","15","false","8","3","",""
"","","","","","","","","","","","html-keyboard-response","264","2.0.0","463842","671c8f6c5e23f895f7fa8bae","1","48","null","","","","","","","","","<p style='font-size: 30px;'><strong>Okay</strong></p>","null","neutral_feedback","1","test","30","","","","","","","",""
"","","","","","","","","","","","html-button-response","265","2.0.0","465312","671c8f6c5e23f895f7fa8bae","1","48","1467","","","","","","","","","<img src= ""rock_img/I_Andesite_03.jpg"" style=""width:8cm; height:5.73cm;""><p>What type of rock is this?</p>","2","class_response","1","test","31","Diorite","Andesite","03","false","3","1","",""
"","","","","","","","","","","","html-keyboard-response","266","2.0.0","465829","671c8f6c5e23f895f7fa8bae","1","48","null","","","","","","","","","<p style='font-size: 30px;'><strong>Okay</strong></p>","null","neutral_feedback","1","test","31","","","","","","","",""
"","","","","","","","","","","","html-button-response","267","2.0.0","468815","671c8f6c5e23f895f7fa8bae","1","48","2983","","","","","","","","","<img src= ""rock_img/I_Pegmatite_15.jpg"" style=""width:8cm; height:6cm;""><p>What type of rock is this?</p>","5","class_response","1","test","32","Pegmatite","Pegmatite","15","true","6","6","",""
"","","","","","","","","","","","html-keyboard-response","268","2.0.0","469323","671c8f6c5e23f895f7fa8bae","1","48","null","","","","","","","","","<p style='font-size: 30px;'><strong>Okay</strong></p>","null","neutral_feedback","1","test","32","","","","","","","",""
"","","","","","","","","","","","html-button-response","269","2.0.0","470600","671c8f6c5e23f895f7fa8bae","1","48","1275","","","","","","","","","<img src= ""rock_img/I_Pegmatite_05.jpg"" style=""width:8cm; height:7.300000000000001cm;""><p>What type of rock is this?</p>","5","class_response","1","test","33","Pegmatite","Pegmatite","05","true","6","6","",""
"","","","","","","","","","","","html-keyboard-response","270","2.0.0","471105","671c8f6c5e23f895f7fa8bae","1","48","null","","","","","","","","","<p style='font-size: 30px;'><strong>Okay</strong></p>","null","neutral_feedback","1","test","33","","","","","","","",""
"","","","","","","","","","","","html-button-response","271","2.0.0","472421","671c8f6c5e23f895f7fa8bae","1","48","1311","","","","","","","","","<img src= ""rock_img/I_Pumice_09.jpg"" style=""width:8cm; height:6.44cm;""><p>What type of rock is this?</p>","7","class_response","1","test","34","Pumice","Pumice","09","true","8","8","",""
"","","","","","","","","","","","html-keyboard-response","272","2.0.0","472924","671c8f6c5e23f895f7fa8bae","1","48","null","","","","","","","","","<p style='font-size: 30px;'><strong>Okay</strong></p>","null","neutral_feedback","1","test","34","","","","","","","",""
"","","","","","","","","","","","html-button-response","273","2.0.0","474451","671c8f6c5e23f895f7fa8bae","1","48","1524","","","","","","","","","<img src= ""rock_img/I_Peridotite_05.jpg"" style=""width:8cm; height:7.1499999999999995cm;""><p>What type of rock is this?</p>","6","class_response","1","test","35","Peridotite","Peridotite","05","true","7","7","",""
"","","","","","","","","","","","html-keyboard-response","274","2.0.0","474965","671c8f6c5e23f895f7fa8bae","1","48","null","","","","","","","","","<p style='font-size: 30px;'><strong>Okay</strong></p>","null","neutral_feedback","1","test","35","","","","","","","",""
"","","","","","","","","","","","html-button-response","275","2.0.0","476716","671c8f6c5e23f895f7fa8bae","1","48","1748","","","","","","","","","<img src= ""rock_img/I_Gabbro_08.jpg"" style=""width:8cm; height:5.15cm;""><p>What type of rock is this?</p>","6","class_response","1","test","36","Peridotite","Gabbro","08","false","7","4","",""
"","","","","","","","","","","","html-keyboard-response","276","2.0.0","477237","671c8f6c5e23f895f7fa8bae","1","48","null","","","","","","","","","<p style='font-size: 30px;'><strong>Okay</strong></p>","null","neutral_feedback","1","test","36","","","","","","","",""
"","","","","","","","","","","","html-button-response","277","2.0.0","478591","671c8f6c5e23f895f7fa8bae","1","48","1352","","","","","","","","","<img src= ""rock_img/I_Obsidian_11.jpg"" style=""width:8cm; height:6.05cm;""><p>What type of rock is this?</p>","4","class_response","1","test","37","Obsidian","Obsidian","11","true","5","5","",""
"","","","","","","","","","","","html-keyboard-response","278","2.0.0","479095","671c8f6c5e23f895f7fa8bae","1","48","null","","","","","","","","","<p style='font-size: 30px;'><strong>Okay</strong></p>","null","neutral_feedback","1","test","37","","","","","","","",""
"","","","","","","","","","","","html-button-response","279","2.0.0","480792","671c8f6c5e23f895f7fa8bae","1","48","1695","","","","","","","","","<img src= ""rock_img/I_Gabbro_11.jpg"" style=""width:8cm; height:6.2cm;""><p>What type of rock is this?</p>","1","class_response","1","test","38","Basalt","Gabbro","11","false","2","4","",""
"","","","","","","","","","","","html-keyboard-response","280","2.0.0","481308","671c8f6c5e23f895f7fa8bae","1","48","null","","","","","","","","","<p style='font-size: 30px;'><strong>Okay</strong></p>","null","neutral_feedback","1","test","38","","","","","","","",""
"","","","","","","","","","","","html-button-response","281","2.0.0","483567","671c8f6c5e23f895f7fa8bae","1","48","2256","","","","","","","","","<img src= ""rock_img/I_Diorite_13.jpg"" style=""width:8cm; height:6.29cm;""><p>What type of rock is this?</p>","6","class_response","1","test","39","Peridotite","Diorite","13","false","7","3","",""
"","","","","","","","","","","","html-keyboard-response","282","2.0.0","484070","671c8f6c5e23f895f7fa8bae","1","48","null","","","","","","","","","<p style='font-size: 30px;'><strong>Okay</strong></p>","null","neutral_feedback","1","test","39","","","","","","","",""
"","","","","","","","","","","","html-button-response","283","2.0.0","485068","671c8f6c5e23f895f7fa8bae","1","48","995","","","","","","","","","<img src= ""rock_img/I_Gabbro_05.jpg"" style=""width:8cm; height:6cm;""><p>What type of rock is this?</p>","6","class_response","1","test","40","Peridotite","Gabbro","05","false","7","4","",""
"","","","","","","","","","","","html-keyboard-response","284","2.0.0","485577","671c8f6c5e23f895f7fa8bae","1","48","null","","","","","","","","","<p style='font-size: 30px;'><strong>Okay</strong></p>","null","neutral_feedback","1","test","40","","","","","","","",""
"","","","","","","","","","","","html-button-response","285","2.0.0","487107","671c8f6c5e23f895f7fa8bae","1","48","1529","","","","","","","","","<img src= ""rock_img/I_Gabbro_16.jpg"" style=""width:8cm; height:6.44cm;""><p>What type of rock is this?</p>","1","class_response","1","test","41","Basalt","Gabbro","16","false","2","4","",""
"","","","","","","","","","","","html-keyboard-response","286","2.0.0","487626","671c8f6c5e23f895f7fa8bae","1","48","null","","","","","","","","","<p style='font-size: 30px;'><strong>Okay</strong></p>","null","neutral_feedback","1","test","41","","","","","","","",""
"","","","","","","","","","","","html-button-response","287","2.0.0","489414","671c8f6c5e23f895f7fa8bae","1","48","1784","","","","","","","","","<img src= ""rock_img/I_Andesite_05.jpg"" style=""width:8cm; height:4.12cm;""><p>What type of rock is this?</p>","2","class_response","1","test","42","Diorite","Andesite","05","false","3","1","",""
"","","","","","","","","","","","html-keyboard-response","288","2.0.0","489920","671c8f6c5e23f895f7fa8bae","1","48","null","","","","","","","","","<p style='font-size: 30px;'><strong>Okay</strong></p>","null","neutral_feedback","1","test","42","","","","","","","",""
"","","","","","","","","","","","html-button-response","289","2.0.0","491288","671c8f6c5e23f895f7fa8bae","1","48","1366","","","","","","","","","<img src= ""rock_img/I_Basalt_04.jpg"" style=""width:8cm; height:7.53cm;""><p>What type of rock is this?</p>","1","class_response","1","test","43","Basalt","Basalt","04","true","2","2","",""
"","","","","","","","","","","","html-keyboard-response","290","2.0.0","491799","671c8f6c5e23f895f7fa8bae","1","48","null","","","","","","","","","<p style='font-size: 30px;'><strong>Okay</strong></p>","null","neutral_feedback","1","test","43","","","","","","","",""
"","","","","","","","","","","","html-button-response","291","2.0.0","492946","671c8f6c5e23f895f7fa8bae","1","48","1143","","","","","","","","","<img src= ""rock_img/I_Diorite_10.jpg"" style=""width:8cm; height:5.949999999999999cm;""><p>What type of rock is this?</p>","1","class_response","1","test","44","Basalt","Diorite","10","false","2","3","",""
"","","","","","","","","","","","html-keyboard-response","292","2.0.0","493455","671c8f6c5e23f895f7fa8bae","1","48","null","","","","","","","","","<p style='font-size: 30px;'><strong>Okay</strong></p>","null","neutral_feedback","1","test","44","","","","","","","",""
"","","","","","","","","","","","html-button-response","293","2.0.0","495642","671c8f6c5e23f895f7fa8bae","1","48","2186","","","","","","","","","<img src= ""rock_img/I_Andesite_04.jpg"" style=""width:8cm; height:5.96cm;""><p>What type of rock is this?</p>","0","class_response","1","test","45","Andesite","Andesite","04","true","1","1","",""
"","","","","","","","","","","","html-keyboard-response","294","2.0.0","496150","671c8f6c5e23f895f7fa8bae","1","48","null","","","","","","","","","<p style='font-size: 30px;'><strong>Okay</strong></p>","null","neutral_feedback","1","test","45","","","","","","","",""
"","","","","","","","","","","","html-button-response","295","2.0.0","498709","671c8f6c5e23f895f7fa8bae","1","48","2556","","","","","","","","","<img src= ""rock_img/I_Pumice_05.jpg"" style=""width:8cm; height:7.25cm;""><p>What type of rock is this?</p>","7","class_response","1","test","46","Pumice","Pumice","05","true","8","8","",""
"","","","","","","","","","","","html-keyboard-response","296","2.0.0","499218","671c8f6c5e23f895f7fa8bae","1","48","null","","","","","","","","","<p style='font-size: 30px;'><strong>Okay</strong></p>","null","neutral_feedback","1","test","46","","","","","","","",""
"","","","","","","","","","","","html-button-response","297","2.0.0","500426","671c8f6c5e23f895f7fa8bae","1","48","1205","","","","","","","","","<img src= ""rock_img/I_Pegmatite_13.jpg"" style=""width:8cm; height:4.95cm;""><p>What type of rock is this?</p>","5","class_response","1","test","47","Pegmatite","Pegmatite","13","true","6","6","",""
"","","","","","","","","","","","html-keyboard-response","298","2.0.0","500931","671c8f6c5e23f895f7fa8bae","1","48","null","","","","","","","","","<p style='font-size: 30px;'><strong>Okay</strong></p>","null","neutral_feedback","1","test","47","","","","","","","",""
"","","","","","","","","","","","html-button-response","299","2.0.0","502607","671c8f6c5e23f895f7fa8bae","1","48","1673","","","","","","","","","<img src= ""rock_img/I_Basalt_14.jpg"" style=""width:8cm; height:5.82cm;""><p>What type of rock is this?</p>","6","class_response","1","test","48","Peridotite","Basalt","14","false","7","2","",""
"","","","","","","","","","","","html-keyboard-response","300","2.0.0","503116","671c8f6c5e23f895f7fa8bae","1","48","null","","","","","","","","","<p style='font-size: 30px;'><strong>Okay</strong></p>","null","neutral_feedback","1","test","48","","","","","","","",""
"","","","","","","","","","","","html-button-response","301","2.0.0","527413","671c8f6c5e23f895f7fa8bae","1","48","","","","","","","","","","","","cycle_feedback","","","","","","","","","","10117.799999952316","14162.399999976158"
"","","","","","","","","","","","html-button-response","303","2.0.0","529179","671c8f6c5e23f895f7fa8bae","1","48","1762","","","","","","","","","","0","start_train","","","","","","","","","","",""
"","","","","","","","","","","","html-button-response","304","2.0.0","530904","671c8f6c5e23f895f7fa8bae","1","48","1722","","","","","","","","","<img src= ""rock_img/I_Gabbro_13.jpg"" style=""width:8cm; height:5.08cm;""><p>What type of rock is this?</p>","3","class_response","2","train","1","Gabbro","Gabbro","13","true","4","4","",""
