"width","height","webaudio","browser","browser_version","mobile","os","fullscreen","vsync_rate","webcam","microphone","trial_type","trial_index","plugin_version","time_elapsed","subjID","condition","stimID","rt","url","success","value","timeout","failed_images","failed_audio","failed_video","view_history","stimulus","response","trialType","cycle","phase","trial","resp","cat","token","corr","resp_num","cat_num","time_fb1","time_fb2"
"650","598","true","chrome","131.0.0","false","Windows 10","true","61.07","true","true","browser-check","0","2.0.0","992","66c30da59470c6be1190450b","1","52","","","","","","","","","","","","","","","","","","","","","","",""
"","","","","","","","","","","","external-html","1","2.0.0","12110","66c30da59470c6be1190450b","1","52","10744","consent_form.html","","","","","","","","","","","","","","","","","","","","",""
"","","","","","","","","","","","fullscreen","2","2.0.0","16319","66c30da59470c6be1190450b","1","52","3188","","true","","","","","","","","","","","","","","","","","","","",""
"","","","","","","","","","","","call-function","3","2.0.0","16320","66c30da59470c6be1190450b","1","52","","","","{}","","","","","","","","","","","","","","","","","","",""
"","","","","","","","","","","","preload","4","2.0.0","32144","66c30da59470c6be1190450b","1","52","","","true","","false","[]","[]","[]","","","","","","","","","","","","","","",""
"","","","","","","","","","","","instructions","5","2.0.0","106462","66c30da59470c6be1190450b","1","52","74316","","","","","","","","[{""page_index"":0,""viewing_time"":12873},{""page_index"":1,""viewing_time"":38081},{""page_index"":2,""viewing_time"":23361}]","","","","","","","","","","","","","",""
"","","","","","","","","","","","html-button-response","6","2.0.0","111941","66c30da59470c6be1190450b","1","52","5476","","","","","","","","","","0","start_test","","","","","","","","","","",""
"","","","","","","","","","","","html-button-response","7","2.0.0","120651","66c30da59470c6be1190450b","1","52","8705","","","","","","","","","<img src= ""rock_img/I_Diorite_08.jpg"" style=""width:8cm; height:6.37cm;""><p>What type of rock is this?</p>","4","class_response","0","test","1","Obsidian","Diorite","08","false","5","3","",""
"","","","","","","","","","","","html-keyboard-response","8","2.0.0","121163","66c30da59470c6be1190450b","1","52","null","","","","","","","","","<p style='font-size: 30px;'><strong>Okay</strong></p>","null","neutral_feedback","0","test","1","","","","","","","",""
"","","","","","","","","","","","html-button-response","9","2.0.0","124942","66c30da59470c6be1190450b","1","52","3775","","","","","","","","","<img src= ""rock_img/I_Obsidian_02.jpg"" style=""width:8cm; height:7.51cm;""><p>What type of rock is this?</p>","1","class_response","0","test","2","Basalt","Obsidian","02","false","2","5","",""
"","","","","","","","","","","","html-keyboard-response","10","2.0.0","125454","66c30da59470c6be1190450b","1","52","null","","","","","","","","","<p style='font-size: 30px;'><strong>Okay</strong></p>","null","neutral_feedback","0","test","2","","","","","","","",""
"","","","","","","","","","","","html-button-response","11","2.0.0","130996","66c30da59470c6be1190450b","1","52","5537","","","","","","","","","<img src= ""rock_img/I_Pumice_03.jpg"" style=""width:8cm; height:6.64cm;""><p>What type of rock is this?</p>","7","class_response","0","test","3","Pumice","Pumice","03","true","8","8","",""
"","","","","","","","","","","","html-keyboard-response","12","2.0.0","131504","66c30da59470c6be1190450b","1","52","null","","","","","","","","","<p style='font-size: 30px;'><strong>Okay</strong></p>","null","neutral_feedback","0","test","3","","","","","","","",""
"","","","","","","","","","","","html-button-response","13","2.0.0","134764","66c30da59470c6be1190450b","1","52","3257","","","","","","","","","<img src= ""rock_img/I_Basalt_11.jpg"" style=""width:8cm; height:5.359999999999999cm;""><p>What type of rock is this?</p>","0","class_response","0","test","4","Andesite","Basalt","11","false","1","2","",""
"","","","","","","","","","","","html-keyboard-response","14","2.0.0","135268","66c30da59470c6be1190450b","1","52","null","","","","","","","","","<p style='font-size: 30px;'><strong>Okay</strong></p>","null","neutral_feedback","0","test","4","","","","","","","",""
"","","","","","","","","","","","html-button-response","15","2.0.0","142714","66c30da59470c6be1190450b","1","52","7444","","","","","","","","","<img src= ""rock_img/I_Pumice_14.jpg"" style=""width:8cm; height:6.39cm;""><p>What type of rock is this?</p>","2","class_response","0","test","5","Diorite","Pumice","14","false","3","8","",""
"","","","","","","","","","","","html-keyboard-response","16","2.0.0","143226","66c30da59470c6be1190450b","1","52","null","","","","","","","","","<p style='font-size: 30px;'><strong>Okay</strong></p>","null","neutral_feedback","0","test","5","","","","","","","",""
"","","","","","","","","","","","html-button-response","17","2.0.0","147181","66c30da59470c6be1190450b","1","52","3952","","","","","","","","","<img src= ""rock_img/I_Obsidian_04.jpg"" style=""width:8cm; height:6.930000000000001cm;""><p>What type of rock is this?</p>","4","class_response","0","test","6","Obsidian","Obsidian","04","true","5","5","",""
"","","","","","","","","","","","html-keyboard-response","18","2.0.0","147688","66c30da59470c6be1190450b","1","52","null","","","","","","","","","<p style='font-size: 30px;'><strong>Okay</strong></p>","null","neutral_feedback","0","test","6","","","","","","","",""
"","","","","","","","","","","","html-button-response","19","2.0.0","151534","66c30da59470c6be1190450b","1","52","3843","","","","","","","","","<img src= ""rock_img/I_Pegmatite_08.jpg"" style=""width:8cm; height:7.68cm;""><p>What type of rock is this?</p>","1","class_response","0","test","7","Basalt","Pegmatite","08","false","2","6","",""
"","","","","","","","","","","","html-keyboard-response","20","2.0.0","152046","66c30da59470c6be1190450b","1","52","null","","","","","","","","","<p style='font-size: 30px;'><strong>Okay</strong></p>","null","neutral_feedback","0","test","7","","","","","","","",""
"","","","","","","","","","","","html-button-response","21","2.0.0","155238","66c30da59470c6be1190450b","1","52","3191","","","","","","","","","<img src= ""rock_img/I_Pegmatite_15.jpg"" style=""width:8cm; height:6cm;""><p>What type of rock is this?</p>","3","class_response","0","test","8","Gabbro","Pegmatite","15","false","4","6","",""
"","","","","","","","","","","","html-keyboard-response","22","2.0.0","155753","66c30da59470c6be1190450b","1","52","null","","","","","","","","","<p style='font-size: 30px;'><strong>Okay</strong></p>","null","neutral_feedback","0","test","8","","","","","","","",""
"","","","","","","","","","","","html-button-response","23","2.0.0","159272","66c30da59470c6be1190450b","1","52","3515","","","","","","","","","<img src= ""rock_img/I_Pegmatite_10.jpg"" style=""width:8cm; height:4.16cm;""><p>What type of rock is this?</p>","7","class_response","0","test","9","Pumice","Pegmatite","10","false","8","6","",""
"","","","","","","","","","","","html-keyboard-response","24","2.0.0","159781","66c30da59470c6be1190450b","1","52","null","","","","","","","","","<p style='font-size: 30px;'><strong>Okay</strong></p>","null","neutral_feedback","0","test","9","","","","","","","",""
"","","","","","","","","","","","html-button-response","25","2.0.0","162313","66c30da59470c6be1190450b","1","52","2529","","","","","","","","","<img src= ""rock_img/I_Gabbro_14.jpg"" style=""width:8cm; height:8.48cm;""><p>What type of rock is this?</p>","2","class_response","0","test","10","Diorite","Gabbro","14","false","3","4","",""
"","","","","","","","","","","","html-keyboard-response","26","2.0.0","162822","66c30da59470c6be1190450b","1","52","null","","","","","","","","","<p style='font-size: 30px;'><strong>Okay</strong></p>","null","neutral_feedback","0","test","10","","","","","","","",""
"","","","","","","","","","","","html-button-response","27","2.0.0","167583","66c30da59470c6be1190450b","1","52","4759","","","","","","","","","<img src= ""rock_img/I_Peridotite_08.jpg"" style=""width:8cm; height:6.7cm;""><p>What type of rock is this?</p>","1","class_response","0","test","11","Basalt","Peridotite","08","false","2","7","",""
"","","","","","","","","","","","html-keyboard-response","28","2.0.0","168091","66c30da59470c6be1190450b","1","52","null","","","","","","","","","<p style='font-size: 30px;'><strong>Okay</strong></p>","null","neutral_feedback","0","test","11","","","","","","","",""
"","","","","","","","","","","","html-button-response","29","2.0.0","172170","66c30da59470c6be1190450b","1","52","4076","","","","","","","","","<img src= ""rock_img/I_Diorite_09.jpg"" style=""width:8cm; height:5.27cm;""><p>What type of rock is this?</p>","7","class_response","0","test","12","Pumice","Diorite","09","false","8","3","",""
"","","","","","","","","","","","html-keyboard-response","30","2.0.0","172678","66c30da59470c6be1190450b","1","52","null","","","","","","","","","<p style='font-size: 30px;'><strong>Okay</strong></p>","null","neutral_feedback","0","test","12","","","","","","","",""
"","","","","","","","","","","","html-button-response","31","2.0.0","180182","66c30da59470c6be1190450b","1","52","7501","","","","","","","","","<img src= ""rock_img/I_Basalt_06.jpg"" style=""width:8cm; height:7.06cm;""><p>What type of rock is this?</p>","3","class_response","0","test","13","Gabbro","Basalt","06","false","4","2","",""
"","","","","","","","","","","","html-keyboard-response","32","2.0.0","180685","66c30da59470c6be1190450b","1","52","null","","","","","","","","","<p style='font-size: 30px;'><strong>Okay</strong></p>","null","neutral_feedback","0","test","13","","","","","","","",""
"","","","","","","","","","","","html-button-response","33","2.0.0","184842","66c30da59470c6be1190450b","1","52","4154","","","","","","","","","<img src= ""rock_img/I_Andesite_11.jpg"" style=""width:8cm; height:4.92cm;""><p>What type of rock is this?</p>","1","class_response","0","test","14","Basalt","Andesite","11","false","2","1","",""
"","","","","","","","","","","","html-keyboard-response","34","2.0.0","185351","66c30da59470c6be1190450b","1","52","null","","","","","","","","","<p style='font-size: 30px;'><strong>Okay</strong></p>","null","neutral_feedback","0","test","14","","","","","","","",""
"","","","","","","","","","","","html-button-response","35","2.0.0","188364","66c30da59470c6be1190450b","1","52","3010","","","","","","","","","<img src= ""rock_img/I_Gabbro_05.jpg"" style=""width:8cm; height:6cm;""><p>What type of rock is this?</p>","2","class_response","0","test","15","Diorite","Gabbro","05","false","3","4","",""
"","","","","","","","","","","","html-keyboard-response","36","2.0.0","188872","66c30da59470c6be1190450b","1","52","null","","","","","","","","","<p style='font-size: 30px;'><strong>Okay</strong></p>","null","neutral_feedback","0","test","15","","","","","","","",""
"","","","","","","","","","","","html-button-response","37","2.0.0","190996","66c30da59470c6be1190450b","1","52","2121","","","","","","","","","<img src= ""rock_img/I_Obsidian_08.jpg"" style=""width:8cm; height:7.39cm;""><p>What type of rock is this?</p>","7","class_response","0","test","16","Pumice","Obsidian","08","false","8","5","",""
"","","","","","","","","","","","html-keyboard-response","38","2.0.0","191499","66c30da59470c6be1190450b","1","52","null","","","","","","","","","<p style='font-size: 30px;'><strong>Okay</strong></p>","null","neutral_feedback","0","test","16","","","","","","","",""
"","","","","","","","","","","","html-button-response","39","2.0.0","193644","66c30da59470c6be1190450b","1","52","2142","","","","","","","","","<img src= ""rock_img/I_Diorite_07.jpg"" style=""width:8cm; height:5.239999999999999cm;""><p>What type of rock is this?</p>","0","class_response","0","test","17","Andesite","Diorite","07","false","1","3","",""
"","","","","","","","","","","","html-keyboard-response","40","2.0.0","194154","66c30da59470c6be1190450b","1","52","null","","","","","","","","","<p style='font-size: 30px;'><strong>Okay</strong></p>","null","neutral_feedback","0","test","17","","","","","","","",""
"","","","","","","","","","","","html-button-response","41","2.0.0","214764","66c30da59470c6be1190450b","1","52","20607","","","","","","","","","<img src= ""rock_img/I_Gabbro_16.jpg"" style=""width:8cm; height:6.44cm;""><p>What type of rock is this?</p>","2","class_response","0","test","18","Diorite","Gabbro","16","false","3","4","",""
"","","","","","","","","","","","html-keyboard-response","42","2.0.0","215271","66c30da59470c6be1190450b","1","52","null","","","","","","","","","<p style='font-size: 30px;'><strong>Okay</strong></p>","null","neutral_feedback","0","test","18","","","","","","","",""
"","","","","","","","","","","","html-button-response","43","2.0.0","218082","66c30da59470c6be1190450b","1","52","2807","","","","","","","","","<img src= ""rock_img/I_Peridotite_02.jpg"" style=""width:8cm; height:5.859999999999999cm;""><p>What type of rock is this?</p>","0","class_response","0","test","19","Andesite","Peridotite","02","false","1","7","",""
"","","","","","","","","","","","html-keyboard-response","44","2.0.0","218589","66c30da59470c6be1190450b","1","52","null","","","","","","","","","<p style='font-size: 30px;'><strong>Okay</strong></p>","null","neutral_feedback","0","test","19","","","","","","","",""
"","","","","","","","","","","","html-button-response","45","2.0.0","220594","66c30da59470c6be1190450b","1","52","2002","","","","","","","","","<img src= ""rock_img/I_Diorite_16.jpg"" style=""width:8cm; height:6.74cm;""><p>What type of rock is this?</p>","4","class_response","0","test","20","Obsidian","Diorite","16","false","5","3","",""
"","","","","","","","","","","","html-keyboard-response","46","2.0.0","221103","66c30da59470c6be1190450b","1","52","null","","","","","","","","","<p style='font-size: 30px;'><strong>Okay</strong></p>","null","neutral_feedback","0","test","20","","","","","","","",""
"","","","","","","","","","","","html-button-response","47","2.0.0","223689","66c30da59470c6be1190450b","1","52","2584","","","","","","","","","<img src= ""rock_img/I_Obsidian_14.jpg"" style=""width:8cm; height:7.64cm;""><p>What type of rock is this?</p>","2","class_response","0","test","21","Diorite","Obsidian","14","false","3","5","",""
"","","","","","","","","","","","html-keyboard-response","48","2.0.0","224195","66c30da59470c6be1190450b","1","52","null","","","","","","","","","<p style='font-size: 30px;'><strong>Okay</strong></p>","null","neutral_feedback","0","test","21","","","","","","","",""
"","","","","","","","","","","","html-button-response","49","2.0.0","226335","66c30da59470c6be1190450b","1","52","2137","","","","","","","","","<img src= ""rock_img/I_Peridotite_05.jpg"" style=""width:8cm; height:7.1499999999999995cm;""><p>What type of rock is this?</p>","7","class_response","0","test","22","Pumice","Peridotite","05","false","8","7","",""
"","","","","","","","","","","","html-keyboard-response","50","2.0.0","226843","66c30da59470c6be1190450b","1","52","null","","","","","","","","","<p style='font-size: 30px;'><strong>Okay</strong></p>","null","neutral_feedback","0","test","22","","","","","","","",""
"","","","","","","","","","","","html-button-response","51","2.0.0","230267","66c30da59470c6be1190450b","1","52","3421","","","","","","","","","<img src= ""rock_img/I_Pumice_05.jpg"" style=""width:8cm; height:7.25cm;""><p>What type of rock is this?</p>","2","class_response","0","test","23","Diorite","Pumice","05","false","3","8","",""
"","","","","","","","","","","","html-keyboard-response","52","2.0.0","230779","66c30da59470c6be1190450b","1","52","null","","","","","","","","","<p style='font-size: 30px;'><strong>Okay</strong></p>","null","neutral_feedback","0","test","23","","","","","","","",""
"","","","","","","","","","","","html-button-response","53","2.0.0","234376","66c30da59470c6be1190450b","1","52","3594","","","","","","","","","<img src= ""rock_img/I_Pegmatite_16.jpg"" style=""width:8cm; height:5.8cm;""><p>What type of rock is this?</p>","0","class_response","0","test","24","Andesite","Pegmatite","16","false","1","6","",""
"","","","","","","","","","","","html-keyboard-response","54","2.0.0","234886","66c30da59470c6be1190450b","1","52","null","","","","","","","","","<p style='font-size: 30px;'><strong>Okay</strong></p>","null","neutral_feedback","0","test","24","","","","","","","",""
"","","","","","","","","","","","html-button-response","55","2.0.0","236626","66c30da59470c6be1190450b","1","52","1737","","","","","","","","","<img src= ""rock_img/I_Andesite_02.jpg"" style=""width:8cm; height:8.5cm;""><p>What type of rock is this?</p>","6","class_response","0","test","25","Peridotite","Andesite","02","false","7","1","",""
"","","","","","","","","","","","html-keyboard-response","56","2.0.0","237136","66c30da59470c6be1190450b","1","52","null","","","","","","","","","<p style='font-size: 30px;'><strong>Okay</strong></p>","null","neutral_feedback","0","test","25","","","","","","","",""
"","","","","","","","","","","","html-button-response","57","2.0.0","239179","66c30da59470c6be1190450b","1","52","2040","","","","","","","","","<img src= ""rock_img/I_Andesite_03.jpg"" style=""width:8cm; height:5.73cm;""><p>What type of rock is this?</p>","4","class_response","0","test","26","Obsidian","Andesite","03","false","5","1","",""
"","","","","","","","","","","","html-keyboard-response","58","2.0.0","239682","66c30da59470c6be1190450b","1","52","null","","","","","","","","","<p style='font-size: 30px;'><strong>Okay</strong></p>","null","neutral_feedback","0","test","26","","","","","","","",""
"","","","","","","","","","","","html-button-response","59","2.0.0","241678","66c30da59470c6be1190450b","1","52","1993","","","","","","","","","<img src= ""rock_img/I_Peridotite_15.jpg"" style=""width:8cm; height:6cm;""><p>What type of rock is this?</p>","3","class_response","0","test","27","Gabbro","Peridotite","15","false","4","7","",""
"","","","","","","","","","","","html-keyboard-response","60","2.0.0","242188","66c30da59470c6be1190450b","1","52","null","","","","","","","","","<p style='font-size: 30px;'><strong>Okay</strong></p>","null","neutral_feedback","0","test","27","","","","","","","",""
"","","","","","","","","","","","html-button-response","61","2.0.0","245138","66c30da59470c6be1190450b","1","52","2947","","","","","","","","","<img src= ""rock_img/I_Andesite_04.jpg"" style=""width:8cm; height:5.96cm;""><p>What type of rock is this?</p>","2","class_response","0","test","28","Diorite","Andesite","04","false","3","1","",""
"","","","","","","","","","","","html-keyboard-response","62","2.0.0","245650","66c30da59470c6be1190450b","1","52","null","","","","","","","","","<p style='font-size: 30px;'><strong>Okay</strong></p>","null","neutral_feedback","0","test","28","","","","","","","",""
"","","","","","","","","","","","html-button-response","63","2.0.0","248647","66c30da59470c6be1190450b","1","52","2993","","","","","","","","","<img src= ""rock_img/I_Basalt_01.jpg"" style=""width:8cm; height:7.880000000000001cm;""><p>What type of rock is this?</p>","7","class_response","0","test","29","Pumice","Basalt","01","false","8","2","",""
"","","","","","","","","","","","html-keyboard-response","64","2.0.0","249163","66c30da59470c6be1190450b","1","52","null","","","","","","","","","<p style='font-size: 30px;'><strong>Okay</strong></p>","null","neutral_feedback","0","test","29","","","","","","","",""
"","","","","","","","","","","","html-button-response","65","2.0.0","250821","66c30da59470c6be1190450b","1","52","1656","","","","","","","","","<img src= ""rock_img/I_Peridotite_07.jpg"" style=""width:8cm; height:4.83cm;""><p>What type of rock is this?</p>","0","class_response","0","test","30","Andesite","Peridotite","07","false","1","7","",""
"","","","","","","","","","","","html-keyboard-response","66","2.0.0","251328","66c30da59470c6be1190450b","1","52","null","","","","","","","","","<p style='font-size: 30px;'><strong>Okay</strong></p>","null","neutral_feedback","0","test","30","","","","","","","",""
"","","","","","","","","","","","html-button-response","67","2.0.0","252755","66c30da59470c6be1190450b","1","52","1424","","","","","","","","","<img src= ""rock_img/I_Andesite_16.jpg"" style=""width:8cm; height:6.010000000000001cm;""><p>What type of rock is this?</p>","1","class_response","0","test","31","Basalt","Andesite","16","false","2","1","",""
"","","","","","","","","","","","html-keyboard-response","68","2.0.0","253265","66c30da59470c6be1190450b","1","52","null","","","","","","","","","<p style='font-size: 30px;'><strong>Okay</strong></p>","null","neutral_feedback","0","test","31","","","","","","","",""
"","","","","","","","","","","","html-button-response","69","2.0.0","254713","66c30da59470c6be1190450b","1","52","1446","","","","","","","","","<img src= ""rock_img/I_Basalt_12.jpg"" style=""width:8cm; height:6.010000000000001cm;""><p>What type of rock is this?</p>","4","class_response","0","test","32","Obsidian","Basalt","12","false","5","2","",""
"","","","","","","","","","","","html-keyboard-response","70","2.0.0","255225","66c30da59470c6be1190450b","1","52","null","","","","","","","","","<p style='font-size: 30px;'><strong>Okay</strong></p>","null","neutral_feedback","0","test","32","","","","","","","",""
"","","","","","","","","","","","html-button-response","71","2.0.0","256680","66c30da59470c6be1190450b","1","52","1452","","","","","","","","","<img src= ""rock_img/I_Diorite_11.jpg"" style=""width:8cm; height:7.11cm;""><p>What type of rock is this?</p>","5","class_response","0","test","33","Pegmatite","Diorite","11","false","6","3","",""
"","","","","","","","","","","","html-keyboard-response","72","2.0.0","257183","66c30da59470c6be1190450b","1","52","null","","","","","","","","","<p style='font-size: 30px;'><strong>Okay</strong></p>","null","neutral_feedback","0","test","33","","","","","","","",""
"","","","","","","","","","","","html-button-response","73","2.0.0","259407","66c30da59470c6be1190450b","1","52","2222","","","","","","","","","<img src= ""rock_img/I_Pumice_08.jpg"" style=""width:8cm; height:6.67cm;""><p>What type of rock is this?</p>","3","class_response","0","test","34","Gabbro","Pumice","08","false","4","8","",""
"","","","","","","","","","","","html-keyboard-response","74","2.0.0","259914","66c30da59470c6be1190450b","1","52","null","","","","","","","","","<p style='font-size: 30px;'><strong>Okay</strong></p>","null","neutral_feedback","0","test","34","","","","","","","",""
"","","","","","","","","","","","html-button-response","75","2.0.0","261381","66c30da59470c6be1190450b","1","52","1464","","","","","","","","","<img src= ""rock_img/I_Diorite_13.jpg"" style=""width:8cm; height:6.29cm;""><p>What type of rock is this?</p>","6","class_response","0","test","35","Peridotite","Diorite","13","false","7","3","",""
"","","","","","","","","","","","html-keyboard-response","76","2.0.0","261884","66c30da59470c6be1190450b","1","52","null","","","","","","","","","<p style='font-size: 30px;'><strong>Okay</strong></p>","null","neutral_feedback","0","test","35","","","","","","","",""
"","","","","","","","","","","","html-button-response","77","2.0.0","263362","66c30da59470c6be1190450b","1","52","1474","","","","","","","","","<img src= ""rock_img/I_Gabbro_10.jpg"" style=""width:8cm; height:5.680000000000001cm;""><p>What type of rock is this?</p>","2","class_response","0","test","36","Diorite","Gabbro","10","false","3","4","",""
"","","","","","","","","","","","html-keyboard-response","78","2.0.0","263873","66c30da59470c6be1190450b","1","52","null","","","","","","","","","<p style='font-size: 30px;'><strong>Okay</strong></p>","null","neutral_feedback","0","test","36","","","","","","","",""
"","","","","","","","","","","","html-button-response","79","2.0.0","266240","66c30da59470c6be1190450b","1","52","2365","","","","","","","","","<img src= ""rock_img/I_Gabbro_03.jpg"" style=""width:8cm; height:8.52cm;""><p>What type of rock is this?</p>","1","class_response","0","test","37","Basalt","Gabbro","03","false","2","4","",""
"","","","","","","","","","","","html-keyboard-response","80","2.0.0","266751","66c30da59470c6be1190450b","1","52","null","","","","","","","","","<p style='font-size: 30px;'><strong>Okay</strong></p>","null","neutral_feedback","0","test","37","","","","","","","",""
"","","","","","","","","","","","html-button-response","81","2.0.0","268151","66c30da59470c6be1190450b","1","52","1398","","","","","","","","","<img src= ""rock_img/I_Pumice_02.jpg"" style=""width:8cm; height:7.3999999999999995cm;""><p>What type of rock is this?</p>","0","class_response","0","test","38","Andesite","Pumice","02","false","1","8","",""
"","","","","","","","","","","","html-keyboard-response","82","2.0.0","268658","66c30da59470c6be1190450b","1","52","null","","","","","","","","","<p style='font-size: 30px;'><strong>Okay</strong></p>","null","neutral_feedback","0","test","38","","","","","","","",""
"","","","","","","","","","","","html-button-response","83","2.0.0","270383","66c30da59470c6be1190450b","1","52","1723","","","","","","","","","<img src= ""rock_img/I_Obsidian_16.jpg"" style=""width:8cm; height:9.3cm;""><p>What type of rock is this?</p>","6","class_response","0","test","39","Peridotite","Obsidian","16","false","7","5","",""
"","","","","","","","","","","","html-keyboard-response","84","2.0.0","270896","66c30da59470c6be1190450b","1","52","null","","","","","","","","","<p style='font-size: 30px;'><strong>Okay</strong></p>","null","neutral_feedback","0","test","39","","","","","","","",""
"","","","","","","","","","","","html-button-response","85","2.0.0","274266","66c30da59470c6be1190450b","1","52","3367","","","","","","","","","<img src= ""rock_img/I_Peridotite_14.jpg"" style=""width:8cm; height:5.3cm;""><p>What type of rock is this?</p>","3","class_response","0","test","40","Gabbro","Peridotite","14","false","4","7","",""
"","","","","","","","","","","","html-keyboard-response","86","2.0.0","274778","66c30da59470c6be1190450b","1","52","null","","","","","","","","","<p style='font-size: 30px;'><strong>Okay</strong></p>","null","neutral_feedback","0","test","40","","","","","","","",""
"","","","","","","","","","","","html-button-response","87","2.0.0","276836","66c30da59470c6be1190450b","1","52","2055","","","","","","","","","<img src= ""rock_img/I_Pegmatite_05.jpg"" style=""width:8cm; height:7.300000000000001cm;""><p>What type of rock is this?</p>","7","class_response","0","test","41","Pumice","Pegmatite","05","false","8","6","",""
"","","","","","","","","","","","html-keyboard-response","88","2.0.0","277338","66c30da59470c6be1190450b","1","52","null","","","","","","","","","<p style='font-size: 30px;'><strong>Okay</strong></p>","null","neutral_feedback","0","test","41","","","","","","","",""
"","","","","","","","","","","","html-button-response","89","2.0.0","278556","66c30da59470c6be1190450b","1","52","1216","","","","","","","","","<img src= ""rock_img/I_Gabbro_08.jpg"" style=""width:8cm; height:5.15cm;""><p>What type of rock is this?</p>","2","class_response","0","test","42","Diorite","Gabbro","08","false","3","4","",""
"","","","","","","","","","","","html-keyboard-response","90","2.0.0","279064","66c30da59470c6be1190450b","1","52","null","","","","","","","","","<p style='font-size: 30px;'><strong>Okay</strong></p>","null","neutral_feedback","0","test","42","","","","","","","",""
"","","","","","","","","","","","html-button-response","91","2.0.0","280215","66c30da59470c6be1190450b","1","52","1148","","","","","","","","","<img src= ""rock_img/I_Pegmatite_06.jpg"" style=""width:8cm; height:5.17cm;""><p>What type of rock is this?</p>","6","class_response","0","test","43","Peridotite","Pegmatite","06","false","7","6","",""
"","","","","","","","","","","","html-keyboard-response","92","2.0.0","280722","66c30da59470c6be1190450b","1","52","null","","","","","","","","","<p style='font-size: 30px;'><strong>Okay</strong></p>","null","neutral_feedback","0","test","43","","","","","","","",""
"","","","","","","","","","","","html-button-response","93","2.0.0","281929","66c30da59470c6be1190450b","1","52","1204","","","","","","","","","<img src= ""rock_img/I_Basalt_16.jpg"" style=""width:8cm; height:7.659999999999999cm;""><p>What type of rock is this?</p>","5","class_response","0","test","44","Pegmatite","Basalt","16","false","6","2","",""
"","","","","","","","","","","","html-keyboard-response","94","2.0.0","282432","66c30da59470c6be1190450b","1","52","null","","","","","","","","","<p style='font-size: 30px;'><strong>Okay</strong></p>","null","neutral_feedback","0","test","44","","","","","","","",""
"","","","","","","","","","","","html-button-response","95","2.0.0","283729","66c30da59470c6be1190450b","1","52","1294","","","","","","","","","<img src= ""rock_img/I_Andesite_10.jpg"" style=""width:8cm; height:4.16cm;""><p>What type of rock is this?</p>","1","class_response","0","test","45","Basalt","Andesite","10","false","2","1","",""
"","","","","","","","","","","","html-keyboard-response","96","2.0.0","284239","66c30da59470c6be1190450b","1","52","null","","","","","","","","","<p style='font-size: 30px;'><strong>Okay</strong></p>","null","neutral_feedback","0","test","45","","","","","","","",""
"","","","","","","","","","","","html-button-response","97","2.0.0","286139","66c30da59470c6be1190450b","1","52","1897","","","","","","","","","<img src= ""rock_img/I_Basalt_08.jpg"" style=""width:8cm; height:10.44cm;""><p>What type of rock is this?</p>","1","class_response","0","test","46","Basalt","Basalt","08","true","2","2","",""
"","","","","","","","","","","","html-keyboard-response","98","2.0.0","286656","66c30da59470c6be1190450b","1","52","null","","","","","","","","","<p style='font-size: 30px;'><strong>Okay</strong></p>","null","neutral_feedback","0","test","46","","","","","","","",""
"","","","","","","","","","","","html-button-response","99","2.0.0","289088","66c30da59470c6be1190450b","1","52","2429","","","","","","","","","<img src= ""rock_img/I_Pumice_10.jpg"" style=""width:8cm; height:7.609999999999999cm;""><p>What type of rock is this?</p>","4","class_response","0","test","47","Obsidian","Pumice","10","false","5","8","",""
"","","","","","","","","","","","html-keyboard-response","100","2.0.0","289598","66c30da59470c6be1190450b","1","52","null","","","","","","","","","<p style='font-size: 30px;'><strong>Okay</strong></p>","null","neutral_feedback","0","test","47","","","","","","","",""
"","","","","","","","","","","","html-button-response","101","2.0.0","292265","66c30da59470c6be1190450b","1","52","2666","","","","","","","","","<img src= ""rock_img/I_Obsidian_10.jpg"" style=""width:8cm; height:6.260000000000001cm;""><p>What type of rock is this?</p>","4","class_response","0","test","48","Obsidian","Obsidian","10","true","5","5","",""
"","","","","","","","","","","","html-keyboard-response","102","2.0.0","292786","66c30da59470c6be1190450b","1","52","null","","","","","","","","","<p style='font-size: 30px;'><strong>Okay</strong></p>","null","neutral_feedback","0","test","48","","","","","","","",""
"","","","","","","","","","","","instructions","103","2.0.0","360468","66c30da59470c6be1190450b","1","52","67645","","","","","","","","[{""page_index"":0,""viewing_time"":36696},{""page_index"":1,""viewing_time"":13466},{""page_index"":2,""viewing_time"":17483}]","","","","","","","","","","","","","",""
"","","","","","","","","","","","html-button-response","104","2.0.0","366724","66c30da59470c6be1190450b","1","52","6253","","","","","","","","","","0","start_train","","","","","","","","","","",""
"","","","","","","","","","","","html-button-response","105","2.0.0","371482","66c30da59470c6be1190450b","1","52","4754","","","","","","","","","<img src= ""rock_img/I_Andesite_14.jpg"" style=""width:8cm; height:5.449999999999999cm;""><p>What type of rock is this?</p>","1","class_response","1","train","1","Basalt","Andesite","14","false","2","1","",""
"","","","","","","","","","","","html-button-response","106","2.0.0","430668","66c30da59470c6be1190450b","1","52","59183","","","","","","","","","<img src= rock_img/I_Andesite_14.jpg style=""width:8cm; height:5.449999999999999cm;""><p style='font-size: 30px; color: red;'><strong>Incorrect!</strong></p><p style='font-size: 30px;'><strong>This rock is andesite</strong></p>","0","corr_feedback","1","train","1","","","","","","","",""
"","","","","","","","","","","","html-button-response","107","2.0.0","439223","66c30da59470c6be1190450b","1","52","8552","","","","","","","","","<img src= ""rock_img/I_Obsidian_06.jpg"" style=""width:8cm; height:6.8cm;""><p>What type of rock is this?</p>","5","class_response","1","train","2","Pegmatite","Obsidian","06","false","6","5","",""
"","","","","","","","","","","","html-button-response","108","2.0.0","446974","66c30da59470c6be1190450b","1","52","7748","","","","","","","","","<img src= rock_img/I_Obsidian_06.jpg style=""width:8cm; height:6.8cm;""><p style='font-size: 30px; color: red;'><strong>Incorrect!</strong></p><p style='font-size: 30px;'><strong>This rock is obsidian</strong></p>","0","corr_feedback","1","train","2","","","","","","","",""
"","","","","","","","","","","","html-button-response","109","2.0.0","450623","66c30da59470c6be1190450b","1","52","3645","","","","","","","","","<img src= ""rock_img/I_Diorite_10.jpg"" style=""width:8cm; height:5.949999999999999cm;""><p>What type of rock is this?</p>","3","class_response","1","train","3","Gabbro","Diorite","10","false","4","3","",""
"","","","","","","","","","","","html-button-response","110","2.0.0","455711","66c30da59470c6be1190450b","1","52","5086","","","","","","","","","<img src= rock_img/I_Diorite_10.jpg style=""width:8cm; height:5.949999999999999cm;""><p style='font-size: 30px; color: red;'><strong>Incorrect!</strong></p><p style='font-size: 30px;'><strong>This rock is diorite</strong></p>","0","corr_feedback","1","train","3","","","","","","","",""
"","","","","","","","","","","","html-button-response","111","2.0.0","459654","66c30da59470c6be1190450b","1","52","3940","","","","","","","","","<img src= ""rock_img/I_Andesite_06.jpg"" style=""width:8cm; height:6.840000000000001cm;""><p>What type of rock is this?</p>","0","class_response","1","train","4","Andesite","Andesite","06","true","1","1","",""
"","","","","","","","","","","","html-button-response","112","2.0.0","461912","66c30da59470c6be1190450b","1","52","2256","","","","","","","","","<img src= rock_img/I_Andesite_06.jpg style=""width:8cm; height:6.840000000000001cm;""><p style='font-size: 30px; color: green;'><strong>Correct!</strong></p><p style='font-size: 30px;'><strong>This rock is andesite</strong></p>","0","corr_feedback","1","train","4","","","","","","","",""
"","","","","","","","","","","","html-button-response","113","2.0.0","476028","66c30da59470c6be1190450b","1","52","14113","","","","","","","","","<img src= ""rock_img/I_Peridotite_06.jpg"" style=""width:8cm; height:7.53cm;""><p>What type of rock is this?</p>","2","class_response","1","train","5","Diorite","Peridotite","06","false","3","7","",""
"","","","","","","","","","","","html-button-response","114","2.0.0","484964","66c30da59470c6be1190450b","1","52","8934","","","","","","","","","<img src= rock_img/I_Peridotite_06.jpg style=""width:8cm; height:7.53cm;""><p style='font-size: 30px; color: red;'><strong>Incorrect!</strong></p><p style='font-size: 30px;'><strong>This rock is peridotite</strong></p>","0","corr_feedback","1","train","5","","","","","","","",""
"","","","","","","","","","","","html-button-response","115","2.0.0","489055","66c30da59470c6be1190450b","1","52","4086","","","","","","","","","<img src= ""rock_img/I_Gabbro_09.jpg"" style=""width:8cm; height:7.279999999999999cm;""><p>What type of rock is this?</p>","7","class_response","1","train","6","Pumice","Gabbro","09","false","8","4","",""
"","","","","","","","","","","","html-button-response","116","2.0.0","494993","66c30da59470c6be1190450b","1","52","5935","","","","","","","","","<img src= rock_img/I_Gabbro_09.jpg style=""width:8cm; height:7.279999999999999cm;""><p style='font-size: 30px; color: red;'><strong>Incorrect!</strong></p><p style='font-size: 30px;'><strong>This rock is gabbro</strong></p>","0","corr_feedback","1","train","6","","","","","","","",""
"","","","","","","","","","","","html-button-response","117","2.0.0","499028","66c30da59470c6be1190450b","1","52","4033","","","","","","","","","<img src= ""rock_img/I_Andesite_07.jpg"" style=""width:8cm; height:5.93cm;""><p>What type of rock is this?</p>","6","class_response","1","train","7","Peridotite","Andesite","07","false","7","1","",""
"","","","","","","","","","","","html-button-response","118","2.0.0","510029","66c30da59470c6be1190450b","1","52","10998","","","","","","","","","<img src= rock_img/I_Andesite_07.jpg style=""width:8cm; height:5.93cm;""><p style='font-size: 30px; color: red;'><strong>Incorrect!</strong></p><p style='font-size: 30px;'><strong>This rock is andesite</strong></p>","0","corr_feedback","1","train","7","","","","","","","",""
"","","","","","","","","","","","html-button-response","119","2.0.0","514396","66c30da59470c6be1190450b","1","52","4364","","","","","","","","","<img src= ""rock_img/I_Pumice_13.jpg"" style=""width:8cm; height:8.200000000000001cm;""><p>What type of rock is this?</p>","3","class_response","1","train","8","Gabbro","Pumice","13","false","4","8","",""
"","","","","","","","","","","","html-button-response","120","2.0.0","522428","66c30da59470c6be1190450b","1","52","8029","","","","","","","","","<img src= rock_img/I_Pumice_13.jpg style=""width:8cm; height:8.200000000000001cm;""><p style='font-size: 30px; color: red;'><strong>Incorrect!</strong></p><p style='font-size: 30px;'><strong>This rock is pumice</strong></p>","0","corr_feedback","1","train","8","","","","","","","",""
"","","","","","","","","","","","html-button-response","121","2.0.0","530246","66c30da59470c6be1190450b","1","52","7815","","","","","","","","","<img src= ""rock_img/I_Pumice_16.jpg"" style=""width:8cm; height:6.79cm;""><p>What type of rock is this?</p>","1","class_response","1","train","9","Basalt","Pumice","16","false","2","8","",""
"","","","","","","","","","","","html-button-response","122","2.0.0","535964","66c30da59470c6be1190450b","1","52","5716","","","","","","","","","<img src= rock_img/I_Pumice_16.jpg style=""width:8cm; height:6.79cm;""><p style='font-size: 30px; color: red;'><strong>Incorrect!</strong></p><p style='font-size: 30px;'><strong>This rock is pumice</strong></p>","0","corr_feedback","1","train","9","","","","","","","",""
"","","","","","","","","","","","html-button-response","123","2.0.0","553684","66c30da59470c6be1190450b","1","52","17718","","","","","","","","","<img src= ""rock_img/I_Peridotite_16.jpg"" style=""width:8cm; height:6.989999999999999cm;""><p>What type of rock is this?</p>","0","class_response","1","train","10","Andesite","Peridotite","16","false","1","7","",""
"","","","","","","","","","","","html-button-response","124","2.0.0","555577","66c30da59470c6be1190450b","1","52","1891","","","","","","","","","<img src= rock_img/I_Peridotite_16.jpg style=""width:8cm; height:6.989999999999999cm;""><p style='font-size: 30px; color: red;'><strong>Incorrect!</strong></p><p style='font-size: 30px;'><strong>This rock is peridotite</strong></p>","0","corr_feedback","1","train","10","","","","","","","",""
"","","","","","","","","","","","html-button-response","125","2.0.0","558850","66c30da59470c6be1190450b","1","52","3270","","","","","","","","","<img src= ""rock_img/I_Gabbro_12.jpg"" style=""width:8cm; height:7.800000000000001cm;""><p>What type of rock is this?</p>","5","class_response","1","train","11","Pegmatite","Gabbro","12","false","6","4","",""
"","","","","","","","","","","","html-button-response","126","2.0.0","560536","66c30da59470c6be1190450b","1","52","1683","","","","","","","","","<img src= rock_img/I_Gabbro_12.jpg style=""width:8cm; height:7.800000000000001cm;""><p style='font-size: 30px; color: red;'><strong>Incorrect!</strong></p><p style='font-size: 30px;'><strong>This rock is gabbro</strong></p>","0","corr_feedback","1","train","11","","","","","","","",""
"","","","","","","","","","","","html-button-response","127","2.0.0","566136","66c30da59470c6be1190450b","1","52","5597","","","","","","","","","<img src= ""rock_img/I_Pegmatite_03.jpg"" style=""width:8cm; height:5.239999999999999cm;""><p>What type of rock is this?</p>","2","class_response","1","train","12","Diorite","Pegmatite","03","false","3","6","",""
"","","","","","","","","","","","html-button-response","128","2.0.0","568380","66c30da59470c6be1190450b","1","52","2242","","","","","","","","","<img src= rock_img/I_Pegmatite_03.jpg style=""width:8cm; height:5.239999999999999cm;""><p style='font-size: 30px; color: red;'><strong>Incorrect!</strong></p><p style='font-size: 30px;'><strong>This rock is pegmatite</strong></p>","0","corr_feedback","1","train","12","","","","","","","",""
"","","","","","","","","","","","html-button-response","129","2.0.0","573667","66c30da59470c6be1190450b","1","52","5284","","","","","","","","","<img src= ""rock_img/I_Peridotite_04.jpg"" style=""width:8cm; height:6.680000000000001cm;""><p>What type of rock is this?</p>","1","class_response","1","train","13","Basalt","Peridotite","04","false","2","7","",""
"","","","","","","","","","","","html-button-response","130","2.0.0","575393","66c30da59470c6be1190450b","1","52","1723","","","","","","","","","<img src= rock_img/I_Peridotite_04.jpg style=""width:8cm; height:6.680000000000001cm;""><p style='font-size: 30px; color: red;'><strong>Incorrect!</strong></p><p style='font-size: 30px;'><strong>This rock is peridotite</strong></p>","0","corr_feedback","1","train","13","","","","","","","",""
"","","","","","","","","","","","html-button-response","131","2.0.0","578363","66c30da59470c6be1190450b","1","52","2967","","","","","","","","","<img src= ""rock_img/I_Obsidian_11.jpg"" style=""width:8cm; height:6.05cm;""><p>What type of rock is this?</p>","2","class_response","1","train","14","Diorite","Obsidian","11","false","3","5","",""
"","","","","","","","","","","","html-button-response","132","2.0.0","580981","66c30da59470c6be1190450b","1","52","2616","","","","","","","","","<img src= rock_img/I_Obsidian_11.jpg style=""width:8cm; height:6.05cm;""><p style='font-size: 30px; color: red;'><strong>Incorrect!</strong></p><p style='font-size: 30px;'><strong>This rock is obsidian</strong></p>","0","corr_feedback","1","train","14","","","","","","","",""
"","","","","","","","","","","","html-button-response","133","2.0.0","588190","66c30da59470c6be1190450b","1","52","7206","","","","","","","","","<img src= ""rock_img/I_Diorite_02.jpg"" style=""width:8cm; height:6.27cm;""><p>What type of rock is this?</p>","4","class_response","1","train","15","Obsidian","Diorite","02","false","5","3","",""
"","","","","","","","","","","","html-button-response","134","2.0.0","590178","66c30da59470c6be1190450b","1","52","1986","","","","","","","","","<img src= rock_img/I_Diorite_02.jpg style=""width:8cm; height:6.27cm;""><p style='font-size: 30px; color: red;'><strong>Incorrect!</strong></p><p style='font-size: 30px;'><strong>This rock is diorite</strong></p>","0","corr_feedback","1","train","15","","","","","","","",""
"","","","","","","","","","","","html-button-response","135","2.0.0","592776","66c30da59470c6be1190450b","1","52","2595","","","","","","","","","<img src= ""rock_img/I_Diorite_06.jpg"" style=""width:8cm; height:6.03cm;""><p>What type of rock is this?</p>","6","class_response","1","train","16","Peridotite","Diorite","06","false","7","3","",""
"","","","","","","","","","","","html-button-response","136","2.0.0","594633","66c30da59470c6be1190450b","1","52","1854","","","","","","","","","<img src= rock_img/I_Diorite_06.jpg style=""width:8cm; height:6.03cm;""><p style='font-size: 30px; color: red;'><strong>Incorrect!</strong></p><p style='font-size: 30px;'><strong>This rock is diorite</strong></p>","0","corr_feedback","1","train","16","","","","","","","",""
"","","","","","","","","","","","html-button-response","137","2.0.0","600366","66c30da59470c6be1190450b","1","52","5730","","","","","","","","","<img src= ""rock_img/I_Diorite_14.jpg"" style=""width:8cm; height:5.71cm;""><p>What type of rock is this?</p>","0","class_response","1","train","17","Andesite","Diorite","14","false","1","3","",""
"","","","","","","","","","","","html-button-response","138","2.0.0","602336","66c30da59470c6be1190450b","1","52","1967","","","","","","","","","<img src= rock_img/I_Diorite_14.jpg style=""width:8cm; height:5.71cm;""><p style='font-size: 30px; color: red;'><strong>Incorrect!</strong></p><p style='font-size: 30px;'><strong>This rock is diorite</strong></p>","0","corr_feedback","1","train","17","","","","","","","",""
"","","","","","","","","","","","html-button-response","139","2.0.0","604609","66c30da59470c6be1190450b","1","52","2270","","","","","","","","","<img src= ""rock_img/I_Peridotite_13.jpg"" style=""width:8cm; height:7.58cm;""><p>What type of rock is this?</p>","2","class_response","1","train","18","Diorite","Peridotite","13","false","3","7","",""
"","","","","","","","","","","","html-button-response","140","2.0.0","606150","66c30da59470c6be1190450b","1","52","1539","","","","","","","","","<img src= rock_img/I_Peridotite_13.jpg style=""width:8cm; height:7.58cm;""><p style='font-size: 30px; color: red;'><strong>Incorrect!</strong></p><p style='font-size: 30px;'><strong>This rock is peridotite</strong></p>","0","corr_feedback","1","train","18","","","","","","","",""
"","","","","","","","","","","","html-button-response","141","2.0.0","609948","66c30da59470c6be1190450b","1","52","3796","","","","","","","","","<img src= ""rock_img/I_Obsidian_12.jpg"" style=""width:8cm; height:6.53cm;""><p>What type of rock is this?</p>","2","class_response","1","train","19","Diorite","Obsidian","12","false","3","5","",""
"","","","","","","","","","","","html-button-response","142","2.0.0","613171","66c30da59470c6be1190450b","1","52","3221","","","","","","","","","<img src= rock_img/I_Obsidian_12.jpg style=""width:8cm; height:6.53cm;""><p style='font-size: 30px; color: red;'><strong>Incorrect!</strong></p><p style='font-size: 30px;'><strong>This rock is obsidian</strong></p>","0","corr_feedback","1","train","19","","","","","","","",""
"","","","","","","","","","","","html-button-response","143","2.0.0","615906","66c30da59470c6be1190450b","1","52","2732","","","","","","","","","<img src= ""rock_img/I_Basalt_04.jpg"" style=""width:8cm; height:7.53cm;""><p>What type of rock is this?</p>","3","class_response","1","train","20","Gabbro","Basalt","04","false","4","2","",""
"","","","","","","","","","","","html-button-response","144","2.0.0","617464","66c30da59470c6be1190450b","1","52","1557","","","","","","","","","<img src= rock_img/I_Basalt_04.jpg style=""width:8cm; height:7.53cm;""><p style='font-size: 30px; color: red;'><strong>Incorrect!</strong></p><p style='font-size: 30px;'><strong>This rock is basalt</strong></p>","0","corr_feedback","1","train","20","","","","","","","",""
"","","","","","","","","","","","html-button-response","145","2.0.0","621579","66c30da59470c6be1190450b","1","52","4114","","","","","","","","","<img src= ""rock_img/I_Basalt_05.jpg"" style=""width:8cm; height:8.18cm;""><p>What type of rock is this?</p>","1","class_response","1","train","21","Basalt","Basalt","05","true","2","2","",""
"","","","","","","","","","","","html-button-response","146","2.0.0","623350","66c30da59470c6be1190450b","1","52","1769","","","","","","","","","<img src= rock_img/I_Basalt_05.jpg style=""width:8cm; height:8.18cm;""><p style='font-size: 30px; color: green;'><strong>Correct!</strong></p><p style='font-size: 30px;'><strong>This rock is basalt</strong></p>","0","corr_feedback","1","train","21","","","","","","","",""
"","","","","","","","","","","","html-button-response","147","2.0.0","626769","66c30da59470c6be1190450b","1","52","3416","","","","","","","","","<img src= ""rock_img/I_Pegmatite_09.jpg"" style=""width:8cm; height:4.03cm;""><p>What type of rock is this?</p>","7","class_response","1","train","22","Pumice","Pegmatite","09","false","8","6","",""
"","","","","","","","","","","","html-button-response","148","2.0.0","628556","66c30da59470c6be1190450b","1","52","1785","","","","","","","","","<img src= rock_img/I_Pegmatite_09.jpg style=""width:8cm; height:4.03cm;""><p style='font-size: 30px; color: red;'><strong>Incorrect!</strong></p><p style='font-size: 30px;'><strong>This rock is pegmatite</strong></p>","0","corr_feedback","1","train","22","","","","","","","",""
"","","","","","","","","","","","html-button-response","149","2.0.0","633320","66c30da59470c6be1190450b","1","52","4761","","","","","","","","","<img src= ""rock_img/I_Basalt_10.jpg"" style=""width:8cm; height:5.85cm;""><p>What type of rock is this?</p>","0","class_response","1","train","23","Andesite","Basalt","10","false","1","2","",""
"","","","","","","","","","","","html-button-response","150","2.0.0","635156","66c30da59470c6be1190450b","1","52","1834","","","","","","","","","<img src= rock_img/I_Basalt_10.jpg style=""width:8cm; height:5.85cm;""><p style='font-size: 30px; color: red;'><strong>Incorrect!</strong></p><p style='font-size: 30px;'><strong>This rock is basalt</strong></p>","0","corr_feedback","1","train","23","","","","","","","",""
"","","","","","","","","","","","html-button-response","151","2.0.0","638111","66c30da59470c6be1190450b","1","52","2953","","","","","","","","","<img src= ""rock_img/I_Peridotite_12.jpg"" style=""width:8cm; height:4.54cm;""><p>What type of rock is this?</p>","0","class_response","1","train","24","Andesite","Peridotite","12","false","1","7","",""
"","","","","","","","","","","","html-button-response","152","2.0.0","639948","66c30da59470c6be1190450b","1","52","1834","","","","","","","","","<img src= rock_img/I_Peridotite_12.jpg style=""width:8cm; height:4.54cm;""><p style='font-size: 30px; color: red;'><strong>Incorrect!</strong></p><p style='font-size: 30px;'><strong>This rock is peridotite</strong></p>","0","corr_feedback","1","train","24","","","","","","","",""
"","","","","","","","","","","","html-button-response","153","2.0.0","643528","66c30da59470c6be1190450b","1","52","3577","","","","","","","","","<img src= ""rock_img/I_Basalt_02.jpg"" style=""width:8cm; height:6.45cm;""><p>What type of rock is this?</p>","3","class_response","1","train","25","Gabbro","Basalt","02","false","4","2","",""
"","","","","","","","","","","","html-button-response","154","2.0.0","645389","66c30da59470c6be1190450b","1","52","1859","","","","","","","","","<img src= rock_img/I_Basalt_02.jpg style=""width:8cm; height:6.45cm;""><p style='font-size: 30px; color: red;'><strong>Incorrect!</strong></p><p style='font-size: 30px;'><strong>This rock is basalt</strong></p>","0","corr_feedback","1","train","25","","","","","","","",""
"","","","","","","","","","","","html-button-response","155","2.0.0","647429","66c30da59470c6be1190450b","1","52","2037","","","","","","","","","<img src= ""rock_img/I_Pumice_09.jpg"" style=""width:8cm; height:6.44cm;""><p>What type of rock is this?</p>","6","class_response","1","train","26","Peridotite","Pumice","09","false","7","8","",""
"","","","","","","","","","","","html-button-response","156","2.0.0","649362","66c30da59470c6be1190450b","1","52","1930","","","","","","","","","<img src= rock_img/I_Pumice_09.jpg style=""width:8cm; height:6.44cm;""><p style='font-size: 30px; color: red;'><strong>Incorrect!</strong></p><p style='font-size: 30px;'><strong>This rock is pumice</strong></p>","0","corr_feedback","1","train","26","","","","","","","",""
"","","","","","","","","","","","html-button-response","157","2.0.0","652256","66c30da59470c6be1190450b","1","52","2890","","","","","","","","","<img src= ""rock_img/I_Andesite_09.jpg"" style=""width:8cm; height:6cm;""><p>What type of rock is this?</p>","7","class_response","1","train","27","Pumice","Andesite","09","false","8","1","",""
"","","","","","","","","","","","html-button-response","158","2.0.0","654488","66c30da59470c6be1190450b","1","52","2229","","","","","","","","","<img src= rock_img/I_Andesite_09.jpg style=""width:8cm; height:6cm;""><p style='font-size: 30px; color: red;'><strong>Incorrect!</strong></p><p style='font-size: 30px;'><strong>This rock is andesite</strong></p>","0","corr_feedback","1","train","27","","","","","","","",""
"","","","","","","","","","","","html-button-response","159","2.0.0","657514","66c30da59470c6be1190450b","1","52","3024","","","","","","","","","<img src= ""rock_img/I_Gabbro_15.jpg"" style=""width:8cm; height:6.29cm;""><p>What type of rock is this?</p>","1","class_response","1","train","28","Basalt","Gabbro","15","false","2","4","",""
"","","","","","","","","","","","html-button-response","160","2.0.0","659157","66c30da59470c6be1190450b","1","52","1639","","","","","","","","","<img src= rock_img/I_Gabbro_15.jpg style=""width:8cm; height:6.29cm;""><p style='font-size: 30px; color: red;'><strong>Incorrect!</strong></p><p style='font-size: 30px;'><strong>This rock is gabbro</strong></p>","0","corr_feedback","1","train","28","","","","","","","",""
"","","","","","","","","","","","html-button-response","161","2.0.0","661133","66c30da59470c6be1190450b","1","52","1973","","","","","","","","","<img src= ""rock_img/I_Gabbro_13.jpg"" style=""width:8cm; height:5.08cm;""><p>What type of rock is this?</p>","1","class_response","1","train","29","Basalt","Gabbro","13","false","2","4","",""
"","","","","","","","","","","","html-button-response","162","2.0.0","662647","66c30da59470c6be1190450b","1","52","1511","","","","","","","","","<img src= rock_img/I_Gabbro_13.jpg style=""width:8cm; height:5.08cm;""><p style='font-size: 30px; color: red;'><strong>Incorrect!</strong></p><p style='font-size: 30px;'><strong>This rock is gabbro</strong></p>","0","corr_feedback","1","train","29","","","","","","","",""
"","","","","","","","","","","","html-button-response","163","2.0.0","665857","66c30da59470c6be1190450b","1","52","3208","","","","","","","","","<img src= ""rock_img/I_Diorite_15.jpg"" style=""width:8cm; height:5.54cm;""><p>What type of rock is this?</p>","1","class_response","1","train","30","Basalt","Diorite","15","false","2","3","",""
"","","","","","","","","","","","html-button-response","164","2.0.0","667339","66c30da59470c6be1190450b","1","52","1479","","","","","","","","","<img src= rock_img/I_Diorite_15.jpg style=""width:8cm; height:5.54cm;""><p style='font-size: 30px; color: red;'><strong>Incorrect!</strong></p><p style='font-size: 30px;'><strong>This rock is diorite</strong></p>","0","corr_feedback","1","train","30","","","","","","","",""
"","","","","","","","","","","","html-button-response","165","2.0.0","671534","66c30da59470c6be1190450b","1","52","4192","","","","","","","","","<img src= ""rock_img/I_Pumice_15.jpg"" style=""width:8cm; height:7.86cm;""><p>What type of rock is this?</p>","3","class_response","1","train","31","Gabbro","Pumice","15","false","4","8","",""
"","","","","","","","","","","","html-button-response","166","2.0.0","673262","66c30da59470c6be1190450b","1","52","1726","","","","","","","","","<img src= rock_img/I_Pumice_15.jpg style=""width:8cm; height:7.86cm;""><p style='font-size: 30px; color: red;'><strong>Incorrect!</strong></p><p style='font-size: 30px;'><strong>This rock is pumice</strong></p>","0","corr_feedback","1","train","31","","","","","","","",""
"","","","","","","","","","","","html-button-response","167","2.0.0","677943","66c30da59470c6be1190450b","1","52","4678","","","","","","","","","<img src= ""rock_img/I_Andesite_05.jpg"" style=""width:8cm; height:4.12cm;""><p>What type of rock is this?</p>","0","class_response","1","train","32","Andesite","Andesite","05","true","1","1","",""
"","","","","","","","","","","","html-button-response","168","2.0.0","679730","66c30da59470c6be1190450b","1","52","1785","","","","","","","","","<img src= rock_img/I_Andesite_05.jpg style=""width:8cm; height:4.12cm;""><p style='font-size: 30px; color: green;'><strong>Correct!</strong></p><p style='font-size: 30px;'><strong>This rock is andesite</strong></p>","0","corr_feedback","1","train","32","","","","","","","",""
"","","","","","","","","","","","html-button-response","169","2.0.0","683929","66c30da59470c6be1190450b","1","52","4196","","","","","","","","","<img src= ""rock_img/I_Pegmatite_07.jpg"" style=""width:8cm; height:6.7cm;""><p>What type of rock is this?</p>","4","class_response","1","train","33","Obsidian","Pegmatite","07","false","5","6","",""
"","","","","","","","","","","","html-button-response","170","2.0.0","685556","66c30da59470c6be1190450b","1","52","1624","","","","","","","","","<img src= rock_img/I_Pegmatite_07.jpg style=""width:8cm; height:6.7cm;""><p style='font-size: 30px; color: red;'><strong>Incorrect!</strong></p><p style='font-size: 30px;'><strong>This rock is pegmatite</strong></p>","0","corr_feedback","1","train","33","","","","","","","",""
"","","","","","","","","","","","html-button-response","171","2.0.0","687892","66c30da59470c6be1190450b","1","52","2333","","","","","","","","","<img src= ""rock_img/I_Obsidian_05.jpg"" style=""width:8cm; height:6.33cm;""><p>What type of rock is this?</p>","4","class_response","1","train","34","Obsidian","Obsidian","05","true","5","5","",""
"","","","","","","","","","","","html-button-response","172","2.0.0","689373","66c30da59470c6be1190450b","1","52","1480","","","","","","","","","<img src= rock_img/I_Obsidian_05.jpg style=""width:8cm; height:6.33cm;""><p style='font-size: 30px; color: green;'><strong>Correct!</strong></p><p style='font-size: 30px;'><strong>This rock is obsidian</strong></p>","0","corr_feedback","1","train","34","","","","","","","",""
"","","","","","","","","","","","html-button-response","173","2.0.0","693105","66c30da59470c6be1190450b","1","52","3729","","","","","","","","","<img src= ""rock_img/I_Basalt_09.jpg"" style=""width:8cm; height:6.2cm;""><p>What type of rock is this?</p>","1","class_response","1","train","35","Basalt","Basalt","09","true","2","2","",""
"","","","","","","","","","","","html-button-response","174","2.0.0","694613","66c30da59470c6be1190450b","1","52","1506","","","","","","","","","<img src= rock_img/I_Basalt_09.jpg style=""width:8cm; height:6.2cm;""><p style='font-size: 30px; color: green;'><strong>Correct!</strong></p><p style='font-size: 30px;'><strong>This rock is basalt</strong></p>","0","corr_feedback","1","train","35","","","","","","","",""
"","","","","","","","","","","","html-button-response","175","2.0.0","699262","66c30da59470c6be1190450b","1","52","4645","","","","","","","","","<img src= ""rock_img/I_Pegmatite_13.jpg"" style=""width:8cm; height:4.95cm;""><p>What type of rock is this?</p>","7","class_response","1","train","36","Pumice","Pegmatite","13","false","8","6","",""
"","","","","","","","","","","","html-button-response","176","2.0.0","700678","66c30da59470c6be1190450b","1","52","1413","","","","","","","","","<img src= rock_img/I_Pegmatite_13.jpg style=""width:8cm; height:4.95cm;""><p style='font-size: 30px; color: red;'><strong>Incorrect!</strong></p><p style='font-size: 30px;'><strong>This rock is pegmatite</strong></p>","0","corr_feedback","1","train","36","","","","","","","",""
"","","","","","","","","","","","html-button-response","177","2.0.0","705020","66c30da59470c6be1190450b","1","52","4339","","","","","","","","","<img src= ""rock_img/I_Obsidian_07.jpg"" style=""width:8cm; height:4.76cm;""><p>What type of rock is this?</p>","1","class_response","1","train","37","Basalt","Obsidian","07","false","2","5","",""
"","","","","","","","","","","","html-button-response","178","2.0.0","706430","66c30da59470c6be1190450b","1","52","1408","","","","","","","","","<img src= rock_img/I_Obsidian_07.jpg style=""width:8cm; height:4.76cm;""><p style='font-size: 30px; color: red;'><strong>Incorrect!</strong></p><p style='font-size: 30px;'><strong>This rock is obsidian</strong></p>","0","corr_feedback","1","train","37","","","","","","","",""
"","","","","","","","","","","","html-button-response","179","2.0.0","708561","66c30da59470c6be1190450b","1","52","2128","","","","","","","","","<img src= ""rock_img/I_Andesite_01.jpg"" style=""width:8cm; height:5.87cm;""><p>What type of rock is this?</p>","1","class_response","1","train","38","Basalt","Andesite","01","false","2","1","",""
"","","","","","","","","","","","html-button-response","180","2.0.0","710079","66c30da59470c6be1190450b","1","52","1515","","","","","","","","","<img src= rock_img/I_Andesite_01.jpg style=""width:8cm; height:5.87cm;""><p style='font-size: 30px; color: red;'><strong>Incorrect!</strong></p><p style='font-size: 30px;'><strong>This rock is andesite</strong></p>","0","corr_feedback","1","train","38","","","","","","","",""
"","","","","","","","","","","","html-button-response","181","2.0.0","715769","66c30da59470c6be1190450b","1","52","5689","","","","","","","","","<img src= ""rock_img/I_Pegmatite_12.jpg"" style=""width:8cm; height:5.7cm;""><p>What type of rock is this?</p>","2","class_response","1","train","39","Diorite","Pegmatite","12","false","3","6","",""
"","","","","","","","","","","","html-button-response","182","2.0.0","717182","66c30da59470c6be1190450b","1","52","1411","","","","","","","","","<img src= rock_img/I_Pegmatite_12.jpg style=""width:8cm; height:5.7cm;""><p style='font-size: 30px; color: red;'><strong>Incorrect!</strong></p><p style='font-size: 30px;'><strong>This rock is pegmatite</strong></p>","0","corr_feedback","1","train","39","","","","","","","",""
"","","","","","","","","","","","html-button-response","183","2.0.0","721699","66c30da59470c6be1190450b","1","52","4514","","","","","","","","","<img src= ""rock_img/I_Peridotite_10.jpg"" style=""width:8cm; height:5.390000000000001cm;""><p>What type of rock is this?</p>","7","class_response","1","train","40","Pumice","Peridotite","10","false","8","7","",""
"","","","","","","","","","","","html-button-response","184","2.0.0","723175","66c30da59470c6be1190450b","1","52","1474","","","","","","","","","<img src= rock_img/I_Peridotite_10.jpg style=""width:8cm; height:5.390000000000001cm;""><p style='font-size: 30px; color: red;'><strong>Incorrect!</strong></p><p style='font-size: 30px;'><strong>This rock is peridotite</strong></p>","0","corr_feedback","1","train","40","","","","","","","",""
"","","","","","","","","","","","html-button-response","185","2.0.0","729332","66c30da59470c6be1190450b","1","52","6154","","","","","","","","","<img src= ""rock_img/I_Gabbro_01.jpg"" style=""width:8cm; height:5.21cm;""><p>What type of rock is this?</p>","2","class_response","1","train","41","Diorite","Gabbro","01","false","3","4","",""
"","","","","","","","","","","","html-button-response","186","2.0.0","730781","66c30da59470c6be1190450b","1","52","1447","","","","","","","","","<img src= rock_img/I_Gabbro_01.jpg style=""width:8cm; height:5.21cm;""><p style='font-size: 30px; color: red;'><strong>Incorrect!</strong></p><p style='font-size: 30px;'><strong>This rock is gabbro</strong></p>","0","corr_feedback","1","train","41","","","","","","","",""
"","","","","","","","","","","","html-button-response","187","2.0.0","734030","66c30da59470c6be1190450b","1","52","3247","","","","","","","","","<img src= ""rock_img/I_Obsidian_09.jpg"" style=""width:8cm; height:5cm;""><p>What type of rock is this?</p>","4","class_response","1","train","42","Obsidian","Obsidian","09","true","5","5","",""
"","","","","","","","","","","","html-button-response","188","2.0.0","735644","66c30da59470c6be1190450b","1","52","1613","","","","","","","","","<img src= rock_img/I_Obsidian_09.jpg style=""width:8cm; height:5cm;""><p style='font-size: 30px; color: green;'><strong>Correct!</strong></p><p style='font-size: 30px;'><strong>This rock is obsidian</strong></p>","0","corr_feedback","1","train","42","","","","","","","",""
"","","","","","","","","","","","html-button-response","189","2.0.0","738112","66c30da59470c6be1190450b","1","52","2466","","","","","","","","","<img src= ""rock_img/I_Basalt_14.jpg"" style=""width:8cm; height:5.82cm;""><p>What type of rock is this?</p>","1","class_response","1","train","43","Basalt","Basalt","14","true","2","2","",""
"","","","","","","","","","","","html-button-response","190","2.0.0","739734","66c30da59470c6be1190450b","1","52","1620","","","","","","","","","<img src= rock_img/I_Basalt_14.jpg style=""width:8cm; height:5.82cm;""><p style='font-size: 30px; color: green;'><strong>Correct!</strong></p><p style='font-size: 30px;'><strong>This rock is basalt</strong></p>","0","corr_feedback","1","train","43","","","","","","","",""
"","","","","","","","","","","","html-button-response","191","2.0.0","743565","66c30da59470c6be1190450b","1","52","3829","","","","","","","","","<img src= ""rock_img/I_Pegmatite_11.jpg"" style=""width:8cm; height:8.14cm;""><p>What type of rock is this?</p>","3","class_response","1","train","44","Gabbro","Pegmatite","11","false","4","6","",""
"","","","","","","","","","","","html-button-response","192","2.0.0","745163","66c30da59470c6be1190450b","1","52","1595","","","","","","","","","<img src= rock_img/I_Pegmatite_11.jpg style=""width:8cm; height:8.14cm;""><p style='font-size: 30px; color: red;'><strong>Incorrect!</strong></p><p style='font-size: 30px;'><strong>This rock is pegmatite</strong></p>","0","corr_feedback","1","train","44","","","","","","","",""
"","","","","","","","","","","","html-button-response","193","2.0.0","749454","66c30da59470c6be1190450b","1","52","4288","","","","","","","","","<img src= ""rock_img/I_Pumice_04.jpg"" style=""width:8cm; height:6.819999999999999cm;""><p>What type of rock is this?</p>","7","class_response","1","train","45","Pumice","Pumice","04","true","8","8","",""
"","","","","","","","","","","","html-button-response","194","2.0.0","750947","66c30da59470c6be1190450b","1","52","1491","","","","","","","","","<img src= rock_img/I_Pumice_04.jpg style=""width:8cm; height:6.819999999999999cm;""><p style='font-size: 30px; color: green;'><strong>Correct!</strong></p><p style='font-size: 30px;'><strong>This rock is pumice</strong></p>","0","corr_feedback","1","train","45","","","","","","","",""
"","","","","","","","","","","","html-button-response","195","2.0.0","754562","66c30da59470c6be1190450b","1","52","3613","","","","","","","","","<img src= ""rock_img/I_Diorite_12.jpg"" style=""width:8cm; height:4.88cm;""><p>What type of rock is this?</p>","2","class_response","1","train","46","Diorite","Diorite","12","true","3","3","",""
"","","","","","","","","","","","html-button-response","196","2.0.0","785749","66c30da59470c6be1190450b","1","52","31185","","","","","","","","","<img src= rock_img/I_Diorite_12.jpg style=""width:8cm; height:4.88cm;""><p style='font-size: 30px; color: green;'><strong>Correct!</strong></p><p style='font-size: 30px;'><strong>This rock is diorite</strong></p>","0","corr_feedback","1","train","46","","","","","","","",""
"","","","","","","","","","","","html-button-response","197","2.0.0","789792","66c30da59470c6be1190450b","1","52","4041","","","","","","","","","<img src= ""rock_img/I_Pumice_06.jpg"" style=""width:8cm; height:6.9399999999999995cm;""><p>What type of rock is this?</p>","7","class_response","1","train","47","Pumice","Pumice","06","true","8","8","",""
"","","","","","","","","","","","html-button-response","198","2.0.0","791366","66c30da59470c6be1190450b","1","52","1572","","","","","","","","","<img src= rock_img/I_Pumice_06.jpg style=""width:8cm; height:6.9399999999999995cm;""><p style='font-size: 30px; color: green;'><strong>Correct!</strong></p><p style='font-size: 30px;'><strong>This rock is pumice</strong></p>","0","corr_feedback","1","train","47","","","","","","","",""
"","","","","","","","","","","","html-button-response","199","2.0.0","797615","66c30da59470c6be1190450b","1","52","6247","","","","","","","","","<img src= ""rock_img/I_Gabbro_11.jpg"" style=""width:8cm; height:6.2cm;""><p>What type of rock is this?</p>","5","class_response","1","train","48","Pegmatite","Gabbro","11","false","6","4","",""
"","","","","","","","","","","","html-button-response","200","2.0.0","799062","66c30da59470c6be1190450b","1","52","1445","","","","","","","","","<img src= rock_img/I_Gabbro_11.jpg style=""width:8cm; height:6.2cm;""><p style='font-size: 30px; color: red;'><strong>Incorrect!</strong></p><p style='font-size: 30px;'><strong>This rock is gabbro</strong></p>","0","corr_feedback","1","train","48","","","","","","","",""
"","","","","","","","","","","","instructions","203","2.0.0","827904","66c30da59470c6be1190450b","1","52","28838","","","","","","","","[{""page_index"":0,""viewing_time"":7456},{""page_index"":1,""viewing_time"":21382}]","","","","","","","","","","","","","",""
"","","","","","","","","","","","html-button-response","204","2.0.0","831881","66c30da59470c6be1190450b","1","52","3974","","","","","","","","","","0","start_test","","","","","","","","","","",""
"","","","","","","","","","","","html-button-response","205","2.0.0","836197","66c30da59470c6be1190450b","1","52","4314","","","","","","","","","<img src= ""rock_img/I_Peridotite_05.jpg"" style=""width:8cm; height:7.1499999999999995cm;""><p>What type of rock is this?</p>","0","class_response","1","test","1","Andesite","Peridotite","05","false","1","7","",""
"","","","","","","","","","","","html-keyboard-response","206","2.0.0","836704","66c30da59470c6be1190450b","1","52","null","","","","","","","","","<p style='font-size: 30px;'><strong>Okay</strong></p>","null","neutral_feedback","1","test","1","","","","","","","",""
"","","","","","","","","","","","html-button-response","207","2.0.0","846921","66c30da59470c6be1190450b","1","52","10213","","","","","","","","","<img src= ""rock_img/I_Pegmatite_05.jpg"" style=""width:8cm; height:7.300000000000001cm;""><p>What type of rock is this?</p>","2","class_response","1","test","2","Diorite","Pegmatite","05","false","3","6","",""
"","","","","","","","","","","","html-keyboard-response","208","2.0.0","847429","66c30da59470c6be1190450b","1","52","null","","","","","","","","","<p style='font-size: 30px;'><strong>Okay</strong></p>","null","neutral_feedback","1","test","2","","","","","","","",""
"","","","","","","","","","","","html-button-response","209","2.0.0","850123","66c30da59470c6be1190450b","1","52","2691","","","","","","","","","<img src= ""rock_img/I_Pegmatite_06.jpg"" style=""width:8cm; height:5.17cm;""><p>What type of rock is this?</p>","2","class_response","1","test","3","Diorite","Pegmatite","06","false","3","6","",""
"","","","","","","","","","","","html-keyboard-response","210","2.0.0","850637","66c30da59470c6be1190450b","1","52","null","","","","","","","","","<p style='font-size: 30px;'><strong>Okay</strong></p>","null","neutral_feedback","1","test","3","","","","","","","",""
"","","","","","","","","","","","html-button-response","211","2.0.0","852979","66c30da59470c6be1190450b","1","52","2340","","","","","","","","","<img src= ""rock_img/I_Basalt_08.jpg"" style=""width:8cm; height:10.44cm;""><p>What type of rock is this?</p>","1","class_response","1","test","4","Basalt","Basalt","08","true","2","2","",""
"","","","","","","","","","","","html-keyboard-response","212","2.0.0","853487","66c30da59470c6be1190450b","1","52","null","","","","","","","","","<p style='font-size: 30px;'><strong>Okay</strong></p>","null","neutral_feedback","1","test","4","","","","","","","",""
"","","","","","","","","","","","html-button-response","213","2.0.0","855905","66c30da59470c6be1190450b","1","52","2416","","","","","","","","","<img src= ""rock_img/I_Basalt_16.jpg"" style=""width:8cm; height:7.659999999999999cm;""><p>What type of rock is this?</p>","1","class_response","1","test","5","Basalt","Basalt","16","true","2","2","",""
"","","","","","","","","","","","html-keyboard-response","214","2.0.0","856413","66c30da59470c6be1190450b","1","52","null","","","","","","","","","<p style='font-size: 30px;'><strong>Okay</strong></p>","null","neutral_feedback","1","test","5","","","","","","","",""
"","","","","","","","","","","","html-button-response","215","2.0.0","860797","66c30da59470c6be1190450b","1","52","4381","","","","","","","","","<img src= ""rock_img/I_Pegmatite_15.jpg"" style=""width:8cm; height:6cm;""><p>What type of rock is this?</p>","6","class_response","1","test","6","Peridotite","Pegmatite","15","false","7","6","",""
"","","","","","","","","","","","html-keyboard-response","216","2.0.0","861306","66c30da59470c6be1190450b","1","52","null","","","","","","","","","<p style='font-size: 30px;'><strong>Okay</strong></p>","null","neutral_feedback","1","test","6","","","","","","","",""
"","","","","","","","","","","","html-button-response","217","2.0.0","864811","66c30da59470c6be1190450b","1","52","3502","","","","","","","","","<img src= ""rock_img/I_Diorite_13.jpg"" style=""width:8cm; height:6.29cm;""><p>What type of rock is this?</p>","3","class_response","1","test","7","Gabbro","Diorite","13","false","4","3","",""
"","","","","","","","","","","","html-keyboard-response","218","2.0.0","865319","66c30da59470c6be1190450b","1","52","null","","","","","","","","","<p style='font-size: 30px;'><strong>Okay</strong></p>","null","neutral_feedback","1","test","7","","","","","","","",""
"","","","","","","","","","","","html-button-response","219","2.0.0","868327","66c30da59470c6be1190450b","1","52","3004","","","","","","","","","<img src= ""rock_img/I_Gabbro_03.jpg"" style=""width:8cm; height:8.52cm;""><p>What type of rock is this?</p>","0","class_response","1","test","8","Andesite","Gabbro","03","false","1","4","",""
"","","","","","","","","","","","html-keyboard-response","220","2.0.0","868832","66c30da59470c6be1190450b","1","52","null","","","","","","","","","<p style='font-size: 30px;'><strong>Okay</strong></p>","null","neutral_feedback","1","test","8","","","","","","","",""
"","","","","","","","","","","","html-button-response","221","2.0.0","879584","66c30da59470c6be1190450b","1","52","10749","","","","","","","","","<img src= ""rock_img/I_Diorite_11.jpg"" style=""width:8cm; height:7.11cm;""><p>What type of rock is this?</p>","3","class_response","1","test","9","Gabbro","Diorite","11","false","4","3","",""
"","","","","","","","","","","","html-keyboard-response","222","2.0.0","880092","66c30da59470c6be1190450b","1","52","null","","","","","","","","","<p style='font-size: 30px;'><strong>Okay</strong></p>","null","neutral_feedback","1","test","9","","","","","","","",""
"","","","","","","","","","","","html-button-response","223","2.0.0","882342","66c30da59470c6be1190450b","1","52","2247","","","","","","","","","<img src= ""rock_img/I_Obsidian_02.jpg"" style=""width:8cm; height:7.51cm;""><p>What type of rock is this?</p>","4","class_response","1","test","10","Obsidian","Obsidian","02","true","5","5","",""
"","","","","","","","","","","","html-keyboard-response","224","2.0.0","882853","66c30da59470c6be1190450b","1","52","null","","","","","","","","","<p style='font-size: 30px;'><strong>Okay</strong></p>","null","neutral_feedback","1","test","10","","","","","","","",""
"","","","","","","","","","","","html-button-response","225","2.0.0","886509","66c30da59470c6be1190450b","1","52","3653","","","","","","","","","<img src= ""rock_img/I_Andesite_11.jpg"" style=""width:8cm; height:4.92cm;""><p>What type of rock is this?</p>","7","class_response","1","test","11","Pumice","Andesite","11","false","8","1","",""
"","","","","","","","","","","","html-keyboard-response","226","2.0.0","887019","66c30da59470c6be1190450b","1","52","null","","","","","","","","","<p style='font-size: 30px;'><strong>Okay</strong></p>","null","neutral_feedback","1","test","11","","","","","","","",""
"","","","","","","","","","","","html-button-response","227","2.0.0","894380","66c30da59470c6be1190450b","1","52","7358","","","","","","","","","<img src= ""rock_img/I_Basalt_11.jpg"" style=""width:8cm; height:5.359999999999999cm;""><p>What type of rock is this?</p>","2","class_response","1","test","12","Diorite","Basalt","11","false","3","2","",""
"","","","","","","","","","","","html-keyboard-response","228","2.0.0","894884","66c30da59470c6be1190450b","1","52","null","","","","","","","","","<p style='font-size: 30px;'><strong>Okay</strong></p>","null","neutral_feedback","1","test","12","","","","","","","",""
"","","","","","","","","","","","html-button-response","229","2.0.0","896361","66c30da59470c6be1190450b","1","52","1474","","","","","","","","","<img src= ""rock_img/I_Andesite_16.jpg"" style=""width:8cm; height:6.010000000000001cm;""><p>What type of rock is this?</p>","2","class_response","1","test","13","Diorite","Andesite","16","false","3","1","",""
"","","","","","","","","","","","html-keyboard-response","230","2.0.0","896866","66c30da59470c6be1190450b","1","52","null","","","","","","","","","<p style='font-size: 30px;'><strong>Okay</strong></p>","null","neutral_feedback","1","test","13","","","","","","","",""
"","","","","","","","","","","","html-button-response","231","2.0.0","898983","66c30da59470c6be1190450b","1","52","2114","","","","","","","","","<img src= ""rock_img/I_Peridotite_15.jpg"" style=""width:8cm; height:6cm;""><p>What type of rock is this?</p>","5","class_response","1","test","14","Pegmatite","Peridotite","15","false","6","7","",""
"","","","","","","","","","","","html-keyboard-response","232","2.0.0","899490","66c30da59470c6be1190450b","1","52","null","","","","","","","","","<p style='font-size: 30px;'><strong>Okay</strong></p>","null","neutral_feedback","1","test","14","","","","","","","",""
"","","","","","","","","","","","html-button-response","233","2.0.0","901116","66c30da59470c6be1190450b","1","52","1623","","","","","","","","","<img src= ""rock_img/I_Pumice_14.jpg"" style=""width:8cm; height:6.39cm;""><p>What type of rock is this?</p>","6","class_response","1","test","15","Peridotite","Pumice","14","false","7","8","",""
"","","","","","","","","","","","html-keyboard-response","234","2.0.0","901620","66c30da59470c6be1190450b","1","52","null","","","","","","","","","<p style='font-size: 30px;'><strong>Okay</strong></p>","null","neutral_feedback","1","test","15","","","","","","","",""
"","","","","","","","","","","","html-button-response","235","2.0.0","905732","66c30da59470c6be1190450b","1","52","4109","","","","","","","","","<img src= ""rock_img/I_Obsidian_14.jpg"" style=""width:8cm; height:7.64cm;""><p>What type of rock is this?</p>","4","class_response","1","test","16","Obsidian","Obsidian","14","true","5","5","",""
"","","","","","","","","","","","html-keyboard-response","236","2.0.0","906234","66c30da59470c6be1190450b","1","52","null","","","","","","","","","<p style='font-size: 30px;'><strong>Okay</strong></p>","null","neutral_feedback","1","test","16","","","","","","","",""
"","","","","","","","","","","","html-button-response","237","2.0.0","908553","66c30da59470c6be1190450b","1","52","2316","","","","","","","","","<img src= ""rock_img/I_Peridotite_14.jpg"" style=""width:8cm; height:5.3cm;""><p>What type of rock is this?</p>","7","class_response","1","test","17","Pumice","Peridotite","14","false","8","7","",""
"","","","","","","","","","","","html-keyboard-response","238","2.0.0","909059","66c30da59470c6be1190450b","1","52","null","","","","","","","","","<p style='font-size: 30px;'><strong>Okay</strong></p>","null","neutral_feedback","1","test","17","","","","","","","",""
"","","","","","","","","","","","html-button-response","239","2.0.0","910860","66c30da59470c6be1190450b","1","52","1798","","","","","","","","","<img src= ""rock_img/I_Peridotite_02.jpg"" style=""width:8cm; height:5.859999999999999cm;""><p>What type of rock is this?</p>","6","class_response","1","test","18","Peridotite","Peridotite","02","true","7","7","",""
"","","","","","","","","","","","html-keyboard-response","240","2.0.0","911374","66c30da59470c6be1190450b","1","52","null","","","","","","","","","<p style='font-size: 30px;'><strong>Okay</strong></p>","null","neutral_feedback","1","test","18","","","","","","","",""
"","","","","","","","","","","","html-button-response","241","2.0.0","913551","66c30da59470c6be1190450b","1","52","2175","","","","","","","","","<img src= ""rock_img/I_Gabbro_16.jpg"" style=""width:8cm; height:6.44cm;""><p>What type of rock is this?</p>","1","class_response","1","test","19","Basalt","Gabbro","16","false","2","4","",""
"","","","","","","","","","","","html-keyboard-response","242","2.0.0","914062","66c30da59470c6be1190450b","1","52","null","","","","","","","","","<p style='font-size: 30px;'><strong>Okay</strong></p>","null","neutral_feedback","1","test","19","","","","","","","",""
"","","","","","","","","","","","html-button-response","243","2.0.0","917206","66c30da59470c6be1190450b","1","52","3142","","","","","","","","","<img src= ""rock_img/I_Basalt_06.jpg"" style=""width:8cm; height:7.06cm;""><p>What type of rock is this?</p>","4","class_response","1","test","20","Obsidian","Basalt","06","false","5","2","",""
"","","","","","","","","","","","html-keyboard-response","244","2.0.0","917714","66c30da59470c6be1190450b","1","52","null","","","","","","","","","<p style='font-size: 30px;'><strong>Okay</strong></p>","null","neutral_feedback","1","test","20","","","","","","","",""
"","","","","","","","","","","","html-button-response","245","2.0.0","919573","66c30da59470c6be1190450b","1","52","1857","","","","","","","","","<img src= ""rock_img/I_Andesite_10.jpg"" style=""width:8cm; height:4.16cm;""><p>What type of rock is this?</p>","0","class_response","1","test","21","Andesite","Andesite","10","true","1","1","",""
"","","","","","","","","","","","html-keyboard-response","246","2.0.0","920085","66c30da59470c6be1190450b","1","52","null","","","","","","","","","<p style='font-size: 30px;'><strong>Okay</strong></p>","null","neutral_feedback","1","test","21","","","","","","","",""
"","","","","","","","","","","","html-button-response","247","2.0.0","922309","66c30da59470c6be1190450b","1","52","2221","","","","","","","","","<img src= ""rock_img/I_Diorite_09.jpg"" style=""width:8cm; height:5.27cm;""><p>What type of rock is this?</p>","2","class_response","1","test","22","Diorite","Diorite","09","true","3","3","",""
"","","","","","","","","","","","html-keyboard-response","248","2.0.0","922823","66c30da59470c6be1190450b","1","52","null","","","","","","","","","<p style='font-size: 30px;'><strong>Okay</strong></p>","null","neutral_feedback","1","test","22","","","","","","","",""
"","","","","","","","","","","","html-button-response","249","2.0.0","925051","66c30da59470c6be1190450b","1","52","2225","","","","","","","","","<img src= ""rock_img/I_Andesite_04.jpg"" style=""width:8cm; height:5.96cm;""><p>What type of rock is this?</p>","7","class_response","1","test","23","Pumice","Andesite","04","false","8","1","",""
"","","","","","","","","","","","html-keyboard-response","250","2.0.0","925567","66c30da59470c6be1190450b","1","52","null","","","","","","","","","<p style='font-size: 30px;'><strong>Okay</strong></p>","null","neutral_feedback","1","test","23","","","","","","","",""
"","","","","","","","","","","","html-button-response","251","2.0.0","927334","66c30da59470c6be1190450b","1","52","1764","","","","","","","","","<img src= ""rock_img/I_Peridotite_07.jpg"" style=""width:8cm; height:4.83cm;""><p>What type of rock is this?</p>","3","class_response","1","test","24","Gabbro","Peridotite","07","false","4","7","",""
"","","","","","","","","","","","html-keyboard-response","252","2.0.0","927844","66c30da59470c6be1190450b","1","52","null","","","","","","","","","<p style='font-size: 30px;'><strong>Okay</strong></p>","null","neutral_feedback","1","test","24","","","","","","","",""
"","","","","","","","","","","","html-button-response","253","2.0.0","929952","66c30da59470c6be1190450b","1","52","2104","","","","","","","","","<img src= ""rock_img/I_Andesite_02.jpg"" style=""width:8cm; height:8.5cm;""><p>What type of rock is this?</p>","6","class_response","1","test","25","Peridotite","Andesite","02","false","7","1","",""
"","","","","","","","","","","","html-keyboard-response","254","2.0.0","930461","66c30da59470c6be1190450b","1","52","null","","","","","","","","","<p style='font-size: 30px;'><strong>Okay</strong></p>","null","neutral_feedback","1","test","25","","","","","","","",""
"","","","","","","","","","","","html-button-response","255","2.0.0","932762","66c30da59470c6be1190450b","1","52","2299","","","","","","","","","<img src= ""rock_img/I_Andesite_03.jpg"" style=""width:8cm; height:5.73cm;""><p>What type of rock is this?</p>","1","class_response","1","test","26","Basalt","Andesite","03","false","2","1","",""
"","","","","","","","","","","","html-keyboard-response","256","2.0.0","933271","66c30da59470c6be1190450b","1","52","null","","","","","","","","","<p style='font-size: 30px;'><strong>Okay</strong></p>","null","neutral_feedback","1","test","26","","","","","","","",""
"","","","","","","","","","","","html-button-response","257","2.0.0","936382","66c30da59470c6be1190450b","1","52","3109","","","","","","","","","<img src= ""rock_img/I_Gabbro_05.jpg"" style=""width:8cm; height:6cm;""><p>What type of rock is this?</p>","0","class_response","1","test","27","Andesite","Gabbro","05","false","1","4","",""
"","","","","","","","","","","","html-keyboard-response","258","2.0.0","936890","66c30da59470c6be1190450b","1","52","null","","","","","","","","","<p style='font-size: 30px;'><strong>Okay</strong></p>","null","neutral_feedback","1","test","27","","","","","","","",""
"","","","","","","","","","","","html-button-response","259","2.0.0","940864","66c30da59470c6be1190450b","1","52","3972","","","","","","","","","<img src= ""rock_img/I_Pumice_02.jpg"" style=""width:8cm; height:7.3999999999999995cm;""><p>What type of rock is this?</p>","3","class_response","1","test","28","Gabbro","Pumice","02","false","4","8","",""
"","","","","","","","","","","","html-keyboard-response","260","2.0.0","941374","66c30da59470c6be1190450b","1","52","null","","","","","","","","","<p style='font-size: 30px;'><strong>Okay</strong></p>","null","neutral_feedback","1","test","28","","","","","","","",""
"","","","","","","","","","","","html-button-response","261","2.0.0","945147","66c30da59470c6be1190450b","1","52","3770","","","","","","","","","<img src= ""rock_img/I_Pegmatite_08.jpg"" style=""width:8cm; height:7.68cm;""><p>What type of rock is this?</p>","6","class_response","1","test","29","Peridotite","Pegmatite","08","false","7","6","",""
"","","","","","","","","","","","html-keyboard-response","262","2.0.0","945659","66c30da59470c6be1190450b","1","52","null","","","","","","","","","<p style='font-size: 30px;'><strong>Okay</strong></p>","null","neutral_feedback","1","test","29","","","","","","","",""
"","","","","","","","","","","","html-button-response","263","2.0.0","949126","66c30da59470c6be1190450b","1","52","3465","","","","","","","","","<img src= ""rock_img/I_Gabbro_10.jpg"" style=""width:8cm; height:5.680000000000001cm;""><p>What type of rock is this?</p>","0","class_response","1","test","30","Andesite","Gabbro","10","false","1","4","",""
"","","","","","","","","","","","html-keyboard-response","264","2.0.0","949640","66c30da59470c6be1190450b","1","52","null","","","","","","","","","<p style='font-size: 30px;'><strong>Okay</strong></p>","null","neutral_feedback","1","test","30","","","","","","","",""
"","","","","","","","","","","","html-button-response","265","2.0.0","951837","66c30da59470c6be1190450b","1","52","2195","","","","","","","","","<img src= ""rock_img/I_Pumice_08.jpg"" style=""width:8cm; height:6.67cm;""><p>What type of rock is this?</p>","2","class_response","1","test","31","Diorite","Pumice","08","false","3","8","",""
"","","","","","","","","","","","html-keyboard-response","266","2.0.0","952345","66c30da59470c6be1190450b","1","52","null","","","","","","","","","<p style='font-size: 30px;'><strong>Okay</strong></p>","null","neutral_feedback","1","test","31","","","","","","","",""
"","","","","","","","","","","","html-button-response","267","2.0.0","955678","66c30da59470c6be1190450b","1","52","3331","","","","","","","","","<img src= ""rock_img/I_Pumice_05.jpg"" style=""width:8cm; height:7.25cm;""><p>What type of rock is this?</p>","6","class_response","1","test","32","Peridotite","Pumice","05","false","7","8","",""
"","","","","","","","","","","","html-keyboard-response","268","2.0.0","956190","66c30da59470c6be1190450b","1","52","null","","","","","","","","","<p style='font-size: 30px;'><strong>Okay</strong></p>","null","neutral_feedback","1","test","32","","","","","","","",""
"","","","","","","","","","","","html-button-response","269","2.0.0","959318","66c30da59470c6be1190450b","1","52","3126","","","","","","","","","<img src= ""rock_img/I_Diorite_07.jpg"" style=""width:8cm; height:5.239999999999999cm;""><p>What type of rock is this?</p>","7","class_response","1","test","33","Pumice","Diorite","07","false","8","3","",""
"","","","","","","","","","","","html-keyboard-response","270","2.0.0","959827","66c30da59470c6be1190450b","1","52","null","","","","","","","","","<p style='font-size: 30px;'><strong>Okay</strong></p>","null","neutral_feedback","1","test","33","","","","","","","",""
"","","","","","","","","","","","html-button-response","271","2.0.0","964708","66c30da59470c6be1190450b","1","52","4879","","","","","","","","","<img src= ""rock_img/I_Gabbro_08.jpg"" style=""width:8cm; height:5.15cm;""><p>What type of rock is this?</p>","5","class_response","1","test","34","Pegmatite","Gabbro","08","false","6","4","",""
"","","","","","","","","","","","html-keyboard-response","272","2.0.0","965220","66c30da59470c6be1190450b","1","52","null","","","","","","","","","<p style='font-size: 30px;'><strong>Okay</strong></p>","null","neutral_feedback","1","test","34","","","","","","","",""
"","","","","","","","","","","","html-button-response","273","2.0.0","967031","66c30da59470c6be1190450b","1","52","1809","","","","","","","","","<img src= ""rock_img/I_Obsidian_08.jpg"" style=""width:8cm; height:7.39cm;""><p>What type of rock is this?</p>","4","class_response","1","test","35","Obsidian","Obsidian","08","true","5","5","",""
"","","","","","","","","","","","html-keyboard-response","274","2.0.0","967544","66c30da59470c6be1190450b","1","52","null","","","","","","","","","<p style='font-size: 30px;'><strong>Okay</strong></p>","null","neutral_feedback","1","test","35","","","","","","","",""
"","","","","","","","","","","","html-button-response","275","2.0.0","970363","66c30da59470c6be1190450b","1","52","2817","","","","","","","","","<img src= ""rock_img/I_Basalt_12.jpg"" style=""width:8cm; height:6.010000000000001cm;""><p>What type of rock is this?</p>","2","class_response","1","test","36","Diorite","Basalt","12","false","3","2","",""
"","","","","","","","","","","","html-keyboard-response","276","2.0.0","970872","66c30da59470c6be1190450b","1","52","null","","","","","","","","","<p style='font-size: 30px;'><strong>Okay</strong></p>","null","neutral_feedback","1","test","36","","","","","","","",""
"","","","","","","","","","","","html-button-response","277","2.0.0","974232","66c30da59470c6be1190450b","1","52","3358","","","","","","","","","<img src= ""rock_img/I_Pegmatite_10.jpg"" style=""width:8cm; height:4.16cm;""><p>What type of rock is this?</p>","3","class_response","1","test","37","Gabbro","Pegmatite","10","false","4","6","",""
"","","","","","","","","","","","html-keyboard-response","278","2.0.0","974740","66c30da59470c6be1190450b","1","52","null","","","","","","","","","<p style='font-size: 30px;'><strong>Okay</strong></p>","null","neutral_feedback","1","test","37","","","","","","","",""
"","","","","","","","","","","","html-button-response","279","2.0.0","977222","66c30da59470c6be1190450b","1","52","2479","","","","","","","","","<img src= ""rock_img/I_Diorite_16.jpg"" style=""width:8cm; height:6.74cm;""><p>What type of rock is this?</p>","7","class_response","1","test","38","Pumice","Diorite","16","false","8","3","",""
"","","","","","","","","","","","html-keyboard-response","280","2.0.0","977729","66c30da59470c6be1190450b","1","52","null","","","","","","","","","<p style='font-size: 30px;'><strong>Okay</strong></p>","null","neutral_feedback","1","test","38","","","","","","","",""
"","","","","","","","","","","","html-button-response","281","2.0.0","983723","66c30da59470c6be1190450b","1","52","5991","","","","","","","","","<img src= ""rock_img/I_Diorite_08.jpg"" style=""width:8cm; height:6.37cm;""><p>What type of rock is this?</p>","2","class_response","1","test","39","Diorite","Diorite","08","true","3","3","",""
"","","","","","","","","","","","html-keyboard-response","282","2.0.0","984233","66c30da59470c6be1190450b","1","52","null","","","","","","","","","<p style='font-size: 30px;'><strong>Okay</strong></p>","null","neutral_feedback","1","test","39","","","","","","","",""
"","","","","","","","","","","","html-button-response","283","2.0.0","986592","66c30da59470c6be1190450b","1","52","2356","","","","","","","","","<img src= ""rock_img/I_Gabbro_14.jpg"" style=""width:8cm; height:8.48cm;""><p>What type of rock is this?</p>","1","class_response","1","test","40","Basalt","Gabbro","14","false","2","4","",""
"","","","","","","","","","","","html-keyboard-response","284","2.0.0","987103","66c30da59470c6be1190450b","1","52","null","","","","","","","","","<p style='font-size: 30px;'><strong>Okay</strong></p>","null","neutral_feedback","1","test","40","","","","","","","",""
"","","","","","","","","","","","html-button-response","285","2.0.0","990140","66c30da59470c6be1190450b","1","52","3035","","","","","","","","","<img src= ""rock_img/I_Peridotite_08.jpg"" style=""width:8cm; height:6.7cm;""><p>What type of rock is this?</p>","2","class_response","1","test","41","Diorite","Peridotite","08","false","3","7","",""
"","","","","","","","","","","","html-keyboard-response","286","2.0.0","990650","66c30da59470c6be1190450b","1","52","null","","","","","","","","","<p style='font-size: 30px;'><strong>Okay</strong></p>","null","neutral_feedback","1","test","41","","","","","","","",""
"","","","","","","","","","","","html-button-response","287","2.0.0","992589","66c30da59470c6be1190450b","1","52","1937","","","","","","","","","<img src= ""rock_img/I_Obsidian_10.jpg"" style=""width:8cm; height:6.260000000000001cm;""><p>What type of rock is this?</p>","4","class_response","1","test","42","Obsidian","Obsidian","10","true","5","5","",""
"","","","","","","","","","","","html-keyboard-response","288","2.0.0","993099","66c30da59470c6be1190450b","1","52","null","","","","","","","","","<p style='font-size: 30px;'><strong>Okay</strong></p>","null","neutral_feedback","1","test","42","","","","","","","",""
"","","","","","","","","","","","html-button-response","289","2.0.0","995117","66c30da59470c6be1190450b","1","52","2015","","","","","","","","","<img src= ""rock_img/I_Obsidian_04.jpg"" style=""width:8cm; height:6.930000000000001cm;""><p>What type of rock is this?</p>","4","class_response","1","test","43","Obsidian","Obsidian","04","true","5","5","",""
"","","","","","","","","","","","html-keyboard-response","290","2.0.0","995626","66c30da59470c6be1190450b","1","52","null","","","","","","","","","<p style='font-size: 30px;'><strong>Okay</strong></p>","null","neutral_feedback","1","test","43","","","","","","","",""
"","","","","","","","","","","","html-button-response","291","2.0.0","999060","66c30da59470c6be1190450b","1","52","3431","","","","","","","","","<img src= ""rock_img/I_Basalt_01.jpg"" style=""width:8cm; height:7.880000000000001cm;""><p>What type of rock is this?</p>","5","class_response","1","test","44","Pegmatite","Basalt","01","false","6","2","",""
"","","","","","","","","","","","html-keyboard-response","292","2.0.0","999566","66c30da59470c6be1190450b","1","52","null","","","","","","","","","<p style='font-size: 30px;'><strong>Okay</strong></p>","null","neutral_feedback","1","test","44","","","","","","","",""
"","","","","","","","","","","","html-button-response","293","2.0.0","1001393","66c30da59470c6be1190450b","1","52","1824","","","","","","","","","<img src= ""rock_img/I_Obsidian_16.jpg"" style=""width:8cm; height:9.3cm;""><p>What type of rock is this?</p>","4","class_response","1","test","45","Obsidian","Obsidian","16","true","5","5","",""
"","","","","","","","","","","","html-keyboard-response","294","2.0.0","1001903","66c30da59470c6be1190450b","1","52","null","","","","","","","","","<p style='font-size: 30px;'><strong>Okay</strong></p>","null","neutral_feedback","1","test","45","","","","","","","",""
"","","","","","","","","","","","html-button-response","295","2.0.0","1004309","66c30da59470c6be1190450b","1","52","2404","","","","","","","","","<img src= ""rock_img/I_Pegmatite_16.jpg"" style=""width:8cm; height:5.8cm;""><p>What type of rock is this?</p>","6","class_response","1","test","46","Peridotite","Pegmatite","16","false","7","6","",""
"","","","","","","","","","","","html-keyboard-response","296","2.0.0","1004822","66c30da59470c6be1190450b","1","52","null","","","","","","","","","<p style='font-size: 30px;'><strong>Okay</strong></p>","null","neutral_feedback","1","test","46","","","","","","","",""
"","","","","","","","","","","","html-button-response","297","2.0.0","1006594","66c30da59470c6be1190450b","1","52","1770","","","","","","","","","<img src= ""rock_img/I_Pumice_03.jpg"" style=""width:8cm; height:6.64cm;""><p>What type of rock is this?</p>","2","class_response","1","test","47","Diorite","Pumice","03","false","3","8","",""
"","","","","","","","","","","","html-keyboard-response","298","2.0.0","1007103","66c30da59470c6be1190450b","1","52","null","","","","","","","","","<p style='font-size: 30px;'><strong>Okay</strong></p>","null","neutral_feedback","1","test","47","","","","","","","",""
"","","","","","","","","","","","html-button-response","299","2.0.0","1009674","66c30da59470c6be1190450b","1","52","2568","","","","","","","","","<img src= ""rock_img/I_Pumice_10.jpg"" style=""width:8cm; height:7.609999999999999cm;""><p>What type of rock is this?</p>","3","class_response","1","test","48","Gabbro","Pumice","10","false","4","8","",""
"","","","","","","","","","","","html-keyboard-response","300","2.0.0","1010183","66c30da59470c6be1190450b","1","52","null","","","","","","","","","<p style='font-size: 30px;'><strong>Okay</strong></p>","null","neutral_feedback","1","test","48","","","","","","","",""
"","","","","","","","","","","","html-button-response","301","2.0.0","1071084","66c30da59470c6be1190450b","1","52","","","","","","","","","","","","cycle_feedback","","","","","","","","","","29584.5","31298.699999928474"
"","","","","","","","","","","","html-button-response","303","2.0.0","1101801","66c30da59470c6be1190450b","1","52","30715","","","","","","","","","","0","start_train","","","","","","","","","","",""
"","","","","","","","","","","","html-button-response","304","2.0.0","1105319","66c30da59470c6be1190450b","1","52","3514","","","","","","","","","<img src= ""rock_img/I_Pegmatite_11.jpg"" style=""width:8cm; height:8.14cm;""><p>What type of rock is this?</p>","7","class_response","2","train","1","Pumice","Pegmatite","11","false","8","6","",""
