"width","height","webaudio","browser","browser_version","mobile","os","fullscreen","vsync_rate","webcam","microphone","trial_type","trial_index","plugin_version","time_elapsed","subjID","condition","stimID","rt","url","success","value","timeout","failed_images","failed_audio","failed_video","view_history","stimulus","response","trialType","cycle","phase","trial","resp","cat","token","corr","resp_num","cat_num","time_fb1","time_fb2"
"1492","837","true","chrome","131.0.0","false","Mac OS","true","76.72","true","true","browser-check","0","2.0.0","790","659584067824b64f084b6c76","1","45","","","","","","","","","","","","","","","","","","","","","","",""
"","","","","","","","","","","","external-html","1","2.0.0","4015","659584067824b64f084b6c76","1","45","3128","consent_form.html","","","","","","","","","","","","","","","","","","","","",""
"","","","","","","","","","","","fullscreen","2","2.0.0","6673","659584067824b64f084b6c76","1","45","1653","","true","","","","","","","","","","","","","","","","","","","",""
"","","","","","","","","","","","call-function","3","2.0.0","6680","659584067824b64f084b6c76","1","45","","","","{}","","","","","","","","","","","","","","","","","","",""
"","","","","","","","","","","","preload","4","2.0.0","9022","659584067824b64f084b6c76","1","45","","","true","","false","[]","[]","[]","","","","","","","","","","","","","","",""
"","","","","","","","","","","","instructions","5","2.0.0","25600","659584067824b64f084b6c76","1","45","16577","","","","","","","","[{""page_index"":0,""viewing_time"":4303},{""page_index"":1,""viewing_time"":7777},{""page_index"":2,""viewing_time"":4497}]","","","","","","","","","","","","","",""
"","","","","","","","","","","","html-button-response","6","2.0.0","27836","659584067824b64f084b6c76","1","45","2234","","","","","","","","","","0","start_test","","","","","","","","","","",""
"","","","","","","","","","","","html-button-response","7","2.0.0","33536","659584067824b64f084b6c76","1","45","5696","","","","","","","","","<img src= ""rock_img/I_Andesite_06.jpg"" style=""width:8cm; height:6.840000000000001cm;""><p>What type of rock is this?</p>","4","class_response","0","test","1","Obsidian","Andesite","06","false","5","1","",""
"","","","","","","","","","","","html-keyboard-response","8","2.0.0","34040","659584067824b64f084b6c76","1","45","null","","","","","","","","","<p style='font-size: 30px;'><strong>Okay</strong></p>","null","neutral_feedback","0","test","1","","","","","","","",""
"","","","","","","","","","","","html-button-response","9","2.0.0","37509","659584067824b64f084b6c76","1","45","3465","","","","","","","","","<img src= ""rock_img/I_Diorite_09.jpg"" style=""width:8cm; height:5.27cm;""><p>What type of rock is this?</p>","7","class_response","0","test","2","Pumice","Diorite","09","false","8","3","",""
"","","","","","","","","","","","html-keyboard-response","10","2.0.0","38012","659584067824b64f084b6c76","1","45","null","","","","","","","","","<p style='font-size: 30px;'><strong>Okay</strong></p>","null","neutral_feedback","0","test","2","","","","","","","",""
"","","","","","","","","","","","html-button-response","11","2.0.0","40695","659584067824b64f084b6c76","1","45","2679","","","","","","","","","<img src= ""rock_img/I_Andesite_10.jpg"" style=""width:8cm; height:4.16cm;""><p>What type of rock is this?</p>","1","class_response","0","test","3","Basalt","Andesite","10","false","2","1","",""
"","","","","","","","","","","","html-keyboard-response","12","2.0.0","41197","659584067824b64f084b6c76","1","45","null","","","","","","","","","<p style='font-size: 30px;'><strong>Okay</strong></p>","null","neutral_feedback","0","test","3","","","","","","","",""
"","","","","","","","","","","","html-button-response","13","2.0.0","47204","659584067824b64f084b6c76","1","45","6004","","","","","","","","","<img src= ""rock_img/I_Peridotite_10.jpg"" style=""width:8cm; height:5.390000000000001cm;""><p>What type of rock is this?</p>","1","class_response","0","test","4","Basalt","Peridotite","10","false","2","7","",""
"","","","","","","","","","","","html-keyboard-response","14","2.0.0","47707","659584067824b64f084b6c76","1","45","null","","","","","","","","","<p style='font-size: 30px;'><strong>Okay</strong></p>","null","neutral_feedback","0","test","4","","","","","","","",""
"","","","","","","","","","","","html-button-response","15","2.0.0","49713","659584067824b64f084b6c76","1","45","2003","","","","","","","","","<img src= ""rock_img/I_Andesite_09.jpg"" style=""width:8cm; height:6cm;""><p>What type of rock is this?</p>","0","class_response","0","test","5","Andesite","Andesite","09","true","1","1","",""
"","","","","","","","","","","","html-keyboard-response","16","2.0.0","50215","659584067824b64f084b6c76","1","45","null","","","","","","","","","<p style='font-size: 30px;'><strong>Okay</strong></p>","null","neutral_feedback","0","test","5","","","","","","","",""
"","","","","","","","","","","","html-button-response","17","2.0.0","52674","659584067824b64f084b6c76","1","45","2456","","","","","","","","","<img src= ""rock_img/I_Pumice_02.jpg"" style=""width:8cm; height:7.3999999999999995cm;""><p>What type of rock is this?</p>","7","class_response","0","test","6","Pumice","Pumice","02","true","8","8","",""
"","","","","","","","","","","","html-keyboard-response","18","2.0.0","53178","659584067824b64f084b6c76","1","45","null","","","","","","","","","<p style='font-size: 30px;'><strong>Okay</strong></p>","null","neutral_feedback","0","test","6","","","","","","","",""
"","","","","","","","","","","","html-button-response","19","2.0.0","55514","659584067824b64f084b6c76","1","45","2333","","","","","","","","","<img src= ""rock_img/I_Pumice_15.jpg"" style=""width:8cm; height:7.86cm;""><p>What type of rock is this?</p>","6","class_response","0","test","7","Peridotite","Pumice","15","false","7","8","",""
"","","","","","","","","","","","html-keyboard-response","20","2.0.0","56016","659584067824b64f084b6c76","1","45","null","","","","","","","","","<p style='font-size: 30px;'><strong>Okay</strong></p>","null","neutral_feedback","0","test","7","","","","","","","",""
"","","","","","","","","","","","html-button-response","21","2.0.0","57289","659584067824b64f084b6c76","1","45","1270","","","","","","","","","<img src= ""rock_img/I_Peridotite_07.jpg"" style=""width:8cm; height:4.83cm;""><p>What type of rock is this?</p>","5","class_response","0","test","8","Pegmatite","Peridotite","07","false","6","7","",""
"","","","","","","","","","","","html-keyboard-response","22","2.0.0","57792","659584067824b64f084b6c76","1","45","null","","","","","","","","","<p style='font-size: 30px;'><strong>Okay</strong></p>","null","neutral_feedback","0","test","8","","","","","","","",""
"","","","","","","","","","","","html-button-response","23","2.0.0","60344","659584067824b64f084b6c76","1","45","2548","","","","","","","","","<img src= ""rock_img/I_Diorite_10.jpg"" style=""width:8cm; height:5.949999999999999cm;""><p>What type of rock is this?</p>","2","class_response","0","test","9","Diorite","Diorite","10","true","3","3","",""
"","","","","","","","","","","","html-keyboard-response","24","2.0.0","60846","659584067824b64f084b6c76","1","45","null","","","","","","","","","<p style='font-size: 30px;'><strong>Okay</strong></p>","null","neutral_feedback","0","test","9","","","","","","","",""
"","","","","","","","","","","","html-button-response","25","2.0.0","62851","659584067824b64f084b6c76","1","45","2003","","","","","","","","","<img src= ""rock_img/I_Pegmatite_10.jpg"" style=""width:8cm; height:4.16cm;""><p>What type of rock is this?</p>","4","class_response","0","test","10","Obsidian","Pegmatite","10","false","5","6","",""
"","","","","","","","","","","","html-keyboard-response","26","2.0.0","63353","659584067824b64f084b6c76","1","45","null","","","","","","","","","<p style='font-size: 30px;'><strong>Okay</strong></p>","null","neutral_feedback","0","test","10","","","","","","","",""
"","","","","","","","","","","","html-button-response","27","2.0.0","66638","659584067824b64f084b6c76","1","45","3281","","","","","","","","","<img src= ""rock_img/I_Pegmatite_05.jpg"" style=""width:8cm; height:7.300000000000001cm;""><p>What type of rock is this?</p>","0","class_response","0","test","11","Andesite","Pegmatite","05","false","1","6","",""
"","","","","","","","","","","","html-keyboard-response","28","2.0.0","67140","659584067824b64f084b6c76","1","45","null","","","","","","","","","<p style='font-size: 30px;'><strong>Okay</strong></p>","null","neutral_feedback","0","test","11","","","","","","","",""
"","","","","","","","","","","","html-button-response","29","2.0.0","69718","659584067824b64f084b6c76","1","45","2577","","","","","","","","","<img src= ""rock_img/I_Gabbro_11.jpg"" style=""width:8cm; height:6.2cm;""><p>What type of rock is this?</p>","3","class_response","0","test","12","Gabbro","Gabbro","11","true","4","4","",""
"","","","","","","","","","","","html-keyboard-response","30","2.0.0","70220","659584067824b64f084b6c76","1","45","null","","","","","","","","","<p style='font-size: 30px;'><strong>Okay</strong></p>","null","neutral_feedback","0","test","12","","","","","","","",""
"","","","","","","","","","","","html-button-response","31","2.0.0","72535","659584067824b64f084b6c76","1","45","2313","","","","","","","","","<img src= ""rock_img/I_Diorite_14.jpg"" style=""width:8cm; height:5.71cm;""><p>What type of rock is this?</p>","6","class_response","0","test","13","Peridotite","Diorite","14","false","7","3","",""
"","","","","","","","","","","","html-keyboard-response","32","2.0.0","73037","659584067824b64f084b6c76","1","45","null","","","","","","","","","<p style='font-size: 30px;'><strong>Okay</strong></p>","null","neutral_feedback","0","test","13","","","","","","","",""
"","","","","","","","","","","","html-button-response","33","2.0.0","74695","659584067824b64f084b6c76","1","45","1655","","","","","","","","","<img src= ""rock_img/I_Andesite_03.jpg"" style=""width:8cm; height:5.73cm;""><p>What type of rock is this?</p>","1","class_response","0","test","14","Basalt","Andesite","03","false","2","1","",""
"","","","","","","","","","","","html-keyboard-response","34","2.0.0","75198","659584067824b64f084b6c76","1","45","null","","","","","","","","","<p style='font-size: 30px;'><strong>Okay</strong></p>","null","neutral_feedback","0","test","14","","","","","","","",""
"","","","","","","","","","","","html-button-response","35","2.0.0","76776","659584067824b64f084b6c76","1","45","1574","","","","","","","","","<img src= ""rock_img/I_Obsidian_14.jpg"" style=""width:8cm; height:7.64cm;""><p>What type of rock is this?</p>","4","class_response","0","test","15","Obsidian","Obsidian","14","true","5","5","",""
"","","","","","","","","","","","html-keyboard-response","36","2.0.0","77279","659584067824b64f084b6c76","1","45","null","","","","","","","","","<p style='font-size: 30px;'><strong>Okay</strong></p>","null","neutral_feedback","0","test","15","","","","","","","",""
"","","","","","","","","","","","html-button-response","37","2.0.0","79661","659584067824b64f084b6c76","1","45","2378","","","","","","","","","<img src= ""rock_img/I_Pegmatite_13.jpg"" style=""width:8cm; height:4.95cm;""><p>What type of rock is this?</p>","0","class_response","0","test","16","Andesite","Pegmatite","13","false","1","6","",""
"","","","","","","","","","","","html-keyboard-response","38","2.0.0","80162","659584067824b64f084b6c76","1","45","null","","","","","","","","","<p style='font-size: 30px;'><strong>Okay</strong></p>","null","neutral_feedback","0","test","16","","","","","","","",""
"","","","","","","","","","","","html-button-response","39","2.0.0","82392","659584067824b64f084b6c76","1","45","2228","","","","","","","","","<img src= ""rock_img/I_Gabbro_03.jpg"" style=""width:8cm; height:8.52cm;""><p>What type of rock is this?</p>","7","class_response","0","test","17","Pumice","Gabbro","03","false","8","4","",""
"","","","","","","","","","","","html-keyboard-response","40","2.0.0","82895","659584067824b64f084b6c76","1","45","null","","","","","","","","","<p style='font-size: 30px;'><strong>Okay</strong></p>","null","neutral_feedback","0","test","17","","","","","","","",""
"","","","","","","","","","","","html-button-response","41","2.0.0","83860","659584067824b64f084b6c76","1","45","962","","","","","","","","","<img src= ""rock_img/I_Basalt_04.jpg"" style=""width:8cm; height:7.53cm;""><p>What type of rock is this?</p>","2","class_response","0","test","18","Diorite","Basalt","04","false","3","2","",""
"","","","","","","","","","","","html-keyboard-response","42","2.0.0","84362","659584067824b64f084b6c76","1","45","null","","","","","","","","","<p style='font-size: 30px;'><strong>Okay</strong></p>","null","neutral_feedback","0","test","18","","","","","","","",""
"","","","","","","","","","","","html-button-response","43","2.0.0","85687","659584067824b64f084b6c76","1","45","1321","","","","","","","","","<img src= ""rock_img/I_Diorite_11.jpg"" style=""width:8cm; height:7.11cm;""><p>What type of rock is this?</p>","7","class_response","0","test","19","Pumice","Diorite","11","false","8","3","",""
"","","","","","","","","","","","html-keyboard-response","44","2.0.0","86189","659584067824b64f084b6c76","1","45","null","","","","","","","","","<p style='font-size: 30px;'><strong>Okay</strong></p>","null","neutral_feedback","0","test","19","","","","","","","",""
"","","","","","","","","","","","html-button-response","45","2.0.0","87248","659584067824b64f084b6c76","1","45","1055","","","","","","","","","<img src= ""rock_img/I_Pumice_05.jpg"" style=""width:8cm; height:7.25cm;""><p>What type of rock is this?</p>","7","class_response","0","test","20","Pumice","Pumice","05","true","8","8","",""
"","","","","","","","","","","","html-keyboard-response","46","2.0.0","87751","659584067824b64f084b6c76","1","45","null","","","","","","","","","<p style='font-size: 30px;'><strong>Okay</strong></p>","null","neutral_feedback","0","test","20","","","","","","","",""
"","","","","","","","","","","","html-button-response","47","2.0.0","88995","659584067824b64f084b6c76","1","45","1243","","","","","","","","","<img src= ""rock_img/I_Diorite_07.jpg"" style=""width:8cm; height:5.239999999999999cm;""><p>What type of rock is this?</p>","3","class_response","0","test","21","Gabbro","Diorite","07","false","4","3","",""
"","","","","","","","","","","","html-keyboard-response","48","2.0.0","89498","659584067824b64f084b6c76","1","45","null","","","","","","","","","<p style='font-size: 30px;'><strong>Okay</strong></p>","null","neutral_feedback","0","test","21","","","","","","","",""
"","","","","","","","","","","","html-button-response","49","2.0.0","91638","659584067824b64f084b6c76","1","45","2136","","","","","","","","","<img src= ""rock_img/I_Pegmatite_08.jpg"" style=""width:8cm; height:7.68cm;""><p>What type of rock is this?</p>","5","class_response","0","test","22","Pegmatite","Pegmatite","08","true","6","6","",""
"","","","","","","","","","","","html-keyboard-response","50","2.0.0","92141","659584067824b64f084b6c76","1","45","null","","","","","","","","","<p style='font-size: 30px;'><strong>Okay</strong></p>","null","neutral_feedback","0","test","22","","","","","","","",""
"","","","","","","","","","","","html-button-response","51","2.0.0","93329","659584067824b64f084b6c76","1","45","1186","","","","","","","","","<img src= ""rock_img/I_Gabbro_01.jpg"" style=""width:8cm; height:5.21cm;""><p>What type of rock is this?</p>","1","class_response","0","test","23","Basalt","Gabbro","01","false","2","4","",""
"","","","","","","","","","","","html-keyboard-response","52","2.0.0","93831","659584067824b64f084b6c76","1","45","null","","","","","","","","","<p style='font-size: 30px;'><strong>Okay</strong></p>","null","neutral_feedback","0","test","23","","","","","","","",""
"","","","","","","","","","","","html-button-response","53","2.0.0","94944","659584067824b64f084b6c76","1","45","1112","","","","","","","","","<img src= ""rock_img/I_Basalt_02.jpg"" style=""width:8cm; height:6.45cm;""><p>What type of rock is this?</p>","3","class_response","0","test","24","Gabbro","Basalt","02","false","4","2","",""
"","","","","","","","","","","","html-keyboard-response","54","2.0.0","95446","659584067824b64f084b6c76","1","45","null","","","","","","","","","<p style='font-size: 30px;'><strong>Okay</strong></p>","null","neutral_feedback","0","test","24","","","","","","","",""
"","","","","","","","","","","","html-button-response","55","2.0.0","96823","659584067824b64f084b6c76","1","45","1375","","","","","","","","","<img src= ""rock_img/I_Basalt_10.jpg"" style=""width:8cm; height:5.85cm;""><p>What type of rock is this?</p>","4","class_response","0","test","25","Obsidian","Basalt","10","false","5","2","",""
"","","","","","","","","","","","html-keyboard-response","56","2.0.0","97325","659584067824b64f084b6c76","1","45","null","","","","","","","","","<p style='font-size: 30px;'><strong>Okay</strong></p>","null","neutral_feedback","0","test","25","","","","","","","",""
"","","","","","","","","","","","html-button-response","57","2.0.0","98961","659584067824b64f084b6c76","1","45","1633","","","","","","","","","<img src= ""rock_img/I_Obsidian_08.jpg"" style=""width:8cm; height:7.39cm;""><p>What type of rock is this?</p>","4","class_response","0","test","26","Obsidian","Obsidian","08","true","5","5","",""
"","","","","","","","","","","","html-keyboard-response","58","2.0.0","99464","659584067824b64f084b6c76","1","45","null","","","","","","","","","<p style='font-size: 30px;'><strong>Okay</strong></p>","null","neutral_feedback","0","test","26","","","","","","","",""
"","","","","","","","","","","","html-button-response","59","2.0.0","100917","659584067824b64f084b6c76","1","45","1451","","","","","","","","","<img src= ""rock_img/I_Basalt_14.jpg"" style=""width:8cm; height:5.82cm;""><p>What type of rock is this?</p>","0","class_response","0","test","27","Andesite","Basalt","14","false","1","2","",""
"","","","","","","","","","","","html-keyboard-response","60","2.0.0","101419","659584067824b64f084b6c76","1","45","null","","","","","","","","","<p style='font-size: 30px;'><strong>Okay</strong></p>","null","neutral_feedback","0","test","27","","","","","","","",""
"","","","","","","","","","","","html-button-response","61","2.0.0","102918","659584067824b64f084b6c76","1","45","1496","","","","","","","","","<img src= ""rock_img/I_Basalt_11.jpg"" style=""width:8cm; height:5.359999999999999cm;""><p>What type of rock is this?</p>","0","class_response","0","test","28","Andesite","Basalt","11","false","1","2","",""
"","","","","","","","","","","","html-keyboard-response","62","2.0.0","103419","659584067824b64f084b6c76","1","45","null","","","","","","","","","<p style='font-size: 30px;'><strong>Okay</strong></p>","null","neutral_feedback","0","test","28","","","","","","","",""
"","","","","","","","","","","","html-button-response","63","2.0.0","104987","659584067824b64f084b6c76","1","45","1567","","","","","","","","","<img src= ""rock_img/I_Gabbro_16.jpg"" style=""width:8cm; height:6.44cm;""><p>What type of rock is this?</p>","1","class_response","0","test","29","Basalt","Gabbro","16","false","2","4","",""
"","","","","","","","","","","","html-keyboard-response","64","2.0.0","105490","659584067824b64f084b6c76","1","45","null","","","","","","","","","<p style='font-size: 30px;'><strong>Okay</strong></p>","null","neutral_feedback","0","test","29","","","","","","","",""
"","","","","","","","","","","","html-button-response","65","2.0.0","107069","659584067824b64f084b6c76","1","45","1575","","","","","","","","","<img src= ""rock_img/I_Basalt_06.jpg"" style=""width:8cm; height:7.06cm;""><p>What type of rock is this?</p>","4","class_response","0","test","30","Obsidian","Basalt","06","false","5","2","",""
"","","","","","","","","","","","html-keyboard-response","66","2.0.0","107571","659584067824b64f084b6c76","1","45","null","","","","","","","","","<p style='font-size: 30px;'><strong>Okay</strong></p>","null","neutral_feedback","0","test","30","","","","","","","",""
"","","","","","","","","","","","html-button-response","67","2.0.0","108897","659584067824b64f084b6c76","1","45","1323","","","","","","","","","<img src= ""rock_img/I_Obsidian_16.jpg"" style=""width:8cm; height:9.3cm;""><p>What type of rock is this?</p>","4","class_response","0","test","31","Obsidian","Obsidian","16","true","5","5","",""
"","","","","","","","","","","","html-keyboard-response","68","2.0.0","109400","659584067824b64f084b6c76","1","45","null","","","","","","","","","<p style='font-size: 30px;'><strong>Okay</strong></p>","null","neutral_feedback","0","test","31","","","","","","","",""
"","","","","","","","","","","","html-button-response","69","2.0.0","110628","659584067824b64f084b6c76","1","45","1225","","","","","","","","","<img src= ""rock_img/I_Pegmatite_06.jpg"" style=""width:8cm; height:5.17cm;""><p>What type of rock is this?</p>","0","class_response","0","test","32","Andesite","Pegmatite","06","false","1","6","",""
"","","","","","","","","","","","html-keyboard-response","70","2.0.0","111131","659584067824b64f084b6c76","1","45","null","","","","","","","","","<p style='font-size: 30px;'><strong>Okay</strong></p>","null","neutral_feedback","0","test","32","","","","","","","",""
"","","","","","","","","","","","html-button-response","71","2.0.0","112188","659584067824b64f084b6c76","1","45","1054","","","","","","","","","<img src= ""rock_img/I_Obsidian_04.jpg"" style=""width:8cm; height:6.930000000000001cm;""><p>What type of rock is this?</p>","4","class_response","0","test","33","Obsidian","Obsidian","04","true","5","5","",""
"","","","","","","","","","","","html-keyboard-response","72","2.0.0","112690","659584067824b64f084b6c76","1","45","null","","","","","","","","","<p style='font-size: 30px;'><strong>Okay</strong></p>","null","neutral_feedback","0","test","33","","","","","","","",""
"","","","","","","","","","","","html-button-response","73","2.0.0","113964","659584067824b64f084b6c76","1","45","1270","","","","","","","","","<img src= ""rock_img/I_Gabbro_05.jpg"" style=""width:8cm; height:6cm;""><p>What type of rock is this?</p>","7","class_response","0","test","34","Pumice","Gabbro","05","false","8","4","",""
"","","","","","","","","","","","html-keyboard-response","74","2.0.0","114467","659584067824b64f084b6c76","1","45","null","","","","","","","","","<p style='font-size: 30px;'><strong>Okay</strong></p>","null","neutral_feedback","0","test","34","","","","","","","",""
"","","","","","","","","","","","html-button-response","75","2.0.0","115498","659584067824b64f084b6c76","1","45","1027","","","","","","","","","<img src= ""rock_img/I_Pumice_16.jpg"" style=""width:8cm; height:6.79cm;""><p>What type of rock is this?</p>","6","class_response","0","test","35","Peridotite","Pumice","16","false","7","8","",""
"","","","","","","","","","","","html-keyboard-response","76","2.0.0","116000","659584067824b64f084b6c76","1","45","null","","","","","","","","","<p style='font-size: 30px;'><strong>Okay</strong></p>","null","neutral_feedback","0","test","35","","","","","","","",""
"","","","","","","","","","","","html-button-response","77","2.0.0","116949","659584067824b64f084b6c76","1","45","946","","","","","","","","","<img src= ""rock_img/I_Peridotite_05.jpg"" style=""width:8cm; height:7.1499999999999995cm;""><p>What type of rock is this?</p>","6","class_response","0","test","36","Peridotite","Peridotite","05","true","7","7","",""
"","","","","","","","","","","","html-keyboard-response","78","2.0.0","117450","659584067824b64f084b6c76","1","45","null","","","","","","","","","<p style='font-size: 30px;'><strong>Okay</strong></p>","null","neutral_feedback","0","test","36","","","","","","","",""
"","","","","","","","","","","","html-button-response","79","2.0.0","118660","659584067824b64f084b6c76","1","45","1208","","","","","","","","","<img src= ""rock_img/I_Obsidian_12.jpg"" style=""width:8cm; height:6.53cm;""><p>What type of rock is this?</p>","4","class_response","0","test","37","Obsidian","Obsidian","12","true","5","5","",""
"","","","","","","","","","","","html-keyboard-response","80","2.0.0","119162","659584067824b64f084b6c76","1","45","null","","","","","","","","","<p style='font-size: 30px;'><strong>Okay</strong></p>","null","neutral_feedback","0","test","37","","","","","","","",""
"","","","","","","","","","","","html-button-response","81","2.0.0","120391","659584067824b64f084b6c76","1","45","1224","","","","","","","","","<img src= ""rock_img/I_Pumice_08.jpg"" style=""width:8cm; height:6.67cm;""><p>What type of rock is this?</p>","1","class_response","0","test","38","Basalt","Pumice","08","false","2","8","",""
"","","","","","","","","","","","html-keyboard-response","82","2.0.0","120892","659584067824b64f084b6c76","1","45","null","","","","","","","","","<p style='font-size: 30px;'><strong>Okay</strong></p>","null","neutral_feedback","0","test","38","","","","","","","",""
"","","","","","","","","","","","html-button-response","83","2.0.0","121859","659584067824b64f084b6c76","1","45","966","","","","","","","","","<img src= ""rock_img/I_Peridotite_12.jpg"" style=""width:8cm; height:4.54cm;""><p>What type of rock is this?</p>","1","class_response","0","test","39","Basalt","Peridotite","12","false","2","7","",""
"","","","","","","","","","","","html-keyboard-response","84","2.0.0","122361","659584067824b64f084b6c76","1","45","null","","","","","","","","","<p style='font-size: 30px;'><strong>Okay</strong></p>","null","neutral_feedback","0","test","39","","","","","","","",""
"","","","","","","","","","","","html-button-response","85","2.0.0","124059","659584067824b64f084b6c76","1","45","1695","","","","","","","","","<img src= ""rock_img/I_Pegmatite_15.jpg"" style=""width:8cm; height:6cm;""><p>What type of rock is this?</p>","0","class_response","0","test","40","Andesite","Pegmatite","15","false","1","6","",""
"","","","","","","","","","","","html-keyboard-response","86","2.0.0","124561","659584067824b64f084b6c76","1","45","null","","","","","","","","","<p style='font-size: 30px;'><strong>Okay</strong></p>","null","neutral_feedback","0","test","40","","","","","","","",""
"","","","","","","","","","","","html-button-response","87","2.0.0","126127","659584067824b64f084b6c76","1","45","1562","","","","","","","","","<img src= ""rock_img/I_Diorite_02.jpg"" style=""width:8cm; height:6.27cm;""><p>What type of rock is this?</p>","7","class_response","0","test","41","Pumice","Diorite","02","false","8","3","",""
"","","","","","","","","","","","html-keyboard-response","88","2.0.0","126629","659584067824b64f084b6c76","1","45","null","","","","","","","","","<p style='font-size: 30px;'><strong>Okay</strong></p>","null","neutral_feedback","0","test","41","","","","","","","",""
"","","","","","","","","","","","html-button-response","89","2.0.0","128555","659584067824b64f084b6c76","1","45","1923","","","","","","","","","<img src= ""rock_img/I_Peridotite_08.jpg"" style=""width:8cm; height:6.7cm;""><p>What type of rock is this?</p>","7","class_response","0","test","42","Pumice","Peridotite","08","false","8","7","",""
"","","","","","","","","","","","html-keyboard-response","90","2.0.0","129058","659584067824b64f084b6c76","1","45","null","","","","","","","","","<p style='font-size: 30px;'><strong>Okay</strong></p>","null","neutral_feedback","0","test","42","","","","","","","",""
"","","","","","","","","","","","html-button-response","91","2.0.0","129903","659584067824b64f084b6c76","1","45","840","","","","","","","","","<img src= ""rock_img/I_Gabbro_15.jpg"" style=""width:8cm; height:6.29cm;""><p>What type of rock is this?</p>","7","class_response","0","test","43","Pumice","Gabbro","15","false","8","4","",""
"","","","","","","","","","","","html-keyboard-response","92","2.0.0","130405","659584067824b64f084b6c76","1","45","null","","","","","","","","","<p style='font-size: 30px;'><strong>Okay</strong></p>","null","neutral_feedback","0","test","43","","","","","","","",""
"","","","","","","","","","","","html-button-response","93","2.0.0","132411","659584067824b64f084b6c76","1","45","2002","","","","","","","","","<img src= ""rock_img/I_Peridotite_04.jpg"" style=""width:8cm; height:6.680000000000001cm;""><p>What type of rock is this?</p>","2","class_response","0","test","44","Diorite","Peridotite","04","false","3","7","",""
"","","","","","","","","","","","html-keyboard-response","94","2.0.0","132913","659584067824b64f084b6c76","1","45","null","","","","","","","","","<p style='font-size: 30px;'><strong>Okay</strong></p>","null","neutral_feedback","0","test","44","","","","","","","",""
"","","","","","","","","","","","html-button-response","95","2.0.0","134106","659584067824b64f084b6c76","1","45","1189","","","","","","","","","<img src= ""rock_img/I_Obsidian_11.jpg"" style=""width:8cm; height:6.05cm;""><p>What type of rock is this?</p>","4","class_response","0","test","45","Obsidian","Obsidian","11","true","5","5","",""
"","","","","","","","","","","","html-keyboard-response","96","2.0.0","134609","659584067824b64f084b6c76","1","45","null","","","","","","","","","<p style='font-size: 30px;'><strong>Okay</strong></p>","null","neutral_feedback","0","test","45","","","","","","","",""
"","","","","","","","","","","","html-button-response","97","2.0.0","135974","659584067824b64f084b6c76","1","45","1362","","","","","","","","","<img src= ""rock_img/I_Pumice_14.jpg"" style=""width:8cm; height:6.39cm;""><p>What type of rock is this?</p>","5","class_response","0","test","46","Pegmatite","Pumice","14","false","6","8","",""
"","","","","","","","","","","","html-keyboard-response","98","2.0.0","136475","659584067824b64f084b6c76","1","45","null","","","","","","","","","<p style='font-size: 30px;'><strong>Okay</strong></p>","null","neutral_feedback","0","test","46","","","","","","","",""
"","","","","","","","","","","","html-button-response","99","2.0.0","137917","659584067824b64f084b6c76","1","45","1439","","","","","","","","","<img src= ""rock_img/I_Andesite_01.jpg"" style=""width:8cm; height:5.87cm;""><p>What type of rock is this?</p>","6","class_response","0","test","47","Peridotite","Andesite","01","false","7","1","",""
"","","","","","","","","","","","html-keyboard-response","100","2.0.0","138420","659584067824b64f084b6c76","1","45","null","","","","","","","","","<p style='font-size: 30px;'><strong>Okay</strong></p>","null","neutral_feedback","0","test","47","","","","","","","",""
"","","","","","","","","","","","html-button-response","101","2.0.0","139481","659584067824b64f084b6c76","1","45","1059","","","","","","","","","<img src= ""rock_img/I_Andesite_11.jpg"" style=""width:8cm; height:4.92cm;""><p>What type of rock is this?</p>","6","class_response","0","test","48","Peridotite","Andesite","11","false","7","1","",""
"","","","","","","","","","","","html-keyboard-response","102","2.0.0","139984","659584067824b64f084b6c76","1","45","null","","","","","","","","","<p style='font-size: 30px;'><strong>Okay</strong></p>","null","neutral_feedback","0","test","48","","","","","","","",""
"","","","","","","","","","","","instructions","103","2.0.0","153179","659584067824b64f084b6c76","1","45","13169","","","","","","","","[{""page_index"":0,""viewing_time"":7875},{""page_index"":1,""viewing_time"":2616},{""page_index"":2,""viewing_time"":2678}]","","","","","","","","","","","","","",""
"","","","","","","","","","","","html-button-response","104","2.0.0","155259","659584067824b64f084b6c76","1","45","2078","","","","","","","","","","0","start_train","","","","","","","","","","",""
"","","","","","","","","","","","html-button-response","105","2.0.0","156713","659584067824b64f084b6c76","1","45","1452","","","","","","","","","<img src= ""rock_img/I_Diorite_16.jpg"" style=""width:8cm; height:6.74cm;""><p>What type of rock is this?</p>","1","class_response","1","train","1","Basalt","Diorite","16","false","2","3","",""
"","","","","","","","","","","","html-button-response","106","2.0.0","158195","659584067824b64f084b6c76","1","45","1480","","","","","","","","","<img src= rock_img/I_Diorite_16.jpg style=""width:8cm; height:6.74cm;""><p style='font-size: 30px; color: red;'><strong>Incorrect!</strong></p><p style='font-size: 30px;'><strong>This rock is diorite</strong></p>","0","corr_feedback","1","train","1","","","","","","","",""
"","","","","","","","","","","","html-button-response","107","2.0.0","159953","659584067824b64f084b6c76","1","45","1756","","","","","","","","","<img src= ""rock_img/I_Andesite_16.jpg"" style=""width:8cm; height:6.010000000000001cm;""><p>What type of rock is this?</p>","0","class_response","1","train","2","Andesite","Andesite","16","true","1","1","",""
"","","","","","","","","","","","html-button-response","108","2.0.0","161166","659584067824b64f084b6c76","1","45","1211","","","","","","","","","<img src= rock_img/I_Andesite_16.jpg style=""width:8cm; height:6.010000000000001cm;""><p style='font-size: 30px; color: green;'><strong>Correct!</strong></p><p style='font-size: 30px;'><strong>This rock is andesite</strong></p>","0","corr_feedback","1","train","2","","","","","","","",""
"","","","","","","","","","","","html-button-response","109","2.0.0","162489","659584067824b64f084b6c76","1","45","1321","","","","","","","","","<img src= ""rock_img/I_Obsidian_10.jpg"" style=""width:8cm; height:6.260000000000001cm;""><p>What type of rock is this?</p>","4","class_response","1","train","3","Obsidian","Obsidian","10","true","5","5","",""
"","","","","","","","","","","","html-button-response","110","2.0.0","163330","659584067824b64f084b6c76","1","45","839","","","","","","","","","<img src= rock_img/I_Obsidian_10.jpg style=""width:8cm; height:6.260000000000001cm;""><p style='font-size: 30px; color: green;'><strong>Correct!</strong></p><p style='font-size: 30px;'><strong>This rock is obsidian</strong></p>","0","corr_feedback","1","train","3","","","","","","","",""
"","","","","","","","","","","","html-button-response","111","2.0.0","164678","659584067824b64f084b6c76","1","45","1345","","","","","","","","","<img src= ""rock_img/I_Obsidian_06.jpg"" style=""width:8cm; height:6.8cm;""><p>What type of rock is this?</p>","4","class_response","1","train","4","Obsidian","Obsidian","06","true","5","5","",""
"","","","","","","","","","","","html-button-response","112","2.0.0","165608","659584067824b64f084b6c76","1","45","928","","","","","","","","","<img src= rock_img/I_Obsidian_06.jpg style=""width:8cm; height:6.8cm;""><p style='font-size: 30px; color: green;'><strong>Correct!</strong></p><p style='font-size: 30px;'><strong>This rock is obsidian</strong></p>","0","corr_feedback","1","train","4","","","","","","","",""
"","","","","","","","","","","","html-button-response","113","2.0.0","169411","659584067824b64f084b6c76","1","45","3801","","","","","","","","","<img src= ""rock_img/I_Pegmatite_11.jpg"" style=""width:8cm; height:8.14cm;""><p>What type of rock is this?</p>","5","class_response","1","train","5","Pegmatite","Pegmatite","11","true","6","6","",""
"","","","","","","","","","","","html-button-response","114","2.0.0","170543","659584067824b64f084b6c76","1","45","1129","","","","","","","","","<img src= rock_img/I_Pegmatite_11.jpg style=""width:8cm; height:8.14cm;""><p style='font-size: 30px; color: green;'><strong>Correct!</strong></p><p style='font-size: 30px;'><strong>This rock is pegmatite</strong></p>","0","corr_feedback","1","train","5","","","","","","","",""
"","","","","","","","","","","","html-button-response","115","2.0.0","172466","659584067824b64f084b6c76","1","45","1921","","","","","","","","","<img src= ""rock_img/I_Pegmatite_09.jpg"" style=""width:8cm; height:4.03cm;""><p>What type of rock is this?</p>","1","class_response","1","train","6","Basalt","Pegmatite","09","false","2","6","",""
"","","","","","","","","","","","html-button-response","116","2.0.0","173547","659584067824b64f084b6c76","1","45","1078","","","","","","","","","<img src= rock_img/I_Pegmatite_09.jpg style=""width:8cm; height:4.03cm;""><p style='font-size: 30px; color: red;'><strong>Incorrect!</strong></p><p style='font-size: 30px;'><strong>This rock is pegmatite</strong></p>","0","corr_feedback","1","train","6","","","","","","","",""
"","","","","","","","","","","","html-button-response","117","2.0.0","175294","659584067824b64f084b6c76","1","45","1745","","","","","","","","","<img src= ""rock_img/I_Diorite_06.jpg"" style=""width:8cm; height:6.03cm;""><p>What type of rock is this?</p>","7","class_response","1","train","7","Pumice","Diorite","06","false","8","3","",""
"","","","","","","","","","","","html-button-response","118","2.0.0","177095","659584067824b64f084b6c76","1","45","1799","","","","","","","","","<img src= rock_img/I_Diorite_06.jpg style=""width:8cm; height:6.03cm;""><p style='font-size: 30px; color: red;'><strong>Incorrect!</strong></p><p style='font-size: 30px;'><strong>This rock is diorite</strong></p>","0","corr_feedback","1","train","7","","","","","","","",""
"","","","","","","","","","","","html-button-response","119","2.0.0","179347","659584067824b64f084b6c76","1","45","2250","","","","","","","","","<img src= ""rock_img/I_Gabbro_14.jpg"" style=""width:8cm; height:8.48cm;""><p>What type of rock is this?</p>","2","class_response","1","train","8","Diorite","Gabbro","14","false","3","4","",""
"","","","","","","","","","","","html-button-response","120","2.0.0","180548","659584067824b64f084b6c76","1","45","1200","","","","","","","","","<img src= rock_img/I_Gabbro_14.jpg style=""width:8cm; height:8.48cm;""><p style='font-size: 30px; color: red;'><strong>Incorrect!</strong></p><p style='font-size: 30px;'><strong>This rock is gabbro</strong></p>","0","corr_feedback","1","train","8","","","","","","","",""
"","","","","","","","","","","","html-button-response","121","2.0.0","182550","659584067824b64f084b6c76","1","45","2000","","","","","","","","","<img src= ""rock_img/I_Andesite_04.jpg"" style=""width:8cm; height:5.96cm;""><p>What type of rock is this?</p>","3","class_response","1","train","9","Gabbro","Andesite","04","false","4","1","",""
"","","","","","","","","","","","html-button-response","122","2.0.0","183616","659584067824b64f084b6c76","1","45","1064","","","","","","","","","<img src= rock_img/I_Andesite_04.jpg style=""width:8cm; height:5.96cm;""><p style='font-size: 30px; color: red;'><strong>Incorrect!</strong></p><p style='font-size: 30px;'><strong>This rock is andesite</strong></p>","0","corr_feedback","1","train","9","","","","","","","",""
"","","","","","","","","","","","html-button-response","123","2.0.0","185682","659584067824b64f084b6c76","1","45","2064","","","","","","","","","<img src= ""rock_img/I_Peridotite_02.jpg"" style=""width:8cm; height:5.859999999999999cm;""><p>What type of rock is this?</p>","2","class_response","1","train","10","Diorite","Peridotite","02","false","3","7","",""
"","","","","","","","","","","","html-button-response","124","2.0.0","186456","659584067824b64f084b6c76","1","45","772","","","","","","","","","<img src= rock_img/I_Peridotite_02.jpg style=""width:8cm; height:5.859999999999999cm;""><p style='font-size: 30px; color: red;'><strong>Incorrect!</strong></p><p style='font-size: 30px;'><strong>This rock is peridotite</strong></p>","0","corr_feedback","1","train","10","","","","","","","",""
"","","","","","","","","","","","html-button-response","125","2.0.0","187978","659584067824b64f084b6c76","1","45","1520","","","","","","","","","<img src= ""rock_img/I_Diorite_15.jpg"" style=""width:8cm; height:5.54cm;""><p>What type of rock is this?</p>","1","class_response","1","train","11","Basalt","Diorite","15","false","2","3","",""
"","","","","","","","","","","","html-button-response","126","2.0.0","188781","659584067824b64f084b6c76","1","45","801","","","","","","","","","<img src= rock_img/I_Diorite_15.jpg style=""width:8cm; height:5.54cm;""><p style='font-size: 30px; color: red;'><strong>Incorrect!</strong></p><p style='font-size: 30px;'><strong>This rock is diorite</strong></p>","0","corr_feedback","1","train","11","","","","","","","",""
"","","","","","","","","","","","html-button-response","127","2.0.0","191538","659584067824b64f084b6c76","1","45","2755","","","","","","","","","<img src= ""rock_img/I_Gabbro_13.jpg"" style=""width:8cm; height:5.08cm;""><p>What type of rock is this?</p>","2","class_response","1","train","12","Diorite","Gabbro","13","false","3","4","",""
"","","","","","","","","","","","html-button-response","128","2.0.0","192258","659584067824b64f084b6c76","1","45","719","","","","","","","","","<img src= rock_img/I_Gabbro_13.jpg style=""width:8cm; height:5.08cm;""><p style='font-size: 30px; color: red;'><strong>Incorrect!</strong></p><p style='font-size: 30px;'><strong>This rock is gabbro</strong></p>","0","corr_feedback","1","train","12","","","","","","","",""
"","","","","","","","","","","","html-button-response","129","2.0.0","193832","659584067824b64f084b6c76","1","45","1572","","","","","","","","","<img src= ""rock_img/I_Pegmatite_07.jpg"" style=""width:8cm; height:6.7cm;""><p>What type of rock is this?</p>","1","class_response","1","train","13","Basalt","Pegmatite","07","false","2","6","",""
"","","","","","","","","","","","html-button-response","130","2.0.0","194714","659584067824b64f084b6c76","1","45","880","","","","","","","","","<img src= rock_img/I_Pegmatite_07.jpg style=""width:8cm; height:6.7cm;""><p style='font-size: 30px; color: red;'><strong>Incorrect!</strong></p><p style='font-size: 30px;'><strong>This rock is pegmatite</strong></p>","0","corr_feedback","1","train","13","","","","","","","",""
"","","","","","","","","","","","html-button-response","131","2.0.0","196221","659584067824b64f084b6c76","1","45","1505","","","","","","","","","<img src= ""rock_img/I_Peridotite_14.jpg"" style=""width:8cm; height:5.3cm;""><p>What type of rock is this?</p>","3","class_response","1","train","14","Gabbro","Peridotite","14","false","4","7","",""
"","","","","","","","","","","","html-button-response","132","2.0.0","197328","659584067824b64f084b6c76","1","45","1104","","","","","","","","","<img src= rock_img/I_Peridotite_14.jpg style=""width:8cm; height:5.3cm;""><p style='font-size: 30px; color: red;'><strong>Incorrect!</strong></p><p style='font-size: 30px;'><strong>This rock is peridotite</strong></p>","0","corr_feedback","1","train","14","","","","","","","",""
"","","","","","","","","","","","html-button-response","133","2.0.0","200186","659584067824b64f084b6c76","1","45","2854","","","","","","","","","<img src= ""rock_img/I_Basalt_12.jpg"" style=""width:8cm; height:6.010000000000001cm;""><p>What type of rock is this?</p>","6","class_response","1","train","15","Peridotite","Basalt","12","false","7","2","",""
"","","","","","","","","","","","html-button-response","134","2.0.0","201129","659584067824b64f084b6c76","1","45","942","","","","","","","","","<img src= rock_img/I_Basalt_12.jpg style=""width:8cm; height:6.010000000000001cm;""><p style='font-size: 30px; color: red;'><strong>Incorrect!</strong></p><p style='font-size: 30px;'><strong>This rock is basalt</strong></p>","0","corr_feedback","1","train","15","","","","","","","",""
"","","","","","","","","","","","html-button-response","135","2.0.0","202678","659584067824b64f084b6c76","1","45","1547","","","","","","","","","<img src= ""rock_img/I_Pumice_09.jpg"" style=""width:8cm; height:6.44cm;""><p>What type of rock is this?</p>","7","class_response","1","train","16","Pumice","Pumice","09","true","8","8","",""
"","","","","","","","","","","","html-button-response","136","2.0.0","203543","659584067824b64f084b6c76","1","45","863","","","","","","","","","<img src= rock_img/I_Pumice_09.jpg style=""width:8cm; height:6.44cm;""><p style='font-size: 30px; color: green;'><strong>Correct!</strong></p><p style='font-size: 30px;'><strong>This rock is pumice</strong></p>","0","corr_feedback","1","train","16","","","","","","","",""
"","","","","","","","","","","","html-button-response","137","2.0.0","204798","659584067824b64f084b6c76","1","45","1253","","","","","","","","","<img src= ""rock_img/I_Pumice_06.jpg"" style=""width:8cm; height:6.9399999999999995cm;""><p>What type of rock is this?</p>","7","class_response","1","train","17","Pumice","Pumice","06","true","8","8","",""
"","","","","","","","","","","","html-button-response","138","2.0.0","205663","659584067824b64f084b6c76","1","45","863","","","","","","","","","<img src= rock_img/I_Pumice_06.jpg style=""width:8cm; height:6.9399999999999995cm;""><p style='font-size: 30px; color: green;'><strong>Correct!</strong></p><p style='font-size: 30px;'><strong>This rock is pumice</strong></p>","0","corr_feedback","1","train","17","","","","","","","",""
"","","","","","","","","","","","html-button-response","139","2.0.0","208024","659584067824b64f084b6c76","1","45","2360","","","","","","","","","<img src= ""rock_img/I_Gabbro_10.jpg"" style=""width:8cm; height:5.680000000000001cm;""><p>What type of rock is this?</p>","6","class_response","1","train","18","Peridotite","Gabbro","10","false","7","4","",""
"","","","","","","","","","","","html-button-response","140","2.0.0","208720","659584067824b64f084b6c76","1","45","693","","","","","","","","","<img src= rock_img/I_Gabbro_10.jpg style=""width:8cm; height:5.680000000000001cm;""><p style='font-size: 30px; color: red;'><strong>Incorrect!</strong></p><p style='font-size: 30px;'><strong>This rock is gabbro</strong></p>","0","corr_feedback","1","train","18","","","","","","","",""
"","","","","","","","","","","","html-button-response","141","2.0.0","210852","659584067824b64f084b6c76","1","45","2130","","","","","","","","","<img src= ""rock_img/I_Pegmatite_16.jpg"" style=""width:8cm; height:5.8cm;""><p>What type of rock is this?</p>","5","class_response","1","train","19","Pegmatite","Pegmatite","16","true","6","6","",""
"","","","","","","","","","","","html-button-response","142","2.0.0","212174","659584067824b64f084b6c76","1","45","1320","","","","","","","","","<img src= rock_img/I_Pegmatite_16.jpg style=""width:8cm; height:5.8cm;""><p style='font-size: 30px; color: green;'><strong>Correct!</strong></p><p style='font-size: 30px;'><strong>This rock is pegmatite</strong></p>","0","corr_feedback","1","train","19","","","","","","","",""
"","","","","","","","","","","","html-button-response","143","2.0.0","214493","659584067824b64f084b6c76","1","45","2317","","","","","","","","","<img src= ""rock_img/I_Basalt_05.jpg"" style=""width:8cm; height:8.18cm;""><p>What type of rock is this?</p>","1","class_response","1","train","20","Basalt","Basalt","05","true","2","2","",""
"","","","","","","","","","","","html-button-response","144","2.0.0","215443","659584067824b64f084b6c76","1","45","948","","","","","","","","","<img src= rock_img/I_Basalt_05.jpg style=""width:8cm; height:8.18cm;""><p style='font-size: 30px; color: green;'><strong>Correct!</strong></p><p style='font-size: 30px;'><strong>This rock is basalt</strong></p>","0","corr_feedback","1","train","20","","","","","","","",""
"","","","","","","","","","","","html-button-response","145","2.0.0","219098","659584067824b64f084b6c76","1","45","3653","","","","","","","","","<img src= ""rock_img/I_Peridotite_16.jpg"" style=""width:8cm; height:6.989999999999999cm;""><p>What type of rock is this?</p>","3","class_response","1","train","21","Gabbro","Peridotite","16","false","4","7","",""
"","","","","","","","","","","","html-button-response","146","2.0.0","219977","659584067824b64f084b6c76","1","45","876","","","","","","","","","<img src= rock_img/I_Peridotite_16.jpg style=""width:8cm; height:6.989999999999999cm;""><p style='font-size: 30px; color: red;'><strong>Incorrect!</strong></p><p style='font-size: 30px;'><strong>This rock is peridotite</strong></p>","0","corr_feedback","1","train","21","","","","","","","",""
"","","","","","","","","","","","html-button-response","147","2.0.0","221724","659584067824b64f084b6c76","1","45","1745","","","","","","","","","<img src= ""rock_img/I_Pumice_13.jpg"" style=""width:8cm; height:8.200000000000001cm;""><p>What type of rock is this?</p>","2","class_response","1","train","22","Diorite","Pumice","13","false","3","8","",""
"","","","","","","","","","","","html-button-response","148","2.0.0","222483","659584067824b64f084b6c76","1","45","758","","","","","","","","","<img src= rock_img/I_Pumice_13.jpg style=""width:8cm; height:8.200000000000001cm;""><p style='font-size: 30px; color: red;'><strong>Incorrect!</strong></p><p style='font-size: 30px;'><strong>This rock is pumice</strong></p>","0","corr_feedback","1","train","22","","","","","","","",""
"","","","","","","","","","","","html-button-response","149","2.0.0","223991","659584067824b64f084b6c76","1","45","1506","","","","","","","","","<img src= ""rock_img/I_Andesite_02.jpg"" style=""width:8cm; height:8.5cm;""><p>What type of rock is this?</p>","3","class_response","1","train","23","Gabbro","Andesite","02","false","4","1","",""
"","","","","","","","","","","","html-button-response","150","2.0.0","224780","659584067824b64f084b6c76","1","45","788","","","","","","","","","<img src= rock_img/I_Andesite_02.jpg style=""width:8cm; height:8.5cm;""><p style='font-size: 30px; color: red;'><strong>Incorrect!</strong></p><p style='font-size: 30px;'><strong>This rock is andesite</strong></p>","0","corr_feedback","1","train","23","","","","","","","",""
"","","","","","","","","","","","html-button-response","151","2.0.0","226154","659584067824b64f084b6c76","1","45","1371","","","","","","","","","<img src= ""rock_img/I_Obsidian_05.jpg"" style=""width:8cm; height:6.33cm;""><p>What type of rock is this?</p>","4","class_response","1","train","24","Obsidian","Obsidian","05","true","5","5","",""
"","","","","","","","","","","","html-button-response","152","2.0.0","226967","659584067824b64f084b6c76","1","45","811","","","","","","","","","<img src= rock_img/I_Obsidian_05.jpg style=""width:8cm; height:6.33cm;""><p style='font-size: 30px; color: green;'><strong>Correct!</strong></p><p style='font-size: 30px;'><strong>This rock is obsidian</strong></p>","0","corr_feedback","1","train","24","","","","","","","",""
"","","","","","","","","","","","html-button-response","153","2.0.0","229072","659584067824b64f084b6c76","1","45","2103","","","","","","","","","<img src= ""rock_img/I_Andesite_05.jpg"" style=""width:8cm; height:4.12cm;""><p>What type of rock is this?</p>","7","class_response","1","train","25","Pumice","Andesite","05","false","8","1","",""
"","","","","","","","","","","","html-button-response","154","2.0.0","229780","659584067824b64f084b6c76","1","45","705","","","","","","","","","<img src= rock_img/I_Andesite_05.jpg style=""width:8cm; height:4.12cm;""><p style='font-size: 30px; color: red;'><strong>Incorrect!</strong></p><p style='font-size: 30px;'><strong>This rock is andesite</strong></p>","0","corr_feedback","1","train","25","","","","","","","",""
"","","","","","","","","","","","html-button-response","155","2.0.0","231855","659584067824b64f084b6c76","1","45","2073","","","","","","","","","<img src= ""rock_img/I_Gabbro_09.jpg"" style=""width:8cm; height:7.279999999999999cm;""><p>What type of rock is this?</p>","3","class_response","1","train","26","Gabbro","Gabbro","09","true","4","4","",""
"","","","","","","","","","","","html-button-response","156","2.0.0","232634","659584067824b64f084b6c76","1","45","778","","","","","","","","","<img src= rock_img/I_Gabbro_09.jpg style=""width:8cm; height:7.279999999999999cm;""><p style='font-size: 30px; color: green;'><strong>Correct!</strong></p><p style='font-size: 30px;'><strong>This rock is gabbro</strong></p>","0","corr_feedback","1","train","26","","","","","","","",""
"","","","","","","","","","","","html-button-response","157","2.0.0","234381","659584067824b64f084b6c76","1","45","1745","","","","","","","","","<img src= ""rock_img/I_Diorite_13.jpg"" style=""width:8cm; height:6.29cm;""><p>What type of rock is this?</p>","2","class_response","1","train","27","Diorite","Diorite","13","true","3","3","",""
"","","","","","","","","","","","html-button-response","158","2.0.0","235302","659584067824b64f084b6c76","1","45","919","","","","","","","","","<img src= rock_img/I_Diorite_13.jpg style=""width:8cm; height:6.29cm;""><p style='font-size: 30px; color: green;'><strong>Correct!</strong></p><p style='font-size: 30px;'><strong>This rock is diorite</strong></p>","0","corr_feedback","1","train","27","","","","","","","",""
"","","","","","","","","","","","html-button-response","159","2.0.0","237316","659584067824b64f084b6c76","1","45","2012","","","","","","","","","<img src= ""rock_img/I_Pegmatite_03.jpg"" style=""width:8cm; height:5.239999999999999cm;""><p>What type of rock is this?</p>","3","class_response","1","train","28","Gabbro","Pegmatite","03","false","4","6","",""
"","","","","","","","","","","","html-button-response","160","2.0.0","238168","659584067824b64f084b6c76","1","45","851","","","","","","","","","<img src= rock_img/I_Pegmatite_03.jpg style=""width:8cm; height:5.239999999999999cm;""><p style='font-size: 30px; color: red;'><strong>Incorrect!</strong></p><p style='font-size: 30px;'><strong>This rock is pegmatite</strong></p>","0","corr_feedback","1","train","28","","","","","","","",""
"","","","","","","","","","","","html-button-response","161","2.0.0","239542","659584067824b64f084b6c76","1","45","1372","","","","","","","","","<img src= ""rock_img/I_Andesite_14.jpg"" style=""width:8cm; height:5.449999999999999cm;""><p>What type of rock is this?</p>","7","class_response","1","train","29","Pumice","Andesite","14","false","8","1","",""
"","","","","","","","","","","","html-button-response","162","2.0.0","240252","659584067824b64f084b6c76","1","45","707","","","","","","","","","<img src= rock_img/I_Andesite_14.jpg style=""width:8cm; height:5.449999999999999cm;""><p style='font-size: 30px; color: red;'><strong>Incorrect!</strong></p><p style='font-size: 30px;'><strong>This rock is andesite</strong></p>","0","corr_feedback","1","train","29","","","","","","","",""
"","","","","","","","","","","","html-button-response","163","2.0.0","241705","659584067824b64f084b6c76","1","45","1451","","","","","","","","","<img src= ""rock_img/I_Obsidian_07.jpg"" style=""width:8cm; height:4.76cm;""><p>What type of rock is this?</p>","4","class_response","1","train","30","Obsidian","Obsidian","07","true","5","5","",""
"","","","","","","","","","","","html-button-response","164","2.0.0","242481","659584067824b64f084b6c76","1","45","773","","","","","","","","","<img src= rock_img/I_Obsidian_07.jpg style=""width:8cm; height:4.76cm;""><p style='font-size: 30px; color: green;'><strong>Correct!</strong></p><p style='font-size: 30px;'><strong>This rock is obsidian</strong></p>","0","corr_feedback","1","train","30","","","","","","","",""
"","","","","","","","","","","","html-button-response","165","2.0.0","244958","659584067824b64f084b6c76","1","45","2475","","","","","","","","","<img src= ""rock_img/I_Peridotite_13.jpg"" style=""width:8cm; height:7.58cm;""><p>What type of rock is this?</p>","5","class_response","1","train","31","Pegmatite","Peridotite","13","false","6","7","",""
"","","","","","","","","","","","html-button-response","166","2.0.0","245748","659584067824b64f084b6c76","1","45","788","","","","","","","","","<img src= rock_img/I_Peridotite_13.jpg style=""width:8cm; height:7.58cm;""><p style='font-size: 30px; color: red;'><strong>Incorrect!</strong></p><p style='font-size: 30px;'><strong>This rock is peridotite</strong></p>","0","corr_feedback","1","train","31","","","","","","","",""
"","","","","","","","","","","","html-button-response","167","2.0.0","247482","659584067824b64f084b6c76","1","45","1732","","","","","","","","","<img src= ""rock_img/I_Obsidian_09.jpg"" style=""width:8cm; height:5cm;""><p>What type of rock is this?</p>","4","class_response","1","train","32","Obsidian","Obsidian","09","true","5","5","",""
"","","","","","","","","","","","html-button-response","168","2.0.0","248296","659584067824b64f084b6c76","1","45","812","","","","","","","","","<img src= rock_img/I_Obsidian_09.jpg style=""width:8cm; height:5cm;""><p style='font-size: 30px; color: green;'><strong>Correct!</strong></p><p style='font-size: 30px;'><strong>This rock is obsidian</strong></p>","0","corr_feedback","1","train","32","","","","","","","",""
"","","","","","","","","","","","html-button-response","169","2.0.0","250162","659584067824b64f084b6c76","1","45","1863","","","","","","","","","<img src= ""rock_img/I_Pumice_04.jpg"" style=""width:8cm; height:6.819999999999999cm;""><p>What type of rock is this?</p>","7","class_response","1","train","33","Pumice","Pumice","04","true","8","8","",""
"","","","","","","","","","","","html-button-response","170","2.0.0","250895","659584067824b64f084b6c76","1","45","730","","","","","","","","","<img src= rock_img/I_Pumice_04.jpg style=""width:8cm; height:6.819999999999999cm;""><p style='font-size: 30px; color: green;'><strong>Correct!</strong></p><p style='font-size: 30px;'><strong>This rock is pumice</strong></p>","0","corr_feedback","1","train","33","","","","","","","",""
"","","","","","","","","","","","html-button-response","171","2.0.0","253175","659584067824b64f084b6c76","1","45","2278","","","","","","","","","<img src= ""rock_img/I_Diorite_08.jpg"" style=""width:8cm; height:6.37cm;""><p>What type of rock is this?</p>","6","class_response","1","train","34","Peridotite","Diorite","08","false","7","3","",""
"","","","","","","","","","","","html-button-response","172","2.0.0","253909","659584067824b64f084b6c76","1","45","732","","","","","","","","","<img src= rock_img/I_Diorite_08.jpg style=""width:8cm; height:6.37cm;""><p style='font-size: 30px; color: red;'><strong>Incorrect!</strong></p><p style='font-size: 30px;'><strong>This rock is diorite</strong></p>","0","corr_feedback","1","train","34","","","","","","","",""
"","","","","","","","","","","","html-button-response","173","2.0.0","256430","659584067824b64f084b6c76","1","45","2519","","","","","","","","","<img src= ""rock_img/I_Gabbro_08.jpg"" style=""width:8cm; height:5.15cm;""><p>What type of rock is this?</p>","6","class_response","1","train","35","Peridotite","Gabbro","08","false","7","4","",""
"","","","","","","","","","","","html-button-response","174","2.0.0","257058","659584067824b64f084b6c76","1","45","626","","","","","","","","","<img src= rock_img/I_Gabbro_08.jpg style=""width:8cm; height:5.15cm;""><p style='font-size: 30px; color: red;'><strong>Incorrect!</strong></p><p style='font-size: 30px;'><strong>This rock is gabbro</strong></p>","0","corr_feedback","1","train","35","","","","","","","",""
"","","","","","","","","","","","html-button-response","175","2.0.0","258313","659584067824b64f084b6c76","1","45","1253","","","","","","","","","<img src= ""rock_img/I_Peridotite_06.jpg"" style=""width:8cm; height:7.53cm;""><p>What type of rock is this?</p>","2","class_response","1","train","36","Diorite","Peridotite","06","false","3","7","",""
"","","","","","","","","","","","html-button-response","176","2.0.0","259031","659584067824b64f084b6c76","1","45","717","","","","","","","","","<img src= rock_img/I_Peridotite_06.jpg style=""width:8cm; height:7.53cm;""><p style='font-size: 30px; color: red;'><strong>Incorrect!</strong></p><p style='font-size: 30px;'><strong>This rock is peridotite</strong></p>","0","corr_feedback","1","train","36","","","","","","","",""
"","","","","","","","","","","","html-button-response","177","2.0.0","260816","659584067824b64f084b6c76","1","45","1784","","","","","","","","","<img src= ""rock_img/I_Pumice_03.jpg"" style=""width:8cm; height:6.64cm;""><p>What type of rock is this?</p>","3","class_response","1","train","37","Gabbro","Pumice","03","false","4","8","",""
"","","","","","","","","","","","html-button-response","178","2.0.0","261621","659584067824b64f084b6c76","1","45","803","","","","","","","","","<img src= rock_img/I_Pumice_03.jpg style=""width:8cm; height:6.64cm;""><p style='font-size: 30px; color: red;'><strong>Incorrect!</strong></p><p style='font-size: 30px;'><strong>This rock is pumice</strong></p>","0","corr_feedback","1","train","37","","","","","","","",""
"","","","","","","","","","","","html-button-response","179","2.0.0","264433","659584067824b64f084b6c76","1","45","2810","","","","","","","","","<img src= ""rock_img/I_Gabbro_12.jpg"" style=""width:8cm; height:7.800000000000001cm;""><p>What type of rock is this?</p>","5","class_response","1","train","38","Pegmatite","Gabbro","12","false","6","4","",""
"","","","","","","","","","","","html-button-response","180","2.0.0","265157","659584067824b64f084b6c76","1","45","722","","","","","","","","","<img src= rock_img/I_Gabbro_12.jpg style=""width:8cm; height:7.800000000000001cm;""><p style='font-size: 30px; color: red;'><strong>Incorrect!</strong></p><p style='font-size: 30px;'><strong>This rock is gabbro</strong></p>","0","corr_feedback","1","train","38","","","","","","","",""
"","","","","","","","","","","","html-button-response","181","2.0.0","266795","659584067824b64f084b6c76","1","45","1636","","","","","","","","","<img src= ""rock_img/I_Pegmatite_12.jpg"" style=""width:8cm; height:5.7cm;""><p>What type of rock is this?</p>","3","class_response","1","train","39","Gabbro","Pegmatite","12","false","4","6","",""
"","","","","","","","","","","","html-button-response","182","2.0.0","267701","659584067824b64f084b6c76","1","45","904","","","","","","","","","<img src= rock_img/I_Pegmatite_12.jpg style=""width:8cm; height:5.7cm;""><p style='font-size: 30px; color: red;'><strong>Incorrect!</strong></p><p style='font-size: 30px;'><strong>This rock is pegmatite</strong></p>","0","corr_feedback","1","train","39","","","","","","","",""
"","","","","","","","","","","","html-button-response","183","2.0.0","269779","659584067824b64f084b6c76","1","45","2077","","","","","","","","","<img src= ""rock_img/I_Basalt_09.jpg"" style=""width:8cm; height:6.2cm;""><p>What type of rock is this?</p>","2","class_response","1","train","40","Diorite","Basalt","09","false","3","2","",""
"","","","","","","","","","","","html-button-response","184","2.0.0","270610","659584067824b64f084b6c76","1","45","829","","","","","","","","","<img src= rock_img/I_Basalt_09.jpg style=""width:8cm; height:6.2cm;""><p style='font-size: 30px; color: red;'><strong>Incorrect!</strong></p><p style='font-size: 30px;'><strong>This rock is basalt</strong></p>","0","corr_feedback","1","train","40","","","","","","","",""
"","","","","","","","","","","","html-button-response","185","2.0.0","273144","659584067824b64f084b6c76","1","45","2532","","","","","","","","","<img src= ""rock_img/I_Peridotite_15.jpg"" style=""width:8cm; height:6cm;""><p>What type of rock is this?</p>","3","class_response","1","train","41","Gabbro","Peridotite","15","false","4","7","",""
"","","","","","","","","","","","html-button-response","186","2.0.0","274062","659584067824b64f084b6c76","1","45","917","","","","","","","","","<img src= rock_img/I_Peridotite_15.jpg style=""width:8cm; height:6cm;""><p style='font-size: 30px; color: red;'><strong>Incorrect!</strong></p><p style='font-size: 30px;'><strong>This rock is peridotite</strong></p>","0","corr_feedback","1","train","41","","","","","","","",""
"","","","","","","","","","","","html-button-response","187","2.0.0","275478","659584067824b64f084b6c76","1","45","1414","","","","","","","","","<img src= ""rock_img/I_Basalt_01.jpg"" style=""width:8cm; height:7.880000000000001cm;""><p>What type of rock is this?</p>","1","class_response","1","train","42","Basalt","Basalt","01","true","2","2","",""
"","","","","","","","","","","","html-button-response","188","2.0.0","276476","659584067824b64f084b6c76","1","45","997","","","","","","","","","<img src= rock_img/I_Basalt_01.jpg style=""width:8cm; height:7.880000000000001cm;""><p style='font-size: 30px; color: green;'><strong>Correct!</strong></p><p style='font-size: 30px;'><strong>This rock is basalt</strong></p>","0","corr_feedback","1","train","42","","","","","","","",""
"","","","","","","","","","","","html-button-response","189","2.0.0","277770","659584067824b64f084b6c76","1","45","1292","","","","","","","","","<img src= ""rock_img/I_Obsidian_02.jpg"" style=""width:8cm; height:7.51cm;""><p>What type of rock is this?</p>","4","class_response","1","train","43","Obsidian","Obsidian","02","true","5","5","",""
"","","","","","","","","","","","html-button-response","190","2.0.0","278610","659584067824b64f084b6c76","1","45","840","","","","","","","","","<img src= rock_img/I_Obsidian_02.jpg style=""width:8cm; height:7.51cm;""><p style='font-size: 30px; color: green;'><strong>Correct!</strong></p><p style='font-size: 30px;'><strong>This rock is obsidian</strong></p>","0","corr_feedback","1","train","43","","","","","","","",""
"","","","","","","","","","","","html-button-response","191","2.0.0","279905","659584067824b64f084b6c76","1","45","1293","","","","","","","","","<img src= ""rock_img/I_Pumice_10.jpg"" style=""width:8cm; height:7.609999999999999cm;""><p>What type of rock is this?</p>","7","class_response","1","train","44","Pumice","Pumice","10","true","8","8","",""
"","","","","","","","","","","","html-button-response","192","2.0.0","280558","659584067824b64f084b6c76","1","45","652","","","","","","","","","<img src= rock_img/I_Pumice_10.jpg style=""width:8cm; height:7.609999999999999cm;""><p style='font-size: 30px; color: green;'><strong>Correct!</strong></p><p style='font-size: 30px;'><strong>This rock is pumice</strong></p>","0","corr_feedback","1","train","44","","","","","","","",""
"","","","","","","","","","","","html-button-response","193","2.0.0","282773","659584067824b64f084b6c76","1","45","2212","","","","","","","","","<img src= ""rock_img/I_Diorite_12.jpg"" style=""width:8cm; height:4.88cm;""><p>What type of rock is this?</p>","6","class_response","1","train","45","Peridotite","Diorite","12","false","7","3","",""
"","","","","","","","","","","","html-button-response","194","2.0.0","283492","659584067824b64f084b6c76","1","45","718","","","","","","","","","<img src= rock_img/I_Diorite_12.jpg style=""width:8cm; height:4.88cm;""><p style='font-size: 30px; color: red;'><strong>Incorrect!</strong></p><p style='font-size: 30px;'><strong>This rock is diorite</strong></p>","0","corr_feedback","1","train","45","","","","","","","",""
"","","","","","","","","","","","html-button-response","195","2.0.0","286199","659584067824b64f084b6c76","1","45","2706","","","","","","","","","<img src= ""rock_img/I_Basalt_08.jpg"" style=""width:8cm; height:10.44cm;""><p>What type of rock is this?</p>","5","class_response","1","train","46","Pegmatite","Basalt","08","false","6","2","",""
"","","","","","","","","","","","html-button-response","196","2.0.0","286947","659584067824b64f084b6c76","1","45","746","","","","","","","","","<img src= rock_img/I_Basalt_08.jpg style=""width:8cm; height:10.44cm;""><p style='font-size: 30px; color: red;'><strong>Incorrect!</strong></p><p style='font-size: 30px;'><strong>This rock is basalt</strong></p>","0","corr_feedback","1","train","46","","","","","","","",""
"","","","","","","","","","","","html-button-response","197","2.0.0","290081","659584067824b64f084b6c76","1","45","3133","","","","","","","","","<img src= ""rock_img/I_Andesite_07.jpg"" style=""width:8cm; height:5.93cm;""><p>What type of rock is this?</p>","0","class_response","1","train","47","Andesite","Andesite","07","true","1","1","",""
"","","","","","","","","","","","html-button-response","198","2.0.0","291402","659584067824b64f084b6c76","1","45","1320","","","","","","","","","<img src= rock_img/I_Andesite_07.jpg style=""width:8cm; height:5.93cm;""><p style='font-size: 30px; color: green;'><strong>Correct!</strong></p><p style='font-size: 30px;'><strong>This rock is andesite</strong></p>","0","corr_feedback","1","train","47","","","","","","","",""
"","","","","","","","","","","","html-button-response","199","2.0.0","293603","659584067824b64f084b6c76","1","45","2199","","","","","","","","","<img src= ""rock_img/I_Basalt_16.jpg"" style=""width:8cm; height:7.659999999999999cm;""><p>What type of rock is this?</p>","5","class_response","1","train","48","Pegmatite","Basalt","16","false","6","2","",""
"","","","","","","","","","","","html-button-response","200","2.0.0","294418","659584067824b64f084b6c76","1","45","814","","","","","","","","","<img src= rock_img/I_Basalt_16.jpg style=""width:8cm; height:7.659999999999999cm;""><p style='font-size: 30px; color: red;'><strong>Incorrect!</strong></p><p style='font-size: 30px;'><strong>This rock is basalt</strong></p>","0","corr_feedback","1","train","48","","","","","","","",""
"","","","","","","","","","","","instructions","203","2.0.0","302435","659584067824b64f084b6c76","1","45","8014","","","","","","","","[{""page_index"":0,""viewing_time"":3917},{""page_index"":1,""viewing_time"":4098}]","","","","","","","","","","","","","",""
"","","","","","","","","","","","html-button-response","204","2.0.0","303888","659584067824b64f084b6c76","1","45","1451","","","","","","","","","","0","start_test","","","","","","","","","","",""
"","","","","","","","","","","","html-button-response","205","2.0.0","306517","659584067824b64f084b6c76","1","45","2626","","","","","","","","","<img src= ""rock_img/I_Diorite_11.jpg"" style=""width:8cm; height:7.11cm;""><p>What type of rock is this?</p>","3","class_response","1","test","1","Gabbro","Diorite","11","false","4","3","",""
"","","","","","","","","","","","html-keyboard-response","206","2.0.0","307019","659584067824b64f084b6c76","1","45","null","","","","","","","","","<p style='font-size: 30px;'><strong>Okay</strong></p>","null","neutral_feedback","1","test","1","","","","","","","",""
"","","","","","","","","","","","html-button-response","207","2.0.0","309395","659584067824b64f084b6c76","1","45","2375","","","","","","","","","<img src= ""rock_img/I_Andesite_09.jpg"" style=""width:8cm; height:6cm;""><p>What type of rock is this?</p>","5","class_response","1","test","2","Pegmatite","Andesite","09","false","6","1","",""
"","","","","","","","","","","","html-keyboard-response","208","2.0.0","309897","659584067824b64f084b6c76","1","45","null","","","","","","","","","<p style='font-size: 30px;'><strong>Okay</strong></p>","null","neutral_feedback","1","test","2","","","","","","","",""
"","","","","","","","","","","","html-button-response","209","2.0.0","312584","659584067824b64f084b6c76","1","45","2683","","","","","","","","","<img src= ""rock_img/I_Peridotite_07.jpg"" style=""width:8cm; height:4.83cm;""><p>What type of rock is this?</p>","6","class_response","1","test","3","Peridotite","Peridotite","07","true","7","7","",""
"","","","","","","","","","","","html-keyboard-response","210","2.0.0","313086","659584067824b64f084b6c76","1","45","null","","","","","","","","","<p style='font-size: 30px;'><strong>Okay</strong></p>","null","neutral_feedback","1","test","3","","","","","","","",""
"","","","","","","","","","","","html-button-response","211","2.0.0","315730","659584067824b64f084b6c76","1","45","2640","","","","","","","","","<img src= ""rock_img/I_Pegmatite_10.jpg"" style=""width:8cm; height:4.16cm;""><p>What type of rock is this?</p>","2","class_response","1","test","4","Diorite","Pegmatite","10","false","3","6","",""
"","","","","","","","","","","","html-keyboard-response","212","2.0.0","316233","659584067824b64f084b6c76","1","45","null","","","","","","","","","<p style='font-size: 30px;'><strong>Okay</strong></p>","null","neutral_feedback","1","test","4","","","","","","","",""
"","","","","","","","","","","","html-button-response","213","2.0.0","318067","659584067824b64f084b6c76","1","45","1830","","","","","","","","","<img src= ""rock_img/I_Pumice_02.jpg"" style=""width:8cm; height:7.3999999999999995cm;""><p>What type of rock is this?</p>","7","class_response","1","test","5","Pumice","Pumice","02","true","8","8","",""
"","","","","","","","","","","","html-keyboard-response","214","2.0.0","318571","659584067824b64f084b6c76","1","45","null","","","","","","","","","<p style='font-size: 30px;'><strong>Okay</strong></p>","null","neutral_feedback","1","test","5","","","","","","","",""
"","","","","","","","","","","","html-button-response","215","2.0.0","320573","659584067824b64f084b6c76","1","45","1999","","","","","","","","","<img src= ""rock_img/I_Peridotite_05.jpg"" style=""width:8cm; height:7.1499999999999995cm;""><p>What type of rock is this?</p>","0","class_response","1","test","6","Andesite","Peridotite","05","false","1","7","",""
"","","","","","","","","","","","html-keyboard-response","216","2.0.0","321075","659584067824b64f084b6c76","1","45","null","","","","","","","","","<p style='font-size: 30px;'><strong>Okay</strong></p>","null","neutral_feedback","1","test","6","","","","","","","",""
"","","","","","","","","","","","html-button-response","217","2.0.0","323990","659584067824b64f084b6c76","1","45","2911","","","","","","","","","<img src= ""rock_img/I_Basalt_02.jpg"" style=""width:8cm; height:6.45cm;""><p>What type of rock is this?</p>","5","class_response","1","test","7","Pegmatite","Basalt","02","false","6","2","",""
"","","","","","","","","","","","html-keyboard-response","218","2.0.0","324492","659584067824b64f084b6c76","1","45","null","","","","","","","","","<p style='font-size: 30px;'><strong>Okay</strong></p>","null","neutral_feedback","1","test","7","","","","","","","",""
"","","","","","","","","","","","html-button-response","219","2.0.0","327002","659584067824b64f084b6c76","1","45","2507","","","","","","","","","<img src= ""rock_img/I_Diorite_10.jpg"" style=""width:8cm; height:5.949999999999999cm;""><p>What type of rock is this?</p>","2","class_response","1","test","8","Diorite","Diorite","10","true","3","3","",""
"","","","","","","","","","","","html-keyboard-response","220","2.0.0","327505","659584067824b64f084b6c76","1","45","null","","","","","","","","","<p style='font-size: 30px;'><strong>Okay</strong></p>","null","neutral_feedback","1","test","8","","","","","","","",""
"","","","","","","","","","","","html-button-response","221","2.0.0","328921","659584067824b64f084b6c76","1","45","1413","","","","","","","","","<img src= ""rock_img/I_Andesite_11.jpg"" style=""width:8cm; height:4.92cm;""><p>What type of rock is this?</p>","6","class_response","1","test","9","Peridotite","Andesite","11","false","7","1","",""
"","","","","","","","","","","","html-keyboard-response","222","2.0.0","329423","659584067824b64f084b6c76","1","45","null","","","","","","","","","<p style='font-size: 30px;'><strong>Okay</strong></p>","null","neutral_feedback","1","test","9","","","","","","","",""
"","","","","","","","","","","","html-button-response","223","2.0.0","330685","659584067824b64f084b6c76","1","45","1259","","","","","","","","","<img src= ""rock_img/I_Obsidian_14.jpg"" style=""width:8cm; height:7.64cm;""><p>What type of rock is this?</p>","4","class_response","1","test","10","Obsidian","Obsidian","14","true","5","5","",""
"","","","","","","","","","","","html-keyboard-response","224","2.0.0","331187","659584067824b64f084b6c76","1","45","null","","","","","","","","","<p style='font-size: 30px;'><strong>Okay</strong></p>","null","neutral_feedback","1","test","10","","","","","","","",""
"","","","","","","","","","","","html-button-response","225","2.0.0","334325","659584067824b64f084b6c76","1","45","3136","","","","","","","","","<img src= ""rock_img/I_Gabbro_03.jpg"" style=""width:8cm; height:8.52cm;""><p>What type of rock is this?</p>","6","class_response","1","test","11","Peridotite","Gabbro","03","false","7","4","",""
"","","","","","","","","","","","html-keyboard-response","226","2.0.0","334828","659584067824b64f084b6c76","1","45","null","","","","","","","","","<p style='font-size: 30px;'><strong>Okay</strong></p>","null","neutral_feedback","1","test","11","","","","","","","",""
"","","","","","","","","","","","html-button-response","227","2.0.0","337112","659584067824b64f084b6c76","1","45","2283","","","","","","","","","<img src= ""rock_img/I_Basalt_11.jpg"" style=""width:8cm; height:5.359999999999999cm;""><p>What type of rock is this?</p>","2","class_response","1","test","12","Diorite","Basalt","11","false","3","2","",""
"","","","","","","","","","","","html-keyboard-response","228","2.0.0","337614","659584067824b64f084b6c76","1","45","null","","","","","","","","","<p style='font-size: 30px;'><strong>Okay</strong></p>","null","neutral_feedback","1","test","12","","","","","","","",""
"","","","","","","","","","","","html-button-response","229","2.0.0","339914","659584067824b64f084b6c76","1","45","2297","","","","","","","","","<img src= ""rock_img/I_Gabbro_01.jpg"" style=""width:8cm; height:5.21cm;""><p>What type of rock is this?</p>","2","class_response","1","test","13","Diorite","Gabbro","01","false","3","4","",""
"","","","","","","","","","","","html-keyboard-response","230","2.0.0","340416","659584067824b64f084b6c76","1","45","null","","","","","","","","","<p style='font-size: 30px;'><strong>Okay</strong></p>","null","neutral_feedback","1","test","13","","","","","","","",""
"","","","","","","","","","","","html-button-response","231","2.0.0","341942","659584067824b64f084b6c76","1","45","1522","","","","","","","","","<img src= ""rock_img/I_Diorite_14.jpg"" style=""width:8cm; height:5.71cm;""><p>What type of rock is this?</p>","0","class_response","1","test","14","Andesite","Diorite","14","false","1","3","",""
"","","","","","","","","","","","html-keyboard-response","232","2.0.0","342446","659584067824b64f084b6c76","1","45","null","","","","","","","","","<p style='font-size: 30px;'><strong>Okay</strong></p>","null","neutral_feedback","1","test","14","","","","","","","",""
"","","","","","","","","","","","html-button-response","233","2.0.0","344331","659584067824b64f084b6c76","1","45","1882","","","","","","","","","<img src= ""rock_img/I_Peridotite_10.jpg"" style=""width:8cm; height:5.390000000000001cm;""><p>What type of rock is this?</p>","7","class_response","1","test","15","Pumice","Peridotite","10","false","8","7","",""
"","","","","","","","","","","","html-keyboard-response","234","2.0.0","344832","659584067824b64f084b6c76","1","45","null","","","","","","","","","<p style='font-size: 30px;'><strong>Okay</strong></p>","null","neutral_feedback","1","test","15","","","","","","","",""
"","","","","","","","","","","","html-button-response","235","2.0.0","346609","659584067824b64f084b6c76","1","45","1775","","","","","","","","","<img src= ""rock_img/I_Andesite_03.jpg"" style=""width:8cm; height:5.73cm;""><p>What type of rock is this?</p>","1","class_response","1","test","16","Basalt","Andesite","03","false","2","1","",""
"","","","","","","","","","","","html-keyboard-response","236","2.0.0","347111","659584067824b64f084b6c76","1","45","null","","","","","","","","","<p style='font-size: 30px;'><strong>Okay</strong></p>","null","neutral_feedback","1","test","16","","","","","","","",""
"","","","","","","","","","","","html-button-response","237","2.0.0","349517","659584067824b64f084b6c76","1","45","2403","","","","","","","","","<img src= ""rock_img/I_Diorite_02.jpg"" style=""width:8cm; height:6.27cm;""><p>What type of rock is this?</p>","0","class_response","1","test","17","Andesite","Diorite","02","false","1","3","",""
"","","","","","","","","","","","html-keyboard-response","238","2.0.0","350020","659584067824b64f084b6c76","1","45","null","","","","","","","","","<p style='font-size: 30px;'><strong>Okay</strong></p>","null","neutral_feedback","1","test","17","","","","","","","",""
"","","","","","","","","","","","html-button-response","239","2.0.0","352212","659584067824b64f084b6c76","1","45","2190","","","","","","","","","<img src= ""rock_img/I_Gabbro_05.jpg"" style=""width:8cm; height:6cm;""><p>What type of rock is this?</p>","5","class_response","1","test","18","Pegmatite","Gabbro","05","false","6","4","",""
"","","","","","","","","","","","html-keyboard-response","240","2.0.0","352714","659584067824b64f084b6c76","1","45","null","","","","","","","","","<p style='font-size: 30px;'><strong>Okay</strong></p>","null","neutral_feedback","1","test","18","","","","","","","",""
"","","","","","","","","","","","html-button-response","241","2.0.0","354066","659584067824b64f084b6c76","1","45","1349","","","","","","","","","<img src= ""rock_img/I_Obsidian_08.jpg"" style=""width:8cm; height:7.39cm;""><p>What type of rock is this?</p>","4","class_response","1","test","19","Obsidian","Obsidian","08","true","5","5","",""
"","","","","","","","","","","","html-keyboard-response","242","2.0.0","354568","659584067824b64f084b6c76","1","45","null","","","","","","","","","<p style='font-size: 30px;'><strong>Okay</strong></p>","null","neutral_feedback","1","test","19","","","","","","","",""
"","","","","","","","","","","","html-button-response","243","2.0.0","356830","659584067824b64f084b6c76","1","45","2256","","","","","","","","","<img src= ""rock_img/I_Pegmatite_13.jpg"" style=""width:8cm; height:4.95cm;""><p>What type of rock is this?</p>","0","class_response","1","test","20","Andesite","Pegmatite","13","false","1","6","",""
"","","","","","","","","","","","html-keyboard-response","244","2.0.0","357333","659584067824b64f084b6c76","1","45","null","","","","","","","","","<p style='font-size: 30px;'><strong>Okay</strong></p>","null","neutral_feedback","1","test","20","","","","","","","",""
"","","","","","","","","","","","html-button-response","245","2.0.0","358488","659584067824b64f084b6c76","1","45","1150","","","","","","","","","<img src= ""rock_img/I_Peridotite_04.jpg"" style=""width:8cm; height:6.680000000000001cm;""><p>What type of rock is this?</p>","0","class_response","1","test","21","Andesite","Peridotite","04","false","1","7","",""
"","","","","","","","","","","","html-keyboard-response","246","2.0.0","358991","659584067824b64f084b6c76","1","45","null","","","","","","","","","<p style='font-size: 30px;'><strong>Okay</strong></p>","null","neutral_feedback","1","test","21","","","","","","","",""
"","","","","","","","","","","","html-button-response","247","2.0.0","360999","659584067824b64f084b6c76","1","45","2003","","","","","","","","","<img src= ""rock_img/I_Gabbro_11.jpg"" style=""width:8cm; height:6.2cm;""><p>What type of rock is this?</p>","6","class_response","1","test","22","Peridotite","Gabbro","11","false","7","4","",""
"","","","","","","","","","","","html-keyboard-response","248","2.0.0","361501","659584067824b64f084b6c76","1","45","null","","","","","","","","","<p style='font-size: 30px;'><strong>Okay</strong></p>","null","neutral_feedback","1","test","22","","","","","","","",""
"","","","","","","","","","","","html-button-response","249","2.0.0","364003","659584067824b64f084b6c76","1","45","2497","","","","","","","","","<img src= ""rock_img/I_Diorite_07.jpg"" style=""width:8cm; height:5.239999999999999cm;""><p>What type of rock is this?</p>","0","class_response","1","test","23","Andesite","Diorite","07","false","1","3","",""
"","","","","","","","","","","","html-keyboard-response","250","2.0.0","364505","659584067824b64f084b6c76","1","45","null","","","","","","","","","<p style='font-size: 30px;'><strong>Okay</strong></p>","null","neutral_feedback","1","test","23","","","","","","","",""
"","","","","","","","","","","","html-button-response","251","2.0.0","365899","659584067824b64f084b6c76","1","45","1389","","","","","","","","","<img src= ""rock_img/I_Pumice_14.jpg"" style=""width:8cm; height:6.39cm;""><p>What type of rock is this?</p>","7","class_response","1","test","24","Pumice","Pumice","14","true","8","8","",""
"","","","","","","","","","","","html-keyboard-response","252","2.0.0","366402","659584067824b64f084b6c76","1","45","null","","","","","","","","","<p style='font-size: 30px;'><strong>Okay</strong></p>","null","neutral_feedback","1","test","24","","","","","","","",""
"","","","","","","","","","","","html-button-response","253","2.0.0","368264","659584067824b64f084b6c76","1","45","1857","","","","","","","","","<img src= ""rock_img/I_Gabbro_16.jpg"" style=""width:8cm; height:6.44cm;""><p>What type of rock is this?</p>","3","class_response","1","test","25","Gabbro","Gabbro","16","true","4","4","",""
"","","","","","","","","","","","html-keyboard-response","254","2.0.0","368767","659584067824b64f084b6c76","1","45","null","","","","","","","","","<p style='font-size: 30px;'><strong>Okay</strong></p>","null","neutral_feedback","1","test","25","","","","","","","",""
"","","","","","","","","","","","html-button-response","255","2.0.0","370838","659584067824b64f084b6c76","1","45","2069","","","","","","","","","<img src= ""rock_img/I_Peridotite_08.jpg"" style=""width:8cm; height:6.7cm;""><p>What type of rock is this?</p>","2","class_response","1","test","26","Diorite","Peridotite","08","false","3","7","",""
"","","","","","","","","","","","html-keyboard-response","256","2.0.0","371340","659584067824b64f084b6c76","1","45","null","","","","","","","","","<p style='font-size: 30px;'><strong>Okay</strong></p>","null","neutral_feedback","1","test","26","","","","","","","",""
"","","","","","","","","","","","html-button-response","257","2.0.0","372961","659584067824b64f084b6c76","1","45","1616","","","","","","","","","<img src= ""rock_img/I_Pegmatite_06.jpg"" style=""width:8cm; height:5.17cm;""><p>What type of rock is this?</p>","5","class_response","1","test","27","Pegmatite","Pegmatite","06","true","6","6","",""
"","","","","","","","","","","","html-keyboard-response","258","2.0.0","373465","659584067824b64f084b6c76","1","45","null","","","","","","","","","<p style='font-size: 30px;'><strong>Okay</strong></p>","null","neutral_feedback","1","test","27","","","","","","","",""
"","","","","","","","","","","","html-button-response","259","2.0.0","375414","659584067824b64f084b6c76","1","45","1946","","","","","","","","","<img src= ""rock_img/I_Pumice_15.jpg"" style=""width:8cm; height:7.86cm;""><p>What type of rock is this?</p>","7","class_response","1","test","28","Pumice","Pumice","15","true","8","8","",""
"","","","","","","","","","","","html-keyboard-response","260","2.0.0","375917","659584067824b64f084b6c76","1","45","null","","","","","","","","","<p style='font-size: 30px;'><strong>Okay</strong></p>","null","neutral_feedback","1","test","28","","","","","","","",""
"","","","","","","","","","","","html-button-response","261","2.0.0","377098","659584067824b64f084b6c76","1","45","1177","","","","","","","","","<img src= ""rock_img/I_Pumice_05.jpg"" style=""width:8cm; height:7.25cm;""><p>What type of rock is this?</p>","6","class_response","1","test","29","Peridotite","Pumice","05","false","7","8","",""
"","","","","","","","","","","","html-keyboard-response","262","2.0.0","377600","659584067824b64f084b6c76","1","45","null","","","","","","","","","<p style='font-size: 30px;'><strong>Okay</strong></p>","null","neutral_feedback","1","test","29","","","","","","","",""
"","","","","","","","","","","","html-button-response","263","2.0.0","379113","659584067824b64f084b6c76","1","45","1510","","","","","","","","","<img src= ""rock_img/I_Gabbro_15.jpg"" style=""width:8cm; height:6.29cm;""><p>What type of rock is this?</p>","7","class_response","1","test","30","Pumice","Gabbro","15","false","8","4","",""
"","","","","","","","","","","","html-keyboard-response","264","2.0.0","379615","659584067824b64f084b6c76","1","45","null","","","","","","","","","<p style='font-size: 30px;'><strong>Okay</strong></p>","null","neutral_feedback","1","test","30","","","","","","","",""
"","","","","","","","","","","","html-button-response","265","2.0.0","381765","659584067824b64f084b6c76","1","45","2146","","","","","","","","","<img src= ""rock_img/I_Basalt_04.jpg"" style=""width:8cm; height:7.53cm;""><p>What type of rock is this?</p>","1","class_response","1","test","31","Basalt","Basalt","04","true","2","2","",""
"","","","","","","","","","","","html-keyboard-response","266","2.0.0","382268","659584067824b64f084b6c76","1","45","null","","","","","","","","","<p style='font-size: 30px;'><strong>Okay</strong></p>","null","neutral_feedback","1","test","31","","","","","","","",""
"","","","","","","","","","","","html-button-response","267","2.0.0","383516","659584067824b64f084b6c76","1","45","1243","","","","","","","","","<img src= ""rock_img/I_Obsidian_11.jpg"" style=""width:8cm; height:6.05cm;""><p>What type of rock is this?</p>","4","class_response","1","test","32","Obsidian","Obsidian","11","true","5","5","",""
"","","","","","","","","","","","html-keyboard-response","268","2.0.0","384018","659584067824b64f084b6c76","1","45","null","","","","","","","","","<p style='font-size: 30px;'><strong>Okay</strong></p>","null","neutral_feedback","1","test","32","","","","","","","",""
"","","","","","","","","","","","html-button-response","269","2.0.0","385930","659584067824b64f084b6c76","1","45","1908","","","","","","","","","<img src= ""rock_img/I_Basalt_10.jpg"" style=""width:8cm; height:5.85cm;""><p>What type of rock is this?</p>","4","class_response","1","test","33","Obsidian","Basalt","10","false","5","2","",""
"","","","","","","","","","","","html-keyboard-response","270","2.0.0","386432","659584067824b64f084b6c76","1","45","null","","","","","","","","","<p style='font-size: 30px;'><strong>Okay</strong></p>","null","neutral_feedback","1","test","33","","","","","","","",""
"","","","","","","","","","","","html-button-response","271","2.0.0","387998","659584067824b64f084b6c76","1","45","1563","","","","","","","","","<img src= ""rock_img/I_Andesite_01.jpg"" style=""width:8cm; height:5.87cm;""><p>What type of rock is this?</p>","1","class_response","1","test","34","Basalt","Andesite","01","false","2","1","",""
"","","","","","","","","","","","html-keyboard-response","272","2.0.0","388501","659584067824b64f084b6c76","1","45","null","","","","","","","","","<p style='font-size: 30px;'><strong>Okay</strong></p>","null","neutral_feedback","1","test","34","","","","","","","",""
"","","","","","","","","","","","html-button-response","273","2.0.0","391334","659584067824b64f084b6c76","1","45","2829","","","","","","","","","<img src= ""rock_img/I_Pegmatite_08.jpg"" style=""width:8cm; height:7.68cm;""><p>What type of rock is this?</p>","0","class_response","1","test","35","Andesite","Pegmatite","08","false","1","6","",""
"","","","","","","","","","","","html-keyboard-response","274","2.0.0","391838","659584067824b64f084b6c76","1","45","null","","","","","","","","","<p style='font-size: 30px;'><strong>Okay</strong></p>","null","neutral_feedback","1","test","35","","","","","","","",""
"","","","","","","","","","","","html-button-response","275","2.0.0","393908","659584067824b64f084b6c76","1","45","2069","","","","","","","","","<img src= ""rock_img/I_Pegmatite_15.jpg"" style=""width:8cm; height:6cm;""><p>What type of rock is this?</p>","0","class_response","1","test","36","Andesite","Pegmatite","15","false","1","6","",""
"","","","","","","","","","","","html-keyboard-response","276","2.0.0","394411","659584067824b64f084b6c76","1","45","null","","","","","","","","","<p style='font-size: 30px;'><strong>Okay</strong></p>","null","neutral_feedback","1","test","36","","","","","","","",""
"","","","","","","","","","","","html-button-response","277","2.0.0","396283","659584067824b64f084b6c76","1","45","1868","","","","","","","","","<img src= ""rock_img/I_Andesite_06.jpg"" style=""width:8cm; height:6.840000000000001cm;""><p>What type of rock is this?</p>","6","class_response","1","test","37","Peridotite","Andesite","06","false","7","1","",""
"","","","","","","","","","","","html-keyboard-response","278","2.0.0","396786","659584067824b64f084b6c76","1","45","null","","","","","","","","","<p style='font-size: 30px;'><strong>Okay</strong></p>","null","neutral_feedback","1","test","37","","","","","","","",""
"","","","","","","","","","","","html-button-response","279","2.0.0","397965","659584067824b64f084b6c76","1","45","1175","","","","","","","","","<img src= ""rock_img/I_Obsidian_16.jpg"" style=""width:8cm; height:9.3cm;""><p>What type of rock is this?</p>","4","class_response","1","test","38","Obsidian","Obsidian","16","true","5","5","",""
"","","","","","","","","","","","html-keyboard-response","280","2.0.0","398466","659584067824b64f084b6c76","1","45","null","","","","","","","","","<p style='font-size: 30px;'><strong>Okay</strong></p>","null","neutral_feedback","1","test","38","","","","","","","",""
"","","","","","","","","","","","html-button-response","281","2.0.0","401059","659584067824b64f084b6c76","1","45","2590","","","","","","","","","<img src= ""rock_img/I_Andesite_10.jpg"" style=""width:8cm; height:4.16cm;""><p>What type of rock is this?</p>","5","class_response","1","test","39","Pegmatite","Andesite","10","false","6","1","",""
"","","","","","","","","","","","html-keyboard-response","282","2.0.0","401561","659584067824b64f084b6c76","1","45","null","","","","","","","","","<p style='font-size: 30px;'><strong>Okay</strong></p>","null","neutral_feedback","1","test","39","","","","","","","",""
"","","","","","","","","","","","html-button-response","283","2.0.0","402699","659584067824b64f084b6c76","1","45","1134","","","","","","","","","<img src= ""rock_img/I_Basalt_06.jpg"" style=""width:8cm; height:7.06cm;""><p>What type of rock is this?</p>","4","class_response","1","test","40","Obsidian","Basalt","06","false","5","2","",""
"","","","","","","","","","","","html-keyboard-response","284","2.0.0","403201","659584067824b64f084b6c76","1","45","null","","","","","","","","","<p style='font-size: 30px;'><strong>Okay</strong></p>","null","neutral_feedback","1","test","40","","","","","","","",""
"","","","","","","","","","","","html-button-response","285","2.0.0","405219","659584067824b64f084b6c76","1","45","2015","","","","","","","","","<img src= ""rock_img/I_Basalt_14.jpg"" style=""width:8cm; height:5.82cm;""><p>What type of rock is this?</p>","2","class_response","1","test","41","Diorite","Basalt","14","false","3","2","",""
"","","","","","","","","","","","html-keyboard-response","286","2.0.0","405722","659584067824b64f084b6c76","1","45","null","","","","","","","","","<p style='font-size: 30px;'><strong>Okay</strong></p>","null","neutral_feedback","1","test","41","","","","","","","",""
"","","","","","","","","","","","html-button-response","287","2.0.0","407633","659584067824b64f084b6c76","1","45","1908","","","","","","","","","<img src= ""rock_img/I_Pegmatite_05.jpg"" style=""width:8cm; height:7.300000000000001cm;""><p>What type of rock is this?</p>","6","class_response","1","test","42","Peridotite","Pegmatite","05","false","7","6","",""
"","","","","","","","","","","","html-keyboard-response","288","2.0.0","408135","659584067824b64f084b6c76","1","45","null","","","","","","","","","<p style='font-size: 30px;'><strong>Okay</strong></p>","null","neutral_feedback","1","test","42","","","","","","","",""
"","","","","","","","","","","","html-button-response","289","2.0.0","410397","659584067824b64f084b6c76","1","45","2258","","","","","","","","","<img src= ""rock_img/I_Diorite_09.jpg"" style=""width:8cm; height:5.27cm;""><p>What type of rock is this?</p>","3","class_response","1","test","43","Gabbro","Diorite","09","false","4","3","",""
"","","","","","","","","","","","html-keyboard-response","290","2.0.0","410900","659584067824b64f084b6c76","1","45","null","","","","","","","","","<p style='font-size: 30px;'><strong>Okay</strong></p>","null","neutral_feedback","1","test","43","","","","","","","",""
"","","","","","","","","","","","html-button-response","291","2.0.0","412117","659584067824b64f084b6c76","1","45","1213","","","","","","","","","<img src= ""rock_img/I_Peridotite_12.jpg"" style=""width:8cm; height:4.54cm;""><p>What type of rock is this?</p>","3","class_response","1","test","44","Gabbro","Peridotite","12","false","4","7","",""
"","","","","","","","","","","","html-keyboard-response","292","2.0.0","412619","659584067824b64f084b6c76","1","45","null","","","","","","","","","<p style='font-size: 30px;'><strong>Okay</strong></p>","null","neutral_feedback","1","test","44","","","","","","","",""
"","","","","","","","","","","","html-button-response","293","2.0.0","413931","659584067824b64f084b6c76","1","45","1308","","","","","","","","","<img src= ""rock_img/I_Obsidian_12.jpg"" style=""width:8cm; height:6.53cm;""><p>What type of rock is this?</p>","4","class_response","1","test","45","Obsidian","Obsidian","12","true","5","5","",""
"","","","","","","","","","","","html-keyboard-response","294","2.0.0","414434","659584067824b64f084b6c76","1","45","null","","","","","","","","","<p style='font-size: 30px;'><strong>Okay</strong></p>","null","neutral_feedback","1","test","45","","","","","","","",""
"","","","","","","","","","","","html-button-response","295","2.0.0","415904","659584067824b64f084b6c76","1","45","1466","","","","","","","","","<img src= ""rock_img/I_Pumice_16.jpg"" style=""width:8cm; height:6.79cm;""><p>What type of rock is this?</p>","1","class_response","1","test","46","Basalt","Pumice","16","false","2","8","",""
"","","","","","","","","","","","html-keyboard-response","296","2.0.0","416408","659584067824b64f084b6c76","1","45","null","","","","","","","","","<p style='font-size: 30px;'><strong>Okay</strong></p>","null","neutral_feedback","1","test","46","","","","","","","",""
"","","","","","","","","","","","html-button-response","297","2.0.0","417597","659584067824b64f084b6c76","1","45","1186","","","","","","","","","<img src= ""rock_img/I_Obsidian_04.jpg"" style=""width:8cm; height:6.930000000000001cm;""><p>What type of rock is this?</p>","4","class_response","1","test","47","Obsidian","Obsidian","04","true","5","5","",""
"","","","","","","","","","","","html-keyboard-response","298","2.0.0","418099","659584067824b64f084b6c76","1","45","null","","","","","","","","","<p style='font-size: 30px;'><strong>Okay</strong></p>","null","neutral_feedback","1","test","47","","","","","","","",""
"","","","","","","","","","","","html-button-response","299","2.0.0","419760","659584067824b64f084b6c76","1","45","1657","","","","","","","","","<img src= ""rock_img/I_Pumice_08.jpg"" style=""width:8cm; height:6.67cm;""><p>What type of rock is this?</p>","0","class_response","1","test","48","Andesite","Pumice","08","false","1","8","",""
"","","","","","","","","","","","html-keyboard-response","300","2.0.0","420263","659584067824b64f084b6c76","1","45","null","","","","","","","","","<p style='font-size: 30px;'><strong>Okay</strong></p>","null","neutral_feedback","1","test","48","","","","","","","",""
"","","","","","","","","","","","html-button-response","301","2.0.0","433780","659584067824b64f084b6c76","1","45","","","","","","","","","","","","cycle_feedback","","","","","","","","","","6119.200000017881","7389.299999982119"
"","","","","","","","","","","","html-button-response","303","2.0.0","436421","659584067824b64f084b6c76","1","45","2639","","","","","","","","","","0","start_train","","","","","","","","","","",""
"","","","","","","","","","","","html-button-response","304","2.0.0","438701","659584067824b64f084b6c76","1","45","2277","","","","","","","","","<img src= ""rock_img/I_Pumice_13.jpg"" style=""width:8cm; height:8.200000000000001cm;""><p>What type of rock is this?</p>","3","class_response","2","train","1","Gabbro","Pumice","13","false","4","8","",""
