"width","height","webaudio","browser","browser_version","mobile","os","fullscreen","vsync_rate","webcam","microphone","trial_type","trial_index","plugin_version","time_elapsed","subjID","condition","stimID","rt","url","success","value","timeout","failed_images","failed_audio","failed_video","view_history","stimulus","response","trialType","cycle","phase","trial","resp","cat","token","corr","resp_num","cat_num","time_fb1","time_fb2"
"1912","954","true","edge-chromium","131.0.0","false","Windows 10","true","61.24","true","true","browser-check","0","2.0.0","2577","670d0152550cbd15e8f278e2","1","17","","","","","","","","","","","","","","","","","","","","","","",""
"","","","","","","","","","","","external-html","1","2.0.0","7573","670d0152550cbd15e8f278e2","1","17","4900","consent_form.html","","","","","","","","","","","","","","","","","","","","",""
"","","","","","","","","","","","fullscreen","2","2.0.0","12862","670d0152550cbd15e8f278e2","1","17","4274","","true","","","","","","","","","","","","","","","","","","","",""
"","","","","","","","","","","","call-function","3","2.0.0","12863","670d0152550cbd15e8f278e2","1","17","","","","{}","","","","","","","","","","","","","","","","","","",""
"","","","","","","","","","","","preload","4","2.0.0","14815","670d0152550cbd15e8f278e2","1","17","","","true","","false","[]","[]","[]","","","","","","","","","","","","","","",""
"","","","","","","","","","","","instructions","5","2.0.0","55671","670d0152550cbd15e8f278e2","1","17","40855","","","","","","","","[{""page_index"":0,""viewing_time"":10155},{""page_index"":1,""viewing_time"":27056},{""page_index"":2,""viewing_time"":3644}]","","","","","","","","","","","","","",""
"","","","","","","","","","","","html-button-response","6","2.0.0","57717","670d0152550cbd15e8f278e2","1","17","2044","","","","","","","","","","0","start_test","","","","","","","","","","",""
"","","","","","","","","","","","html-button-response","7","2.0.0","67421","670d0152550cbd15e8f278e2","1","17","9702","","","","","","","","","<img src= ""rock_img/I_Basalt_12.jpg"" style=""width:8cm; height:6.010000000000001cm;""><p>What type of rock is this?</p>","7","class_response","0","test","1","Pumice","Basalt","12","false","8","2","",""
"","","","","","","","","","","","html-keyboard-response","8","2.0.0","67927","670d0152550cbd15e8f278e2","1","17","null","","","","","","","","","<p style='font-size: 30px;'><strong>Okay</strong></p>","null","neutral_feedback","0","test","1","","","","","","","",""
"","","","","","","","","","","","html-button-response","9","2.0.0","73627","670d0152550cbd15e8f278e2","1","17","5697","","","","","","","","","<img src= ""rock_img/I_Basalt_01.jpg"" style=""width:8cm; height:7.880000000000001cm;""><p>What type of rock is this?</p>","0","class_response","0","test","2","Andesite","Basalt","01","false","1","2","",""
"","","","","","","","","","","","html-keyboard-response","10","2.0.0","74137","670d0152550cbd15e8f278e2","1","17","null","","","","","","","","","<p style='font-size: 30px;'><strong>Okay</strong></p>","null","neutral_feedback","0","test","2","","","","","","","",""
"","","","","","","","","","","","html-button-response","11","2.0.0","82337","670d0152550cbd15e8f278e2","1","17","8198","","","","","","","","","<img src= ""rock_img/I_Andesite_05.jpg"" style=""width:8cm; height:4.12cm;""><p>What type of rock is this?</p>","5","class_response","0","test","3","Pegmatite","Andesite","05","false","6","1","",""
"","","","","","","","","","","","html-keyboard-response","12","2.0.0","82850","670d0152550cbd15e8f278e2","1","17","null","","","","","","","","","<p style='font-size: 30px;'><strong>Okay</strong></p>","null","neutral_feedback","0","test","3","","","","","","","",""
"","","","","","","","","","","","html-button-response","13","2.0.0","86783","670d0152550cbd15e8f278e2","1","17","3931","","","","","","","","","<img src= ""rock_img/I_Basalt_09.jpg"" style=""width:8cm; height:6.2cm;""><p>What type of rock is this?</p>","6","class_response","0","test","4","Peridotite","Basalt","09","false","7","2","",""
"","","","","","","","","","","","html-keyboard-response","14","2.0.0","87299","670d0152550cbd15e8f278e2","1","17","null","","","","","","","","","<p style='font-size: 30px;'><strong>Okay</strong></p>","null","neutral_feedback","0","test","4","","","","","","","",""
"","","","","","","","","","","","html-button-response","15","2.0.0","89637","670d0152550cbd15e8f278e2","1","17","2337","","","","","","","","","<img src= ""rock_img/I_Peridotite_07.jpg"" style=""width:8cm; height:4.83cm;""><p>What type of rock is this?</p>","2","class_response","0","test","5","Diorite","Peridotite","07","false","3","7","",""
"","","","","","","","","","","","html-keyboard-response","16","2.0.0","90146","670d0152550cbd15e8f278e2","1","17","null","","","","","","","","","<p style='font-size: 30px;'><strong>Okay</strong></p>","null","neutral_feedback","0","test","5","","","","","","","",""
"","","","","","","","","","","","html-button-response","17","2.0.0","94905","670d0152550cbd15e8f278e2","1","17","4757","","","","","","","","","<img src= ""rock_img/I_Diorite_02.jpg"" style=""width:8cm; height:6.27cm;""><p>What type of rock is this?</p>","0","class_response","0","test","6","Andesite","Diorite","02","false","1","3","",""
"","","","","","","","","","","","html-keyboard-response","18","2.0.0","95414","670d0152550cbd15e8f278e2","1","17","null","","","","","","","","","<p style='font-size: 30px;'><strong>Okay</strong></p>","null","neutral_feedback","0","test","6","","","","","","","",""
"","","","","","","","","","","","html-button-response","19","2.0.0","97201","670d0152550cbd15e8f278e2","1","17","1786","","","","","","","","","<img src= ""rock_img/I_Basalt_05.jpg"" style=""width:8cm; height:8.18cm;""><p>What type of rock is this?</p>","0","class_response","0","test","7","Andesite","Basalt","05","false","1","2","",""
"","","","","","","","","","","","html-keyboard-response","20","2.0.0","97707","670d0152550cbd15e8f278e2","1","17","null","","","","","","","","","<p style='font-size: 30px;'><strong>Okay</strong></p>","null","neutral_feedback","0","test","7","","","","","","","",""
"","","","","","","","","","","","html-button-response","21","2.0.0","101713","670d0152550cbd15e8f278e2","1","17","4005","","","","","","","","","<img src= ""rock_img/I_Obsidian_16.jpg"" style=""width:8cm; height:9.3cm;""><p>What type of rock is this?</p>","0","class_response","0","test","8","Andesite","Obsidian","16","false","1","5","",""
"","","","","","","","","","","","html-keyboard-response","22","2.0.0","102217","670d0152550cbd15e8f278e2","1","17","null","","","","","","","","","<p style='font-size: 30px;'><strong>Okay</strong></p>","null","neutral_feedback","0","test","8","","","","","","","",""
"","","","","","","","","","","","html-button-response","23","2.0.0","105537","670d0152550cbd15e8f278e2","1","17","3317","","","","","","","","","<img src= ""rock_img/I_Pegmatite_15.jpg"" style=""width:8cm; height:6cm;""><p>What type of rock is this?</p>","6","class_response","0","test","9","Peridotite","Pegmatite","15","false","7","6","",""
"","","","","","","","","","","","html-keyboard-response","24","2.0.0","106045","670d0152550cbd15e8f278e2","1","17","null","","","","","","","","","<p style='font-size: 30px;'><strong>Okay</strong></p>","null","neutral_feedback","0","test","9","","","","","","","",""
"","","","","","","","","","","","html-button-response","25","2.0.0","108223","670d0152550cbd15e8f278e2","1","17","2176","","","","","","","","","<img src= ""rock_img/I_Gabbro_15.jpg"" style=""width:8cm; height:6.29cm;""><p>What type of rock is this?</p>","2","class_response","0","test","10","Diorite","Gabbro","15","false","3","4","",""
"","","","","","","","","","","","html-keyboard-response","26","2.0.0","108733","670d0152550cbd15e8f278e2","1","17","null","","","","","","","","","<p style='font-size: 30px;'><strong>Okay</strong></p>","null","neutral_feedback","0","test","10","","","","","","","",""
"","","","","","","","","","","","html-button-response","27","2.0.0","111673","670d0152550cbd15e8f278e2","1","17","2937","","","","","","","","","<img src= ""rock_img/I_Pegmatite_09.jpg"" style=""width:8cm; height:4.03cm;""><p>What type of rock is this?</p>","5","class_response","0","test","11","Pegmatite","Pegmatite","09","true","6","6","",""
"","","","","","","","","","","","html-keyboard-response","28","2.0.0","112182","670d0152550cbd15e8f278e2","1","17","null","","","","","","","","","<p style='font-size: 30px;'><strong>Okay</strong></p>","null","neutral_feedback","0","test","11","","","","","","","",""
"","","","","","","","","","","","html-button-response","29","2.0.0","114096","670d0152550cbd15e8f278e2","1","17","1913","","","","","","","","","<img src= ""rock_img/I_Obsidian_12.jpg"" style=""width:8cm; height:6.53cm;""><p>What type of rock is this?</p>","0","class_response","0","test","12","Andesite","Obsidian","12","false","1","5","",""
"","","","","","","","","","","","html-keyboard-response","30","2.0.0","114609","670d0152550cbd15e8f278e2","1","17","null","","","","","","","","","<p style='font-size: 30px;'><strong>Okay</strong></p>","null","neutral_feedback","0","test","12","","","","","","","",""
"","","","","","","","","","","","html-button-response","31","2.0.0","120350","670d0152550cbd15e8f278e2","1","17","5740","","","","","","","","","<img src= ""rock_img/I_Diorite_15.jpg"" style=""width:8cm; height:5.54cm;""><p>What type of rock is this?</p>","7","class_response","0","test","13","Pumice","Diorite","15","false","8","3","",""
"","","","","","","","","","","","html-keyboard-response","32","2.0.0","120859","670d0152550cbd15e8f278e2","1","17","null","","","","","","","","","<p style='font-size: 30px;'><strong>Okay</strong></p>","null","neutral_feedback","0","test","13","","","","","","","",""
"","","","","","","","","","","","html-button-response","33","2.0.0","123155","670d0152550cbd15e8f278e2","1","17","2295","","","","","","","","","<img src= ""rock_img/I_Peridotite_08.jpg"" style=""width:8cm; height:6.7cm;""><p>What type of rock is this?</p>","6","class_response","0","test","14","Peridotite","Peridotite","08","true","7","7","",""
"","","","","","","","","","","","html-keyboard-response","34","2.0.0","123659","670d0152550cbd15e8f278e2","1","17","null","","","","","","","","","<p style='font-size: 30px;'><strong>Okay</strong></p>","null","neutral_feedback","0","test","14","","","","","","","",""
"","","","","","","","","","","","html-button-response","35","2.0.0","125893","670d0152550cbd15e8f278e2","1","17","2232","","","","","","","","","<img src= ""rock_img/I_Gabbro_13.jpg"" style=""width:8cm; height:5.08cm;""><p>What type of rock is this?</p>","2","class_response","0","test","15","Diorite","Gabbro","13","false","3","4","",""
"","","","","","","","","","","","html-keyboard-response","36","2.0.0","126409","670d0152550cbd15e8f278e2","1","17","null","","","","","","","","","<p style='font-size: 30px;'><strong>Okay</strong></p>","null","neutral_feedback","0","test","15","","","","","","","",""
"","","","","","","","","","","","html-button-response","37","2.0.0","128159","670d0152550cbd15e8f278e2","1","17","1749","","","","","","","","","<img src= ""rock_img/I_Andesite_14.jpg"" style=""width:8cm; height:5.449999999999999cm;""><p>What type of rock is this?</p>","3","class_response","0","test","16","Gabbro","Andesite","14","false","4","1","",""
"","","","","","","","","","","","html-keyboard-response","38","2.0.0","128676","670d0152550cbd15e8f278e2","1","17","null","","","","","","","","","<p style='font-size: 30px;'><strong>Okay</strong></p>","null","neutral_feedback","0","test","16","","","","","","","",""
"","","","","","","","","","","","html-button-response","39","2.0.0","131195","670d0152550cbd15e8f278e2","1","17","2518","","","","","","","","","<img src= ""rock_img/I_Pumice_06.jpg"" style=""width:8cm; height:6.9399999999999995cm;""><p>What type of rock is this?</p>","5","class_response","0","test","17","Pegmatite","Pumice","06","false","6","8","",""
"","","","","","","","","","","","html-keyboard-response","40","2.0.0","131697","670d0152550cbd15e8f278e2","1","17","null","","","","","","","","","<p style='font-size: 30px;'><strong>Okay</strong></p>","null","neutral_feedback","0","test","17","","","","","","","",""
"","","","","","","","","","","","html-button-response","41","2.0.0","134453","670d0152550cbd15e8f278e2","1","17","2755","","","","","","","","","<img src= ""rock_img/I_Pumice_04.jpg"" style=""width:8cm; height:6.819999999999999cm;""><p>What type of rock is this?</p>","4","class_response","0","test","18","Obsidian","Pumice","04","false","5","8","",""
"","","","","","","","","","","","html-keyboard-response","42","2.0.0","134963","670d0152550cbd15e8f278e2","1","17","null","","","","","","","","","<p style='font-size: 30px;'><strong>Okay</strong></p>","null","neutral_feedback","0","test","18","","","","","","","",""
"","","","","","","","","","","","html-button-response","43","2.0.0","137561","670d0152550cbd15e8f278e2","1","17","2596","","","","","","","","","<img src= ""rock_img/I_Andesite_10.jpg"" style=""width:8cm; height:4.16cm;""><p>What type of rock is this?</p>","6","class_response","0","test","19","Peridotite","Andesite","10","false","7","1","",""
"","","","","","","","","","","","html-keyboard-response","44","2.0.0","138074","670d0152550cbd15e8f278e2","1","17","null","","","","","","","","","<p style='font-size: 30px;'><strong>Okay</strong></p>","null","neutral_feedback","0","test","19","","","","","","","",""
"","","","","","","","","","","","html-button-response","45","2.0.0","139861","670d0152550cbd15e8f278e2","1","17","1785","","","","","","","","","<img src= ""rock_img/I_Obsidian_06.jpg"" style=""width:8cm; height:6.8cm;""><p>What type of rock is this?</p>","0","class_response","0","test","20","Andesite","Obsidian","06","false","1","5","",""
"","","","","","","","","","","","html-keyboard-response","46","2.0.0","140372","670d0152550cbd15e8f278e2","1","17","null","","","","","","","","","<p style='font-size: 30px;'><strong>Okay</strong></p>","null","neutral_feedback","0","test","20","","","","","","","",""
"","","","","","","","","","","","html-button-response","47","2.0.0","143203","670d0152550cbd15e8f278e2","1","17","2830","","","","","","","","","<img src= ""rock_img/I_Gabbro_16.jpg"" style=""width:8cm; height:6.44cm;""><p>What type of rock is this?</p>","7","class_response","0","test","21","Pumice","Gabbro","16","false","8","4","",""
"","","","","","","","","","","","html-keyboard-response","48","2.0.0","143711","670d0152550cbd15e8f278e2","1","17","null","","","","","","","","","<p style='font-size: 30px;'><strong>Okay</strong></p>","null","neutral_feedback","0","test","21","","","","","","","",""
"","","","","","","","","","","","html-button-response","49","2.0.0","145485","670d0152550cbd15e8f278e2","1","17","1772","","","","","","","","","<img src= ""rock_img/I_Peridotite_05.jpg"" style=""width:8cm; height:7.1499999999999995cm;""><p>What type of rock is this?</p>","6","class_response","0","test","22","Peridotite","Peridotite","05","true","7","7","",""
"","","","","","","","","","","","html-keyboard-response","50","2.0.0","145989","670d0152550cbd15e8f278e2","1","17","null","","","","","","","","","<p style='font-size: 30px;'><strong>Okay</strong></p>","null","neutral_feedback","0","test","22","","","","","","","",""
"","","","","","","","","","","","html-button-response","51","2.0.0","147805","670d0152550cbd15e8f278e2","1","17","1813","","","","","","","","","<img src= ""rock_img/I_Peridotite_13.jpg"" style=""width:8cm; height:7.58cm;""><p>What type of rock is this?</p>","2","class_response","0","test","23","Diorite","Peridotite","13","false","3","7","",""
"","","","","","","","","","","","html-keyboard-response","52","2.0.0","148307","670d0152550cbd15e8f278e2","1","17","null","","","","","","","","","<p style='font-size: 30px;'><strong>Okay</strong></p>","null","neutral_feedback","0","test","23","","","","","","","",""
"","","","","","","","","","","","html-button-response","53","2.0.0","150837","670d0152550cbd15e8f278e2","1","17","2528","","","","","","","","","<img src= ""rock_img/I_Pegmatite_16.jpg"" style=""width:8cm; height:5.8cm;""><p>What type of rock is this?</p>","5","class_response","0","test","24","Pegmatite","Pegmatite","16","true","6","6","",""
"","","","","","","","","","","","html-keyboard-response","54","2.0.0","151339","670d0152550cbd15e8f278e2","1","17","null","","","","","","","","","<p style='font-size: 30px;'><strong>Okay</strong></p>","null","neutral_feedback","0","test","24","","","","","","","",""
"","","","","","","","","","","","html-button-response","55","2.0.0","152999","670d0152550cbd15e8f278e2","1","17","1658","","","","","","","","","<img src= ""rock_img/I_Obsidian_09.jpg"" style=""width:8cm; height:5cm;""><p>What type of rock is this?</p>","0","class_response","0","test","25","Andesite","Obsidian","09","false","1","5","",""
"","","","","","","","","","","","html-keyboard-response","56","2.0.0","153500","670d0152550cbd15e8f278e2","1","17","null","","","","","","","","","<p style='font-size: 30px;'><strong>Okay</strong></p>","null","neutral_feedback","0","test","25","","","","","","","",""
"","","","","","","","","","","","html-button-response","57","2.0.0","156255","670d0152550cbd15e8f278e2","1","17","2753","","","","","","","","","<img src= ""rock_img/I_Diorite_13.jpg"" style=""width:8cm; height:6.29cm;""><p>What type of rock is this?</p>","3","class_response","0","test","26","Gabbro","Diorite","13","false","4","3","",""
"","","","","","","","","","","","html-keyboard-response","58","2.0.0","156770","670d0152550cbd15e8f278e2","1","17","null","","","","","","","","","<p style='font-size: 30px;'><strong>Okay</strong></p>","null","neutral_feedback","0","test","26","","","","","","","",""
"","","","","","","","","","","","html-button-response","59","2.0.0","158207","670d0152550cbd15e8f278e2","1","17","1436","","","","","","","","","<img src= ""rock_img/I_Peridotite_04.jpg"" style=""width:8cm; height:6.680000000000001cm;""><p>What type of rock is this?</p>","2","class_response","0","test","27","Diorite","Peridotite","04","false","3","7","",""
"","","","","","","","","","","","html-keyboard-response","60","2.0.0","158721","670d0152550cbd15e8f278e2","1","17","null","","","","","","","","","<p style='font-size: 30px;'><strong>Okay</strong></p>","null","neutral_feedback","0","test","27","","","","","","","",""
"","","","","","","","","","","","html-button-response","61","2.0.0","161423","670d0152550cbd15e8f278e2","1","17","2700","","","","","","","","","<img src= ""rock_img/I_Basalt_11.jpg"" style=""width:8cm; height:5.359999999999999cm;""><p>What type of rock is this?</p>","4","class_response","0","test","28","Obsidian","Basalt","11","false","5","2","",""
"","","","","","","","","","","","html-keyboard-response","62","2.0.0","161937","670d0152550cbd15e8f278e2","1","17","null","","","","","","","","","<p style='font-size: 30px;'><strong>Okay</strong></p>","null","neutral_feedback","0","test","28","","","","","","","",""
"","","","","","","","","","","","html-button-response","63","2.0.0","163099","670d0152550cbd15e8f278e2","1","17","1160","","","","","","","","","<img src= ""rock_img/I_Obsidian_10.jpg"" style=""width:8cm; height:6.260000000000001cm;""><p>What type of rock is this?</p>","0","class_response","0","test","29","Andesite","Obsidian","10","false","1","5","",""
"","","","","","","","","","","","html-keyboard-response","64","2.0.0","163602","670d0152550cbd15e8f278e2","1","17","null","","","","","","","","","<p style='font-size: 30px;'><strong>Okay</strong></p>","null","neutral_feedback","0","test","29","","","","","","","",""
"","","","","","","","","","","","html-button-response","65","2.0.0","165039","670d0152550cbd15e8f278e2","1","17","1436","","","","","","","","","<img src= ""rock_img/I_Pegmatite_05.jpg"" style=""width:8cm; height:7.300000000000001cm;""><p>What type of rock is this?</p>","1","class_response","0","test","30","Basalt","Pegmatite","05","false","2","6","",""
"","","","","","","","","","","","html-keyboard-response","66","2.0.0","165549","670d0152550cbd15e8f278e2","1","17","null","","","","","","","","","<p style='font-size: 30px;'><strong>Okay</strong></p>","null","neutral_feedback","0","test","30","","","","","","","",""
"","","","","","","","","","","","html-button-response","67","2.0.0","167080","670d0152550cbd15e8f278e2","1","17","1530","","","","","","","","","<img src= ""rock_img/I_Andesite_07.jpg"" style=""width:8cm; height:5.93cm;""><p>What type of rock is this?</p>","2","class_response","0","test","31","Diorite","Andesite","07","false","3","1","",""
"","","","","","","","","","","","html-keyboard-response","68","2.0.0","167581","670d0152550cbd15e8f278e2","1","17","null","","","","","","","","","<p style='font-size: 30px;'><strong>Okay</strong></p>","null","neutral_feedback","0","test","31","","","","","","","",""
"","","","","","","","","","","","html-button-response","69","2.0.0","168925","670d0152550cbd15e8f278e2","1","17","1342","","","","","","","","","<img src= ""rock_img/I_Gabbro_01.jpg"" style=""width:8cm; height:5.21cm;""><p>What type of rock is this?</p>","5","class_response","0","test","32","Pegmatite","Gabbro","01","false","6","4","",""
"","","","","","","","","","","","html-keyboard-response","70","2.0.0","169426","670d0152550cbd15e8f278e2","1","17","null","","","","","","","","","<p style='font-size: 30px;'><strong>Okay</strong></p>","null","neutral_feedback","0","test","32","","","","","","","",""
"","","","","","","","","","","","html-button-response","71","2.0.0","171589","670d0152550cbd15e8f278e2","1","17","2161","","","","","","","","","<img src= ""rock_img/I_Andesite_02.jpg"" style=""width:8cm; height:8.5cm;""><p>What type of rock is this?</p>","1","class_response","0","test","33","Basalt","Andesite","02","false","2","1","",""
"","","","","","","","","","","","html-keyboard-response","72","2.0.0","172096","670d0152550cbd15e8f278e2","1","17","null","","","","","","","","","<p style='font-size: 30px;'><strong>Okay</strong></p>","null","neutral_feedback","0","test","33","","","","","","","",""
"","","","","","","","","","","","html-button-response","73","2.0.0","174120","670d0152550cbd15e8f278e2","1","17","2022","","","","","","","","","<img src= ""rock_img/I_Gabbro_03.jpg"" style=""width:8cm; height:8.52cm;""><p>What type of rock is this?</p>","6","class_response","0","test","34","Peridotite","Gabbro","03","false","7","4","",""
"","","","","","","","","","","","html-keyboard-response","74","2.0.0","174635","670d0152550cbd15e8f278e2","1","17","null","","","","","","","","","<p style='font-size: 30px;'><strong>Okay</strong></p>","null","neutral_feedback","0","test","34","","","","","","","",""
"","","","","","","","","","","","html-button-response","75","2.0.0","175935","670d0152550cbd15e8f278e2","1","17","1299","","","","","","","","","<img src= ""rock_img/I_Pegmatite_12.jpg"" style=""width:8cm; height:5.7cm;""><p>What type of rock is this?</p>","7","class_response","0","test","35","Pumice","Pegmatite","12","false","8","6","",""
"","","","","","","","","","","","html-keyboard-response","76","2.0.0","176451","670d0152550cbd15e8f278e2","1","17","null","","","","","","","","","<p style='font-size: 30px;'><strong>Okay</strong></p>","null","neutral_feedback","0","test","35","","","","","","","",""
"","","","","","","","","","","","html-button-response","77","2.0.0","177647","670d0152550cbd15e8f278e2","1","17","1194","","","","","","","","","<img src= ""rock_img/I_Obsidian_04.jpg"" style=""width:8cm; height:6.930000000000001cm;""><p>What type of rock is this?</p>","0","class_response","0","test","36","Andesite","Obsidian","04","false","1","5","",""
"","","","","","","","","","","","html-keyboard-response","78","2.0.0","178153","670d0152550cbd15e8f278e2","1","17","null","","","","","","","","","<p style='font-size: 30px;'><strong>Okay</strong></p>","null","neutral_feedback","0","test","36","","","","","","","",""
"","","","","","","","","","","","html-button-response","79","2.0.0","179615","670d0152550cbd15e8f278e2","1","17","1460","","","","","","","","","<img src= ""rock_img/I_Pumice_14.jpg"" style=""width:8cm; height:6.39cm;""><p>What type of rock is this?</p>","5","class_response","0","test","37","Pegmatite","Pumice","14","false","6","8","",""
"","","","","","","","","","","","html-keyboard-response","80","2.0.0","180117","670d0152550cbd15e8f278e2","1","17","null","","","","","","","","","<p style='font-size: 30px;'><strong>Okay</strong></p>","null","neutral_feedback","0","test","37","","","","","","","",""
"","","","","","","","","","","","html-button-response","81","2.0.0","182919","670d0152550cbd15e8f278e2","1","17","2801","","","","","","","","","<img src= ""rock_img/I_Andesite_03.jpg"" style=""width:8cm; height:5.73cm;""><p>What type of rock is this?</p>","1","class_response","0","test","38","Basalt","Andesite","03","false","2","1","",""
"","","","","","","","","","","","html-keyboard-response","82","2.0.0","183420","670d0152550cbd15e8f278e2","1","17","null","","","","","","","","","<p style='font-size: 30px;'><strong>Okay</strong></p>","null","neutral_feedback","0","test","38","","","","","","","",""
"","","","","","","","","","","","html-button-response","83","2.0.0","184393","670d0152550cbd15e8f278e2","1","17","972","","","","","","","","","<img src= ""rock_img/I_Pegmatite_07.jpg"" style=""width:8cm; height:6.7cm;""><p>What type of rock is this?</p>","3","class_response","0","test","39","Gabbro","Pegmatite","07","false","4","6","",""
"","","","","","","","","","","","html-keyboard-response","84","2.0.0","184896","670d0152550cbd15e8f278e2","1","17","null","","","","","","","","","<p style='font-size: 30px;'><strong>Okay</strong></p>","null","neutral_feedback","0","test","39","","","","","","","",""
"","","","","","","","","","","","html-button-response","85","2.0.0","185855","670d0152550cbd15e8f278e2","1","17","957","","","","","","","","","<img src= ""rock_img/I_Gabbro_11.jpg"" style=""width:8cm; height:6.2cm;""><p>What type of rock is this?</p>","7","class_response","0","test","40","Pumice","Gabbro","11","false","8","4","",""
"","","","","","","","","","","","html-keyboard-response","86","2.0.0","186365","670d0152550cbd15e8f278e2","1","17","null","","","","","","","","","<p style='font-size: 30px;'><strong>Okay</strong></p>","null","neutral_feedback","0","test","40","","","","","","","",""
"","","","","","","","","","","","html-button-response","87","2.0.0","187257","670d0152550cbd15e8f278e2","1","17","890","","","","","","","","","<img src= ""rock_img/I_Basalt_14.jpg"" style=""width:8cm; height:5.82cm;""><p>What type of rock is this?</p>","6","class_response","0","test","41","Peridotite","Basalt","14","false","7","2","",""
"","","","","","","","","","","","html-keyboard-response","88","2.0.0","187765","670d0152550cbd15e8f278e2","1","17","null","","","","","","","","","<p style='font-size: 30px;'><strong>Okay</strong></p>","null","neutral_feedback","0","test","41","","","","","","","",""
"","","","","","","","","","","","html-button-response","89","2.0.0","189411","670d0152550cbd15e8f278e2","1","17","1644","","","","","","","","","<img src= ""rock_img/I_Pumice_15.jpg"" style=""width:8cm; height:7.86cm;""><p>What type of rock is this?</p>","5","class_response","0","test","42","Pegmatite","Pumice","15","false","6","8","",""
"","","","","","","","","","","","html-keyboard-response","90","2.0.0","189911","670d0152550cbd15e8f278e2","1","17","null","","","","","","","","","<p style='font-size: 30px;'><strong>Okay</strong></p>","null","neutral_feedback","0","test","42","","","","","","","",""
"","","","","","","","","","","","html-button-response","91","2.0.0","191141","670d0152550cbd15e8f278e2","1","17","1228","","","","","","","","","<img src= ""rock_img/I_Pumice_10.jpg"" style=""width:8cm; height:7.609999999999999cm;""><p>What type of rock is this?</p>","4","class_response","0","test","43","Obsidian","Pumice","10","false","5","8","",""
"","","","","","","","","","","","html-keyboard-response","92","2.0.0","191648","670d0152550cbd15e8f278e2","1","17","null","","","","","","","","","<p style='font-size: 30px;'><strong>Okay</strong></p>","null","neutral_feedback","0","test","43","","","","","","","",""
"","","","","","","","","","","","html-button-response","93","2.0.0","192807","670d0152550cbd15e8f278e2","1","17","1157","","","","","","","","","<img src= ""rock_img/I_Diorite_08.jpg"" style=""width:8cm; height:6.37cm;""><p>What type of rock is this?</p>","1","class_response","0","test","44","Basalt","Diorite","08","false","2","3","",""
"","","","","","","","","","","","html-keyboard-response","94","2.0.0","193308","670d0152550cbd15e8f278e2","1","17","null","","","","","","","","","<p style='font-size: 30px;'><strong>Okay</strong></p>","null","neutral_feedback","0","test","44","","","","","","","",""
"","","","","","","","","","","","html-button-response","95","2.0.0","194235","670d0152550cbd15e8f278e2","1","17","926","","","","","","","","","<img src= ""rock_img/I_Peridotite_14.jpg"" style=""width:8cm; height:5.3cm;""><p>What type of rock is this?</p>","6","class_response","0","test","45","Peridotite","Peridotite","14","true","7","7","",""
"","","","","","","","","","","","html-keyboard-response","96","2.0.0","194736","670d0152550cbd15e8f278e2","1","17","null","","","","","","","","","<p style='font-size: 30px;'><strong>Okay</strong></p>","null","neutral_feedback","0","test","45","","","","","","","",""
"","","","","","","","","","","","html-button-response","97","2.0.0","195941","670d0152550cbd15e8f278e2","1","17","1204","","","","","","","","","<img src= ""rock_img/I_Diorite_14.jpg"" style=""width:8cm; height:5.71cm;""><p>What type of rock is this?</p>","3","class_response","0","test","46","Gabbro","Diorite","14","false","4","3","",""
"","","","","","","","","","","","html-keyboard-response","98","2.0.0","196448","670d0152550cbd15e8f278e2","1","17","null","","","","","","","","","<p style='font-size: 30px;'><strong>Okay</strong></p>","null","neutral_feedback","0","test","46","","","","","","","",""
"","","","","","","","","","","","html-button-response","99","2.0.0","197361","670d0152550cbd15e8f278e2","1","17","911","","","","","","","","","<img src= ""rock_img/I_Pumice_16.jpg"" style=""width:8cm; height:6.79cm;""><p>What type of rock is this?</p>","2","class_response","0","test","47","Diorite","Pumice","16","false","3","8","",""
"","","","","","","","","","","","html-keyboard-response","100","2.0.0","197862","670d0152550cbd15e8f278e2","1","17","null","","","","","","","","","<p style='font-size: 30px;'><strong>Okay</strong></p>","null","neutral_feedback","0","test","47","","","","","","","",""
"","","","","","","","","","","","html-button-response","101","2.0.0","198727","670d0152550cbd15e8f278e2","1","17","864","","","","","","","","","<img src= ""rock_img/I_Diorite_07.jpg"" style=""width:8cm; height:5.239999999999999cm;""><p>What type of rock is this?</p>","7","class_response","0","test","48","Pumice","Diorite","07","false","8","3","",""
"","","","","","","","","","","","html-keyboard-response","102","2.0.0","199232","670d0152550cbd15e8f278e2","1","17","null","","","","","","","","","<p style='font-size: 30px;'><strong>Okay</strong></p>","null","neutral_feedback","0","test","48","","","","","","","",""
"","","","","","","","","","","","instructions","103","2.0.0","227593","670d0152550cbd15e8f278e2","1","17","28340","","","","","","","","[{""page_index"":0,""viewing_time"":16844},{""page_index"":1,""viewing_time"":2830},{""page_index"":2,""viewing_time"":8666}]","","","","","","","","","","","","","",""
"","","","","","","","","","","","html-button-response","104","2.0.0","234072","670d0152550cbd15e8f278e2","1","17","6479","","","","","","","","","","0","start_train","","","","","","","","","","",""
"","","","","","","","","","","","html-button-response","105","2.0.0","237695","670d0152550cbd15e8f278e2","1","17","3621","","","","","","","","","<img src= ""rock_img/I_Pegmatite_03.jpg"" style=""width:8cm; height:5.239999999999999cm;""><p>What type of rock is this?</p>","2","class_response","1","train","1","Diorite","Pegmatite","03","false","3","6","",""
"","","","","","","","","","","","html-button-response","106","2.0.0","240915","670d0152550cbd15e8f278e2","1","17","3218","","","","","","","","","<img src= rock_img/I_Pegmatite_03.jpg style=""width:8cm; height:5.239999999999999cm;""><p style='font-size: 30px; color: red;'><strong>Incorrect!</strong></p><p style='font-size: 30px;'><strong>This rock is pegmatite</strong></p>","0","corr_feedback","1","train","1","","","","","","","",""
"","","","","","","","","","","","html-button-response","107","2.0.0","244423","670d0152550cbd15e8f278e2","1","17","3507","","","","","","","","","<img src= ""rock_img/I_Andesite_09.jpg"" style=""width:8cm; height:6cm;""><p>What type of rock is this?</p>","2","class_response","1","train","2","Diorite","Andesite","09","false","3","1","",""
"","","","","","","","","","","","html-button-response","108","2.0.0","247021","670d0152550cbd15e8f278e2","1","17","2596","","","","","","","","","<img src= rock_img/I_Andesite_09.jpg style=""width:8cm; height:6cm;""><p style='font-size: 30px; color: red;'><strong>Incorrect!</strong></p><p style='font-size: 30px;'><strong>This rock is andesite</strong></p>","0","corr_feedback","1","train","2","","","","","","","",""
"","","","","","","","","","","","html-button-response","109","2.0.0","249279","670d0152550cbd15e8f278e2","1","17","2257","","","","","","","","","<img src= ""rock_img/I_Obsidian_11.jpg"" style=""width:8cm; height:6.05cm;""><p>What type of rock is this?</p>","0","class_response","1","train","3","Andesite","Obsidian","11","false","1","5","",""
"","","","","","","","","","","","html-button-response","110","2.0.0","251363","670d0152550cbd15e8f278e2","1","17","2083","","","","","","","","","<img src= rock_img/I_Obsidian_11.jpg style=""width:8cm; height:6.05cm;""><p style='font-size: 30px; color: red;'><strong>Incorrect!</strong></p><p style='font-size: 30px;'><strong>This rock is obsidian</strong></p>","0","corr_feedback","1","train","3","","","","","","","",""
"","","","","","","","","","","","html-button-response","111","2.0.0","254353","670d0152550cbd15e8f278e2","1","17","2989","","","","","","","","","<img src= ""rock_img/I_Andesite_06.jpg"" style=""width:8cm; height:6.840000000000001cm;""><p>What type of rock is this?</p>","7","class_response","1","train","4","Pumice","Andesite","06","false","8","1","",""
"","","","","","","","","","","","html-button-response","112","2.0.0","256207","670d0152550cbd15e8f278e2","1","17","1853","","","","","","","","","<img src= rock_img/I_Andesite_06.jpg style=""width:8cm; height:6.840000000000001cm;""><p style='font-size: 30px; color: red;'><strong>Incorrect!</strong></p><p style='font-size: 30px;'><strong>This rock is andesite</strong></p>","0","corr_feedback","1","train","4","","","","","","","",""
"","","","","","","","","","","","html-button-response","113","2.0.0","263297","670d0152550cbd15e8f278e2","1","17","7089","","","","","","","","","<img src= ""rock_img/I_Obsidian_08.jpg"" style=""width:8cm; height:7.39cm;""><p>What type of rock is this?</p>","0","class_response","1","train","5","Andesite","Obsidian","08","false","1","5","",""
"","","","","","","","","","","","html-button-response","114","2.0.0","264630","670d0152550cbd15e8f278e2","1","17","1333","","","","","","","","","<img src= rock_img/I_Obsidian_08.jpg style=""width:8cm; height:7.39cm;""><p style='font-size: 30px; color: red;'><strong>Incorrect!</strong></p><p style='font-size: 30px;'><strong>This rock is obsidian</strong></p>","0","corr_feedback","1","train","5","","","","","","","",""
"","","","","","","","","","","","html-button-response","115","2.0.0","267489","670d0152550cbd15e8f278e2","1","17","2857","","","","","","","","","<img src= ""rock_img/I_Gabbro_14.jpg"" style=""width:8cm; height:8.48cm;""><p>What type of rock is this?</p>","5","class_response","1","train","6","Pegmatite","Gabbro","14","false","6","4","",""
"","","","","","","","","","","","html-button-response","116","2.0.0","268809","670d0152550cbd15e8f278e2","1","17","1319","","","","","","","","","<img src= rock_img/I_Gabbro_14.jpg style=""width:8cm; height:8.48cm;""><p style='font-size: 30px; color: red;'><strong>Incorrect!</strong></p><p style='font-size: 30px;'><strong>This rock is gabbro</strong></p>","0","corr_feedback","1","train","6","","","","","","","",""
"","","","","","","","","","","","html-button-response","117","2.0.0","273353","670d0152550cbd15e8f278e2","1","17","4542","","","","","","","","","<img src= ""rock_img/I_Andesite_11.jpg"" style=""width:8cm; height:4.92cm;""><p>What type of rock is this?</p>","7","class_response","1","train","7","Pumice","Andesite","11","false","8","1","",""
"","","","","","","","","","","","html-button-response","118","2.0.0","274903","670d0152550cbd15e8f278e2","1","17","1549","","","","","","","","","<img src= rock_img/I_Andesite_11.jpg style=""width:8cm; height:4.92cm;""><p style='font-size: 30px; color: red;'><strong>Incorrect!</strong></p><p style='font-size: 30px;'><strong>This rock is andesite</strong></p>","0","corr_feedback","1","train","7","","","","","","","",""
"","","","","","","","","","","","html-button-response","119","2.0.0","277929","670d0152550cbd15e8f278e2","1","17","3025","","","","","","","","","<img src= ""rock_img/I_Diorite_06.jpg"" style=""width:8cm; height:6.03cm;""><p>What type of rock is this?</p>","1","class_response","1","train","8","Basalt","Diorite","06","false","2","3","",""
"","","","","","","","","","","","html-button-response","120","2.0.0","279891","670d0152550cbd15e8f278e2","1","17","1961","","","","","","","","","<img src= rock_img/I_Diorite_06.jpg style=""width:8cm; height:6.03cm;""><p style='font-size: 30px; color: red;'><strong>Incorrect!</strong></p><p style='font-size: 30px;'><strong>This rock is diorite</strong></p>","0","corr_feedback","1","train","8","","","","","","","",""
"","","","","","","","","","","","html-button-response","121","2.0.0","282211","670d0152550cbd15e8f278e2","1","17","2319","","","","","","","","","<img src= ""rock_img/I_Andesite_01.jpg"" style=""width:8cm; height:5.87cm;""><p>What type of rock is this?</p>","6","class_response","1","train","9","Peridotite","Andesite","01","false","7","1","",""
"","","","","","","","","","","","html-button-response","122","2.0.0","283751","670d0152550cbd15e8f278e2","1","17","1540","","","","","","","","","<img src= rock_img/I_Andesite_01.jpg style=""width:8cm; height:5.87cm;""><p style='font-size: 30px; color: red;'><strong>Incorrect!</strong></p><p style='font-size: 30px;'><strong>This rock is andesite</strong></p>","0","corr_feedback","1","train","9","","","","","","","",""
"","","","","","","","","","","","html-button-response","123","2.0.0","287591","670d0152550cbd15e8f278e2","1","17","3838","","","","","","","","","<img src= ""rock_img/I_Obsidian_02.jpg"" style=""width:8cm; height:7.51cm;""><p>What type of rock is this?</p>","4","class_response","1","train","10","Obsidian","Obsidian","02","true","5","5","",""
"","","","","","","","","","","","html-button-response","124","2.0.0","289129","670d0152550cbd15e8f278e2","1","17","1537","","","","","","","","","<img src= rock_img/I_Obsidian_02.jpg style=""width:8cm; height:7.51cm;""><p style='font-size: 30px; color: green;'><strong>Correct!</strong></p><p style='font-size: 30px;'><strong>This rock is obsidian</strong></p>","0","corr_feedback","1","train","10","","","","","","","",""
"","","","","","","","","","","","html-button-response","125","2.0.0","292331","670d0152550cbd15e8f278e2","1","17","3201","","","","","","","","","<img src= ""rock_img/I_Basalt_16.jpg"" style=""width:8cm; height:7.659999999999999cm;""><p>What type of rock is this?</p>","3","class_response","1","train","11","Gabbro","Basalt","16","false","4","2","",""
"","","","","","","","","","","","html-button-response","126","2.0.0","293575","670d0152550cbd15e8f278e2","1","17","1243","","","","","","","","","<img src= rock_img/I_Basalt_16.jpg style=""width:8cm; height:7.659999999999999cm;""><p style='font-size: 30px; color: red;'><strong>Incorrect!</strong></p><p style='font-size: 30px;'><strong>This rock is basalt</strong></p>","0","corr_feedback","1","train","11","","","","","","","",""
"","","","","","","","","","","","html-button-response","127","2.0.0","297111","670d0152550cbd15e8f278e2","1","17","3535","","","","","","","","","<img src= ""rock_img/I_Peridotite_02.jpg"" style=""width:8cm; height:5.859999999999999cm;""><p>What type of rock is this?</p>","7","class_response","1","train","12","Pumice","Peridotite","02","false","8","7","",""
"","","","","","","","","","","","html-button-response","128","2.0.0","298711","670d0152550cbd15e8f278e2","1","17","1598","","","","","","","","","<img src= rock_img/I_Peridotite_02.jpg style=""width:8cm; height:5.859999999999999cm;""><p style='font-size: 30px; color: red;'><strong>Incorrect!</strong></p><p style='font-size: 30px;'><strong>This rock is peridotite</strong></p>","0","corr_feedback","1","train","12","","","","","","","",""
"","","","","","","","","","","","html-button-response","129","2.0.0","300561","670d0152550cbd15e8f278e2","1","17","1849","","","","","","","","","<img src= ""rock_img/I_Andesite_04.jpg"" style=""width:8cm; height:5.96cm;""><p>What type of rock is this?</p>","3","class_response","1","train","13","Gabbro","Andesite","04","false","4","1","",""
"","","","","","","","","","","","html-button-response","130","2.0.0","302029","670d0152550cbd15e8f278e2","1","17","1466","","","","","","","","","<img src= rock_img/I_Andesite_04.jpg style=""width:8cm; height:5.96cm;""><p style='font-size: 30px; color: red;'><strong>Incorrect!</strong></p><p style='font-size: 30px;'><strong>This rock is andesite</strong></p>","0","corr_feedback","1","train","13","","","","","","","",""
"","","","","","","","","","","","html-button-response","131","2.0.0","304053","670d0152550cbd15e8f278e2","1","17","2023","","","","","","","","","<img src= ""rock_img/I_Pegmatite_13.jpg"" style=""width:8cm; height:4.95cm;""><p>What type of rock is this?</p>","1","class_response","1","train","14","Basalt","Pegmatite","13","false","2","6","",""
"","","","","","","","","","","","html-button-response","132","2.0.0","305553","670d0152550cbd15e8f278e2","1","17","1499","","","","","","","","","<img src= rock_img/I_Pegmatite_13.jpg style=""width:8cm; height:4.95cm;""><p style='font-size: 30px; color: red;'><strong>Incorrect!</strong></p><p style='font-size: 30px;'><strong>This rock is pegmatite</strong></p>","0","corr_feedback","1","train","14","","","","","","","",""
"","","","","","","","","","","","html-button-response","133","2.0.0","308765","670d0152550cbd15e8f278e2","1","17","3211","","","","","","","","","<img src= ""rock_img/I_Pegmatite_11.jpg"" style=""width:8cm; height:8.14cm;""><p>What type of rock is this?</p>","4","class_response","1","train","15","Obsidian","Pegmatite","11","false","5","6","",""
"","","","","","","","","","","","html-button-response","134","2.0.0","310126","670d0152550cbd15e8f278e2","1","17","1360","","","","","","","","","<img src= rock_img/I_Pegmatite_11.jpg style=""width:8cm; height:8.14cm;""><p style='font-size: 30px; color: red;'><strong>Incorrect!</strong></p><p style='font-size: 30px;'><strong>This rock is pegmatite</strong></p>","0","corr_feedback","1","train","15","","","","","","","",""
"","","","","","","","","","","","html-button-response","135","2.0.0","311907","670d0152550cbd15e8f278e2","1","17","1779","","","","","","","","","<img src= ""rock_img/I_Pumice_09.jpg"" style=""width:8cm; height:6.44cm;""><p>What type of rock is this?</p>","6","class_response","1","train","16","Peridotite","Pumice","09","false","7","8","",""
"","","","","","","","","","","","html-button-response","136","2.0.0","313109","670d0152550cbd15e8f278e2","1","17","1201","","","","","","","","","<img src= rock_img/I_Pumice_09.jpg style=""width:8cm; height:6.44cm;""><p style='font-size: 30px; color: red;'><strong>Incorrect!</strong></p><p style='font-size: 30px;'><strong>This rock is pumice</strong></p>","0","corr_feedback","1","train","16","","","","","","","",""
"","","","","","","","","","","","html-button-response","137","2.0.0","315401","670d0152550cbd15e8f278e2","1","17","2291","","","","","","","","","<img src= ""rock_img/I_Obsidian_05.jpg"" style=""width:8cm; height:6.33cm;""><p>What type of rock is this?</p>","4","class_response","1","train","17","Obsidian","Obsidian","05","true","5","5","",""
"","","","","","","","","","","","html-button-response","138","2.0.0","316861","670d0152550cbd15e8f278e2","1","17","1458","","","","","","","","","<img src= rock_img/I_Obsidian_05.jpg style=""width:8cm; height:6.33cm;""><p style='font-size: 30px; color: green;'><strong>Correct!</strong></p><p style='font-size: 30px;'><strong>This rock is obsidian</strong></p>","0","corr_feedback","1","train","17","","","","","","","",""
"","","","","","","","","","","","html-button-response","139","2.0.0","320063","670d0152550cbd15e8f278e2","1","17","3201","","","","","","","","","<img src= ""rock_img/I_Peridotite_15.jpg"" style=""width:8cm; height:6cm;""><p>What type of rock is this?</p>","3","class_response","1","train","18","Gabbro","Peridotite","15","false","4","7","",""
"","","","","","","","","","","","html-button-response","140","2.0.0","321311","670d0152550cbd15e8f278e2","1","17","1247","","","","","","","","","<img src= rock_img/I_Peridotite_15.jpg style=""width:8cm; height:6cm;""><p style='font-size: 30px; color: red;'><strong>Incorrect!</strong></p><p style='font-size: 30px;'><strong>This rock is peridotite</strong></p>","0","corr_feedback","1","train","18","","","","","","","",""
"","","","","","","","","","","","html-button-response","141","2.0.0","323098","670d0152550cbd15e8f278e2","1","17","1786","","","","","","","","","<img src= ""rock_img/I_Basalt_10.jpg"" style=""width:8cm; height:5.85cm;""><p>What type of rock is this?</p>","4","class_response","1","train","19","Obsidian","Basalt","10","false","5","2","",""
"","","","","","","","","","","","html-button-response","142","2.0.0","324282","670d0152550cbd15e8f278e2","1","17","1183","","","","","","","","","<img src= rock_img/I_Basalt_10.jpg style=""width:8cm; height:5.85cm;""><p style='font-size: 30px; color: red;'><strong>Incorrect!</strong></p><p style='font-size: 30px;'><strong>This rock is basalt</strong></p>","0","corr_feedback","1","train","19","","","","","","","",""
"","","","","","","","","","","","html-button-response","143","2.0.0","328493","670d0152550cbd15e8f278e2","1","17","4210","","","","","","","","","<img src= ""rock_img/I_Diorite_11.jpg"" style=""width:8cm; height:7.11cm;""><p>What type of rock is this?</p>","0","class_response","1","train","20","Andesite","Diorite","11","false","1","3","",""
"","","","","","","","","","","","html-button-response","144","2.0.0","329829","670d0152550cbd15e8f278e2","1","17","1335","","","","","","","","","<img src= rock_img/I_Diorite_11.jpg style=""width:8cm; height:7.11cm;""><p style='font-size: 30px; color: red;'><strong>Incorrect!</strong></p><p style='font-size: 30px;'><strong>This rock is diorite</strong></p>","0","corr_feedback","1","train","20","","","","","","","",""
"","","","","","","","","","","","html-button-response","145","2.0.0","331067","670d0152550cbd15e8f278e2","1","17","1237","","","","","","","","","<img src= ""rock_img/I_Pegmatite_06.jpg"" style=""width:8cm; height:5.17cm;""><p>What type of rock is this?</p>","6","class_response","1","train","21","Peridotite","Pegmatite","06","false","7","6","",""
"","","","","","","","","","","","html-button-response","146","2.0.0","332577","670d0152550cbd15e8f278e2","1","17","1509","","","","","","","","","<img src= rock_img/I_Pegmatite_06.jpg style=""width:8cm; height:5.17cm;""><p style='font-size: 30px; color: red;'><strong>Incorrect!</strong></p><p style='font-size: 30px;'><strong>This rock is pegmatite</strong></p>","0","corr_feedback","1","train","21","","","","","","","",""
"","","","","","","","","","","","html-button-response","147","2.0.0","333943","670d0152550cbd15e8f278e2","1","17","1365","","","","","","","","","<img src= ""rock_img/I_Basalt_08.jpg"" style=""width:8cm; height:10.44cm;""><p>What type of rock is this?</p>","4","class_response","1","train","22","Obsidian","Basalt","08","false","5","2","",""
"","","","","","","","","","","","html-button-response","148","2.0.0","335231","670d0152550cbd15e8f278e2","1","17","1287","","","","","","","","","<img src= rock_img/I_Basalt_08.jpg style=""width:8cm; height:10.44cm;""><p style='font-size: 30px; color: red;'><strong>Incorrect!</strong></p><p style='font-size: 30px;'><strong>This rock is basalt</strong></p>","0","corr_feedback","1","train","22","","","","","","","",""
"","","","","","","","","","","","html-button-response","149","2.0.0","337713","670d0152550cbd15e8f278e2","1","17","2481","","","","","","","","","<img src= ""rock_img/I_Gabbro_08.jpg"" style=""width:8cm; height:5.15cm;""><p>What type of rock is this?</p>","7","class_response","1","train","23","Pumice","Gabbro","08","false","8","4","",""
"","","","","","","","","","","","html-button-response","150","2.0.0","338936","670d0152550cbd15e8f278e2","1","17","1222","","","","","","","","","<img src= rock_img/I_Gabbro_08.jpg style=""width:8cm; height:5.15cm;""><p style='font-size: 30px; color: red;'><strong>Incorrect!</strong></p><p style='font-size: 30px;'><strong>This rock is gabbro</strong></p>","0","corr_feedback","1","train","23","","","","","","","",""
"","","","","","","","","","","","html-button-response","151","2.0.0","340245","670d0152550cbd15e8f278e2","1","17","1307","","","","","","","","","<img src= ""rock_img/I_Pegmatite_10.jpg"" style=""width:8cm; height:4.16cm;""><p>What type of rock is this?</p>","2","class_response","1","train","24","Diorite","Pegmatite","10","false","3","6","",""
"","","","","","","","","","","","html-button-response","152","2.0.0","341569","670d0152550cbd15e8f278e2","1","17","1323","","","","","","","","","<img src= rock_img/I_Pegmatite_10.jpg style=""width:8cm; height:4.16cm;""><p style='font-size: 30px; color: red;'><strong>Incorrect!</strong></p><p style='font-size: 30px;'><strong>This rock is pegmatite</strong></p>","0","corr_feedback","1","train","24","","","","","","","",""
"","","","","","","","","","","","html-button-response","153","2.0.0","343145","670d0152550cbd15e8f278e2","1","17","1575","","","","","","","","","<img src= ""rock_img/I_Gabbro_10.jpg"" style=""width:8cm; height:5.680000000000001cm;""><p>What type of rock is this?</p>","1","class_response","1","train","25","Basalt","Gabbro","10","false","2","4","",""
"","","","","","","","","","","","html-button-response","154","2.0.0","344531","670d0152550cbd15e8f278e2","1","17","1385","","","","","","","","","<img src= rock_img/I_Gabbro_10.jpg style=""width:8cm; height:5.680000000000001cm;""><p style='font-size: 30px; color: red;'><strong>Incorrect!</strong></p><p style='font-size: 30px;'><strong>This rock is gabbro</strong></p>","0","corr_feedback","1","train","25","","","","","","","",""
"","","","","","","","","","","","html-button-response","155","2.0.0","346281","670d0152550cbd15e8f278e2","1","17","1749","","","","","","","","","<img src= ""rock_img/I_Pumice_13.jpg"" style=""width:8cm; height:8.200000000000001cm;""><p>What type of rock is this?</p>","5","class_response","1","train","26","Pegmatite","Pumice","13","false","6","8","",""
"","","","","","","","","","","","html-button-response","156","2.0.0","347605","670d0152550cbd15e8f278e2","1","17","1322","","","","","","","","","<img src= rock_img/I_Pumice_13.jpg style=""width:8cm; height:8.200000000000001cm;""><p style='font-size: 30px; color: red;'><strong>Incorrect!</strong></p><p style='font-size: 30px;'><strong>This rock is pumice</strong></p>","0","corr_feedback","1","train","26","","","","","","","",""
"","","","","","","","","","","","html-button-response","157","2.0.0","349723","670d0152550cbd15e8f278e2","1","17","2117","","","","","","","","","<img src= ""rock_img/I_Peridotite_06.jpg"" style=""width:8cm; height:7.53cm;""><p>What type of rock is this?</p>","4","class_response","1","train","27","Obsidian","Peridotite","06","false","5","7","",""
"","","","","","","","","","","","html-button-response","158","2.0.0","351081","670d0152550cbd15e8f278e2","1","17","1356","","","","","","","","","<img src= rock_img/I_Peridotite_06.jpg style=""width:8cm; height:7.53cm;""><p style='font-size: 30px; color: red;'><strong>Incorrect!</strong></p><p style='font-size: 30px;'><strong>This rock is peridotite</strong></p>","0","corr_feedback","1","train","27","","","","","","","",""
"","","","","","","","","","","","html-button-response","159","2.0.0","352293","670d0152550cbd15e8f278e2","1","17","1211","","","","","","","","","<img src= ""rock_img/I_Pegmatite_08.jpg"" style=""width:8cm; height:7.68cm;""><p>What type of rock is this?</p>","4","class_response","1","train","28","Obsidian","Pegmatite","08","false","5","6","",""
"","","","","","","","","","","","html-button-response","160","2.0.0","353648","670d0152550cbd15e8f278e2","1","17","1355","","","","","","","","","<img src= rock_img/I_Pegmatite_08.jpg style=""width:8cm; height:7.68cm;""><p style='font-size: 30px; color: red;'><strong>Incorrect!</strong></p><p style='font-size: 30px;'><strong>This rock is pegmatite</strong></p>","0","corr_feedback","1","train","28","","","","","","","",""
"","","","","","","","","","","","html-button-response","161","2.0.0","355821","670d0152550cbd15e8f278e2","1","17","2171","","","","","","","","","<img src= ""rock_img/I_Diorite_12.jpg"" style=""width:8cm; height:4.88cm;""><p>What type of rock is this?</p>","3","class_response","1","train","29","Gabbro","Diorite","12","false","4","3","",""
"","","","","","","","","","","","html-button-response","162","2.0.0","357084","670d0152550cbd15e8f278e2","1","17","1263","","","","","","","","","<img src= rock_img/I_Diorite_12.jpg style=""width:8cm; height:4.88cm;""><p style='font-size: 30px; color: red;'><strong>Incorrect!</strong></p><p style='font-size: 30px;'><strong>This rock is diorite</strong></p>","0","corr_feedback","1","train","29","","","","","","","",""
"","","","","","","","","","","","html-button-response","163","2.0.0","358827","670d0152550cbd15e8f278e2","1","17","1741","","","","","","","","","<img src= ""rock_img/I_Gabbro_09.jpg"" style=""width:8cm; height:7.279999999999999cm;""><p>What type of rock is this?</p>","0","class_response","1","train","30","Andesite","Gabbro","09","false","1","4","",""
"","","","","","","","","","","","html-button-response","164","2.0.0","359875","670d0152550cbd15e8f278e2","1","17","1047","","","","","","","","","<img src= rock_img/I_Gabbro_09.jpg style=""width:8cm; height:7.279999999999999cm;""><p style='font-size: 30px; color: red;'><strong>Incorrect!</strong></p><p style='font-size: 30px;'><strong>This rock is gabbro</strong></p>","0","corr_feedback","1","train","30","","","","","","","",""
"","","","","","","","","","","","html-button-response","165","2.0.0","362775","670d0152550cbd15e8f278e2","1","17","2899","","","","","","","","","<img src= ""rock_img/I_Basalt_06.jpg"" style=""width:8cm; height:7.06cm;""><p>What type of rock is this?</p>","4","class_response","1","train","31","Obsidian","Basalt","06","false","5","2","",""
"","","","","","","","","","","","html-button-response","166","2.0.0","363951","670d0152550cbd15e8f278e2","1","17","1174","","","","","","","","","<img src= rock_img/I_Basalt_06.jpg style=""width:8cm; height:7.06cm;""><p style='font-size: 30px; color: red;'><strong>Incorrect!</strong></p><p style='font-size: 30px;'><strong>This rock is basalt</strong></p>","0","corr_feedback","1","train","31","","","","","","","",""
"","","","","","","","","","","","html-button-response","167","2.0.0","366669","670d0152550cbd15e8f278e2","1","17","2716","","","","","","","","","<img src= ""rock_img/I_Diorite_16.jpg"" style=""width:8cm; height:6.74cm;""><p>What type of rock is this?</p>","2","class_response","1","train","32","Diorite","Diorite","16","true","3","3","",""
"","","","","","","","","","","","html-button-response","168","2.0.0","368431","670d0152550cbd15e8f278e2","1","17","1762","","","","","","","","","<img src= rock_img/I_Diorite_16.jpg style=""width:8cm; height:6.74cm;""><p style='font-size: 30px; color: green;'><strong>Correct!</strong></p><p style='font-size: 30px;'><strong>This rock is diorite</strong></p>","0","corr_feedback","1","train","32","","","","","","","",""
"","","","","","","","","","","","html-button-response","169","2.0.0","372761","670d0152550cbd15e8f278e2","1","17","4328","","","","","","","","","<img src= ""rock_img/I_Pumice_05.jpg"" style=""width:8cm; height:7.25cm;""><p>What type of rock is this?</p>","3","class_response","1","train","33","Gabbro","Pumice","05","false","4","8","",""
"","","","","","","","","","","","html-button-response","170","2.0.0","373911","670d0152550cbd15e8f278e2","1","17","1149","","","","","","","","","<img src= rock_img/I_Pumice_05.jpg style=""width:8cm; height:7.25cm;""><p style='font-size: 30px; color: red;'><strong>Incorrect!</strong></p><p style='font-size: 30px;'><strong>This rock is pumice</strong></p>","0","corr_feedback","1","train","33","","","","","","","",""
"","","","","","","","","","","","html-button-response","171","2.0.0","375143","670d0152550cbd15e8f278e2","1","17","1231","","","","","","","","","<img src= ""rock_img/I_Obsidian_14.jpg"" style=""width:8cm; height:7.64cm;""><p>What type of rock is this?</p>","4","class_response","1","train","34","Obsidian","Obsidian","14","true","5","5","",""
"","","","","","","","","","","","html-button-response","172","2.0.0","376462","670d0152550cbd15e8f278e2","1","17","1319","","","","","","","","","<img src= rock_img/I_Obsidian_14.jpg style=""width:8cm; height:7.64cm;""><p style='font-size: 30px; color: green;'><strong>Correct!</strong></p><p style='font-size: 30px;'><strong>This rock is obsidian</strong></p>","0","corr_feedback","1","train","34","","","","","","","",""
"","","","","","","","","","","","html-button-response","173","2.0.0","380305","670d0152550cbd15e8f278e2","1","17","3842","","","","","","","","","<img src= ""rock_img/I_Pumice_02.jpg"" style=""width:8cm; height:7.3999999999999995cm;""><p>What type of rock is this?</p>","5","class_response","1","train","35","Pegmatite","Pumice","02","false","6","8","",""
"","","","","","","","","","","","html-button-response","174","2.0.0","381342","670d0152550cbd15e8f278e2","1","17","1036","","","","","","","","","<img src= rock_img/I_Pumice_02.jpg style=""width:8cm; height:7.3999999999999995cm;""><p style='font-size: 30px; color: red;'><strong>Incorrect!</strong></p><p style='font-size: 30px;'><strong>This rock is pumice</strong></p>","0","corr_feedback","1","train","35","","","","","","","",""
"","","","","","","","","","","","html-button-response","175","2.0.0","382657","670d0152550cbd15e8f278e2","1","17","1313","","","","","","","","","<img src= ""rock_img/I_Andesite_16.jpg"" style=""width:8cm; height:6.010000000000001cm;""><p>What type of rock is this?</p>","6","class_response","1","train","36","Peridotite","Andesite","16","false","7","1","",""
"","","","","","","","","","","","html-button-response","176","2.0.0","383819","670d0152550cbd15e8f278e2","1","17","1161","","","","","","","","","<img src= rock_img/I_Andesite_16.jpg style=""width:8cm; height:6.010000000000001cm;""><p style='font-size: 30px; color: red;'><strong>Incorrect!</strong></p><p style='font-size: 30px;'><strong>This rock is andesite</strong></p>","0","corr_feedback","1","train","36","","","","","","","",""
"","","","","","","","","","","","html-button-response","177","2.0.0","385875","670d0152550cbd15e8f278e2","1","17","2055","","","","","","","","","<img src= ""rock_img/I_Gabbro_05.jpg"" style=""width:8cm; height:6cm;""><p>What type of rock is this?</p>","7","class_response","1","train","37","Pumice","Gabbro","05","false","8","4","",""
"","","","","","","","","","","","html-button-response","178","2.0.0","387093","670d0152550cbd15e8f278e2","1","17","1216","","","","","","","","","<img src= rock_img/I_Gabbro_05.jpg style=""width:8cm; height:6cm;""><p style='font-size: 30px; color: red;'><strong>Incorrect!</strong></p><p style='font-size: 30px;'><strong>This rock is gabbro</strong></p>","0","corr_feedback","1","train","37","","","","","","","",""
"","","","","","","","","","","","html-button-response","179","2.0.0","388767","670d0152550cbd15e8f278e2","1","17","1673","","","","","","","","","<img src= ""rock_img/I_Pumice_03.jpg"" style=""width:8cm; height:6.64cm;""><p>What type of rock is this?</p>","3","class_response","1","train","38","Gabbro","Pumice","03","false","4","8","",""
"","","","","","","","","","","","html-button-response","180","2.0.0","389735","670d0152550cbd15e8f278e2","1","17","967","","","","","","","","","<img src= rock_img/I_Pumice_03.jpg style=""width:8cm; height:6.64cm;""><p style='font-size: 30px; color: red;'><strong>Incorrect!</strong></p><p style='font-size: 30px;'><strong>This rock is pumice</strong></p>","0","corr_feedback","1","train","38","","","","","","","",""
"","","","","","","","","","","","html-button-response","181","2.0.0","391241","670d0152550cbd15e8f278e2","1","17","1505","","","","","","","","","<img src= ""rock_img/I_Gabbro_12.jpg"" style=""width:8cm; height:7.800000000000001cm;""><p>What type of rock is this?</p>","0","class_response","1","train","39","Andesite","Gabbro","12","false","1","4","",""
"","","","","","","","","","","","html-button-response","182","2.0.0","392631","670d0152550cbd15e8f278e2","1","17","1389","","","","","","","","","<img src= rock_img/I_Gabbro_12.jpg style=""width:8cm; height:7.800000000000001cm;""><p style='font-size: 30px; color: red;'><strong>Incorrect!</strong></p><p style='font-size: 30px;'><strong>This rock is gabbro</strong></p>","0","corr_feedback","1","train","39","","","","","","","",""
"","","","","","","","","","","","html-button-response","183","2.0.0","395275","670d0152550cbd15e8f278e2","1","17","2643","","","","","","","","","<img src= ""rock_img/I_Peridotite_10.jpg"" style=""width:8cm; height:5.390000000000001cm;""><p>What type of rock is this?</p>","3","class_response","1","train","40","Gabbro","Peridotite","10","false","4","7","",""
"","","","","","","","","","","","html-button-response","184","2.0.0","396247","670d0152550cbd15e8f278e2","1","17","971","","","","","","","","","<img src= rock_img/I_Peridotite_10.jpg style=""width:8cm; height:5.390000000000001cm;""><p style='font-size: 30px; color: red;'><strong>Incorrect!</strong></p><p style='font-size: 30px;'><strong>This rock is peridotite</strong></p>","0","corr_feedback","1","train","40","","","","","","","",""
"","","","","","","","","","","","html-button-response","185","2.0.0","398659","670d0152550cbd15e8f278e2","1","17","2411","","","","","","","","","<img src= ""rock_img/I_Peridotite_16.jpg"" style=""width:8cm; height:6.989999999999999cm;""><p>What type of rock is this?</p>","0","class_response","1","train","41","Andesite","Peridotite","16","false","1","7","",""
"","","","","","","","","","","","html-button-response","186","2.0.0","399831","670d0152550cbd15e8f278e2","1","17","1171","","","","","","","","","<img src= rock_img/I_Peridotite_16.jpg style=""width:8cm; height:6.989999999999999cm;""><p style='font-size: 30px; color: red;'><strong>Incorrect!</strong></p><p style='font-size: 30px;'><strong>This rock is peridotite</strong></p>","0","corr_feedback","1","train","41","","","","","","","",""
"","","","","","","","","","","","html-button-response","187","2.0.0","401201","670d0152550cbd15e8f278e2","1","17","1369","","","","","","","","","<img src= ""rock_img/I_Obsidian_07.jpg"" style=""width:8cm; height:4.76cm;""><p>What type of rock is this?</p>","4","class_response","1","train","42","Obsidian","Obsidian","07","true","5","5","",""
"","","","","","","","","","","","html-button-response","188","2.0.0","402593","670d0152550cbd15e8f278e2","1","17","1390","","","","","","","","","<img src= rock_img/I_Obsidian_07.jpg style=""width:8cm; height:4.76cm;""><p style='font-size: 30px; color: green;'><strong>Correct!</strong></p><p style='font-size: 30px;'><strong>This rock is obsidian</strong></p>","0","corr_feedback","1","train","42","","","","","","","",""
"","","","","","","","","","","","html-button-response","189","2.0.0","405351","670d0152550cbd15e8f278e2","1","17","2757","","","","","","","","","<img src= ""rock_img/I_Diorite_09.jpg"" style=""width:8cm; height:5.27cm;""><p>What type of rock is this?</p>","5","class_response","1","train","43","Pegmatite","Diorite","09","false","6","3","",""
"","","","","","","","","","","","html-button-response","190","2.0.0","406219","670d0152550cbd15e8f278e2","1","17","867","","","","","","","","","<img src= rock_img/I_Diorite_09.jpg style=""width:8cm; height:5.27cm;""><p style='font-size: 30px; color: red;'><strong>Incorrect!</strong></p><p style='font-size: 30px;'><strong>This rock is diorite</strong></p>","0","corr_feedback","1","train","43","","","","","","","",""
"","","","","","","","","","","","html-button-response","191","2.0.0","409151","670d0152550cbd15e8f278e2","1","17","2931","","","","","","","","","<img src= ""rock_img/I_Basalt_04.jpg"" style=""width:8cm; height:7.53cm;""><p>What type of rock is this?</p>","3","class_response","1","train","44","Gabbro","Basalt","04","false","4","2","",""
"","","","","","","","","","","","html-button-response","192","2.0.0","410037","670d0152550cbd15e8f278e2","1","17","885","","","","","","","","","<img src= rock_img/I_Basalt_04.jpg style=""width:8cm; height:7.53cm;""><p style='font-size: 30px; color: red;'><strong>Incorrect!</strong></p><p style='font-size: 30px;'><strong>This rock is basalt</strong></p>","0","corr_feedback","1","train","44","","","","","","","",""
"","","","","","","","","","","","html-button-response","193","2.0.0","414461","670d0152550cbd15e8f278e2","1","17","4423","","","","","","","","","<img src= ""rock_img/I_Diorite_10.jpg"" style=""width:8cm; height:5.949999999999999cm;""><p>What type of rock is this?</p>","6","class_response","1","train","45","Peridotite","Diorite","10","false","7","3","",""
"","","","","","","","","","","","html-button-response","194","2.0.0","415511","670d0152550cbd15e8f278e2","1","17","1049","","","","","","","","","<img src= rock_img/I_Diorite_10.jpg style=""width:8cm; height:5.949999999999999cm;""><p style='font-size: 30px; color: red;'><strong>Incorrect!</strong></p><p style='font-size: 30px;'><strong>This rock is diorite</strong></p>","0","corr_feedback","1","train","45","","","","","","","",""
"","","","","","","","","","","","html-button-response","195","2.0.0","417401","670d0152550cbd15e8f278e2","1","17","1888","","","","","","","","","<img src= ""rock_img/I_Peridotite_12.jpg"" style=""width:8cm; height:4.54cm;""><p>What type of rock is this?</p>","2","class_response","1","train","46","Diorite","Peridotite","12","false","3","7","",""
"","","","","","","","","","","","html-button-response","196","2.0.0","418174","670d0152550cbd15e8f278e2","1","17","771","","","","","","","","","<img src= rock_img/I_Peridotite_12.jpg style=""width:8cm; height:4.54cm;""><p style='font-size: 30px; color: red;'><strong>Incorrect!</strong></p><p style='font-size: 30px;'><strong>This rock is peridotite</strong></p>","0","corr_feedback","1","train","46","","","","","","","",""
"","","","","","","","","","","","html-button-response","197","2.0.0","421641","670d0152550cbd15e8f278e2","1","17","3466","","","","","","","","","<img src= ""rock_img/I_Pumice_08.jpg"" style=""width:8cm; height:6.67cm;""><p>What type of rock is this?</p>","3","class_response","1","train","47","Gabbro","Pumice","08","false","4","8","",""
"","","","","","","","","","","","html-button-response","198","2.0.0","422479","670d0152550cbd15e8f278e2","1","17","837","","","","","","","","","<img src= rock_img/I_Pumice_08.jpg style=""width:8cm; height:6.67cm;""><p style='font-size: 30px; color: red;'><strong>Incorrect!</strong></p><p style='font-size: 30px;'><strong>This rock is pumice</strong></p>","0","corr_feedback","1","train","47","","","","","","","",""
"","","","","","","","","","","","html-button-response","199","2.0.0","424199","670d0152550cbd15e8f278e2","1","17","1719","","","","","","","","","<img src= ""rock_img/I_Basalt_02.jpg"" style=""width:8cm; height:6.45cm;""><p>What type of rock is this?</p>","0","class_response","1","train","48","Andesite","Basalt","02","false","1","2","",""
"","","","","","","","","","","","html-button-response","200","2.0.0","425235","670d0152550cbd15e8f278e2","1","17","1035","","","","","","","","","<img src= rock_img/I_Basalt_02.jpg style=""width:8cm; height:6.45cm;""><p style='font-size: 30px; color: red;'><strong>Incorrect!</strong></p><p style='font-size: 30px;'><strong>This rock is basalt</strong></p>","0","corr_feedback","1","train","48","","","","","","","",""
"","","","","","","","","","","","instructions","203","2.0.0","437391","670d0152550cbd15e8f278e2","1","17","12155","","","","","","","","[{""page_index"":0,""viewing_time"":1913},{""page_index"":1,""viewing_time"":10242}]","","","","","","","","","","","","","",""
"","","","","","","","","","","","html-button-response","204","2.0.0","439969","670d0152550cbd15e8f278e2","1","17","2577","","","","","","","","","","0","start_test","","","","","","","","","","",""
"","","","","","","","","","","","html-button-response","205","2.0.0","446863","670d0152550cbd15e8f278e2","1","17","6892","","","","","","","","","<img src= ""rock_img/I_Pegmatite_15.jpg"" style=""width:8cm; height:6cm;""><p>What type of rock is this?</p>","0","class_response","1","test","1","Andesite","Pegmatite","15","false","1","6","",""
"","","","","","","","","","","","html-keyboard-response","206","2.0.0","447368","670d0152550cbd15e8f278e2","1","17","null","","","","","","","","","<p style='font-size: 30px;'><strong>Okay</strong></p>","null","neutral_feedback","1","test","1","","","","","","","",""
"","","","","","","","","","","","html-button-response","207","2.0.0","450439","670d0152550cbd15e8f278e2","1","17","3069","","","","","","","","","<img src= ""rock_img/I_Pegmatite_07.jpg"" style=""width:8cm; height:6.7cm;""><p>What type of rock is this?</p>","1","class_response","1","test","2","Basalt","Pegmatite","07","false","2","6","",""
"","","","","","","","","","","","html-keyboard-response","208","2.0.0","450950","670d0152550cbd15e8f278e2","1","17","null","","","","","","","","","<p style='font-size: 30px;'><strong>Okay</strong></p>","null","neutral_feedback","1","test","2","","","","","","","",""
"","","","","","","","","","","","html-button-response","209","2.0.0","452931","670d0152550cbd15e8f278e2","1","17","1980","","","","","","","","","<img src= ""rock_img/I_Obsidian_10.jpg"" style=""width:8cm; height:6.260000000000001cm;""><p>What type of rock is this?</p>","4","class_response","1","test","3","Obsidian","Obsidian","10","true","5","5","",""
"","","","","","","","","","","","html-keyboard-response","210","2.0.0","453432","670d0152550cbd15e8f278e2","1","17","null","","","","","","","","","<p style='font-size: 30px;'><strong>Okay</strong></p>","null","neutral_feedback","1","test","3","","","","","","","",""
"","","","","","","","","","","","html-button-response","211","2.0.0","455003","670d0152550cbd15e8f278e2","1","17","1570","","","","","","","","","<img src= ""rock_img/I_Andesite_10.jpg"" style=""width:8cm; height:4.16cm;""><p>What type of rock is this?</p>","6","class_response","1","test","4","Peridotite","Andesite","10","false","7","1","",""
"","","","","","","","","","","","html-keyboard-response","212","2.0.0","455515","670d0152550cbd15e8f278e2","1","17","null","","","","","","","","","<p style='font-size: 30px;'><strong>Okay</strong></p>","null","neutral_feedback","1","test","4","","","","","","","",""
"","","","","","","","","","","","html-button-response","213","2.0.0","457633","670d0152550cbd15e8f278e2","1","17","2117","","","","","","","","","<img src= ""rock_img/I_Pumice_15.jpg"" style=""width:8cm; height:7.86cm;""><p>What type of rock is this?</p>","3","class_response","1","test","5","Gabbro","Pumice","15","false","4","8","",""
"","","","","","","","","","","","html-keyboard-response","214","2.0.0","458146","670d0152550cbd15e8f278e2","1","17","null","","","","","","","","","<p style='font-size: 30px;'><strong>Okay</strong></p>","null","neutral_feedback","1","test","5","","","","","","","",""
"","","","","","","","","","","","html-button-response","215","2.0.0","463263","670d0152550cbd15e8f278e2","1","17","5115","","","","","","","","","<img src= ""rock_img/I_Gabbro_11.jpg"" style=""width:8cm; height:6.2cm;""><p>What type of rock is this?</p>","2","class_response","1","test","6","Diorite","Gabbro","11","false","3","4","",""
"","","","","","","","","","","","html-keyboard-response","216","2.0.0","463779","670d0152550cbd15e8f278e2","1","17","null","","","","","","","","","<p style='font-size: 30px;'><strong>Okay</strong></p>","null","neutral_feedback","1","test","6","","","","","","","",""
"","","","","","","","","","","","html-button-response","217","2.0.0","466619","670d0152550cbd15e8f278e2","1","17","2838","","","","","","","","","<img src= ""rock_img/I_Obsidian_16.jpg"" style=""width:8cm; height:9.3cm;""><p>What type of rock is this?</p>","4","class_response","1","test","7","Obsidian","Obsidian","16","true","5","5","",""
"","","","","","","","","","","","html-keyboard-response","218","2.0.0","467123","670d0152550cbd15e8f278e2","1","17","null","","","","","","","","","<p style='font-size: 30px;'><strong>Okay</strong></p>","null","neutral_feedback","1","test","7","","","","","","","",""
"","","","","","","","","","","","html-button-response","219","2.0.0","469381","670d0152550cbd15e8f278e2","1","17","2258","","","","","","","","","<img src= ""rock_img/I_Peridotite_14.jpg"" style=""width:8cm; height:5.3cm;""><p>What type of rock is this?</p>","3","class_response","1","test","8","Gabbro","Peridotite","14","false","4","7","",""
"","","","","","","","","","","","html-keyboard-response","220","2.0.0","469887","670d0152550cbd15e8f278e2","1","17","null","","","","","","","","","<p style='font-size: 30px;'><strong>Okay</strong></p>","null","neutral_feedback","1","test","8","","","","","","","",""
"","","","","","","","","","","","html-button-response","221","2.0.0","470947","670d0152550cbd15e8f278e2","1","17","1058","","","","","","","","","<img src= ""rock_img/I_Basalt_09.jpg"" style=""width:8cm; height:6.2cm;""><p>What type of rock is this?</p>","3","class_response","1","test","9","Gabbro","Basalt","09","false","4","2","",""
"","","","","","","","","","","","html-keyboard-response","222","2.0.0","471451","670d0152550cbd15e8f278e2","1","17","null","","","","","","","","","<p style='font-size: 30px;'><strong>Okay</strong></p>","null","neutral_feedback","1","test","9","","","","","","","",""
"","","","","","","","","","","","html-button-response","223","2.0.0","472757","670d0152550cbd15e8f278e2","1","17","1304","","","","","","","","","<img src= ""rock_img/I_Pegmatite_09.jpg"" style=""width:8cm; height:4.03cm;""><p>What type of rock is this?</p>","7","class_response","1","test","10","Pumice","Pegmatite","09","false","8","6","",""
"","","","","","","","","","","","html-keyboard-response","224","2.0.0","473268","670d0152550cbd15e8f278e2","1","17","null","","","","","","","","","<p style='font-size: 30px;'><strong>Okay</strong></p>","null","neutral_feedback","1","test","10","","","","","","","",""
"","","","","","","","","","","","html-button-response","225","2.0.0","477027","670d0152550cbd15e8f278e2","1","17","3758","","","","","","","","","<img src= ""rock_img/I_Diorite_07.jpg"" style=""width:8cm; height:5.239999999999999cm;""><p>What type of rock is this?</p>","4","class_response","1","test","11","Obsidian","Diorite","07","false","5","3","",""
"","","","","","","","","","","","html-keyboard-response","226","2.0.0","477529","670d0152550cbd15e8f278e2","1","17","null","","","","","","","","","<p style='font-size: 30px;'><strong>Okay</strong></p>","null","neutral_feedback","1","test","11","","","","","","","",""
"","","","","","","","","","","","html-button-response","227","2.0.0","478973","670d0152550cbd15e8f278e2","1","17","1443","","","","","","","","","<img src= ""rock_img/I_Peridotite_04.jpg"" style=""width:8cm; height:6.680000000000001cm;""><p>What type of rock is this?</p>","1","class_response","1","test","12","Basalt","Peridotite","04","false","2","7","",""
"","","","","","","","","","","","html-keyboard-response","228","2.0.0","479475","670d0152550cbd15e8f278e2","1","17","null","","","","","","","","","<p style='font-size: 30px;'><strong>Okay</strong></p>","null","neutral_feedback","1","test","12","","","","","","","",""
"","","","","","","","","","","","html-button-response","229","2.0.0","482113","670d0152550cbd15e8f278e2","1","17","2637","","","","","","","","","<img src= ""rock_img/I_Andesite_03.jpg"" style=""width:8cm; height:5.73cm;""><p>What type of rock is this?</p>","1","class_response","1","test","13","Basalt","Andesite","03","false","2","1","",""
"","","","","","","","","","","","html-keyboard-response","230","2.0.0","482617","670d0152550cbd15e8f278e2","1","17","null","","","","","","","","","<p style='font-size: 30px;'><strong>Okay</strong></p>","null","neutral_feedback","1","test","13","","","","","","","",""
"","","","","","","","","","","","html-button-response","231","2.0.0","484225","670d0152550cbd15e8f278e2","1","17","1607","","","","","","","","","<img src= ""rock_img/I_Pumice_06.jpg"" style=""width:8cm; height:6.9399999999999995cm;""><p>What type of rock is this?</p>","2","class_response","1","test","14","Diorite","Pumice","06","false","3","8","",""
"","","","","","","","","","","","html-keyboard-response","232","2.0.0","484737","670d0152550cbd15e8f278e2","1","17","null","","","","","","","","","<p style='font-size: 30px;'><strong>Okay</strong></p>","null","neutral_feedback","1","test","14","","","","","","","",""
"","","","","","","","","","","","html-button-response","233","2.0.0","486817","670d0152550cbd15e8f278e2","1","17","2079","","","","","","","","","<img src= ""rock_img/I_Basalt_11.jpg"" style=""width:8cm; height:5.359999999999999cm;""><p>What type of rock is this?</p>","6","class_response","1","test","15","Peridotite","Basalt","11","false","7","2","",""
"","","","","","","","","","","","html-keyboard-response","234","2.0.0","487318","670d0152550cbd15e8f278e2","1","17","null","","","","","","","","","<p style='font-size: 30px;'><strong>Okay</strong></p>","null","neutral_feedback","1","test","15","","","","","","","",""
"","","","","","","","","","","","html-button-response","235","2.0.0","488841","670d0152550cbd15e8f278e2","1","17","1521","","","","","","","","","<img src= ""rock_img/I_Pumice_04.jpg"" style=""width:8cm; height:6.819999999999999cm;""><p>What type of rock is this?</p>","6","class_response","1","test","16","Peridotite","Pumice","04","false","7","8","",""
"","","","","","","","","","","","html-keyboard-response","236","2.0.0","489346","670d0152550cbd15e8f278e2","1","17","null","","","","","","","","","<p style='font-size: 30px;'><strong>Okay</strong></p>","null","neutral_feedback","1","test","16","","","","","","","",""
"","","","","","","","","","","","html-button-response","237","2.0.0","490508","670d0152550cbd15e8f278e2","1","17","1160","","","","","","","","","<img src= ""rock_img/I_Obsidian_04.jpg"" style=""width:8cm; height:6.930000000000001cm;""><p>What type of rock is this?</p>","4","class_response","1","test","17","Obsidian","Obsidian","04","true","5","5","",""
"","","","","","","","","","","","html-keyboard-response","238","2.0.0","491015","670d0152550cbd15e8f278e2","1","17","null","","","","","","","","","<p style='font-size: 30px;'><strong>Okay</strong></p>","null","neutral_feedback","1","test","17","","","","","","","",""
"","","","","","","","","","","","html-button-response","239","2.0.0","492111","670d0152550cbd15e8f278e2","1","17","1094","","","","","","","","","<img src= ""rock_img/I_Peridotite_07.jpg"" style=""width:8cm; height:4.83cm;""><p>What type of rock is this?</p>","5","class_response","1","test","18","Pegmatite","Peridotite","07","false","6","7","",""
"","","","","","","","","","","","html-keyboard-response","240","2.0.0","492622","670d0152550cbd15e8f278e2","1","17","null","","","","","","","","","<p style='font-size: 30px;'><strong>Okay</strong></p>","null","neutral_feedback","1","test","18","","","","","","","",""
"","","","","","","","","","","","html-button-response","241","2.0.0","495265","670d0152550cbd15e8f278e2","1","17","2642","","","","","","","","","<img src= ""rock_img/I_Diorite_02.jpg"" style=""width:8cm; height:6.27cm;""><p>What type of rock is this?</p>","0","class_response","1","test","19","Andesite","Diorite","02","false","1","3","",""
"","","","","","","","","","","","html-keyboard-response","242","2.0.0","495781","670d0152550cbd15e8f278e2","1","17","null","","","","","","","","","<p style='font-size: 30px;'><strong>Okay</strong></p>","null","neutral_feedback","1","test","19","","","","","","","",""
"","","","","","","","","","","","html-button-response","243","2.0.0","497271","670d0152550cbd15e8f278e2","1","17","1489","","","","","","","","","<img src= ""rock_img/I_Obsidian_06.jpg"" style=""width:8cm; height:6.8cm;""><p>What type of rock is this?</p>","4","class_response","1","test","20","Obsidian","Obsidian","06","true","5","5","",""
"","","","","","","","","","","","html-keyboard-response","244","2.0.0","497772","670d0152550cbd15e8f278e2","1","17","null","","","","","","","","","<p style='font-size: 30px;'><strong>Okay</strong></p>","null","neutral_feedback","1","test","20","","","","","","","",""
"","","","","","","","","","","","html-button-response","245","2.0.0","499789","670d0152550cbd15e8f278e2","1","17","2016","","","","","","","","","<img src= ""rock_img/I_Basalt_12.jpg"" style=""width:8cm; height:6.010000000000001cm;""><p>What type of rock is this?</p>","2","class_response","1","test","21","Diorite","Basalt","12","false","3","2","",""
"","","","","","","","","","","","html-keyboard-response","246","2.0.0","500290","670d0152550cbd15e8f278e2","1","17","null","","","","","","","","","<p style='font-size: 30px;'><strong>Okay</strong></p>","null","neutral_feedback","1","test","21","","","","","","","",""
"","","","","","","","","","","","html-button-response","247","2.0.0","502369","670d0152550cbd15e8f278e2","1","17","2078","","","","","","","","","<img src= ""rock_img/I_Andesite_07.jpg"" style=""width:8cm; height:5.93cm;""><p>What type of rock is this?</p>","7","class_response","1","test","22","Pumice","Andesite","07","false","8","1","",""
"","","","","","","","","","","","html-keyboard-response","248","2.0.0","502869","670d0152550cbd15e8f278e2","1","17","null","","","","","","","","","<p style='font-size: 30px;'><strong>Okay</strong></p>","null","neutral_feedback","1","test","22","","","","","","","",""
"","","","","","","","","","","","html-button-response","249","2.0.0","504199","670d0152550cbd15e8f278e2","1","17","1328","","","","","","","","","<img src= ""rock_img/I_Andesite_05.jpg"" style=""width:8cm; height:4.12cm;""><p>What type of rock is this?</p>","5","class_response","1","test","23","Pegmatite","Andesite","05","false","6","1","",""
"","","","","","","","","","","","html-keyboard-response","250","2.0.0","504710","670d0152550cbd15e8f278e2","1","17","null","","","","","","","","","<p style='font-size: 30px;'><strong>Okay</strong></p>","null","neutral_feedback","1","test","23","","","","","","","",""
"","","","","","","","","","","","html-button-response","251","2.0.0","506761","670d0152550cbd15e8f278e2","1","17","2050","","","","","","","","","<img src= ""rock_img/I_Diorite_08.jpg"" style=""width:8cm; height:6.37cm;""><p>What type of rock is this?</p>","3","class_response","1","test","24","Gabbro","Diorite","08","false","4","3","",""
"","","","","","","","","","","","html-keyboard-response","252","2.0.0","507264","670d0152550cbd15e8f278e2","1","17","null","","","","","","","","","<p style='font-size: 30px;'><strong>Okay</strong></p>","null","neutral_feedback","1","test","24","","","","","","","",""
"","","","","","","","","","","","html-button-response","253","2.0.0","508581","670d0152550cbd15e8f278e2","1","17","1315","","","","","","","","","<img src= ""rock_img/I_Andesite_14.jpg"" style=""width:8cm; height:5.449999999999999cm;""><p>What type of rock is this?</p>","2","class_response","1","test","25","Diorite","Andesite","14","false","3","1","",""
"","","","","","","","","","","","html-keyboard-response","254","2.0.0","509096","670d0152550cbd15e8f278e2","1","17","null","","","","","","","","","<p style='font-size: 30px;'><strong>Okay</strong></p>","null","neutral_feedback","1","test","25","","","","","","","",""
"","","","","","","","","","","","html-button-response","255","2.0.0","510313","670d0152550cbd15e8f278e2","1","17","1216","","","","","","","","","<img src= ""rock_img/I_Obsidian_12.jpg"" style=""width:8cm; height:6.53cm;""><p>What type of rock is this?</p>","4","class_response","1","test","26","Obsidian","Obsidian","12","true","5","5","",""
"","","","","","","","","","","","html-keyboard-response","256","2.0.0","510825","670d0152550cbd15e8f278e2","1","17","null","","","","","","","","","<p style='font-size: 30px;'><strong>Okay</strong></p>","null","neutral_feedback","1","test","26","","","","","","","",""
"","","","","","","","","","","","html-button-response","257","2.0.0","511853","670d0152550cbd15e8f278e2","1","17","1026","","","","","","","","","<img src= ""rock_img/I_Peridotite_05.jpg"" style=""width:8cm; height:7.1499999999999995cm;""><p>What type of rock is this?</p>","1","class_response","1","test","27","Basalt","Peridotite","05","false","2","7","",""
"","","","","","","","","","","","html-keyboard-response","258","2.0.0","512354","670d0152550cbd15e8f278e2","1","17","null","","","","","","","","","<p style='font-size: 30px;'><strong>Okay</strong></p>","null","neutral_feedback","1","test","27","","","","","","","",""
"","","","","","","","","","","","html-button-response","259","2.0.0","513399","670d0152550cbd15e8f278e2","1","17","1044","","","","","","","","","<img src= ""rock_img/I_Pumice_10.jpg"" style=""width:8cm; height:7.609999999999999cm;""><p>What type of rock is this?</p>","2","class_response","1","test","28","Diorite","Pumice","10","false","3","8","",""
"","","","","","","","","","","","html-keyboard-response","260","2.0.0","513905","670d0152550cbd15e8f278e2","1","17","null","","","","","","","","","<p style='font-size: 30px;'><strong>Okay</strong></p>","null","neutral_feedback","1","test","28","","","","","","","",""
"","","","","","","","","","","","html-button-response","261","2.0.0","515367","670d0152550cbd15e8f278e2","1","17","1460","","","","","","","","","<img src= ""rock_img/I_Gabbro_01.jpg"" style=""width:8cm; height:5.21cm;""><p>What type of rock is this?</p>","6","class_response","1","test","29","Peridotite","Gabbro","01","false","7","4","",""
"","","","","","","","","","","","html-keyboard-response","262","2.0.0","515879","670d0152550cbd15e8f278e2","1","17","null","","","","","","","","","<p style='font-size: 30px;'><strong>Okay</strong></p>","null","neutral_feedback","1","test","29","","","","","","","",""
"","","","","","","","","","","","html-button-response","263","2.0.0","518491","670d0152550cbd15e8f278e2","1","17","2610","","","","","","","","","<img src= ""rock_img/I_Gabbro_16.jpg"" style=""width:8cm; height:6.44cm;""><p>What type of rock is this?</p>","1","class_response","1","test","30","Basalt","Gabbro","16","false","2","4","",""
"","","","","","","","","","","","html-keyboard-response","264","2.0.0","518994","670d0152550cbd15e8f278e2","1","17","null","","","","","","","","","<p style='font-size: 30px;'><strong>Okay</strong></p>","null","neutral_feedback","1","test","30","","","","","","","",""
"","","","","","","","","","","","html-button-response","265","2.0.0","521857","670d0152550cbd15e8f278e2","1","17","2862","","","","","","","","","<img src= ""rock_img/I_Basalt_01.jpg"" style=""width:8cm; height:7.880000000000001cm;""><p>What type of rock is this?</p>","2","class_response","1","test","31","Diorite","Basalt","01","false","3","2","",""
"","","","","","","","","","","","html-keyboard-response","266","2.0.0","522359","670d0152550cbd15e8f278e2","1","17","null","","","","","","","","","<p style='font-size: 30px;'><strong>Okay</strong></p>","null","neutral_feedback","1","test","31","","","","","","","",""
"","","","","","","","","","","","html-button-response","267","2.0.0","523507","670d0152550cbd15e8f278e2","1","17","1147","","","","","","","","","<img src= ""rock_img/I_Diorite_15.jpg"" style=""width:8cm; height:5.54cm;""><p>What type of rock is this?</p>","3","class_response","1","test","32","Gabbro","Diorite","15","false","4","3","",""
"","","","","","","","","","","","html-keyboard-response","268","2.0.0","524009","670d0152550cbd15e8f278e2","1","17","null","","","","","","","","","<p style='font-size: 30px;'><strong>Okay</strong></p>","null","neutral_feedback","1","test","32","","","","","","","",""
"","","","","","","","","","","","html-button-response","269","2.0.0","525229","670d0152550cbd15e8f278e2","1","17","1218","","","","","","","","","<img src= ""rock_img/I_Peridotite_08.jpg"" style=""width:8cm; height:6.7cm;""><p>What type of rock is this?</p>","7","class_response","1","test","33","Pumice","Peridotite","08","false","8","7","",""
"","","","","","","","","","","","html-keyboard-response","270","2.0.0","525731","670d0152550cbd15e8f278e2","1","17","null","","","","","","","","","<p style='font-size: 30px;'><strong>Okay</strong></p>","null","neutral_feedback","1","test","33","","","","","","","",""
"","","","","","","","","","","","html-button-response","271","2.0.0","527173","670d0152550cbd15e8f278e2","1","17","1440","","","","","","","","","<img src= ""rock_img/I_Andesite_02.jpg"" style=""width:8cm; height:8.5cm;""><p>What type of rock is this?</p>","5","class_response","1","test","34","Pegmatite","Andesite","02","false","6","1","",""
"","","","","","","","","","","","html-keyboard-response","272","2.0.0","527690","670d0152550cbd15e8f278e2","1","17","null","","","","","","","","","<p style='font-size: 30px;'><strong>Okay</strong></p>","null","neutral_feedback","1","test","34","","","","","","","",""
"","","","","","","","","","","","html-button-response","273","2.0.0","529096","670d0152550cbd15e8f278e2","1","17","1406","","","","","","","","","<img src= ""rock_img/I_Gabbro_15.jpg"" style=""width:8cm; height:6.29cm;""><p>What type of rock is this?</p>","1","class_response","1","test","35","Basalt","Gabbro","15","false","2","4","",""
"","","","","","","","","","","","html-keyboard-response","274","2.0.0","529602","670d0152550cbd15e8f278e2","1","17","null","","","","","","","","","<p style='font-size: 30px;'><strong>Okay</strong></p>","null","neutral_feedback","1","test","35","","","","","","","",""
"","","","","","","","","","","","html-button-response","275","2.0.0","530585","670d0152550cbd15e8f278e2","1","17","982","","","","","","","","","<img src= ""rock_img/I_Pumice_14.jpg"" style=""width:8cm; height:6.39cm;""><p>What type of rock is this?</p>","2","class_response","1","test","36","Diorite","Pumice","14","false","3","8","",""
"","","","","","","","","","","","html-keyboard-response","276","2.0.0","531086","670d0152550cbd15e8f278e2","1","17","null","","","","","","","","","<p style='font-size: 30px;'><strong>Okay</strong></p>","null","neutral_feedback","1","test","36","","","","","","","",""
"","","","","","","","","","","","html-button-response","277","2.0.0","534653","670d0152550cbd15e8f278e2","1","17","3565","","","","","","","","","<img src= ""rock_img/I_Basalt_05.jpg"" style=""width:8cm; height:8.18cm;""><p>What type of rock is this?</p>","1","class_response","1","test","37","Basalt","Basalt","05","true","2","2","",""
"","","","","","","","","","","","html-keyboard-response","278","2.0.0","535166","670d0152550cbd15e8f278e2","1","17","null","","","","","","","","","<p style='font-size: 30px;'><strong>Okay</strong></p>","null","neutral_feedback","1","test","37","","","","","","","",""
"","","","","","","","","","","","html-button-response","279","2.0.0","537223","670d0152550cbd15e8f278e2","1","17","2056","","","","","","","","","<img src= ""rock_img/I_Pegmatite_12.jpg"" style=""width:8cm; height:5.7cm;""><p>What type of rock is this?</p>","1","class_response","1","test","38","Basalt","Pegmatite","12","false","2","6","",""
"","","","","","","","","","","","html-keyboard-response","280","2.0.0","537727","670d0152550cbd15e8f278e2","1","17","null","","","","","","","","","<p style='font-size: 30px;'><strong>Okay</strong></p>","null","neutral_feedback","1","test","38","","","","","","","",""
"","","","","","","","","","","","html-button-response","281","2.0.0","538987","670d0152550cbd15e8f278e2","1","17","1259","","","","","","","","","<img src= ""rock_img/I_Pumice_16.jpg"" style=""width:8cm; height:6.79cm;""><p>What type of rock is this?</p>","2","class_response","1","test","39","Diorite","Pumice","16","false","3","8","",""
"","","","","","","","","","","","html-keyboard-response","282","2.0.0","539493","670d0152550cbd15e8f278e2","1","17","null","","","","","","","","","<p style='font-size: 30px;'><strong>Okay</strong></p>","null","neutral_feedback","1","test","39","","","","","","","",""
"","","","","","","","","","","","html-button-response","283","2.0.0","540841","670d0152550cbd15e8f278e2","1","17","1347","","","","","","","","","<img src= ""rock_img/I_Pegmatite_05.jpg"" style=""width:8cm; height:7.300000000000001cm;""><p>What type of rock is this?</p>","6","class_response","1","test","40","Peridotite","Pegmatite","05","false","7","6","",""
"","","","","","","","","","","","html-keyboard-response","284","2.0.0","541355","670d0152550cbd15e8f278e2","1","17","null","","","","","","","","","<p style='font-size: 30px;'><strong>Okay</strong></p>","null","neutral_feedback","1","test","40","","","","","","","",""
"","","","","","","","","","","","html-button-response","285","2.0.0","543089","670d0152550cbd15e8f278e2","1","17","1733","","","","","","","","","<img src= ""rock_img/I_Peridotite_13.jpg"" style=""width:8cm; height:7.58cm;""><p>What type of rock is this?</p>","3","class_response","1","test","41","Gabbro","Peridotite","13","false","4","7","",""
"","","","","","","","","","","","html-keyboard-response","286","2.0.0","543590","670d0152550cbd15e8f278e2","1","17","null","","","","","","","","","<p style='font-size: 30px;'><strong>Okay</strong></p>","null","neutral_feedback","1","test","41","","","","","","","",""
"","","","","","","","","","","","html-button-response","287","2.0.0","544428","670d0152550cbd15e8f278e2","1","17","838","","","","","","","","","<img src= ""rock_img/I_Gabbro_03.jpg"" style=""width:8cm; height:8.52cm;""><p>What type of rock is this?</p>","3","class_response","1","test","42","Gabbro","Gabbro","03","true","4","4","",""
"","","","","","","","","","","","html-keyboard-response","288","2.0.0","544940","670d0152550cbd15e8f278e2","1","17","null","","","","","","","","","<p style='font-size: 30px;'><strong>Okay</strong></p>","null","neutral_feedback","1","test","42","","","","","","","",""
"","","","","","","","","","","","html-button-response","289","2.0.0","545999","670d0152550cbd15e8f278e2","1","17","1057","","","","","","","","","<img src= ""rock_img/I_Diorite_13.jpg"" style=""width:8cm; height:6.29cm;""><p>What type of rock is this?</p>","7","class_response","1","test","43","Pumice","Diorite","13","false","8","3","",""
"","","","","","","","","","","","html-keyboard-response","290","2.0.0","546500","670d0152550cbd15e8f278e2","1","17","null","","","","","","","","","<p style='font-size: 30px;'><strong>Okay</strong></p>","null","neutral_feedback","1","test","43","","","","","","","",""
"","","","","","","","","","","","html-button-response","291","2.0.0","549585","670d0152550cbd15e8f278e2","1","17","3084","","","","","","","","","<img src= ""rock_img/I_Pegmatite_16.jpg"" style=""width:8cm; height:5.8cm;""><p>What type of rock is this?</p>","0","class_response","1","test","44","Andesite","Pegmatite","16","false","1","6","",""
"","","","","","","","","","","","html-keyboard-response","292","2.0.0","550086","670d0152550cbd15e8f278e2","1","17","null","","","","","","","","","<p style='font-size: 30px;'><strong>Okay</strong></p>","null","neutral_feedback","1","test","44","","","","","","","",""
"","","","","","","","","","","","html-button-response","293","2.0.0","551097","670d0152550cbd15e8f278e2","1","17","1009","","","","","","","","","<img src= ""rock_img/I_Obsidian_09.jpg"" style=""width:8cm; height:5cm;""><p>What type of rock is this?</p>","4","class_response","1","test","45","Obsidian","Obsidian","09","true","5","5","",""
"","","","","","","","","","","","html-keyboard-response","294","2.0.0","551611","670d0152550cbd15e8f278e2","1","17","null","","","","","","","","","<p style='font-size: 30px;'><strong>Okay</strong></p>","null","neutral_feedback","1","test","45","","","","","","","",""
"","","","","","","","","","","","html-button-response","295","2.0.0","553179","670d0152550cbd15e8f278e2","1","17","1567","","","","","","","","","<img src= ""rock_img/I_Gabbro_13.jpg"" style=""width:8cm; height:5.08cm;""><p>What type of rock is this?</p>","5","class_response","1","test","46","Pegmatite","Gabbro","13","false","6","4","",""
"","","","","","","","","","","","html-keyboard-response","296","2.0.0","553682","670d0152550cbd15e8f278e2","1","17","null","","","","","","","","","<p style='font-size: 30px;'><strong>Okay</strong></p>","null","neutral_feedback","1","test","46","","","","","","","",""
"","","","","","","","","","","","html-button-response","297","2.0.0","555943","670d0152550cbd15e8f278e2","1","17","2258","","","","","","","","","<img src= ""rock_img/I_Diorite_14.jpg"" style=""width:8cm; height:5.71cm;""><p>What type of rock is this?</p>","1","class_response","1","test","47","Basalt","Diorite","14","false","2","3","",""
"","","","","","","","","","","","html-keyboard-response","298","2.0.0","556444","670d0152550cbd15e8f278e2","1","17","null","","","","","","","","","<p style='font-size: 30px;'><strong>Okay</strong></p>","null","neutral_feedback","1","test","47","","","","","","","",""
"","","","","","","","","","","","html-button-response","299","2.0.0","557963","670d0152550cbd15e8f278e2","1","17","1518","","","","","","","","","<img src= ""rock_img/I_Basalt_14.jpg"" style=""width:8cm; height:5.82cm;""><p>What type of rock is this?</p>","2","class_response","1","test","48","Diorite","Basalt","14","false","3","2","",""
"","","","","","","","","","","","html-keyboard-response","300","2.0.0","558471","670d0152550cbd15e8f278e2","1","17","null","","","","","","","","","<p style='font-size: 30px;'><strong>Okay</strong></p>","null","neutral_feedback","1","test","48","","","","","","","",""
"","","","","","","","","","","","html-button-response","301","2.0.0","568489","670d0152550cbd15e8f278e2","1","17","","","","","","","","","","","","cycle_feedback","","","","","","","","","","8778.60000000149","1232.3999999985099"
"","","","","","","","","","","","html-button-response","303","2.0.0","570109","670d0152550cbd15e8f278e2","1","17","1619","","","","","","","","","","0","start_train","","","","","","","","","","",""
"","","","","","","","","","","","html-button-response","304","2.0.0","572953","670d0152550cbd15e8f278e2","1","17","2842","","","","","","","","","<img src= ""rock_img/I_Peridotite_15.jpg"" style=""width:8cm; height:6cm;""><p>What type of rock is this?</p>","5","class_response","2","train","1","Pegmatite","Peridotite","15","false","6","7","",""
