"width","height","webaudio","browser","browser_version","mobile","os","fullscreen","vsync_rate","webcam","microphone","trial_type","trial_index","plugin_version","time_elapsed","subjID","condition","stimID","rt","url","success","value","timeout","failed_images","failed_audio","failed_video","view_history","stimulus","response","trialType","cycle","phase","trial","resp","cat","token","corr","resp_num","cat_num","time_fb1","time_fb2"
"1366","635","true","firefox","132.0.0","false","Windows 10","true","60.42","true","true","browser-check","0","2.0.0","1009","67351c705a5fbf628dd4f1d6","1","13","","","","","","","","","","","","","","","","","","","","","","",""
"","","","","","","","","","","","external-html","1","2.0.0","56123","67351c705a5fbf628dd4f1d6","1","13","54781","consent_form.html","","","","","","","","","","","","","","","","","","","","",""
"","","","","","","","","","","","fullscreen","2","2.0.0","63248","67351c705a5fbf628dd4f1d6","1","13","4795","","true","","","","","","","","","","","","","","","","","","","",""
"","","","","","","","","","","","call-function","3","2.0.0","63253","67351c705a5fbf628dd4f1d6","1","13","","","","{}","","","","","","","","","","","","","","","","","","",""
"","","","","","","","","","","","preload","4","2.0.0","82708","67351c705a5fbf628dd4f1d6","1","13","","","true","","false","[]","[]","[]","","","","","","","","","","","","","","",""
"","","","","","","","","","","","instructions","5","2.0.0","157172","67351c705a5fbf628dd4f1d6","1","13","74459","","","","","","","","[{""page_index"":0,""viewing_time"":13911},{""page_index"":1,""viewing_time"":37863},{""page_index"":2,""viewing_time"":22685}]","","","","","","","","","","","","","",""
"","","","","","","","","","","","html-button-response","6","2.0.0","166271","67351c705a5fbf628dd4f1d6","1","13","9096","","","","","","","","","","0","start_test","","","","","","","","","","",""
"","","","","","","","","","","","html-button-response","7","2.0.0","175555","67351c705a5fbf628dd4f1d6","1","13","9280","","","","","","","","","<img src= ""rock_img/I_Pumice_06.jpg"" style=""width:8cm; height:6.9399999999999995cm;""><p>What type of rock is this?</p>","1","class_response","0","test","1","Basalt","Pumice","06","false","2","8","",""
"","","","","","","","","","","","html-keyboard-response","8","2.0.0","176073","67351c705a5fbf628dd4f1d6","1","13","null","","","","","","","","","<p style='font-size: 30px;'><strong>Okay</strong></p>","null","neutral_feedback","0","test","1","","","","","","","",""
"","","","","","","","","","","","html-button-response","9","2.0.0","190635","67351c705a5fbf628dd4f1d6","1","13","14557","","","","","","","","","<img src= ""rock_img/I_Diorite_10.jpg"" style=""width:8cm; height:5.949999999999999cm;""><p>What type of rock is this?</p>","2","class_response","0","test","2","Diorite","Diorite","10","true","3","3","",""
"","","","","","","","","","","","html-keyboard-response","10","2.0.0","191152","67351c705a5fbf628dd4f1d6","1","13","null","","","","","","","","","<p style='font-size: 30px;'><strong>Okay</strong></p>","null","neutral_feedback","0","test","2","","","","","","","",""
"","","","","","","","","","","","html-button-response","11","2.0.0","202583","67351c705a5fbf628dd4f1d6","1","13","11427","","","","","","","","","<img src= ""rock_img/I_Pumice_16.jpg"" style=""width:8cm; height:6.79cm;""><p>What type of rock is this?</p>","6","class_response","0","test","3","Peridotite","Pumice","16","false","7","8","",""
"","","","","","","","","","","","html-keyboard-response","12","2.0.0","203093","67351c705a5fbf628dd4f1d6","1","13","null","","","","","","","","","<p style='font-size: 30px;'><strong>Okay</strong></p>","null","neutral_feedback","0","test","3","","","","","","","",""
"","","","","","","","","","","","html-button-response","13","2.0.0","206474","67351c705a5fbf628dd4f1d6","1","13","3377","","","","","","","","","<img src= ""rock_img/I_Peridotite_10.jpg"" style=""width:8cm; height:5.390000000000001cm;""><p>What type of rock is this?</p>","3","class_response","0","test","4","Gabbro","Peridotite","10","false","4","7","",""
"","","","","","","","","","","","html-keyboard-response","14","2.0.0","206986","67351c705a5fbf628dd4f1d6","1","13","null","","","","","","","","","<p style='font-size: 30px;'><strong>Okay</strong></p>","null","neutral_feedback","0","test","4","","","","","","","",""
"","","","","","","","","","","","html-button-response","15","2.0.0","208569","67351c705a5fbf628dd4f1d6","1","13","1579","","","","","","","","","<img src= ""rock_img/I_Andesite_16.jpg"" style=""width:8cm; height:6.010000000000001cm;""><p>What type of rock is this?</p>","3","class_response","0","test","5","Gabbro","Andesite","16","false","4","1","",""
"","","","","","","","","","","","html-keyboard-response","16","2.0.0","209075","67351c705a5fbf628dd4f1d6","1","13","null","","","","","","","","","<p style='font-size: 30px;'><strong>Okay</strong></p>","null","neutral_feedback","0","test","5","","","","","","","",""
"","","","","","","","","","","","html-button-response","17","2.0.0","211850","67351c705a5fbf628dd4f1d6","1","13","2771","","","","","","","","","<img src= ""rock_img/I_Obsidian_10.jpg"" style=""width:8cm; height:6.260000000000001cm;""><p>What type of rock is this?</p>","7","class_response","0","test","6","Pumice","Obsidian","10","false","8","5","",""
"","","","","","","","","","","","html-keyboard-response","18","2.0.0","212357","67351c705a5fbf628dd4f1d6","1","13","null","","","","","","","","","<p style='font-size: 30px;'><strong>Okay</strong></p>","null","neutral_feedback","0","test","6","","","","","","","",""
"","","","","","","","","","","","html-button-response","19","2.0.0","217672","67351c705a5fbf628dd4f1d6","1","13","5311","","","","","","","","","<img src= ""rock_img/I_Pegmatite_13.jpg"" style=""width:8cm; height:4.95cm;""><p>What type of rock is this?</p>","0","class_response","0","test","7","Andesite","Pegmatite","13","false","1","6","",""
"","","","","","","","","","","","html-keyboard-response","20","2.0.0","218184","67351c705a5fbf628dd4f1d6","1","13","null","","","","","","","","","<p style='font-size: 30px;'><strong>Okay</strong></p>","null","neutral_feedback","0","test","7","","","","","","","",""
"","","","","","","","","","","","html-button-response","21","2.0.0","227221","67351c705a5fbf628dd4f1d6","1","13","9033","","","","","","","","","<img src= ""rock_img/I_Obsidian_05.jpg"" style=""width:8cm; height:6.33cm;""><p>What type of rock is this?</p>","5","class_response","0","test","8","Pegmatite","Obsidian","05","false","6","5","",""
"","","","","","","","","","","","html-keyboard-response","22","2.0.0","227734","67351c705a5fbf628dd4f1d6","1","13","null","","","","","","","","","<p style='font-size: 30px;'><strong>Okay</strong></p>","null","neutral_feedback","0","test","8","","","","","","","",""
"","","","","","","","","","","","html-button-response","23","2.0.0","231165","67351c705a5fbf628dd4f1d6","1","13","3428","","","","","","","","","<img src= ""rock_img/I_Basalt_02.jpg"" style=""width:8cm; height:6.45cm;""><p>What type of rock is this?</p>","6","class_response","0","test","9","Peridotite","Basalt","02","false","7","2","",""
"","","","","","","","","","","","html-keyboard-response","24","2.0.0","231677","67351c705a5fbf628dd4f1d6","1","13","null","","","","","","","","","<p style='font-size: 30px;'><strong>Okay</strong></p>","null","neutral_feedback","0","test","9","","","","","","","",""
"","","","","","","","","","","","html-button-response","25","2.0.0","244195","67351c705a5fbf628dd4f1d6","1","13","12514","","","","","","","","","<img src= ""rock_img/I_Pegmatite_08.jpg"" style=""width:8cm; height:7.68cm;""><p>What type of rock is this?</p>","2","class_response","0","test","10","Diorite","Pegmatite","08","false","3","6","",""
"","","","","","","","","","","","html-keyboard-response","26","2.0.0","244700","67351c705a5fbf628dd4f1d6","1","13","null","","","","","","","","","<p style='font-size: 30px;'><strong>Okay</strong></p>","null","neutral_feedback","0","test","10","","","","","","","",""
"","","","","","","","","","","","html-button-response","27","2.0.0","246989","67351c705a5fbf628dd4f1d6","1","13","2287","","","","","","","","","<img src= ""rock_img/I_Pumice_09.jpg"" style=""width:8cm; height:6.44cm;""><p>What type of rock is this?</p>","1","class_response","0","test","11","Basalt","Pumice","09","false","2","8","",""
"","","","","","","","","","","","html-keyboard-response","28","2.0.0","247496","67351c705a5fbf628dd4f1d6","1","13","null","","","","","","","","","<p style='font-size: 30px;'><strong>Okay</strong></p>","null","neutral_feedback","0","test","11","","","","","","","",""
"","","","","","","","","","","","html-button-response","29","2.0.0","250620","67351c705a5fbf628dd4f1d6","1","13","3121","","","","","","","","","<img src= ""rock_img/I_Gabbro_16.jpg"" style=""width:8cm; height:6.44cm;""><p>What type of rock is this?</p>","3","class_response","0","test","12","Gabbro","Gabbro","16","true","4","4","",""
"","","","","","","","","","","","html-keyboard-response","30","2.0.0","251137","67351c705a5fbf628dd4f1d6","1","13","null","","","","","","","","","<p style='font-size: 30px;'><strong>Okay</strong></p>","null","neutral_feedback","0","test","12","","","","","","","",""
"","","","","","","","","","","","html-button-response","31","2.0.0","253731","67351c705a5fbf628dd4f1d6","1","13","2591","","","","","","","","","<img src= ""rock_img/I_Gabbro_14.jpg"" style=""width:8cm; height:8.48cm;""><p>What type of rock is this?</p>","0","class_response","0","test","13","Andesite","Gabbro","14","false","1","4","",""
"","","","","","","","","","","","html-keyboard-response","32","2.0.0","254246","67351c705a5fbf628dd4f1d6","1","13","null","","","","","","","","","<p style='font-size: 30px;'><strong>Okay</strong></p>","null","neutral_feedback","0","test","13","","","","","","","",""
"","","","","","","","","","","","html-button-response","33","2.0.0","257998","67351c705a5fbf628dd4f1d6","1","13","3750","","","","","","","","","<img src= ""rock_img/I_Basalt_06.jpg"" style=""width:8cm; height:7.06cm;""><p>What type of rock is this?</p>","2","class_response","0","test","14","Diorite","Basalt","06","false","3","2","",""
"","","","","","","","","","","","html-keyboard-response","34","2.0.0","258502","67351c705a5fbf628dd4f1d6","1","13","null","","","","","","","","","<p style='font-size: 30px;'><strong>Okay</strong></p>","null","neutral_feedback","0","test","14","","","","","","","",""
"","","","","","","","","","","","html-button-response","35","2.0.0","260443","67351c705a5fbf628dd4f1d6","1","13","1938","","","","","","","","","<img src= ""rock_img/I_Basalt_09.jpg"" style=""width:8cm; height:6.2cm;""><p>What type of rock is this?</p>","1","class_response","0","test","15","Basalt","Basalt","09","true","2","2","",""
"","","","","","","","","","","","html-keyboard-response","36","2.0.0","260952","67351c705a5fbf628dd4f1d6","1","13","null","","","","","","","","","<p style='font-size: 30px;'><strong>Okay</strong></p>","null","neutral_feedback","0","test","15","","","","","","","",""
"","","","","","","","","","","","html-button-response","37","2.0.0","262906","67351c705a5fbf628dd4f1d6","1","13","1952","","","","","","","","","<img src= ""rock_img/I_Gabbro_12.jpg"" style=""width:8cm; height:7.800000000000001cm;""><p>What type of rock is this?</p>","6","class_response","0","test","16","Peridotite","Gabbro","12","false","7","4","",""
"","","","","","","","","","","","html-keyboard-response","38","2.0.0","263418","67351c705a5fbf628dd4f1d6","1","13","null","","","","","","","","","<p style='font-size: 30px;'><strong>Okay</strong></p>","null","neutral_feedback","0","test","16","","","","","","","",""
"","","","","","","","","","","","html-button-response","39","2.0.0","265734","67351c705a5fbf628dd4f1d6","1","13","2314","","","","","","","","","<img src= ""rock_img/I_Diorite_14.jpg"" style=""width:8cm; height:5.71cm;""><p>What type of rock is this?</p>","7","class_response","0","test","17","Pumice","Diorite","14","false","8","3","",""
"","","","","","","","","","","","html-keyboard-response","40","2.0.0","266244","67351c705a5fbf628dd4f1d6","1","13","null","","","","","","","","","<p style='font-size: 30px;'><strong>Okay</strong></p>","null","neutral_feedback","0","test","17","","","","","","","",""
"","","","","","","","","","","","html-button-response","41","2.0.0","269589","67351c705a5fbf628dd4f1d6","1","13","3343","","","","","","","","","<img src= ""rock_img/I_Diorite_06.jpg"" style=""width:8cm; height:6.03cm;""><p>What type of rock is this?</p>","4","class_response","0","test","18","Obsidian","Diorite","06","false","5","3","",""
"","","","","","","","","","","","html-keyboard-response","42","2.0.0","270092","67351c705a5fbf628dd4f1d6","1","13","null","","","","","","","","","<p style='font-size: 30px;'><strong>Okay</strong></p>","null","neutral_feedback","0","test","18","","","","","","","",""
"","","","","","","","","","","","html-button-response","43","2.0.0","271894","67351c705a5fbf628dd4f1d6","1","13","1799","","","","","","","","","<img src= ""rock_img/I_Obsidian_12.jpg"" style=""width:8cm; height:6.53cm;""><p>What type of rock is this?</p>","5","class_response","0","test","19","Pegmatite","Obsidian","12","false","6","5","",""
"","","","","","","","","","","","html-keyboard-response","44","2.0.0","272399","67351c705a5fbf628dd4f1d6","1","13","null","","","","","","","","","<p style='font-size: 30px;'><strong>Okay</strong></p>","null","neutral_feedback","0","test","19","","","","","","","",""
"","","","","","","","","","","","html-button-response","45","2.0.0","274202","67351c705a5fbf628dd4f1d6","1","13","1799","","","","","","","","","<img src= ""rock_img/I_Basalt_16.jpg"" style=""width:8cm; height:7.659999999999999cm;""><p>What type of rock is this?</p>","1","class_response","0","test","20","Basalt","Basalt","16","true","2","2","",""
"","","","","","","","","","","","html-keyboard-response","46","2.0.0","274708","67351c705a5fbf628dd4f1d6","1","13","null","","","","","","","","","<p style='font-size: 30px;'><strong>Okay</strong></p>","null","neutral_feedback","0","test","20","","","","","","","",""
"","","","","","","","","","","","html-button-response","47","2.0.0","276584","67351c705a5fbf628dd4f1d6","1","13","1873","","","","","","","","","<img src= ""rock_img/I_Pegmatite_09.jpg"" style=""width:8cm; height:4.03cm;""><p>What type of rock is this?</p>","6","class_response","0","test","21","Peridotite","Pegmatite","09","false","7","6","",""
"","","","","","","","","","","","html-keyboard-response","48","2.0.0","277097","67351c705a5fbf628dd4f1d6","1","13","null","","","","","","","","","<p style='font-size: 30px;'><strong>Okay</strong></p>","null","neutral_feedback","0","test","21","","","","","","","",""
"","","","","","","","","","","","html-button-response","49","2.0.0","280750","67351c705a5fbf628dd4f1d6","1","13","3649","","","","","","","","","<img src= ""rock_img/I_Peridotite_13.jpg"" style=""width:8cm; height:7.58cm;""><p>What type of rock is this?</p>","3","class_response","0","test","22","Gabbro","Peridotite","13","false","4","7","",""
"","","","","","","","","","","","html-keyboard-response","50","2.0.0","281260","67351c705a5fbf628dd4f1d6","1","13","null","","","","","","","","","<p style='font-size: 30px;'><strong>Okay</strong></p>","null","neutral_feedback","0","test","22","","","","","","","",""
"","","","","","","","","","","","html-button-response","51","2.0.0","283374","67351c705a5fbf628dd4f1d6","1","13","2111","","","","","","","","","<img src= ""rock_img/I_Pegmatite_16.jpg"" style=""width:8cm; height:5.8cm;""><p>What type of rock is this?</p>","7","class_response","0","test","23","Pumice","Pegmatite","16","false","8","6","",""
"","","","","","","","","","","","html-keyboard-response","52","2.0.0","283883","67351c705a5fbf628dd4f1d6","1","13","null","","","","","","","","","<p style='font-size: 30px;'><strong>Okay</strong></p>","null","neutral_feedback","0","test","23","","","","","","","",""
"","","","","","","","","","","","html-button-response","53","2.0.0","286652","67351c705a5fbf628dd4f1d6","1","13","2767","","","","","","","","","<img src= ""rock_img/I_Peridotite_14.jpg"" style=""width:8cm; height:5.3cm;""><p>What type of rock is this?</p>","6","class_response","0","test","24","Peridotite","Peridotite","14","true","7","7","",""
"","","","","","","","","","","","html-keyboard-response","54","2.0.0","287165","67351c705a5fbf628dd4f1d6","1","13","null","","","","","","","","","<p style='font-size: 30px;'><strong>Okay</strong></p>","null","neutral_feedback","0","test","24","","","","","","","",""
"","","","","","","","","","","","html-button-response","55","2.0.0","290263","67351c705a5fbf628dd4f1d6","1","13","3097","","","","","","","","","<img src= ""rock_img/I_Basalt_10.jpg"" style=""width:8cm; height:5.85cm;""><p>What type of rock is this?</p>","0","class_response","0","test","25","Andesite","Basalt","10","false","1","2","",""
"","","","","","","","","","","","html-keyboard-response","56","2.0.0","290775","67351c705a5fbf628dd4f1d6","1","13","null","","","","","","","","","<p style='font-size: 30px;'><strong>Okay</strong></p>","null","neutral_feedback","0","test","25","","","","","","","",""
"","","","","","","","","","","","html-button-response","57","2.0.0","292744","67351c705a5fbf628dd4f1d6","1","13","1966","","","","","","","","","<img src= ""rock_img/I_Andesite_14.jpg"" style=""width:8cm; height:5.449999999999999cm;""><p>What type of rock is this?</p>","2","class_response","0","test","26","Diorite","Andesite","14","false","3","1","",""
"","","","","","","","","","","","html-keyboard-response","58","2.0.0","293256","67351c705a5fbf628dd4f1d6","1","13","null","","","","","","","","","<p style='font-size: 30px;'><strong>Okay</strong></p>","null","neutral_feedback","0","test","26","","","","","","","",""
"","","","","","","","","","","","html-button-response","59","2.0.0","294810","67351c705a5fbf628dd4f1d6","1","13","1552","","","","","","","","","<img src= ""rock_img/I_Pumice_04.jpg"" style=""width:8cm; height:6.819999999999999cm;""><p>What type of rock is this?</p>","1","class_response","0","test","27","Basalt","Pumice","04","false","2","8","",""
"","","","","","","","","","","","html-keyboard-response","60","2.0.0","295313","67351c705a5fbf628dd4f1d6","1","13","null","","","","","","","","","<p style='font-size: 30px;'><strong>Okay</strong></p>","null","neutral_feedback","0","test","27","","","","","","","",""
"","","","","","","","","","","","html-button-response","61","2.0.0","299086","67351c705a5fbf628dd4f1d6","1","13","3769","","","","","","","","","<img src= ""rock_img/I_Peridotite_15.jpg"" style=""width:8cm; height:6cm;""><p>What type of rock is this?</p>","6","class_response","0","test","28","Peridotite","Peridotite","15","true","7","7","",""
"","","","","","","","","","","","html-keyboard-response","62","2.0.0","299615","67351c705a5fbf628dd4f1d6","1","13","null","","","","","","","","","<p style='font-size: 30px;'><strong>Okay</strong></p>","null","neutral_feedback","0","test","28","","","","","","","",""
"","","","","","","","","","","","html-button-response","63","2.0.0","301451","67351c705a5fbf628dd4f1d6","1","13","1833","","","","","","","","","<img src= ""rock_img/I_Pumice_05.jpg"" style=""width:8cm; height:7.25cm;""><p>What type of rock is this?</p>","1","class_response","0","test","29","Basalt","Pumice","05","false","2","8","",""
"","","","","","","","","","","","html-keyboard-response","64","2.0.0","301955","67351c705a5fbf628dd4f1d6","1","13","null","","","","","","","","","<p style='font-size: 30px;'><strong>Okay</strong></p>","null","neutral_feedback","0","test","29","","","","","","","",""
"","","","","","","","","","","","html-button-response","65","2.0.0","304909","67351c705a5fbf628dd4f1d6","1","13","2952","","","","","","","","","<img src= ""rock_img/I_Pegmatite_03.jpg"" style=""width:8cm; height:5.239999999999999cm;""><p>What type of rock is this?</p>","5","class_response","0","test","30","Pegmatite","Pegmatite","03","true","6","6","",""
"","","","","","","","","","","","html-keyboard-response","66","2.0.0","305425","67351c705a5fbf628dd4f1d6","1","13","null","","","","","","","","","<p style='font-size: 30px;'><strong>Okay</strong></p>","null","neutral_feedback","0","test","30","","","","","","","",""
"","","","","","","","","","","","html-button-response","67","2.0.0","307344","67351c705a5fbf628dd4f1d6","1","13","1917","","","","","","","","","<img src= ""rock_img/I_Gabbro_10.jpg"" style=""width:8cm; height:5.680000000000001cm;""><p>What type of rock is this?</p>","4","class_response","0","test","31","Obsidian","Gabbro","10","false","5","4","",""
"","","","","","","","","","","","html-keyboard-response","68","2.0.0","307858","67351c705a5fbf628dd4f1d6","1","13","null","","","","","","","","","<p style='font-size: 30px;'><strong>Okay</strong></p>","null","neutral_feedback","0","test","31","","","","","","","",""
"","","","","","","","","","","","html-button-response","69","2.0.0","309533","67351c705a5fbf628dd4f1d6","1","13","1672","","","","","","","","","<img src= ""rock_img/I_Obsidian_09.jpg"" style=""width:8cm; height:5cm;""><p>What type of rock is this?</p>","5","class_response","0","test","32","Pegmatite","Obsidian","09","false","6","5","",""
"","","","","","","","","","","","html-keyboard-response","70","2.0.0","310041","67351c705a5fbf628dd4f1d6","1","13","null","","","","","","","","","<p style='font-size: 30px;'><strong>Okay</strong></p>","null","neutral_feedback","0","test","32","","","","","","","",""
"","","","","","","","","","","","html-button-response","71","2.0.0","311915","67351c705a5fbf628dd4f1d6","1","13","1872","","","","","","","","","<img src= ""rock_img/I_Andesite_11.jpg"" style=""width:8cm; height:4.92cm;""><p>What type of rock is this?</p>","2","class_response","0","test","33","Diorite","Andesite","11","false","3","1","",""
"","","","","","","","","","","","html-keyboard-response","72","2.0.0","312427","67351c705a5fbf628dd4f1d6","1","13","null","","","","","","","","","<p style='font-size: 30px;'><strong>Okay</strong></p>","null","neutral_feedback","0","test","33","","","","","","","",""
"","","","","","","","","","","","html-button-response","73","2.0.0","314590","67351c705a5fbf628dd4f1d6","1","13","2160","","","","","","","","","<img src= ""rock_img/I_Diorite_16.jpg"" style=""width:8cm; height:6.74cm;""><p>What type of rock is this?</p>","7","class_response","0","test","34","Pumice","Diorite","16","false","8","3","",""
"","","","","","","","","","","","html-keyboard-response","74","2.0.0","315097","67351c705a5fbf628dd4f1d6","1","13","null","","","","","","","","","<p style='font-size: 30px;'><strong>Okay</strong></p>","null","neutral_feedback","0","test","34","","","","","","","",""
"","","","","","","","","","","","html-button-response","75","2.0.0","319609","67351c705a5fbf628dd4f1d6","1","13","4509","","","","","","","","","<img src= ""rock_img/I_Andesite_02.jpg"" style=""width:8cm; height:8.5cm;""><p>What type of rock is this?</p>","3","class_response","0","test","35","Gabbro","Andesite","02","false","4","1","",""
"","","","","","","","","","","","html-keyboard-response","76","2.0.0","320124","67351c705a5fbf628dd4f1d6","1","13","null","","","","","","","","","<p style='font-size: 30px;'><strong>Okay</strong></p>","null","neutral_feedback","0","test","35","","","","","","","",""
"","","","","","","","","","","","html-button-response","77","2.0.0","321714","67351c705a5fbf628dd4f1d6","1","13","1586","","","","","","","","","<img src= ""rock_img/I_Gabbro_08.jpg"" style=""width:8cm; height:5.15cm;""><p>What type of rock is this?</p>","6","class_response","0","test","36","Peridotite","Gabbro","08","false","7","4","",""
"","","","","","","","","","","","html-keyboard-response","78","2.0.0","322229","67351c705a5fbf628dd4f1d6","1","13","null","","","","","","","","","<p style='font-size: 30px;'><strong>Okay</strong></p>","null","neutral_feedback","0","test","36","","","","","","","",""
"","","","","","","","","","","","html-button-response","79","2.0.0","323612","67351c705a5fbf628dd4f1d6","1","13","1379","","","","","","","","","<img src= ""rock_img/I_Peridotite_05.jpg"" style=""width:8cm; height:7.1499999999999995cm;""><p>What type of rock is this?</p>","2","class_response","0","test","37","Diorite","Peridotite","05","false","3","7","",""
"","","","","","","","","","","","html-keyboard-response","80","2.0.0","324114","67351c705a5fbf628dd4f1d6","1","13","null","","","","","","","","","<p style='font-size: 30px;'><strong>Okay</strong></p>","null","neutral_feedback","0","test","37","","","","","","","",""
"","","","","","","","","","","","html-button-response","81","2.0.0","325721","67351c705a5fbf628dd4f1d6","1","13","1605","","","","","","","","","<img src= ""rock_img/I_Andesite_03.jpg"" style=""width:8cm; height:5.73cm;""><p>What type of rock is this?</p>","6","class_response","0","test","38","Peridotite","Andesite","03","false","7","1","",""
"","","","","","","","","","","","html-keyboard-response","82","2.0.0","326236","67351c705a5fbf628dd4f1d6","1","13","null","","","","","","","","","<p style='font-size: 30px;'><strong>Okay</strong></p>","null","neutral_feedback","0","test","38","","","","","","","",""
"","","","","","","","","","","","html-button-response","83","2.0.0","328503","67351c705a5fbf628dd4f1d6","1","13","2262","","","","","","","","","<img src= ""rock_img/I_Diorite_12.jpg"" style=""width:8cm; height:4.88cm;""><p>What type of rock is this?</p>","1","class_response","0","test","39","Basalt","Diorite","12","false","2","3","",""
"","","","","","","","","","","","html-keyboard-response","84","2.0.0","329015","67351c705a5fbf628dd4f1d6","1","13","null","","","","","","","","","<p style='font-size: 30px;'><strong>Okay</strong></p>","null","neutral_feedback","0","test","39","","","","","","","",""
"","","","","","","","","","","","html-button-response","85","2.0.0","330796","67351c705a5fbf628dd4f1d6","1","13","1778","","","","","","","","","<img src= ""rock_img/I_Peridotite_16.jpg"" style=""width:8cm; height:6.989999999999999cm;""><p>What type of rock is this?</p>","0","class_response","0","test","40","Andesite","Peridotite","16","false","1","7","",""
"","","","","","","","","","","","html-keyboard-response","86","2.0.0","331306","67351c705a5fbf628dd4f1d6","1","13","null","","","","","","","","","<p style='font-size: 30px;'><strong>Okay</strong></p>","null","neutral_feedback","0","test","40","","","","","","","",""
"","","","","","","","","","","","html-button-response","87","2.0.0","333936","67351c705a5fbf628dd4f1d6","1","13","2627","","","","","","","","","<img src= ""rock_img/I_Gabbro_05.jpg"" style=""width:8cm; height:6cm;""><p>What type of rock is this?</p>","5","class_response","0","test","41","Pegmatite","Gabbro","05","false","6","4","",""
"","","","","","","","","","","","html-keyboard-response","88","2.0.0","334447","67351c705a5fbf628dd4f1d6","1","13","null","","","","","","","","","<p style='font-size: 30px;'><strong>Okay</strong></p>","null","neutral_feedback","0","test","41","","","","","","","",""
"","","","","","","","","","","","html-button-response","89","2.0.0","336781","67351c705a5fbf628dd4f1d6","1","13","2331","","","","","","","","","<img src= ""rock_img/I_Obsidian_02.jpg"" style=""width:8cm; height:7.51cm;""><p>What type of rock is this?</p>","5","class_response","0","test","42","Pegmatite","Obsidian","02","false","6","5","",""
"","","","","","","","","","","","html-keyboard-response","90","2.0.0","337289","67351c705a5fbf628dd4f1d6","1","13","null","","","","","","","","","<p style='font-size: 30px;'><strong>Okay</strong></p>","null","neutral_feedback","0","test","42","","","","","","","",""
"","","","","","","","","","","","html-button-response","91","2.0.0","339268","67351c705a5fbf628dd4f1d6","1","13","1976","","","","","","","","","<img src= ""rock_img/I_Andesite_05.jpg"" style=""width:8cm; height:4.12cm;""><p>What type of rock is this?</p>","5","class_response","0","test","43","Pegmatite","Andesite","05","false","6","1","",""
"","","","","","","","","","","","html-keyboard-response","92","2.0.0","339770","67351c705a5fbf628dd4f1d6","1","13","null","","","","","","","","","<p style='font-size: 30px;'><strong>Okay</strong></p>","null","neutral_feedback","0","test","43","","","","","","","",""
"","","","","","","","","","","","html-button-response","93","2.0.0","341466","67351c705a5fbf628dd4f1d6","1","13","1692","","","","","","","","","<img src= ""rock_img/I_Obsidian_07.jpg"" style=""width:8cm; height:4.76cm;""><p>What type of rock is this?</p>","6","class_response","0","test","44","Peridotite","Obsidian","07","false","7","5","",""
"","","","","","","","","","","","html-keyboard-response","94","2.0.0","342016","67351c705a5fbf628dd4f1d6","1","13","null","","","","","","","","","<p style='font-size: 30px;'><strong>Okay</strong></p>","null","neutral_feedback","0","test","44","","","","","","","",""
"","","","","","","","","","","","html-button-response","95","2.0.0","343758","67351c705a5fbf628dd4f1d6","1","13","1739","","","","","","","","","<img src= ""rock_img/I_Pumice_15.jpg"" style=""width:8cm; height:7.86cm;""><p>What type of rock is this?</p>","1","class_response","0","test","45","Basalt","Pumice","15","false","2","8","",""
"","","","","","","","","","","","html-keyboard-response","96","2.0.0","344261","67351c705a5fbf628dd4f1d6","1","13","null","","","","","","","","","<p style='font-size: 30px;'><strong>Okay</strong></p>","null","neutral_feedback","0","test","45","","","","","","","",""
"","","","","","","","","","","","html-button-response","97","2.0.0","345913","67351c705a5fbf628dd4f1d6","1","13","1650","","","","","","","","","<img src= ""rock_img/I_Basalt_08.jpg"" style=""width:8cm; height:10.44cm;""><p>What type of rock is this?</p>","2","class_response","0","test","46","Diorite","Basalt","08","false","3","2","",""
"","","","","","","","","","","","html-keyboard-response","98","2.0.0","346427","67351c705a5fbf628dd4f1d6","1","13","null","","","","","","","","","<p style='font-size: 30px;'><strong>Okay</strong></p>","null","neutral_feedback","0","test","46","","","","","","","",""
"","","","","","","","","","","","html-button-response","99","2.0.0","348004","67351c705a5fbf628dd4f1d6","1","13","1571","","","","","","","","","<img src= ""rock_img/I_Pegmatite_05.jpg"" style=""width:8cm; height:7.300000000000001cm;""><p>What type of rock is this?</p>","7","class_response","0","test","47","Pumice","Pegmatite","05","false","8","6","",""
"","","","","","","","","","","","html-keyboard-response","100","2.0.0","348516","67351c705a5fbf628dd4f1d6","1","13","null","","","","","","","","","<p style='font-size: 30px;'><strong>Okay</strong></p>","null","neutral_feedback","0","test","47","","","","","","","",""
"","","","","","","","","","","","html-button-response","101","2.0.0","350268","67351c705a5fbf628dd4f1d6","1","13","1748","","","","","","","","","<img src= ""rock_img/I_Diorite_11.jpg"" style=""width:8cm; height:7.11cm;""><p>What type of rock is this?</p>","2","class_response","0","test","48","Diorite","Diorite","11","true","3","3","",""
"","","","","","","","","","","","html-keyboard-response","102","2.0.0","350778","67351c705a5fbf628dd4f1d6","1","13","null","","","","","","","","","<p style='font-size: 30px;'><strong>Okay</strong></p>","null","neutral_feedback","0","test","48","","","","","","","",""
"","","","","","","","","","","","instructions","103","2.0.0","409858","67351c705a5fbf628dd4f1d6","1","13","58992","","","","","","","","[{""page_index"":0,""viewing_time"":31985},{""page_index"":1,""viewing_time"":14255},{""page_index"":2,""viewing_time"":12752}]","","","","","","","","","","","","","",""
"","","","","","","","","","","","html-button-response","104","2.0.0","417845","67351c705a5fbf628dd4f1d6","1","13","7985","","","","","","","","","","0","start_train","","","","","","","","","","",""
"","","","","","","","","","","","html-button-response","105","2.0.0","423197","67351c705a5fbf628dd4f1d6","1","13","5348","","","","","","","","","<img src= ""rock_img/I_Basalt_05.jpg"" style=""width:8cm; height:8.18cm;""><p>What type of rock is this?</p>","3","class_response","1","train","1","Gabbro","Basalt","05","false","4","2","",""
"","","","","","","","","","","","html-button-response","106","2.0.0","429423","67351c705a5fbf628dd4f1d6","1","13","6224","","","","","","","","","<img src= rock_img/I_Basalt_05.jpg style=""width:8cm; height:8.18cm;""><p style='font-size: 30px; color: red;'><strong>Incorrect!</strong></p><p style='font-size: 30px;'><strong>This rock is basalt</strong></p>","0","corr_feedback","1","train","1","","","","","","","",""
"","","","","","","","","","","","html-button-response","107","2.0.0","429871","67351c705a5fbf628dd4f1d6","1","13","444","","","","","","","","","<img src= ""rock_img/I_Andesite_06.jpg"" style=""width:8cm; height:6.840000000000001cm;""><p>What type of rock is this?</p>","6","class_response","1","train","2","Peridotite","Andesite","06","false","7","1","",""
"","","","","","","","","","","","html-button-response","108","2.0.0","434046","67351c705a5fbf628dd4f1d6","1","13","4173","","","","","","","","","<img src= rock_img/I_Andesite_06.jpg style=""width:8cm; height:6.840000000000001cm;""><p style='font-size: 30px; color: red;'><strong>Incorrect!</strong></p><p style='font-size: 30px;'><strong>This rock is andesite</strong></p>","0","corr_feedback","1","train","2","","","","","","","",""
"","","","","","","","","","","","html-button-response","109","2.0.0","438530","67351c705a5fbf628dd4f1d6","1","13","4479","","","","","","","","","<img src= ""rock_img/I_Basalt_01.jpg"" style=""width:8cm; height:7.880000000000001cm;""><p>What type of rock is this?</p>","1","class_response","1","train","3","Basalt","Basalt","01","true","2","2","",""
"","","","","","","","","","","","html-button-response","110","2.0.0","440655","67351c705a5fbf628dd4f1d6","1","13","2122","","","","","","","","","<img src= rock_img/I_Basalt_01.jpg style=""width:8cm; height:7.880000000000001cm;""><p style='font-size: 30px; color: green;'><strong>Correct!</strong></p><p style='font-size: 30px;'><strong>This rock is basalt</strong></p>","0","corr_feedback","1","train","3","","","","","","","",""
"","","","","","","","","","","","html-button-response","111","2.0.0","442565","67351c705a5fbf628dd4f1d6","1","13","1908","","","","","","","","","<img src= ""rock_img/I_Diorite_08.jpg"" style=""width:8cm; height:6.37cm;""><p>What type of rock is this?</p>","6","class_response","1","train","4","Peridotite","Diorite","08","false","7","3","",""
"","","","","","","","","","","","html-button-response","112","2.0.0","445509","67351c705a5fbf628dd4f1d6","1","13","2940","","","","","","","","","<img src= rock_img/I_Diorite_08.jpg style=""width:8cm; height:6.37cm;""><p style='font-size: 30px; color: red;'><strong>Incorrect!</strong></p><p style='font-size: 30px;'><strong>This rock is diorite</strong></p>","0","corr_feedback","1","train","4","","","","","","","",""
"","","","","","","","","","","","html-button-response","113","2.0.0","448221","67351c705a5fbf628dd4f1d6","1","13","2709","","","","","","","","","<img src= ""rock_img/I_Obsidian_08.jpg"" style=""width:8cm; height:7.39cm;""><p>What type of rock is this?</p>","7","class_response","1","train","5","Pumice","Obsidian","08","false","8","5","",""
"","","","","","","","","","","","html-button-response","114","2.0.0","451540","67351c705a5fbf628dd4f1d6","1","13","3316","","","","","","","","","<img src= rock_img/I_Obsidian_08.jpg style=""width:8cm; height:7.39cm;""><p style='font-size: 30px; color: red;'><strong>Incorrect!</strong></p><p style='font-size: 30px;'><strong>This rock is obsidian</strong></p>","0","corr_feedback","1","train","5","","","","","","","",""
"","","","","","","","","","","","html-button-response","115","2.0.0","455029","67351c705a5fbf628dd4f1d6","1","13","3486","","","","","","","","","<img src= ""rock_img/I_Gabbro_03.jpg"" style=""width:8cm; height:8.52cm;""><p>What type of rock is this?</p>","3","class_response","1","train","6","Gabbro","Gabbro","03","true","4","4","",""
"","","","","","","","","","","","html-button-response","116","2.0.0","457542","67351c705a5fbf628dd4f1d6","1","13","2510","","","","","","","","","<img src= rock_img/I_Gabbro_03.jpg style=""width:8cm; height:8.52cm;""><p style='font-size: 30px; color: green;'><strong>Correct!</strong></p><p style='font-size: 30px;'><strong>This rock is gabbro</strong></p>","0","corr_feedback","1","train","6","","","","","","","",""
"","","","","","","","","","","","html-button-response","117","2.0.0","461729","67351c705a5fbf628dd4f1d6","1","13","4184","","","","","","","","","<img src= ""rock_img/I_Gabbro_13.jpg"" style=""width:8cm; height:5.08cm;""><p>What type of rock is this?</p>","3","class_response","1","train","7","Gabbro","Gabbro","13","true","4","4","",""
"","","","","","","","","","","","html-button-response","118","2.0.0","463768","67351c705a5fbf628dd4f1d6","1","13","2036","","","","","","","","","<img src= rock_img/I_Gabbro_13.jpg style=""width:8cm; height:5.08cm;""><p style='font-size: 30px; color: green;'><strong>Correct!</strong></p><p style='font-size: 30px;'><strong>This rock is gabbro</strong></p>","0","corr_feedback","1","train","7","","","","","","","",""
"","","","","","","","","","","","html-button-response","119","2.0.0","467417","67351c705a5fbf628dd4f1d6","1","13","3646","","","","","","","","","<img src= ""rock_img/I_Peridotite_07.jpg"" style=""width:8cm; height:4.83cm;""><p>What type of rock is this?</p>","1","class_response","1","train","8","Basalt","Peridotite","07","false","2","7","",""
"","","","","","","","","","","","html-button-response","120","2.0.0","470785","67351c705a5fbf628dd4f1d6","1","13","3364","","","","","","","","","<img src= rock_img/I_Peridotite_07.jpg style=""width:8cm; height:4.83cm;""><p style='font-size: 30px; color: red;'><strong>Incorrect!</strong></p><p style='font-size: 30px;'><strong>This rock is peridotite</strong></p>","0","corr_feedback","1","train","8","","","","","","","",""
"","","","","","","","","","","","html-button-response","121","2.0.0","476082","67351c705a5fbf628dd4f1d6","1","13","5294","","","","","","","","","<img src= ""rock_img/I_Diorite_02.jpg"" style=""width:8cm; height:6.27cm;""><p>What type of rock is this?</p>","4","class_response","1","train","9","Obsidian","Diorite","02","false","5","3","",""
"","","","","","","","","","","","html-button-response","122","2.0.0","478159","67351c705a5fbf628dd4f1d6","1","13","2074","","","","","","","","","<img src= rock_img/I_Diorite_02.jpg style=""width:8cm; height:6.27cm;""><p style='font-size: 30px; color: red;'><strong>Incorrect!</strong></p><p style='font-size: 30px;'><strong>This rock is diorite</strong></p>","0","corr_feedback","1","train","9","","","","","","","",""
"","","","","","","","","","","","html-button-response","123","2.0.0","480865","67351c705a5fbf628dd4f1d6","1","13","2703","","","","","","","","","<img src= ""rock_img/I_Diorite_15.jpg"" style=""width:8cm; height:5.54cm;""><p>What type of rock is this?</p>","1","class_response","1","train","10","Basalt","Diorite","15","false","2","3","",""
"","","","","","","","","","","","html-button-response","124","2.0.0","482599","67351c705a5fbf628dd4f1d6","1","13","1732","","","","","","","","","<img src= rock_img/I_Diorite_15.jpg style=""width:8cm; height:5.54cm;""><p style='font-size: 30px; color: red;'><strong>Incorrect!</strong></p><p style='font-size: 30px;'><strong>This rock is diorite</strong></p>","0","corr_feedback","1","train","10","","","","","","","",""
"","","","","","","","","","","","html-button-response","125","2.0.0","487134","67351c705a5fbf628dd4f1d6","1","13","4532","","","","","","","","","<img src= ""rock_img/I_Basalt_12.jpg"" style=""width:8cm; height:6.010000000000001cm;""><p>What type of rock is this?</p>","2","class_response","1","train","11","Diorite","Basalt","12","false","3","2","",""
"","","","","","","","","","","","html-button-response","126","2.0.0","488871","67351c705a5fbf628dd4f1d6","1","13","1734","","","","","","","","","<img src= rock_img/I_Basalt_12.jpg style=""width:8cm; height:6.010000000000001cm;""><p style='font-size: 30px; color: red;'><strong>Incorrect!</strong></p><p style='font-size: 30px;'><strong>This rock is basalt</strong></p>","0","corr_feedback","1","train","11","","","","","","","",""
"","","","","","","","","","","","html-button-response","127","2.0.0","490812","67351c705a5fbf628dd4f1d6","1","13","1937","","","","","","","","","<img src= ""rock_img/I_Basalt_14.jpg"" style=""width:8cm; height:5.82cm;""><p>What type of rock is this?</p>","2","class_response","1","train","12","Diorite","Basalt","14","false","3","2","",""
"","","","","","","","","","","","html-button-response","128","2.0.0","492402","67351c705a5fbf628dd4f1d6","1","13","1587","","","","","","","","","<img src= rock_img/I_Basalt_14.jpg style=""width:8cm; height:5.82cm;""><p style='font-size: 30px; color: red;'><strong>Incorrect!</strong></p><p style='font-size: 30px;'><strong>This rock is basalt</strong></p>","0","corr_feedback","1","train","12","","","","","","","",""
"","","","","","","","","","","","html-button-response","129","2.0.0","493862","67351c705a5fbf628dd4f1d6","1","13","1457","","","","","","","","","<img src= ""rock_img/I_Obsidian_11.jpg"" style=""width:8cm; height:6.05cm;""><p>What type of rock is this?</p>","6","class_response","1","train","13","Peridotite","Obsidian","11","false","7","5","",""
"","","","","","","","","","","","html-button-response","130","2.0.0","495255","67351c705a5fbf628dd4f1d6","1","13","1389","","","","","","","","","<img src= rock_img/I_Obsidian_11.jpg style=""width:8cm; height:6.05cm;""><p style='font-size: 30px; color: red;'><strong>Incorrect!</strong></p><p style='font-size: 30px;'><strong>This rock is obsidian</strong></p>","0","corr_feedback","1","train","13","","","","","","","",""
"","","","","","","","","","","","html-button-response","131","2.0.0","497223","67351c705a5fbf628dd4f1d6","1","13","1965","","","","","","","","","<img src= ""rock_img/I_Basalt_04.jpg"" style=""width:8cm; height:7.53cm;""><p>What type of rock is this?</p>","1","class_response","1","train","14","Basalt","Basalt","04","true","2","2","",""
"","","","","","","","","","","","html-button-response","132","2.0.0","498904","67351c705a5fbf628dd4f1d6","1","13","1677","","","","","","","","","<img src= rock_img/I_Basalt_04.jpg style=""width:8cm; height:7.53cm;""><p style='font-size: 30px; color: green;'><strong>Correct!</strong></p><p style='font-size: 30px;'><strong>This rock is basalt</strong></p>","0","corr_feedback","1","train","14","","","","","","","",""
"","","","","","","","","","","","html-button-response","133","2.0.0","500938","67351c705a5fbf628dd4f1d6","1","13","2032","","","","","","","","","<img src= ""rock_img/I_Gabbro_09.jpg"" style=""width:8cm; height:7.279999999999999cm;""><p>What type of rock is this?</p>","3","class_response","1","train","15","Gabbro","Gabbro","09","true","4","4","",""
"","","","","","","","","","","","html-button-response","134","2.0.0","502470","67351c705a5fbf628dd4f1d6","1","13","1529","","","","","","","","","<img src= rock_img/I_Gabbro_09.jpg style=""width:8cm; height:7.279999999999999cm;""><p style='font-size: 30px; color: green;'><strong>Correct!</strong></p><p style='font-size: 30px;'><strong>This rock is gabbro</strong></p>","0","corr_feedback","1","train","15","","","","","","","",""
"","","","","","","","","","","","html-button-response","135","2.0.0","504481","67351c705a5fbf628dd4f1d6","1","13","2007","","","","","","","","","<img src= ""rock_img/I_Andesite_10.jpg"" style=""width:8cm; height:4.16cm;""><p>What type of rock is this?</p>","2","class_response","1","train","16","Diorite","Andesite","10","false","3","1","",""
"","","","","","","","","","","","html-button-response","136","2.0.0","506293","67351c705a5fbf628dd4f1d6","1","13","1809","","","","","","","","","<img src= rock_img/I_Andesite_10.jpg style=""width:8cm; height:4.16cm;""><p style='font-size: 30px; color: red;'><strong>Incorrect!</strong></p><p style='font-size: 30px;'><strong>This rock is andesite</strong></p>","0","corr_feedback","1","train","16","","","","","","","",""
"","","","","","","","","","","","html-button-response","137","2.0.0","508174","67351c705a5fbf628dd4f1d6","1","13","1877","","","","","","","","","<img src= ""rock_img/I_Pumice_10.jpg"" style=""width:8cm; height:7.609999999999999cm;""><p>What type of rock is this?</p>","1","class_response","1","train","17","Basalt","Pumice","10","false","2","8","",""
"","","","","","","","","","","","html-button-response","138","2.0.0","509988","67351c705a5fbf628dd4f1d6","1","13","1811","","","","","","","","","<img src= rock_img/I_Pumice_10.jpg style=""width:8cm; height:7.609999999999999cm;""><p style='font-size: 30px; color: red;'><strong>Incorrect!</strong></p><p style='font-size: 30px;'><strong>This rock is pumice</strong></p>","0","corr_feedback","1","train","17","","","","","","","",""
"","","","","","","","","","","","html-button-response","139","2.0.0","512827","67351c705a5fbf628dd4f1d6","1","13","2836","","","","","","","","","<img src= ""rock_img/I_Pegmatite_15.jpg"" style=""width:8cm; height:6cm;""><p>What type of rock is this?</p>","6","class_response","1","train","18","Peridotite","Pegmatite","15","false","7","6","",""
"","","","","","","","","","","","html-button-response","140","2.0.0","514364","67351c705a5fbf628dd4f1d6","1","13","1533","","","","","","","","","<img src= rock_img/I_Pegmatite_15.jpg style=""width:8cm; height:6cm;""><p style='font-size: 30px; color: red;'><strong>Incorrect!</strong></p><p style='font-size: 30px;'><strong>This rock is pegmatite</strong></p>","0","corr_feedback","1","train","18","","","","","","","",""
"","","","","","","","","","","","html-button-response","141","2.0.0","517377","67351c705a5fbf628dd4f1d6","1","13","3010","","","","","","","","","<img src= ""rock_img/I_Andesite_09.jpg"" style=""width:8cm; height:6cm;""><p>What type of rock is this?</p>","2","class_response","1","train","19","Diorite","Andesite","09","false","3","1","",""
"","","","","","","","","","","","html-button-response","142","2.0.0","518907","67351c705a5fbf628dd4f1d6","1","13","1527","","","","","","","","","<img src= rock_img/I_Andesite_09.jpg style=""width:8cm; height:6cm;""><p style='font-size: 30px; color: red;'><strong>Incorrect!</strong></p><p style='font-size: 30px;'><strong>This rock is andesite</strong></p>","0","corr_feedback","1","train","19","","","","","","","",""
"","","","","","","","","","","","html-button-response","143","2.0.0","521788","67351c705a5fbf628dd4f1d6","1","13","2877","","","","","","","","","<img src= ""rock_img/I_Gabbro_11.jpg"" style=""width:8cm; height:6.2cm;""><p>What type of rock is this?</p>","3","class_response","1","train","20","Gabbro","Gabbro","11","true","4","4","",""
"","","","","","","","","","","","html-button-response","144","2.0.0","523184","67351c705a5fbf628dd4f1d6","1","13","1394","","","","","","","","","<img src= rock_img/I_Gabbro_11.jpg style=""width:8cm; height:6.2cm;""><p style='font-size: 30px; color: green;'><strong>Correct!</strong></p><p style='font-size: 30px;'><strong>This rock is gabbro</strong></p>","0","corr_feedback","1","train","20","","","","","","","",""
"","","","","","","","","","","","html-button-response","145","2.0.0","528446","67351c705a5fbf628dd4f1d6","1","13","5258","","","","","","","","","<img src= ""rock_img/I_Obsidian_04.jpg"" style=""width:8cm; height:6.930000000000001cm;""><p>What type of rock is this?</p>","7","class_response","1","train","21","Pumice","Obsidian","04","false","8","5","",""
"","","","","","","","","","","","html-button-response","146","2.0.0","530742","67351c705a5fbf628dd4f1d6","1","13","2294","","","","","","","","","<img src= rock_img/I_Obsidian_04.jpg style=""width:8cm; height:6.930000000000001cm;""><p style='font-size: 30px; color: red;'><strong>Incorrect!</strong></p><p style='font-size: 30px;'><strong>This rock is obsidian</strong></p>","0","corr_feedback","1","train","21","","","","","","","",""
"","","","","","","","","","","","html-button-response","147","2.0.0","534044","67351c705a5fbf628dd4f1d6","1","13","3298","","","","","","","","","<img src= ""rock_img/I_Diorite_13.jpg"" style=""width:8cm; height:6.29cm;""><p>What type of rock is this?</p>","2","class_response","1","train","22","Diorite","Diorite","13","true","3","3","",""
"","","","","","","","","","","","html-button-response","148","2.0.0","535746","67351c705a5fbf628dd4f1d6","1","13","1700","","","","","","","","","<img src= rock_img/I_Diorite_13.jpg style=""width:8cm; height:6.29cm;""><p style='font-size: 30px; color: green;'><strong>Correct!</strong></p><p style='font-size: 30px;'><strong>This rock is diorite</strong></p>","0","corr_feedback","1","train","22","","","","","","","",""
"","","","","","","","","","","","html-button-response","149","2.0.0","538364","67351c705a5fbf628dd4f1d6","1","13","2616","","","","","","","","","<img src= ""rock_img/I_Andesite_01.jpg"" style=""width:8cm; height:5.87cm;""><p>What type of rock is this?</p>","2","class_response","1","train","23","Diorite","Andesite","01","false","3","1","",""
"","","","","","","","","","","","html-button-response","150","2.0.0","539853","67351c705a5fbf628dd4f1d6","1","13","1485","","","","","","","","","<img src= rock_img/I_Andesite_01.jpg style=""width:8cm; height:5.87cm;""><p style='font-size: 30px; color: red;'><strong>Incorrect!</strong></p><p style='font-size: 30px;'><strong>This rock is andesite</strong></p>","0","corr_feedback","1","train","23","","","","","","","",""
"","","","","","","","","","","","html-button-response","151","2.0.0","543386","67351c705a5fbf628dd4f1d6","1","13","3530","","","","","","","","","<img src= ""rock_img/I_Gabbro_15.jpg"" style=""width:8cm; height:6.29cm;""><p>What type of rock is this?</p>","0","class_response","1","train","24","Andesite","Gabbro","15","false","1","4","",""
"","","","","","","","","","","","html-button-response","152","2.0.0","544980","67351c705a5fbf628dd4f1d6","1","13","1591","","","","","","","","","<img src= rock_img/I_Gabbro_15.jpg style=""width:8cm; height:6.29cm;""><p style='font-size: 30px; color: red;'><strong>Incorrect!</strong></p><p style='font-size: 30px;'><strong>This rock is gabbro</strong></p>","0","corr_feedback","1","train","24","","","","","","","",""
"","","","","","","","","","","","html-button-response","153","2.0.0","547415","67351c705a5fbf628dd4f1d6","1","13","2431","","","","","","","","","<img src= ""rock_img/I_Gabbro_01.jpg"" style=""width:8cm; height:5.21cm;""><p>What type of rock is this?</p>","6","class_response","1","train","25","Peridotite","Gabbro","01","false","7","4","",""
"","","","","","","","","","","","html-button-response","154","2.0.0","548818","67351c705a5fbf628dd4f1d6","1","13","1401","","","","","","","","","<img src= rock_img/I_Gabbro_01.jpg style=""width:8cm; height:5.21cm;""><p style='font-size: 30px; color: red;'><strong>Incorrect!</strong></p><p style='font-size: 30px;'><strong>This rock is gabbro</strong></p>","0","corr_feedback","1","train","25","","","","","","","",""
"","","","","","","","","","","","html-button-response","155","2.0.0","550987","67351c705a5fbf628dd4f1d6","1","13","2165","","","","","","","","","<img src= ""rock_img/I_Basalt_11.jpg"" style=""width:8cm; height:5.359999999999999cm;""><p>What type of rock is this?</p>","2","class_response","1","train","26","Diorite","Basalt","11","false","3","2","",""
"","","","","","","","","","","","html-button-response","156","2.0.0","552377","67351c705a5fbf628dd4f1d6","1","13","1387","","","","","","","","","<img src= rock_img/I_Basalt_11.jpg style=""width:8cm; height:5.359999999999999cm;""><p style='font-size: 30px; color: red;'><strong>Incorrect!</strong></p><p style='font-size: 30px;'><strong>This rock is basalt</strong></p>","0","corr_feedback","1","train","26","","","","","","","",""
"","","","","","","","","","","","html-button-response","157","2.0.0","554482","67351c705a5fbf628dd4f1d6","1","13","2102","","","","","","","","","<img src= ""rock_img/I_Diorite_09.jpg"" style=""width:8cm; height:5.27cm;""><p>What type of rock is this?</p>","2","class_response","1","train","27","Diorite","Diorite","09","true","3","3","",""
"","","","","","","","","","","","html-button-response","158","2.0.0","556112","67351c705a5fbf628dd4f1d6","1","13","1628","","","","","","","","","<img src= rock_img/I_Diorite_09.jpg style=""width:8cm; height:5.27cm;""><p style='font-size: 30px; color: green;'><strong>Correct!</strong></p><p style='font-size: 30px;'><strong>This rock is diorite</strong></p>","0","corr_feedback","1","train","27","","","","","","","",""
"","","","","","","","","","","","html-button-response","159","2.0.0","557999","67351c705a5fbf628dd4f1d6","1","13","1885","","","","","","","","","<img src= ""rock_img/I_Andesite_07.jpg"" style=""width:8cm; height:5.93cm;""><p>What type of rock is this?</p>","6","class_response","1","train","28","Peridotite","Andesite","07","false","7","1","",""
"","","","","","","","","","","","html-button-response","160","2.0.0","559217","67351c705a5fbf628dd4f1d6","1","13","1215","","","","","","","","","<img src= rock_img/I_Andesite_07.jpg style=""width:8cm; height:5.93cm;""><p style='font-size: 30px; color: red;'><strong>Incorrect!</strong></p><p style='font-size: 30px;'><strong>This rock is andesite</strong></p>","0","corr_feedback","1","train","28","","","","","","","",""
"","","","","","","","","","","","html-button-response","161","2.0.0","562517","67351c705a5fbf628dd4f1d6","1","13","3296","","","","","","","","","<img src= ""rock_img/I_Peridotite_02.jpg"" style=""width:8cm; height:5.859999999999999cm;""><p>What type of rock is this?</p>","5","class_response","1","train","29","Pegmatite","Peridotite","02","false","6","7","",""
"","","","","","","","","","","","html-button-response","162","2.0.0","563837","67351c705a5fbf628dd4f1d6","1","13","1318","","","","","","","","","<img src= rock_img/I_Peridotite_02.jpg style=""width:8cm; height:5.859999999999999cm;""><p style='font-size: 30px; color: red;'><strong>Incorrect!</strong></p><p style='font-size: 30px;'><strong>This rock is peridotite</strong></p>","0","corr_feedback","1","train","29","","","","","","","",""
"","","","","","","","","","","","html-button-response","163","2.0.0","566785","67351c705a5fbf628dd4f1d6","1","13","2946","","","","","","","","","<img src= ""rock_img/I_Obsidian_16.jpg"" style=""width:8cm; height:9.3cm;""><p>What type of rock is this?</p>","7","class_response","1","train","30","Pumice","Obsidian","16","false","8","5","",""
"","","","","","","","","","","","html-button-response","164","2.0.0","568308","67351c705a5fbf628dd4f1d6","1","13","1521","","","","","","","","","<img src= rock_img/I_Obsidian_16.jpg style=""width:8cm; height:9.3cm;""><p style='font-size: 30px; color: red;'><strong>Incorrect!</strong></p><p style='font-size: 30px;'><strong>This rock is obsidian</strong></p>","0","corr_feedback","1","train","30","","","","","","","",""
"","","","","","","","","","","","html-button-response","165","2.0.0","570622","67351c705a5fbf628dd4f1d6","1","13","2312","","","","","","","","","<img src= ""rock_img/I_Peridotite_08.jpg"" style=""width:8cm; height:6.7cm;""><p>What type of rock is this?</p>","1","class_response","1","train","31","Basalt","Peridotite","08","false","2","7","",""
"","","","","","","","","","","","html-button-response","166","2.0.0","571903","67351c705a5fbf628dd4f1d6","1","13","1279","","","","","","","","","<img src= rock_img/I_Peridotite_08.jpg style=""width:8cm; height:6.7cm;""><p style='font-size: 30px; color: red;'><strong>Incorrect!</strong></p><p style='font-size: 30px;'><strong>This rock is peridotite</strong></p>","0","corr_feedback","1","train","31","","","","","","","",""
"","","","","","","","","","","","html-button-response","167","2.0.0","573730","67351c705a5fbf628dd4f1d6","1","13","1823","","","","","","","","","<img src= ""rock_img/I_Pumice_03.jpg"" style=""width:8cm; height:6.64cm;""><p>What type of rock is this?</p>","1","class_response","1","train","32","Basalt","Pumice","03","false","2","8","",""
"","","","","","","","","","","","html-button-response","168","2.0.0","575110","67351c705a5fbf628dd4f1d6","1","13","1377","","","","","","","","","<img src= rock_img/I_Pumice_03.jpg style=""width:8cm; height:6.64cm;""><p style='font-size: 30px; color: red;'><strong>Incorrect!</strong></p><p style='font-size: 30px;'><strong>This rock is pumice</strong></p>","0","corr_feedback","1","train","32","","","","","","","",""
"","","","","","","","","","","","html-button-response","169","2.0.0","577255","67351c705a5fbf628dd4f1d6","1","13","2143","","","","","","","","","<img src= ""rock_img/I_Peridotite_06.jpg"" style=""width:8cm; height:7.53cm;""><p>What type of rock is this?</p>","6","class_response","1","train","33","Peridotite","Peridotite","06","true","7","7","",""
"","","","","","","","","","","","html-button-response","170","2.0.0","578709","67351c705a5fbf628dd4f1d6","1","13","1453","","","","","","","","","<img src= rock_img/I_Peridotite_06.jpg style=""width:8cm; height:7.53cm;""><p style='font-size: 30px; color: green;'><strong>Correct!</strong></p><p style='font-size: 30px;'><strong>This rock is peridotite</strong></p>","0","corr_feedback","1","train","33","","","","","","","",""
"","","","","","","","","","","","html-button-response","171","2.0.0","581106","67351c705a5fbf628dd4f1d6","1","13","2394","","","","","","","","","<img src= ""rock_img/I_Peridotite_04.jpg"" style=""width:8cm; height:6.680000000000001cm;""><p>What type of rock is this?</p>","6","class_response","1","train","34","Peridotite","Peridotite","04","true","7","7","",""
"","","","","","","","","","","","html-button-response","172","2.0.0","582434","67351c705a5fbf628dd4f1d6","1","13","1325","","","","","","","","","<img src= rock_img/I_Peridotite_04.jpg style=""width:8cm; height:6.680000000000001cm;""><p style='font-size: 30px; color: green;'><strong>Correct!</strong></p><p style='font-size: 30px;'><strong>This rock is peridotite</strong></p>","0","corr_feedback","1","train","34","","","","","","","",""
"","","","","","","","","","","","html-button-response","173","2.0.0","588875","67351c705a5fbf628dd4f1d6","1","13","6437","","","","","","","","","<img src= ""rock_img/I_Obsidian_06.jpg"" style=""width:8cm; height:6.8cm;""><p>What type of rock is this?</p>","4","class_response","1","train","35","Obsidian","Obsidian","06","true","5","5","",""
"","","","","","","","","","","","html-button-response","174","2.0.0","590495","67351c705a5fbf628dd4f1d6","1","13","1617","","","","","","","","","<img src= rock_img/I_Obsidian_06.jpg style=""width:8cm; height:6.8cm;""><p style='font-size: 30px; color: green;'><strong>Correct!</strong></p><p style='font-size: 30px;'><strong>This rock is obsidian</strong></p>","0","corr_feedback","1","train","35","","","","","","","",""
"","","","","","","","","","","","html-button-response","175","2.0.0","592827","67351c705a5fbf628dd4f1d6","1","13","2328","","","","","","","","","<img src= ""rock_img/I_Pegmatite_10.jpg"" style=""width:8cm; height:4.16cm;""><p>What type of rock is this?</p>","0","class_response","1","train","36","Andesite","Pegmatite","10","false","1","6","",""
"","","","","","","","","","","","html-button-response","176","2.0.0","594423","67351c705a5fbf628dd4f1d6","1","13","1593","","","","","","","","","<img src= rock_img/I_Pegmatite_10.jpg style=""width:8cm; height:4.16cm;""><p style='font-size: 30px; color: red;'><strong>Incorrect!</strong></p><p style='font-size: 30px;'><strong>This rock is pegmatite</strong></p>","0","corr_feedback","1","train","36","","","","","","","",""
"","","","","","","","","","","","html-button-response","177","2.0.0","599634","67351c705a5fbf628dd4f1d6","1","13","5207","","","","","","","","","<img src= ""rock_img/I_Pegmatite_06.jpg"" style=""width:8cm; height:5.17cm;""><p>What type of rock is this?</p>","5","class_response","1","train","37","Pegmatite","Pegmatite","06","true","6","6","",""
"","","","","","","","","","","","html-button-response","178","2.0.0","600926","67351c705a5fbf628dd4f1d6","1","13","1289","","","","","","","","","<img src= rock_img/I_Pegmatite_06.jpg style=""width:8cm; height:5.17cm;""><p style='font-size: 30px; color: green;'><strong>Correct!</strong></p><p style='font-size: 30px;'><strong>This rock is pegmatite</strong></p>","0","corr_feedback","1","train","37","","","","","","","",""
"","","","","","","","","","","","html-button-response","179","2.0.0","603511","67351c705a5fbf628dd4f1d6","1","13","2581","","","","","","","","","<img src= ""rock_img/I_Pumice_08.jpg"" style=""width:8cm; height:6.67cm;""><p>What type of rock is this?</p>","1","class_response","1","train","38","Basalt","Pumice","08","false","2","8","",""
"","","","","","","","","","","","html-button-response","180","2.0.0","604853","67351c705a5fbf628dd4f1d6","1","13","1340","","","","","","","","","<img src= rock_img/I_Pumice_08.jpg style=""width:8cm; height:6.67cm;""><p style='font-size: 30px; color: red;'><strong>Incorrect!</strong></p><p style='font-size: 30px;'><strong>This rock is pumice</strong></p>","0","corr_feedback","1","train","38","","","","","","","",""
"","","","","","","","","","","","html-button-response","181","2.0.0","606767","67351c705a5fbf628dd4f1d6","1","13","1912","","","","","","","","","<img src= ""rock_img/I_Andesite_04.jpg"" style=""width:8cm; height:5.96cm;""><p>What type of rock is this?</p>","3","class_response","1","train","39","Gabbro","Andesite","04","false","4","1","",""
"","","","","","","","","","","","html-button-response","182","2.0.0","608065","67351c705a5fbf628dd4f1d6","1","13","1295","","","","","","","","","<img src= rock_img/I_Andesite_04.jpg style=""width:8cm; height:5.96cm;""><p style='font-size: 30px; color: red;'><strong>Incorrect!</strong></p><p style='font-size: 30px;'><strong>This rock is andesite</strong></p>","0","corr_feedback","1","train","39","","","","","","","",""
"","","","","","","","","","","","html-button-response","183","2.0.0","610957","67351c705a5fbf628dd4f1d6","1","13","2888","","","","","","","","","<img src= ""rock_img/I_Peridotite_12.jpg"" style=""width:8cm; height:4.54cm;""><p>What type of rock is this?</p>","3","class_response","1","train","40","Gabbro","Peridotite","12","false","4","7","",""
"","","","","","","","","","","","html-button-response","184","2.0.0","612277","67351c705a5fbf628dd4f1d6","1","13","1318","","","","","","","","","<img src= rock_img/I_Peridotite_12.jpg style=""width:8cm; height:4.54cm;""><p style='font-size: 30px; color: red;'><strong>Incorrect!</strong></p><p style='font-size: 30px;'><strong>This rock is peridotite</strong></p>","0","corr_feedback","1","train","40","","","","","","","",""
"","","","","","","","","","","","html-button-response","185","2.0.0","618014","67351c705a5fbf628dd4f1d6","1","13","5734","","","","","","","","","<img src= ""rock_img/I_Pumice_02.jpg"" style=""width:8cm; height:7.3999999999999995cm;""><p>What type of rock is this?</p>","6","class_response","1","train","41","Peridotite","Pumice","02","false","7","8","",""
"","","","","","","","","","","","html-button-response","186","2.0.0","619205","67351c705a5fbf628dd4f1d6","1","13","1188","","","","","","","","","<img src= rock_img/I_Pumice_02.jpg style=""width:8cm; height:7.3999999999999995cm;""><p style='font-size: 30px; color: red;'><strong>Incorrect!</strong></p><p style='font-size: 30px;'><strong>This rock is pumice</strong></p>","0","corr_feedback","1","train","41","","","","","","","",""
"","","","","","","","","","","","html-button-response","187","2.0.0","621091","67351c705a5fbf628dd4f1d6","1","13","1882","","","","","","","","","<img src= ""rock_img/I_Pumice_14.jpg"" style=""width:8cm; height:6.39cm;""><p>What type of rock is this?</p>","1","class_response","1","train","42","Basalt","Pumice","14","false","2","8","",""
"","","","","","","","","","","","html-button-response","188","2.0.0","622335","67351c705a5fbf628dd4f1d6","1","13","1242","","","","","","","","","<img src= rock_img/I_Pumice_14.jpg style=""width:8cm; height:6.39cm;""><p style='font-size: 30px; color: red;'><strong>Incorrect!</strong></p><p style='font-size: 30px;'><strong>This rock is pumice</strong></p>","0","corr_feedback","1","train","42","","","","","","","",""
"","","","","","","","","","","","html-button-response","189","2.0.0","624246","67351c705a5fbf628dd4f1d6","1","13","1907","","","","","","","","","<img src= ""rock_img/I_Pumice_13.jpg"" style=""width:8cm; height:8.200000000000001cm;""><p>What type of rock is this?</p>","7","class_response","1","train","43","Pumice","Pumice","13","true","8","8","",""
"","","","","","","","","","","","html-button-response","190","2.0.0","625704","67351c705a5fbf628dd4f1d6","1","13","1455","","","","","","","","","<img src= rock_img/I_Pumice_13.jpg style=""width:8cm; height:8.200000000000001cm;""><p style='font-size: 30px; color: green;'><strong>Correct!</strong></p><p style='font-size: 30px;'><strong>This rock is pumice</strong></p>","0","corr_feedback","1","train","43","","","","","","","",""
"","","","","","","","","","","","html-button-response","191","2.0.0","628301","67351c705a5fbf628dd4f1d6","1","13","2595","","","","","","","","","<img src= ""rock_img/I_Obsidian_14.jpg"" style=""width:8cm; height:7.64cm;""><p>What type of rock is this?</p>","4","class_response","1","train","44","Obsidian","Obsidian","14","true","5","5","",""
"","","","","","","","","","","","html-button-response","192","2.0.0","629745","67351c705a5fbf628dd4f1d6","1","13","1440","","","","","","","","","<img src= rock_img/I_Obsidian_14.jpg style=""width:8cm; height:7.64cm;""><p style='font-size: 30px; color: green;'><strong>Correct!</strong></p><p style='font-size: 30px;'><strong>This rock is obsidian</strong></p>","0","corr_feedback","1","train","44","","","","","","","",""
"","","","","","","","","","","","html-button-response","193","2.0.0","633314","67351c705a5fbf628dd4f1d6","1","13","3567","","","","","","","","","<img src= ""rock_img/I_Pegmatite_12.jpg"" style=""width:8cm; height:5.7cm;""><p>What type of rock is this?</p>","6","class_response","1","train","45","Peridotite","Pegmatite","12","false","7","6","",""
"","","","","","","","","","","","html-button-response","194","2.0.0","634604","67351c705a5fbf628dd4f1d6","1","13","1285","","","","","","","","","<img src= rock_img/I_Pegmatite_12.jpg style=""width:8cm; height:5.7cm;""><p style='font-size: 30px; color: red;'><strong>Incorrect!</strong></p><p style='font-size: 30px;'><strong>This rock is pegmatite</strong></p>","0","corr_feedback","1","train","45","","","","","","","",""
"","","","","","","","","","","","html-button-response","195","2.0.0","637121","67351c705a5fbf628dd4f1d6","1","13","2515","","","","","","","","","<img src= ""rock_img/I_Diorite_07.jpg"" style=""width:8cm; height:5.239999999999999cm;""><p>What type of rock is this?</p>","6","class_response","1","train","46","Peridotite","Diorite","07","false","7","3","",""
"","","","","","","","","","","","html-button-response","196","2.0.0","638374","67351c705a5fbf628dd4f1d6","1","13","1249","","","","","","","","","<img src= rock_img/I_Diorite_07.jpg style=""width:8cm; height:5.239999999999999cm;""><p style='font-size: 30px; color: red;'><strong>Incorrect!</strong></p><p style='font-size: 30px;'><strong>This rock is diorite</strong></p>","0","corr_feedback","1","train","46","","","","","","","",""
"","","","","","","","","","","","html-button-response","197","2.0.0","640305","67351c705a5fbf628dd4f1d6","1","13","1928","","","","","","","","","<img src= ""rock_img/I_Pegmatite_07.jpg"" style=""width:8cm; height:6.7cm;""><p>What type of rock is this?</p>","2","class_response","1","train","47","Diorite","Pegmatite","07","false","3","6","",""
"","","","","","","","","","","","html-button-response","198","2.0.0","641615","67351c705a5fbf628dd4f1d6","1","13","1308","","","","","","","","","<img src= rock_img/I_Pegmatite_07.jpg style=""width:8cm; height:6.7cm;""><p style='font-size: 30px; color: red;'><strong>Incorrect!</strong></p><p style='font-size: 30px;'><strong>This rock is pegmatite</strong></p>","0","corr_feedback","1","train","47","","","","","","","",""
"","","","","","","","","","","","html-button-response","199","2.0.0","643858","67351c705a5fbf628dd4f1d6","1","13","2239","","","","","","","","","<img src= ""rock_img/I_Pegmatite_11.jpg"" style=""width:8cm; height:8.14cm;""><p>What type of rock is this?</p>","2","class_response","1","train","48","Diorite","Pegmatite","11","false","3","6","",""
"","","","","","","","","","","","html-button-response","200","2.0.0","645138","67351c705a5fbf628dd4f1d6","1","13","1276","","","","","","","","","<img src= rock_img/I_Pegmatite_11.jpg style=""width:8cm; height:8.14cm;""><p style='font-size: 30px; color: red;'><strong>Incorrect!</strong></p><p style='font-size: 30px;'><strong>This rock is pegmatite</strong></p>","0","corr_feedback","1","train","48","","","","","","","",""
"","","","","","","","","","","","instructions","203","2.0.0","685576","67351c705a5fbf628dd4f1d6","1","13","40435","","","","","","","","[{""page_index"":0,""viewing_time"":19966},{""page_index"":1,""viewing_time"":20469}]","","","","","","","","","","","","","",""
"","","","","","","","","","","","html-button-response","204","2.0.0","694039","67351c705a5fbf628dd4f1d6","1","13","8461","","","","","","","","","","0","start_test","","","","","","","","","","",""
"","","","","","","","","","","","html-button-response","205","2.0.0","702379","67351c705a5fbf628dd4f1d6","1","13","8336","","","","","","","","","<img src= ""rock_img/I_Gabbro_10.jpg"" style=""width:8cm; height:5.680000000000001cm;""><p>What type of rock is this?</p>","2","class_response","1","test","1","Diorite","Gabbro","10","false","3","4","",""
"","","","","","","","","","","","html-keyboard-response","206","2.0.0","702885","67351c705a5fbf628dd4f1d6","1","13","null","","","","","","","","","<p style='font-size: 30px;'><strong>Okay</strong></p>","null","neutral_feedback","1","test","1","","","","","","","",""
"","","","","","","","","","","","html-button-response","207","2.0.0","705513","67351c705a5fbf628dd4f1d6","1","13","2626","","","","","","","","","<img src= ""rock_img/I_Pegmatite_16.jpg"" style=""width:8cm; height:5.8cm;""><p>What type of rock is this?</p>","5","class_response","1","test","2","Pegmatite","Pegmatite","16","true","6","6","",""
"","","","","","","","","","","","html-keyboard-response","208","2.0.0","706027","67351c705a5fbf628dd4f1d6","1","13","null","","","","","","","","","<p style='font-size: 30px;'><strong>Okay</strong></p>","null","neutral_feedback","1","test","2","","","","","","","",""
"","","","","","","","","","","","html-button-response","209","2.0.0","708219","67351c705a5fbf628dd4f1d6","1","13","2188","","","","","","","","","<img src= ""rock_img/I_Gabbro_14.jpg"" style=""width:8cm; height:8.48cm;""><p>What type of rock is this?</p>","3","class_response","1","test","3","Gabbro","Gabbro","14","true","4","4","",""
"","","","","","","","","","","","html-keyboard-response","210","2.0.0","708729","67351c705a5fbf628dd4f1d6","1","13","null","","","","","","","","","<p style='font-size: 30px;'><strong>Okay</strong></p>","null","neutral_feedback","1","test","3","","","","","","","",""
"","","","","","","","","","","","html-button-response","211","2.0.0","714001","67351c705a5fbf628dd4f1d6","1","13","5270","","","","","","","","","<img src= ""rock_img/I_Andesite_02.jpg"" style=""width:8cm; height:8.5cm;""><p>What type of rock is this?</p>","3","class_response","1","test","4","Gabbro","Andesite","02","false","4","1","",""
"","","","","","","","","","","","html-keyboard-response","212","2.0.0","714511","67351c705a5fbf628dd4f1d6","1","13","null","","","","","","","","","<p style='font-size: 30px;'><strong>Okay</strong></p>","null","neutral_feedback","1","test","4","","","","","","","",""
"","","","","","","","","","","","html-button-response","213","2.0.0","717766","67351c705a5fbf628dd4f1d6","1","13","3252","","","","","","","","","<img src= ""rock_img/I_Pumice_16.jpg"" style=""width:8cm; height:6.79cm;""><p>What type of rock is this?</p>","1","class_response","1","test","5","Basalt","Pumice","16","false","2","8","",""
"","","","","","","","","","","","html-keyboard-response","214","2.0.0","718280","67351c705a5fbf628dd4f1d6","1","13","null","","","","","","","","","<p style='font-size: 30px;'><strong>Okay</strong></p>","null","neutral_feedback","1","test","5","","","","","","","",""
"","","","","","","","","","","","html-button-response","215","2.0.0","721277","67351c705a5fbf628dd4f1d6","1","13","2996","","","","","","","","","<img src= ""rock_img/I_Pegmatite_13.jpg"" style=""width:8cm; height:4.95cm;""><p>What type of rock is this?</p>","2","class_response","1","test","6","Diorite","Pegmatite","13","false","3","6","",""
"","","","","","","","","","","","html-keyboard-response","216","2.0.0","721782","67351c705a5fbf628dd4f1d6","1","13","null","","","","","","","","","<p style='font-size: 30px;'><strong>Okay</strong></p>","null","neutral_feedback","1","test","6","","","","","","","",""
"","","","","","","","","","","","html-button-response","217","2.0.0","727450","67351c705a5fbf628dd4f1d6","1","13","5665","","","","","","","","","<img src= ""rock_img/I_Pumice_09.jpg"" style=""width:8cm; height:6.44cm;""><p>What type of rock is this?</p>","0","class_response","1","test","7","Andesite","Pumice","09","false","1","8","",""
"","","","","","","","","","","","html-keyboard-response","218","2.0.0","727958","67351c705a5fbf628dd4f1d6","1","13","null","","","","","","","","","<p style='font-size: 30px;'><strong>Okay</strong></p>","null","neutral_feedback","1","test","7","","","","","","","",""
"","","","","","","","","","","","html-button-response","219","2.0.0","730182","67351c705a5fbf628dd4f1d6","1","13","2222","","","","","","","","","<img src= ""rock_img/I_Diorite_16.jpg"" style=""width:8cm; height:6.74cm;""><p>What type of rock is this?</p>","3","class_response","1","test","8","Gabbro","Diorite","16","false","4","3","",""
"","","","","","","","","","","","html-keyboard-response","220","2.0.0","730691","67351c705a5fbf628dd4f1d6","1","13","null","","","","","","","","","<p style='font-size: 30px;'><strong>Okay</strong></p>","null","neutral_feedback","1","test","8","","","","","","","",""
"","","","","","","","","","","","html-button-response","221","2.0.0","734260","67351c705a5fbf628dd4f1d6","1","13","3567","","","","","","","","","<img src= ""rock_img/I_Basalt_16.jpg"" style=""width:8cm; height:7.659999999999999cm;""><p>What type of rock is this?</p>","1","class_response","1","test","9","Basalt","Basalt","16","true","2","2","",""
"","","","","","","","","","","","html-keyboard-response","222","2.0.0","734773","67351c705a5fbf628dd4f1d6","1","13","null","","","","","","","","","<p style='font-size: 30px;'><strong>Okay</strong></p>","null","neutral_feedback","1","test","9","","","","","","","",""
"","","","","","","","","","","","html-button-response","223","2.0.0","741080","67351c705a5fbf628dd4f1d6","1","13","6304","","","","","","","","","<img src= ""rock_img/I_Gabbro_12.jpg"" style=""width:8cm; height:7.800000000000001cm;""><p>What type of rock is this?</p>","2","class_response","1","test","10","Diorite","Gabbro","12","false","3","4","",""
"","","","","","","","","","","","html-keyboard-response","224","2.0.0","741590","67351c705a5fbf628dd4f1d6","1","13","null","","","","","","","","","<p style='font-size: 30px;'><strong>Okay</strong></p>","null","neutral_feedback","1","test","10","","","","","","","",""
"","","","","","","","","","","","html-button-response","225","2.0.0","745075","67351c705a5fbf628dd4f1d6","1","13","3484","","","","","","","","","<img src= ""rock_img/I_Diorite_10.jpg"" style=""width:8cm; height:5.949999999999999cm;""><p>What type of rock is this?</p>","2","class_response","1","test","11","Diorite","Diorite","10","true","3","3","",""
"","","","","","","","","","","","html-keyboard-response","226","2.0.0","745580","67351c705a5fbf628dd4f1d6","1","13","null","","","","","","","","","<p style='font-size: 30px;'><strong>Okay</strong></p>","null","neutral_feedback","1","test","11","","","","","","","",""
"","","","","","","","","","","","html-button-response","227","2.0.0","750709","67351c705a5fbf628dd4f1d6","1","13","5128","","","","","","","","","<img src= ""rock_img/I_Andesite_11.jpg"" style=""width:8cm; height:4.92cm;""><p>What type of rock is this?</p>","0","class_response","1","test","12","Andesite","Andesite","11","true","1","1","",""
"","","","","","","","","","","","html-keyboard-response","228","2.0.0","751218","67351c705a5fbf628dd4f1d6","1","13","null","","","","","","","","","<p style='font-size: 30px;'><strong>Okay</strong></p>","null","neutral_feedback","1","test","12","","","","","","","",""
"","","","","","","","","","","","html-button-response","229","2.0.0","753545","67351c705a5fbf628dd4f1d6","1","13","2325","","","","","","","","","<img src= ""rock_img/I_Diorite_12.jpg"" style=""width:8cm; height:4.88cm;""><p>What type of rock is this?</p>","2","class_response","1","test","13","Diorite","Diorite","12","true","3","3","",""
"","","","","","","","","","","","html-keyboard-response","230","2.0.0","754061","67351c705a5fbf628dd4f1d6","1","13","null","","","","","","","","","<p style='font-size: 30px;'><strong>Okay</strong></p>","null","neutral_feedback","1","test","13","","","","","","","",""
"","","","","","","","","","","","html-button-response","231","2.0.0","757366","67351c705a5fbf628dd4f1d6","1","13","3303","","","","","","","","","<img src= ""rock_img/I_Diorite_11.jpg"" style=""width:8cm; height:7.11cm;""><p>What type of rock is this?</p>","6","class_response","1","test","14","Peridotite","Diorite","11","false","7","3","",""
"","","","","","","","","","","","html-keyboard-response","232","2.0.0","757877","67351c705a5fbf628dd4f1d6","1","13","null","","","","","","","","","<p style='font-size: 30px;'><strong>Okay</strong></p>","null","neutral_feedback","1","test","14","","","","","","","",""
"","","","","","","","","","","","html-button-response","233","2.0.0","760111","67351c705a5fbf628dd4f1d6","1","13","2229","","","","","","","","","<img src= ""rock_img/I_Obsidian_12.jpg"" style=""width:8cm; height:6.53cm;""><p>What type of rock is this?</p>","4","class_response","1","test","15","Obsidian","Obsidian","12","true","5","5","",""
"","","","","","","","","","","","html-keyboard-response","234","2.0.0","760625","67351c705a5fbf628dd4f1d6","1","13","null","","","","","","","","","<p style='font-size: 30px;'><strong>Okay</strong></p>","null","neutral_feedback","1","test","15","","","","","","","",""
"","","","","","","","","","","","html-button-response","235","2.0.0","762627","67351c705a5fbf628dd4f1d6","1","13","1999","","","","","","","","","<img src= ""rock_img/I_Peridotite_13.jpg"" style=""width:8cm; height:7.58cm;""><p>What type of rock is this?</p>","5","class_response","1","test","16","Pegmatite","Peridotite","13","false","6","7","",""
"","","","","","","","","","","","html-keyboard-response","236","2.0.0","763136","67351c705a5fbf628dd4f1d6","1","13","null","","","","","","","","","<p style='font-size: 30px;'><strong>Okay</strong></p>","null","neutral_feedback","1","test","16","","","","","","","",""
"","","","","","","","","","","","html-button-response","237","2.0.0","765221","67351c705a5fbf628dd4f1d6","1","13","2082","","","","","","","","","<img src= ""rock_img/I_Pumice_06.jpg"" style=""width:8cm; height:6.9399999999999995cm;""><p>What type of rock is this?</p>","1","class_response","1","test","17","Basalt","Pumice","06","false","2","8","",""
"","","","","","","","","","","","html-keyboard-response","238","2.0.0","765727","67351c705a5fbf628dd4f1d6","1","13","null","","","","","","","","","<p style='font-size: 30px;'><strong>Okay</strong></p>","null","neutral_feedback","1","test","17","","","","","","","",""
"","","","","","","","","","","","html-button-response","239","2.0.0","771133","67351c705a5fbf628dd4f1d6","1","13","5403","","","","","","","","","<img src= ""rock_img/I_Basalt_02.jpg"" style=""width:8cm; height:6.45cm;""><p>What type of rock is this?</p>","7","class_response","1","test","18","Pumice","Basalt","02","false","8","2","",""
"","","","","","","","","","","","html-keyboard-response","240","2.0.0","771648","67351c705a5fbf628dd4f1d6","1","13","null","","","","","","","","","<p style='font-size: 30px;'><strong>Okay</strong></p>","null","neutral_feedback","1","test","18","","","","","","","",""
"","","","","","","","","","","","html-button-response","241","2.0.0","774632","67351c705a5fbf628dd4f1d6","1","13","2982","","","","","","","","","<img src= ""rock_img/I_Basalt_06.jpg"" style=""width:8cm; height:7.06cm;""><p>What type of rock is this?</p>","7","class_response","1","test","19","Pumice","Basalt","06","false","8","2","",""
"","","","","","","","","","","","html-keyboard-response","242","2.0.0","775136","67351c705a5fbf628dd4f1d6","1","13","null","","","","","","","","","<p style='font-size: 30px;'><strong>Okay</strong></p>","null","neutral_feedback","1","test","19","","","","","","","",""
"","","","","","","","","","","","html-button-response","243","2.0.0","778122","67351c705a5fbf628dd4f1d6","1","13","2984","","","","","","","","","<img src= ""rock_img/I_Andesite_16.jpg"" style=""width:8cm; height:6.010000000000001cm;""><p>What type of rock is this?</p>","5","class_response","1","test","20","Pegmatite","Andesite","16","false","6","1","",""
"","","","","","","","","","","","html-keyboard-response","244","2.0.0","778638","67351c705a5fbf628dd4f1d6","1","13","null","","","","","","","","","<p style='font-size: 30px;'><strong>Okay</strong></p>","null","neutral_feedback","1","test","20","","","","","","","",""
"","","","","","","","","","","","html-button-response","245","2.0.0","780855","67351c705a5fbf628dd4f1d6","1","13","2216","","","","","","","","","<img src= ""rock_img/I_Basalt_09.jpg"" style=""width:8cm; height:6.2cm;""><p>What type of rock is this?</p>","2","class_response","1","test","21","Diorite","Basalt","09","false","3","2","",""
"","","","","","","","","","","","html-keyboard-response","246","2.0.0","781370","67351c705a5fbf628dd4f1d6","1","13","null","","","","","","","","","<p style='font-size: 30px;'><strong>Okay</strong></p>","null","neutral_feedback","1","test","21","","","","","","","",""
"","","","","","","","","","","","html-button-response","247","2.0.0","783343","67351c705a5fbf628dd4f1d6","1","13","1970","","","","","","","","","<img src= ""rock_img/I_Peridotite_14.jpg"" style=""width:8cm; height:5.3cm;""><p>What type of rock is this?</p>","6","class_response","1","test","22","Peridotite","Peridotite","14","true","7","7","",""
"","","","","","","","","","","","html-keyboard-response","248","2.0.0","783852","67351c705a5fbf628dd4f1d6","1","13","null","","","","","","","","","<p style='font-size: 30px;'><strong>Okay</strong></p>","null","neutral_feedback","1","test","22","","","","","","","",""
"","","","","","","","","","","","html-button-response","249","2.0.0","785542","67351c705a5fbf628dd4f1d6","1","13","1687","","","","","","","","","<img src= ""rock_img/I_Peridotite_15.jpg"" style=""width:8cm; height:6cm;""><p>What type of rock is this?</p>","5","class_response","1","test","23","Pegmatite","Peridotite","15","false","6","7","",""
"","","","","","","","","","","","html-keyboard-response","250","2.0.0","786051","67351c705a5fbf628dd4f1d6","1","13","null","","","","","","","","","<p style='font-size: 30px;'><strong>Okay</strong></p>","null","neutral_feedback","1","test","23","","","","","","","",""
"","","","","","","","","","","","html-button-response","251","2.0.0","787221","67351c705a5fbf628dd4f1d6","1","13","1168","","","","","","","","","<img src= ""rock_img/I_Peridotite_10.jpg"" style=""width:8cm; height:5.390000000000001cm;""><p>What type of rock is this?</p>","5","class_response","1","test","24","Pegmatite","Peridotite","10","false","6","7","",""
"","","","","","","","","","","","html-keyboard-response","252","2.0.0","787733","67351c705a5fbf628dd4f1d6","1","13","null","","","","","","","","","<p style='font-size: 30px;'><strong>Okay</strong></p>","null","neutral_feedback","1","test","24","","","","","","","",""
"","","","","","","","","","","","html-button-response","253","2.0.0","789345","67351c705a5fbf628dd4f1d6","1","13","1611","","","","","","","","","<img src= ""rock_img/I_Pumice_05.jpg"" style=""width:8cm; height:7.25cm;""><p>What type of rock is this?</p>","1","class_response","1","test","25","Basalt","Pumice","05","false","2","8","",""
"","","","","","","","","","","","html-keyboard-response","254","2.0.0","789852","67351c705a5fbf628dd4f1d6","1","13","null","","","","","","","","","<p style='font-size: 30px;'><strong>Okay</strong></p>","null","neutral_feedback","1","test","25","","","","","","","",""
"","","","","","","","","","","","html-button-response","255","2.0.0","791991","67351c705a5fbf628dd4f1d6","1","13","2137","","","","","","","","","<img src= ""rock_img/I_Andesite_05.jpg"" style=""width:8cm; height:4.12cm;""><p>What type of rock is this?</p>","5","class_response","1","test","26","Pegmatite","Andesite","05","false","6","1","",""
"","","","","","","","","","","","html-keyboard-response","256","2.0.0","792506","67351c705a5fbf628dd4f1d6","1","13","null","","","","","","","","","<p style='font-size: 30px;'><strong>Okay</strong></p>","null","neutral_feedback","1","test","26","","","","","","","",""
"","","","","","","","","","","","html-button-response","257","2.0.0","798732","67351c705a5fbf628dd4f1d6","1","13","6223","","","","","","","","","<img src= ""rock_img/I_Pumice_15.jpg"" style=""width:8cm; height:7.86cm;""><p>What type of rock is this?</p>","1","class_response","1","test","27","Basalt","Pumice","15","false","2","8","",""
"","","","","","","","","","","","html-keyboard-response","258","2.0.0","799244","67351c705a5fbf628dd4f1d6","1","13","null","","","","","","","","","<p style='font-size: 30px;'><strong>Okay</strong></p>","null","neutral_feedback","1","test","27","","","","","","","",""
"","","","","","","","","","","","html-button-response","259","2.0.0","801100","67351c705a5fbf628dd4f1d6","1","13","1854","","","","","","","","","<img src= ""rock_img/I_Obsidian_02.jpg"" style=""width:8cm; height:7.51cm;""><p>What type of rock is this?</p>","4","class_response","1","test","28","Obsidian","Obsidian","02","true","5","5","",""
"","","","","","","","","","","","html-keyboard-response","260","2.0.0","801615","67351c705a5fbf628dd4f1d6","1","13","null","","","","","","","","","<p style='font-size: 30px;'><strong>Okay</strong></p>","null","neutral_feedback","1","test","28","","","","","","","",""
"","","","","","","","","","","","html-button-response","261","2.0.0","803342","67351c705a5fbf628dd4f1d6","1","13","1724","","","","","","","","","<img src= ""rock_img/I_Obsidian_07.jpg"" style=""width:8cm; height:4.76cm;""><p>What type of rock is this?</p>","4","class_response","1","test","29","Obsidian","Obsidian","07","true","5","5","",""
"","","","","","","","","","","","html-keyboard-response","262","2.0.0","803845","67351c705a5fbf628dd4f1d6","1","13","null","","","","","","","","","<p style='font-size: 30px;'><strong>Okay</strong></p>","null","neutral_feedback","1","test","29","","","","","","","",""
"","","","","","","","","","","","html-button-response","263","2.0.0","806384","67351c705a5fbf628dd4f1d6","1","13","2536","","","","","","","","","<img src= ""rock_img/I_Andesite_14.jpg"" style=""width:8cm; height:5.449999999999999cm;""><p>What type of rock is this?</p>","5","class_response","1","test","30","Pegmatite","Andesite","14","false","6","1","",""
"","","","","","","","","","","","html-keyboard-response","264","2.0.0","806892","67351c705a5fbf628dd4f1d6","1","13","null","","","","","","","","","<p style='font-size: 30px;'><strong>Okay</strong></p>","null","neutral_feedback","1","test","30","","","","","","","",""
"","","","","","","","","","","","html-button-response","265","2.0.0","808876","67351c705a5fbf628dd4f1d6","1","13","1981","","","","","","","","","<img src= ""rock_img/I_Diorite_06.jpg"" style=""width:8cm; height:6.03cm;""><p>What type of rock is this?</p>","5","class_response","1","test","31","Pegmatite","Diorite","06","false","6","3","",""
"","","","","","","","","","","","html-keyboard-response","266","2.0.0","809390","67351c705a5fbf628dd4f1d6","1","13","null","","","","","","","","","<p style='font-size: 30px;'><strong>Okay</strong></p>","null","neutral_feedback","1","test","31","","","","","","","",""
"","","","","","","","","","","","html-button-response","267","2.0.0","811498","67351c705a5fbf628dd4f1d6","1","13","2107","","","","","","","","","<img src= ""rock_img/I_Pumice_04.jpg"" style=""width:8cm; height:6.819999999999999cm;""><p>What type of rock is this?</p>","1","class_response","1","test","32","Basalt","Pumice","04","false","2","8","",""
"","","","","","","","","","","","html-keyboard-response","268","2.0.0","812012","67351c705a5fbf628dd4f1d6","1","13","null","","","","","","","","","<p style='font-size: 30px;'><strong>Okay</strong></p>","null","neutral_feedback","1","test","32","","","","","","","",""
"","","","","","","","","","","","html-button-response","269","2.0.0","815775","67351c705a5fbf628dd4f1d6","1","13","3762","","","","","","","","","<img src= ""rock_img/I_Pegmatite_08.jpg"" style=""width:8cm; height:7.68cm;""><p>What type of rock is this?</p>","6","class_response","1","test","33","Peridotite","Pegmatite","08","false","7","6","",""
"","","","","","","","","","","","html-keyboard-response","270","2.0.0","816285","67351c705a5fbf628dd4f1d6","1","13","null","","","","","","","","","<p style='font-size: 30px;'><strong>Okay</strong></p>","null","neutral_feedback","1","test","33","","","","","","","",""
"","","","","","","","","","","","html-button-response","271","2.0.0","818025","67351c705a5fbf628dd4f1d6","1","13","1738","","","","","","","","","<img src= ""rock_img/I_Gabbro_16.jpg"" style=""width:8cm; height:6.44cm;""><p>What type of rock is this?</p>","2","class_response","1","test","34","Diorite","Gabbro","16","false","3","4","",""
"","","","","","","","","","","","html-keyboard-response","272","2.0.0","818532","67351c705a5fbf628dd4f1d6","1","13","null","","","","","","","","","<p style='font-size: 30px;'><strong>Okay</strong></p>","null","neutral_feedback","1","test","34","","","","","","","",""
"","","","","","","","","","","","html-button-response","273","2.0.0","823454","67351c705a5fbf628dd4f1d6","1","13","4917","","","","","","","","","<img src= ""rock_img/I_Diorite_14.jpg"" style=""width:8cm; height:5.71cm;""><p>What type of rock is this?</p>","7","class_response","1","test","35","Pumice","Diorite","14","false","8","3","",""
"","","","","","","","","","","","html-keyboard-response","274","2.0.0","823966","67351c705a5fbf628dd4f1d6","1","13","null","","","","","","","","","<p style='font-size: 30px;'><strong>Okay</strong></p>","null","neutral_feedback","1","test","35","","","","","","","",""
"","","","","","","","","","","","html-button-response","275","2.0.0","827962","67351c705a5fbf628dd4f1d6","1","13","3994","","","","","","","","","<img src= ""rock_img/I_Peridotite_16.jpg"" style=""width:8cm; height:6.989999999999999cm;""><p>What type of rock is this?</p>","0","class_response","1","test","36","Andesite","Peridotite","16","false","1","7","",""
"","","","","","","","","","","","html-keyboard-response","276","2.0.0","828472","67351c705a5fbf628dd4f1d6","1","13","null","","","","","","","","","<p style='font-size: 30px;'><strong>Okay</strong></p>","null","neutral_feedback","1","test","36","","","","","","","",""
"","","","","","","","","","","","html-button-response","277","2.0.0","830400","67351c705a5fbf628dd4f1d6","1","13","1925","","","","","","","","","<img src= ""rock_img/I_Basalt_10.jpg"" style=""width:8cm; height:5.85cm;""><p>What type of rock is this?</p>","2","class_response","1","test","37","Diorite","Basalt","10","false","3","2","",""
"","","","","","","","","","","","html-keyboard-response","278","2.0.0","830906","67351c705a5fbf628dd4f1d6","1","13","null","","","","","","","","","<p style='font-size: 30px;'><strong>Okay</strong></p>","null","neutral_feedback","1","test","37","","","","","","","",""
"","","","","","","","","","","","html-button-response","279","2.0.0","832853","67351c705a5fbf628dd4f1d6","1","13","1942","","","","","","","","","<img src= ""rock_img/I_Andesite_03.jpg"" style=""width:8cm; height:5.73cm;""><p>What type of rock is this?</p>","6","class_response","1","test","38","Peridotite","Andesite","03","false","7","1","",""
"","","","","","","","","","","","html-keyboard-response","280","2.0.0","833366","67351c705a5fbf628dd4f1d6","1","13","null","","","","","","","","","<p style='font-size: 30px;'><strong>Okay</strong></p>","null","neutral_feedback","1","test","38","","","","","","","",""
"","","","","","","","","","","","html-button-response","281","2.0.0","835241","67351c705a5fbf628dd4f1d6","1","13","1872","","","","","","","","","<img src= ""rock_img/I_Pegmatite_03.jpg"" style=""width:8cm; height:5.239999999999999cm;""><p>What type of rock is this?</p>","5","class_response","1","test","39","Pegmatite","Pegmatite","03","true","6","6","",""
"","","","","","","","","","","","html-keyboard-response","282","2.0.0","835753","67351c705a5fbf628dd4f1d6","1","13","null","","","","","","","","","<p style='font-size: 30px;'><strong>Okay</strong></p>","null","neutral_feedback","1","test","39","","","","","","","",""
"","","","","","","","","","","","html-button-response","283","2.0.0","838748","67351c705a5fbf628dd4f1d6","1","13","2992","","","","","","","","","<img src= ""rock_img/I_Basalt_08.jpg"" style=""width:8cm; height:10.44cm;""><p>What type of rock is this?</p>","6","class_response","1","test","40","Peridotite","Basalt","08","false","7","2","",""
"","","","","","","","","","","","html-keyboard-response","284","2.0.0","839256","67351c705a5fbf628dd4f1d6","1","13","null","","","","","","","","","<p style='font-size: 30px;'><strong>Okay</strong></p>","null","neutral_feedback","1","test","40","","","","","","","",""
"","","","","","","","","","","","html-button-response","285","2.0.0","843162","67351c705a5fbf628dd4f1d6","1","13","3902","","","","","","","","","<img src= ""rock_img/I_Pegmatite_05.jpg"" style=""width:8cm; height:7.300000000000001cm;""><p>What type of rock is this?</p>","2","class_response","1","test","41","Diorite","Pegmatite","05","false","3","6","",""
"","","","","","","","","","","","html-keyboard-response","286","2.0.0","843668","67351c705a5fbf628dd4f1d6","1","13","null","","","","","","","","","<p style='font-size: 30px;'><strong>Okay</strong></p>","null","neutral_feedback","1","test","41","","","","","","","",""
"","","","","","","","","","","","html-button-response","287","2.0.0","846771","67351c705a5fbf628dd4f1d6","1","13","3099","","","","","","","","","<img src= ""rock_img/I_Gabbro_08.jpg"" style=""width:8cm; height:5.15cm;""><p>What type of rock is this?</p>","5","class_response","1","test","42","Pegmatite","Gabbro","08","false","6","4","",""
"","","","","","","","","","","","html-keyboard-response","288","2.0.0","847281","67351c705a5fbf628dd4f1d6","1","13","null","","","","","","","","","<p style='font-size: 30px;'><strong>Okay</strong></p>","null","neutral_feedback","1","test","42","","","","","","","",""
"","","","","","","","","","","","html-button-response","289","2.0.0","849268","67351c705a5fbf628dd4f1d6","1","13","1984","","","","","","","","","<img src= ""rock_img/I_Obsidian_10.jpg"" style=""width:8cm; height:6.260000000000001cm;""><p>What type of rock is this?</p>","4","class_response","1","test","43","Obsidian","Obsidian","10","true","5","5","",""
"","","","","","","","","","","","html-keyboard-response","290","2.0.0","849779","67351c705a5fbf628dd4f1d6","1","13","null","","","","","","","","","<p style='font-size: 30px;'><strong>Okay</strong></p>","null","neutral_feedback","1","test","43","","","","","","","",""
"","","","","","","","","","","","html-button-response","291","2.0.0","853591","67351c705a5fbf628dd4f1d6","1","13","3810","","","","","","","","","<img src= ""rock_img/I_Pegmatite_09.jpg"" style=""width:8cm; height:4.03cm;""><p>What type of rock is this?</p>","6","class_response","1","test","44","Peridotite","Pegmatite","09","false","7","6","",""
"","","","","","","","","","","","html-keyboard-response","292","2.0.0","854098","67351c705a5fbf628dd4f1d6","1","13","null","","","","","","","","","<p style='font-size: 30px;'><strong>Okay</strong></p>","null","neutral_feedback","1","test","44","","","","","","","",""
"","","","","","","","","","","","html-button-response","293","2.0.0","856873","67351c705a5fbf628dd4f1d6","1","13","2773","","","","","","","","","<img src= ""rock_img/I_Obsidian_05.jpg"" style=""width:8cm; height:6.33cm;""><p>What type of rock is this?</p>","4","class_response","1","test","45","Obsidian","Obsidian","05","true","5","5","",""
"","","","","","","","","","","","html-keyboard-response","294","2.0.0","857379","67351c705a5fbf628dd4f1d6","1","13","null","","","","","","","","","<p style='font-size: 30px;'><strong>Okay</strong></p>","null","neutral_feedback","1","test","45","","","","","","","",""
"","","","","","","","","","","","html-button-response","295","2.0.0","859222","67351c705a5fbf628dd4f1d6","1","13","1840","","","","","","","","","<img src= ""rock_img/I_Peridotite_05.jpg"" style=""width:8cm; height:7.1499999999999995cm;""><p>What type of rock is this?</p>","5","class_response","1","test","46","Pegmatite","Peridotite","05","false","6","7","",""
"","","","","","","","","","","","html-keyboard-response","296","2.0.0","859734","67351c705a5fbf628dd4f1d6","1","13","null","","","","","","","","","<p style='font-size: 30px;'><strong>Okay</strong></p>","null","neutral_feedback","1","test","46","","","","","","","",""
"","","","","","","","","","","","html-button-response","297","2.0.0","861391","67351c705a5fbf628dd4f1d6","1","13","1655","","","","","","","","","<img src= ""rock_img/I_Obsidian_09.jpg"" style=""width:8cm; height:5cm;""><p>What type of rock is this?</p>","4","class_response","1","test","47","Obsidian","Obsidian","09","true","5","5","",""
"","","","","","","","","","","","html-keyboard-response","298","2.0.0","861901","67351c705a5fbf628dd4f1d6","1","13","null","","","","","","","","","<p style='font-size: 30px;'><strong>Okay</strong></p>","null","neutral_feedback","1","test","47","","","","","","","",""
"","","","","","","","","","","","html-button-response","299","2.0.0","866486","67351c705a5fbf628dd4f1d6","1","13","4582","","","","","","","","","<img src= ""rock_img/I_Gabbro_05.jpg"" style=""width:8cm; height:6cm;""><p>What type of rock is this?</p>","6","class_response","1","test","48","Peridotite","Gabbro","05","false","7","4","",""
"","","","","","","","","","","","html-keyboard-response","300","2.0.0","866990","67351c705a5fbf628dd4f1d6","1","13","null","","","","","","","","","<p style='font-size: 30px;'><strong>Okay</strong></p>","null","neutral_feedback","1","test","48","","","","","","","",""
"","","","","","","","","","","","html-button-response","301","2.0.0","889682","67351c705a5fbf628dd4f1d6","1","13","","","","","","","","","","","","cycle_feedback","","","","","","","","","","7370","15303"
"","","","","","","","","","","","html-button-response","303","2.0.0","895114","67351c705a5fbf628dd4f1d6","1","13","5429","","","","","","","","","","0","start_train","","","","","","","","","","",""
"","","","","","","","","","","","html-button-response","304","2.0.0","897552","67351c705a5fbf628dd4f1d6","1","13","2434","","","","","","","","","<img src= ""rock_img/I_Gabbro_13.jpg"" style=""width:8cm; height:5.08cm;""><p>What type of rock is this?</p>","2","class_response","2","train","1","Diorite","Gabbro","13","false","3","4","",""
