"width","height","webaudio","browser","browser_version","mobile","os","fullscreen","vsync_rate","webcam","microphone","trial_type","trial_index","plugin_version","time_elapsed","subjID","condition","stimID","rt","url","success","value","timeout","failed_images","failed_audio","failed_video","view_history","stimulus","response","trialType","cycle","phase","trial","resp","cat","token","corr","resp_num","cat_num","time_fb1","time_fb2"
"1536","695","true","chrome","131.0.0","false","Windows 10","true","61.44","true","true","browser-check","0","2.0.0","987","66106cb0a3498a31bbf902c1","1","51","","","","","","","","","","","","","","","","","","","","","","",""
"","","","","","","","","","","","external-html","1","2.0.0","16396","66106cb0a3498a31bbf902c1","1","51","15317","consent_form.html","","","","","","","","","","","","","","","","","","","","",""
"","","","","","","","","","","","fullscreen","2","2.0.0","20352","66106cb0a3498a31bbf902c1","1","51","2941","","true","","","","","","","","","","","","","","","","","","","",""
"","","","","","","","","","","","call-function","3","2.0.0","20354","66106cb0a3498a31bbf902c1","1","51","","","","{}","","","","","","","","","","","","","","","","","","",""
"","","","","","","","","","","","preload","4","2.0.0","22301","66106cb0a3498a31bbf902c1","1","51","","","true","","false","[]","[]","[]","","","","","","","","","","","","","","",""
"","","","","","","","","","","","instructions","5","2.0.0","52343","66106cb0a3498a31bbf902c1","1","51","30041","","","","","","","","[{""page_index"":0,""viewing_time"":8274},{""page_index"":1,""viewing_time"":12548},{""page_index"":2,""viewing_time"":9220}]","","","","","","","","","","","","","",""
"","","","","","","","","","","","html-button-response","6","2.0.0","56019","66106cb0a3498a31bbf902c1","1","51","3674","","","","","","","","","","0","start_test","","","","","","","","","","",""
"","","","","","","","","","","","html-button-response","7","2.0.0","59495","66106cb0a3498a31bbf902c1","1","51","3474","","","","","","","","","<img src= ""rock_img/I_Pumice_06.jpg"" style=""width:8cm; height:6.9399999999999995cm;""><p>What type of rock is this?</p>","2","class_response","0","test","1","Diorite","Pumice","06","false","3","8","",""
"","","","","","","","","","","","html-keyboard-response","8","2.0.0","59999","66106cb0a3498a31bbf902c1","1","51","null","","","","","","","","","<p style='font-size: 30px;'><strong>Okay</strong></p>","null","neutral_feedback","0","test","1","","","","","","","",""
"","","","","","","","","","","","html-button-response","9","2.0.0","64223","66106cb0a3498a31bbf902c1","1","51","4222","","","","","","","","","<img src= ""rock_img/I_Pegmatite_09.jpg"" style=""width:8cm; height:4.03cm;""><p>What type of rock is this?</p>","4","class_response","0","test","2","Obsidian","Pegmatite","09","false","5","6","",""
"","","","","","","","","","","","html-keyboard-response","10","2.0.0","64731","66106cb0a3498a31bbf902c1","1","51","null","","","","","","","","","<p style='font-size: 30px;'><strong>Okay</strong></p>","null","neutral_feedback","0","test","2","","","","","","","",""
"","","","","","","","","","","","html-button-response","11","2.0.0","67667","66106cb0a3498a31bbf902c1","1","51","2934","","","","","","","","","<img src= ""rock_img/I_Obsidian_07.jpg"" style=""width:8cm; height:4.76cm;""><p>What type of rock is this?</p>","5","class_response","0","test","3","Pegmatite","Obsidian","07","false","6","5","",""
"","","","","","","","","","","","html-keyboard-response","12","2.0.0","68173","66106cb0a3498a31bbf902c1","1","51","null","","","","","","","","","<p style='font-size: 30px;'><strong>Okay</strong></p>","null","neutral_feedback","0","test","3","","","","","","","",""
"","","","","","","","","","","","html-button-response","13","2.0.0","69715","66106cb0a3498a31bbf902c1","1","51","1541","","","","","","","","","<img src= ""rock_img/I_Pumice_08.jpg"" style=""width:8cm; height:6.67cm;""><p>What type of rock is this?</p>","7","class_response","0","test","4","Pumice","Pumice","08","true","8","8","",""
"","","","","","","","","","","","html-keyboard-response","14","2.0.0","70227","66106cb0a3498a31bbf902c1","1","51","null","","","","","","","","","<p style='font-size: 30px;'><strong>Okay</strong></p>","null","neutral_feedback","0","test","4","","","","","","","",""
"","","","","","","","","","","","html-button-response","15","2.0.0","72287","66106cb0a3498a31bbf902c1","1","51","2059","","","","","","","","","<img src= ""rock_img/I_Pumice_16.jpg"" style=""width:8cm; height:6.79cm;""><p>What type of rock is this?</p>","0","class_response","0","test","5","Andesite","Pumice","16","false","1","8","",""
"","","","","","","","","","","","html-keyboard-response","16","2.0.0","72792","66106cb0a3498a31bbf902c1","1","51","null","","","","","","","","","<p style='font-size: 30px;'><strong>Okay</strong></p>","null","neutral_feedback","0","test","5","","","","","","","",""
"","","","","","","","","","","","html-button-response","17","2.0.0","73839","66106cb0a3498a31bbf902c1","1","51","1046","","","","","","","","","<img src= ""rock_img/I_Peridotite_07.jpg"" style=""width:8cm; height:4.83cm;""><p>What type of rock is this?</p>","1","class_response","0","test","6","Basalt","Peridotite","07","false","2","7","",""
"","","","","","","","","","","","html-keyboard-response","18","2.0.0","74354","66106cb0a3498a31bbf902c1","1","51","null","","","","","","","","","<p style='font-size: 30px;'><strong>Okay</strong></p>","null","neutral_feedback","0","test","6","","","","","","","",""
"","","","","","","","","","","","html-button-response","19","2.0.0","75843","66106cb0a3498a31bbf902c1","1","51","1488","","","","","","","","","<img src= ""rock_img/I_Peridotite_12.jpg"" style=""width:8cm; height:4.54cm;""><p>What type of rock is this?</p>","3","class_response","0","test","7","Gabbro","Peridotite","12","false","4","7","",""
"","","","","","","","","","","","html-keyboard-response","20","2.0.0","76350","66106cb0a3498a31bbf902c1","1","51","null","","","","","","","","","<p style='font-size: 30px;'><strong>Okay</strong></p>","null","neutral_feedback","0","test","7","","","","","","","",""
"","","","","","","","","","","","html-button-response","21","2.0.0","77903","66106cb0a3498a31bbf902c1","1","51","1552","","","","","","","","","<img src= ""rock_img/I_Pumice_13.jpg"" style=""width:8cm; height:8.200000000000001cm;""><p>What type of rock is this?</p>","6","class_response","0","test","8","Peridotite","Pumice","13","false","7","8","",""
"","","","","","","","","","","","html-keyboard-response","22","2.0.0","78416","66106cb0a3498a31bbf902c1","1","51","null","","","","","","","","","<p style='font-size: 30px;'><strong>Okay</strong></p>","null","neutral_feedback","0","test","8","","","","","","","",""
"","","","","","","","","","","","html-button-response","23","2.0.0","80219","66106cb0a3498a31bbf902c1","1","51","1802","","","","","","","","","<img src= ""rock_img/I_Obsidian_11.jpg"" style=""width:8cm; height:6.05cm;""><p>What type of rock is this?</p>","1","class_response","0","test","9","Basalt","Obsidian","11","false","2","5","",""
"","","","","","","","","","","","html-keyboard-response","24","2.0.0","80722","66106cb0a3498a31bbf902c1","1","51","null","","","","","","","","","<p style='font-size: 30px;'><strong>Okay</strong></p>","null","neutral_feedback","0","test","9","","","","","","","",""
"","","","","","","","","","","","html-button-response","25","2.0.0","84380","66106cb0a3498a31bbf902c1","1","51","3656","","","","","","","","","<img src= ""rock_img/I_Basalt_04.jpg"" style=""width:8cm; height:7.53cm;""><p>What type of rock is this?</p>","5","class_response","0","test","10","Pegmatite","Basalt","04","false","6","2","",""
"","","","","","","","","","","","html-keyboard-response","26","2.0.0","84887","66106cb0a3498a31bbf902c1","1","51","null","","","","","","","","","<p style='font-size: 30px;'><strong>Okay</strong></p>","null","neutral_feedback","0","test","10","","","","","","","",""
"","","","","","","","","","","","html-button-response","27","2.0.0","86915","66106cb0a3498a31bbf902c1","1","51","2026","","","","","","","","","<img src= ""rock_img/I_Pumice_05.jpg"" style=""width:8cm; height:7.25cm;""><p>What type of rock is this?</p>","7","class_response","0","test","11","Pumice","Pumice","05","true","8","8","",""
"","","","","","","","","","","","html-keyboard-response","28","2.0.0","87416","66106cb0a3498a31bbf902c1","1","51","null","","","","","","","","","<p style='font-size: 30px;'><strong>Okay</strong></p>","null","neutral_feedback","0","test","11","","","","","","","",""
"","","","","","","","","","","","html-button-response","29","2.0.0","88435","66106cb0a3498a31bbf902c1","1","51","1018","","","","","","","","","<img src= ""rock_img/I_Andesite_01.jpg"" style=""width:8cm; height:5.87cm;""><p>What type of rock is this?</p>","0","class_response","0","test","12","Andesite","Andesite","01","true","1","1","",""
"","","","","","","","","","","","html-keyboard-response","30","2.0.0","88947","66106cb0a3498a31bbf902c1","1","51","null","","","","","","","","","<p style='font-size: 30px;'><strong>Okay</strong></p>","null","neutral_feedback","0","test","12","","","","","","","",""
"","","","","","","","","","","","html-button-response","31","2.0.0","90215","66106cb0a3498a31bbf902c1","1","51","1267","","","","","","","","","<img src= ""rock_img/I_Diorite_11.jpg"" style=""width:8cm; height:7.11cm;""><p>What type of rock is this?</p>","1","class_response","0","test","13","Basalt","Diorite","11","false","2","3","",""
"","","","","","","","","","","","html-keyboard-response","32","2.0.0","90724","66106cb0a3498a31bbf902c1","1","51","null","","","","","","","","","<p style='font-size: 30px;'><strong>Okay</strong></p>","null","neutral_feedback","0","test","13","","","","","","","",""
"","","","","","","","","","","","html-button-response","33","2.0.0","91727","66106cb0a3498a31bbf902c1","1","51","1001","","","","","","","","","<img src= ""rock_img/I_Gabbro_11.jpg"" style=""width:8cm; height:6.2cm;""><p>What type of rock is this?</p>","4","class_response","0","test","14","Obsidian","Gabbro","11","false","5","4","",""
"","","","","","","","","","","","html-keyboard-response","34","2.0.0","92240","66106cb0a3498a31bbf902c1","1","51","null","","","","","","","","","<p style='font-size: 30px;'><strong>Okay</strong></p>","null","neutral_feedback","0","test","14","","","","","","","",""
"","","","","","","","","","","","html-button-response","35","2.0.0","93139","66106cb0a3498a31bbf902c1","1","51","898","","","","","","","","","<img src= ""rock_img/I_Pegmatite_07.jpg"" style=""width:8cm; height:6.7cm;""><p>What type of rock is this?</p>","3","class_response","0","test","15","Gabbro","Pegmatite","07","false","4","6","",""
"","","","","","","","","","","","html-keyboard-response","36","2.0.0","93647","66106cb0a3498a31bbf902c1","1","51","null","","","","","","","","","<p style='font-size: 30px;'><strong>Okay</strong></p>","null","neutral_feedback","0","test","15","","","","","","","",""
"","","","","","","","","","","","html-button-response","37","2.0.0","94739","66106cb0a3498a31bbf902c1","1","51","1091","","","","","","","","","<img src= ""rock_img/I_Andesite_09.jpg"" style=""width:8cm; height:6cm;""><p>What type of rock is this?</p>","2","class_response","0","test","16","Diorite","Andesite","09","false","3","1","",""
"","","","","","","","","","","","html-keyboard-response","38","2.0.0","95246","66106cb0a3498a31bbf902c1","1","51","null","","","","","","","","","<p style='font-size: 30px;'><strong>Okay</strong></p>","null","neutral_feedback","0","test","16","","","","","","","",""
"","","","","","","","","","","","html-button-response","39","2.0.0","96143","66106cb0a3498a31bbf902c1","1","51","895","","","","","","","","","<img src= ""rock_img/I_Pegmatite_06.jpg"" style=""width:8cm; height:5.17cm;""><p>What type of rock is this?</p>","5","class_response","0","test","17","Pegmatite","Pegmatite","06","true","6","6","",""
"","","","","","","","","","","","html-keyboard-response","40","2.0.0","96655","66106cb0a3498a31bbf902c1","1","51","null","","","","","","","","","<p style='font-size: 30px;'><strong>Okay</strong></p>","null","neutral_feedback","0","test","17","","","","","","","",""
"","","","","","","","","","","","html-button-response","41","2.0.0","97871","66106cb0a3498a31bbf902c1","1","51","1215","","","","","","","","","<img src= ""rock_img/I_Andesite_07.jpg"" style=""width:8cm; height:5.93cm;""><p>What type of rock is this?</p>","1","class_response","0","test","18","Basalt","Andesite","07","false","2","1","",""
"","","","","","","","","","","","html-keyboard-response","42","2.0.0","98372","66106cb0a3498a31bbf902c1","1","51","null","","","","","","","","","<p style='font-size: 30px;'><strong>Okay</strong></p>","null","neutral_feedback","0","test","18","","","","","","","",""
"","","","","","","","","","","","html-button-response","43","2.0.0","99760","66106cb0a3498a31bbf902c1","1","51","1385","","","","","","","","","<img src= ""rock_img/I_Obsidian_06.jpg"" style=""width:8cm; height:6.8cm;""><p>What type of rock is this?</p>","0","class_response","0","test","19","Andesite","Obsidian","06","false","1","5","",""
"","","","","","","","","","","","html-keyboard-response","44","2.0.0","100269","66106cb0a3498a31bbf902c1","1","51","null","","","","","","","","","<p style='font-size: 30px;'><strong>Okay</strong></p>","null","neutral_feedback","0","test","19","","","","","","","",""
"","","","","","","","","","","","html-button-response","45","2.0.0","101395","66106cb0a3498a31bbf902c1","1","51","1125","","","","","","","","","<img src= ""rock_img/I_Pegmatite_16.jpg"" style=""width:8cm; height:5.8cm;""><p>What type of rock is this?</p>","4","class_response","0","test","20","Obsidian","Pegmatite","16","false","5","6","",""
"","","","","","","","","","","","html-keyboard-response","46","2.0.0","101901","66106cb0a3498a31bbf902c1","1","51","null","","","","","","","","","<p style='font-size: 30px;'><strong>Okay</strong></p>","null","neutral_feedback","0","test","20","","","","","","","",""
"","","","","","","","","","","","html-button-response","47","2.0.0","102639","66106cb0a3498a31bbf902c1","1","51","737","","","","","","","","","<img src= ""rock_img/I_Obsidian_10.jpg"" style=""width:8cm; height:6.260000000000001cm;""><p>What type of rock is this?</p>","5","class_response","0","test","21","Pegmatite","Obsidian","10","false","6","5","",""
"","","","","","","","","","","","html-keyboard-response","48","2.0.0","103144","66106cb0a3498a31bbf902c1","1","51","null","","","","","","","","","<p style='font-size: 30px;'><strong>Okay</strong></p>","null","neutral_feedback","0","test","21","","","","","","","",""
"","","","","","","","","","","","html-button-response","49","2.0.0","104667","66106cb0a3498a31bbf902c1","1","51","1522","","","","","","","","","<img src= ""rock_img/I_Pumice_10.jpg"" style=""width:8cm; height:7.609999999999999cm;""><p>What type of rock is this?</p>","7","class_response","0","test","22","Pumice","Pumice","10","true","8","8","",""
"","","","","","","","","","","","html-keyboard-response","50","2.0.0","105175","66106cb0a3498a31bbf902c1","1","51","null","","","","","","","","","<p style='font-size: 30px;'><strong>Okay</strong></p>","null","neutral_feedback","0","test","22","","","","","","","",""
"","","","","","","","","","","","html-button-response","51","2.0.0","106115","66106cb0a3498a31bbf902c1","1","51","938","","","","","","","","","<img src= ""rock_img/I_Diorite_02.jpg"" style=""width:8cm; height:6.27cm;""><p>What type of rock is this?</p>","2","class_response","0","test","23","Diorite","Diorite","02","true","3","3","",""
"","","","","","","","","","","","html-keyboard-response","52","2.0.0","106630","66106cb0a3498a31bbf902c1","1","51","null","","","","","","","","","<p style='font-size: 30px;'><strong>Okay</strong></p>","null","neutral_feedback","0","test","23","","","","","","","",""
"","","","","","","","","","","","html-button-response","53","2.0.0","107683","66106cb0a3498a31bbf902c1","1","51","1051","","","","","","","","","<img src= ""rock_img/I_Diorite_13.jpg"" style=""width:8cm; height:6.29cm;""><p>What type of rock is this?</p>","1","class_response","0","test","24","Basalt","Diorite","13","false","2","3","",""
"","","","","","","","","","","","html-keyboard-response","54","2.0.0","108184","66106cb0a3498a31bbf902c1","1","51","null","","","","","","","","","<p style='font-size: 30px;'><strong>Okay</strong></p>","null","neutral_feedback","0","test","24","","","","","","","",""
"","","","","","","","","","","","html-button-response","55","2.0.0","109527","66106cb0a3498a31bbf902c1","1","51","1341","","","","","","","","","<img src= ""rock_img/I_Basalt_16.jpg"" style=""width:8cm; height:7.659999999999999cm;""><p>What type of rock is this?</p>","5","class_response","0","test","25","Pegmatite","Basalt","16","false","6","2","",""
"","","","","","","","","","","","html-keyboard-response","56","2.0.0","110036","66106cb0a3498a31bbf902c1","1","51","null","","","","","","","","","<p style='font-size: 30px;'><strong>Okay</strong></p>","null","neutral_feedback","0","test","25","","","","","","","",""
"","","","","","","","","","","","html-button-response","57","2.0.0","111148","66106cb0a3498a31bbf902c1","1","51","1110","","","","","","","","","<img src= ""rock_img/I_Pegmatite_12.jpg"" style=""width:8cm; height:5.7cm;""><p>What type of rock is this?</p>","3","class_response","0","test","26","Gabbro","Pegmatite","12","false","4","6","",""
"","","","","","","","","","","","html-keyboard-response","58","2.0.0","111649","66106cb0a3498a31bbf902c1","1","51","null","","","","","","","","","<p style='font-size: 30px;'><strong>Okay</strong></p>","null","neutral_feedback","0","test","26","","","","","","","",""
"","","","","","","","","","","","html-button-response","59","2.0.0","112811","66106cb0a3498a31bbf902c1","1","51","1161","","","","","","","","","<img src= ""rock_img/I_Gabbro_14.jpg"" style=""width:8cm; height:8.48cm;""><p>What type of rock is this?</p>","0","class_response","0","test","27","Andesite","Gabbro","14","false","1","4","",""
"","","","","","","","","","","","html-keyboard-response","60","2.0.0","113313","66106cb0a3498a31bbf902c1","1","51","null","","","","","","","","","<p style='font-size: 30px;'><strong>Okay</strong></p>","null","neutral_feedback","0","test","27","","","","","","","",""
"","","","","","","","","","","","html-button-response","61","2.0.0","114083","66106cb0a3498a31bbf902c1","1","51","768","","","","","","","","","<img src= ""rock_img/I_Andesite_04.jpg"" style=""width:8cm; height:5.96cm;""><p>What type of rock is this?</p>","4","class_response","0","test","28","Obsidian","Andesite","04","false","5","1","",""
"","","","","","","","","","","","html-keyboard-response","62","2.0.0","114595","66106cb0a3498a31bbf902c1","1","51","null","","","","","","","","","<p style='font-size: 30px;'><strong>Okay</strong></p>","null","neutral_feedback","0","test","28","","","","","","","",""
"","","","","","","","","","","","html-button-response","63","2.0.0","115607","66106cb0a3498a31bbf902c1","1","51","1011","","","","","","","","","<img src= ""rock_img/I_Basalt_12.jpg"" style=""width:8cm; height:6.010000000000001cm;""><p>What type of rock is this?</p>","5","class_response","0","test","29","Pegmatite","Basalt","12","false","6","2","",""
"","","","","","","","","","","","html-keyboard-response","64","2.0.0","116112","66106cb0a3498a31bbf902c1","1","51","null","","","","","","","","","<p style='font-size: 30px;'><strong>Okay</strong></p>","null","neutral_feedback","0","test","29","","","","","","","",""
"","","","","","","","","","","","html-button-response","65","2.0.0","117377","66106cb0a3498a31bbf902c1","1","51","1264","","","","","","","","","<img src= ""rock_img/I_Peridotite_02.jpg"" style=""width:8cm; height:5.859999999999999cm;""><p>What type of rock is this?</p>","1","class_response","0","test","30","Basalt","Peridotite","02","false","2","7","",""
"","","","","","","","","","","","html-keyboard-response","66","2.0.0","117887","66106cb0a3498a31bbf902c1","1","51","null","","","","","","","","","<p style='font-size: 30px;'><strong>Okay</strong></p>","null","neutral_feedback","0","test","30","","","","","","","",""
"","","","","","","","","","","","html-button-response","67","2.0.0","119031","66106cb0a3498a31bbf902c1","1","51","1143","","","","","","","","","<img src= ""rock_img/I_Basalt_08.jpg"" style=""width:8cm; height:10.44cm;""><p>What type of rock is this?</p>","3","class_response","0","test","31","Gabbro","Basalt","08","false","4","2","",""
"","","","","","","","","","","","html-keyboard-response","68","2.0.0","119534","66106cb0a3498a31bbf902c1","1","51","null","","","","","","","","","<p style='font-size: 30px;'><strong>Okay</strong></p>","null","neutral_feedback","0","test","31","","","","","","","",""
"","","","","","","","","","","","html-button-response","69","2.0.0","120487","66106cb0a3498a31bbf902c1","1","51","952","","","","","","","","","<img src= ""rock_img/I_Diorite_12.jpg"" style=""width:8cm; height:4.88cm;""><p>What type of rock is this?</p>","6","class_response","0","test","32","Peridotite","Diorite","12","false","7","3","",""
"","","","","","","","","","","","html-keyboard-response","70","2.0.0","121003","66106cb0a3498a31bbf902c1","1","51","null","","","","","","","","","<p style='font-size: 30px;'><strong>Okay</strong></p>","null","neutral_feedback","0","test","32","","","","","","","",""
"","","","","","","","","","","","html-button-response","71","2.0.0","122119","66106cb0a3498a31bbf902c1","1","51","1115","","","","","","","","","<img src= ""rock_img/I_Diorite_14.jpg"" style=""width:8cm; height:5.71cm;""><p>What type of rock is this?</p>","1","class_response","0","test","33","Basalt","Diorite","14","false","2","3","",""
"","","","","","","","","","","","html-keyboard-response","72","2.0.0","122620","66106cb0a3498a31bbf902c1","1","51","null","","","","","","","","","<p style='font-size: 30px;'><strong>Okay</strong></p>","null","neutral_feedback","0","test","33","","","","","","","",""
"","","","","","","","","","","","html-button-response","73","2.0.0","123743","66106cb0a3498a31bbf902c1","1","51","1122","","","","","","","","","<img src= ""rock_img/I_Basalt_02.jpg"" style=""width:8cm; height:6.45cm;""><p>What type of rock is this?</p>","0","class_response","0","test","34","Andesite","Basalt","02","false","1","2","",""
"","","","","","","","","","","","html-keyboard-response","74","2.0.0","124257","66106cb0a3498a31bbf902c1","1","51","null","","","","","","","","","<p style='font-size: 30px;'><strong>Okay</strong></p>","null","neutral_feedback","0","test","34","","","","","","","",""
"","","","","","","","","","","","html-button-response","75","2.0.0","126535","66106cb0a3498a31bbf902c1","1","51","2277","","","","","","","","","<img src= ""rock_img/I_Pegmatite_13.jpg"" style=""width:8cm; height:4.95cm;""><p>What type of rock is this?</p>","4","class_response","0","test","35","Obsidian","Pegmatite","13","false","5","6","",""
"","","","","","","","","","","","html-keyboard-response","76","2.0.0","127051","66106cb0a3498a31bbf902c1","1","51","null","","","","","","","","","<p style='font-size: 30px;'><strong>Okay</strong></p>","null","neutral_feedback","0","test","35","","","","","","","",""
"","","","","","","","","","","","html-button-response","77","2.0.0","128172","66106cb0a3498a31bbf902c1","1","51","1119","","","","","","","","","<img src= ""rock_img/I_Gabbro_09.jpg"" style=""width:8cm; height:7.279999999999999cm;""><p>What type of rock is this?</p>","3","class_response","0","test","36","Gabbro","Gabbro","09","true","4","4","",""
"","","","","","","","","","","","html-keyboard-response","78","2.0.0","128673","66106cb0a3498a31bbf902c1","1","51","null","","","","","","","","","<p style='font-size: 30px;'><strong>Okay</strong></p>","null","neutral_feedback","0","test","36","","","","","","","",""
"","","","","","","","","","","","html-button-response","79","2.0.0","129787","66106cb0a3498a31bbf902c1","1","51","1113","","","","","","","","","<img src= ""rock_img/I_Gabbro_05.jpg"" style=""width:8cm; height:6cm;""><p>What type of rock is this?</p>","2","class_response","0","test","37","Diorite","Gabbro","05","false","3","4","",""
"","","","","","","","","","","","html-keyboard-response","80","2.0.0","130297","66106cb0a3498a31bbf902c1","1","51","null","","","","","","","","","<p style='font-size: 30px;'><strong>Okay</strong></p>","null","neutral_feedback","0","test","37","","","","","","","",""
"","","","","","","","","","","","html-button-response","81","2.0.0","131687","66106cb0a3498a31bbf902c1","1","51","1389","","","","","","","","","<img src= ""rock_img/I_Obsidian_05.jpg"" style=""width:8cm; height:6.33cm;""><p>What type of rock is this?</p>","1","class_response","0","test","38","Basalt","Obsidian","05","false","2","5","",""
"","","","","","","","","","","","html-keyboard-response","82","2.0.0","132202","66106cb0a3498a31bbf902c1","1","51","null","","","","","","","","","<p style='font-size: 30px;'><strong>Okay</strong></p>","null","neutral_feedback","0","test","38","","","","","","","",""
"","","","","","","","","","","","html-button-response","83","2.0.0","133375","66106cb0a3498a31bbf902c1","1","51","1172","","","","","","","","","<img src= ""rock_img/I_Peridotite_14.jpg"" style=""width:8cm; height:5.3cm;""><p>What type of rock is this?</p>","0","class_response","0","test","39","Andesite","Peridotite","14","false","1","7","",""
"","","","","","","","","","","","html-keyboard-response","84","2.0.0","133885","66106cb0a3498a31bbf902c1","1","51","null","","","","","","","","","<p style='font-size: 30px;'><strong>Okay</strong></p>","null","neutral_feedback","0","test","39","","","","","","","",""
"","","","","","","","","","","","html-button-response","85","2.0.0","134871","66106cb0a3498a31bbf902c1","1","51","984","","","","","","","","","<img src= ""rock_img/I_Obsidian_08.jpg"" style=""width:8cm; height:7.39cm;""><p>What type of rock is this?</p>","7","class_response","0","test","40","Pumice","Obsidian","08","false","8","5","",""
"","","","","","","","","","","","html-keyboard-response","86","2.0.0","135382","66106cb0a3498a31bbf902c1","1","51","null","","","","","","","","","<p style='font-size: 30px;'><strong>Okay</strong></p>","null","neutral_feedback","0","test","40","","","","","","","",""
"","","","","","","","","","","","html-button-response","87","2.0.0","158155","66106cb0a3498a31bbf902c1","1","51","22771","","","","","","","","","<img src= ""rock_img/I_Andesite_03.jpg"" style=""width:8cm; height:5.73cm;""><p>What type of rock is this?</p>","0","class_response","0","test","41","Andesite","Andesite","03","true","1","1","",""
"","","","","","","","","","","","html-keyboard-response","88","2.0.0","158671","66106cb0a3498a31bbf902c1","1","51","null","","","","","","","","","<p style='font-size: 30px;'><strong>Okay</strong></p>","null","neutral_feedback","0","test","41","","","","","","","",""
"","","","","","","","","","","","html-button-response","89","2.0.0","165235","66106cb0a3498a31bbf902c1","1","51","6563","","","","","","","","","<img src= ""rock_img/I_Gabbro_03.jpg"" style=""width:8cm; height:8.52cm;""><p>What type of rock is this?</p>","3","class_response","0","test","42","Gabbro","Gabbro","03","true","4","4","",""
"","","","","","","","","","","","html-keyboard-response","90","2.0.0","165737","66106cb0a3498a31bbf902c1","1","51","null","","","","","","","","","<p style='font-size: 30px;'><strong>Okay</strong></p>","null","neutral_feedback","0","test","42","","","","","","","",""
"","","","","","","","","","","","html-button-response","91","2.0.0","166543","66106cb0a3498a31bbf902c1","1","51","805","","","","","","","","","<img src= ""rock_img/I_Peridotite_08.jpg"" style=""width:8cm; height:6.7cm;""><p>What type of rock is this?</p>","5","class_response","0","test","43","Pegmatite","Peridotite","08","false","6","7","",""
"","","","","","","","","","","","html-keyboard-response","92","2.0.0","167048","66106cb0a3498a31bbf902c1","1","51","null","","","","","","","","","<p style='font-size: 30px;'><strong>Okay</strong></p>","null","neutral_feedback","0","test","43","","","","","","","",""
"","","","","","","","","","","","html-button-response","93","2.0.0","168143","66106cb0a3498a31bbf902c1","1","51","1094","","","","","","","","","<img src= ""rock_img/I_Andesite_02.jpg"" style=""width:8cm; height:8.5cm;""><p>What type of rock is this?</p>","0","class_response","0","test","44","Andesite","Andesite","02","true","1","1","",""
"","","","","","","","","","","","html-keyboard-response","94","2.0.0","168656","66106cb0a3498a31bbf902c1","1","51","null","","","","","","","","","<p style='font-size: 30px;'><strong>Okay</strong></p>","null","neutral_feedback","0","test","44","","","","","","","",""
"","","","","","","","","","","","html-button-response","95","2.0.0","169535","66106cb0a3498a31bbf902c1","1","51","878","","","","","","","","","<img src= ""rock_img/I_Diorite_06.jpg"" style=""width:8cm; height:6.03cm;""><p>What type of rock is this?</p>","4","class_response","0","test","45","Obsidian","Diorite","06","false","5","3","",""
"","","","","","","","","","","","html-keyboard-response","96","2.0.0","170041","66106cb0a3498a31bbf902c1","1","51","null","","","","","","","","","<p style='font-size: 30px;'><strong>Okay</strong></p>","null","neutral_feedback","0","test","45","","","","","","","",""
"","","","","","","","","","","","html-button-response","97","2.0.0","170771","66106cb0a3498a31bbf902c1","1","51","729","","","","","","","","","<img src= ""rock_img/I_Peridotite_04.jpg"" style=""width:8cm; height:6.680000000000001cm;""><p>What type of rock is this?</p>","3","class_response","0","test","46","Gabbro","Peridotite","04","false","4","7","",""
"","","","","","","","","","","","html-keyboard-response","98","2.0.0","171272","66106cb0a3498a31bbf902c1","1","51","null","","","","","","","","","<p style='font-size: 30px;'><strong>Okay</strong></p>","null","neutral_feedback","0","test","46","","","","","","","",""
"","","","","","","","","","","","html-button-response","99","2.0.0","171943","66106cb0a3498a31bbf902c1","1","51","670","","","","","","","","","<img src= ""rock_img/I_Gabbro_16.jpg"" style=""width:8cm; height:6.44cm;""><p>What type of rock is this?</p>","5","class_response","0","test","47","Pegmatite","Gabbro","16","false","6","4","",""
"","","","","","","","","","","","html-keyboard-response","100","2.0.0","172456","66106cb0a3498a31bbf902c1","1","51","null","","","","","","","","","<p style='font-size: 30px;'><strong>Okay</strong></p>","null","neutral_feedback","0","test","47","","","","","","","",""
"","","","","","","","","","","","html-button-response","101","2.0.0","173300","66106cb0a3498a31bbf902c1","1","51","843","","","","","","","","","<img src= ""rock_img/I_Basalt_05.jpg"" style=""width:8cm; height:8.18cm;""><p>What type of rock is this?</p>","1","class_response","0","test","48","Basalt","Basalt","05","true","2","2","",""
"","","","","","","","","","","","html-keyboard-response","102","2.0.0","173810","66106cb0a3498a31bbf902c1","1","51","null","","","","","","","","","<p style='font-size: 30px;'><strong>Okay</strong></p>","null","neutral_feedback","0","test","48","","","","","","","",""
"","","","","","","","","","","","instructions","103","2.0.0","200899","66106cb0a3498a31bbf902c1","1","51","27070","","","","","","","","[{""page_index"":0,""viewing_time"":16054},{""page_index"":1,""viewing_time"":5872},{""page_index"":2,""viewing_time"":5144}]","","","","","","","","","","","","","",""
"","","","","","","","","","","","html-button-response","104","2.0.0","203003","66106cb0a3498a31bbf902c1","1","51","2103","","","","","","","","","","0","start_train","","","","","","","","","","",""
"","","","","","","","","","","","html-button-response","105","2.0.0","206227","66106cb0a3498a31bbf902c1","1","51","3223","","","","","","","","","<img src= ""rock_img/I_Peridotite_05.jpg"" style=""width:8cm; height:7.1499999999999995cm;""><p>What type of rock is this?</p>","0","class_response","1","train","1","Andesite","Peridotite","05","false","1","7","",""
"","","","","","","","","","","","html-button-response","106","2.0.0","217571","66106cb0a3498a31bbf902c1","1","51","11342","","","","","","","","","<img src= rock_img/I_Peridotite_05.jpg style=""width:8cm; height:7.1499999999999995cm;""><p style='font-size: 30px; color: red;'><strong>Incorrect!</strong></p><p style='font-size: 30px;'><strong>This rock is peridotite</strong></p>","0","corr_feedback","1","train","1","","","","","","","",""
"","","","","","","","","","","","html-button-response","107","2.0.0","220095","66106cb0a3498a31bbf902c1","1","51","2523","","","","","","","","","<img src= ""rock_img/I_Diorite_15.jpg"" style=""width:8cm; height:5.54cm;""><p>What type of rock is this?</p>","1","class_response","1","train","2","Basalt","Diorite","15","false","2","3","",""
"","","","","","","","","","","","html-button-response","108","2.0.0","225343","66106cb0a3498a31bbf902c1","1","51","5246","","","","","","","","","<img src= rock_img/I_Diorite_15.jpg style=""width:8cm; height:5.54cm;""><p style='font-size: 30px; color: red;'><strong>Incorrect!</strong></p><p style='font-size: 30px;'><strong>This rock is diorite</strong></p>","0","corr_feedback","1","train","2","","","","","","","",""
"","","","","","","","","","","","html-button-response","109","2.0.0","226827","66106cb0a3498a31bbf902c1","1","51","1483","","","","","","","","","<img src= ""rock_img/I_Pumice_09.jpg"" style=""width:8cm; height:6.44cm;""><p>What type of rock is this?</p>","2","class_response","1","train","3","Diorite","Pumice","09","false","3","8","",""
"","","","","","","","","","","","html-button-response","110","2.0.0","231531","66106cb0a3498a31bbf902c1","1","51","4703","","","","","","","","","<img src= rock_img/I_Pumice_09.jpg style=""width:8cm; height:6.44cm;""><p style='font-size: 30px; color: red;'><strong>Incorrect!</strong></p><p style='font-size: 30px;'><strong>This rock is pumice</strong></p>","0","corr_feedback","1","train","3","","","","","","","",""
"","","","","","","","","","","","html-button-response","111","2.0.0","233391","66106cb0a3498a31bbf902c1","1","51","1859","","","","","","","","","<img src= ""rock_img/I_Pegmatite_11.jpg"" style=""width:8cm; height:8.14cm;""><p>What type of rock is this?</p>","3","class_response","1","train","4","Gabbro","Pegmatite","11","false","4","6","",""
"","","","","","","","","","","","html-button-response","112","2.0.0","237431","66106cb0a3498a31bbf902c1","1","51","4039","","","","","","","","","<img src= rock_img/I_Pegmatite_11.jpg style=""width:8cm; height:8.14cm;""><p style='font-size: 30px; color: red;'><strong>Incorrect!</strong></p><p style='font-size: 30px;'><strong>This rock is pegmatite</strong></p>","0","corr_feedback","1","train","4","","","","","","","",""
"","","","","","","","","","","","html-button-response","113","2.0.0","238827","66106cb0a3498a31bbf902c1","1","51","1394","","","","","","","","","<img src= ""rock_img/I_Diorite_10.jpg"" style=""width:8cm; height:5.949999999999999cm;""><p>What type of rock is this?</p>","4","class_response","1","train","5","Obsidian","Diorite","10","false","5","3","",""
"","","","","","","","","","","","html-button-response","114","2.0.0","242747","66106cb0a3498a31bbf902c1","1","51","3919","","","","","","","","","<img src= rock_img/I_Diorite_10.jpg style=""width:8cm; height:5.949999999999999cm;""><p style='font-size: 30px; color: red;'><strong>Incorrect!</strong></p><p style='font-size: 30px;'><strong>This rock is diorite</strong></p>","0","corr_feedback","1","train","5","","","","","","","",""
"","","","","","","","","","","","html-button-response","115","2.0.0","243840","66106cb0a3498a31bbf902c1","1","51","1092","","","","","","","","","<img src= ""rock_img/I_Andesite_11.jpg"" style=""width:8cm; height:4.92cm;""><p>What type of rock is this?</p>","5","class_response","1","train","6","Pegmatite","Andesite","11","false","6","1","",""
"","","","","","","","","","","","html-button-response","116","2.0.0","247719","66106cb0a3498a31bbf902c1","1","51","3877","","","","","","","","","<img src= rock_img/I_Andesite_11.jpg style=""width:8cm; height:4.92cm;""><p style='font-size: 30px; color: red;'><strong>Incorrect!</strong></p><p style='font-size: 30px;'><strong>This rock is andesite</strong></p>","0","corr_feedback","1","train","6","","","","","","","",""
"","","","","","","","","","","","html-button-response","117","2.0.0","252492","66106cb0a3498a31bbf902c1","1","51","4772","","","","","","","","","<img src= ""rock_img/I_Basalt_11.jpg"" style=""width:8cm; height:5.359999999999999cm;""><p>What type of rock is this?</p>","7","class_response","1","train","7","Pumice","Basalt","11","false","8","2","",""
"","","","","","","","","","","","html-button-response","118","2.0.0","256803","66106cb0a3498a31bbf902c1","1","51","4309","","","","","","","","","<img src= rock_img/I_Basalt_11.jpg style=""width:8cm; height:5.359999999999999cm;""><p style='font-size: 30px; color: red;'><strong>Incorrect!</strong></p><p style='font-size: 30px;'><strong>This rock is basalt</strong></p>","0","corr_feedback","1","train","7","","","","","","","",""
"","","","","","","","","","","","html-button-response","119","2.0.0","258712","66106cb0a3498a31bbf902c1","1","51","1908","","","","","","","","","<img src= ""rock_img/I_Pumice_04.jpg"" style=""width:8cm; height:6.819999999999999cm;""><p>What type of rock is this?</p>","7","class_response","1","train","8","Pumice","Pumice","04","true","8","8","",""
"","","","","","","","","","","","html-button-response","120","2.0.0","296771","66106cb0a3498a31bbf902c1","1","51","38057","","","","","","","","","<img src= rock_img/I_Pumice_04.jpg style=""width:8cm; height:6.819999999999999cm;""><p style='font-size: 30px; color: green;'><strong>Correct!</strong></p><p style='font-size: 30px;'><strong>This rock is pumice</strong></p>","0","corr_feedback","1","train","8","","","","","","","",""
"","","","","","","","","","","","html-button-response","121","2.0.0","305939","66106cb0a3498a31bbf902c1","1","51","9167","","","","","","","","","<img src= ""rock_img/I_Gabbro_08.jpg"" style=""width:8cm; height:5.15cm;""><p>What type of rock is this?</p>","5","class_response","1","train","9","Pegmatite","Gabbro","08","false","6","4","",""
"","","","","","","","","","","","html-button-response","122","2.0.0","322175","66106cb0a3498a31bbf902c1","1","51","16234","","","","","","","","","<img src= rock_img/I_Gabbro_08.jpg style=""width:8cm; height:5.15cm;""><p style='font-size: 30px; color: red;'><strong>Incorrect!</strong></p><p style='font-size: 30px;'><strong>This rock is gabbro</strong></p>","0","corr_feedback","1","train","9","","","","","","","",""
"","","","","","","","","","","","html-button-response","123","2.0.0","329019","66106cb0a3498a31bbf902c1","1","51","6843","","","","","","","","","<img src= ""rock_img/I_Pumice_15.jpg"" style=""width:8cm; height:7.86cm;""><p>What type of rock is this?</p>","2","class_response","1","train","10","Diorite","Pumice","15","false","3","8","",""
"","","","","","","","","","","","html-button-response","124","2.0.0","332443","66106cb0a3498a31bbf902c1","1","51","3422","","","","","","","","","<img src= rock_img/I_Pumice_15.jpg style=""width:8cm; height:7.86cm;""><p style='font-size: 30px; color: red;'><strong>Incorrect!</strong></p><p style='font-size: 30px;'><strong>This rock is pumice</strong></p>","0","corr_feedback","1","train","10","","","","","","","",""
"","","","","","","","","","","","html-button-response","125","2.0.0","335831","66106cb0a3498a31bbf902c1","1","51","3387","","","","","","","","","<img src= ""rock_img/I_Pegmatite_15.jpg"" style=""width:8cm; height:6cm;""><p>What type of rock is this?</p>","4","class_response","1","train","11","Obsidian","Pegmatite","15","false","5","6","",""
"","","","","","","","","","","","html-button-response","126","2.0.0","337383","66106cb0a3498a31bbf902c1","1","51","1551","","","","","","","","","<img src= rock_img/I_Pegmatite_15.jpg style=""width:8cm; height:6cm;""><p style='font-size: 30px; color: red;'><strong>Incorrect!</strong></p><p style='font-size: 30px;'><strong>This rock is pegmatite</strong></p>","0","corr_feedback","1","train","11","","","","","","","",""
"","","","","","","","","","","","html-button-response","127","2.0.0","344867","66106cb0a3498a31bbf902c1","1","51","7482","","","","","","","","","<img src= ""rock_img/I_Peridotite_10.jpg"" style=""width:8cm; height:5.390000000000001cm;""><p>What type of rock is this?</p>","3","class_response","1","train","12","Gabbro","Peridotite","10","false","4","7","",""
"","","","","","","","","","","","html-button-response","128","2.0.0","346107","66106cb0a3498a31bbf902c1","1","51","1239","","","","","","","","","<img src= rock_img/I_Peridotite_10.jpg style=""width:8cm; height:5.390000000000001cm;""><p style='font-size: 30px; color: red;'><strong>Incorrect!</strong></p><p style='font-size: 30px;'><strong>This rock is peridotite</strong></p>","0","corr_feedback","1","train","12","","","","","","","",""
"","","","","","","","","","","","html-button-response","129","2.0.0","354135","66106cb0a3498a31bbf902c1","1","51","8026","","","","","","","","","<img src= ""rock_img/I_Diorite_08.jpg"" style=""width:8cm; height:6.37cm;""><p>What type of rock is this?</p>","7","class_response","1","train","13","Pumice","Diorite","08","false","8","3","",""
"","","","","","","","","","","","html-button-response","130","2.0.0","355258","66106cb0a3498a31bbf902c1","1","51","1122","","","","","","","","","<img src= rock_img/I_Diorite_08.jpg style=""width:8cm; height:6.37cm;""><p style='font-size: 30px; color: red;'><strong>Incorrect!</strong></p><p style='font-size: 30px;'><strong>This rock is diorite</strong></p>","0","corr_feedback","1","train","13","","","","","","","",""
"","","","","","","","","","","","html-button-response","131","2.0.0","357575","66106cb0a3498a31bbf902c1","1","51","2315","","","","","","","","","<img src= ""rock_img/I_Obsidian_04.jpg"" style=""width:8cm; height:6.930000000000001cm;""><p>What type of rock is this?</p>","2","class_response","1","train","14","Diorite","Obsidian","04","false","3","5","",""
"","","","","","","","","","","","html-button-response","132","2.0.0","358759","66106cb0a3498a31bbf902c1","1","51","1183","","","","","","","","","<img src= rock_img/I_Obsidian_04.jpg style=""width:8cm; height:6.930000000000001cm;""><p style='font-size: 30px; color: red;'><strong>Incorrect!</strong></p><p style='font-size: 30px;'><strong>This rock is obsidian</strong></p>","0","corr_feedback","1","train","14","","","","","","","",""
"","","","","","","","","","","","html-button-response","133","2.0.0","361751","66106cb0a3498a31bbf902c1","1","51","2991","","","","","","","","","<img src= ""rock_img/I_Andesite_06.jpg"" style=""width:8cm; height:6.840000000000001cm;""><p>What type of rock is this?</p>","5","class_response","1","train","15","Pegmatite","Andesite","06","false","6","1","",""
"","","","","","","","","","","","html-button-response","134","2.0.0","362531","66106cb0a3498a31bbf902c1","1","51","779","","","","","","","","","<img src= rock_img/I_Andesite_06.jpg style=""width:8cm; height:6.840000000000001cm;""><p style='font-size: 30px; color: red;'><strong>Incorrect!</strong></p><p style='font-size: 30px;'><strong>This rock is andesite</strong></p>","0","corr_feedback","1","train","15","","","","","","","",""
"","","","","","","","","","","","html-button-response","135","2.0.0","364075","66106cb0a3498a31bbf902c1","1","51","1542","","","","","","","","","<img src= ""rock_img/I_Obsidian_14.jpg"" style=""width:8cm; height:7.64cm;""><p>What type of rock is this?</p>","2","class_response","1","train","16","Diorite","Obsidian","14","false","3","5","",""
"","","","","","","","","","","","html-button-response","136","2.0.0","364795","66106cb0a3498a31bbf902c1","1","51","719","","","","","","","","","<img src= rock_img/I_Obsidian_14.jpg style=""width:8cm; height:7.64cm;""><p style='font-size: 30px; color: red;'><strong>Incorrect!</strong></p><p style='font-size: 30px;'><strong>This rock is obsidian</strong></p>","0","corr_feedback","1","train","16","","","","","","","",""
"","","","","","","","","","","","html-button-response","137","2.0.0","366139","66106cb0a3498a31bbf902c1","1","51","1342","","","","","","","","","<img src= ""rock_img/I_Obsidian_02.jpg"" style=""width:8cm; height:7.51cm;""><p>What type of rock is this?</p>","3","class_response","1","train","17","Gabbro","Obsidian","02","false","4","5","",""
"","","","","","","","","","","","html-button-response","138","2.0.0","366814","66106cb0a3498a31bbf902c1","1","51","674","","","","","","","","","<img src= rock_img/I_Obsidian_02.jpg style=""width:8cm; height:7.51cm;""><p style='font-size: 30px; color: red;'><strong>Incorrect!</strong></p><p style='font-size: 30px;'><strong>This rock is obsidian</strong></p>","0","corr_feedback","1","train","17","","","","","","","",""
"","","","","","","","","","","","html-button-response","139","2.0.0","369067","66106cb0a3498a31bbf902c1","1","51","2251","","","","","","","","","<img src= ""rock_img/I_Andesite_16.jpg"" style=""width:8cm; height:6.010000000000001cm;""><p>What type of rock is this?</p>","4","class_response","1","train","18","Obsidian","Andesite","16","false","5","1","",""
"","","","","","","","","","","","html-button-response","140","2.0.0","369791","66106cb0a3498a31bbf902c1","1","51","723","","","","","","","","","<img src= rock_img/I_Andesite_16.jpg style=""width:8cm; height:6.010000000000001cm;""><p style='font-size: 30px; color: red;'><strong>Incorrect!</strong></p><p style='font-size: 30px;'><strong>This rock is andesite</strong></p>","0","corr_feedback","1","train","18","","","","","","","",""
"","","","","","","","","","","","html-button-response","141","2.0.0","372215","66106cb0a3498a31bbf902c1","1","51","2423","","","","","","","","","<img src= ""rock_img/I_Basalt_01.jpg"" style=""width:8cm; height:7.880000000000001cm;""><p>What type of rock is this?</p>","1","class_response","1","train","19","Basalt","Basalt","01","true","2","2","",""
"","","","","","","","","","","","html-button-response","142","2.0.0","373352","66106cb0a3498a31bbf902c1","1","51","1135","","","","","","","","","<img src= rock_img/I_Basalt_01.jpg style=""width:8cm; height:7.880000000000001cm;""><p style='font-size: 30px; color: green;'><strong>Correct!</strong></p><p style='font-size: 30px;'><strong>This rock is basalt</strong></p>","0","corr_feedback","1","train","19","","","","","","","",""
"","","","","","","","","","","","html-button-response","143","2.0.0","375143","66106cb0a3498a31bbf902c1","1","51","1790","","","","","","","","","<img src= ""rock_img/I_Gabbro_13.jpg"" style=""width:8cm; height:5.08cm;""><p>What type of rock is this?</p>","6","class_response","1","train","20","Peridotite","Gabbro","13","false","7","4","",""
"","","","","","","","","","","","html-button-response","144","2.0.0","375906","66106cb0a3498a31bbf902c1","1","51","762","","","","","","","","","<img src= rock_img/I_Gabbro_13.jpg style=""width:8cm; height:5.08cm;""><p style='font-size: 30px; color: red;'><strong>Incorrect!</strong></p><p style='font-size: 30px;'><strong>This rock is gabbro</strong></p>","0","corr_feedback","1","train","20","","","","","","","",""
"","","","","","","","","","","","html-button-response","145","2.0.0","378250","66106cb0a3498a31bbf902c1","1","51","2343","","","","","","","","","<img src= ""rock_img/I_Pumice_03.jpg"" style=""width:8cm; height:6.64cm;""><p>What type of rock is this?</p>","7","class_response","1","train","21","Pumice","Pumice","03","true","8","8","",""
"","","","","","","","","","","","html-button-response","146","2.0.0","379142","66106cb0a3498a31bbf902c1","1","51","891","","","","","","","","","<img src= rock_img/I_Pumice_03.jpg style=""width:8cm; height:6.64cm;""><p style='font-size: 30px; color: green;'><strong>Correct!</strong></p><p style='font-size: 30px;'><strong>This rock is pumice</strong></p>","0","corr_feedback","1","train","21","","","","","","","",""
"","","","","","","","","","","","html-button-response","147","2.0.0","380602","66106cb0a3498a31bbf902c1","1","51","1459","","","","","","","","","<img src= ""rock_img/I_Peridotite_06.jpg"" style=""width:8cm; height:7.53cm;""><p>What type of rock is this?</p>","0","class_response","1","train","22","Andesite","Peridotite","06","false","1","7","",""
"","","","","","","","","","","","html-button-response","148","2.0.0","381507","66106cb0a3498a31bbf902c1","1","51","903","","","","","","","","","<img src= rock_img/I_Peridotite_06.jpg style=""width:8cm; height:7.53cm;""><p style='font-size: 30px; color: red;'><strong>Incorrect!</strong></p><p style='font-size: 30px;'><strong>This rock is peridotite</strong></p>","0","corr_feedback","1","train","22","","","","","","","",""
"","","","","","","","","","","","html-button-response","149","2.0.0","383219","66106cb0a3498a31bbf902c1","1","51","1711","","","","","","","","","<img src= ""rock_img/I_Pegmatite_03.jpg"" style=""width:8cm; height:5.239999999999999cm;""><p>What type of rock is this?</p>","3","class_response","1","train","23","Gabbro","Pegmatite","03","false","4","6","",""
"","","","","","","","","","","","html-button-response","150","2.0.0","384242","66106cb0a3498a31bbf902c1","1","51","1022","","","","","","","","","<img src= rock_img/I_Pegmatite_03.jpg style=""width:8cm; height:5.239999999999999cm;""><p style='font-size: 30px; color: red;'><strong>Incorrect!</strong></p><p style='font-size: 30px;'><strong>This rock is pegmatite</strong></p>","0","corr_feedback","1","train","23","","","","","","","",""
"","","","","","","","","","","","html-button-response","151","2.0.0","386163","66106cb0a3498a31bbf902c1","1","51","1919","","","","","","","","","<img src= ""rock_img/I_Peridotite_15.jpg"" style=""width:8cm; height:6cm;""><p>What type of rock is this?</p>","2","class_response","1","train","24","Diorite","Peridotite","15","false","3","7","",""
"","","","","","","","","","","","html-button-response","152","2.0.0","386987","66106cb0a3498a31bbf902c1","1","51","823","","","","","","","","","<img src= rock_img/I_Peridotite_15.jpg style=""width:8cm; height:6cm;""><p style='font-size: 30px; color: red;'><strong>Incorrect!</strong></p><p style='font-size: 30px;'><strong>This rock is peridotite</strong></p>","0","corr_feedback","1","train","24","","","","","","","",""
"","","","","","","","","","","","html-button-response","153","2.0.0","388484","66106cb0a3498a31bbf902c1","1","51","1496","","","","","","","","","<img src= ""rock_img/I_Gabbro_10.jpg"" style=""width:8cm; height:5.680000000000001cm;""><p>What type of rock is this?</p>","4","class_response","1","train","25","Obsidian","Gabbro","10","false","5","4","",""
"","","","","","","","","","","","html-button-response","154","2.0.0","389374","66106cb0a3498a31bbf902c1","1","51","890","","","","","","","","","<img src= rock_img/I_Gabbro_10.jpg style=""width:8cm; height:5.680000000000001cm;""><p style='font-size: 30px; color: red;'><strong>Incorrect!</strong></p><p style='font-size: 30px;'><strong>This rock is gabbro</strong></p>","0","corr_feedback","1","train","25","","","","","","","",""
"","","","","","","","","","","","html-button-response","155","2.0.0","390055","66106cb0a3498a31bbf902c1","1","51","679","","","","","","","","","<img src= ""rock_img/I_Peridotite_16.jpg"" style=""width:8cm; height:6.989999999999999cm;""><p>What type of rock is this?</p>","1","class_response","1","train","26","Basalt","Peridotite","16","false","2","7","",""
"","","","","","","","","","","","html-button-response","156","2.0.0","391046","66106cb0a3498a31bbf902c1","1","51","990","","","","","","","","","<img src= rock_img/I_Peridotite_16.jpg style=""width:8cm; height:6.989999999999999cm;""><p style='font-size: 30px; color: red;'><strong>Incorrect!</strong></p><p style='font-size: 30px;'><strong>This rock is peridotite</strong></p>","0","corr_feedback","1","train","26","","","","","","","",""
"","","","","","","","","","","","html-button-response","157","2.0.0","392031","66106cb0a3498a31bbf902c1","1","51","983","","","","","","","","","<img src= ""rock_img/I_Pegmatite_10.jpg"" style=""width:8cm; height:4.16cm;""><p>What type of rock is this?</p>","5","class_response","1","train","27","Pegmatite","Pegmatite","10","true","6","6","",""
"","","","","","","","","","","","html-button-response","158","2.0.0","393271","66106cb0a3498a31bbf902c1","1","51","1239","","","","","","","","","<img src= rock_img/I_Pegmatite_10.jpg style=""width:8cm; height:4.16cm;""><p style='font-size: 30px; color: green;'><strong>Correct!</strong></p><p style='font-size: 30px;'><strong>This rock is pegmatite</strong></p>","0","corr_feedback","1","train","27","","","","","","","",""
"","","","","","","","","","","","html-button-response","159","2.0.0","394731","66106cb0a3498a31bbf902c1","1","51","1458","","","","","","","","","<img src= ""rock_img/I_Pegmatite_05.jpg"" style=""width:8cm; height:7.300000000000001cm;""><p>What type of rock is this?</p>","1","class_response","1","train","28","Basalt","Pegmatite","05","false","2","6","",""
"","","","","","","","","","","","html-button-response","160","2.0.0","395591","66106cb0a3498a31bbf902c1","1","51","859","","","","","","","","","<img src= rock_img/I_Pegmatite_05.jpg style=""width:8cm; height:7.300000000000001cm;""><p style='font-size: 30px; color: red;'><strong>Incorrect!</strong></p><p style='font-size: 30px;'><strong>This rock is pegmatite</strong></p>","0","corr_feedback","1","train","28","","","","","","","",""
"","","","","","","","","","","","html-button-response","161","2.0.0","397243","66106cb0a3498a31bbf902c1","1","51","1651","","","","","","","","","<img src= ""rock_img/I_Pumice_02.jpg"" style=""width:8cm; height:7.3999999999999995cm;""><p>What type of rock is this?</p>","7","class_response","1","train","29","Pumice","Pumice","02","true","8","8","",""
"","","","","","","","","","","","html-button-response","162","2.0.0","398091","66106cb0a3498a31bbf902c1","1","51","846","","","","","","","","","<img src= rock_img/I_Pumice_02.jpg style=""width:8cm; height:7.3999999999999995cm;""><p style='font-size: 30px; color: green;'><strong>Correct!</strong></p><p style='font-size: 30px;'><strong>This rock is pumice</strong></p>","0","corr_feedback","1","train","29","","","","","","","",""
"","","","","","","","","","","","html-button-response","163","2.0.0","399806","66106cb0a3498a31bbf902c1","1","51","1715","","","","","","","","","<img src= ""rock_img/I_Andesite_14.jpg"" style=""width:8cm; height:5.449999999999999cm;""><p>What type of rock is this?</p>","2","class_response","1","train","30","Diorite","Andesite","14","false","3","1","",""
"","","","","","","","","","","","html-button-response","164","2.0.0","400535","66106cb0a3498a31bbf902c1","1","51","727","","","","","","","","","<img src= rock_img/I_Andesite_14.jpg style=""width:8cm; height:5.449999999999999cm;""><p style='font-size: 30px; color: red;'><strong>Incorrect!</strong></p><p style='font-size: 30px;'><strong>This rock is andesite</strong></p>","0","corr_feedback","1","train","30","","","","","","","",""
"","","","","","","","","","","","html-button-response","165","2.0.0","401759","66106cb0a3498a31bbf902c1","1","51","1223","","","","","","","","","<img src= ""rock_img/I_Basalt_14.jpg"" style=""width:8cm; height:5.82cm;""><p>What type of rock is this?</p>","3","class_response","1","train","31","Gabbro","Basalt","14","false","4","2","",""
"","","","","","","","","","","","html-button-response","166","2.0.0","402623","66106cb0a3498a31bbf902c1","1","51","863","","","","","","","","","<img src= rock_img/I_Basalt_14.jpg style=""width:8cm; height:5.82cm;""><p style='font-size: 30px; color: red;'><strong>Incorrect!</strong></p><p style='font-size: 30px;'><strong>This rock is basalt</strong></p>","0","corr_feedback","1","train","31","","","","","","","",""
"","","","","","","","","","","","html-button-response","167","2.0.0","403583","66106cb0a3498a31bbf902c1","1","51","959","","","","","","","","","<img src= ""rock_img/I_Diorite_07.jpg"" style=""width:8cm; height:5.239999999999999cm;""><p>What type of rock is this?</p>","0","class_response","1","train","32","Andesite","Diorite","07","false","1","3","",""
"","","","","","","","","","","","html-button-response","168","2.0.0","404418","66106cb0a3498a31bbf902c1","1","51","834","","","","","","","","","<img src= rock_img/I_Diorite_07.jpg style=""width:8cm; height:5.239999999999999cm;""><p style='font-size: 30px; color: red;'><strong>Incorrect!</strong></p><p style='font-size: 30px;'><strong>This rock is diorite</strong></p>","0","corr_feedback","1","train","32","","","","","","","",""
"","","","","","","","","","","","html-button-response","169","2.0.0","405767","66106cb0a3498a31bbf902c1","1","51","1347","","","","","","","","","<img src= ""rock_img/I_Diorite_16.jpg"" style=""width:8cm; height:6.74cm;""><p>What type of rock is this?</p>","5","class_response","1","train","33","Pegmatite","Diorite","16","false","6","3","",""
"","","","","","","","","","","","html-button-response","170","2.0.0","406603","66106cb0a3498a31bbf902c1","1","51","835","","","","","","","","","<img src= rock_img/I_Diorite_16.jpg style=""width:8cm; height:6.74cm;""><p style='font-size: 30px; color: red;'><strong>Incorrect!</strong></p><p style='font-size: 30px;'><strong>This rock is diorite</strong></p>","0","corr_feedback","1","train","33","","","","","","","",""
"","","","","","","","","","","","html-button-response","171","2.0.0","407663","66106cb0a3498a31bbf902c1","1","51","1059","","","","","","","","","<img src= ""rock_img/I_Obsidian_16.jpg"" style=""width:8cm; height:9.3cm;""><p>What type of rock is this?</p>","2","class_response","1","train","34","Diorite","Obsidian","16","false","3","5","",""
"","","","","","","","","","","","html-button-response","172","2.0.0","408446","66106cb0a3498a31bbf902c1","1","51","783","","","","","","","","","<img src= rock_img/I_Obsidian_16.jpg style=""width:8cm; height:9.3cm;""><p style='font-size: 30px; color: red;'><strong>Incorrect!</strong></p><p style='font-size: 30px;'><strong>This rock is obsidian</strong></p>","0","corr_feedback","1","train","34","","","","","","","",""
"","","","","","","","","","","","html-button-response","173","2.0.0","410519","66106cb0a3498a31bbf902c1","1","51","2071","","","","","","","","","<img src= ""rock_img/I_Andesite_10.jpg"" style=""width:8cm; height:4.16cm;""><p>What type of rock is this?</p>","7","class_response","1","train","35","Pumice","Andesite","10","false","8","1","",""
"","","","","","","","","","","","html-button-response","174","2.0.0","411267","66106cb0a3498a31bbf902c1","1","51","746","","","","","","","","","<img src= rock_img/I_Andesite_10.jpg style=""width:8cm; height:4.16cm;""><p style='font-size: 30px; color: red;'><strong>Incorrect!</strong></p><p style='font-size: 30px;'><strong>This rock is andesite</strong></p>","0","corr_feedback","1","train","35","","","","","","","",""
"","","","","","","","","","","","html-button-response","175","2.0.0","412695","66106cb0a3498a31bbf902c1","1","51","1427","","","","","","","","","<img src= ""rock_img/I_Basalt_06.jpg"" style=""width:8cm; height:7.06cm;""><p>What type of rock is this?</p>","1","class_response","1","train","36","Basalt","Basalt","06","true","2","2","",""
"","","","","","","","","","","","html-button-response","176","2.0.0","413562","66106cb0a3498a31bbf902c1","1","51","867","","","","","","","","","<img src= rock_img/I_Basalt_06.jpg style=""width:8cm; height:7.06cm;""><p style='font-size: 30px; color: green;'><strong>Correct!</strong></p><p style='font-size: 30px;'><strong>This rock is basalt</strong></p>","0","corr_feedback","1","train","36","","","","","","","",""
"","","","","","","","","","","","html-button-response","177","2.0.0","414782","66106cb0a3498a31bbf902c1","1","51","1219","","","","","","","","","<img src= ""rock_img/I_Gabbro_01.jpg"" style=""width:8cm; height:5.21cm;""><p>What type of rock is this?</p>","3","class_response","1","train","37","Gabbro","Gabbro","01","true","4","4","",""
"","","","","","","","","","","","html-button-response","178","2.0.0","415695","66106cb0a3498a31bbf902c1","1","51","911","","","","","","","","","<img src= rock_img/I_Gabbro_01.jpg style=""width:8cm; height:5.21cm;""><p style='font-size: 30px; color: green;'><strong>Correct!</strong></p><p style='font-size: 30px;'><strong>This rock is gabbro</strong></p>","0","corr_feedback","1","train","37","","","","","","","",""
"","","","","","","","","","","","html-button-response","179","2.0.0","418386","66106cb0a3498a31bbf902c1","1","51","2691","","","","","","","","","<img src= ""rock_img/I_Obsidian_09.jpg"" style=""width:8cm; height:5cm;""><p>What type of rock is this?</p>","0","class_response","1","train","38","Andesite","Obsidian","09","false","1","5","",""
"","","","","","","","","","","","html-button-response","180","2.0.0","419126","66106cb0a3498a31bbf902c1","1","51","739","","","","","","","","","<img src= rock_img/I_Obsidian_09.jpg style=""width:8cm; height:5cm;""><p style='font-size: 30px; color: red;'><strong>Incorrect!</strong></p><p style='font-size: 30px;'><strong>This rock is obsidian</strong></p>","0","corr_feedback","1","train","38","","","","","","","",""
"","","","","","","","","","","","html-button-response","181","2.0.0","421326","66106cb0a3498a31bbf902c1","1","51","2199","","","","","","","","","<img src= ""rock_img/I_Obsidian_12.jpg"" style=""width:8cm; height:6.53cm;""><p>What type of rock is this?</p>","4","class_response","1","train","39","Obsidian","Obsidian","12","true","5","5","",""
"","","","","","","","","","","","html-button-response","182","2.0.0","422262","66106cb0a3498a31bbf902c1","1","51","935","","","","","","","","","<img src= rock_img/I_Obsidian_12.jpg style=""width:8cm; height:6.53cm;""><p style='font-size: 30px; color: green;'><strong>Correct!</strong></p><p style='font-size: 30px;'><strong>This rock is obsidian</strong></p>","0","corr_feedback","1","train","39","","","","","","","",""
"","","","","","","","","","","","html-button-response","183","2.0.0","424231","66106cb0a3498a31bbf902c1","1","51","1967","","","","","","","","","<img src= ""rock_img/I_Diorite_09.jpg"" style=""width:8cm; height:5.27cm;""><p>What type of rock is this?</p>","2","class_response","1","train","40","Diorite","Diorite","09","true","3","3","",""
"","","","","","","","","","","","html-button-response","184","2.0.0","425062","66106cb0a3498a31bbf902c1","1","51","831","","","","","","","","","<img src= rock_img/I_Diorite_09.jpg style=""width:8cm; height:5.27cm;""><p style='font-size: 30px; color: green;'><strong>Correct!</strong></p><p style='font-size: 30px;'><strong>This rock is diorite</strong></p>","0","corr_feedback","1","train","40","","","","","","","",""
"","","","","","","","","","","","html-button-response","185","2.0.0","426559","66106cb0a3498a31bbf902c1","1","51","1495","","","","","","","","","<img src= ""rock_img/I_Andesite_05.jpg"" style=""width:8cm; height:4.12cm;""><p>What type of rock is this?</p>","1","class_response","1","train","41","Basalt","Andesite","05","false","2","1","",""
"","","","","","","","","","","","html-button-response","186","2.0.0","427530","66106cb0a3498a31bbf902c1","1","51","971","","","","","","","","","<img src= rock_img/I_Andesite_05.jpg style=""width:8cm; height:4.12cm;""><p style='font-size: 30px; color: red;'><strong>Incorrect!</strong></p><p style='font-size: 30px;'><strong>This rock is andesite</strong></p>","0","corr_feedback","1","train","41","","","","","","","",""
"","","","","","","","","","","","html-button-response","187","2.0.0","429239","66106cb0a3498a31bbf902c1","1","51","1707","","","","","","","","","<img src= ""rock_img/I_Basalt_10.jpg"" style=""width:8cm; height:5.85cm;""><p>What type of rock is this?</p>","6","class_response","1","train","42","Peridotite","Basalt","10","false","7","2","",""
"","","","","","","","","","","","html-button-response","188","2.0.0","429975","66106cb0a3498a31bbf902c1","1","51","735","","","","","","","","","<img src= rock_img/I_Basalt_10.jpg style=""width:8cm; height:5.85cm;""><p style='font-size: 30px; color: red;'><strong>Incorrect!</strong></p><p style='font-size: 30px;'><strong>This rock is basalt</strong></p>","0","corr_feedback","1","train","42","","","","","","","",""
"","","","","","","","","","","","html-button-response","189","2.0.0","431115","66106cb0a3498a31bbf902c1","1","51","1139","","","","","","","","","<img src= ""rock_img/I_Pumice_14.jpg"" style=""width:8cm; height:6.39cm;""><p>What type of rock is this?</p>","7","class_response","1","train","43","Pumice","Pumice","14","true","8","8","",""
"","","","","","","","","","","","html-button-response","190","2.0.0","431902","66106cb0a3498a31bbf902c1","1","51","786","","","","","","","","","<img src= rock_img/I_Pumice_14.jpg style=""width:8cm; height:6.39cm;""><p style='font-size: 30px; color: green;'><strong>Correct!</strong></p><p style='font-size: 30px;'><strong>This rock is pumice</strong></p>","0","corr_feedback","1","train","43","","","","","","","",""
"","","","","","","","","","","","html-button-response","191","2.0.0","433318","66106cb0a3498a31bbf902c1","1","51","1415","","","","","","","","","<img src= ""rock_img/I_Gabbro_12.jpg"" style=""width:8cm; height:7.800000000000001cm;""><p>What type of rock is this?</p>","3","class_response","1","train","44","Gabbro","Gabbro","12","true","4","4","",""
"","","","","","","","","","","","html-button-response","192","2.0.0","434230","66106cb0a3498a31bbf902c1","1","51","911","","","","","","","","","<img src= rock_img/I_Gabbro_12.jpg style=""width:8cm; height:7.800000000000001cm;""><p style='font-size: 30px; color: green;'><strong>Correct!</strong></p><p style='font-size: 30px;'><strong>This rock is gabbro</strong></p>","0","corr_feedback","1","train","44","","","","","","","",""
"","","","","","","","","","","","html-button-response","193","2.0.0","435311","66106cb0a3498a31bbf902c1","1","51","1079","","","","","","","","","<img src= ""rock_img/I_Basalt_09.jpg"" style=""width:8cm; height:6.2cm;""><p>What type of rock is this?</p>","3","class_response","1","train","45","Gabbro","Basalt","09","false","4","2","",""
"","","","","","","","","","","","html-button-response","194","2.0.0","436110","66106cb0a3498a31bbf902c1","1","51","799","","","","","","","","","<img src= rock_img/I_Basalt_09.jpg style=""width:8cm; height:6.2cm;""><p style='font-size: 30px; color: red;'><strong>Incorrect!</strong></p><p style='font-size: 30px;'><strong>This rock is basalt</strong></p>","0","corr_feedback","1","train","45","","","","","","","",""
"","","","","","","","","","","","html-button-response","195","2.0.0","439163","66106cb0a3498a31bbf902c1","1","51","3051","","","","","","","","","<img src= ""rock_img/I_Pegmatite_08.jpg"" style=""width:8cm; height:7.68cm;""><p>What type of rock is this?</p>","2","class_response","1","train","46","Diorite","Pegmatite","08","false","3","6","",""
"","","","","","","","","","","","html-button-response","196","2.0.0","440078","66106cb0a3498a31bbf902c1","1","51","914","","","","","","","","","<img src= rock_img/I_Pegmatite_08.jpg style=""width:8cm; height:7.68cm;""><p style='font-size: 30px; color: red;'><strong>Incorrect!</strong></p><p style='font-size: 30px;'><strong>This rock is pegmatite</strong></p>","0","corr_feedback","1","train","46","","","","","","","",""
"","","","","","","","","","","","html-button-response","197","2.0.0","441267","66106cb0a3498a31bbf902c1","1","51","1187","","","","","","","","","<img src= ""rock_img/I_Peridotite_13.jpg"" style=""width:8cm; height:7.58cm;""><p>What type of rock is this?</p>","2","class_response","1","train","47","Diorite","Peridotite","13","false","3","7","",""
"","","","","","","","","","","","html-button-response","198","2.0.0","441982","66106cb0a3498a31bbf902c1","1","51","714","","","","","","","","","<img src= rock_img/I_Peridotite_13.jpg style=""width:8cm; height:7.58cm;""><p style='font-size: 30px; color: red;'><strong>Incorrect!</strong></p><p style='font-size: 30px;'><strong>This rock is peridotite</strong></p>","0","corr_feedback","1","train","47","","","","","","","",""
"","","","","","","","","","","","html-button-response","199","2.0.0","443154","66106cb0a3498a31bbf902c1","1","51","1171","","","","","","","","","<img src= ""rock_img/I_Gabbro_15.jpg"" style=""width:8cm; height:6.29cm;""><p>What type of rock is this?</p>","1","class_response","1","train","48","Basalt","Gabbro","15","false","2","4","",""
"","","","","","","","","","","","html-button-response","200","2.0.0","443871","66106cb0a3498a31bbf902c1","1","51","715","","","","","","","","","<img src= rock_img/I_Gabbro_15.jpg style=""width:8cm; height:6.29cm;""><p style='font-size: 30px; color: red;'><strong>Incorrect!</strong></p><p style='font-size: 30px;'><strong>This rock is gabbro</strong></p>","0","corr_feedback","1","train","48","","","","","","","",""
"","","","","","","","","","","","instructions","203","2.0.0","459887","66106cb0a3498a31bbf902c1","1","51","16015","","","","","","","","[{""page_index"":0,""viewing_time"":7167},{""page_index"":1,""viewing_time"":8848}]","","","","","","","","","","","","","",""
"","","","","","","","","","","","html-button-response","204","2.0.0","461259","66106cb0a3498a31bbf902c1","1","51","1371","","","","","","","","","","0","start_test","","","","","","","","","","",""
"","","","","","","","","","","","html-button-response","205","2.0.0","463920","66106cb0a3498a31bbf902c1","1","51","2660","","","","","","","","","<img src= ""rock_img/I_Pegmatite_06.jpg"" style=""width:8cm; height:5.17cm;""><p>What type of rock is this?</p>","3","class_response","1","test","1","Gabbro","Pegmatite","06","false","4","6","",""
"","","","","","","","","","","","html-keyboard-response","206","2.0.0","464434","66106cb0a3498a31bbf902c1","1","51","null","","","","","","","","","<p style='font-size: 30px;'><strong>Okay</strong></p>","null","neutral_feedback","1","test","1","","","","","","","",""
"","","","","","","","","","","","html-button-response","207","2.0.0","466350","66106cb0a3498a31bbf902c1","1","51","1915","","","","","","","","","<img src= ""rock_img/I_Diorite_11.jpg"" style=""width:8cm; height:7.11cm;""><p>What type of rock is this?</p>","2","class_response","1","test","2","Diorite","Diorite","11","true","3","3","",""
"","","","","","","","","","","","html-keyboard-response","208","2.0.0","466854","66106cb0a3498a31bbf902c1","1","51","null","","","","","","","","","<p style='font-size: 30px;'><strong>Okay</strong></p>","null","neutral_feedback","1","test","2","","","","","","","",""
"","","","","","","","","","","","html-button-response","209","2.0.0","468054","66106cb0a3498a31bbf902c1","1","51","1199","","","","","","","","","<img src= ""rock_img/I_Pumice_08.jpg"" style=""width:8cm; height:6.67cm;""><p>What type of rock is this?</p>","7","class_response","1","test","3","Pumice","Pumice","08","true","8","8","",""
"","","","","","","","","","","","html-keyboard-response","210","2.0.0","468567","66106cb0a3498a31bbf902c1","1","51","null","","","","","","","","","<p style='font-size: 30px;'><strong>Okay</strong></p>","null","neutral_feedback","1","test","3","","","","","","","",""
"","","","","","","","","","","","html-button-response","211","2.0.0","469614","66106cb0a3498a31bbf902c1","1","51","1045","","","","","","","","","<img src= ""rock_img/I_Pumice_13.jpg"" style=""width:8cm; height:8.200000000000001cm;""><p>What type of rock is this?</p>","7","class_response","1","test","4","Pumice","Pumice","13","true","8","8","",""
"","","","","","","","","","","","html-keyboard-response","212","2.0.0","470128","66106cb0a3498a31bbf902c1","1","51","null","","","","","","","","","<p style='font-size: 30px;'><strong>Okay</strong></p>","null","neutral_feedback","1","test","4","","","","","","","",""
"","","","","","","","","","","","html-button-response","213","2.0.0","471582","66106cb0a3498a31bbf902c1","1","51","1453","","","","","","","","","<img src= ""rock_img/I_Gabbro_03.jpg"" style=""width:8cm; height:8.52cm;""><p>What type of rock is this?</p>","0","class_response","1","test","5","Andesite","Gabbro","03","false","1","4","",""
"","","","","","","","","","","","html-keyboard-response","214","2.0.0","472097","66106cb0a3498a31bbf902c1","1","51","null","","","","","","","","","<p style='font-size: 30px;'><strong>Okay</strong></p>","null","neutral_feedback","1","test","5","","","","","","","",""
"","","","","","","","","","","","html-button-response","215","2.0.0","474014","66106cb0a3498a31bbf902c1","1","51","1916","","","","","","","","","<img src= ""rock_img/I_Basalt_05.jpg"" style=""width:8cm; height:8.18cm;""><p>What type of rock is this?</p>","2","class_response","1","test","6","Diorite","Basalt","05","false","3","2","",""
"","","","","","","","","","","","html-keyboard-response","216","2.0.0","474519","66106cb0a3498a31bbf902c1","1","51","null","","","","","","","","","<p style='font-size: 30px;'><strong>Okay</strong></p>","null","neutral_feedback","1","test","6","","","","","","","",""
"","","","","","","","","","","","html-button-response","217","2.0.0","476598","66106cb0a3498a31bbf902c1","1","51","2078","","","","","","","","","<img src= ""rock_img/I_Pegmatite_09.jpg"" style=""width:8cm; height:4.03cm;""><p>What type of rock is this?</p>","4","class_response","1","test","7","Obsidian","Pegmatite","09","false","5","6","",""
"","","","","","","","","","","","html-keyboard-response","218","2.0.0","477106","66106cb0a3498a31bbf902c1","1","51","null","","","","","","","","","<p style='font-size: 30px;'><strong>Okay</strong></p>","null","neutral_feedback","1","test","7","","","","","","","",""
"","","","","","","","","","","","html-button-response","219","2.0.0","479954","66106cb0a3498a31bbf902c1","1","51","2847","","","","","","","","","<img src= ""rock_img/I_Obsidian_07.jpg"" style=""width:8cm; height:4.76cm;""><p>What type of rock is this?</p>","0","class_response","1","test","8","Andesite","Obsidian","07","false","1","5","",""
"","","","","","","","","","","","html-keyboard-response","220","2.0.0","480462","66106cb0a3498a31bbf902c1","1","51","null","","","","","","","","","<p style='font-size: 30px;'><strong>Okay</strong></p>","null","neutral_feedback","1","test","8","","","","","","","",""
"","","","","","","","","","","","html-button-response","221","2.0.0","482266","66106cb0a3498a31bbf902c1","1","51","1803","","","","","","","","","<img src= ""rock_img/I_Pegmatite_16.jpg"" style=""width:8cm; height:5.8cm;""><p>What type of rock is this?</p>","2","class_response","1","test","9","Diorite","Pegmatite","16","false","3","6","",""
"","","","","","","","","","","","html-keyboard-response","222","2.0.0","482776","66106cb0a3498a31bbf902c1","1","51","null","","","","","","","","","<p style='font-size: 30px;'><strong>Okay</strong></p>","null","neutral_feedback","1","test","9","","","","","","","",""
"","","","","","","","","","","","html-button-response","223","2.0.0","483870","66106cb0a3498a31bbf902c1","1","51","1093","","","","","","","","","<img src= ""rock_img/I_Andesite_04.jpg"" style=""width:8cm; height:5.96cm;""><p>What type of rock is this?</p>","5","class_response","1","test","10","Pegmatite","Andesite","04","false","6","1","",""
"","","","","","","","","","","","html-keyboard-response","224","2.0.0","484383","66106cb0a3498a31bbf902c1","1","51","null","","","","","","","","","<p style='font-size: 30px;'><strong>Okay</strong></p>","null","neutral_feedback","1","test","10","","","","","","","",""
"","","","","","","","","","","","html-button-response","225","2.0.0","485767","66106cb0a3498a31bbf902c1","1","51","1382","","","","","","","","","<img src= ""rock_img/I_Obsidian_05.jpg"" style=""width:8cm; height:6.33cm;""><p>What type of rock is this?</p>","0","class_response","1","test","11","Andesite","Obsidian","05","false","1","5","",""
"","","","","","","","","","","","html-keyboard-response","226","2.0.0","486276","66106cb0a3498a31bbf902c1","1","51","null","","","","","","","","","<p style='font-size: 30px;'><strong>Okay</strong></p>","null","neutral_feedback","1","test","11","","","","","","","",""
"","","","","","","","","","","","html-button-response","227","2.0.0","488518","66106cb0a3498a31bbf902c1","1","51","2241","","","","","","","","","<img src= ""rock_img/I_Basalt_16.jpg"" style=""width:8cm; height:7.659999999999999cm;""><p>What type of rock is this?</p>","1","class_response","1","test","12","Basalt","Basalt","16","true","2","2","",""
"","","","","","","","","","","","html-keyboard-response","228","2.0.0","489023","66106cb0a3498a31bbf902c1","1","51","null","","","","","","","","","<p style='font-size: 30px;'><strong>Okay</strong></p>","null","neutral_feedback","1","test","12","","","","","","","",""
"","","","","","","","","","","","html-button-response","229","2.0.0","490319","66106cb0a3498a31bbf902c1","1","51","1294","","","","","","","","","<img src= ""rock_img/I_Peridotite_02.jpg"" style=""width:8cm; height:5.859999999999999cm;""><p>What type of rock is this?</p>","3","class_response","1","test","13","Gabbro","Peridotite","02","false","4","7","",""
"","","","","","","","","","","","html-keyboard-response","230","2.0.0","490823","66106cb0a3498a31bbf902c1","1","51","null","","","","","","","","","<p style='font-size: 30px;'><strong>Okay</strong></p>","null","neutral_feedback","1","test","13","","","","","","","",""
"","","","","","","","","","","","html-button-response","231","2.0.0","492555","66106cb0a3498a31bbf902c1","1","51","1731","","","","","","","","","<img src= ""rock_img/I_Andesite_07.jpg"" style=""width:8cm; height:5.93cm;""><p>What type of rock is this?</p>","4","class_response","1","test","14","Obsidian","Andesite","07","false","5","1","",""
"","","","","","","","","","","","html-keyboard-response","232","2.0.0","493058","66106cb0a3498a31bbf902c1","1","51","null","","","","","","","","","<p style='font-size: 30px;'><strong>Okay</strong></p>","null","neutral_feedback","1","test","14","","","","","","","",""
"","","","","","","","","","","","html-button-response","233","2.0.0","494950","66106cb0a3498a31bbf902c1","1","51","1891","","","","","","","","","<img src= ""rock_img/I_Andesite_09.jpg"" style=""width:8cm; height:6cm;""><p>What type of rock is this?</p>","2","class_response","1","test","15","Diorite","Andesite","09","false","3","1","",""
"","","","","","","","","","","","html-keyboard-response","234","2.0.0","495452","66106cb0a3498a31bbf902c1","1","51","null","","","","","","","","","<p style='font-size: 30px;'><strong>Okay</strong></p>","null","neutral_feedback","1","test","15","","","","","","","",""
"","","","","","","","","","","","html-button-response","235","2.0.0","496839","66106cb0a3498a31bbf902c1","1","51","1386","","","","","","","","","<img src= ""rock_img/I_Basalt_08.jpg"" style=""width:8cm; height:10.44cm;""><p>What type of rock is this?</p>","1","class_response","1","test","16","Basalt","Basalt","08","true","2","2","",""
"","","","","","","","","","","","html-keyboard-response","236","2.0.0","497355","66106cb0a3498a31bbf902c1","1","51","null","","","","","","","","","<p style='font-size: 30px;'><strong>Okay</strong></p>","null","neutral_feedback","1","test","16","","","","","","","",""
"","","","","","","","","","","","html-button-response","237","2.0.0","499094","66106cb0a3498a31bbf902c1","1","51","1738","","","","","","","","","<img src= ""rock_img/I_Basalt_12.jpg"" style=""width:8cm; height:6.010000000000001cm;""><p>What type of rock is this?</p>","7","class_response","1","test","17","Pumice","Basalt","12","false","8","2","",""
"","","","","","","","","","","","html-keyboard-response","238","2.0.0","499609","66106cb0a3498a31bbf902c1","1","51","null","","","","","","","","","<p style='font-size: 30px;'><strong>Okay</strong></p>","null","neutral_feedback","1","test","17","","","","","","","",""
"","","","","","","","","","","","html-button-response","239","2.0.0","500870","66106cb0a3498a31bbf902c1","1","51","1261","","","","","","","","","<img src= ""rock_img/I_Peridotite_08.jpg"" style=""width:8cm; height:6.7cm;""><p>What type of rock is this?</p>","0","class_response","1","test","18","Andesite","Peridotite","08","false","1","7","",""
"","","","","","","","","","","","html-keyboard-response","240","2.0.0","501373","66106cb0a3498a31bbf902c1","1","51","null","","","","","","","","","<p style='font-size: 30px;'><strong>Okay</strong></p>","null","neutral_feedback","1","test","18","","","","","","","",""
"","","","","","","","","","","","html-button-response","241","2.0.0","503067","66106cb0a3498a31bbf902c1","1","51","1692","","","","","","","","","<img src= ""rock_img/I_Andesite_03.jpg"" style=""width:8cm; height:5.73cm;""><p>What type of rock is this?</p>","1","class_response","1","test","19","Basalt","Andesite","03","false","2","1","",""
"","","","","","","","","","","","html-keyboard-response","242","2.0.0","503579","66106cb0a3498a31bbf902c1","1","51","null","","","","","","","","","<p style='font-size: 30px;'><strong>Okay</strong></p>","null","neutral_feedback","1","test","19","","","","","","","",""
"","","","","","","","","","","","html-button-response","243","2.0.0","504998","66106cb0a3498a31bbf902c1","1","51","1419","","","","","","","","","<img src= ""rock_img/I_Obsidian_06.jpg"" style=""width:8cm; height:6.8cm;""><p>What type of rock is this?</p>","0","class_response","1","test","20","Andesite","Obsidian","06","false","1","5","",""
"","","","","","","","","","","","html-keyboard-response","244","2.0.0","505501","66106cb0a3498a31bbf902c1","1","51","null","","","","","","","","","<p style='font-size: 30px;'><strong>Okay</strong></p>","null","neutral_feedback","1","test","20","","","","","","","",""
"","","","","","","","","","","","html-button-response","245","2.0.0","507382","66106cb0a3498a31bbf902c1","1","51","1879","","","","","","","","","<img src= ""rock_img/I_Basalt_04.jpg"" style=""width:8cm; height:7.53cm;""><p>What type of rock is this?</p>","3","class_response","1","test","21","Gabbro","Basalt","04","false","4","2","",""
"","","","","","","","","","","","html-keyboard-response","246","2.0.0","507890","66106cb0a3498a31bbf902c1","1","51","null","","","","","","","","","<p style='font-size: 30px;'><strong>Okay</strong></p>","null","neutral_feedback","1","test","21","","","","","","","",""
"","","","","","","","","","","","html-button-response","247","2.0.0","508990","66106cb0a3498a31bbf902c1","1","51","1099","","","","","","","","","<img src= ""rock_img/I_Diorite_14.jpg"" style=""width:8cm; height:5.71cm;""><p>What type of rock is this?</p>","2","class_response","1","test","22","Diorite","Diorite","14","true","3","3","",""
"","","","","","","","","","","","html-keyboard-response","248","2.0.0","509498","66106cb0a3498a31bbf902c1","1","51","null","","","","","","","","","<p style='font-size: 30px;'><strong>Okay</strong></p>","null","neutral_feedback","1","test","22","","","","","","","",""
"","","","","","","","","","","","html-button-response","249","2.0.0","511426","66106cb0a3498a31bbf902c1","1","51","1927","","","","","","","","","<img src= ""rock_img/I_Peridotite_12.jpg"" style=""width:8cm; height:4.54cm;""><p>What type of rock is this?</p>","4","class_response","1","test","23","Obsidian","Peridotite","12","false","5","7","",""
"","","","","","","","","","","","html-keyboard-response","250","2.0.0","511936","66106cb0a3498a31bbf902c1","1","51","null","","","","","","","","","<p style='font-size: 30px;'><strong>Okay</strong></p>","null","neutral_feedback","1","test","23","","","","","","","",""
"","","","","","","","","","","","html-button-response","251","2.0.0","514362","66106cb0a3498a31bbf902c1","1","51","2425","","","","","","","","","<img src= ""rock_img/I_Obsidian_11.jpg"" style=""width:8cm; height:6.05cm;""><p>What type of rock is this?</p>","2","class_response","1","test","24","Diorite","Obsidian","11","false","3","5","",""
"","","","","","","","","","","","html-keyboard-response","252","2.0.0","514874","66106cb0a3498a31bbf902c1","1","51","null","","","","","","","","","<p style='font-size: 30px;'><strong>Okay</strong></p>","null","neutral_feedback","1","test","24","","","","","","","",""
"","","","","","","","","","","","html-button-response","253","2.0.0","516322","66106cb0a3498a31bbf902c1","1","51","1447","","","","","","","","","<img src= ""rock_img/I_Diorite_02.jpg"" style=""width:8cm; height:6.27cm;""><p>What type of rock is this?</p>","0","class_response","1","test","25","Andesite","Diorite","02","false","1","3","",""
"","","","","","","","","","","","html-keyboard-response","254","2.0.0","516837","66106cb0a3498a31bbf902c1","1","51","null","","","","","","","","","<p style='font-size: 30px;'><strong>Okay</strong></p>","null","neutral_feedback","1","test","25","","","","","","","",""
"","","","","","","","","","","","html-button-response","255","2.0.0","518238","66106cb0a3498a31bbf902c1","1","51","1400","","","","","","","","","<img src= ""rock_img/I_Diorite_13.jpg"" style=""width:8cm; height:6.29cm;""><p>What type of rock is this?</p>","7","class_response","1","test","26","Pumice","Diorite","13","false","8","3","",""
"","","","","","","","","","","","html-keyboard-response","256","2.0.0","518746","66106cb0a3498a31bbf902c1","1","51","null","","","","","","","","","<p style='font-size: 30px;'><strong>Okay</strong></p>","null","neutral_feedback","1","test","26","","","","","","","",""
"","","","","","","","","","","","html-button-response","257","2.0.0","519842","66106cb0a3498a31bbf902c1","1","51","1094","","","","","","","","","<img src= ""rock_img/I_Pumice_10.jpg"" style=""width:8cm; height:7.609999999999999cm;""><p>What type of rock is this?</p>","7","class_response","1","test","27","Pumice","Pumice","10","true","8","8","",""
"","","","","","","","","","","","html-keyboard-response","258","2.0.0","520354","66106cb0a3498a31bbf902c1","1","51","null","","","","","","","","","<p style='font-size: 30px;'><strong>Okay</strong></p>","null","neutral_feedback","1","test","27","","","","","","","",""
"","","","","","","","","","","","html-button-response","259","2.0.0","521798","66106cb0a3498a31bbf902c1","1","51","1443","","","","","","","","","<img src= ""rock_img/I_Peridotite_14.jpg"" style=""width:8cm; height:5.3cm;""><p>What type of rock is this?</p>","1","class_response","1","test","28","Basalt","Peridotite","14","false","2","7","",""
"","","","","","","","","","","","html-keyboard-response","260","2.0.0","522309","66106cb0a3498a31bbf902c1","1","51","null","","","","","","","","","<p style='font-size: 30px;'><strong>Okay</strong></p>","null","neutral_feedback","1","test","28","","","","","","","",""
"","","","","","","","","","","","html-button-response","261","2.0.0","524114","66106cb0a3498a31bbf902c1","1","51","1804","","","","","","","","","<img src= ""rock_img/I_Andesite_02.jpg"" style=""width:8cm; height:8.5cm;""><p>What type of rock is this?</p>","3","class_response","1","test","29","Gabbro","Andesite","02","false","4","1","",""
"","","","","","","","","","","","html-keyboard-response","262","2.0.0","524628","66106cb0a3498a31bbf902c1","1","51","null","","","","","","","","","<p style='font-size: 30px;'><strong>Okay</strong></p>","null","neutral_feedback","1","test","29","","","","","","","",""
"","","","","","","","","","","","html-button-response","263","2.0.0","526410","66106cb0a3498a31bbf902c1","1","51","1780","","","","","","","","","<img src= ""rock_img/I_Pegmatite_07.jpg"" style=""width:8cm; height:6.7cm;""><p>What type of rock is this?</p>","4","class_response","1","test","30","Obsidian","Pegmatite","07","false","5","6","",""
"","","","","","","","","","","","html-keyboard-response","264","2.0.0","526922","66106cb0a3498a31bbf902c1","1","51","null","","","","","","","","","<p style='font-size: 30px;'><strong>Okay</strong></p>","null","neutral_feedback","1","test","30","","","","","","","",""
"","","","","","","","","","","","html-button-response","265","2.0.0","528155","66106cb0a3498a31bbf902c1","1","51","1231","","","","","","","","","<img src= ""rock_img/I_Pumice_05.jpg"" style=""width:8cm; height:7.25cm;""><p>What type of rock is this?</p>","7","class_response","1","test","31","Pumice","Pumice","05","true","8","8","",""
"","","","","","","","","","","","html-keyboard-response","266","2.0.0","528656","66106cb0a3498a31bbf902c1","1","51","null","","","","","","","","","<p style='font-size: 30px;'><strong>Okay</strong></p>","null","neutral_feedback","1","test","31","","","","","","","",""
"","","","","","","","","","","","html-button-response","267","2.0.0","530334","66106cb0a3498a31bbf902c1","1","51","1676","","","","","","","","","<img src= ""rock_img/I_Gabbro_14.jpg"" style=""width:8cm; height:8.48cm;""><p>What type of rock is this?</p>","2","class_response","1","test","32","Diorite","Gabbro","14","false","3","4","",""
"","","","","","","","","","","","html-keyboard-response","268","2.0.0","530846","66106cb0a3498a31bbf902c1","1","51","null","","","","","","","","","<p style='font-size: 30px;'><strong>Okay</strong></p>","null","neutral_feedback","1","test","32","","","","","","","",""
"","","","","","","","","","","","html-button-response","269","2.0.0","532046","66106cb0a3498a31bbf902c1","1","51","1198","","","","","","","","","<img src= ""rock_img/I_Gabbro_09.jpg"" style=""width:8cm; height:7.279999999999999cm;""><p>What type of rock is this?</p>","0","class_response","1","test","33","Andesite","Gabbro","09","false","1","4","",""
"","","","","","","","","","","","html-keyboard-response","270","2.0.0","532556","66106cb0a3498a31bbf902c1","1","51","null","","","","","","","","","<p style='font-size: 30px;'><strong>Okay</strong></p>","null","neutral_feedback","1","test","33","","","","","","","",""
"","","","","","","","","","","","html-button-response","271","2.0.0","534371","66106cb0a3498a31bbf902c1","1","51","1814","","","","","","","","","<img src= ""rock_img/I_Diorite_12.jpg"" style=""width:8cm; height:4.88cm;""><p>What type of rock is this?</p>","5","class_response","1","test","34","Pegmatite","Diorite","12","false","6","3","",""
"","","","","","","","","","","","html-keyboard-response","272","2.0.0","534881","66106cb0a3498a31bbf902c1","1","51","null","","","","","","","","","<p style='font-size: 30px;'><strong>Okay</strong></p>","null","neutral_feedback","1","test","34","","","","","","","",""
"","","","","","","","","","","","html-button-response","273","2.0.0","536330","66106cb0a3498a31bbf902c1","1","51","1448","","","","","","","","","<img src= ""rock_img/I_Diorite_06.jpg"" style=""width:8cm; height:6.03cm;""><p>What type of rock is this?</p>","5","class_response","1","test","35","Pegmatite","Diorite","06","false","6","3","",""
"","","","","","","","","","","","html-keyboard-response","274","2.0.0","536831","66106cb0a3498a31bbf902c1","1","51","null","","","","","","","","","<p style='font-size: 30px;'><strong>Okay</strong></p>","null","neutral_feedback","1","test","35","","","","","","","",""
"","","","","","","","","","","","html-button-response","275","2.0.0","538015","66106cb0a3498a31bbf902c1","1","51","1183","","","","","","","","","<img src= ""rock_img/I_Pumice_16.jpg"" style=""width:8cm; height:6.79cm;""><p>What type of rock is this?</p>","7","class_response","1","test","36","Pumice","Pumice","16","true","8","8","",""
"","","","","","","","","","","","html-keyboard-response","276","2.0.0","538517","66106cb0a3498a31bbf902c1","1","51","null","","","","","","","","","<p style='font-size: 30px;'><strong>Okay</strong></p>","null","neutral_feedback","1","test","36","","","","","","","",""
"","","","","","","","","","","","html-button-response","277","2.0.0","540086","66106cb0a3498a31bbf902c1","1","51","1568","","","","","","","","","<img src= ""rock_img/I_Pegmatite_13.jpg"" style=""width:8cm; height:4.95cm;""><p>What type of rock is this?</p>","2","class_response","1","test","37","Diorite","Pegmatite","13","false","3","6","",""
"","","","","","","","","","","","html-keyboard-response","278","2.0.0","540597","66106cb0a3498a31bbf902c1","1","51","null","","","","","","","","","<p style='font-size: 30px;'><strong>Okay</strong></p>","null","neutral_feedback","1","test","37","","","","","","","",""
"","","","","","","","","","","","html-button-response","279","2.0.0","543039","66106cb0a3498a31bbf902c1","1","51","2440","","","","","","","","","<img src= ""rock_img/I_Gabbro_16.jpg"" style=""width:8cm; height:6.44cm;""><p>What type of rock is this?</p>","0","class_response","1","test","38","Andesite","Gabbro","16","false","1","4","",""
"","","","","","","","","","","","html-keyboard-response","280","2.0.0","543553","66106cb0a3498a31bbf902c1","1","51","null","","","","","","","","","<p style='font-size: 30px;'><strong>Okay</strong></p>","null","neutral_feedback","1","test","38","","","","","","","",""
"","","","","","","","","","","","html-button-response","281","2.0.0","544942","66106cb0a3498a31bbf902c1","1","51","1387","","","","","","","","","<img src= ""rock_img/I_Peridotite_04.jpg"" style=""width:8cm; height:6.680000000000001cm;""><p>What type of rock is this?</p>","1","class_response","1","test","39","Basalt","Peridotite","04","false","2","7","",""
"","","","","","","","","","","","html-keyboard-response","282","2.0.0","545458","66106cb0a3498a31bbf902c1","1","51","null","","","","","","","","","<p style='font-size: 30px;'><strong>Okay</strong></p>","null","neutral_feedback","1","test","39","","","","","","","",""
"","","","","","","","","","","","html-button-response","283","2.0.0","548306","66106cb0a3498a31bbf902c1","1","51","2847","","","","","","","","","<img src= ""rock_img/I_Obsidian_08.jpg"" style=""width:8cm; height:7.39cm;""><p>What type of rock is this?</p>","2","class_response","1","test","40","Diorite","Obsidian","08","false","3","5","",""
"","","","","","","","","","","","html-keyboard-response","284","2.0.0","548817","66106cb0a3498a31bbf902c1","1","51","null","","","","","","","","","<p style='font-size: 30px;'><strong>Okay</strong></p>","null","neutral_feedback","1","test","40","","","","","","","",""
"","","","","","","","","","","","html-button-response","285","2.0.0","550547","66106cb0a3498a31bbf902c1","1","51","1728","","","","","","","","","<img src= ""rock_img/I_Gabbro_11.jpg"" style=""width:8cm; height:6.2cm;""><p>What type of rock is this?</p>","0","class_response","1","test","41","Andesite","Gabbro","11","false","1","4","",""
"","","","","","","","","","","","html-keyboard-response","286","2.0.0","551048","66106cb0a3498a31bbf902c1","1","51","null","","","","","","","","","<p style='font-size: 30px;'><strong>Okay</strong></p>","null","neutral_feedback","1","test","41","","","","","","","",""
"","","","","","","","","","","","html-button-response","287","2.0.0","552578","66106cb0a3498a31bbf902c1","1","51","1528","","","","","","","","","<img src= ""rock_img/I_Pumice_06.jpg"" style=""width:8cm; height:6.9399999999999995cm;""><p>What type of rock is this?</p>","7","class_response","1","test","42","Pumice","Pumice","06","true","8","8","",""
"","","","","","","","","","","","html-keyboard-response","288","2.0.0","553092","66106cb0a3498a31bbf902c1","1","51","null","","","","","","","","","<p style='font-size: 30px;'><strong>Okay</strong></p>","null","neutral_feedback","1","test","42","","","","","","","",""
"","","","","","","","","","","","html-button-response","289","2.0.0","555698","66106cb0a3498a31bbf902c1","1","51","2605","","","","","","","","","<img src= ""rock_img/I_Peridotite_07.jpg"" style=""width:8cm; height:4.83cm;""><p>What type of rock is this?</p>","3","class_response","1","test","43","Gabbro","Peridotite","07","false","4","7","",""
"","","","","","","","","","","","html-keyboard-response","290","2.0.0","556200","66106cb0a3498a31bbf902c1","1","51","null","","","","","","","","","<p style='font-size: 30px;'><strong>Okay</strong></p>","null","neutral_feedback","1","test","43","","","","","","","",""
"","","","","","","","","","","","html-button-response","291","2.0.0","557514","66106cb0a3498a31bbf902c1","1","51","1313","","","","","","","","","<img src= ""rock_img/I_Obsidian_10.jpg"" style=""width:8cm; height:6.260000000000001cm;""><p>What type of rock is this?</p>","0","class_response","1","test","44","Andesite","Obsidian","10","false","1","5","",""
"","","","","","","","","","","","html-keyboard-response","292","2.0.0","558028","66106cb0a3498a31bbf902c1","1","51","null","","","","","","","","","<p style='font-size: 30px;'><strong>Okay</strong></p>","null","neutral_feedback","1","test","44","","","","","","","",""
"","","","","","","","","","","","html-button-response","293","2.0.0","559282","66106cb0a3498a31bbf902c1","1","51","1253","","","","","","","","","<img src= ""rock_img/I_Basalt_02.jpg"" style=""width:8cm; height:6.45cm;""><p>What type of rock is this?</p>","1","class_response","1","test","45","Basalt","Basalt","02","true","2","2","",""
"","","","","","","","","","","","html-keyboard-response","294","2.0.0","559791","66106cb0a3498a31bbf902c1","1","51","null","","","","","","","","","<p style='font-size: 30px;'><strong>Okay</strong></p>","null","neutral_feedback","1","test","45","","","","","","","",""
"","","","","","","","","","","","html-button-response","295","2.0.0","561486","66106cb0a3498a31bbf902c1","1","51","1693","","","","","","","","","<img src= ""rock_img/I_Andesite_01.jpg"" style=""width:8cm; height:5.87cm;""><p>What type of rock is this?</p>","2","class_response","1","test","46","Diorite","Andesite","01","false","3","1","",""
"","","","","","","","","","","","html-keyboard-response","296","2.0.0","561995","66106cb0a3498a31bbf902c1","1","51","null","","","","","","","","","<p style='font-size: 30px;'><strong>Okay</strong></p>","null","neutral_feedback","1","test","46","","","","","","","",""
"","","","","","","","","","","","html-button-response","297","2.0.0","563734","66106cb0a3498a31bbf902c1","1","51","1738","","","","","","","","","<img src= ""rock_img/I_Gabbro_05.jpg"" style=""width:8cm; height:6cm;""><p>What type of rock is this?</p>","2","class_response","1","test","47","Diorite","Gabbro","05","false","3","4","",""
"","","","","","","","","","","","html-keyboard-response","298","2.0.0","564246","66106cb0a3498a31bbf902c1","1","51","null","","","","","","","","","<p style='font-size: 30px;'><strong>Okay</strong></p>","null","neutral_feedback","1","test","47","","","","","","","",""
"","","","","","","","","","","","html-button-response","299","2.0.0","565622","66106cb0a3498a31bbf902c1","1","51","1374","","","","","","","","","<img src= ""rock_img/I_Pegmatite_12.jpg"" style=""width:8cm; height:5.7cm;""><p>What type of rock is this?</p>","4","class_response","1","test","48","Obsidian","Pegmatite","12","false","5","6","",""
"","","","","","","","","","","","html-keyboard-response","300","2.0.0","566138","66106cb0a3498a31bbf902c1","1","51","null","","","","","","","","","<p style='font-size: 30px;'><strong>Okay</strong></p>","null","neutral_feedback","1","test","48","","","","","","","",""
"","","","","","","","","","","","html-button-response","301","2.0.0","578074","66106cb0a3498a31bbf902c1","1","51","","","","","","","","","","","","cycle_feedback","","","","","","","","","","6375.399999999907","5555.600000000093"
"","","","","","","","","","","","html-button-response","303","2.0.0","580091","66106cb0a3498a31bbf902c1","1","51","2015","","","","","","","","","","0","start_train","","","","","","","","","","",""
"","","","","","","","","","","","html-button-response","304","2.0.0","581691","66106cb0a3498a31bbf902c1","1","51","1598","","","","","","","","","<img src= ""rock_img/I_Andesite_10.jpg"" style=""width:8cm; height:4.16cm;""><p>What type of rock is this?</p>","2","class_response","2","train","1","Diorite","Andesite","10","false","3","1","",""
