"width","height","webaudio","browser","browser_version","mobile","os","fullscreen","vsync_rate","webcam","microphone","trial_type","trial_index","plugin_version","time_elapsed","subjID","condition","stimID","rt","url","success","value","timeout","failed_images","failed_audio","failed_video","view_history","stimulus","response","trialType","cycle","phase","trial","resp","cat","token","corr","resp_num","cat_num","time_fb1","time_fb2"
"1600","765","true","chrome","131.0.0","false","Windows 10","true","60.42","true","true","browser-check","0","2.0.0","1012","66327a37b492ebe7bdaa5f69","1","20","","","","","","","","","","","","","","","","","","","","","","",""
"","","","","","","","","","","","external-html","1","2.0.0","11882","66327a37b492ebe7bdaa5f69","1","20","10767","consent_form.html","","","","","","","","","","","","","","","","","","","","",""
"","","","","","","","","","","","fullscreen","2","2.0.0","16128","66327a37b492ebe7bdaa5f69","1","20","3234","","true","","","","","","","","","","","","","","","","","","","",""
"","","","","","","","","","","","call-function","3","2.0.0","16131","66327a37b492ebe7bdaa5f69","1","20","","","","{}","","","","","","","","","","","","","","","","","","",""
"","","","","","","","","","","","preload","4","2.0.0","19124","66327a37b492ebe7bdaa5f69","1","20","","","true","","false","[]","[]","[]","","","","","","","","","","","","","","",""
"","","","","","","","","","","","instructions","5","2.0.0","192988","66327a37b492ebe7bdaa5f69","1","20","173862","","","","","","","","[{""page_index"":0,""viewing_time"":8559},{""page_index"":1,""viewing_time"":21421},{""page_index"":2,""viewing_time"":143882}]","","","","","","","","","","","","","",""
"","","","","","","","","","","","html-button-response","6","2.0.0","196934","66327a37b492ebe7bdaa5f69","1","20","3943","","","","","","","","","","0","start_test","","","","","","","","","","",""
"","","","","","","","","","","","html-button-response","7","2.0.0","209339","66327a37b492ebe7bdaa5f69","1","20","12403","","","","","","","","","<img src= ""rock_img/I_Peridotite_13.jpg"" style=""width:8cm; height:7.58cm;""><p>What type of rock is this?</p>","1","class_response","0","test","1","Basalt","Peridotite","13","false","2","7","",""
"","","","","","","","","","","","html-keyboard-response","8","2.0.0","209852","66327a37b492ebe7bdaa5f69","1","20","null","","","","","","","","","<p style='font-size: 30px;'><strong>Okay</strong></p>","null","neutral_feedback","0","test","1","","","","","","","",""
"","","","","","","","","","","","html-button-response","9","2.0.0","225341","66327a37b492ebe7bdaa5f69","1","20","15487","","","","","","","","","<img src= ""rock_img/I_Andesite_03.jpg"" style=""width:8cm; height:5.73cm;""><p>What type of rock is this?</p>","5","class_response","0","test","2","Pegmatite","Andesite","03","false","6","1","",""
"","","","","","","","","","","","html-keyboard-response","10","2.0.0","225852","66327a37b492ebe7bdaa5f69","1","20","null","","","","","","","","","<p style='font-size: 30px;'><strong>Okay</strong></p>","null","neutral_feedback","0","test","2","","","","","","","",""
"","","","","","","","","","","","html-button-response","11","2.0.0","249190","66327a37b492ebe7bdaa5f69","1","20","23336","","","","","","","","","<img src= ""rock_img/I_Pumice_16.jpg"" style=""width:8cm; height:6.79cm;""><p>What type of rock is this?</p>","7","class_response","0","test","3","Pumice","Pumice","16","true","8","8","",""
"","","","","","","","","","","","html-keyboard-response","12","2.0.0","249701","66327a37b492ebe7bdaa5f69","1","20","null","","","","","","","","","<p style='font-size: 30px;'><strong>Okay</strong></p>","null","neutral_feedback","0","test","3","","","","","","","",""
"","","","","","","","","","","","html-button-response","13","2.0.0","262495","66327a37b492ebe7bdaa5f69","1","20","12792","","","","","","","","","<img src= ""rock_img/I_Obsidian_10.jpg"" style=""width:8cm; height:6.260000000000001cm;""><p>What type of rock is this?</p>","4","class_response","0","test","4","Obsidian","Obsidian","10","true","5","5","",""
"","","","","","","","","","","","html-keyboard-response","14","2.0.0","263007","66327a37b492ebe7bdaa5f69","1","20","null","","","","","","","","","<p style='font-size: 30px;'><strong>Okay</strong></p>","null","neutral_feedback","0","test","4","","","","","","","",""
"","","","","","","","","","","","html-button-response","15","2.0.0","266553","66327a37b492ebe7bdaa5f69","1","20","3544","","","","","","","","","<img src= ""rock_img/I_Peridotite_14.jpg"" style=""width:8cm; height:5.3cm;""><p>What type of rock is this?</p>","0","class_response","0","test","5","Andesite","Peridotite","14","false","1","7","",""
"","","","","","","","","","","","html-keyboard-response","16","2.0.0","267066","66327a37b492ebe7bdaa5f69","1","20","null","","","","","","","","","<p style='font-size: 30px;'><strong>Okay</strong></p>","null","neutral_feedback","0","test","5","","","","","","","",""
"","","","","","","","","","","","html-button-response","17","2.0.0","274974","66327a37b492ebe7bdaa5f69","1","20","7906","","","","","","","","","<img src= ""rock_img/I_Peridotite_15.jpg"" style=""width:8cm; height:6cm;""><p>What type of rock is this?</p>","6","class_response","0","test","6","Peridotite","Peridotite","15","true","7","7","",""
"","","","","","","","","","","","html-keyboard-response","18","2.0.0","275482","66327a37b492ebe7bdaa5f69","1","20","null","","","","","","","","","<p style='font-size: 30px;'><strong>Okay</strong></p>","null","neutral_feedback","0","test","6","","","","","","","",""
"","","","","","","","","","","","html-button-response","19","2.0.0","278269","66327a37b492ebe7bdaa5f69","1","20","2784","","","","","","","","","<img src= ""rock_img/I_Diorite_11.jpg"" style=""width:8cm; height:7.11cm;""><p>What type of rock is this?</p>","3","class_response","0","test","7","Gabbro","Diorite","11","false","4","3","",""
"","","","","","","","","","","","html-keyboard-response","20","2.0.0","278781","66327a37b492ebe7bdaa5f69","1","20","null","","","","","","","","","<p style='font-size: 30px;'><strong>Okay</strong></p>","null","neutral_feedback","0","test","7","","","","","","","",""
"","","","","","","","","","","","html-button-response","21","2.0.0","280692","66327a37b492ebe7bdaa5f69","1","20","1910","","","","","","","","","<img src= ""rock_img/I_Pumice_14.jpg"" style=""width:8cm; height:6.39cm;""><p>What type of rock is this?</p>","7","class_response","0","test","8","Pumice","Pumice","14","true","8","8","",""
"","","","","","","","","","","","html-keyboard-response","22","2.0.0","281204","66327a37b492ebe7bdaa5f69","1","20","null","","","","","","","","","<p style='font-size: 30px;'><strong>Okay</strong></p>","null","neutral_feedback","0","test","8","","","","","","","",""
"","","","","","","","","","","","html-button-response","23","2.0.0","287665","66327a37b492ebe7bdaa5f69","1","20","6460","","","","","","","","","<img src= ""rock_img/I_Peridotite_07.jpg"" style=""width:8cm; height:4.83cm;""><p>What type of rock is this?</p>","3","class_response","0","test","9","Gabbro","Peridotite","07","false","4","7","",""
"","","","","","","","","","","","html-keyboard-response","24","2.0.0","288176","66327a37b492ebe7bdaa5f69","1","20","null","","","","","","","","","<p style='font-size: 30px;'><strong>Okay</strong></p>","null","neutral_feedback","0","test","9","","","","","","","",""
"","","","","","","","","","","","html-button-response","25","2.0.0","292884","66327a37b492ebe7bdaa5f69","1","20","4706","","","","","","","","","<img src= ""rock_img/I_Obsidian_11.jpg"" style=""width:8cm; height:6.05cm;""><p>What type of rock is this?</p>","4","class_response","0","test","10","Obsidian","Obsidian","11","true","5","5","",""
"","","","","","","","","","","","html-keyboard-response","26","2.0.0","293397","66327a37b492ebe7bdaa5f69","1","20","null","","","","","","","","","<p style='font-size: 30px;'><strong>Okay</strong></p>","null","neutral_feedback","0","test","10","","","","","","","",""
"","","","","","","","","","","","html-button-response","27","2.0.0","296822","66327a37b492ebe7bdaa5f69","1","20","3423","","","","","","","","","<img src= ""rock_img/I_Basalt_06.jpg"" style=""width:8cm; height:7.06cm;""><p>What type of rock is this?</p>","1","class_response","0","test","11","Basalt","Basalt","06","true","2","2","",""
"","","","","","","","","","","","html-keyboard-response","28","2.0.0","297331","66327a37b492ebe7bdaa5f69","1","20","null","","","","","","","","","<p style='font-size: 30px;'><strong>Okay</strong></p>","null","neutral_feedback","0","test","11","","","","","","","",""
"","","","","","","","","","","","html-button-response","29","2.0.0","301939","66327a37b492ebe7bdaa5f69","1","20","4605","","","","","","","","","<img src= ""rock_img/I_Pegmatite_08.jpg"" style=""width:8cm; height:7.68cm;""><p>What type of rock is this?</p>","6","class_response","0","test","12","Peridotite","Pegmatite","08","false","7","6","",""
"","","","","","","","","","","","html-keyboard-response","30","2.0.0","302453","66327a37b492ebe7bdaa5f69","1","20","null","","","","","","","","","<p style='font-size: 30px;'><strong>Okay</strong></p>","null","neutral_feedback","0","test","12","","","","","","","",""
"","","","","","","","","","","","html-button-response","31","2.0.0","305084","66327a37b492ebe7bdaa5f69","1","20","2629","","","","","","","","","<img src= ""rock_img/I_Basalt_10.jpg"" style=""width:8cm; height:5.85cm;""><p>What type of rock is this?</p>","0","class_response","0","test","13","Andesite","Basalt","10","false","1","2","",""
"","","","","","","","","","","","html-keyboard-response","32","2.0.0","305596","66327a37b492ebe7bdaa5f69","1","20","null","","","","","","","","","<p style='font-size: 30px;'><strong>Okay</strong></p>","null","neutral_feedback","0","test","13","","","","","","","",""
"","","","","","","","","","","","html-button-response","33","2.0.0","358335","66327a37b492ebe7bdaa5f69","1","20","52737","","","","","","","","","<img src= ""rock_img/I_Diorite_14.jpg"" style=""width:8cm; height:5.71cm;""><p>What type of rock is this?</p>","4","class_response","0","test","14","Obsidian","Diorite","14","false","5","3","",""
"","","","","","","","","","","","html-keyboard-response","34","2.0.0","358846","66327a37b492ebe7bdaa5f69","1","20","null","","","","","","","","","<p style='font-size: 30px;'><strong>Okay</strong></p>","null","neutral_feedback","0","test","14","","","","","","","",""
"","","","","","","","","","","","html-button-response","35","2.0.0","361519","66327a37b492ebe7bdaa5f69","1","20","2671","","","","","","","","","<img src= ""rock_img/I_Pumice_13.jpg"" style=""width:8cm; height:8.200000000000001cm;""><p>What type of rock is this?</p>","7","class_response","0","test","15","Pumice","Pumice","13","true","8","8","",""
"","","","","","","","","","","","html-keyboard-response","36","2.0.0","362031","66327a37b492ebe7bdaa5f69","1","20","null","","","","","","","","","<p style='font-size: 30px;'><strong>Okay</strong></p>","null","neutral_feedback","0","test","15","","","","","","","",""
"","","","","","","","","","","","html-button-response","37","2.0.0","368028","66327a37b492ebe7bdaa5f69","1","20","5995","","","","","","","","","<img src= ""rock_img/I_Basalt_14.jpg"" style=""width:8cm; height:5.82cm;""><p>What type of rock is this?</p>","3","class_response","0","test","16","Gabbro","Basalt","14","false","4","2","",""
"","","","","","","","","","","","html-keyboard-response","38","2.0.0","368540","66327a37b492ebe7bdaa5f69","1","20","null","","","","","","","","","<p style='font-size: 30px;'><strong>Okay</strong></p>","null","neutral_feedback","0","test","16","","","","","","","",""
"","","","","","","","","","","","html-button-response","39","2.0.0","373024","66327a37b492ebe7bdaa5f69","1","20","4482","","","","","","","","","<img src= ""rock_img/I_Pumice_08.jpg"" style=""width:8cm; height:6.67cm;""><p>What type of rock is this?</p>","1","class_response","0","test","17","Basalt","Pumice","08","false","2","8","",""
"","","","","","","","","","","","html-keyboard-response","40","2.0.0","373535","66327a37b492ebe7bdaa5f69","1","20","null","","","","","","","","","<p style='font-size: 30px;'><strong>Okay</strong></p>","null","neutral_feedback","0","test","17","","","","","","","",""
"","","","","","","","","","","","html-button-response","41","2.0.0","375659","66327a37b492ebe7bdaa5f69","1","20","2122","","","","","","","","","<img src= ""rock_img/I_Basalt_02.jpg"" style=""width:8cm; height:6.45cm;""><p>What type of rock is this?</p>","2","class_response","0","test","18","Diorite","Basalt","02","false","3","2","",""
"","","","","","","","","","","","html-keyboard-response","42","2.0.0","376170","66327a37b492ebe7bdaa5f69","1","20","null","","","","","","","","","<p style='font-size: 30px;'><strong>Okay</strong></p>","null","neutral_feedback","0","test","18","","","","","","","",""
"","","","","","","","","","","","html-button-response","43","2.0.0","378727","66327a37b492ebe7bdaa5f69","1","20","2555","","","","","","","","","<img src= ""rock_img/I_Gabbro_14.jpg"" style=""width:8cm; height:8.48cm;""><p>What type of rock is this?</p>","5","class_response","0","test","19","Pegmatite","Gabbro","14","false","6","4","",""
"","","","","","","","","","","","html-keyboard-response","44","2.0.0","379240","66327a37b492ebe7bdaa5f69","1","20","null","","","","","","","","","<p style='font-size: 30px;'><strong>Okay</strong></p>","null","neutral_feedback","0","test","19","","","","","","","",""
"","","","","","","","","","","","html-button-response","45","2.0.0","381256","66327a37b492ebe7bdaa5f69","1","20","2013","","","","","","","","","<img src= ""rock_img/I_Obsidian_16.jpg"" style=""width:8cm; height:9.3cm;""><p>What type of rock is this?</p>","4","class_response","0","test","20","Obsidian","Obsidian","16","true","5","5","",""
"","","","","","","","","","","","html-keyboard-response","46","2.0.0","381767","66327a37b492ebe7bdaa5f69","1","20","null","","","","","","","","","<p style='font-size: 30px;'><strong>Okay</strong></p>","null","neutral_feedback","0","test","20","","","","","","","",""
"","","","","","","","","","","","html-button-response","47","2.0.0","384582","66327a37b492ebe7bdaa5f69","1","20","2814","","","","","","","","","<img src= ""rock_img/I_Obsidian_02.jpg"" style=""width:8cm; height:7.51cm;""><p>What type of rock is this?</p>","2","class_response","0","test","21","Diorite","Obsidian","02","false","3","5","",""
"","","","","","","","","","","","html-keyboard-response","48","2.0.0","385089","66327a37b492ebe7bdaa5f69","1","20","null","","","","","","","","","<p style='font-size: 30px;'><strong>Okay</strong></p>","null","neutral_feedback","0","test","21","","","","","","","",""
"","","","","","","","","","","","html-button-response","49","2.0.0","387423","66327a37b492ebe7bdaa5f69","1","20","2332","","","","","","","","","<img src= ""rock_img/I_Gabbro_12.jpg"" style=""width:8cm; height:7.800000000000001cm;""><p>What type of rock is this?</p>","1","class_response","0","test","22","Basalt","Gabbro","12","false","2","4","",""
"","","","","","","","","","","","html-keyboard-response","50","2.0.0","387935","66327a37b492ebe7bdaa5f69","1","20","null","","","","","","","","","<p style='font-size: 30px;'><strong>Okay</strong></p>","null","neutral_feedback","0","test","22","","","","","","","",""
"","","","","","","","","","","","html-button-response","51","2.0.0","390714","66327a37b492ebe7bdaa5f69","1","20","2778","","","","","","","","","<img src= ""rock_img/I_Pegmatite_13.jpg"" style=""width:8cm; height:4.95cm;""><p>What type of rock is this?</p>","6","class_response","0","test","23","Peridotite","Pegmatite","13","false","7","6","",""
"","","","","","","","","","","","html-keyboard-response","52","2.0.0","391225","66327a37b492ebe7bdaa5f69","1","20","null","","","","","","","","","<p style='font-size: 30px;'><strong>Okay</strong></p>","null","neutral_feedback","0","test","23","","","","","","","",""
"","","","","","","","","","","","html-button-response","53","2.0.0","396137","66327a37b492ebe7bdaa5f69","1","20","4910","","","","","","","","","<img src= ""rock_img/I_Basalt_08.jpg"" style=""width:8cm; height:10.44cm;""><p>What type of rock is this?</p>","1","class_response","0","test","24","Basalt","Basalt","08","true","2","2","",""
"","","","","","","","","","","","html-keyboard-response","54","2.0.0","396651","66327a37b492ebe7bdaa5f69","1","20","null","","","","","","","","","<p style='font-size: 30px;'><strong>Okay</strong></p>","null","neutral_feedback","0","test","24","","","","","","","",""
"","","","","","","","","","","","html-button-response","55","2.0.0","399681","66327a37b492ebe7bdaa5f69","1","20","3029","","","","","","","","","<img src= ""rock_img/I_Pegmatite_07.jpg"" style=""width:8cm; height:6.7cm;""><p>What type of rock is this?</p>","6","class_response","0","test","25","Peridotite","Pegmatite","07","false","7","6","",""
"","","","","","","","","","","","html-keyboard-response","56","2.0.0","400193","66327a37b492ebe7bdaa5f69","1","20","null","","","","","","","","","<p style='font-size: 30px;'><strong>Okay</strong></p>","null","neutral_feedback","0","test","25","","","","","","","",""
"","","","","","","","","","","","html-button-response","57","2.0.0","402078","66327a37b492ebe7bdaa5f69","1","20","1882","","","","","","","","","<img src= ""rock_img/I_Obsidian_12.jpg"" style=""width:8cm; height:6.53cm;""><p>What type of rock is this?</p>","2","class_response","0","test","26","Diorite","Obsidian","12","false","3","5","",""
"","","","","","","","","","","","html-keyboard-response","58","2.0.0","402589","66327a37b492ebe7bdaa5f69","1","20","null","","","","","","","","","<p style='font-size: 30px;'><strong>Okay</strong></p>","null","neutral_feedback","0","test","26","","","","","","","",""
"","","","","","","","","","","","html-button-response","59","2.0.0","407416","66327a37b492ebe7bdaa5f69","1","20","4826","","","","","","","","","<img src= ""rock_img/I_Gabbro_09.jpg"" style=""width:8cm; height:7.279999999999999cm;""><p>What type of rock is this?</p>","5","class_response","0","test","27","Pegmatite","Gabbro","09","false","6","4","",""
"","","","","","","","","","","","html-keyboard-response","60","2.0.0","407918","66327a37b492ebe7bdaa5f69","1","20","null","","","","","","","","","<p style='font-size: 30px;'><strong>Okay</strong></p>","null","neutral_feedback","0","test","27","","","","","","","",""
"","","","","","","","","","","","html-button-response","61","2.0.0","410167","66327a37b492ebe7bdaa5f69","1","20","2247","","","","","","","","","<img src= ""rock_img/I_Pegmatite_15.jpg"" style=""width:8cm; height:6cm;""><p>What type of rock is this?</p>","6","class_response","0","test","28","Peridotite","Pegmatite","15","false","7","6","",""
"","","","","","","","","","","","html-keyboard-response","62","2.0.0","410680","66327a37b492ebe7bdaa5f69","1","20","null","","","","","","","","","<p style='font-size: 30px;'><strong>Okay</strong></p>","null","neutral_feedback","0","test","28","","","","","","","",""
"","","","","","","","","","","","html-button-response","63","2.0.0","416232","66327a37b492ebe7bdaa5f69","1","20","5550","","","","","","","","","<img src= ""rock_img/I_Andesite_06.jpg"" style=""width:8cm; height:6.840000000000001cm;""><p>What type of rock is this?</p>","1","class_response","0","test","29","Basalt","Andesite","06","false","2","1","",""
"","","","","","","","","","","","html-keyboard-response","64","2.0.0","416746","66327a37b492ebe7bdaa5f69","1","20","null","","","","","","","","","<p style='font-size: 30px;'><strong>Okay</strong></p>","null","neutral_feedback","0","test","29","","","","","","","",""
"","","","","","","","","","","","html-button-response","65","2.0.0","420075","66327a37b492ebe7bdaa5f69","1","20","3326","","","","","","","","","<img src= ""rock_img/I_Pegmatite_11.jpg"" style=""width:8cm; height:8.14cm;""><p>What type of rock is this?</p>","6","class_response","0","test","30","Peridotite","Pegmatite","11","false","7","6","",""
"","","","","","","","","","","","html-keyboard-response","66","2.0.0","420588","66327a37b492ebe7bdaa5f69","1","20","null","","","","","","","","","<p style='font-size: 30px;'><strong>Okay</strong></p>","null","neutral_feedback","0","test","30","","","","","","","",""
"","","","","","","","","","","","html-button-response","67","2.0.0","422345","66327a37b492ebe7bdaa5f69","1","20","1755","","","","","","","","","<img src= ""rock_img/I_Obsidian_08.jpg"" style=""width:8cm; height:7.39cm;""><p>What type of rock is this?</p>","2","class_response","0","test","31","Diorite","Obsidian","08","false","3","5","",""
"","","","","","","","","","","","html-keyboard-response","68","2.0.0","422856","66327a37b492ebe7bdaa5f69","1","20","null","","","","","","","","","<p style='font-size: 30px;'><strong>Okay</strong></p>","null","neutral_feedback","0","test","31","","","","","","","",""
"","","","","","","","","","","","html-button-response","69","2.0.0","425405","66327a37b492ebe7bdaa5f69","1","20","2547","","","","","","","","","<img src= ""rock_img/I_Gabbro_13.jpg"" style=""width:8cm; height:5.08cm;""><p>What type of rock is this?</p>","3","class_response","0","test","32","Gabbro","Gabbro","13","true","4","4","",""
"","","","","","","","","","","","html-keyboard-response","70","2.0.0","425918","66327a37b492ebe7bdaa5f69","1","20","null","","","","","","","","","<p style='font-size: 30px;'><strong>Okay</strong></p>","null","neutral_feedback","0","test","32","","","","","","","",""
"","","","","","","","","","","","html-button-response","71","2.0.0","433998","66327a37b492ebe7bdaa5f69","1","20","8078","","","","","","","","","<img src= ""rock_img/I_Peridotite_16.jpg"" style=""width:8cm; height:6.989999999999999cm;""><p>What type of rock is this?</p>","4","class_response","0","test","33","Obsidian","Peridotite","16","false","5","7","",""
"","","","","","","","","","","","html-keyboard-response","72","2.0.0","434511","66327a37b492ebe7bdaa5f69","1","20","null","","","","","","","","","<p style='font-size: 30px;'><strong>Okay</strong></p>","null","neutral_feedback","0","test","33","","","","","","","",""
"","","","","","","","","","","","html-button-response","73","2.0.0","437430","66327a37b492ebe7bdaa5f69","1","20","2917","","","","","","","","","<img src= ""rock_img/I_Diorite_06.jpg"" style=""width:8cm; height:6.03cm;""><p>What type of rock is this?</p>","4","class_response","0","test","34","Obsidian","Diorite","06","false","5","3","",""
"","","","","","","","","","","","html-keyboard-response","74","2.0.0","437942","66327a37b492ebe7bdaa5f69","1","20","null","","","","","","","","","<p style='font-size: 30px;'><strong>Okay</strong></p>","null","neutral_feedback","0","test","34","","","","","","","",""
"","","","","","","","","","","","html-button-response","75","2.0.0","440148","66327a37b492ebe7bdaa5f69","1","20","2204","","","","","","","","","<img src= ""rock_img/I_Pegmatite_09.jpg"" style=""width:8cm; height:4.03cm;""><p>What type of rock is this?</p>","6","class_response","0","test","35","Peridotite","Pegmatite","09","false","7","6","",""
"","","","","","","","","","","","html-keyboard-response","76","2.0.0","440660","66327a37b492ebe7bdaa5f69","1","20","null","","","","","","","","","<p style='font-size: 30px;'><strong>Okay</strong></p>","null","neutral_feedback","0","test","35","","","","","","","",""
"","","","","","","","","","","","html-button-response","77","2.0.0","442918","66327a37b492ebe7bdaa5f69","1","20","2256","","","","","","","","","<img src= ""rock_img/I_Peridotite_12.jpg"" style=""width:8cm; height:4.54cm;""><p>What type of rock is this?</p>","6","class_response","0","test","36","Peridotite","Peridotite","12","true","7","7","",""
"","","","","","","","","","","","html-keyboard-response","78","2.0.0","443431","66327a37b492ebe7bdaa5f69","1","20","null","","","","","","","","","<p style='font-size: 30px;'><strong>Okay</strong></p>","null","neutral_feedback","0","test","36","","","","","","","",""
"","","","","","","","","","","","html-button-response","79","2.0.0","445113","66327a37b492ebe7bdaa5f69","1","20","1679","","","","","","","","","<img src= ""rock_img/I_Diorite_02.jpg"" style=""width:8cm; height:6.27cm;""><p>What type of rock is this?</p>","6","class_response","0","test","37","Peridotite","Diorite","02","false","7","3","",""
"","","","","","","","","","","","html-keyboard-response","80","2.0.0","445623","66327a37b492ebe7bdaa5f69","1","20","null","","","","","","","","","<p style='font-size: 30px;'><strong>Okay</strong></p>","null","neutral_feedback","0","test","37","","","","","","","",""
"","","","","","","","","","","","html-button-response","81","2.0.0","448320","66327a37b492ebe7bdaa5f69","1","20","2695","","","","","","","","","<img src= ""rock_img/I_Basalt_05.jpg"" style=""width:8cm; height:8.18cm;""><p>What type of rock is this?</p>","1","class_response","0","test","38","Basalt","Basalt","05","true","2","2","",""
"","","","","","","","","","","","html-keyboard-response","82","2.0.0","448833","66327a37b492ebe7bdaa5f69","1","20","null","","","","","","","","","<p style='font-size: 30px;'><strong>Okay</strong></p>","null","neutral_feedback","0","test","38","","","","","","","",""
"","","","","","","","","","","","html-button-response","83","2.0.0","450825","66327a37b492ebe7bdaa5f69","1","20","1990","","","","","","","","","<img src= ""rock_img/I_Pumice_06.jpg"" style=""width:8cm; height:6.9399999999999995cm;""><p>What type of rock is this?</p>","1","class_response","0","test","39","Basalt","Pumice","06","false","2","8","",""
"","","","","","","","","","","","html-keyboard-response","84","2.0.0","451339","66327a37b492ebe7bdaa5f69","1","20","null","","","","","","","","","<p style='font-size: 30px;'><strong>Okay</strong></p>","null","neutral_feedback","0","test","39","","","","","","","",""
"","","","","","","","","","","","html-button-response","85","2.0.0","467647","66327a37b492ebe7bdaa5f69","1","20","16306","","","","","","","","","<img src= ""rock_img/I_Gabbro_16.jpg"" style=""width:8cm; height:6.44cm;""><p>What type of rock is this?</p>","4","class_response","0","test","40","Obsidian","Gabbro","16","false","5","4","",""
"","","","","","","","","","","","html-keyboard-response","86","2.0.0","468158","66327a37b492ebe7bdaa5f69","1","20","null","","","","","","","","","<p style='font-size: 30px;'><strong>Okay</strong></p>","null","neutral_feedback","0","test","40","","","","","","","",""
"","","","","","","","","","","","html-button-response","87","2.0.0","471524","66327a37b492ebe7bdaa5f69","1","20","3365","","","","","","","","","<img src= ""rock_img/I_Andesite_09.jpg"" style=""width:8cm; height:6cm;""><p>What type of rock is this?</p>","0","class_response","0","test","41","Andesite","Andesite","09","true","1","1","",""
"","","","","","","","","","","","html-keyboard-response","88","2.0.0","472036","66327a37b492ebe7bdaa5f69","1","20","null","","","","","","","","","<p style='font-size: 30px;'><strong>Okay</strong></p>","null","neutral_feedback","0","test","41","","","","","","","",""
"","","","","","","","","","","","html-button-response","89","2.0.0","473773","66327a37b492ebe7bdaa5f69","1","20","1735","","","","","","","","","<img src= ""rock_img/I_Andesite_16.jpg"" style=""width:8cm; height:6.010000000000001cm;""><p>What type of rock is this?</p>","6","class_response","0","test","42","Peridotite","Andesite","16","false","7","1","",""
"","","","","","","","","","","","html-keyboard-response","90","2.0.0","474285","66327a37b492ebe7bdaa5f69","1","20","null","","","","","","","","","<p style='font-size: 30px;'><strong>Okay</strong></p>","null","neutral_feedback","0","test","42","","","","","","","",""
"","","","","","","","","","","","html-button-response","91","2.0.0","475729","66327a37b492ebe7bdaa5f69","1","20","1443","","","","","","","","","<img src= ""rock_img/I_Diorite_12.jpg"" style=""width:8cm; height:4.88cm;""><p>What type of rock is this?</p>","6","class_response","0","test","43","Peridotite","Diorite","12","false","7","3","",""
"","","","","","","","","","","","html-keyboard-response","92","2.0.0","476243","66327a37b492ebe7bdaa5f69","1","20","null","","","","","","","","","<p style='font-size: 30px;'><strong>Okay</strong></p>","null","neutral_feedback","0","test","43","","","","","","","",""
"","","","","","","","","","","","html-button-response","93","2.0.0","480594","66327a37b492ebe7bdaa5f69","1","20","4349","","","","","","","","","<img src= ""rock_img/I_Andesite_11.jpg"" style=""width:8cm; height:4.92cm;""><p>What type of rock is this?</p>","1","class_response","0","test","44","Basalt","Andesite","11","false","2","1","",""
"","","","","","","","","","","","html-keyboard-response","94","2.0.0","481108","66327a37b492ebe7bdaa5f69","1","20","null","","","","","","","","","<p style='font-size: 30px;'><strong>Okay</strong></p>","null","neutral_feedback","0","test","44","","","","","","","",""
"","","","","","","","","","","","html-button-response","95","2.0.0","483097","66327a37b492ebe7bdaa5f69","1","20","1987","","","","","","","","","<img src= ""rock_img/I_Gabbro_08.jpg"" style=""width:8cm; height:5.15cm;""><p>What type of rock is this?</p>","3","class_response","0","test","45","Gabbro","Gabbro","08","true","4","4","",""
"","","","","","","","","","","","html-keyboard-response","96","2.0.0","483607","66327a37b492ebe7bdaa5f69","1","20","null","","","","","","","","","<p style='font-size: 30px;'><strong>Okay</strong></p>","null","neutral_feedback","0","test","45","","","","","","","",""
"","","","","","","","","","","","html-button-response","97","2.0.0","485367","66327a37b492ebe7bdaa5f69","1","20","1758","","","","","","","","","<img src= ""rock_img/I_Diorite_07.jpg"" style=""width:8cm; height:5.239999999999999cm;""><p>What type of rock is this?</p>","6","class_response","0","test","46","Peridotite","Diorite","07","false","7","3","",""
"","","","","","","","","","","","html-keyboard-response","98","2.0.0","485879","66327a37b492ebe7bdaa5f69","1","20","null","","","","","","","","","<p style='font-size: 30px;'><strong>Okay</strong></p>","null","neutral_feedback","0","test","46","","","","","","","",""
"","","","","","","","","","","","html-button-response","99","2.0.0","488830","66327a37b492ebe7bdaa5f69","1","20","2949","","","","","","","","","<img src= ""rock_img/I_Andesite_14.jpg"" style=""width:8cm; height:5.449999999999999cm;""><p>What type of rock is this?</p>","6","class_response","0","test","47","Peridotite","Andesite","14","false","7","1","",""
"","","","","","","","","","","","html-keyboard-response","100","2.0.0","489343","66327a37b492ebe7bdaa5f69","1","20","null","","","","","","","","","<p style='font-size: 30px;'><strong>Okay</strong></p>","null","neutral_feedback","0","test","47","","","","","","","",""
"","","","","","","","","","","","html-button-response","101","2.0.0","491648","66327a37b492ebe7bdaa5f69","1","20","2303","","","","","","","","","<img src= ""rock_img/I_Pumice_02.jpg"" style=""width:8cm; height:7.3999999999999995cm;""><p>What type of rock is this?</p>","7","class_response","0","test","48","Pumice","Pumice","02","true","8","8","",""
"","","","","","","","","","","","html-keyboard-response","102","2.0.0","492157","66327a37b492ebe7bdaa5f69","1","20","null","","","","","","","","","<p style='font-size: 30px;'><strong>Okay</strong></p>","null","neutral_feedback","0","test","48","","","","","","","",""
"","","","","","","","","","","","instructions","103","2.0.0","572324","66327a37b492ebe7bdaa5f69","1","20","80142","","","","","","","","[{""page_index"":0,""viewing_time"":69506},{""page_index"":1,""viewing_time"":6010},{""page_index"":2,""viewing_time"":4626}]","","","","","","","","","","","","","",""
"","","","","","","","","","","","html-button-response","104","2.0.0","614521","66327a37b492ebe7bdaa5f69","1","20","42195","","","","","","","","","","0","start_train","","","","","","","","","","",""
"","","","","","","","","","","","html-button-response","105","2.0.0","617242","66327a37b492ebe7bdaa5f69","1","20","2718","","","","","","","","","<img src= ""rock_img/I_Diorite_08.jpg"" style=""width:8cm; height:6.37cm;""><p>What type of rock is this?</p>","6","class_response","1","train","1","Peridotite","Diorite","08","false","7","3","",""
"","","","","","","","","","","","html-button-response","106","2.0.0","621751","66327a37b492ebe7bdaa5f69","1","20","4507","","","","","","","","","<img src= rock_img/I_Diorite_08.jpg style=""width:8cm; height:6.37cm;""><p style='font-size: 30px; color: red;'><strong>Incorrect!</strong></p><p style='font-size: 30px;'><strong>This rock is diorite</strong></p>","0","corr_feedback","1","train","1","","","","","","","",""
"","","","","","","","","","","","html-button-response","107","2.0.0","623428","66327a37b492ebe7bdaa5f69","1","20","1675","","","","","","","","","<img src= ""rock_img/I_Diorite_16.jpg"" style=""width:8cm; height:6.74cm;""><p>What type of rock is this?</p>","2","class_response","1","train","2","Diorite","Diorite","16","true","3","3","",""
"","","","","","","","","","","","html-button-response","108","2.0.0","625390","66327a37b492ebe7bdaa5f69","1","20","1960","","","","","","","","","<img src= rock_img/I_Diorite_16.jpg style=""width:8cm; height:6.74cm;""><p style='font-size: 30px; color: green;'><strong>Correct!</strong></p><p style='font-size: 30px;'><strong>This rock is diorite</strong></p>","0","corr_feedback","1","train","2","","","","","","","",""
"","","","","","","","","","","","html-button-response","109","2.0.0","627365","66327a37b492ebe7bdaa5f69","1","20","1972","","","","","","","","","<img src= ""rock_img/I_Pumice_03.jpg"" style=""width:8cm; height:6.64cm;""><p>What type of rock is this?</p>","7","class_response","1","train","3","Pumice","Pumice","03","true","8","8","",""
"","","","","","","","","","","","html-button-response","110","2.0.0","629029","66327a37b492ebe7bdaa5f69","1","20","1663","","","","","","","","","<img src= rock_img/I_Pumice_03.jpg style=""width:8cm; height:6.64cm;""><p style='font-size: 30px; color: green;'><strong>Correct!</strong></p><p style='font-size: 30px;'><strong>This rock is pumice</strong></p>","0","corr_feedback","1","train","3","","","","","","","",""
"","","","","","","","","","","","html-button-response","111","2.0.0","631880","66327a37b492ebe7bdaa5f69","1","20","2848","","","","","","","","","<img src= ""rock_img/I_Diorite_13.jpg"" style=""width:8cm; height:6.29cm;""><p>What type of rock is this?</p>","2","class_response","1","train","4","Diorite","Diorite","13","true","3","3","",""
"","","","","","","","","","","","html-button-response","112","2.0.0","633479","66327a37b492ebe7bdaa5f69","1","20","1597","","","","","","","","","<img src= rock_img/I_Diorite_13.jpg style=""width:8cm; height:6.29cm;""><p style='font-size: 30px; color: green;'><strong>Correct!</strong></p><p style='font-size: 30px;'><strong>This rock is diorite</strong></p>","0","corr_feedback","1","train","4","","","","","","","",""
"","","","","","","","","","","","html-button-response","113","2.0.0","636726","66327a37b492ebe7bdaa5f69","1","20","3245","","","","","","","","","<img src= ""rock_img/I_Peridotite_08.jpg"" style=""width:8cm; height:6.7cm;""><p>What type of rock is this?</p>","1","class_response","1","train","5","Basalt","Peridotite","08","false","2","7","",""
"","","","","","","","","","","","html-button-response","114","2.0.0","643452","66327a37b492ebe7bdaa5f69","1","20","6723","","","","","","","","","<img src= rock_img/I_Peridotite_08.jpg style=""width:8cm; height:6.7cm;""><p style='font-size: 30px; color: red;'><strong>Incorrect!</strong></p><p style='font-size: 30px;'><strong>This rock is peridotite</strong></p>","0","corr_feedback","1","train","5","","","","","","","",""
"","","","","","","","","","","","html-button-response","115","2.0.0","646800","66327a37b492ebe7bdaa5f69","1","20","3346","","","","","","","","","<img src= ""rock_img/I_Diorite_09.jpg"" style=""width:8cm; height:5.27cm;""><p>What type of rock is this?</p>","2","class_response","1","train","6","Diorite","Diorite","09","true","3","3","",""
"","","","","","","","","","","","html-button-response","116","2.0.0","648633","66327a37b492ebe7bdaa5f69","1","20","1832","","","","","","","","","<img src= rock_img/I_Diorite_09.jpg style=""width:8cm; height:5.27cm;""><p style='font-size: 30px; color: green;'><strong>Correct!</strong></p><p style='font-size: 30px;'><strong>This rock is diorite</strong></p>","0","corr_feedback","1","train","6","","","","","","","",""
"","","","","","","","","","","","html-button-response","117","2.0.0","657761","66327a37b492ebe7bdaa5f69","1","20","9126","","","","","","","","","<img src= ""rock_img/I_Diorite_10.jpg"" style=""width:8cm; height:5.949999999999999cm;""><p>What type of rock is this?</p>","1","class_response","1","train","7","Basalt","Diorite","10","false","2","3","",""
"","","","","","","","","","","","html-button-response","118","2.0.0","660411","66327a37b492ebe7bdaa5f69","1","20","2649","","","","","","","","","<img src= rock_img/I_Diorite_10.jpg style=""width:8cm; height:5.949999999999999cm;""><p style='font-size: 30px; color: red;'><strong>Incorrect!</strong></p><p style='font-size: 30px;'><strong>This rock is diorite</strong></p>","0","corr_feedback","1","train","7","","","","","","","",""
"","","","","","","","","","","","html-button-response","119","2.0.0","666973","66327a37b492ebe7bdaa5f69","1","20","6560","","","","","","","","","<img src= ""rock_img/I_Pegmatite_12.jpg"" style=""width:8cm; height:5.7cm;""><p>What type of rock is this?</p>","2","class_response","1","train","8","Diorite","Pegmatite","12","false","3","6","",""
"","","","","","","","","","","","html-button-response","120","2.0.0","670616","66327a37b492ebe7bdaa5f69","1","20","3641","","","","","","","","","<img src= rock_img/I_Pegmatite_12.jpg style=""width:8cm; height:5.7cm;""><p style='font-size: 30px; color: red;'><strong>Incorrect!</strong></p><p style='font-size: 30px;'><strong>This rock is pegmatite</strong></p>","0","corr_feedback","1","train","8","","","","","","","",""
"","","","","","","","","","","","html-button-response","121","2.0.0","673274","66327a37b492ebe7bdaa5f69","1","20","2657","","","","","","","","","<img src= ""rock_img/I_Andesite_07.jpg"" style=""width:8cm; height:5.93cm;""><p>What type of rock is this?</p>","2","class_response","1","train","9","Diorite","Andesite","07","false","3","1","",""
"","","","","","","","","","","","html-button-response","122","2.0.0","675892","66327a37b492ebe7bdaa5f69","1","20","2616","","","","","","","","","<img src= rock_img/I_Andesite_07.jpg style=""width:8cm; height:5.93cm;""><p style='font-size: 30px; color: red;'><strong>Incorrect!</strong></p><p style='font-size: 30px;'><strong>This rock is andesite</strong></p>","0","corr_feedback","1","train","9","","","","","","","",""
"","","","","","","","","","","","html-button-response","123","2.0.0","677650","66327a37b492ebe7bdaa5f69","1","20","1756","","","","","","","","","<img src= ""rock_img/I_Pumice_09.jpg"" style=""width:8cm; height:6.44cm;""><p>What type of rock is this?</p>","7","class_response","1","train","10","Pumice","Pumice","09","true","8","8","",""
"","","","","","","","","","","","html-button-response","124","2.0.0","679046","66327a37b492ebe7bdaa5f69","1","20","1394","","","","","","","","","<img src= rock_img/I_Pumice_09.jpg style=""width:8cm; height:6.44cm;""><p style='font-size: 30px; color: green;'><strong>Correct!</strong></p><p style='font-size: 30px;'><strong>This rock is pumice</strong></p>","0","corr_feedback","1","train","10","","","","","","","",""
"","","","","","","","","","","","html-button-response","125","2.0.0","682746","66327a37b492ebe7bdaa5f69","1","20","3698","","","","","","","","","<img src= ""rock_img/I_Obsidian_05.jpg"" style=""width:8cm; height:6.33cm;""><p>What type of rock is this?</p>","4","class_response","1","train","11","Obsidian","Obsidian","05","true","5","5","",""
"","","","","","","","","","","","html-button-response","126","2.0.0","686116","66327a37b492ebe7bdaa5f69","1","20","3368","","","","","","","","","<img src= rock_img/I_Obsidian_05.jpg style=""width:8cm; height:6.33cm;""><p style='font-size: 30px; color: green;'><strong>Correct!</strong></p><p style='font-size: 30px;'><strong>This rock is obsidian</strong></p>","0","corr_feedback","1","train","11","","","","","","","",""
"","","","","","","","","","","","html-button-response","127","2.0.0","689006","66327a37b492ebe7bdaa5f69","1","20","2888","","","","","","","","","<img src= ""rock_img/I_Basalt_04.jpg"" style=""width:8cm; height:7.53cm;""><p>What type of rock is this?</p>","1","class_response","1","train","12","Basalt","Basalt","04","true","2","2","",""
"","","","","","","","","","","","html-button-response","128","2.0.0","692031","66327a37b492ebe7bdaa5f69","1","20","3023","","","","","","","","","<img src= rock_img/I_Basalt_04.jpg style=""width:8cm; height:7.53cm;""><p style='font-size: 30px; color: green;'><strong>Correct!</strong></p><p style='font-size: 30px;'><strong>This rock is basalt</strong></p>","0","corr_feedback","1","train","12","","","","","","","",""
"","","","","","","","","","","","html-button-response","129","2.0.0","697400","66327a37b492ebe7bdaa5f69","1","20","5368","","","","","","","","","<img src= ""rock_img/I_Obsidian_09.jpg"" style=""width:8cm; height:5cm;""><p>What type of rock is this?</p>","3","class_response","1","train","13","Gabbro","Obsidian","09","false","4","5","",""
"","","","","","","","","","","","html-button-response","130","2.0.0","699887","66327a37b492ebe7bdaa5f69","1","20","2484","","","","","","","","","<img src= rock_img/I_Obsidian_09.jpg style=""width:8cm; height:5cm;""><p style='font-size: 30px; color: red;'><strong>Incorrect!</strong></p><p style='font-size: 30px;'><strong>This rock is obsidian</strong></p>","0","corr_feedback","1","train","13","","","","","","","",""
"","","","","","","","","","","","html-button-response","131","2.0.0","705164","66327a37b492ebe7bdaa5f69","1","20","5275","","","","","","","","","<img src= ""rock_img/I_Andesite_01.jpg"" style=""width:8cm; height:5.87cm;""><p>What type of rock is this?</p>","2","class_response","1","train","14","Diorite","Andesite","01","false","3","1","",""
"","","","","","","","","","","","html-button-response","132","2.0.0","708492","66327a37b492ebe7bdaa5f69","1","20","3327","","","","","","","","","<img src= rock_img/I_Andesite_01.jpg style=""width:8cm; height:5.87cm;""><p style='font-size: 30px; color: red;'><strong>Incorrect!</strong></p><p style='font-size: 30px;'><strong>This rock is andesite</strong></p>","0","corr_feedback","1","train","14","","","","","","","",""
"","","","","","","","","","","","html-button-response","133","2.0.0","715980","66327a37b492ebe7bdaa5f69","1","20","7485","","","","","","","","","<img src= ""rock_img/I_Andesite_05.jpg"" style=""width:8cm; height:4.12cm;""><p>What type of rock is this?</p>","2","class_response","1","train","15","Diorite","Andesite","05","false","3","1","",""
"","","","","","","","","","","","html-button-response","134","2.0.0","718076","66327a37b492ebe7bdaa5f69","1","20","2095","","","","","","","","","<img src= rock_img/I_Andesite_05.jpg style=""width:8cm; height:4.12cm;""><p style='font-size: 30px; color: red;'><strong>Incorrect!</strong></p><p style='font-size: 30px;'><strong>This rock is andesite</strong></p>","0","corr_feedback","1","train","15","","","","","","","",""
"","","","","","","","","","","","html-button-response","135","2.0.0","720615","66327a37b492ebe7bdaa5f69","1","20","2537","","","","","","","","","<img src= ""rock_img/I_Peridotite_02.jpg"" style=""width:8cm; height:5.859999999999999cm;""><p>What type of rock is this?</p>","0","class_response","1","train","16","Andesite","Peridotite","02","false","1","7","",""
"","","","","","","","","","","","html-button-response","136","2.0.0","723882","66327a37b492ebe7bdaa5f69","1","20","3264","","","","","","","","","<img src= rock_img/I_Peridotite_02.jpg style=""width:8cm; height:5.859999999999999cm;""><p style='font-size: 30px; color: red;'><strong>Incorrect!</strong></p><p style='font-size: 30px;'><strong>This rock is peridotite</strong></p>","0","corr_feedback","1","train","16","","","","","","","",""
"","","","","","","","","","","","html-button-response","137","2.0.0","733964","66327a37b492ebe7bdaa5f69","1","20","10080","","","","","","","","","<img src= ""rock_img/I_Obsidian_14.jpg"" style=""width:8cm; height:7.64cm;""><p>What type of rock is this?</p>","4","class_response","1","train","17","Obsidian","Obsidian","14","true","5","5","",""
"","","","","","","","","","","","html-button-response","138","2.0.0","735904","66327a37b492ebe7bdaa5f69","1","20","1938","","","","","","","","","<img src= rock_img/I_Obsidian_14.jpg style=""width:8cm; height:7.64cm;""><p style='font-size: 30px; color: green;'><strong>Correct!</strong></p><p style='font-size: 30px;'><strong>This rock is obsidian</strong></p>","0","corr_feedback","1","train","17","","","","","","","",""
"","","","","","","","","","","","html-button-response","139","2.0.0","738174","66327a37b492ebe7bdaa5f69","1","20","2268","","","","","","","","","<img src= ""rock_img/I_Andesite_04.jpg"" style=""width:8cm; height:5.96cm;""><p>What type of rock is this?</p>","0","class_response","1","train","18","Andesite","Andesite","04","true","1","1","",""
"","","","","","","","","","","","html-button-response","140","2.0.0","740224","66327a37b492ebe7bdaa5f69","1","20","2049","","","","","","","","","<img src= rock_img/I_Andesite_04.jpg style=""width:8cm; height:5.96cm;""><p style='font-size: 30px; color: green;'><strong>Correct!</strong></p><p style='font-size: 30px;'><strong>This rock is andesite</strong></p>","0","corr_feedback","1","train","18","","","","","","","",""
"","","","","","","","","","","","html-button-response","141","2.0.0","742272","66327a37b492ebe7bdaa5f69","1","20","2046","","","","","","","","","<img src= ""rock_img/I_Andesite_10.jpg"" style=""width:8cm; height:4.16cm;""><p>What type of rock is this?</p>","7","class_response","1","train","19","Pumice","Andesite","10","false","8","1","",""
"","","","","","","","","","","","html-button-response","142","2.0.0","744447","66327a37b492ebe7bdaa5f69","1","20","2173","","","","","","","","","<img src= rock_img/I_Andesite_10.jpg style=""width:8cm; height:4.16cm;""><p style='font-size: 30px; color: red;'><strong>Incorrect!</strong></p><p style='font-size: 30px;'><strong>This rock is andesite</strong></p>","0","corr_feedback","1","train","19","","","","","","","",""
"","","","","","","","","","","","html-button-response","143","2.0.0","750183","66327a37b492ebe7bdaa5f69","1","20","5734","","","","","","","","","<img src= ""rock_img/I_Peridotite_06.jpg"" style=""width:8cm; height:7.53cm;""><p>What type of rock is this?</p>","6","class_response","1","train","20","Peridotite","Peridotite","06","true","7","7","",""
"","","","","","","","","","","","html-button-response","144","2.0.0","753423","66327a37b492ebe7bdaa5f69","1","20","3238","","","","","","","","","<img src= rock_img/I_Peridotite_06.jpg style=""width:8cm; height:7.53cm;""><p style='font-size: 30px; color: green;'><strong>Correct!</strong></p><p style='font-size: 30px;'><strong>This rock is peridotite</strong></p>","0","corr_feedback","1","train","20","","","","","","","",""
"","","","","","","","","","","","html-button-response","145","2.0.0","755413","66327a37b492ebe7bdaa5f69","1","20","1988","","","","","","","","","<img src= ""rock_img/I_Basalt_12.jpg"" style=""width:8cm; height:6.010000000000001cm;""><p>What type of rock is this?</p>","7","class_response","1","train","21","Pumice","Basalt","12","false","8","2","",""
"","","","","","","","","","","","html-button-response","146","2.0.0","757361","66327a37b492ebe7bdaa5f69","1","20","1947","","","","","","","","","<img src= rock_img/I_Basalt_12.jpg style=""width:8cm; height:6.010000000000001cm;""><p style='font-size: 30px; color: red;'><strong>Incorrect!</strong></p><p style='font-size: 30px;'><strong>This rock is basalt</strong></p>","0","corr_feedback","1","train","21","","","","","","","",""
"","","","","","","","","","","","html-button-response","147","2.0.0","760415","66327a37b492ebe7bdaa5f69","1","20","3052","","","","","","","","","<img src= ""rock_img/I_Gabbro_11.jpg"" style=""width:8cm; height:6.2cm;""><p>What type of rock is this?</p>","1","class_response","1","train","22","Basalt","Gabbro","11","false","2","4","",""
"","","","","","","","","","","","html-button-response","148","2.0.0","762827","66327a37b492ebe7bdaa5f69","1","20","2410","","","","","","","","","<img src= rock_img/I_Gabbro_11.jpg style=""width:8cm; height:6.2cm;""><p style='font-size: 30px; color: red;'><strong>Incorrect!</strong></p><p style='font-size: 30px;'><strong>This rock is gabbro</strong></p>","0","corr_feedback","1","train","22","","","","","","","",""
"","","","","","","","","","","","html-button-response","149","2.0.0","766650","66327a37b492ebe7bdaa5f69","1","20","3822","","","","","","","","","<img src= ""rock_img/I_Basalt_01.jpg"" style=""width:8cm; height:7.880000000000001cm;""><p>What type of rock is this?</p>","1","class_response","1","train","23","Basalt","Basalt","01","true","2","2","",""
"","","","","","","","","","","","html-button-response","150","2.0.0","768795","66327a37b492ebe7bdaa5f69","1","20","2142","","","","","","","","","<img src= rock_img/I_Basalt_01.jpg style=""width:8cm; height:7.880000000000001cm;""><p style='font-size: 30px; color: green;'><strong>Correct!</strong></p><p style='font-size: 30px;'><strong>This rock is basalt</strong></p>","0","corr_feedback","1","train","23","","","","","","","",""
"","","","","","","","","","","","html-button-response","151","2.0.0","770694","66327a37b492ebe7bdaa5f69","1","20","1896","","","","","","","","","<img src= ""rock_img/I_Pumice_05.jpg"" style=""width:8cm; height:7.25cm;""><p>What type of rock is this?</p>","7","class_response","1","train","24","Pumice","Pumice","05","true","8","8","",""
"","","","","","","","","","","","html-button-response","152","2.0.0","772110","66327a37b492ebe7bdaa5f69","1","20","1415","","","","","","","","","<img src= rock_img/I_Pumice_05.jpg style=""width:8cm; height:7.25cm;""><p style='font-size: 30px; color: green;'><strong>Correct!</strong></p><p style='font-size: 30px;'><strong>This rock is pumice</strong></p>","0","corr_feedback","1","train","24","","","","","","","",""
"","","","","","","","","","","","html-button-response","153","2.0.0","777866","66327a37b492ebe7bdaa5f69","1","20","5754","","","","","","","","","<img src= ""rock_img/I_Gabbro_10.jpg"" style=""width:8cm; height:5.680000000000001cm;""><p>What type of rock is this?</p>","0","class_response","1","train","25","Andesite","Gabbro","10","false","1","4","",""
"","","","","","","","","","","","html-button-response","154","2.0.0","779481","66327a37b492ebe7bdaa5f69","1","20","1613","","","","","","","","","<img src= rock_img/I_Gabbro_10.jpg style=""width:8cm; height:5.680000000000001cm;""><p style='font-size: 30px; color: red;'><strong>Incorrect!</strong></p><p style='font-size: 30px;'><strong>This rock is gabbro</strong></p>","0","corr_feedback","1","train","25","","","","","","","",""
"","","","","","","","","","","","html-button-response","155","2.0.0","781298","66327a37b492ebe7bdaa5f69","1","20","1815","","","","","","","","","<img src= ""rock_img/I_Peridotite_10.jpg"" style=""width:8cm; height:5.390000000000001cm;""><p>What type of rock is this?</p>","2","class_response","1","train","26","Diorite","Peridotite","10","false","3","7","",""
"","","","","","","","","","","","html-button-response","156","2.0.0","782696","66327a37b492ebe7bdaa5f69","1","20","1396","","","","","","","","","<img src= rock_img/I_Peridotite_10.jpg style=""width:8cm; height:5.390000000000001cm;""><p style='font-size: 30px; color: red;'><strong>Incorrect!</strong></p><p style='font-size: 30px;'><strong>This rock is peridotite</strong></p>","0","corr_feedback","1","train","26","","","","","","","",""
"","","","","","","","","","","","html-button-response","157","2.0.0","787001","66327a37b492ebe7bdaa5f69","1","20","4303","","","","","","","","","<img src= ""rock_img/I_Pegmatite_05.jpg"" style=""width:8cm; height:7.300000000000001cm;""><p>What type of rock is this?</p>","1","class_response","1","train","27","Basalt","Pegmatite","05","false","2","6","",""
"","","","","","","","","","","","html-button-response","158","2.0.0","789145","66327a37b492ebe7bdaa5f69","1","20","2142","","","","","","","","","<img src= rock_img/I_Pegmatite_05.jpg style=""width:8cm; height:7.300000000000001cm;""><p style='font-size: 30px; color: red;'><strong>Incorrect!</strong></p><p style='font-size: 30px;'><strong>This rock is pegmatite</strong></p>","0","corr_feedback","1","train","27","","","","","","","",""
"","","","","","","","","","","","html-button-response","159","2.0.0","791252","66327a37b492ebe7bdaa5f69","1","20","2104","","","","","","","","","<img src= ""rock_img/I_Pumice_10.jpg"" style=""width:8cm; height:7.609999999999999cm;""><p>What type of rock is this?</p>","7","class_response","1","train","28","Pumice","Pumice","10","true","8","8","",""
"","","","","","","","","","","","html-button-response","160","2.0.0","792508","66327a37b492ebe7bdaa5f69","1","20","1255","","","","","","","","","<img src= rock_img/I_Pumice_10.jpg style=""width:8cm; height:7.609999999999999cm;""><p style='font-size: 30px; color: green;'><strong>Correct!</strong></p><p style='font-size: 30px;'><strong>This rock is pumice</strong></p>","0","corr_feedback","1","train","28","","","","","","","",""
"","","","","","","","","","","","html-button-response","161","2.0.0","799637","66327a37b492ebe7bdaa5f69","1","20","7126","","","","","","","","","<img src= ""rock_img/I_Peridotite_05.jpg"" style=""width:8cm; height:7.1499999999999995cm;""><p>What type of rock is this?</p>","5","class_response","1","train","29","Pegmatite","Peridotite","05","false","6","7","",""
"","","","","","","","","","","","html-button-response","162","2.0.0","801114","66327a37b492ebe7bdaa5f69","1","20","1475","","","","","","","","","<img src= rock_img/I_Peridotite_05.jpg style=""width:8cm; height:7.1499999999999995cm;""><p style='font-size: 30px; color: red;'><strong>Incorrect!</strong></p><p style='font-size: 30px;'><strong>This rock is peridotite</strong></p>","0","corr_feedback","1","train","29","","","","","","","",""
"","","","","","","","","","","","html-button-response","163","2.0.0","803586","66327a37b492ebe7bdaa5f69","1","20","2471","","","","","","","","","<img src= ""rock_img/I_Peridotite_04.jpg"" style=""width:8cm; height:6.680000000000001cm;""><p>What type of rock is this?</p>","6","class_response","1","train","30","Peridotite","Peridotite","04","true","7","7","",""
"","","","","","","","","","","","html-button-response","164","2.0.0","805705","66327a37b492ebe7bdaa5f69","1","20","2117","","","","","","","","","<img src= rock_img/I_Peridotite_04.jpg style=""width:8cm; height:6.680000000000001cm;""><p style='font-size: 30px; color: green;'><strong>Correct!</strong></p><p style='font-size: 30px;'><strong>This rock is peridotite</strong></p>","0","corr_feedback","1","train","30","","","","","","","",""
"","","","","","","","","","","","html-button-response","165","2.0.0","807450","66327a37b492ebe7bdaa5f69","1","20","1743","","","","","","","","","<img src= ""rock_img/I_Diorite_15.jpg"" style=""width:8cm; height:5.54cm;""><p>What type of rock is this?</p>","6","class_response","1","train","31","Peridotite","Diorite","15","false","7","3","",""
"","","","","","","","","","","","html-button-response","166","2.0.0","810395","66327a37b492ebe7bdaa5f69","1","20","2943","","","","","","","","","<img src= rock_img/I_Diorite_15.jpg style=""width:8cm; height:5.54cm;""><p style='font-size: 30px; color: red;'><strong>Incorrect!</strong></p><p style='font-size: 30px;'><strong>This rock is diorite</strong></p>","0","corr_feedback","1","train","31","","","","","","","",""
"","","","","","","","","","","","html-button-response","167","2.0.0","814021","66327a37b492ebe7bdaa5f69","1","20","3624","","","","","","","","","<img src= ""rock_img/I_Basalt_16.jpg"" style=""width:8cm; height:7.659999999999999cm;""><p>What type of rock is this?</p>","3","class_response","1","train","32","Gabbro","Basalt","16","false","4","2","",""
"","","","","","","","","","","","html-button-response","168","2.0.0","815529","66327a37b492ebe7bdaa5f69","1","20","1507","","","","","","","","","<img src= rock_img/I_Basalt_16.jpg style=""width:8cm; height:7.659999999999999cm;""><p style='font-size: 30px; color: red;'><strong>Incorrect!</strong></p><p style='font-size: 30px;'><strong>This rock is basalt</strong></p>","0","corr_feedback","1","train","32","","","","","","","",""
"","","","","","","","","","","","html-button-response","169","2.0.0","817524","66327a37b492ebe7bdaa5f69","1","20","1993","","","","","","","","","<img src= ""rock_img/I_Basalt_09.jpg"" style=""width:8cm; height:6.2cm;""><p>What type of rock is this?</p>","3","class_response","1","train","33","Gabbro","Basalt","09","false","4","2","",""
"","","","","","","","","","","","html-button-response","170","2.0.0","818952","66327a37b492ebe7bdaa5f69","1","20","1427","","","","","","","","","<img src= rock_img/I_Basalt_09.jpg style=""width:8cm; height:6.2cm;""><p style='font-size: 30px; color: red;'><strong>Incorrect!</strong></p><p style='font-size: 30px;'><strong>This rock is basalt</strong></p>","0","corr_feedback","1","train","33","","","","","","","",""
"","","","","","","","","","","","html-button-response","171","2.0.0","822995","66327a37b492ebe7bdaa5f69","1","20","4041","","","","","","","","","<img src= ""rock_img/I_Gabbro_01.jpg"" style=""width:8cm; height:5.21cm;""><p>What type of rock is this?</p>","6","class_response","1","train","34","Peridotite","Gabbro","01","false","7","4","",""
"","","","","","","","","","","","html-button-response","172","2.0.0","824604","66327a37b492ebe7bdaa5f69","1","20","1607","","","","","","","","","<img src= rock_img/I_Gabbro_01.jpg style=""width:8cm; height:5.21cm;""><p style='font-size: 30px; color: red;'><strong>Incorrect!</strong></p><p style='font-size: 30px;'><strong>This rock is gabbro</strong></p>","0","corr_feedback","1","train","34","","","","","","","",""
"","","","","","","","","","","","html-button-response","173","2.0.0","826297","66327a37b492ebe7bdaa5f69","1","20","1690","","","","","","","","","<img src= ""rock_img/I_Pumice_15.jpg"" style=""width:8cm; height:7.86cm;""><p>What type of rock is this?</p>","7","class_response","1","train","35","Pumice","Pumice","15","true","8","8","",""
"","","","","","","","","","","","html-button-response","174","2.0.0","827413","66327a37b492ebe7bdaa5f69","1","20","1115","","","","","","","","","<img src= rock_img/I_Pumice_15.jpg style=""width:8cm; height:7.86cm;""><p style='font-size: 30px; color: green;'><strong>Correct!</strong></p><p style='font-size: 30px;'><strong>This rock is pumice</strong></p>","0","corr_feedback","1","train","35","","","","","","","",""
"","","","","","","","","","","","html-button-response","175","2.0.0","836702","66327a37b492ebe7bdaa5f69","1","20","9286","","","","","","","","","<img src= ""rock_img/I_Pegmatite_06.jpg"" style=""width:8cm; height:5.17cm;""><p>What type of rock is this?</p>","6","class_response","1","train","36","Peridotite","Pegmatite","06","false","7","6","",""
"","","","","","","","","","","","html-button-response","176","2.0.0","840149","66327a37b492ebe7bdaa5f69","1","20","3445","","","","","","","","","<img src= rock_img/I_Pegmatite_06.jpg style=""width:8cm; height:5.17cm;""><p style='font-size: 30px; color: red;'><strong>Incorrect!</strong></p><p style='font-size: 30px;'><strong>This rock is pegmatite</strong></p>","0","corr_feedback","1","train","36","","","","","","","",""
"","","","","","","","","","","","html-button-response","177","2.0.0","842500","66327a37b492ebe7bdaa5f69","1","20","2349","","","","","","","","","<img src= ""rock_img/I_Obsidian_06.jpg"" style=""width:8cm; height:6.8cm;""><p>What type of rock is this?</p>","4","class_response","1","train","37","Obsidian","Obsidian","06","true","5","5","",""
"","","","","","","","","","","","html-button-response","178","2.0.0","844694","66327a37b492ebe7bdaa5f69","1","20","2193","","","","","","","","","<img src= rock_img/I_Obsidian_06.jpg style=""width:8cm; height:6.8cm;""><p style='font-size: 30px; color: green;'><strong>Correct!</strong></p><p style='font-size: 30px;'><strong>This rock is obsidian</strong></p>","0","corr_feedback","1","train","37","","","","","","","",""
"","","","","","","","","","","","html-button-response","179","2.0.0","846517","66327a37b492ebe7bdaa5f69","1","20","1821","","","","","","","","","<img src= ""rock_img/I_Pumice_04.jpg"" style=""width:8cm; height:6.819999999999999cm;""><p>What type of rock is this?</p>","7","class_response","1","train","38","Pumice","Pumice","04","true","8","8","",""
"","","","","","","","","","","","html-button-response","180","2.0.0","847745","66327a37b492ebe7bdaa5f69","1","20","1227","","","","","","","","","<img src= rock_img/I_Pumice_04.jpg style=""width:8cm; height:6.819999999999999cm;""><p style='font-size: 30px; color: green;'><strong>Correct!</strong></p><p style='font-size: 30px;'><strong>This rock is pumice</strong></p>","0","corr_feedback","1","train","38","","","","","","","",""
"","","","","","","","","","","","html-button-response","181","2.0.0","849328","66327a37b492ebe7bdaa5f69","1","20","1581","","","","","","","","","<img src= ""rock_img/I_Obsidian_07.jpg"" style=""width:8cm; height:4.76cm;""><p>What type of rock is this?</p>","4","class_response","1","train","39","Obsidian","Obsidian","07","true","5","5","",""
"","","","","","","","","","","","html-button-response","182","2.0.0","850648","66327a37b492ebe7bdaa5f69","1","20","1318","","","","","","","","","<img src= rock_img/I_Obsidian_07.jpg style=""width:8cm; height:4.76cm;""><p style='font-size: 30px; color: green;'><strong>Correct!</strong></p><p style='font-size: 30px;'><strong>This rock is obsidian</strong></p>","0","corr_feedback","1","train","39","","","","","","","",""
"","","","","","","","","","","","html-button-response","183","2.0.0","852903","66327a37b492ebe7bdaa5f69","1","20","2253","","","","","","","","","<img src= ""rock_img/I_Obsidian_04.jpg"" style=""width:8cm; height:6.930000000000001cm;""><p>What type of rock is this?</p>","4","class_response","1","train","40","Obsidian","Obsidian","04","true","5","5","",""
"","","","","","","","","","","","html-button-response","184","2.0.0","854311","66327a37b492ebe7bdaa5f69","1","20","1406","","","","","","","","","<img src= rock_img/I_Obsidian_04.jpg style=""width:8cm; height:6.930000000000001cm;""><p style='font-size: 30px; color: green;'><strong>Correct!</strong></p><p style='font-size: 30px;'><strong>This rock is obsidian</strong></p>","0","corr_feedback","1","train","40","","","","","","","",""
"","","","","","","","","","","","html-button-response","185","2.0.0","859502","66327a37b492ebe7bdaa5f69","1","20","5189","","","","","","","","","<img src= ""rock_img/I_Andesite_02.jpg"" style=""width:8cm; height:8.5cm;""><p>What type of rock is this?</p>","5","class_response","1","train","41","Pegmatite","Andesite","02","false","6","1","",""
"","","","","","","","","","","","html-button-response","186","2.0.0","862266","66327a37b492ebe7bdaa5f69","1","20","2762","","","","","","","","","<img src= rock_img/I_Andesite_02.jpg style=""width:8cm; height:8.5cm;""><p style='font-size: 30px; color: red;'><strong>Incorrect!</strong></p><p style='font-size: 30px;'><strong>This rock is andesite</strong></p>","0","corr_feedback","1","train","41","","","","","","","",""
"","","","","","","","","","","","html-button-response","187","2.0.0","876829","66327a37b492ebe7bdaa5f69","1","20","14561","","","","","","","","","<img src= ""rock_img/I_Pegmatite_10.jpg"" style=""width:8cm; height:4.16cm;""><p>What type of rock is this?</p>","6","class_response","1","train","42","Peridotite","Pegmatite","10","false","7","6","",""
"","","","","","","","","","","","html-button-response","188","2.0.0","878559","66327a37b492ebe7bdaa5f69","1","20","1729","","","","","","","","","<img src= rock_img/I_Pegmatite_10.jpg style=""width:8cm; height:4.16cm;""><p style='font-size: 30px; color: red;'><strong>Incorrect!</strong></p><p style='font-size: 30px;'><strong>This rock is pegmatite</strong></p>","0","corr_feedback","1","train","42","","","","","","","",""
"","","","","","","","","","","","html-button-response","189","2.0.0","881114","66327a37b492ebe7bdaa5f69","1","20","2552","","","","","","","","","<img src= ""rock_img/I_Pegmatite_16.jpg"" style=""width:8cm; height:5.8cm;""><p>What type of rock is this?</p>","6","class_response","1","train","43","Peridotite","Pegmatite","16","false","7","6","",""
"","","","","","","","","","","","html-button-response","190","2.0.0","882741","66327a37b492ebe7bdaa5f69","1","20","1626","","","","","","","","","<img src= rock_img/I_Pegmatite_16.jpg style=""width:8cm; height:5.8cm;""><p style='font-size: 30px; color: red;'><strong>Incorrect!</strong></p><p style='font-size: 30px;'><strong>This rock is pegmatite</strong></p>","0","corr_feedback","1","train","43","","","","","","","",""
"","","","","","","","","","","","html-button-response","191","2.0.0","885972","66327a37b492ebe7bdaa5f69","1","20","3228","","","","","","","","","<img src= ""rock_img/I_Basalt_11.jpg"" style=""width:8cm; height:5.359999999999999cm;""><p>What type of rock is this?</p>","7","class_response","1","train","44","Pumice","Basalt","11","false","8","2","",""
"","","","","","","","","","","","html-button-response","192","2.0.0","887784","66327a37b492ebe7bdaa5f69","1","20","1810","","","","","","","","","<img src= rock_img/I_Basalt_11.jpg style=""width:8cm; height:5.359999999999999cm;""><p style='font-size: 30px; color: red;'><strong>Incorrect!</strong></p><p style='font-size: 30px;'><strong>This rock is basalt</strong></p>","0","corr_feedback","1","train","44","","","","","","","",""
"","","","","","","","","","","","html-button-response","193","2.0.0","890630","66327a37b492ebe7bdaa5f69","1","20","2844","","","","","","","","","<img src= ""rock_img/I_Gabbro_05.jpg"" style=""width:8cm; height:6cm;""><p>What type of rock is this?</p>","1","class_response","1","train","45","Basalt","Gabbro","05","false","2","4","",""
"","","","","","","","","","","","html-button-response","194","2.0.0","891866","66327a37b492ebe7bdaa5f69","1","20","1234","","","","","","","","","<img src= rock_img/I_Gabbro_05.jpg style=""width:8cm; height:6cm;""><p style='font-size: 30px; color: red;'><strong>Incorrect!</strong></p><p style='font-size: 30px;'><strong>This rock is gabbro</strong></p>","0","corr_feedback","1","train","45","","","","","","","",""
"","","","","","","","","","","","html-button-response","195","2.0.0","897109","66327a37b492ebe7bdaa5f69","1","20","5241","","","","","","","","","<img src= ""rock_img/I_Gabbro_03.jpg"" style=""width:8cm; height:8.52cm;""><p>What type of rock is this?</p>","6","class_response","1","train","46","Peridotite","Gabbro","03","false","7","4","",""
"","","","","","","","","","","","html-button-response","196","2.0.0","898310","66327a37b492ebe7bdaa5f69","1","20","1199","","","","","","","","","<img src= rock_img/I_Gabbro_03.jpg style=""width:8cm; height:8.52cm;""><p style='font-size: 30px; color: red;'><strong>Incorrect!</strong></p><p style='font-size: 30px;'><strong>This rock is gabbro</strong></p>","0","corr_feedback","1","train","46","","","","","","","",""
"","","","","","","","","","","","html-button-response","197","2.0.0","900498","66327a37b492ebe7bdaa5f69","1","20","2186","","","","","","","","","<img src= ""rock_img/I_Pegmatite_03.jpg"" style=""width:8cm; height:5.239999999999999cm;""><p>What type of rock is this?</p>","5","class_response","1","train","47","Pegmatite","Pegmatite","03","true","6","6","",""
"","","","","","","","","","","","html-button-response","198","2.0.0","902322","66327a37b492ebe7bdaa5f69","1","20","1822","","","","","","","","","<img src= rock_img/I_Pegmatite_03.jpg style=""width:8cm; height:5.239999999999999cm;""><p style='font-size: 30px; color: green;'><strong>Correct!</strong></p><p style='font-size: 30px;'><strong>This rock is pegmatite</strong></p>","0","corr_feedback","1","train","47","","","","","","","",""
"","","","","","","","","","","","html-button-response","199","2.0.0","910813","66327a37b492ebe7bdaa5f69","1","20","8489","","","","","","","","","<img src= ""rock_img/I_Gabbro_15.jpg"" style=""width:8cm; height:6.29cm;""><p>What type of rock is this?</p>","6","class_response","1","train","48","Peridotite","Gabbro","15","false","7","4","",""
"","","","","","","","","","","","html-button-response","200","2.0.0","912337","66327a37b492ebe7bdaa5f69","1","20","1523","","","","","","","","","<img src= rock_img/I_Gabbro_15.jpg style=""width:8cm; height:6.29cm;""><p style='font-size: 30px; color: red;'><strong>Incorrect!</strong></p><p style='font-size: 30px;'><strong>This rock is gabbro</strong></p>","0","corr_feedback","1","train","48","","","","","","","",""
"","","","","","","","","","","","instructions","203","2.0.0","935743","66327a37b492ebe7bdaa5f69","1","20","23404","","","","","","","","[{""page_index"":0,""viewing_time"":9458},{""page_index"":1,""viewing_time"":13947}]","","","","","","","","","","","","","",""
"","","","","","","","","","","","html-button-response","204","2.0.0","938091","66327a37b492ebe7bdaa5f69","1","20","2346","","","","","","","","","","0","start_test","","","","","","","","","","",""
"","","","","","","","","","","","html-button-response","205","2.0.0","953736","66327a37b492ebe7bdaa5f69","1","20","15642","","","","","","","","","<img src= ""rock_img/I_Pegmatite_09.jpg"" style=""width:8cm; height:4.03cm;""><p>What type of rock is this?</p>","5","class_response","1","test","1","Pegmatite","Pegmatite","09","true","6","6","",""
"","","","","","","","","","","","html-keyboard-response","206","2.0.0","954248","66327a37b492ebe7bdaa5f69","1","20","null","","","","","","","","","<p style='font-size: 30px;'><strong>Okay</strong></p>","null","neutral_feedback","1","test","1","","","","","","","",""
"","","","","","","","","","","","html-button-response","207","2.0.0","958466","66327a37b492ebe7bdaa5f69","1","20","4216","","","","","","","","","<img src= ""rock_img/I_Pegmatite_08.jpg"" style=""width:8cm; height:7.68cm;""><p>What type of rock is this?</p>","5","class_response","1","test","2","Pegmatite","Pegmatite","08","true","6","6","",""
"","","","","","","","","","","","html-keyboard-response","208","2.0.0","958979","66327a37b492ebe7bdaa5f69","1","20","null","","","","","","","","","<p style='font-size: 30px;'><strong>Okay</strong></p>","null","neutral_feedback","1","test","2","","","","","","","",""
"","","","","","","","","","","","html-button-response","209","2.0.0","964497","66327a37b492ebe7bdaa5f69","1","20","5516","","","","","","","","","<img src= ""rock_img/I_Diorite_02.jpg"" style=""width:8cm; height:6.27cm;""><p>What type of rock is this?</p>","5","class_response","1","test","3","Pegmatite","Diorite","02","false","6","3","",""
"","","","","","","","","","","","html-keyboard-response","210","2.0.0","965006","66327a37b492ebe7bdaa5f69","1","20","null","","","","","","","","","<p style='font-size: 30px;'><strong>Okay</strong></p>","null","neutral_feedback","1","test","3","","","","","","","",""
"","","","","","","","","","","","html-button-response","211","2.0.0","966255","66327a37b492ebe7bdaa5f69","1","20","1246","","","","","","","","","<img src= ""rock_img/I_Diorite_07.jpg"" style=""width:8cm; height:5.239999999999999cm;""><p>What type of rock is this?</p>","5","class_response","1","test","4","Pegmatite","Diorite","07","false","6","3","",""
"","","","","","","","","","","","html-keyboard-response","212","2.0.0","966767","66327a37b492ebe7bdaa5f69","1","20","null","","","","","","","","","<p style='font-size: 30px;'><strong>Okay</strong></p>","null","neutral_feedback","1","test","4","","","","","","","",""
"","","","","","","","","","","","html-button-response","213","2.0.0","974394","66327a37b492ebe7bdaa5f69","1","20","7625","","","","","","","","","<img src= ""rock_img/I_Peridotite_14.jpg"" style=""width:8cm; height:5.3cm;""><p>What type of rock is this?</p>","6","class_response","1","test","5","Peridotite","Peridotite","14","true","7","7","",""
"","","","","","","","","","","","html-keyboard-response","214","2.0.0","974905","66327a37b492ebe7bdaa5f69","1","20","null","","","","","","","","","<p style='font-size: 30px;'><strong>Okay</strong></p>","null","neutral_feedback","1","test","5","","","","","","","",""
"","","","","","","","","","","","html-button-response","215","2.0.0","977055","66327a37b492ebe7bdaa5f69","1","20","2149","","","","","","","","","<img src= ""rock_img/I_Pegmatite_07.jpg"" style=""width:8cm; height:6.7cm;""><p>What type of rock is this?</p>","5","class_response","1","test","6","Pegmatite","Pegmatite","07","true","6","6","",""
"","","","","","","","","","","","html-keyboard-response","216","2.0.0","977570","66327a37b492ebe7bdaa5f69","1","20","null","","","","","","","","","<p style='font-size: 30px;'><strong>Okay</strong></p>","null","neutral_feedback","1","test","6","","","","","","","",""
"","","","","","","","","","","","html-button-response","217","2.0.0","979310","66327a37b492ebe7bdaa5f69","1","20","1737","","","","","","","","","<img src= ""rock_img/I_Diorite_11.jpg"" style=""width:8cm; height:7.11cm;""><p>What type of rock is this?</p>","6","class_response","1","test","7","Peridotite","Diorite","11","false","7","3","",""
"","","","","","","","","","","","html-keyboard-response","218","2.0.0","979823","66327a37b492ebe7bdaa5f69","1","20","null","","","","","","","","","<p style='font-size: 30px;'><strong>Okay</strong></p>","null","neutral_feedback","1","test","7","","","","","","","",""
"","","","","","","","","","","","html-button-response","219","2.0.0","981421","66327a37b492ebe7bdaa5f69","1","20","1595","","","","","","","","","<img src= ""rock_img/I_Pegmatite_15.jpg"" style=""width:8cm; height:6cm;""><p>What type of rock is this?</p>","5","class_response","1","test","8","Pegmatite","Pegmatite","15","true","6","6","",""
"","","","","","","","","","","","html-keyboard-response","220","2.0.0","981933","66327a37b492ebe7bdaa5f69","1","20","null","","","","","","","","","<p style='font-size: 30px;'><strong>Okay</strong></p>","null","neutral_feedback","1","test","8","","","","","","","",""
"","","","","","","","","","","","html-button-response","221","2.0.0","986822","66327a37b492ebe7bdaa5f69","1","20","4887","","","","","","","","","<img src= ""rock_img/I_Diorite_14.jpg"" style=""width:8cm; height:5.71cm;""><p>What type of rock is this?</p>","6","class_response","1","test","9","Peridotite","Diorite","14","false","7","3","",""
"","","","","","","","","","","","html-keyboard-response","222","2.0.0","987335","66327a37b492ebe7bdaa5f69","1","20","null","","","","","","","","","<p style='font-size: 30px;'><strong>Okay</strong></p>","null","neutral_feedback","1","test","9","","","","","","","",""
"","","","","","","","","","","","html-button-response","223","2.0.0","990296","66327a37b492ebe7bdaa5f69","1","20","2960","","","","","","","","","<img src= ""rock_img/I_Gabbro_16.jpg"" style=""width:8cm; height:6.44cm;""><p>What type of rock is this?</p>","3","class_response","1","test","10","Gabbro","Gabbro","16","true","4","4","",""
"","","","","","","","","","","","html-keyboard-response","224","2.0.0","990809","66327a37b492ebe7bdaa5f69","1","20","null","","","","","","","","","<p style='font-size: 30px;'><strong>Okay</strong></p>","null","neutral_feedback","1","test","10","","","","","","","",""
"","","","","","","","","","","","html-button-response","225","2.0.0","992806","66327a37b492ebe7bdaa5f69","1","20","1995","","","","","","","","","<img src= ""rock_img/I_Basalt_14.jpg"" style=""width:8cm; height:5.82cm;""><p>What type of rock is this?</p>","3","class_response","1","test","11","Gabbro","Basalt","14","false","4","2","",""
"","","","","","","","","","","","html-keyboard-response","226","2.0.0","993317","66327a37b492ebe7bdaa5f69","1","20","null","","","","","","","","","<p style='font-size: 30px;'><strong>Okay</strong></p>","null","neutral_feedback","1","test","11","","","","","","","",""
"","","","","","","","","","","","html-button-response","227","2.0.0","995528","66327a37b492ebe7bdaa5f69","1","20","2210","","","","","","","","","<img src= ""rock_img/I_Obsidian_08.jpg"" style=""width:8cm; height:7.39cm;""><p>What type of rock is this?</p>","4","class_response","1","test","12","Obsidian","Obsidian","08","true","5","5","",""
"","","","","","","","","","","","html-keyboard-response","228","2.0.0","996038","66327a37b492ebe7bdaa5f69","1","20","null","","","","","","","","","<p style='font-size: 30px;'><strong>Okay</strong></p>","null","neutral_feedback","1","test","12","","","","","","","",""
"","","","","","","","","","","","html-button-response","229","2.0.0","1002712","66327a37b492ebe7bdaa5f69","1","20","6671","","","","","","","","","<img src= ""rock_img/I_Peridotite_15.jpg"" style=""width:8cm; height:6cm;""><p>What type of rock is this?</p>","6","class_response","1","test","13","Peridotite","Peridotite","15","true","7","7","",""
"","","","","","","","","","","","html-keyboard-response","230","2.0.0","1003224","66327a37b492ebe7bdaa5f69","1","20","null","","","","","","","","","<p style='font-size: 30px;'><strong>Okay</strong></p>","null","neutral_feedback","1","test","13","","","","","","","",""
"","","","","","","","","","","","html-button-response","231","2.0.0","1004522","66327a37b492ebe7bdaa5f69","1","20","1296","","","","","","","","","<img src= ""rock_img/I_Andesite_16.jpg"" style=""width:8cm; height:6.010000000000001cm;""><p>What type of rock is this?</p>","6","class_response","1","test","14","Peridotite","Andesite","16","false","7","1","",""
"","","","","","","","","","","","html-keyboard-response","232","2.0.0","1005035","66327a37b492ebe7bdaa5f69","1","20","null","","","","","","","","","<p style='font-size: 30px;'><strong>Okay</strong></p>","null","neutral_feedback","1","test","14","","","","","","","",""
"","","","","","","","","","","","html-button-response","233","2.0.0","1011285","66327a37b492ebe7bdaa5f69","1","20","6248","","","","","","","","","<img src= ""rock_img/I_Basalt_05.jpg"" style=""width:8cm; height:8.18cm;""><p>What type of rock is this?</p>","1","class_response","1","test","15","Basalt","Basalt","05","true","2","2","",""
"","","","","","","","","","","","html-keyboard-response","234","2.0.0","1011797","66327a37b492ebe7bdaa5f69","1","20","null","","","","","","","","","<p style='font-size: 30px;'><strong>Okay</strong></p>","null","neutral_feedback","1","test","15","","","","","","","",""
"","","","","","","","","","","","html-button-response","235","2.0.0","1020163","66327a37b492ebe7bdaa5f69","1","20","8364","","","","","","","","","<img src= ""rock_img/I_Peridotite_13.jpg"" style=""width:8cm; height:7.58cm;""><p>What type of rock is this?</p>","0","class_response","1","test","16","Andesite","Peridotite","13","false","1","7","",""
"","","","","","","","","","","","html-keyboard-response","236","2.0.0","1020675","66327a37b492ebe7bdaa5f69","1","20","null","","","","","","","","","<p style='font-size: 30px;'><strong>Okay</strong></p>","null","neutral_feedback","1","test","16","","","","","","","",""
"","","","","","","","","","","","html-button-response","237","2.0.0","1023214","66327a37b492ebe7bdaa5f69","1","20","2537","","","","","","","","","<img src= ""rock_img/I_Gabbro_08.jpg"" style=""width:8cm; height:5.15cm;""><p>What type of rock is this?</p>","0","class_response","1","test","17","Andesite","Gabbro","08","false","1","4","",""
"","","","","","","","","","","","html-keyboard-response","238","2.0.0","1023727","66327a37b492ebe7bdaa5f69","1","20","null","","","","","","","","","<p style='font-size: 30px;'><strong>Okay</strong></p>","null","neutral_feedback","1","test","17","","","","","","","",""
"","","","","","","","","","","","html-button-response","239","2.0.0","1027829","66327a37b492ebe7bdaa5f69","1","20","4100","","","","","","","","","<img src= ""rock_img/I_Gabbro_13.jpg"" style=""width:8cm; height:5.08cm;""><p>What type of rock is this?</p>","1","class_response","1","test","18","Basalt","Gabbro","13","false","2","4","",""
"","","","","","","","","","","","html-keyboard-response","240","2.0.0","1028342","66327a37b492ebe7bdaa5f69","1","20","null","","","","","","","","","<p style='font-size: 30px;'><strong>Okay</strong></p>","null","neutral_feedback","1","test","18","","","","","","","",""
"","","","","","","","","","","","html-button-response","241","2.0.0","1031431","66327a37b492ebe7bdaa5f69","1","20","3087","","","","","","","","","<img src= ""rock_img/I_Gabbro_14.jpg"" style=""width:8cm; height:8.48cm;""><p>What type of rock is this?</p>","3","class_response","1","test","19","Gabbro","Gabbro","14","true","4","4","",""
"","","","","","","","","","","","html-keyboard-response","242","2.0.0","1031943","66327a37b492ebe7bdaa5f69","1","20","null","","","","","","","","","<p style='font-size: 30px;'><strong>Okay</strong></p>","null","neutral_feedback","1","test","19","","","","","","","",""
"","","","","","","","","","","","html-button-response","243","2.0.0","1034650","66327a37b492ebe7bdaa5f69","1","20","2705","","","","","","","","","<img src= ""rock_img/I_Diorite_12.jpg"" style=""width:8cm; height:4.88cm;""><p>What type of rock is this?</p>","6","class_response","1","test","20","Peridotite","Diorite","12","false","7","3","",""
"","","","","","","","","","","","html-keyboard-response","244","2.0.0","1035161","66327a37b492ebe7bdaa5f69","1","20","null","","","","","","","","","<p style='font-size: 30px;'><strong>Okay</strong></p>","null","neutral_feedback","1","test","20","","","","","","","",""
"","","","","","","","","","","","html-button-response","245","2.0.0","1037340","66327a37b492ebe7bdaa5f69","1","20","2177","","","","","","","","","<img src= ""rock_img/I_Andesite_11.jpg"" style=""width:8cm; height:4.92cm;""><p>What type of rock is this?</p>","5","class_response","1","test","21","Pegmatite","Andesite","11","false","6","1","",""
"","","","","","","","","","","","html-keyboard-response","246","2.0.0","1037849","66327a37b492ebe7bdaa5f69","1","20","null","","","","","","","","","<p style='font-size: 30px;'><strong>Okay</strong></p>","null","neutral_feedback","1","test","21","","","","","","","",""
"","","","","","","","","","","","html-button-response","247","2.0.0","1040880","66327a37b492ebe7bdaa5f69","1","20","3029","","","","","","","","","<img src= ""rock_img/I_Pumice_08.jpg"" style=""width:8cm; height:6.67cm;""><p>What type of rock is this?</p>","7","class_response","1","test","22","Pumice","Pumice","08","true","8","8","",""
"","","","","","","","","","","","html-keyboard-response","248","2.0.0","1041392","66327a37b492ebe7bdaa5f69","1","20","null","","","","","","","","","<p style='font-size: 30px;'><strong>Okay</strong></p>","null","neutral_feedback","1","test","22","","","","","","","",""
"","","","","","","","","","","","html-button-response","249","2.0.0","1045566","66327a37b492ebe7bdaa5f69","1","20","4172","","","","","","","","","<img src= ""rock_img/I_Pegmatite_13.jpg"" style=""width:8cm; height:4.95cm;""><p>What type of rock is this?</p>","5","class_response","1","test","23","Pegmatite","Pegmatite","13","true","6","6","",""
"","","","","","","","","","","","html-keyboard-response","250","2.0.0","1046077","66327a37b492ebe7bdaa5f69","1","20","null","","","","","","","","","<p style='font-size: 30px;'><strong>Okay</strong></p>","null","neutral_feedback","1","test","23","","","","","","","",""
"","","","","","","","","","","","html-button-response","251","2.0.0","1049045","66327a37b492ebe7bdaa5f69","1","20","2966","","","","","","","","","<img src= ""rock_img/I_Andesite_03.jpg"" style=""width:8cm; height:5.73cm;""><p>What type of rock is this?</p>","0","class_response","1","test","24","Andesite","Andesite","03","true","1","1","",""
"","","","","","","","","","","","html-keyboard-response","252","2.0.0","1049555","66327a37b492ebe7bdaa5f69","1","20","null","","","","","","","","","<p style='font-size: 30px;'><strong>Okay</strong></p>","null","neutral_feedback","1","test","24","","","","","","","",""
"","","","","","","","","","","","html-button-response","253","2.0.0","1054364","66327a37b492ebe7bdaa5f69","1","20","4807","","","","","","","","","<img src= ""rock_img/I_Basalt_10.jpg"" style=""width:8cm; height:5.85cm;""><p>What type of rock is this?</p>","1","class_response","1","test","25","Basalt","Basalt","10","true","2","2","",""
"","","","","","","","","","","","html-keyboard-response","254","2.0.0","1054878","66327a37b492ebe7bdaa5f69","1","20","null","","","","","","","","","<p style='font-size: 30px;'><strong>Okay</strong></p>","null","neutral_feedback","1","test","25","","","","","","","",""
"","","","","","","","","","","","html-button-response","255","2.0.0","1057287","66327a37b492ebe7bdaa5f69","1","20","2408","","","","","","","","","<img src= ""rock_img/I_Basalt_06.jpg"" style=""width:8cm; height:7.06cm;""><p>What type of rock is this?</p>","1","class_response","1","test","26","Basalt","Basalt","06","true","2","2","",""
"","","","","","","","","","","","html-keyboard-response","256","2.0.0","1057802","66327a37b492ebe7bdaa5f69","1","20","null","","","","","","","","","<p style='font-size: 30px;'><strong>Okay</strong></p>","null","neutral_feedback","1","test","26","","","","","","","",""
"","","","","","","","","","","","html-button-response","257","2.0.0","1059867","66327a37b492ebe7bdaa5f69","1","20","2063","","","","","","","","","<img src= ""rock_img/I_Basalt_08.jpg"" style=""width:8cm; height:10.44cm;""><p>What type of rock is this?</p>","1","class_response","1","test","27","Basalt","Basalt","08","true","2","2","",""
"","","","","","","","","","","","html-keyboard-response","258","2.0.0","1060380","66327a37b492ebe7bdaa5f69","1","20","null","","","","","","","","","<p style='font-size: 30px;'><strong>Okay</strong></p>","null","neutral_feedback","1","test","27","","","","","","","",""
"","","","","","","","","","","","html-button-response","259","2.0.0","1070668","66327a37b492ebe7bdaa5f69","1","20","10285","","","","","","","","","<img src= ""rock_img/I_Peridotite_16.jpg"" style=""width:8cm; height:6.989999999999999cm;""><p>What type of rock is this?</p>","3","class_response","1","test","28","Gabbro","Peridotite","16","false","4","7","",""
"","","","","","","","","","","","html-keyboard-response","260","2.0.0","1071180","66327a37b492ebe7bdaa5f69","1","20","null","","","","","","","","","<p style='font-size: 30px;'><strong>Okay</strong></p>","null","neutral_feedback","1","test","28","","","","","","","",""
"","","","","","","","","","","","html-button-response","261","2.0.0","1076120","66327a37b492ebe7bdaa5f69","1","20","4939","","","","","","","","","<img src= ""rock_img/I_Basalt_02.jpg"" style=""width:8cm; height:6.45cm;""><p>What type of rock is this?</p>","3","class_response","1","test","29","Gabbro","Basalt","02","false","4","2","",""
"","","","","","","","","","","","html-keyboard-response","262","2.0.0","1076633","66327a37b492ebe7bdaa5f69","1","20","null","","","","","","","","","<p style='font-size: 30px;'><strong>Okay</strong></p>","null","neutral_feedback","1","test","29","","","","","","","",""
"","","","","","","","","","","","html-button-response","263","2.0.0","1079395","66327a37b492ebe7bdaa5f69","1","20","2760","","","","","","","","","<img src= ""rock_img/I_Diorite_06.jpg"" style=""width:8cm; height:6.03cm;""><p>What type of rock is this?</p>","6","class_response","1","test","30","Peridotite","Diorite","06","false","7","3","",""
"","","","","","","","","","","","html-keyboard-response","264","2.0.0","1079906","66327a37b492ebe7bdaa5f69","1","20","null","","","","","","","","","<p style='font-size: 30px;'><strong>Okay</strong></p>","null","neutral_feedback","1","test","30","","","","","","","",""
"","","","","","","","","","","","html-button-response","265","2.0.0","1082740","66327a37b492ebe7bdaa5f69","1","20","2832","","","","","","","","","<img src= ""rock_img/I_Andesite_06.jpg"" style=""width:8cm; height:6.840000000000001cm;""><p>What type of rock is this?</p>","0","class_response","1","test","31","Andesite","Andesite","06","true","1","1","",""
"","","","","","","","","","","","html-keyboard-response","266","2.0.0","1083252","66327a37b492ebe7bdaa5f69","1","20","null","","","","","","","","","<p style='font-size: 30px;'><strong>Okay</strong></p>","null","neutral_feedback","1","test","31","","","","","","","",""
"","","","","","","","","","","","html-button-response","267","2.0.0","1085918","66327a37b492ebe7bdaa5f69","1","20","2664","","","","","","","","","<img src= ""rock_img/I_Pumice_06.jpg"" style=""width:8cm; height:6.9399999999999995cm;""><p>What type of rock is this?</p>","7","class_response","1","test","32","Pumice","Pumice","06","true","8","8","",""
"","","","","","","","","","","","html-keyboard-response","268","2.0.0","1086430","66327a37b492ebe7bdaa5f69","1","20","null","","","","","","","","","<p style='font-size: 30px;'><strong>Okay</strong></p>","null","neutral_feedback","1","test","32","","","","","","","",""
"","","","","","","","","","","","html-button-response","269","2.0.0","1091042","66327a37b492ebe7bdaa5f69","1","20","4609","","","","","","","","","<img src= ""rock_img/I_Peridotite_12.jpg"" style=""width:8cm; height:4.54cm;""><p>What type of rock is this?</p>","5","class_response","1","test","33","Pegmatite","Peridotite","12","false","6","7","",""
"","","","","","","","","","","","html-keyboard-response","270","2.0.0","1091551","66327a37b492ebe7bdaa5f69","1","20","null","","","","","","","","","<p style='font-size: 30px;'><strong>Okay</strong></p>","null","neutral_feedback","1","test","33","","","","","","","",""
"","","","","","","","","","","","html-button-response","271","2.0.0","1093202","66327a37b492ebe7bdaa5f69","1","20","1649","","","","","","","","","<img src= ""rock_img/I_Pumice_14.jpg"" style=""width:8cm; height:6.39cm;""><p>What type of rock is this?</p>","7","class_response","1","test","34","Pumice","Pumice","14","true","8","8","",""
"","","","","","","","","","","","html-keyboard-response","272","2.0.0","1093715","66327a37b492ebe7bdaa5f69","1","20","null","","","","","","","","","<p style='font-size: 30px;'><strong>Okay</strong></p>","null","neutral_feedback","1","test","34","","","","","","","",""
"","","","","","","","","","","","html-button-response","273","2.0.0","1097220","66327a37b492ebe7bdaa5f69","1","20","3503","","","","","","","","","<img src= ""rock_img/I_Andesite_09.jpg"" style=""width:8cm; height:6cm;""><p>What type of rock is this?</p>","0","class_response","1","test","35","Andesite","Andesite","09","true","1","1","",""
"","","","","","","","","","","","html-keyboard-response","274","2.0.0","1097732","66327a37b492ebe7bdaa5f69","1","20","null","","","","","","","","","<p style='font-size: 30px;'><strong>Okay</strong></p>","null","neutral_feedback","1","test","35","","","","","","","",""
"","","","","","","","","","","","html-button-response","275","2.0.0","1099398","66327a37b492ebe7bdaa5f69","1","20","1664","","","","","","","","","<img src= ""rock_img/I_Obsidian_12.jpg"" style=""width:8cm; height:6.53cm;""><p>What type of rock is this?</p>","4","class_response","1","test","36","Obsidian","Obsidian","12","true","5","5","",""
"","","","","","","","","","","","html-keyboard-response","276","2.0.0","1099910","66327a37b492ebe7bdaa5f69","1","20","null","","","","","","","","","<p style='font-size: 30px;'><strong>Okay</strong></p>","null","neutral_feedback","1","test","36","","","","","","","",""
"","","","","","","","","","","","html-button-response","277","2.0.0","1105207","66327a37b492ebe7bdaa5f69","1","20","5295","","","","","","","","","<img src= ""rock_img/I_Gabbro_12.jpg"" style=""width:8cm; height:7.800000000000001cm;""><p>What type of rock is this?</p>","3","class_response","1","test","37","Gabbro","Gabbro","12","true","4","4","",""
"","","","","","","","","","","","html-keyboard-response","278","2.0.0","1105717","66327a37b492ebe7bdaa5f69","1","20","null","","","","","","","","","<p style='font-size: 30px;'><strong>Okay</strong></p>","null","neutral_feedback","1","test","37","","","","","","","",""
"","","","","","","","","","","","html-button-response","279","2.0.0","1113923","66327a37b492ebe7bdaa5f69","1","20","8204","","","","","","","","","<img src= ""rock_img/I_Pegmatite_11.jpg"" style=""width:8cm; height:8.14cm;""><p>What type of rock is this?</p>","5","class_response","1","test","38","Pegmatite","Pegmatite","11","true","6","6","",""
"","","","","","","","","","","","html-keyboard-response","280","2.0.0","1114435","66327a37b492ebe7bdaa5f69","1","20","null","","","","","","","","","<p style='font-size: 30px;'><strong>Okay</strong></p>","null","neutral_feedback","1","test","38","","","","","","","",""
"","","","","","","","","","","","html-button-response","281","2.0.0","1116038","66327a37b492ebe7bdaa5f69","1","20","1601","","","","","","","","","<img src= ""rock_img/I_Obsidian_10.jpg"" style=""width:8cm; height:6.260000000000001cm;""><p>What type of rock is this?</p>","4","class_response","1","test","39","Obsidian","Obsidian","10","true","5","5","",""
"","","","","","","","","","","","html-keyboard-response","282","2.0.0","1116549","66327a37b492ebe7bdaa5f69","1","20","null","","","","","","","","","<p style='font-size: 30px;'><strong>Okay</strong></p>","null","neutral_feedback","1","test","39","","","","","","","",""
"","","","","","","","","","","","html-button-response","283","2.0.0","1117625","66327a37b492ebe7bdaa5f69","1","20","1074","","","","","","","","","<img src= ""rock_img/I_Obsidian_02.jpg"" style=""width:8cm; height:7.51cm;""><p>What type of rock is this?</p>","4","class_response","1","test","40","Obsidian","Obsidian","02","true","5","5","",""
"","","","","","","","","","","","html-keyboard-response","284","2.0.0","1118134","66327a37b492ebe7bdaa5f69","1","20","null","","","","","","","","","<p style='font-size: 30px;'><strong>Okay</strong></p>","null","neutral_feedback","1","test","40","","","","","","","",""
"","","","","","","","","","","","html-button-response","285","2.0.0","1120479","66327a37b492ebe7bdaa5f69","1","20","2343","","","","","","","","","<img src= ""rock_img/I_Pumice_02.jpg"" style=""width:8cm; height:7.3999999999999995cm;""><p>What type of rock is this?</p>","7","class_response","1","test","41","Pumice","Pumice","02","true","8","8","",""
"","","","","","","","","","","","html-keyboard-response","286","2.0.0","1120990","66327a37b492ebe7bdaa5f69","1","20","null","","","","","","","","","<p style='font-size: 30px;'><strong>Okay</strong></p>","null","neutral_feedback","1","test","41","","","","","","","",""
"","","","","","","","","","","","html-button-response","287","2.0.0","1124559","66327a37b492ebe7bdaa5f69","1","20","3568","","","","","","","","","<img src= ""rock_img/I_Andesite_14.jpg"" style=""width:8cm; height:5.449999999999999cm;""><p>What type of rock is this?</p>","5","class_response","1","test","42","Pegmatite","Andesite","14","false","6","1","",""
"","","","","","","","","","","","html-keyboard-response","288","2.0.0","1125069","66327a37b492ebe7bdaa5f69","1","20","null","","","","","","","","","<p style='font-size: 30px;'><strong>Okay</strong></p>","null","neutral_feedback","1","test","42","","","","","","","",""
"","","","","","","","","","","","html-button-response","289","2.0.0","1128172","66327a37b492ebe7bdaa5f69","1","20","3102","","","","","","","","","<img src= ""rock_img/I_Pumice_13.jpg"" style=""width:8cm; height:8.200000000000001cm;""><p>What type of rock is this?</p>","7","class_response","1","test","43","Pumice","Pumice","13","true","8","8","",""
"","","","","","","","","","","","html-keyboard-response","290","2.0.0","1128687","66327a37b492ebe7bdaa5f69","1","20","null","","","","","","","","","<p style='font-size: 30px;'><strong>Okay</strong></p>","null","neutral_feedback","1","test","43","","","","","","","",""
"","","","","","","","","","","","html-button-response","291","2.0.0","1131578","66327a37b492ebe7bdaa5f69","1","20","2890","","","","","","","","","<img src= ""rock_img/I_Pumice_16.jpg"" style=""width:8cm; height:6.79cm;""><p>What type of rock is this?</p>","7","class_response","1","test","44","Pumice","Pumice","16","true","8","8","",""
"","","","","","","","","","","","html-keyboard-response","292","2.0.0","1132090","66327a37b492ebe7bdaa5f69","1","20","null","","","","","","","","","<p style='font-size: 30px;'><strong>Okay</strong></p>","null","neutral_feedback","1","test","44","","","","","","","",""
"","","","","","","","","","","","html-button-response","293","2.0.0","1133854","66327a37b492ebe7bdaa5f69","1","20","1761","","","","","","","","","<img src= ""rock_img/I_Obsidian_11.jpg"" style=""width:8cm; height:6.05cm;""><p>What type of rock is this?</p>","4","class_response","1","test","45","Obsidian","Obsidian","11","true","5","5","",""
"","","","","","","","","","","","html-keyboard-response","294","2.0.0","1134367","66327a37b492ebe7bdaa5f69","1","20","null","","","","","","","","","<p style='font-size: 30px;'><strong>Okay</strong></p>","null","neutral_feedback","1","test","45","","","","","","","",""
"","","","","","","","","","","","html-button-response","295","2.0.0","1136246","66327a37b492ebe7bdaa5f69","1","20","1877","","","","","","","","","<img src= ""rock_img/I_Obsidian_16.jpg"" style=""width:8cm; height:9.3cm;""><p>What type of rock is this?</p>","4","class_response","1","test","46","Obsidian","Obsidian","16","true","5","5","",""
"","","","","","","","","","","","html-keyboard-response","296","2.0.0","1136759","66327a37b492ebe7bdaa5f69","1","20","null","","","","","","","","","<p style='font-size: 30px;'><strong>Okay</strong></p>","null","neutral_feedback","1","test","46","","","","","","","",""
"","","","","","","","","","","","html-button-response","297","2.0.0","1142662","66327a37b492ebe7bdaa5f69","1","20","5902","","","","","","","","","<img src= ""rock_img/I_Peridotite_07.jpg"" style=""width:8cm; height:4.83cm;""><p>What type of rock is this?</p>","1","class_response","1","test","47","Basalt","Peridotite","07","false","2","7","",""
"","","","","","","","","","","","html-keyboard-response","298","2.0.0","1143173","66327a37b492ebe7bdaa5f69","1","20","null","","","","","","","","","<p style='font-size: 30px;'><strong>Okay</strong></p>","null","neutral_feedback","1","test","47","","","","","","","",""
"","","","","","","","","","","","html-button-response","299","2.0.0","1148429","66327a37b492ebe7bdaa5f69","1","20","5254","","","","","","","","","<img src= ""rock_img/I_Gabbro_09.jpg"" style=""width:8cm; height:7.279999999999999cm;""><p>What type of rock is this?</p>","1","class_response","1","test","48","Basalt","Gabbro","09","false","2","4","",""
"","","","","","","","","","","","html-keyboard-response","300","2.0.0","1148939","66327a37b492ebe7bdaa5f69","1","20","null","","","","","","","","","<p style='font-size: 30px;'><strong>Okay</strong></p>","null","neutral_feedback","1","test","48","","","","","","","",""
"","","","","","","","","","","","html-button-response","301","2.0.0","1180909","66327a37b492ebe7bdaa5f69","1","20","","","","","","","","","","","","cycle_feedback","","","","","","","","","","15193.60000000149","16770"
"","","","","","","","","","","","html-button-response","303","2.0.0","1183174","66327a37b492ebe7bdaa5f69","1","20","2262","","","","","","","","","","0","start_train","","","","","","","","","","",""
"","","","","","","","","","","","html-button-response","304","2.0.0","1191394","66327a37b492ebe7bdaa5f69","1","20","8217","","","","","","","","","<img src= ""rock_img/I_Andesite_01.jpg"" style=""width:8cm; height:5.87cm;""><p>What type of rock is this?</p>","1","class_response","2","train","1","Basalt","Andesite","01","false","2","1","",""
