"width","height","webaudio","browser","browser_version","mobile","os","fullscreen","vsync_rate","webcam","microphone","trial_type","trial_index","plugin_version","time_elapsed","subjID","condition","stimID","rt","url","success","value","timeout","failed_images","failed_audio","failed_video","view_history","stimulus","response","trialType","cycle","phase","trial","resp","cat","token","corr","resp_num","cat_num","time_fb1","time_fb2"
"1187","547","true","chrome","130.0.0","false","Chrome OS","true","60.98","false","true","browser-check","0","2.0.0","1006","663363b0b60a322fa3657dbf","1","7","","","","","","","","","","","","","","","","","","","","","","",""
"","","","","","","","","","","","external-html","1","2.0.0","12778","663363b0b60a322fa3657dbf","1","7","11615","consent_form.html","","","","","","","","","","","","","","","","","","","","",""
"","","","","","","","","","","","fullscreen","2","2.0.0","15982","663363b0b60a322fa3657dbf","1","7","2197","","true","","","","","","","","","","","","","","","","","","","",""
"","","","","","","","","","","","call-function","3","2.0.0","15990","663363b0b60a322fa3657dbf","1","7","","","","{}","","","","","","","","","","","","","","","","","","",""
"","","","","","","","","","","","preload","4","2.0.0","82361","663363b0b60a322fa3657dbf","1","7","","","true","","false","[]","[]","[]","","","","","","","","","","","","","","",""
"","","","","","","","","","","","instructions","5","2.0.0","130949","663363b0b60a322fa3657dbf","1","7","48582","","","","","","","","[{""page_index"":0,""viewing_time"":11976},{""page_index"":1,""viewing_time"":24195},{""page_index"":2,""viewing_time"":12411}]","","","","","","","","","","","","","",""
"","","","","","","","","","","","html-button-response","6","2.0.0","135002","663363b0b60a322fa3657dbf","1","7","4050","","","","","","","","","","0","start_test","","","","","","","","","","",""
"","","","","","","","","","","","html-button-response","7","2.0.0","138362","663363b0b60a322fa3657dbf","1","7","3356","","","","","","","","","<img src= ""rock_img/I_Obsidian_12.jpg"" style=""width:8cm; height:6.53cm;""><p>What type of rock is this?</p>","4","class_response","0","test","1","Obsidian","Obsidian","12","true","5","5","",""
"","","","","","","","","","","","html-keyboard-response","8","2.0.0","138866","663363b0b60a322fa3657dbf","1","7","null","","","","","","","","","<p style='font-size: 30px;'><strong>Okay</strong></p>","null","neutral_feedback","0","test","1","","","","","","","",""
"","","","","","","","","","","","html-button-response","9","2.0.0","145611","663363b0b60a322fa3657dbf","1","7","6739","","","","","","","","","<img src= ""rock_img/I_Pegmatite_16.jpg"" style=""width:8cm; height:5.8cm;""><p>What type of rock is this?</p>","3","class_response","0","test","2","Gabbro","Pegmatite","16","false","4","6","",""
"","","","","","","","","","","","html-keyboard-response","10","2.0.0","146113","663363b0b60a322fa3657dbf","1","7","null","","","","","","","","","<p style='font-size: 30px;'><strong>Okay</strong></p>","null","neutral_feedback","0","test","2","","","","","","","",""
"","","","","","","","","","","","html-button-response","11","2.0.0","149567","663363b0b60a322fa3657dbf","1","7","3451","","","","","","","","","<img src= ""rock_img/I_Andesite_16.jpg"" style=""width:8cm; height:6.010000000000001cm;""><p>What type of rock is this?</p>","2","class_response","0","test","3","Diorite","Andesite","16","false","3","1","",""
"","","","","","","","","","","","html-keyboard-response","12","2.0.0","150070","663363b0b60a322fa3657dbf","1","7","null","","","","","","","","","<p style='font-size: 30px;'><strong>Okay</strong></p>","null","neutral_feedback","0","test","3","","","","","","","",""
"","","","","","","","","","","","html-button-response","13","2.0.0","155520","663363b0b60a322fa3657dbf","1","7","5445","","","","","","","","","<img src= ""rock_img/I_Pegmatite_09.jpg"" style=""width:8cm; height:4.03cm;""><p>What type of rock is this?</p>","6","class_response","0","test","4","Peridotite","Pegmatite","09","false","7","6","",""
"","","","","","","","","","","","html-keyboard-response","14","2.0.0","156022","663363b0b60a322fa3657dbf","1","7","null","","","","","","","","","<p style='font-size: 30px;'><strong>Okay</strong></p>","null","neutral_feedback","0","test","4","","","","","","","",""
"","","","","","","","","","","","html-button-response","15","2.0.0","162136","663363b0b60a322fa3657dbf","1","7","6109","","","","","","","","","<img src= ""rock_img/I_Gabbro_13.jpg"" style=""width:8cm; height:5.08cm;""><p>What type of rock is this?</p>","0","class_response","0","test","5","Andesite","Gabbro","13","false","1","4","",""
"","","","","","","","","","","","html-keyboard-response","16","2.0.0","162639","663363b0b60a322fa3657dbf","1","7","null","","","","","","","","","<p style='font-size: 30px;'><strong>Okay</strong></p>","null","neutral_feedback","0","test","5","","","","","","","",""
"","","","","","","","","","","","html-button-response","17","2.0.0","164380","663363b0b60a322fa3657dbf","1","7","1736","","","","","","","","","<img src= ""rock_img/I_Gabbro_09.jpg"" style=""width:8cm; height:7.279999999999999cm;""><p>What type of rock is this?</p>","7","class_response","0","test","6","Pumice","Gabbro","09","false","8","4","",""
"","","","","","","","","","","","html-keyboard-response","18","2.0.0","164882","663363b0b60a322fa3657dbf","1","7","null","","","","","","","","","<p style='font-size: 30px;'><strong>Okay</strong></p>","null","neutral_feedback","0","test","6","","","","","","","",""
"","","","","","","","","","","","html-button-response","19","2.0.0","171660","663363b0b60a322fa3657dbf","1","7","6774","","","","","","","","","<img src= ""rock_img/I_Peridotite_05.jpg"" style=""width:8cm; height:7.1499999999999995cm;""><p>What type of rock is this?</p>","1","class_response","0","test","7","Basalt","Peridotite","05","false","2","7","",""
"","","","","","","","","","","","html-keyboard-response","20","2.0.0","172163","663363b0b60a322fa3657dbf","1","7","null","","","","","","","","","<p style='font-size: 30px;'><strong>Okay</strong></p>","null","neutral_feedback","0","test","7","","","","","","","",""
"","","","","","","","","","","","html-button-response","21","2.0.0","177862","663363b0b60a322fa3657dbf","1","7","5695","","","","","","","","","<img src= ""rock_img/I_Pegmatite_13.jpg"" style=""width:8cm; height:4.95cm;""><p>What type of rock is this?</p>","0","class_response","0","test","8","Andesite","Pegmatite","13","false","1","6","",""
"","","","","","","","","","","","html-keyboard-response","22","2.0.0","178364","663363b0b60a322fa3657dbf","1","7","null","","","","","","","","","<p style='font-size: 30px;'><strong>Okay</strong></p>","null","neutral_feedback","0","test","8","","","","","","","",""
"","","","","","","","","","","","html-button-response","23","2.0.0","181842","663363b0b60a322fa3657dbf","1","7","3476","","","","","","","","","<img src= ""rock_img/I_Pegmatite_11.jpg"" style=""width:8cm; height:8.14cm;""><p>What type of rock is this?</p>","4","class_response","0","test","9","Obsidian","Pegmatite","11","false","5","6","",""
"","","","","","","","","","","","html-keyboard-response","24","2.0.0","182345","663363b0b60a322fa3657dbf","1","7","null","","","","","","","","","<p style='font-size: 30px;'><strong>Okay</strong></p>","null","neutral_feedback","0","test","9","","","","","","","",""
"","","","","","","","","","","","html-button-response","25","2.0.0","184343","663363b0b60a322fa3657dbf","1","7","1994","","","","","","","","","<img src= ""rock_img/I_Diorite_06.jpg"" style=""width:8cm; height:6.03cm;""><p>What type of rock is this?</p>","7","class_response","0","test","10","Pumice","Diorite","06","false","8","3","",""
"","","","","","","","","","","","html-keyboard-response","26","2.0.0","184846","663363b0b60a322fa3657dbf","1","7","null","","","","","","","","","<p style='font-size: 30px;'><strong>Okay</strong></p>","null","neutral_feedback","0","test","10","","","","","","","",""
"","","","","","","","","","","","html-button-response","27","2.0.0","187127","663363b0b60a322fa3657dbf","1","7","2277","","","","","","","","","<img src= ""rock_img/I_Pegmatite_05.jpg"" style=""width:8cm; height:7.300000000000001cm;""><p>What type of rock is this?</p>","3","class_response","0","test","11","Gabbro","Pegmatite","05","false","4","6","",""
"","","","","","","","","","","","html-keyboard-response","28","2.0.0","187629","663363b0b60a322fa3657dbf","1","7","null","","","","","","","","","<p style='font-size: 30px;'><strong>Okay</strong></p>","null","neutral_feedback","0","test","11","","","","","","","",""
"","","","","","","","","","","","html-button-response","29","2.0.0","189008","663363b0b60a322fa3657dbf","1","7","1374","","","","","","","","","<img src= ""rock_img/I_Diorite_13.jpg"" style=""width:8cm; height:6.29cm;""><p>What type of rock is this?</p>","7","class_response","0","test","12","Pumice","Diorite","13","false","8","3","",""
"","","","","","","","","","","","html-keyboard-response","30","2.0.0","189510","663363b0b60a322fa3657dbf","1","7","null","","","","","","","","","<p style='font-size: 30px;'><strong>Okay</strong></p>","null","neutral_feedback","0","test","12","","","","","","","",""
"","","","","","","","","","","","html-button-response","31","2.0.0","193125","663363b0b60a322fa3657dbf","1","7","3611","","","","","","","","","<img src= ""rock_img/I_Andesite_09.jpg"" style=""width:8cm; height:6cm;""><p>What type of rock is this?</p>","2","class_response","0","test","13","Diorite","Andesite","09","false","3","1","",""
"","","","","","","","","","","","html-keyboard-response","32","2.0.0","193627","663363b0b60a322fa3657dbf","1","7","null","","","","","","","","","<p style='font-size: 30px;'><strong>Okay</strong></p>","null","neutral_feedback","0","test","13","","","","","","","",""
"","","","","","","","","","","","html-button-response","33","2.0.0","195084","663363b0b60a322fa3657dbf","1","7","1453","","","","","","","","","<img src= ""rock_img/I_Obsidian_16.jpg"" style=""width:8cm; height:9.3cm;""><p>What type of rock is this?</p>","4","class_response","0","test","14","Obsidian","Obsidian","16","true","5","5","",""
"","","","","","","","","","","","html-keyboard-response","34","2.0.0","195586","663363b0b60a322fa3657dbf","1","7","null","","","","","","","","","<p style='font-size: 30px;'><strong>Okay</strong></p>","null","neutral_feedback","0","test","14","","","","","","","",""
"","","","","","","","","","","","html-button-response","35","2.0.0","196882","663363b0b60a322fa3657dbf","1","7","1291","","","","","","","","","<img src= ""rock_img/I_Gabbro_03.jpg"" style=""width:8cm; height:8.52cm;""><p>What type of rock is this?</p>","5","class_response","0","test","15","Pegmatite","Gabbro","03","false","6","4","",""
"","","","","","","","","","","","html-keyboard-response","36","2.0.0","197384","663363b0b60a322fa3657dbf","1","7","null","","","","","","","","","<p style='font-size: 30px;'><strong>Okay</strong></p>","null","neutral_feedback","0","test","15","","","","","","","",""
"","","","","","","","","","","","html-button-response","37","2.0.0","199759","663363b0b60a322fa3657dbf","1","7","2370","","","","","","","","","<img src= ""rock_img/I_Peridotite_16.jpg"" style=""width:8cm; height:6.989999999999999cm;""><p>What type of rock is this?</p>","6","class_response","0","test","16","Peridotite","Peridotite","16","true","7","7","",""
"","","","","","","","","","","","html-keyboard-response","38","2.0.0","200261","663363b0b60a322fa3657dbf","1","7","null","","","","","","","","","<p style='font-size: 30px;'><strong>Okay</strong></p>","null","neutral_feedback","0","test","16","","","","","","","",""
"","","","","","","","","","","","html-button-response","39","2.0.0","201727","663363b0b60a322fa3657dbf","1","7","1461","","","","","","","","","<img src= ""rock_img/I_Peridotite_14.jpg"" style=""width:8cm; height:5.3cm;""><p>What type of rock is this?</p>","3","class_response","0","test","17","Gabbro","Peridotite","14","false","4","7","",""
"","","","","","","","","","","","html-keyboard-response","40","2.0.0","202229","663363b0b60a322fa3657dbf","1","7","null","","","","","","","","","<p style='font-size: 30px;'><strong>Okay</strong></p>","null","neutral_feedback","0","test","17","","","","","","","",""
"","","","","","","","","","","","html-button-response","41","2.0.0","204260","663363b0b60a322fa3657dbf","1","7","2028","","","","","","","","","<img src= ""rock_img/I_Pumice_02.jpg"" style=""width:8cm; height:7.3999999999999995cm;""><p>What type of rock is this?</p>","7","class_response","0","test","18","Pumice","Pumice","02","true","8","8","",""
"","","","","","","","","","","","html-keyboard-response","42","2.0.0","204762","663363b0b60a322fa3657dbf","1","7","null","","","","","","","","","<p style='font-size: 30px;'><strong>Okay</strong></p>","null","neutral_feedback","0","test","18","","","","","","","",""
"","","","","","","","","","","","html-button-response","43","2.0.0","205943","663363b0b60a322fa3657dbf","1","7","1176","","","","","","","","","<img src= ""rock_img/I_Pumice_03.jpg"" style=""width:8cm; height:6.64cm;""><p>What type of rock is this?</p>","7","class_response","0","test","19","Pumice","Pumice","03","true","8","8","",""
"","","","","","","","","","","","html-keyboard-response","44","2.0.0","206445","663363b0b60a322fa3657dbf","1","7","null","","","","","","","","","<p style='font-size: 30px;'><strong>Okay</strong></p>","null","neutral_feedback","0","test","19","","","","","","","",""
"","","","","","","","","","","","html-button-response","45","2.0.0","207588","663363b0b60a322fa3657dbf","1","7","1138","","","","","","","","","<img src= ""rock_img/I_Pumice_08.jpg"" style=""width:8cm; height:6.67cm;""><p>What type of rock is this?</p>","7","class_response","0","test","20","Pumice","Pumice","08","true","8","8","",""
"","","","","","","","","","","","html-keyboard-response","46","2.0.0","208090","663363b0b60a322fa3657dbf","1","7","null","","","","","","","","","<p style='font-size: 30px;'><strong>Okay</strong></p>","null","neutral_feedback","0","test","20","","","","","","","",""
"","","","","","","","","","","","html-button-response","47","2.0.0","211270","663363b0b60a322fa3657dbf","1","7","3176","","","","","","","","","<img src= ""rock_img/I_Pegmatite_07.jpg"" style=""width:8cm; height:6.7cm;""><p>What type of rock is this?</p>","0","class_response","0","test","21","Andesite","Pegmatite","07","false","1","6","",""
"","","","","","","","","","","","html-keyboard-response","48","2.0.0","211773","663363b0b60a322fa3657dbf","1","7","null","","","","","","","","","<p style='font-size: 30px;'><strong>Okay</strong></p>","null","neutral_feedback","0","test","21","","","","","","","",""
"","","","","","","","","","","","html-button-response","49","2.0.0","213248","663363b0b60a322fa3657dbf","1","7","1472","","","","","","","","","<img src= ""rock_img/I_Gabbro_15.jpg"" style=""width:8cm; height:6.29cm;""><p>What type of rock is this?</p>","3","class_response","0","test","22","Gabbro","Gabbro","15","true","4","4","",""
"","","","","","","","","","","","html-keyboard-response","50","2.0.0","213750","663363b0b60a322fa3657dbf","1","7","null","","","","","","","","","<p style='font-size: 30px;'><strong>Okay</strong></p>","null","neutral_feedback","0","test","22","","","","","","","",""
"","","","","","","","","","","","html-button-response","51","2.0.0","216252","663363b0b60a322fa3657dbf","1","7","2499","","","","","","","","","<img src= ""rock_img/I_Basalt_06.jpg"" style=""width:8cm; height:7.06cm;""><p>What type of rock is this?</p>","7","class_response","0","test","23","Pumice","Basalt","06","false","8","2","",""
"","","","","","","","","","","","html-keyboard-response","52","2.0.0","216754","663363b0b60a322fa3657dbf","1","7","null","","","","","","","","","<p style='font-size: 30px;'><strong>Okay</strong></p>","null","neutral_feedback","0","test","23","","","","","","","",""
"","","","","","","","","","","","html-button-response","53","2.0.0","217782","663363b0b60a322fa3657dbf","1","7","1024","","","","","","","","","<img src= ""rock_img/I_Peridotite_10.jpg"" style=""width:8cm; height:5.390000000000001cm;""><p>What type of rock is this?</p>","7","class_response","0","test","24","Pumice","Peridotite","10","false","8","7","",""
"","","","","","","","","","","","html-keyboard-response","54","2.0.0","218285","663363b0b60a322fa3657dbf","1","7","null","","","","","","","","","<p style='font-size: 30px;'><strong>Okay</strong></p>","null","neutral_feedback","0","test","24","","","","","","","",""
"","","","","","","","","","","","html-button-response","55","2.0.0","219767","663363b0b60a322fa3657dbf","1","7","1477","","","","","","","","","<img src= ""rock_img/I_Pumice_15.jpg"" style=""width:8cm; height:7.86cm;""><p>What type of rock is this?</p>","7","class_response","0","test","25","Pumice","Pumice","15","true","8","8","",""
"","","","","","","","","","","","html-keyboard-response","56","2.0.0","220269","663363b0b60a322fa3657dbf","1","7","null","","","","","","","","","<p style='font-size: 30px;'><strong>Okay</strong></p>","null","neutral_feedback","0","test","25","","","","","","","",""
"","","","","","","","","","","","html-button-response","57","2.0.0","222058","663363b0b60a322fa3657dbf","1","7","1784","","","","","","","","","<img src= ""rock_img/I_Diorite_11.jpg"" style=""width:8cm; height:7.11cm;""><p>What type of rock is this?</p>","2","class_response","0","test","26","Diorite","Diorite","11","true","3","3","",""
"","","","","","","","","","","","html-keyboard-response","58","2.0.0","222560","663363b0b60a322fa3657dbf","1","7","null","","","","","","","","","<p style='font-size: 30px;'><strong>Okay</strong></p>","null","neutral_feedback","0","test","26","","","","","","","",""
"","","","","","","","","","","","html-button-response","59","2.0.0","223422","663363b0b60a322fa3657dbf","1","7","858","","","","","","","","","<img src= ""rock_img/I_Peridotite_02.jpg"" style=""width:8cm; height:5.859999999999999cm;""><p>What type of rock is this?</p>","1","class_response","0","test","27","Basalt","Peridotite","02","false","2","7","",""
"","","","","","","","","","","","html-keyboard-response","60","2.0.0","223925","663363b0b60a322fa3657dbf","1","7","null","","","","","","","","","<p style='font-size: 30px;'><strong>Okay</strong></p>","null","neutral_feedback","0","test","27","","","","","","","",""
"","","","","","","","","","","","html-button-response","61","2.0.0","226051","663363b0b60a322fa3657dbf","1","7","2120","","","","","","","","","<img src= ""rock_img/I_Diorite_08.jpg"" style=""width:8cm; height:6.37cm;""><p>What type of rock is this?</p>","7","class_response","0","test","28","Pumice","Diorite","08","false","8","3","",""
"","","","","","","","","","","","html-keyboard-response","62","2.0.0","226554","663363b0b60a322fa3657dbf","1","7","null","","","","","","","","","<p style='font-size: 30px;'><strong>Okay</strong></p>","null","neutral_feedback","0","test","28","","","","","","","",""
"","","","","","","","","","","","html-button-response","63","2.0.0","229309","663363b0b60a322fa3657dbf","1","7","2750","","","","","","","","","<img src= ""rock_img/I_Andesite_14.jpg"" style=""width:8cm; height:5.449999999999999cm;""><p>What type of rock is this?</p>","5","class_response","0","test","29","Pegmatite","Andesite","14","false","6","1","",""
"","","","","","","","","","","","html-keyboard-response","64","2.0.0","229811","663363b0b60a322fa3657dbf","1","7","null","","","","","","","","","<p style='font-size: 30px;'><strong>Okay</strong></p>","null","neutral_feedback","0","test","29","","","","","","","",""
"","","","","","","","","","","","html-button-response","65","2.0.0","231249","663363b0b60a322fa3657dbf","1","7","1433","","","","","","","","","<img src= ""rock_img/I_Andesite_06.jpg"" style=""width:8cm; height:6.840000000000001cm;""><p>What type of rock is this?</p>","2","class_response","0","test","30","Diorite","Andesite","06","false","3","1","",""
"","","","","","","","","","","","html-keyboard-response","66","2.0.0","231751","663363b0b60a322fa3657dbf","1","7","null","","","","","","","","","<p style='font-size: 30px;'><strong>Okay</strong></p>","null","neutral_feedback","0","test","30","","","","","","","",""
"","","","","","","","","","","","html-button-response","67","2.0.0","233626","663363b0b60a322fa3657dbf","1","7","1873","","","","","","","","","<img src= ""rock_img/I_Basalt_02.jpg"" style=""width:8cm; height:6.45cm;""><p>What type of rock is this?</p>","6","class_response","0","test","31","Peridotite","Basalt","02","false","7","2","",""
"","","","","","","","","","","","html-keyboard-response","68","2.0.0","234129","663363b0b60a322fa3657dbf","1","7","null","","","","","","","","","<p style='font-size: 30px;'><strong>Okay</strong></p>","null","neutral_feedback","0","test","31","","","","","","","",""
"","","","","","","","","","","","html-button-response","69","2.0.0","235611","663363b0b60a322fa3657dbf","1","7","1480","","","","","","","","","<img src= ""rock_img/I_Basalt_01.jpg"" style=""width:8cm; height:7.880000000000001cm;""><p>What type of rock is this?</p>","2","class_response","0","test","32","Diorite","Basalt","01","false","3","2","",""
"","","","","","","","","","","","html-keyboard-response","70","2.0.0","236113","663363b0b60a322fa3657dbf","1","7","null","","","","","","","","","<p style='font-size: 30px;'><strong>Okay</strong></p>","null","neutral_feedback","0","test","32","","","","","","","",""
"","","","","","","","","","","","html-button-response","71","2.0.0","236985","663363b0b60a322fa3657dbf","1","7","868","","","","","","","","","<img src= ""rock_img/I_Basalt_04.jpg"" style=""width:8cm; height:7.53cm;""><p>What type of rock is this?</p>","2","class_response","0","test","33","Diorite","Basalt","04","false","3","2","",""
"","","","","","","","","","","","html-keyboard-response","72","2.0.0","237487","663363b0b60a322fa3657dbf","1","7","null","","","","","","","","","<p style='font-size: 30px;'><strong>Okay</strong></p>","null","neutral_feedback","0","test","33","","","","","","","",""
"","","","","","","","","","","","html-button-response","73","2.0.0","238752","663363b0b60a322fa3657dbf","1","7","1260","","","","","","","","","<img src= ""rock_img/I_Andesite_05.jpg"" style=""width:8cm; height:4.12cm;""><p>What type of rock is this?</p>","7","class_response","0","test","34","Pumice","Andesite","05","false","8","1","",""
"","","","","","","","","","","","html-keyboard-response","74","2.0.0","239254","663363b0b60a322fa3657dbf","1","7","null","","","","","","","","","<p style='font-size: 30px;'><strong>Okay</strong></p>","null","neutral_feedback","0","test","34","","","","","","","",""
"","","","","","","","","","","","html-button-response","75","2.0.0","241978","663363b0b60a322fa3657dbf","1","7","2720","","","","","","","","","<img src= ""rock_img/I_Peridotite_12.jpg"" style=""width:8cm; height:4.54cm;""><p>What type of rock is this?</p>","7","class_response","0","test","35","Pumice","Peridotite","12","false","8","7","",""
"","","","","","","","","","","","html-keyboard-response","76","2.0.0","242481","663363b0b60a322fa3657dbf","1","7","null","","","","","","","","","<p style='font-size: 30px;'><strong>Okay</strong></p>","null","neutral_feedback","0","test","35","","","","","","","",""
"","","","","","","","","","","","html-button-response","77","2.0.0","244182","663363b0b60a322fa3657dbf","1","7","1696","","","","","","","","","<img src= ""rock_img/I_Obsidian_09.jpg"" style=""width:8cm; height:5cm;""><p>What type of rock is this?</p>","4","class_response","0","test","36","Obsidian","Obsidian","09","true","5","5","",""
"","","","","","","","","","","","html-keyboard-response","78","2.0.0","244684","663363b0b60a322fa3657dbf","1","7","null","","","","","","","","","<p style='font-size: 30px;'><strong>Okay</strong></p>","null","neutral_feedback","0","test","36","","","","","","","",""
"","","","","","","","","","","","html-button-response","79","2.0.0","256593","663363b0b60a322fa3657dbf","1","7","11905","","","","","","","","","<img src= ""rock_img/I_Andesite_01.jpg"" style=""width:8cm; height:5.87cm;""><p>What type of rock is this?</p>","1","class_response","0","test","37","Basalt","Andesite","01","false","2","1","",""
"","","","","","","","","","","","html-keyboard-response","80","2.0.0","257095","663363b0b60a322fa3657dbf","1","7","null","","","","","","","","","<p style='font-size: 30px;'><strong>Okay</strong></p>","null","neutral_feedback","0","test","37","","","","","","","",""
"","","","","","","","","","","","html-button-response","81","2.0.0","269577","663363b0b60a322fa3657dbf","1","7","12479","","","","","","","","","<img src= ""rock_img/I_Diorite_14.jpg"" style=""width:8cm; height:5.71cm;""><p>What type of rock is this?</p>","2","class_response","0","test","38","Diorite","Diorite","14","true","3","3","",""
"","","","","","","","","","","","html-keyboard-response","82","2.0.0","270079","663363b0b60a322fa3657dbf","1","7","null","","","","","","","","","<p style='font-size: 30px;'><strong>Okay</strong></p>","null","neutral_feedback","0","test","38","","","","","","","",""
"","","","","","","","","","","","html-button-response","83","2.0.0","293519","663363b0b60a322fa3657dbf","1","7","23434","","","","","","","","","<img src= ""rock_img/I_Basalt_12.jpg"" style=""width:8cm; height:6.010000000000001cm;""><p>What type of rock is this?</p>","7","class_response","0","test","39","Pumice","Basalt","12","false","8","2","",""
"","","","","","","","","","","","html-keyboard-response","84","2.0.0","294022","663363b0b60a322fa3657dbf","1","7","null","","","","","","","","","<p style='font-size: 30px;'><strong>Okay</strong></p>","null","neutral_feedback","0","test","39","","","","","","","",""
"","","","","","","","","","","","html-button-response","85","2.0.0","298058","663363b0b60a322fa3657dbf","1","7","4032","","","","","","","","","<img src= ""rock_img/I_Gabbro_08.jpg"" style=""width:8cm; height:5.15cm;""><p>What type of rock is this?</p>","7","class_response","0","test","40","Pumice","Gabbro","08","false","8","4","",""
"","","","","","","","","","","","html-keyboard-response","86","2.0.0","298560","663363b0b60a322fa3657dbf","1","7","null","","","","","","","","","<p style='font-size: 30px;'><strong>Okay</strong></p>","null","neutral_feedback","0","test","40","","","","","","","",""
"","","","","","","","","","","","html-button-response","87","2.0.0","299967","663363b0b60a322fa3657dbf","1","7","1402","","","","","","","","","<img src= ""rock_img/I_Pumice_09.jpg"" style=""width:8cm; height:6.44cm;""><p>What type of rock is this?</p>","7","class_response","0","test","41","Pumice","Pumice","09","true","8","8","",""
"","","","","","","","","","","","html-keyboard-response","88","2.0.0","300469","663363b0b60a322fa3657dbf","1","7","null","","","","","","","","","<p style='font-size: 30px;'><strong>Okay</strong></p>","null","neutral_feedback","0","test","41","","","","","","","",""
"","","","","","","","","","","","html-button-response","89","2.0.0","301717","663363b0b60a322fa3657dbf","1","7","1244","","","","","","","","","<img src= ""rock_img/I_Obsidian_04.jpg"" style=""width:8cm; height:6.930000000000001cm;""><p>What type of rock is this?</p>","4","class_response","0","test","42","Obsidian","Obsidian","04","true","5","5","",""
"","","","","","","","","","","","html-keyboard-response","90","2.0.0","302221","663363b0b60a322fa3657dbf","1","7","null","","","","","","","","","<p style='font-size: 30px;'><strong>Okay</strong></p>","null","neutral_feedback","0","test","42","","","","","","","",""
"","","","","","","","","","","","html-button-response","91","2.0.0","321872","663363b0b60a322fa3657dbf","1","7","19649","","","","","","","","","<img src= ""rock_img/I_Gabbro_01.jpg"" style=""width:8cm; height:5.21cm;""><p>What type of rock is this?</p>","3","class_response","0","test","43","Gabbro","Gabbro","01","true","4","4","",""
"","","","","","","","","","","","html-keyboard-response","92","2.0.0","322374","663363b0b60a322fa3657dbf","1","7","null","","","","","","","","","<p style='font-size: 30px;'><strong>Okay</strong></p>","null","neutral_feedback","0","test","43","","","","","","","",""
"","","","","","","","","","","","html-button-response","93","2.0.0","323718","663363b0b60a322fa3657dbf","1","7","1339","","","","","","","","","<img src= ""rock_img/I_Obsidian_08.jpg"" style=""width:8cm; height:7.39cm;""><p>What type of rock is this?</p>","4","class_response","0","test","44","Obsidian","Obsidian","08","true","5","5","",""
"","","","","","","","","","","","html-keyboard-response","94","2.0.0","324221","663363b0b60a322fa3657dbf","1","7","null","","","","","","","","","<p style='font-size: 30px;'><strong>Okay</strong></p>","null","neutral_feedback","0","test","44","","","","","","","",""
"","","","","","","","","","","","html-button-response","95","2.0.0","354892","663363b0b60a322fa3657dbf","1","7","30668","","","","","","","","","<img src= ""rock_img/I_Basalt_16.jpg"" style=""width:8cm; height:7.659999999999999cm;""><p>What type of rock is this?</p>","5","class_response","0","test","45","Pegmatite","Basalt","16","false","6","2","",""
"","","","","","","","","","","","html-keyboard-response","96","2.0.0","355395","663363b0b60a322fa3657dbf","1","7","null","","","","","","","","","<p style='font-size: 30px;'><strong>Okay</strong></p>","null","neutral_feedback","0","test","45","","","","","","","",""
"","","","","","","","","","","","html-button-response","97","2.0.0","358963","663363b0b60a322fa3657dbf","1","7","3565","","","","","","","","","<img src= ""rock_img/I_Pumice_04.jpg"" style=""width:8cm; height:6.819999999999999cm;""><p>What type of rock is this?</p>","7","class_response","0","test","46","Pumice","Pumice","04","true","8","8","",""
"","","","","","","","","","","","html-keyboard-response","98","2.0.0","359465","663363b0b60a322fa3657dbf","1","7","null","","","","","","","","","<p style='font-size: 30px;'><strong>Okay</strong></p>","null","neutral_feedback","0","test","46","","","","","","","",""
"","","","","","","","","","","","html-button-response","99","2.0.0","392291","663363b0b60a322fa3657dbf","1","7","32823","","","","","","","","","<img src= ""rock_img/I_Diorite_09.jpg"" style=""width:8cm; height:5.27cm;""><p>What type of rock is this?</p>","2","class_response","0","test","47","Diorite","Diorite","09","true","3","3","",""
"","","","","","","","","","","","html-keyboard-response","100","2.0.0","392794","663363b0b60a322fa3657dbf","1","7","null","","","","","","","","","<p style='font-size: 30px;'><strong>Okay</strong></p>","null","neutral_feedback","0","test","47","","","","","","","",""
"","","","","","","","","","","","html-button-response","101","2.0.0","401100","663363b0b60a322fa3657dbf","1","7","8302","","","","","","","","","<img src= ""rock_img/I_Obsidian_11.jpg"" style=""width:8cm; height:6.05cm;""><p>What type of rock is this?</p>","4","class_response","0","test","48","Obsidian","Obsidian","11","true","5","5","",""
"","","","","","","","","","","","html-keyboard-response","102","2.0.0","401602","663363b0b60a322fa3657dbf","1","7","null","","","","","","","","","<p style='font-size: 30px;'><strong>Okay</strong></p>","null","neutral_feedback","0","test","48","","","","","","","",""
"","","","","","","","","","","","instructions","103","2.0.0","432957","663363b0b60a322fa3657dbf","1","7","31288","","","","","","","","[{""page_index"":0,""viewing_time"":15264},{""page_index"":1,""viewing_time"":10240},{""page_index"":2,""viewing_time"":5784}]","","","","","","","","","","","","","",""
"","","","","","","","","","","","html-button-response","104","2.0.0","436296","663363b0b60a322fa3657dbf","1","7","3336","","","","","","","","","","0","start_train","","","","","","","","","","",""
"","","","","","","","","","","","html-button-response","105","2.0.0","438270","663363b0b60a322fa3657dbf","1","7","1971","","","","","","","","","<img src= ""rock_img/I_Diorite_15.jpg"" style=""width:8cm; height:5.54cm;""><p>What type of rock is this?</p>","2","class_response","1","train","1","Diorite","Diorite","15","true","3","3","",""
"","","","","","","","","","","","html-button-response","106","2.0.0","443467","663363b0b60a322fa3657dbf","1","7","5193","","","","","","","","","<img src= rock_img/I_Diorite_15.jpg style=""width:8cm; height:5.54cm;""><p style='font-size: 30px; color: green;'><strong>Correct!</strong></p><p style='font-size: 30px;'><strong>This rock is diorite</strong></p>","0","corr_feedback","1","train","1","","","","","","","",""
"","","","","","","","","","","","html-button-response","107","2.0.0","448802","663363b0b60a322fa3657dbf","1","7","5332","","","","","","","","","<img src= ""rock_img/I_Peridotite_04.jpg"" style=""width:8cm; height:6.680000000000001cm;""><p>What type of rock is this?</p>","0","class_response","1","train","2","Andesite","Peridotite","04","false","1","7","",""
"","","","","","","","","","","","html-button-response","108","2.0.0","450331","663363b0b60a322fa3657dbf","1","7","1527","","","","","","","","","<img src= rock_img/I_Peridotite_04.jpg style=""width:8cm; height:6.680000000000001cm;""><p style='font-size: 30px; color: red;'><strong>Incorrect!</strong></p><p style='font-size: 30px;'><strong>This rock is peridotite</strong></p>","0","corr_feedback","1","train","2","","","","","","","",""
"","","","","","","","","","","","html-button-response","109","2.0.0","463752","663363b0b60a322fa3657dbf","1","7","13417","","","","","","","","","<img src= ""rock_img/I_Basalt_05.jpg"" style=""width:8cm; height:8.18cm;""><p>What type of rock is this?</p>","1","class_response","1","train","3","Basalt","Basalt","05","true","2","2","",""
"","","","","","","","","","","","html-button-response","110","2.0.0","465000","663363b0b60a322fa3657dbf","1","7","1244","","","","","","","","","<img src= rock_img/I_Basalt_05.jpg style=""width:8cm; height:8.18cm;""><p style='font-size: 30px; color: green;'><strong>Correct!</strong></p><p style='font-size: 30px;'><strong>This rock is basalt</strong></p>","0","corr_feedback","1","train","3","","","","","","","",""
"","","","","","","","","","","","html-button-response","111","2.0.0","466862","663363b0b60a322fa3657dbf","1","7","1859","","","","","","","","","<img src= ""rock_img/I_Obsidian_05.jpg"" style=""width:8cm; height:6.33cm;""><p>What type of rock is this?</p>","4","class_response","1","train","4","Obsidian","Obsidian","05","true","5","5","",""
"","","","","","","","","","","","html-button-response","112","2.0.0","467833","663363b0b60a322fa3657dbf","1","7","968","","","","","","","","","<img src= rock_img/I_Obsidian_05.jpg style=""width:8cm; height:6.33cm;""><p style='font-size: 30px; color: green;'><strong>Correct!</strong></p><p style='font-size: 30px;'><strong>This rock is obsidian</strong></p>","0","corr_feedback","1","train","4","","","","","","","",""
"","","","","","","","","","","","html-button-response","113","2.0.0","469325","663363b0b60a322fa3657dbf","1","7","1490","","","","","","","","","<img src= ""rock_img/I_Pumice_05.jpg"" style=""width:8cm; height:7.25cm;""><p>What type of rock is this?</p>","7","class_response","1","train","5","Pumice","Pumice","05","true","8","8","",""
"","","","","","","","","","","","html-button-response","114","2.0.0","470208","663363b0b60a322fa3657dbf","1","7","880","","","","","","","","","<img src= rock_img/I_Pumice_05.jpg style=""width:8cm; height:7.25cm;""><p style='font-size: 30px; color: green;'><strong>Correct!</strong></p><p style='font-size: 30px;'><strong>This rock is pumice</strong></p>","0","corr_feedback","1","train","5","","","","","","","",""
"","","","","","","","","","","","html-button-response","115","2.0.0","471707","663363b0b60a322fa3657dbf","1","7","1496","","","","","","","","","<img src= ""rock_img/I_Pegmatite_10.jpg"" style=""width:8cm; height:4.16cm;""><p>What type of rock is this?</p>","6","class_response","1","train","6","Peridotite","Pegmatite","10","false","7","6","",""
"","","","","","","","","","","","html-button-response","116","2.0.0","473853","663363b0b60a322fa3657dbf","1","7","2144","","","","","","","","","<img src= rock_img/I_Pegmatite_10.jpg style=""width:8cm; height:4.16cm;""><p style='font-size: 30px; color: red;'><strong>Incorrect!</strong></p><p style='font-size: 30px;'><strong>This rock is pegmatite</strong></p>","0","corr_feedback","1","train","6","","","","","","","",""
"","","","","","","","","","","","html-button-response","117","2.0.0","476553","663363b0b60a322fa3657dbf","1","7","2698","","","","","","","","","<img src= ""rock_img/I_Obsidian_07.jpg"" style=""width:8cm; height:4.76cm;""><p>What type of rock is this?</p>","4","class_response","1","train","7","Obsidian","Obsidian","07","true","5","5","",""
"","","","","","","","","","","","html-button-response","118","2.0.0","477589","663363b0b60a322fa3657dbf","1","7","1033","","","","","","","","","<img src= rock_img/I_Obsidian_07.jpg style=""width:8cm; height:4.76cm;""><p style='font-size: 30px; color: green;'><strong>Correct!</strong></p><p style='font-size: 30px;'><strong>This rock is obsidian</strong></p>","0","corr_feedback","1","train","7","","","","","","","",""
"","","","","","","","","","","","html-button-response","119","2.0.0","478750","663363b0b60a322fa3657dbf","1","7","1159","","","","","","","","","<img src= ""rock_img/I_Pumice_14.jpg"" style=""width:8cm; height:6.39cm;""><p>What type of rock is this?</p>","7","class_response","1","train","8","Pumice","Pumice","14","true","8","8","",""
"","","","","","","","","","","","html-button-response","120","2.0.0","479534","663363b0b60a322fa3657dbf","1","7","782","","","","","","","","","<img src= rock_img/I_Pumice_14.jpg style=""width:8cm; height:6.39cm;""><p style='font-size: 30px; color: green;'><strong>Correct!</strong></p><p style='font-size: 30px;'><strong>This rock is pumice</strong></p>","0","corr_feedback","1","train","8","","","","","","","",""
"","","","","","","","","","","","html-button-response","121","2.0.0","480760","663363b0b60a322fa3657dbf","1","7","1223","","","","","","","","","<img src= ""rock_img/I_Pumice_13.jpg"" style=""width:8cm; height:8.200000000000001cm;""><p>What type of rock is this?</p>","7","class_response","1","train","9","Pumice","Pumice","13","true","8","8","",""
"","","","","","","","","","","","html-button-response","122","2.0.0","481443","663363b0b60a322fa3657dbf","1","7","681","","","","","","","","","<img src= rock_img/I_Pumice_13.jpg style=""width:8cm; height:8.200000000000001cm;""><p style='font-size: 30px; color: green;'><strong>Correct!</strong></p><p style='font-size: 30px;'><strong>This rock is pumice</strong></p>","0","corr_feedback","1","train","9","","","","","","","",""
"","","","","","","","","","","","html-button-response","123","2.0.0","482733","663363b0b60a322fa3657dbf","1","7","1287","","","","","","","","","<img src= ""rock_img/I_Basalt_09.jpg"" style=""width:8cm; height:6.2cm;""><p>What type of rock is this?</p>","2","class_response","1","train","10","Diorite","Basalt","09","false","3","2","",""
"","","","","","","","","","","","html-button-response","124","2.0.0","484335","663363b0b60a322fa3657dbf","1","7","1600","","","","","","","","","<img src= rock_img/I_Basalt_09.jpg style=""width:8cm; height:6.2cm;""><p style='font-size: 30px; color: red;'><strong>Incorrect!</strong></p><p style='font-size: 30px;'><strong>This rock is basalt</strong></p>","0","corr_feedback","1","train","10","","","","","","","",""
"","","","","","","","","","","","html-button-response","125","2.0.0","486158","663363b0b60a322fa3657dbf","1","7","1821","","","","","","","","","<img src= ""rock_img/I_Obsidian_02.jpg"" style=""width:8cm; height:7.51cm;""><p>What type of rock is this?</p>","4","class_response","1","train","11","Obsidian","Obsidian","02","true","5","5","",""
"","","","","","","","","","","","html-button-response","126","2.0.0","486784","663363b0b60a322fa3657dbf","1","7","623","","","","","","","","","<img src= rock_img/I_Obsidian_02.jpg style=""width:8cm; height:7.51cm;""><p style='font-size: 30px; color: green;'><strong>Correct!</strong></p><p style='font-size: 30px;'><strong>This rock is obsidian</strong></p>","0","corr_feedback","1","train","11","","","","","","","",""
"","","","","","","","","","","","html-button-response","127","2.0.0","499632","663363b0b60a322fa3657dbf","1","7","12846","","","","","","","","","<img src= ""rock_img/I_Gabbro_05.jpg"" style=""width:8cm; height:6cm;""><p>What type of rock is this?</p>","3","class_response","1","train","12","Gabbro","Gabbro","05","true","4","4","",""
"","","","","","","","","","","","html-button-response","128","2.0.0","500717","663363b0b60a322fa3657dbf","1","7","1081","","","","","","","","","<img src= rock_img/I_Gabbro_05.jpg style=""width:8cm; height:6cm;""><p style='font-size: 30px; color: green;'><strong>Correct!</strong></p><p style='font-size: 30px;'><strong>This rock is gabbro</strong></p>","0","corr_feedback","1","train","12","","","","","","","",""
"","","","","","","","","","","","html-button-response","129","2.0.0","502990","663363b0b60a322fa3657dbf","1","7","2271","","","","","","","","","<img src= ""rock_img/I_Pegmatite_12.jpg"" style=""width:8cm; height:5.7cm;""><p>What type of rock is this?</p>","2","class_response","1","train","13","Diorite","Pegmatite","12","false","3","6","",""
"","","","","","","","","","","","html-button-response","130","2.0.0","503831","663363b0b60a322fa3657dbf","1","7","838","","","","","","","","","<img src= rock_img/I_Pegmatite_12.jpg style=""width:8cm; height:5.7cm;""><p style='font-size: 30px; color: red;'><strong>Incorrect!</strong></p><p style='font-size: 30px;'><strong>This rock is pegmatite</strong></p>","0","corr_feedback","1","train","13","","","","","","","",""
"","","","","","","","","","","","html-button-response","131","2.0.0","505961","663363b0b60a322fa3657dbf","1","7","2127","","","","","","","","","<img src= ""rock_img/I_Basalt_08.jpg"" style=""width:8cm; height:10.44cm;""><p>What type of rock is this?</p>","1","class_response","1","train","14","Basalt","Basalt","08","true","2","2","",""
"","","","","","","","","","","","html-button-response","132","2.0.0","507237","663363b0b60a322fa3657dbf","1","7","1273","","","","","","","","","<img src= rock_img/I_Basalt_08.jpg style=""width:8cm; height:10.44cm;""><p style='font-size: 30px; color: green;'><strong>Correct!</strong></p><p style='font-size: 30px;'><strong>This rock is basalt</strong></p>","0","corr_feedback","1","train","14","","","","","","","",""
"","","","","","","","","","","","html-button-response","133","2.0.0","508893","663363b0b60a322fa3657dbf","1","7","1652","","","","","","","","","<img src= ""rock_img/I_Peridotite_06.jpg"" style=""width:8cm; height:7.53cm;""><p>What type of rock is this?</p>","5","class_response","1","train","15","Pegmatite","Peridotite","06","false","6","7","",""
"","","","","","","","","","","","html-button-response","134","2.0.0","509624","663363b0b60a322fa3657dbf","1","7","729","","","","","","","","","<img src= rock_img/I_Peridotite_06.jpg style=""width:8cm; height:7.53cm;""><p style='font-size: 30px; color: red;'><strong>Incorrect!</strong></p><p style='font-size: 30px;'><strong>This rock is peridotite</strong></p>","0","corr_feedback","1","train","15","","","","","","","",""
"","","","","","","","","","","","html-button-response","135","2.0.0","533348","663363b0b60a322fa3657dbf","1","7","23722","","","","","","","","","<img src= ""rock_img/I_Pegmatite_03.jpg"" style=""width:8cm; height:5.239999999999999cm;""><p>What type of rock is this?</p>","0","class_response","1","train","16","Andesite","Pegmatite","03","false","1","6","",""
"","","","","","","","","","","","html-button-response","136","2.0.0","534329","663363b0b60a322fa3657dbf","1","7","978","","","","","","","","","<img src= rock_img/I_Pegmatite_03.jpg style=""width:8cm; height:5.239999999999999cm;""><p style='font-size: 30px; color: red;'><strong>Incorrect!</strong></p><p style='font-size: 30px;'><strong>This rock is pegmatite</strong></p>","0","corr_feedback","1","train","16","","","","","","","",""
"","","","","","","","","","","","html-button-response","137","2.0.0","537203","663363b0b60a322fa3657dbf","1","7","2871","","","","","","","","","<img src= ""rock_img/I_Gabbro_16.jpg"" style=""width:8cm; height:6.44cm;""><p>What type of rock is this?</p>","1","class_response","1","train","17","Basalt","Gabbro","16","false","2","4","",""
"","","","","","","","","","","","html-button-response","138","2.0.0","537932","663363b0b60a322fa3657dbf","1","7","727","","","","","","","","","<img src= rock_img/I_Gabbro_16.jpg style=""width:8cm; height:6.44cm;""><p style='font-size: 30px; color: red;'><strong>Incorrect!</strong></p><p style='font-size: 30px;'><strong>This rock is gabbro</strong></p>","0","corr_feedback","1","train","17","","","","","","","",""
"","","","","","","","","","","","html-button-response","139","2.0.0","539073","663363b0b60a322fa3657dbf","1","7","1139","","","","","","","","","<img src= ""rock_img/I_Basalt_10.jpg"" style=""width:8cm; height:5.85cm;""><p>What type of rock is this?</p>","1","class_response","1","train","18","Basalt","Basalt","10","true","2","2","",""
"","","","","","","","","","","","html-button-response","140","2.0.0","539813","663363b0b60a322fa3657dbf","1","7","738","","","","","","","","","<img src= rock_img/I_Basalt_10.jpg style=""width:8cm; height:5.85cm;""><p style='font-size: 30px; color: green;'><strong>Correct!</strong></p><p style='font-size: 30px;'><strong>This rock is basalt</strong></p>","0","corr_feedback","1","train","18","","","","","","","",""
"","","","","","","","","","","","html-button-response","141","2.0.0","541634","663363b0b60a322fa3657dbf","1","7","1818","","","","","","","","","<img src= ""rock_img/I_Gabbro_14.jpg"" style=""width:8cm; height:8.48cm;""><p>What type of rock is this?</p>","2","class_response","1","train","19","Diorite","Gabbro","14","false","3","4","",""
"","","","","","","","","","","","html-button-response","142","2.0.0","542315","663363b0b60a322fa3657dbf","1","7","670","","","","","","","","","<img src= rock_img/I_Gabbro_14.jpg style=""width:8cm; height:8.48cm;""><p style='font-size: 30px; color: red;'><strong>Incorrect!</strong></p><p style='font-size: 30px;'><strong>This rock is gabbro</strong></p>","0","corr_feedback","1","train","19","","","","","","","",""
"","","","","","","","","","","","html-button-response","143","2.0.0","543520","663363b0b60a322fa3657dbf","1","7","1203","","","","","","","","","<img src= ""rock_img/I_Pumice_16.jpg"" style=""width:8cm; height:6.79cm;""><p>What type of rock is this?</p>","7","class_response","1","train","20","Pumice","Pumice","16","true","8","8","",""
"","","","","","","","","","","","html-button-response","144","2.0.0","544165","663363b0b60a322fa3657dbf","1","7","642","","","","","","","","","<img src= rock_img/I_Pumice_16.jpg style=""width:8cm; height:6.79cm;""><p style='font-size: 30px; color: green;'><strong>Correct!</strong></p><p style='font-size: 30px;'><strong>This rock is pumice</strong></p>","0","corr_feedback","1","train","20","","","","","","","",""
"","","","","","","","","","","","html-button-response","145","2.0.0","546031","663363b0b60a322fa3657dbf","1","7","1863","","","","","","","","","<img src= ""rock_img/I_Pegmatite_15.jpg"" style=""width:8cm; height:6cm;""><p>What type of rock is this?</p>","5","class_response","1","train","21","Pegmatite","Pegmatite","15","true","6","6","",""
"","","","","","","","","","","","html-button-response","146","2.0.0","546763","663363b0b60a322fa3657dbf","1","7","730","","","","","","","","","<img src= rock_img/I_Pegmatite_15.jpg style=""width:8cm; height:6cm;""><p style='font-size: 30px; color: green;'><strong>Correct!</strong></p><p style='font-size: 30px;'><strong>This rock is pegmatite</strong></p>","0","corr_feedback","1","train","21","","","","","","","",""
"","","","","","","","","","","","html-button-response","147","2.0.0","548055","663363b0b60a322fa3657dbf","1","7","1289","","","","","","","","","<img src= ""rock_img/I_Pumice_10.jpg"" style=""width:8cm; height:7.609999999999999cm;""><p>What type of rock is this?</p>","7","class_response","1","train","22","Pumice","Pumice","10","true","8","8","",""
"","","","","","","","","","","","html-button-response","148","2.0.0","548831","663363b0b60a322fa3657dbf","1","7","774","","","","","","","","","<img src= rock_img/I_Pumice_10.jpg style=""width:8cm; height:7.609999999999999cm;""><p style='font-size: 30px; color: green;'><strong>Correct!</strong></p><p style='font-size: 30px;'><strong>This rock is pumice</strong></p>","0","corr_feedback","1","train","22","","","","","","","",""
"","","","","","","","","","","","html-button-response","149","2.0.0","549877","663363b0b60a322fa3657dbf","1","7","1043","","","","","","","","","<img src= ""rock_img/I_Diorite_10.jpg"" style=""width:8cm; height:5.949999999999999cm;""><p>What type of rock is this?</p>","7","class_response","1","train","23","Pumice","Diorite","10","false","8","3","",""
"","","","","","","","","","","","html-button-response","150","2.0.0","550569","663363b0b60a322fa3657dbf","1","7","690","","","","","","","","","<img src= rock_img/I_Diorite_10.jpg style=""width:8cm; height:5.949999999999999cm;""><p style='font-size: 30px; color: red;'><strong>Incorrect!</strong></p><p style='font-size: 30px;'><strong>This rock is diorite</strong></p>","0","corr_feedback","1","train","23","","","","","","","",""
"","","","","","","","","","","","html-button-response","151","2.0.0","554085","663363b0b60a322fa3657dbf","1","7","3512","","","","","","","","","<img src= ""rock_img/I_Andesite_10.jpg"" style=""width:8cm; height:4.16cm;""><p>What type of rock is this?</p>","7","class_response","1","train","24","Pumice","Andesite","10","false","8","1","",""
"","","","","","","","","","","","html-button-response","152","2.0.0","554804","663363b0b60a322fa3657dbf","1","7","717","","","","","","","","","<img src= rock_img/I_Andesite_10.jpg style=""width:8cm; height:4.16cm;""><p style='font-size: 30px; color: red;'><strong>Incorrect!</strong></p><p style='font-size: 30px;'><strong>This rock is andesite</strong></p>","0","corr_feedback","1","train","24","","","","","","","",""
"","","","","","","","","","","","html-button-response","153","2.0.0","569771","663363b0b60a322fa3657dbf","1","7","14965","","","","","","","","","<img src= ""rock_img/I_Pegmatite_06.jpg"" style=""width:8cm; height:5.17cm;""><p>What type of rock is this?</p>","5","class_response","1","train","25","Pegmatite","Pegmatite","06","true","6","6","",""
"","","","","","","","","","","","html-button-response","154","2.0.0","570702","663363b0b60a322fa3657dbf","1","7","929","","","","","","","","","<img src= rock_img/I_Pegmatite_06.jpg style=""width:8cm; height:5.17cm;""><p style='font-size: 30px; color: green;'><strong>Correct!</strong></p><p style='font-size: 30px;'><strong>This rock is pegmatite</strong></p>","0","corr_feedback","1","train","25","","","","","","","",""
"","","","","","","","","","","","html-button-response","155","2.0.0","575493","663363b0b60a322fa3657dbf","1","7","4789","","","","","","","","","<img src= ""rock_img/I_Gabbro_11.jpg"" style=""width:8cm; height:6.2cm;""><p>What type of rock is this?</p>","3","class_response","1","train","26","Gabbro","Gabbro","11","true","4","4","",""
"","","","","","","","","","","","html-button-response","156","2.0.0","576350","663363b0b60a322fa3657dbf","1","7","854","","","","","","","","","<img src= rock_img/I_Gabbro_11.jpg style=""width:8cm; height:6.2cm;""><p style='font-size: 30px; color: green;'><strong>Correct!</strong></p><p style='font-size: 30px;'><strong>This rock is gabbro</strong></p>","0","corr_feedback","1","train","26","","","","","","","",""
"","","","","","","","","","","","html-button-response","157","2.0.0","578018","663363b0b60a322fa3657dbf","1","7","1666","","","","","","","","","<img src= ""rock_img/I_Peridotite_07.jpg"" style=""width:8cm; height:4.83cm;""><p>What type of rock is this?</p>","3","class_response","1","train","27","Gabbro","Peridotite","07","false","4","7","",""
"","","","","","","","","","","","html-button-response","158","2.0.0","579093","663363b0b60a322fa3657dbf","1","7","1072","","","","","","","","","<img src= rock_img/I_Peridotite_07.jpg style=""width:8cm; height:4.83cm;""><p style='font-size: 30px; color: red;'><strong>Incorrect!</strong></p><p style='font-size: 30px;'><strong>This rock is peridotite</strong></p>","0","corr_feedback","1","train","27","","","","","","","",""
"","","","","","","","","","","","html-button-response","159","2.0.0","581490","663363b0b60a322fa3657dbf","1","7","2394","","","","","","","","","<img src= ""rock_img/I_Peridotite_08.jpg"" style=""width:8cm; height:6.7cm;""><p>What type of rock is this?</p>","7","class_response","1","train","28","Pumice","Peridotite","08","false","8","7","",""
"","","","","","","","","","","","html-button-response","160","2.0.0","582294","663363b0b60a322fa3657dbf","1","7","800","","","","","","","","","<img src= rock_img/I_Peridotite_08.jpg style=""width:8cm; height:6.7cm;""><p style='font-size: 30px; color: red;'><strong>Incorrect!</strong></p><p style='font-size: 30px;'><strong>This rock is peridotite</strong></p>","0","corr_feedback","1","train","28","","","","","","","",""
"","","","","","","","","","","","html-button-response","161","2.0.0","585413","663363b0b60a322fa3657dbf","1","7","3116","","","","","","","","","<img src= ""rock_img/I_Basalt_14.jpg"" style=""width:8cm; height:5.82cm;""><p>What type of rock is this?</p>","7","class_response","1","train","29","Pumice","Basalt","14","false","8","2","",""
"","","","","","","","","","","","html-button-response","162","2.0.0","586225","663363b0b60a322fa3657dbf","1","7","810","","","","","","","","","<img src= rock_img/I_Basalt_14.jpg style=""width:8cm; height:5.82cm;""><p style='font-size: 30px; color: red;'><strong>Incorrect!</strong></p><p style='font-size: 30px;'><strong>This rock is basalt</strong></p>","0","corr_feedback","1","train","29","","","","","","","",""
"","","","","","","","","","","","html-button-response","163","2.0.0","588044","663363b0b60a322fa3657dbf","1","7","1817","","","","","","","","","<img src= ""rock_img/I_Obsidian_14.jpg"" style=""width:8cm; height:7.64cm;""><p>What type of rock is this?</p>","4","class_response","1","train","30","Obsidian","Obsidian","14","true","5","5","",""
"","","","","","","","","","","","html-button-response","164","2.0.0","588682","663363b0b60a322fa3657dbf","1","7","636","","","","","","","","","<img src= rock_img/I_Obsidian_14.jpg style=""width:8cm; height:7.64cm;""><p style='font-size: 30px; color: green;'><strong>Correct!</strong></p><p style='font-size: 30px;'><strong>This rock is obsidian</strong></p>","0","corr_feedback","1","train","30","","","","","","","",""
"","","","","","","","","","","","html-button-response","165","2.0.0","600282","663363b0b60a322fa3657dbf","1","7","11597","","","","","","","","","<img src= ""rock_img/I_Andesite_04.jpg"" style=""width:8cm; height:5.96cm;""><p>What type of rock is this?</p>","3","class_response","1","train","31","Gabbro","Andesite","04","false","4","1","",""
"","","","","","","","","","","","html-button-response","166","2.0.0","601276","663363b0b60a322fa3657dbf","1","7","991","","","","","","","","","<img src= rock_img/I_Andesite_04.jpg style=""width:8cm; height:5.96cm;""><p style='font-size: 30px; color: red;'><strong>Incorrect!</strong></p><p style='font-size: 30px;'><strong>This rock is andesite</strong></p>","0","corr_feedback","1","train","31","","","","","","","",""
"","","","","","","","","","","","html-button-response","167","2.0.0","602626","663363b0b60a322fa3657dbf","1","7","1347","","","","","","","","","<img src= ""rock_img/I_Andesite_02.jpg"" style=""width:8cm; height:8.5cm;""><p>What type of rock is this?</p>","7","class_response","1","train","32","Pumice","Andesite","02","false","8","1","",""
"","","","","","","","","","","","html-button-response","168","2.0.0","603402","663363b0b60a322fa3657dbf","1","7","774","","","","","","","","","<img src= rock_img/I_Andesite_02.jpg style=""width:8cm; height:8.5cm;""><p style='font-size: 30px; color: red;'><strong>Incorrect!</strong></p><p style='font-size: 30px;'><strong>This rock is andesite</strong></p>","0","corr_feedback","1","train","32","","","","","","","",""
"","","","","","","","","","","","html-button-response","169","2.0.0","606413","663363b0b60a322fa3657dbf","1","7","3007","","","","","","","","","<img src= ""rock_img/I_Gabbro_12.jpg"" style=""width:8cm; height:7.800000000000001cm;""><p>What type of rock is this?</p>","1","class_response","1","train","33","Basalt","Gabbro","12","false","2","4","",""
"","","","","","","","","","","","html-button-response","170","2.0.0","607285","663363b0b60a322fa3657dbf","1","7","870","","","","","","","","","<img src= rock_img/I_Gabbro_12.jpg style=""width:8cm; height:7.800000000000001cm;""><p style='font-size: 30px; color: red;'><strong>Incorrect!</strong></p><p style='font-size: 30px;'><strong>This rock is gabbro</strong></p>","0","corr_feedback","1","train","33","","","","","","","",""
"","","","","","","","","","","","html-button-response","171","2.0.0","608464","663363b0b60a322fa3657dbf","1","7","1176","","","","","","","","","<img src= ""rock_img/I_Pumice_06.jpg"" style=""width:8cm; height:6.9399999999999995cm;""><p>What type of rock is this?</p>","7","class_response","1","train","34","Pumice","Pumice","06","true","8","8","",""
"","","","","","","","","","","","html-button-response","172","2.0.0","609088","663363b0b60a322fa3657dbf","1","7","623","","","","","","","","","<img src= rock_img/I_Pumice_06.jpg style=""width:8cm; height:6.9399999999999995cm;""><p style='font-size: 30px; color: green;'><strong>Correct!</strong></p><p style='font-size: 30px;'><strong>This rock is pumice</strong></p>","0","corr_feedback","1","train","34","","","","","","","",""
"","","","","","","","","","","","html-button-response","173","2.0.0","611607","663363b0b60a322fa3657dbf","1","7","2516","","","","","","","","","<img src= ""rock_img/I_Diorite_16.jpg"" style=""width:8cm; height:6.74cm;""><p>What type of rock is this?</p>","2","class_response","1","train","35","Diorite","Diorite","16","true","3","3","",""
"","","","","","","","","","","","html-button-response","174","2.0.0","612451","663363b0b60a322fa3657dbf","1","7","841","","","","","","","","","<img src= rock_img/I_Diorite_16.jpg style=""width:8cm; height:6.74cm;""><p style='font-size: 30px; color: green;'><strong>Correct!</strong></p><p style='font-size: 30px;'><strong>This rock is diorite</strong></p>","0","corr_feedback","1","train","35","","","","","","","",""
"","","","","","","","","","","","html-button-response","175","2.0.0","615455","663363b0b60a322fa3657dbf","1","7","3001","","","","","","","","","<img src= ""rock_img/I_Andesite_11.jpg"" style=""width:8cm; height:4.92cm;""><p>What type of rock is this?</p>","3","class_response","1","train","36","Gabbro","Andesite","11","false","4","1","",""
"","","","","","","","","","","","html-button-response","176","2.0.0","616251","663363b0b60a322fa3657dbf","1","7","794","","","","","","","","","<img src= rock_img/I_Andesite_11.jpg style=""width:8cm; height:4.92cm;""><p style='font-size: 30px; color: red;'><strong>Incorrect!</strong></p><p style='font-size: 30px;'><strong>This rock is andesite</strong></p>","0","corr_feedback","1","train","36","","","","","","","",""
"","","","","","","","","","","","html-button-response","177","2.0.0","619034","663363b0b60a322fa3657dbf","1","7","2781","","","","","","","","","<img src= ""rock_img/I_Diorite_12.jpg"" style=""width:8cm; height:4.88cm;""><p>What type of rock is this?</p>","7","class_response","1","train","37","Pumice","Diorite","12","false","8","3","",""
"","","","","","","","","","","","html-button-response","178","2.0.0","620386","663363b0b60a322fa3657dbf","1","7","1350","","","","","","","","","<img src= rock_img/I_Diorite_12.jpg style=""width:8cm; height:4.88cm;""><p style='font-size: 30px; color: red;'><strong>Incorrect!</strong></p><p style='font-size: 30px;'><strong>This rock is diorite</strong></p>","0","corr_feedback","1","train","37","","","","","","","",""
"","","","","","","","","","","","html-button-response","179","2.0.0","622135","663363b0b60a322fa3657dbf","1","7","1747","","","","","","","","","<img src= ""rock_img/I_Diorite_02.jpg"" style=""width:8cm; height:6.27cm;""><p>What type of rock is this?</p>","3","class_response","1","train","38","Gabbro","Diorite","02","false","4","3","",""
"","","","","","","","","","","","html-button-response","180","2.0.0","622933","663363b0b60a322fa3657dbf","1","7","795","","","","","","","","","<img src= rock_img/I_Diorite_02.jpg style=""width:8cm; height:6.27cm;""><p style='font-size: 30px; color: red;'><strong>Incorrect!</strong></p><p style='font-size: 30px;'><strong>This rock is diorite</strong></p>","0","corr_feedback","1","train","38","","","","","","","",""
"","","","","","","","","","","","html-button-response","181","2.0.0","626952","663363b0b60a322fa3657dbf","1","7","4016","","","","","","","","","<img src= ""rock_img/I_Obsidian_06.jpg"" style=""width:8cm; height:6.8cm;""><p>What type of rock is this?</p>","4","class_response","1","train","39","Obsidian","Obsidian","06","true","5","5","",""
"","","","","","","","","","","","html-button-response","182","2.0.0","627634","663363b0b60a322fa3657dbf","1","7","680","","","","","","","","","<img src= rock_img/I_Obsidian_06.jpg style=""width:8cm; height:6.8cm;""><p style='font-size: 30px; color: green;'><strong>Correct!</strong></p><p style='font-size: 30px;'><strong>This rock is obsidian</strong></p>","0","corr_feedback","1","train","39","","","","","","","",""
"","","","","","","","","","","","html-button-response","183","2.0.0","641036","663363b0b60a322fa3657dbf","1","7","13400","","","","","","","","","<img src= ""rock_img/I_Gabbro_10.jpg"" style=""width:8cm; height:5.680000000000001cm;""><p>What type of rock is this?</p>","7","class_response","1","train","40","Pumice","Gabbro","10","false","8","4","",""
"","","","","","","","","","","","html-button-response","184","2.0.0","641794","663363b0b60a322fa3657dbf","1","7","755","","","","","","","","","<img src= rock_img/I_Gabbro_10.jpg style=""width:8cm; height:5.680000000000001cm;""><p style='font-size: 30px; color: red;'><strong>Incorrect!</strong></p><p style='font-size: 30px;'><strong>This rock is gabbro</strong></p>","0","corr_feedback","1","train","40","","","","","","","",""
"","","","","","","","","","","","html-button-response","185","2.0.0","645105","663363b0b60a322fa3657dbf","1","7","3309","","","","","","","","","<img src= ""rock_img/I_Peridotite_13.jpg"" style=""width:8cm; height:7.58cm;""><p>What type of rock is this?</p>","6","class_response","1","train","41","Peridotite","Peridotite","13","true","7","7","",""
"","","","","","","","","","","","html-button-response","186","2.0.0","646014","663363b0b60a322fa3657dbf","1","7","906","","","","","","","","","<img src= rock_img/I_Peridotite_13.jpg style=""width:8cm; height:7.58cm;""><p style='font-size: 30px; color: green;'><strong>Correct!</strong></p><p style='font-size: 30px;'><strong>This rock is peridotite</strong></p>","0","corr_feedback","1","train","41","","","","","","","",""
"","","","","","","","","","","","html-button-response","187","2.0.0","647811","663363b0b60a322fa3657dbf","1","7","1795","","","","","","","","","<img src= ""rock_img/I_Peridotite_15.jpg"" style=""width:8cm; height:6cm;""><p>What type of rock is this?</p>","2","class_response","1","train","42","Diorite","Peridotite","15","false","3","7","",""
"","","","","","","","","","","","html-button-response","188","2.0.0","648580","663363b0b60a322fa3657dbf","1","7","765","","","","","","","","","<img src= rock_img/I_Peridotite_15.jpg style=""width:8cm; height:6cm;""><p style='font-size: 30px; color: red;'><strong>Incorrect!</strong></p><p style='font-size: 30px;'><strong>This rock is peridotite</strong></p>","0","corr_feedback","1","train","42","","","","","","","",""
"","","","","","","","","","","","html-button-response","189","2.0.0","649700","663363b0b60a322fa3657dbf","1","7","1117","","","","","","","","","<img src= ""rock_img/I_Pegmatite_08.jpg"" style=""width:8cm; height:7.68cm;""><p>What type of rock is this?</p>","4","class_response","1","train","43","Obsidian","Pegmatite","08","false","5","6","",""
"","","","","","","","","","","","html-button-response","190","2.0.0","650603","663363b0b60a322fa3657dbf","1","7","901","","","","","","","","","<img src= rock_img/I_Pegmatite_08.jpg style=""width:8cm; height:7.68cm;""><p style='font-size: 30px; color: red;'><strong>Incorrect!</strong></p><p style='font-size: 30px;'><strong>This rock is pegmatite</strong></p>","0","corr_feedback","1","train","43","","","","","","","",""
"","","","","","","","","","","","html-button-response","191","2.0.0","651693","663363b0b60a322fa3657dbf","1","7","1087","","","","","","","","","<img src= ""rock_img/I_Obsidian_10.jpg"" style=""width:8cm; height:6.260000000000001cm;""><p>What type of rock is this?</p>","4","class_response","1","train","44","Obsidian","Obsidian","10","true","5","5","",""
"","","","","","","","","","","","html-button-response","192","2.0.0","652283","663363b0b60a322fa3657dbf","1","7","586","","","","","","","","","<img src= rock_img/I_Obsidian_10.jpg style=""width:8cm; height:6.260000000000001cm;""><p style='font-size: 30px; color: green;'><strong>Correct!</strong></p><p style='font-size: 30px;'><strong>This rock is obsidian</strong></p>","0","corr_feedback","1","train","44","","","","","","","",""
"","","","","","","","","","","","html-button-response","193","2.0.0","655066","663363b0b60a322fa3657dbf","1","7","2779","","","","","","","","","<img src= ""rock_img/I_Andesite_03.jpg"" style=""width:8cm; height:5.73cm;""><p>What type of rock is this?</p>","1","class_response","1","train","45","Basalt","Andesite","03","false","2","1","",""
"","","","","","","","","","","","html-button-response","194","2.0.0","655995","663363b0b60a322fa3657dbf","1","7","927","","","","","","","","","<img src= rock_img/I_Andesite_03.jpg style=""width:8cm; height:5.73cm;""><p style='font-size: 30px; color: red;'><strong>Incorrect!</strong></p><p style='font-size: 30px;'><strong>This rock is andesite</strong></p>","0","corr_feedback","1","train","45","","","","","","","",""
"","","","","","","","","","","","html-button-response","195","2.0.0","658230","663363b0b60a322fa3657dbf","1","7","2232","","","","","","","","","<img src= ""rock_img/I_Andesite_07.jpg"" style=""width:8cm; height:5.93cm;""><p>What type of rock is this?</p>","2","class_response","1","train","46","Diorite","Andesite","07","false","3","1","",""
"","","","","","","","","","","","html-button-response","196","2.0.0","658979","663363b0b60a322fa3657dbf","1","7","747","","","","","","","","","<img src= rock_img/I_Andesite_07.jpg style=""width:8cm; height:5.93cm;""><p style='font-size: 30px; color: red;'><strong>Incorrect!</strong></p><p style='font-size: 30px;'><strong>This rock is andesite</strong></p>","0","corr_feedback","1","train","46","","","","","","","",""
"","","","","","","","","","","","html-button-response","197","2.0.0","660861","663363b0b60a322fa3657dbf","1","7","1878","","","","","","","","","<img src= ""rock_img/I_Basalt_11.jpg"" style=""width:8cm; height:5.359999999999999cm;""><p>What type of rock is this?</p>","7","class_response","1","train","47","Pumice","Basalt","11","false","8","2","",""
"","","","","","","","","","","","html-button-response","198","2.0.0","661579","663363b0b60a322fa3657dbf","1","7","713","","","","","","","","","<img src= rock_img/I_Basalt_11.jpg style=""width:8cm; height:5.359999999999999cm;""><p style='font-size: 30px; color: red;'><strong>Incorrect!</strong></p><p style='font-size: 30px;'><strong>This rock is basalt</strong></p>","0","corr_feedback","1","train","47","","","","","","","",""
"","","","","","","","","","","","html-button-response","199","2.0.0","679808","663363b0b60a322fa3657dbf","1","7","18226","","","","","","","","","<img src= ""rock_img/I_Diorite_07.jpg"" style=""width:8cm; height:5.239999999999999cm;""><p>What type of rock is this?</p>","0","class_response","1","train","48","Andesite","Diorite","07","false","1","3","",""
"","","","","","","","","","","","html-button-response","200","2.0.0","680749","663363b0b60a322fa3657dbf","1","7","939","","","","","","","","","<img src= rock_img/I_Diorite_07.jpg style=""width:8cm; height:5.239999999999999cm;""><p style='font-size: 30px; color: red;'><strong>Incorrect!</strong></p><p style='font-size: 30px;'><strong>This rock is diorite</strong></p>","0","corr_feedback","1","train","48","","","","","","","",""
"","","","","","","","","","","","instructions","203","2.0.0","691689","663363b0b60a322fa3657dbf","1","7","10938","","","","","","","","[{""page_index"":0,""viewing_time"":6868},{""page_index"":1,""viewing_time"":4070}]","","","","","","","","","","","","","",""
"","","","","","","","","","","","html-button-response","204","2.0.0","693759","663363b0b60a322fa3657dbf","1","7","2068","","","","","","","","","","0","start_test","","","","","","","","","","",""
"","","","","","","","","","","","html-button-response","205","2.0.0","697419","663363b0b60a322fa3657dbf","1","7","3657","","","","","","","","","<img src= ""rock_img/I_Pegmatite_05.jpg"" style=""width:8cm; height:7.300000000000001cm;""><p>What type of rock is this?</p>","4","class_response","1","test","1","Obsidian","Pegmatite","05","false","5","6","",""
"","","","","","","","","","","","html-keyboard-response","206","2.0.0","697921","663363b0b60a322fa3657dbf","1","7","null","","","","","","","","","<p style='font-size: 30px;'><strong>Okay</strong></p>","null","neutral_feedback","1","test","1","","","","","","","",""
"","","","","","","","","","","","html-button-response","207","2.0.0","699058","663363b0b60a322fa3657dbf","1","7","1133","","","","","","","","","<img src= ""rock_img/I_Obsidian_16.jpg"" style=""width:8cm; height:9.3cm;""><p>What type of rock is this?</p>","4","class_response","1","test","2","Obsidian","Obsidian","16","true","5","5","",""
"","","","","","","","","","","","html-keyboard-response","208","2.0.0","699560","663363b0b60a322fa3657dbf","1","7","null","","","","","","","","","<p style='font-size: 30px;'><strong>Okay</strong></p>","null","neutral_feedback","1","test","2","","","","","","","",""
"","","","","","","","","","","","html-button-response","209","2.0.0","700895","663363b0b60a322fa3657dbf","1","7","1330","","","","","","","","","<img src= ""rock_img/I_Obsidian_08.jpg"" style=""width:8cm; height:7.39cm;""><p>What type of rock is this?</p>","4","class_response","1","test","3","Obsidian","Obsidian","08","true","5","5","",""
"","","","","","","","","","","","html-keyboard-response","210","2.0.0","701397","663363b0b60a322fa3657dbf","1","7","null","","","","","","","","","<p style='font-size: 30px;'><strong>Okay</strong></p>","null","neutral_feedback","1","test","3","","","","","","","",""
"","","","","","","","","","","","html-button-response","211","2.0.0","718225","663363b0b60a322fa3657dbf","1","7","16824","","","","","","","","","<img src= ""rock_img/I_Peridotite_05.jpg"" style=""width:8cm; height:7.1499999999999995cm;""><p>What type of rock is this?</p>","0","class_response","1","test","4","Andesite","Peridotite","05","false","1","7","",""
"","","","","","","","","","","","html-keyboard-response","212","2.0.0","718727","663363b0b60a322fa3657dbf","1","7","null","","","","","","","","","<p style='font-size: 30px;'><strong>Okay</strong></p>","null","neutral_feedback","1","test","4","","","","","","","",""
"","","","","","","","","","","","html-button-response","213","2.0.0","721475","663363b0b60a322fa3657dbf","1","7","2744","","","","","","","","","<img src= ""rock_img/I_Diorite_14.jpg"" style=""width:8cm; height:5.71cm;""><p>What type of rock is this?</p>","2","class_response","1","test","5","Diorite","Diorite","14","true","3","3","",""
"","","","","","","","","","","","html-keyboard-response","214","2.0.0","721976","663363b0b60a322fa3657dbf","1","7","null","","","","","","","","","<p style='font-size: 30px;'><strong>Okay</strong></p>","null","neutral_feedback","1","test","5","","","","","","","",""
"","","","","","","","","","","","html-button-response","215","2.0.0","736365","663363b0b60a322fa3657dbf","1","7","14386","","","","","","","","","<img src= ""rock_img/I_Gabbro_08.jpg"" style=""width:8cm; height:5.15cm;""><p>What type of rock is this?</p>","3","class_response","1","test","6","Gabbro","Gabbro","08","true","4","4","",""
"","","","","","","","","","","","html-keyboard-response","216","2.0.0","736867","663363b0b60a322fa3657dbf","1","7","null","","","","","","","","","<p style='font-size: 30px;'><strong>Okay</strong></p>","null","neutral_feedback","1","test","6","","","","","","","",""
"","","","","","","","","","","","html-button-response","217","2.0.0","740583","663363b0b60a322fa3657dbf","1","7","3712","","","","","","","","","<img src= ""rock_img/I_Basalt_02.jpg"" style=""width:8cm; height:6.45cm;""><p>What type of rock is this?</p>","1","class_response","1","test","7","Basalt","Basalt","02","true","2","2","",""
"","","","","","","","","","","","html-keyboard-response","218","2.0.0","741085","663363b0b60a322fa3657dbf","1","7","null","","","","","","","","","<p style='font-size: 30px;'><strong>Okay</strong></p>","null","neutral_feedback","1","test","7","","","","","","","",""
"","","","","","","","","","","","html-button-response","219","2.0.0","765281","663363b0b60a322fa3657dbf","1","7","24191","","","","","","","","","<img src= ""rock_img/I_Andesite_09.jpg"" style=""width:8cm; height:6cm;""><p>What type of rock is this?</p>","0","class_response","1","test","8","Andesite","Andesite","09","true","1","1","",""
"","","","","","","","","","","","html-keyboard-response","220","2.0.0","765784","663363b0b60a322fa3657dbf","1","7","null","","","","","","","","","<p style='font-size: 30px;'><strong>Okay</strong></p>","null","neutral_feedback","1","test","8","","","","","","","",""
"","","","","","","","","","","","html-button-response","221","2.0.0","796658","663363b0b60a322fa3657dbf","1","7","30870","","","","","","","","","<img src= ""rock_img/I_Diorite_11.jpg"" style=""width:8cm; height:7.11cm;""><p>What type of rock is this?</p>","3","class_response","1","test","9","Gabbro","Diorite","11","false","4","3","",""
"","","","","","","","","","","","html-keyboard-response","222","2.0.0","797160","663363b0b60a322fa3657dbf","1","7","null","","","","","","","","","<p style='font-size: 30px;'><strong>Okay</strong></p>","null","neutral_feedback","1","test","9","","","","","","","",""
"","","","","","","","","","","","html-button-response","223","2.0.0","798568","663363b0b60a322fa3657dbf","1","7","1404","","","","","","","","","<img src= ""rock_img/I_Pumice_08.jpg"" style=""width:8cm; height:6.67cm;""><p>What type of rock is this?</p>","7","class_response","1","test","10","Pumice","Pumice","08","true","8","8","",""
"","","","","","","","","","","","html-keyboard-response","224","2.0.0","799070","663363b0b60a322fa3657dbf","1","7","null","","","","","","","","","<p style='font-size: 30px;'><strong>Okay</strong></p>","null","neutral_feedback","1","test","10","","","","","","","",""
"","","","","","","","","","","","html-button-response","225","2.0.0","800023","663363b0b60a322fa3657dbf","1","7","948","","","","","","","","","<img src= ""rock_img/I_Pumice_02.jpg"" style=""width:8cm; height:7.3999999999999995cm;""><p>What type of rock is this?</p>","7","class_response","1","test","11","Pumice","Pumice","02","true","8","8","",""
"","","","","","","","","","","","html-keyboard-response","226","2.0.0","800525","663363b0b60a322fa3657dbf","1","7","null","","","","","","","","","<p style='font-size: 30px;'><strong>Okay</strong></p>","null","neutral_feedback","1","test","11","","","","","","","",""
"","","","","","","","","","","","html-button-response","227","2.0.0","808126","663363b0b60a322fa3657dbf","1","7","7597","","","","","","","","","<img src= ""rock_img/I_Diorite_13.jpg"" style=""width:8cm; height:6.29cm;""><p>What type of rock is this?</p>","7","class_response","1","test","12","Pumice","Diorite","13","false","8","3","",""
"","","","","","","","","","","","html-keyboard-response","228","2.0.0","808628","663363b0b60a322fa3657dbf","1","7","null","","","","","","","","","<p style='font-size: 30px;'><strong>Okay</strong></p>","null","neutral_feedback","1","test","12","","","","","","","",""
"","","","","","","","","","","","html-button-response","229","2.0.0","816464","663363b0b60a322fa3657dbf","1","7","7832","","","","","","","","","<img src= ""rock_img/I_Peridotite_16.jpg"" style=""width:8cm; height:6.989999999999999cm;""><p>What type of rock is this?</p>","2","class_response","1","test","13","Diorite","Peridotite","16","false","3","7","",""
"","","","","","","","","","","","html-keyboard-response","230","2.0.0","816966","663363b0b60a322fa3657dbf","1","7","null","","","","","","","","","<p style='font-size: 30px;'><strong>Okay</strong></p>","null","neutral_feedback","1","test","13","","","","","","","",""
"","","","","","","","","","","","html-button-response","231","2.0.0","834799","663363b0b60a322fa3657dbf","1","7","17829","","","","","","","","","<img src= ""rock_img/I_Peridotite_02.jpg"" style=""width:8cm; height:5.859999999999999cm;""><p>What type of rock is this?</p>","3","class_response","1","test","14","Gabbro","Peridotite","02","false","4","7","",""
"","","","","","","","","","","","html-keyboard-response","232","2.0.0","835301","663363b0b60a322fa3657dbf","1","7","null","","","","","","","","","<p style='font-size: 30px;'><strong>Okay</strong></p>","null","neutral_feedback","1","test","14","","","","","","","",""
"","","","","","","","","","","","html-button-response","233","2.0.0","837262","663363b0b60a322fa3657dbf","1","7","1958","","","","","","","","","<img src= ""rock_img/I_Pegmatite_09.jpg"" style=""width:8cm; height:4.03cm;""><p>What type of rock is this?</p>","6","class_response","1","test","15","Peridotite","Pegmatite","09","false","7","6","",""
"","","","","","","","","","","","html-keyboard-response","234","2.0.0","837764","663363b0b60a322fa3657dbf","1","7","null","","","","","","","","","<p style='font-size: 30px;'><strong>Okay</strong></p>","null","neutral_feedback","1","test","15","","","","","","","",""
"","","","","","","","","","","","html-button-response","235","2.0.0","854691","663363b0b60a322fa3657dbf","1","7","16922","","","","","","","","","<img src= ""rock_img/I_Diorite_06.jpg"" style=""width:8cm; height:6.03cm;""><p>What type of rock is this?</p>","0","class_response","1","test","16","Andesite","Diorite","06","false","1","3","",""
"","","","","","","","","","","","html-keyboard-response","236","2.0.0","855194","663363b0b60a322fa3657dbf","1","7","null","","","","","","","","","<p style='font-size: 30px;'><strong>Okay</strong></p>","null","neutral_feedback","1","test","16","","","","","","","",""
"","","","","","","","","","","","html-button-response","237","2.0.0","857580","663363b0b60a322fa3657dbf","1","7","2382","","","","","","","","","<img src= ""rock_img/I_Andesite_14.jpg"" style=""width:8cm; height:5.449999999999999cm;""><p>What type of rock is this?</p>","1","class_response","1","test","17","Basalt","Andesite","14","false","2","1","",""
"","","","","","","","","","","","html-keyboard-response","238","2.0.0","858082","663363b0b60a322fa3657dbf","1","7","null","","","","","","","","","<p style='font-size: 30px;'><strong>Okay</strong></p>","null","neutral_feedback","1","test","17","","","","","","","",""
"","","","","","","","","","","","html-button-response","239","2.0.0","859683","663363b0b60a322fa3657dbf","1","7","1596","","","","","","","","","<img src= ""rock_img/I_Pumice_09.jpg"" style=""width:8cm; height:6.44cm;""><p>What type of rock is this?</p>","7","class_response","1","test","18","Pumice","Pumice","09","true","8","8","",""
"","","","","","","","","","","","html-keyboard-response","240","2.0.0","860185","663363b0b60a322fa3657dbf","1","7","null","","","","","","","","","<p style='font-size: 30px;'><strong>Okay</strong></p>","null","neutral_feedback","1","test","18","","","","","","","",""
"","","","","","","","","","","","html-button-response","241","2.0.0","861853","663363b0b60a322fa3657dbf","1","7","1663","","","","","","","","","<img src= ""rock_img/I_Basalt_16.jpg"" style=""width:8cm; height:7.659999999999999cm;""><p>What type of rock is this?</p>","2","class_response","1","test","19","Diorite","Basalt","16","false","3","2","",""
"","","","","","","","","","","","html-keyboard-response","242","2.0.0","862357","663363b0b60a322fa3657dbf","1","7","null","","","","","","","","","<p style='font-size: 30px;'><strong>Okay</strong></p>","null","neutral_feedback","1","test","19","","","","","","","",""
"","","","","","","","","","","","html-button-response","243","2.0.0","865169","663363b0b60a322fa3657dbf","1","7","2808","","","","","","","","","<img src= ""rock_img/I_Gabbro_01.jpg"" style=""width:8cm; height:5.21cm;""><p>What type of rock is this?</p>","0","class_response","1","test","20","Andesite","Gabbro","01","false","1","4","",""
"","","","","","","","","","","","html-keyboard-response","244","2.0.0","865671","663363b0b60a322fa3657dbf","1","7","null","","","","","","","","","<p style='font-size: 30px;'><strong>Okay</strong></p>","null","neutral_feedback","1","test","20","","","","","","","",""
"","","","","","","","","","","","html-button-response","245","2.0.0","866505","663363b0b60a322fa3657dbf","1","7","832","","","","","","","","","<img src= ""rock_img/I_Gabbro_13.jpg"" style=""width:8cm; height:5.08cm;""><p>What type of rock is this?</p>","5","class_response","1","test","21","Pegmatite","Gabbro","13","false","6","4","",""
"","","","","","","","","","","","html-keyboard-response","246","2.0.0","867009","663363b0b60a322fa3657dbf","1","7","null","","","","","","","","","<p style='font-size: 30px;'><strong>Okay</strong></p>","null","neutral_feedback","1","test","21","","","","","","","",""
"","","","","","","","","","","","html-button-response","247","2.0.0","869417","663363b0b60a322fa3657dbf","1","7","2406","","","","","","","","","<img src= ""rock_img/I_Andesite_16.jpg"" style=""width:8cm; height:6.010000000000001cm;""><p>What type of rock is this?</p>","3","class_response","1","test","22","Gabbro","Andesite","16","false","4","1","",""
"","","","","","","","","","","","html-keyboard-response","248","2.0.0","869919","663363b0b60a322fa3657dbf","1","7","null","","","","","","","","","<p style='font-size: 30px;'><strong>Okay</strong></p>","null","neutral_feedback","1","test","22","","","","","","","",""
"","","","","","","","","","","","html-button-response","249","2.0.0","870868","663363b0b60a322fa3657dbf","1","7","946","","","","","","","","","<img src= ""rock_img/I_Peridotite_10.jpg"" style=""width:8cm; height:5.390000000000001cm;""><p>What type of rock is this?</p>","3","class_response","1","test","23","Gabbro","Peridotite","10","false","4","7","",""
"","","","","","","","","","","","html-keyboard-response","250","2.0.0","871370","663363b0b60a322fa3657dbf","1","7","null","","","","","","","","","<p style='font-size: 30px;'><strong>Okay</strong></p>","null","neutral_feedback","1","test","23","","","","","","","",""
"","","","","","","","","","","","html-button-response","251","2.0.0","872536","663363b0b60a322fa3657dbf","1","7","1163","","","","","","","","","<img src= ""rock_img/I_Peridotite_12.jpg"" style=""width:8cm; height:4.54cm;""><p>What type of rock is this?</p>","5","class_response","1","test","24","Pegmatite","Peridotite","12","false","6","7","",""
"","","","","","","","","","","","html-keyboard-response","252","2.0.0","873038","663363b0b60a322fa3657dbf","1","7","null","","","","","","","","","<p style='font-size: 30px;'><strong>Okay</strong></p>","null","neutral_feedback","1","test","24","","","","","","","",""
"","","","","","","","","","","","html-button-response","253","2.0.0","874457","663363b0b60a322fa3657dbf","1","7","1417","","","","","","","","","<img src= ""rock_img/I_Basalt_12.jpg"" style=""width:8cm; height:6.010000000000001cm;""><p>What type of rock is this?</p>","7","class_response","1","test","25","Pumice","Basalt","12","false","8","2","",""
"","","","","","","","","","","","html-keyboard-response","254","2.0.0","874960","663363b0b60a322fa3657dbf","1","7","null","","","","","","","","","<p style='font-size: 30px;'><strong>Okay</strong></p>","null","neutral_feedback","1","test","25","","","","","","","",""
"","","","","","","","","","","","html-button-response","255","2.0.0","876303","663363b0b60a322fa3657dbf","1","7","1340","","","","","","","","","<img src= ""rock_img/I_Pegmatite_11.jpg"" style=""width:8cm; height:8.14cm;""><p>What type of rock is this?</p>","4","class_response","1","test","26","Obsidian","Pegmatite","11","false","5","6","",""
"","","","","","","","","","","","html-keyboard-response","256","2.0.0","876806","663363b0b60a322fa3657dbf","1","7","null","","","","","","","","","<p style='font-size: 30px;'><strong>Okay</strong></p>","null","neutral_feedback","1","test","26","","","","","","","",""
"","","","","","","","","","","","html-button-response","257","2.0.0","877925","663363b0b60a322fa3657dbf","1","7","1115","","","","","","","","","<img src= ""rock_img/I_Obsidian_04.jpg"" style=""width:8cm; height:6.930000000000001cm;""><p>What type of rock is this?</p>","4","class_response","1","test","27","Obsidian","Obsidian","04","true","5","5","",""
"","","","","","","","","","","","html-keyboard-response","258","2.0.0","878427","663363b0b60a322fa3657dbf","1","7","null","","","","","","","","","<p style='font-size: 30px;'><strong>Okay</strong></p>","null","neutral_feedback","1","test","27","","","","","","","",""
"","","","","","","","","","","","html-button-response","259","2.0.0","880997","663363b0b60a322fa3657dbf","1","7","2565","","","","","","","","","<img src= ""rock_img/I_Pegmatite_16.jpg"" style=""width:8cm; height:5.8cm;""><p>What type of rock is this?</p>","0","class_response","1","test","28","Andesite","Pegmatite","16","false","1","6","",""
"","","","","","","","","","","","html-keyboard-response","260","2.0.0","881499","663363b0b60a322fa3657dbf","1","7","null","","","","","","","","","<p style='font-size: 30px;'><strong>Okay</strong></p>","null","neutral_feedback","1","test","28","","","","","","","",""
"","","","","","","","","","","","html-button-response","261","2.0.0","883135","663363b0b60a322fa3657dbf","1","7","1632","","","","","","","","","<img src= ""rock_img/I_Andesite_01.jpg"" style=""width:8cm; height:5.87cm;""><p>What type of rock is this?</p>","1","class_response","1","test","29","Basalt","Andesite","01","false","2","1","",""
"","","","","","","","","","","","html-keyboard-response","262","2.0.0","883637","663363b0b60a322fa3657dbf","1","7","null","","","","","","","","","<p style='font-size: 30px;'><strong>Okay</strong></p>","null","neutral_feedback","1","test","29","","","","","","","",""
"","","","","","","","","","","","html-button-response","263","2.0.0","885899","663363b0b60a322fa3657dbf","1","7","2257","","","","","","","","","<img src= ""rock_img/I_Diorite_09.jpg"" style=""width:8cm; height:5.27cm;""><p>What type of rock is this?</p>","2","class_response","1","test","30","Diorite","Diorite","09","true","3","3","",""
"","","","","","","","","","","","html-keyboard-response","264","2.0.0","886401","663363b0b60a322fa3657dbf","1","7","null","","","","","","","","","<p style='font-size: 30px;'><strong>Okay</strong></p>","null","neutral_feedback","1","test","30","","","","","","","",""
"","","","","","","","","","","","html-button-response","265","2.0.0","887542","663363b0b60a322fa3657dbf","1","7","1137","","","","","","","","","<img src= ""rock_img/I_Andesite_05.jpg"" style=""width:8cm; height:4.12cm;""><p>What type of rock is this?</p>","5","class_response","1","test","31","Pegmatite","Andesite","05","false","6","1","",""
"","","","","","","","","","","","html-keyboard-response","266","2.0.0","888044","663363b0b60a322fa3657dbf","1","7","null","","","","","","","","","<p style='font-size: 30px;'><strong>Okay</strong></p>","null","neutral_feedback","1","test","31","","","","","","","",""
"","","","","","","","","","","","html-button-response","267","2.0.0","890581","663363b0b60a322fa3657dbf","1","7","2534","","","","","","","","","<img src= ""rock_img/I_Peridotite_14.jpg"" style=""width:8cm; height:5.3cm;""><p>What type of rock is this?</p>","3","class_response","1","test","32","Gabbro","Peridotite","14","false","4","7","",""
"","","","","","","","","","","","html-keyboard-response","268","2.0.0","891083","663363b0b60a322fa3657dbf","1","7","null","","","","","","","","","<p style='font-size: 30px;'><strong>Okay</strong></p>","null","neutral_feedback","1","test","32","","","","","","","",""
"","","","","","","","","","","","html-button-response","269","2.0.0","913795","663363b0b60a322fa3657dbf","1","7","22708","","","","","","","","","<img src= ""rock_img/I_Diorite_08.jpg"" style=""width:8cm; height:6.37cm;""><p>What type of rock is this?</p>","2","class_response","1","test","33","Diorite","Diorite","08","true","3","3","",""
"","","","","","","","","","","","html-keyboard-response","270","2.0.0","914297","663363b0b60a322fa3657dbf","1","7","null","","","","","","","","","<p style='font-size: 30px;'><strong>Okay</strong></p>","null","neutral_feedback","1","test","33","","","","","","","",""
"","","","","","","","","","","","html-button-response","271","2.0.0","926791","663363b0b60a322fa3657dbf","1","7","12489","","","","","","","","","<img src= ""rock_img/I_Pegmatite_13.jpg"" style=""width:8cm; height:4.95cm;""><p>What type of rock is this?</p>","7","class_response","1","test","34","Pumice","Pegmatite","13","false","8","6","",""
"","","","","","","","","","","","html-keyboard-response","272","2.0.0","927293","663363b0b60a322fa3657dbf","1","7","null","","","","","","","","","<p style='font-size: 30px;'><strong>Okay</strong></p>","null","neutral_feedback","1","test","34","","","","","","","",""
"","","","","","","","","","","","html-button-response","273","2.0.0","928389","663363b0b60a322fa3657dbf","1","7","1092","","","","","","","","","<img src= ""rock_img/I_Obsidian_12.jpg"" style=""width:8cm; height:6.53cm;""><p>What type of rock is this?</p>","4","class_response","1","test","35","Obsidian","Obsidian","12","true","5","5","",""
"","","","","","","","","","","","html-keyboard-response","274","2.0.0","928891","663363b0b60a322fa3657dbf","1","7","null","","","","","","","","","<p style='font-size: 30px;'><strong>Okay</strong></p>","null","neutral_feedback","1","test","35","","","","","","","",""
"","","","","","","","","","","","html-button-response","275","2.0.0","931105","663363b0b60a322fa3657dbf","1","7","2210","","","","","","","","","<img src= ""rock_img/I_Basalt_06.jpg"" style=""width:8cm; height:7.06cm;""><p>What type of rock is this?</p>","1","class_response","1","test","36","Basalt","Basalt","06","true","2","2","",""
"","","","","","","","","","","","html-keyboard-response","276","2.0.0","931608","663363b0b60a322fa3657dbf","1","7","null","","","","","","","","","<p style='font-size: 30px;'><strong>Okay</strong></p>","null","neutral_feedback","1","test","36","","","","","","","",""
"","","","","","","","","","","","html-button-response","277","2.0.0","933304","663363b0b60a322fa3657dbf","1","7","1690","","","","","","","","","<img src= ""rock_img/I_Andesite_06.jpg"" style=""width:8cm; height:6.840000000000001cm;""><p>What type of rock is this?</p>","2","class_response","1","test","37","Diorite","Andesite","06","false","3","1","",""
"","","","","","","","","","","","html-keyboard-response","278","2.0.0","933806","663363b0b60a322fa3657dbf","1","7","null","","","","","","","","","<p style='font-size: 30px;'><strong>Okay</strong></p>","null","neutral_feedback","1","test","37","","","","","","","",""
"","","","","","","","","","","","html-button-response","279","2.0.0","934830","663363b0b60a322fa3657dbf","1","7","1021","","","","","","","","","<img src= ""rock_img/I_Basalt_04.jpg"" style=""width:8cm; height:7.53cm;""><p>What type of rock is this?</p>","1","class_response","1","test","38","Basalt","Basalt","04","true","2","2","",""
"","","","","","","","","","","","html-keyboard-response","280","2.0.0","935332","663363b0b60a322fa3657dbf","1","7","null","","","","","","","","","<p style='font-size: 30px;'><strong>Okay</strong></p>","null","neutral_feedback","1","test","38","","","","","","","",""
"","","","","","","","","","","","html-button-response","281","2.0.0","938483","663363b0b60a322fa3657dbf","1","7","3147","","","","","","","","","<img src= ""rock_img/I_Gabbro_15.jpg"" style=""width:8cm; height:6.29cm;""><p>What type of rock is this?</p>","3","class_response","1","test","39","Gabbro","Gabbro","15","true","4","4","",""
"","","","","","","","","","","","html-keyboard-response","282","2.0.0","938986","663363b0b60a322fa3657dbf","1","7","null","","","","","","","","","<p style='font-size: 30px;'><strong>Okay</strong></p>","null","neutral_feedback","1","test","39","","","","","","","",""
"","","","","","","","","","","","html-button-response","283","2.0.0","940030","663363b0b60a322fa3657dbf","1","7","1040","","","","","","","","","<img src= ""rock_img/I_Pumice_04.jpg"" style=""width:8cm; height:6.819999999999999cm;""><p>What type of rock is this?</p>","7","class_response","1","test","40","Pumice","Pumice","04","true","8","8","",""
"","","","","","","","","","","","html-keyboard-response","284","2.0.0","940532","663363b0b60a322fa3657dbf","1","7","null","","","","","","","","","<p style='font-size: 30px;'><strong>Okay</strong></p>","null","neutral_feedback","1","test","40","","","","","","","",""
"","","","","","","","","","","","html-button-response","285","2.0.0","942557","663363b0b60a322fa3657dbf","1","7","2021","","","","","","","","","<img src= ""rock_img/I_Pegmatite_07.jpg"" style=""width:8cm; height:6.7cm;""><p>What type of rock is this?</p>","0","class_response","1","test","41","Andesite","Pegmatite","07","false","1","6","",""
"","","","","","","","","","","","html-keyboard-response","286","2.0.0","943059","663363b0b60a322fa3657dbf","1","7","null","","","","","","","","","<p style='font-size: 30px;'><strong>Okay</strong></p>","null","neutral_feedback","1","test","41","","","","","","","",""
"","","","","","","","","","","","html-button-response","287","2.0.0","944494","663363b0b60a322fa3657dbf","1","7","1431","","","","","","","","","<img src= ""rock_img/I_Pumice_03.jpg"" style=""width:8cm; height:6.64cm;""><p>What type of rock is this?</p>","5","class_response","1","test","42","Pegmatite","Pumice","03","false","6","8","",""
"","","","","","","","","","","","html-keyboard-response","288","2.0.0","944996","663363b0b60a322fa3657dbf","1","7","null","","","","","","","","","<p style='font-size: 30px;'><strong>Okay</strong></p>","null","neutral_feedback","1","test","42","","","","","","","",""
"","","","","","","","","","","","html-button-response","289","2.0.0","947956","663363b0b60a322fa3657dbf","1","7","2958","","","","","","","","","<img src= ""rock_img/I_Gabbro_09.jpg"" style=""width:8cm; height:7.279999999999999cm;""><p>What type of rock is this?</p>","2","class_response","1","test","43","Diorite","Gabbro","09","false","3","4","",""
"","","","","","","","","","","","html-keyboard-response","290","2.0.0","948458","663363b0b60a322fa3657dbf","1","7","null","","","","","","","","","<p style='font-size: 30px;'><strong>Okay</strong></p>","null","neutral_feedback","1","test","43","","","","","","","",""
"","","","","","","","","","","","html-button-response","291","2.0.0","950234","663363b0b60a322fa3657dbf","1","7","1773","","","","","","","","","<img src= ""rock_img/I_Gabbro_03.jpg"" style=""width:8cm; height:8.52cm;""><p>What type of rock is this?</p>","1","class_response","1","test","44","Basalt","Gabbro","03","false","2","4","",""
"","","","","","","","","","","","html-keyboard-response","292","2.0.0","950736","663363b0b60a322fa3657dbf","1","7","null","","","","","","","","","<p style='font-size: 30px;'><strong>Okay</strong></p>","null","neutral_feedback","1","test","44","","","","","","","",""
"","","","","","","","","","","","html-button-response","293","2.0.0","951878","663363b0b60a322fa3657dbf","1","7","1138","","","","","","","","","<img src= ""rock_img/I_Basalt_01.jpg"" style=""width:8cm; height:7.880000000000001cm;""><p>What type of rock is this?</p>","1","class_response","1","test","45","Basalt","Basalt","01","true","2","2","",""
"","","","","","","","","","","","html-keyboard-response","294","2.0.0","952380","663363b0b60a322fa3657dbf","1","7","null","","","","","","","","","<p style='font-size: 30px;'><strong>Okay</strong></p>","null","neutral_feedback","1","test","45","","","","","","","",""
"","","","","","","","","","","","html-button-response","295","2.0.0","953647","663363b0b60a322fa3657dbf","1","7","1263","","","","","","","","","<img src= ""rock_img/I_Pumice_15.jpg"" style=""width:8cm; height:7.86cm;""><p>What type of rock is this?</p>","7","class_response","1","test","46","Pumice","Pumice","15","true","8","8","",""
"","","","","","","","","","","","html-keyboard-response","296","2.0.0","954150","663363b0b60a322fa3657dbf","1","7","null","","","","","","","","","<p style='font-size: 30px;'><strong>Okay</strong></p>","null","neutral_feedback","1","test","46","","","","","","","",""
"","","","","","","","","","","","html-button-response","297","2.0.0","955792","663363b0b60a322fa3657dbf","1","7","1638","","","","","","","","","<img src= ""rock_img/I_Obsidian_11.jpg"" style=""width:8cm; height:6.05cm;""><p>What type of rock is this?</p>","4","class_response","1","test","47","Obsidian","Obsidian","11","true","5","5","",""
"","","","","","","","","","","","html-keyboard-response","298","2.0.0","956294","663363b0b60a322fa3657dbf","1","7","null","","","","","","","","","<p style='font-size: 30px;'><strong>Okay</strong></p>","null","neutral_feedback","1","test","47","","","","","","","",""
"","","","","","","","","","","","html-button-response","299","2.0.0","957229","663363b0b60a322fa3657dbf","1","7","931","","","","","","","","","<img src= ""rock_img/I_Obsidian_09.jpg"" style=""width:8cm; height:5cm;""><p>What type of rock is this?</p>","4","class_response","1","test","48","Obsidian","Obsidian","09","true","5","5","",""
"","","","","","","","","","","","html-keyboard-response","300","2.0.0","957731","663363b0b60a322fa3657dbf","1","7","null","","","","","","","","","<p style='font-size: 30px;'><strong>Okay</strong></p>","null","neutral_feedback","1","test","48","","","","","","","",""
"","","","","","","","","","","","html-button-response","301","2.0.0","980694","663363b0b60a322fa3657dbf","1","7","","","","","","","","","","","","cycle_feedback","","","","","","","","","","6633.100000000559","16307.199999999255"
"","","","","","","","","","","","html-button-response","303","2.0.0","982061","663363b0b60a322fa3657dbf","1","7","1365","","","","","","","","","","0","start_train","","","","","","","","","","",""
"","","","","","","","","","","","html-button-response","304","2.0.0","985361","663363b0b60a322fa3657dbf","1","7","3298","","","","","","","","","<img src= ""rock_img/I_Diorite_15.jpg"" style=""width:8cm; height:5.54cm;""><p>What type of rock is this?</p>","1","class_response","2","train","1","Basalt","Diorite","15","false","2","3","",""
"","","","","","","","","","","","html-button-response","305","2.0.0","986275","663363b0b60a322fa3657dbf","1","7","911","","","","","","","","","<img src= rock_img/I_Diorite_15.jpg style=""width:8cm; height:5.54cm;""><p style='font-size: 30px; color: red;'><strong>Incorrect!</strong></p><p style='font-size: 30px;'><strong>This rock is diorite</strong></p>","0","corr_feedback","2","train","1","","","","","","","",""
