"width","height","webaudio","browser","browser_version","mobile","os","fullscreen","vsync_rate","webcam","microphone","trial_type","trial_index","plugin_version","time_elapsed","subjID","condition","stimID","rt","url","success","value","timeout","failed_images","failed_audio","failed_video","view_history","stimulus","response","trialType","cycle","phase","trial","resp","cat","token","corr","resp_num","cat_num","time_fb1","time_fb2"
"1366","641","true","chrome","131.0.0","false","Windows 10","true","60.7","true","true","browser-check","0","2.0.0","1006","659d779096ebe05ecca2ebce","1","49","","","","","","","","","","","","","","","","","","","","","","",""
"","","","","","","","","","","","external-html","1","2.0.0","794201","659d779096ebe05ecca2ebce","1","49","791067","consent_form.html","","","","","","","","","","","","","","","","","","","","",""
"","","","","","","","","","","","fullscreen","2","2.0.0","820452","659d779096ebe05ecca2ebce","1","49","25232","","true","","","","","","","","","","","","","","","","","","","",""
"","","","","","","","","","","","call-function","3","2.0.0","820457","659d779096ebe05ecca2ebce","1","49","","","","{}","","","","","","","","","","","","","","","","","","",""
"","","","","","","","","","","","preload","4","2.0.0","854599","659d779096ebe05ecca2ebce","1","49","","","true","","false","[]","[]","[]","","","","","","","","","","","","","","",""
"","","","","","","","","","","","instructions","5","2.0.0","988665","659d779096ebe05ecca2ebce","1","49","134063","","","","","","","","[{""page_index"":0,""viewing_time"":94465},{""page_index"":1,""viewing_time"":26607},{""page_index"":2,""viewing_time"":12991}]","","","","","","","","","","","","","",""
"","","","","","","","","","","","html-button-response","6","2.0.0","993341","659d779096ebe05ecca2ebce","1","49","4674","","","","","","","","","","0","start_test","","","","","","","","","","",""
"","","","","","","","","","","","html-button-response","7","2.0.0","997416","659d779096ebe05ecca2ebce","1","49","4073","","","","","","","","","<img src= ""rock_img/I_Pumice_09.jpg"" style=""width:8cm; height:6.44cm;""><p>What type of rock is this?</p>","1","class_response","0","test","1","Basalt","Pumice","09","false","2","8","",""
"","","","","","","","","","","","html-keyboard-response","8","2.0.0","997932","659d779096ebe05ecca2ebce","1","49","null","","","","","","","","","<p style='font-size: 30px;'><strong>Okay</strong></p>","null","neutral_feedback","0","test","1","","","","","","","",""
"","","","","","","","","","","","html-button-response","9","2.0.0","1001153","659d779096ebe05ecca2ebce","1","49","3217","","","","","","","","","<img src= ""rock_img/I_Peridotite_14.jpg"" style=""width:8cm; height:5.3cm;""><p>What type of rock is this?</p>","5","class_response","0","test","2","Pegmatite","Peridotite","14","false","6","7","",""
"","","","","","","","","","","","html-keyboard-response","10","2.0.0","1001660","659d779096ebe05ecca2ebce","1","49","null","","","","","","","","","<p style='font-size: 30px;'><strong>Okay</strong></p>","null","neutral_feedback","0","test","2","","","","","","","",""
"","","","","","","","","","","","html-button-response","11","2.0.0","1003837","659d779096ebe05ecca2ebce","1","49","2173","","","","","","","","","<img src= ""rock_img/I_Basalt_09.jpg"" style=""width:8cm; height:6.2cm;""><p>What type of rock is this?</p>","6","class_response","0","test","3","Peridotite","Basalt","09","false","7","2","",""
"","","","","","","","","","","","html-keyboard-response","12","2.0.0","1004350","659d779096ebe05ecca2ebce","1","49","null","","","","","","","","","<p style='font-size: 30px;'><strong>Okay</strong></p>","null","neutral_feedback","0","test","3","","","","","","","",""
"","","","","","","","","","","","html-button-response","13","2.0.0","1006957","659d779096ebe05ecca2ebce","1","49","2605","","","","","","","","","<img src= ""rock_img/I_Andesite_02.jpg"" style=""width:8cm; height:8.5cm;""><p>What type of rock is this?</p>","0","class_response","0","test","4","Andesite","Andesite","02","true","1","1","",""
"","","","","","","","","","","","html-keyboard-response","14","2.0.0","1007466","659d779096ebe05ecca2ebce","1","49","null","","","","","","","","","<p style='font-size: 30px;'><strong>Okay</strong></p>","null","neutral_feedback","0","test","4","","","","","","","",""
"","","","","","","","","","","","html-button-response","15","2.0.0","1010008","659d779096ebe05ecca2ebce","1","49","2540","","","","","","","","","<img src= ""rock_img/I_Obsidian_12.jpg"" style=""width:8cm; height:6.53cm;""><p>What type of rock is this?</p>","1","class_response","0","test","5","Basalt","Obsidian","12","false","2","5","",""
"","","","","","","","","","","","html-keyboard-response","16","2.0.0","1010524","659d779096ebe05ecca2ebce","1","49","null","","","","","","","","","<p style='font-size: 30px;'><strong>Okay</strong></p>","null","neutral_feedback","0","test","5","","","","","","","",""
"","","","","","","","","","","","html-button-response","17","2.0.0","1013362","659d779096ebe05ecca2ebce","1","49","2835","","","","","","","","","<img src= ""rock_img/I_Basalt_05.jpg"" style=""width:8cm; height:8.18cm;""><p>What type of rock is this?</p>","7","class_response","0","test","6","Pumice","Basalt","05","false","8","2","",""
"","","","","","","","","","","","html-keyboard-response","18","2.0.0","1013869","659d779096ebe05ecca2ebce","1","49","null","","","","","","","","","<p style='font-size: 30px;'><strong>Okay</strong></p>","null","neutral_feedback","0","test","6","","","","","","","",""
"","","","","","","","","","","","html-button-response","19","2.0.0","1017445","659d779096ebe05ecca2ebce","1","49","3573","","","","","","","","","<img src= ""rock_img/I_Gabbro_03.jpg"" style=""width:8cm; height:8.52cm;""><p>What type of rock is this?</p>","1","class_response","0","test","7","Basalt","Gabbro","03","false","2","4","",""
"","","","","","","","","","","","html-keyboard-response","20","2.0.0","1017948","659d779096ebe05ecca2ebce","1","49","null","","","","","","","","","<p style='font-size: 30px;'><strong>Okay</strong></p>","null","neutral_feedback","0","test","7","","","","","","","",""
"","","","","","","","","","","","html-button-response","21","2.0.0","1020429","659d779096ebe05ecca2ebce","1","49","2478","","","","","","","","","<img src= ""rock_img/I_Obsidian_16.jpg"" style=""width:8cm; height:9.3cm;""><p>What type of rock is this?</p>","2","class_response","0","test","8","Diorite","Obsidian","16","false","3","5","",""
"","","","","","","","","","","","html-keyboard-response","22","2.0.0","1020940","659d779096ebe05ecca2ebce","1","49","null","","","","","","","","","<p style='font-size: 30px;'><strong>Okay</strong></p>","null","neutral_feedback","0","test","8","","","","","","","",""
"","","","","","","","","","","","html-button-response","23","2.0.0","1022753","659d779096ebe05ecca2ebce","1","49","1810","","","","","","","","","<img src= ""rock_img/I_Diorite_15.jpg"" style=""width:8cm; height:5.54cm;""><p>What type of rock is this?</p>","0","class_response","0","test","9","Andesite","Diorite","15","false","1","3","",""
"","","","","","","","","","","","html-keyboard-response","24","2.0.0","1023256","659d779096ebe05ecca2ebce","1","49","null","","","","","","","","","<p style='font-size: 30px;'><strong>Okay</strong></p>","null","neutral_feedback","0","test","9","","","","","","","",""
"","","","","","","","","","","","html-button-response","25","2.0.0","1025286","659d779096ebe05ecca2ebce","1","49","2027","","","","","","","","","<img src= ""rock_img/I_Pumice_13.jpg"" style=""width:8cm; height:8.200000000000001cm;""><p>What type of rock is this?</p>","7","class_response","0","test","10","Pumice","Pumice","13","true","8","8","",""
"","","","","","","","","","","","html-keyboard-response","26","2.0.0","1025796","659d779096ebe05ecca2ebce","1","49","null","","","","","","","","","<p style='font-size: 30px;'><strong>Okay</strong></p>","null","neutral_feedback","0","test","10","","","","","","","",""
"","","","","","","","","","","","html-button-response","27","2.0.0","1028090","659d779096ebe05ecca2ebce","1","49","2291","","","","","","","","","<img src= ""rock_img/I_Gabbro_09.jpg"" style=""width:8cm; height:7.279999999999999cm;""><p>What type of rock is this?</p>","4","class_response","0","test","11","Obsidian","Gabbro","09","false","5","4","",""
"","","","","","","","","","","","html-keyboard-response","28","2.0.0","1028594","659d779096ebe05ecca2ebce","1","49","null","","","","","","","","","<p style='font-size: 30px;'><strong>Okay</strong></p>","null","neutral_feedback","0","test","11","","","","","","","",""
"","","","","","","","","","","","html-button-response","29","2.0.0","1030677","659d779096ebe05ecca2ebce","1","49","2080","","","","","","","","","<img src= ""rock_img/I_Pumice_14.jpg"" style=""width:8cm; height:6.39cm;""><p>What type of rock is this?</p>","2","class_response","0","test","12","Diorite","Pumice","14","false","3","8","",""
"","","","","","","","","","","","html-keyboard-response","30","2.0.0","1031179","659d779096ebe05ecca2ebce","1","49","null","","","","","","","","","<p style='font-size: 30px;'><strong>Okay</strong></p>","null","neutral_feedback","0","test","12","","","","","","","",""
"","","","","","","","","","","","html-button-response","31","2.0.0","1032970","659d779096ebe05ecca2ebce","1","49","1788","","","","","","","","","<img src= ""rock_img/I_Pegmatite_15.jpg"" style=""width:8cm; height:6cm;""><p>What type of rock is this?</p>","3","class_response","0","test","13","Gabbro","Pegmatite","15","false","4","6","",""
"","","","","","","","","","","","html-keyboard-response","32","2.0.0","1033477","659d779096ebe05ecca2ebce","1","49","null","","","","","","","","","<p style='font-size: 30px;'><strong>Okay</strong></p>","null","neutral_feedback","0","test","13","","","","","","","",""
"","","","","","","","","","","","html-button-response","33","2.0.0","1035338","659d779096ebe05ecca2ebce","1","49","1859","","","","","","","","","<img src= ""rock_img/I_Pegmatite_05.jpg"" style=""width:8cm; height:7.300000000000001cm;""><p>What type of rock is this?</p>","1","class_response","0","test","14","Basalt","Pegmatite","05","false","2","6","",""
"","","","","","","","","","","","html-keyboard-response","34","2.0.0","1035841","659d779096ebe05ecca2ebce","1","49","null","","","","","","","","","<p style='font-size: 30px;'><strong>Okay</strong></p>","null","neutral_feedback","0","test","14","","","","","","","",""
"","","","","","","","","","","","html-button-response","35","2.0.0","1037556","659d779096ebe05ecca2ebce","1","49","1712","","","","","","","","","<img src= ""rock_img/I_Pegmatite_07.jpg"" style=""width:8cm; height:6.7cm;""><p>What type of rock is this?</p>","7","class_response","0","test","15","Pumice","Pegmatite","07","false","8","6","",""
"","","","","","","","","","","","html-keyboard-response","36","2.0.0","1038061","659d779096ebe05ecca2ebce","1","49","null","","","","","","","","","<p style='font-size: 30px;'><strong>Okay</strong></p>","null","neutral_feedback","0","test","15","","","","","","","",""
"","","","","","","","","","","","html-button-response","37","2.0.0","1040052","659d779096ebe05ecca2ebce","1","49","1989","","","","","","","","","<img src= ""rock_img/I_Andesite_09.jpg"" style=""width:8cm; height:6cm;""><p>What type of rock is this?</p>","0","class_response","0","test","16","Andesite","Andesite","09","true","1","1","",""
"","","","","","","","","","","","html-keyboard-response","38","2.0.0","1040566","659d779096ebe05ecca2ebce","1","49","null","","","","","","","","","<p style='font-size: 30px;'><strong>Okay</strong></p>","null","neutral_feedback","0","test","16","","","","","","","",""
"","","","","","","","","","","","html-button-response","39","2.0.0","1042330","659d779096ebe05ecca2ebce","1","49","1761","","","","","","","","","<img src= ""rock_img/I_Obsidian_14.jpg"" style=""width:8cm; height:7.64cm;""><p>What type of rock is this?</p>","4","class_response","0","test","17","Obsidian","Obsidian","14","true","5","5","",""
"","","","","","","","","","","","html-keyboard-response","40","2.0.0","1042846","659d779096ebe05ecca2ebce","1","49","null","","","","","","","","","<p style='font-size: 30px;'><strong>Okay</strong></p>","null","neutral_feedback","0","test","17","","","","","","","",""
"","","","","","","","","","","","html-button-response","41","2.0.0","1044284","659d779096ebe05ecca2ebce","1","49","1435","","","","","","","","","<img src= ""rock_img/I_Pegmatite_11.jpg"" style=""width:8cm; height:8.14cm;""><p>What type of rock is this?</p>","2","class_response","0","test","18","Diorite","Pegmatite","11","false","3","6","",""
"","","","","","","","","","","","html-keyboard-response","42","2.0.0","1044786","659d779096ebe05ecca2ebce","1","49","null","","","","","","","","","<p style='font-size: 30px;'><strong>Okay</strong></p>","null","neutral_feedback","0","test","18","","","","","","","",""
"","","","","","","","","","","","html-button-response","43","2.0.0","1046412","659d779096ebe05ecca2ebce","1","49","1623","","","","","","","","","<img src= ""rock_img/I_Diorite_08.jpg"" style=""width:8cm; height:6.37cm;""><p>What type of rock is this?</p>","1","class_response","0","test","19","Basalt","Diorite","08","false","2","3","",""
"","","","","","","","","","","","html-keyboard-response","44","2.0.0","1046917","659d779096ebe05ecca2ebce","1","49","null","","","","","","","","","<p style='font-size: 30px;'><strong>Okay</strong></p>","null","neutral_feedback","0","test","19","","","","","","","",""
"","","","","","","","","","","","html-button-response","45","2.0.0","1048442","659d779096ebe05ecca2ebce","1","49","1522","","","","","","","","","<img src= ""rock_img/I_Basalt_04.jpg"" style=""width:8cm; height:7.53cm;""><p>What type of rock is this?</p>","3","class_response","0","test","20","Gabbro","Basalt","04","false","4","2","",""
"","","","","","","","","","","","html-keyboard-response","46","2.0.0","1048950","659d779096ebe05ecca2ebce","1","49","null","","","","","","","","","<p style='font-size: 30px;'><strong>Okay</strong></p>","null","neutral_feedback","0","test","20","","","","","","","",""
"","","","","","","","","","","","html-button-response","47","2.0.0","1050765","659d779096ebe05ecca2ebce","1","49","1811","","","","","","","","","<img src= ""rock_img/I_Gabbro_05.jpg"" style=""width:8cm; height:6cm;""><p>What type of rock is this?</p>","5","class_response","0","test","21","Pegmatite","Gabbro","05","false","6","4","",""
"","","","","","","","","","","","html-keyboard-response","48","2.0.0","1051266","659d779096ebe05ecca2ebce","1","49","null","","","","","","","","","<p style='font-size: 30px;'><strong>Okay</strong></p>","null","neutral_feedback","0","test","21","","","","","","","",""
"","","","","","","","","","","","html-button-response","49","2.0.0","1052743","659d779096ebe05ecca2ebce","1","49","1474","","","","","","","","","<img src= ""rock_img/I_Peridotite_04.jpg"" style=""width:8cm; height:6.680000000000001cm;""><p>What type of rock is this?</p>","4","class_response","0","test","22","Obsidian","Peridotite","04","false","5","7","",""
"","","","","","","","","","","","html-keyboard-response","50","2.0.0","1053247","659d779096ebe05ecca2ebce","1","49","null","","","","","","","","","<p style='font-size: 30px;'><strong>Okay</strong></p>","null","neutral_feedback","0","test","22","","","","","","","",""
"","","","","","","","","","","","html-button-response","51","2.0.0","1054809","659d779096ebe05ecca2ebce","1","49","1560","","","","","","","","","<img src= ""rock_img/I_Andesite_07.jpg"" style=""width:8cm; height:5.93cm;""><p>What type of rock is this?</p>","0","class_response","0","test","23","Andesite","Andesite","07","true","1","1","",""
"","","","","","","","","","","","html-keyboard-response","52","2.0.0","1055318","659d779096ebe05ecca2ebce","1","49","null","","","","","","","","","<p style='font-size: 30px;'><strong>Okay</strong></p>","null","neutral_feedback","0","test","23","","","","","","","",""
"","","","","","","","","","","","html-button-response","53","2.0.0","1057359","659d779096ebe05ecca2ebce","1","49","2038","","","","","","","","","<img src= ""rock_img/I_Peridotite_08.jpg"" style=""width:8cm; height:6.7cm;""><p>What type of rock is this?</p>","7","class_response","0","test","24","Pumice","Peridotite","08","false","8","7","",""
"","","","","","","","","","","","html-keyboard-response","54","2.0.0","1057873","659d779096ebe05ecca2ebce","1","49","null","","","","","","","","","<p style='font-size: 30px;'><strong>Okay</strong></p>","null","neutral_feedback","0","test","24","","","","","","","",""
"","","","","","","","","","","","html-button-response","55","2.0.0","1060426","659d779096ebe05ecca2ebce","1","49","2550","","","","","","","","","<img src= ""rock_img/I_Pegmatite_12.jpg"" style=""width:8cm; height:5.7cm;""><p>What type of rock is this?</p>","5","class_response","0","test","25","Pegmatite","Pegmatite","12","true","6","6","",""
"","","","","","","","","","","","html-keyboard-response","56","2.0.0","1060940","659d779096ebe05ecca2ebce","1","49","null","","","","","","","","","<p style='font-size: 30px;'><strong>Okay</strong></p>","null","neutral_feedback","0","test","25","","","","","","","",""
"","","","","","","","","","","","html-button-response","57","2.0.0","1064245","659d779096ebe05ecca2ebce","1","49","3303","","","","","","","","","<img src= ""rock_img/I_Obsidian_04.jpg"" style=""width:8cm; height:6.930000000000001cm;""><p>What type of rock is this?</p>","2","class_response","0","test","26","Diorite","Obsidian","04","false","3","5","",""
"","","","","","","","","","","","html-keyboard-response","58","2.0.0","1064748","659d779096ebe05ecca2ebce","1","49","null","","","","","","","","","<p style='font-size: 30px;'><strong>Okay</strong></p>","null","neutral_feedback","0","test","26","","","","","","","",""
"","","","","","","","","","","","html-button-response","59","2.0.0","1069846","659d779096ebe05ecca2ebce","1","49","5096","","","","","","","","","<img src= ""rock_img/I_Andesite_01.jpg"" style=""width:8cm; height:5.87cm;""><p>What type of rock is this?</p>","0","class_response","0","test","27","Andesite","Andesite","01","true","1","1","",""
"","","","","","","","","","","","html-keyboard-response","60","2.0.0","1070349","659d779096ebe05ecca2ebce","1","49","null","","","","","","","","","<p style='font-size: 30px;'><strong>Okay</strong></p>","null","neutral_feedback","0","test","27","","","","","","","",""
"","","","","","","","","","","","html-button-response","61","2.0.0","1074192","659d779096ebe05ecca2ebce","1","49","3840","","","","","","","","","<img src= ""rock_img/I_Pegmatite_09.jpg"" style=""width:8cm; height:4.03cm;""><p>What type of rock is this?</p>","3","class_response","0","test","28","Gabbro","Pegmatite","09","false","4","6","",""
"","","","","","","","","","","","html-keyboard-response","62","2.0.0","1074708","659d779096ebe05ecca2ebce","1","49","null","","","","","","","","","<p style='font-size: 30px;'><strong>Okay</strong></p>","null","neutral_feedback","0","test","28","","","","","","","",""
"","","","","","","","","","","","html-button-response","63","2.0.0","1076514","659d779096ebe05ecca2ebce","1","49","1804","","","","","","","","","<img src= ""rock_img/I_Andesite_06.jpg"" style=""width:8cm; height:6.840000000000001cm;""><p>What type of rock is this?</p>","1","class_response","0","test","29","Basalt","Andesite","06","false","2","1","",""
"","","","","","","","","","","","html-keyboard-response","64","2.0.0","1077024","659d779096ebe05ecca2ebce","1","49","null","","","","","","","","","<p style='font-size: 30px;'><strong>Okay</strong></p>","null","neutral_feedback","0","test","29","","","","","","","",""
"","","","","","","","","","","","html-button-response","65","2.0.0","1082507","659d779096ebe05ecca2ebce","1","49","5480","","","","","","","","","<img src= ""rock_img/I_Peridotite_12.jpg"" style=""width:8cm; height:4.54cm;""><p>What type of rock is this?</p>","7","class_response","0","test","30","Pumice","Peridotite","12","false","8","7","",""
"","","","","","","","","","","","html-keyboard-response","66","2.0.0","1083013","659d779096ebe05ecca2ebce","1","49","null","","","","","","","","","<p style='font-size: 30px;'><strong>Okay</strong></p>","null","neutral_feedback","0","test","30","","","","","","","",""
"","","","","","","","","","","","html-button-response","67","2.0.0","1085589","659d779096ebe05ecca2ebce","1","49","2574","","","","","","","","","<img src= ""rock_img/I_Gabbro_01.jpg"" style=""width:8cm; height:5.21cm;""><p>What type of rock is this?</p>","4","class_response","0","test","31","Obsidian","Gabbro","01","false","5","4","",""
"","","","","","","","","","","","html-keyboard-response","68","2.0.0","1086097","659d779096ebe05ecca2ebce","1","49","null","","","","","","","","","<p style='font-size: 30px;'><strong>Okay</strong></p>","null","neutral_feedback","0","test","31","","","","","","","",""
"","","","","","","","","","","","html-button-response","69","2.0.0","1087815","659d779096ebe05ecca2ebce","1","49","1715","","","","","","","","","<img src= ""rock_img/I_Diorite_07.jpg"" style=""width:8cm; height:5.239999999999999cm;""><p>What type of rock is this?</p>","3","class_response","0","test","32","Gabbro","Diorite","07","false","4","3","",""
"","","","","","","","","","","","html-keyboard-response","70","2.0.0","1088322","659d779096ebe05ecca2ebce","1","49","null","","","","","","","","","<p style='font-size: 30px;'><strong>Okay</strong></p>","null","neutral_feedback","0","test","32","","","","","","","",""
"","","","","","","","","","","","html-button-response","71","2.0.0","1092415","659d779096ebe05ecca2ebce","1","49","4091","","","","","","","","","<img src= ""rock_img/I_Pumice_16.jpg"" style=""width:8cm; height:6.79cm;""><p>What type of rock is this?</p>","0","class_response","0","test","33","Andesite","Pumice","16","false","1","8","",""
"","","","","","","","","","","","html-keyboard-response","72","2.0.0","1092917","659d779096ebe05ecca2ebce","1","49","null","","","","","","","","","<p style='font-size: 30px;'><strong>Okay</strong></p>","null","neutral_feedback","0","test","33","","","","","","","",""
"","","","","","","","","","","","html-button-response","73","2.0.0","1104632","659d779096ebe05ecca2ebce","1","49","11712","","","","","","","","","<img src= ""rock_img/I_Obsidian_07.jpg"" style=""width:8cm; height:4.76cm;""><p>What type of rock is this?</p>","0","class_response","0","test","34","Andesite","Obsidian","07","false","1","5","",""
"","","","","","","","","","","","html-keyboard-response","74","2.0.0","1105141","659d779096ebe05ecca2ebce","1","49","null","","","","","","","","","<p style='font-size: 30px;'><strong>Okay</strong></p>","null","neutral_feedback","0","test","34","","","","","","","",""
"","","","","","","","","","","","html-button-response","75","2.0.0","1108761","659d779096ebe05ecca2ebce","1","49","3617","","","","","","","","","<img src= ""rock_img/I_Basalt_08.jpg"" style=""width:8cm; height:10.44cm;""><p>What type of rock is this?</p>","2","class_response","0","test","35","Diorite","Basalt","08","false","3","2","",""
"","","","","","","","","","","","html-keyboard-response","76","2.0.0","1109264","659d779096ebe05ecca2ebce","1","49","null","","","","","","","","","<p style='font-size: 30px;'><strong>Okay</strong></p>","null","neutral_feedback","0","test","35","","","","","","","",""
"","","","","","","","","","","","html-button-response","77","2.0.0","1118082","659d779096ebe05ecca2ebce","1","49","8816","","","","","","","","","<img src= ""rock_img/I_Peridotite_02.jpg"" style=""width:8cm; height:5.859999999999999cm;""><p>What type of rock is this?</p>","7","class_response","0","test","36","Pumice","Peridotite","02","false","8","7","",""
"","","","","","","","","","","","html-keyboard-response","78","2.0.0","1118596","659d779096ebe05ecca2ebce","1","49","null","","","","","","","","","<p style='font-size: 30px;'><strong>Okay</strong></p>","null","neutral_feedback","0","test","36","","","","","","","",""
"","","","","","","","","","","","html-button-response","79","2.0.0","1125850","659d779096ebe05ecca2ebce","1","49","7251","","","","","","","","","<img src= ""rock_img/I_Peridotite_10.jpg"" style=""width:8cm; height:5.390000000000001cm;""><p>What type of rock is this?</p>","0","class_response","0","test","37","Andesite","Peridotite","10","false","1","7","",""
"","","","","","","","","","","","html-keyboard-response","80","2.0.0","1126361","659d779096ebe05ecca2ebce","1","49","null","","","","","","","","","<p style='font-size: 30px;'><strong>Okay</strong></p>","null","neutral_feedback","0","test","37","","","","","","","",""
"","","","","","","","","","","","html-button-response","81","2.0.0","1131683","659d779096ebe05ecca2ebce","1","49","5319","","","","","","","","","<img src= ""rock_img/I_Basalt_11.jpg"" style=""width:8cm; height:5.359999999999999cm;""><p>What type of rock is this?</p>","3","class_response","0","test","38","Gabbro","Basalt","11","false","4","2","",""
"","","","","","","","","","","","html-keyboard-response","82","2.0.0","1132196","659d779096ebe05ecca2ebce","1","49","null","","","","","","","","","<p style='font-size: 30px;'><strong>Okay</strong></p>","null","neutral_feedback","0","test","38","","","","","","","",""
"","","","","","","","","","","","html-button-response","83","2.0.0","1144426","659d779096ebe05ecca2ebce","1","49","12228","","","","","","","","","<img src= ""rock_img/I_Diorite_09.jpg"" style=""width:8cm; height:5.27cm;""><p>What type of rock is this?</p>","2","class_response","0","test","39","Diorite","Diorite","09","true","3","3","",""
"","","","","","","","","","","","html-keyboard-response","84","2.0.0","1144934","659d779096ebe05ecca2ebce","1","49","null","","","","","","","","","<p style='font-size: 30px;'><strong>Okay</strong></p>","null","neutral_feedback","0","test","39","","","","","","","",""
"","","","","","","","","","","","html-button-response","85","2.0.0","1147419","659d779096ebe05ecca2ebce","1","49","2483","","","","","","","","","<img src= ""rock_img/I_Pumice_04.jpg"" style=""width:8cm; height:6.819999999999999cm;""><p>What type of rock is this?</p>","3","class_response","0","test","40","Gabbro","Pumice","04","false","4","8","",""
"","","","","","","","","","","","html-keyboard-response","86","2.0.0","1147923","659d779096ebe05ecca2ebce","1","49","null","","","","","","","","","<p style='font-size: 30px;'><strong>Okay</strong></p>","null","neutral_feedback","0","test","40","","","","","","","",""
"","","","","","","","","","","","html-button-response","87","2.0.0","1150599","659d779096ebe05ecca2ebce","1","49","2673","","","","","","","","","<img src= ""rock_img/I_Diorite_02.jpg"" style=""width:8cm; height:6.27cm;""><p>What type of rock is this?</p>","0","class_response","0","test","41","Andesite","Diorite","02","false","1","3","",""
"","","","","","","","","","","","html-keyboard-response","88","2.0.0","1151102","659d779096ebe05ecca2ebce","1","49","null","","","","","","","","","<p style='font-size: 30px;'><strong>Okay</strong></p>","null","neutral_feedback","0","test","41","","","","","","","",""
"","","","","","","","","","","","html-button-response","89","2.0.0","1153546","659d779096ebe05ecca2ebce","1","49","2442","","","","","","","","","<img src= ""rock_img/I_Gabbro_13.jpg"" style=""width:8cm; height:5.08cm;""><p>What type of rock is this?</p>","6","class_response","0","test","42","Peridotite","Gabbro","13","false","7","4","",""
"","","","","","","","","","","","html-keyboard-response","90","2.0.0","1154058","659d779096ebe05ecca2ebce","1","49","null","","","","","","","","","<p style='font-size: 30px;'><strong>Okay</strong></p>","null","neutral_feedback","0","test","42","","","","","","","",""
"","","","","","","","","","","","html-button-response","91","2.0.0","1157666","659d779096ebe05ecca2ebce","1","49","3606","","","","","","","","","<img src= ""rock_img/I_Diorite_14.jpg"" style=""width:8cm; height:5.71cm;""><p>What type of rock is this?</p>","4","class_response","0","test","43","Obsidian","Diorite","14","false","5","3","",""
"","","","","","","","","","","","html-keyboard-response","92","2.0.0","1158171","659d779096ebe05ecca2ebce","1","49","null","","","","","","","","","<p style='font-size: 30px;'><strong>Okay</strong></p>","null","neutral_feedback","0","test","43","","","","","","","",""
"","","","","","","","","","","","html-button-response","93","2.0.0","1160982","659d779096ebe05ecca2ebce","1","49","2809","","","","","","","","","<img src= ""rock_img/I_Pumice_15.jpg"" style=""width:8cm; height:7.86cm;""><p>What type of rock is this?</p>","3","class_response","0","test","44","Gabbro","Pumice","15","false","4","8","",""
"","","","","","","","","","","","html-keyboard-response","94","2.0.0","1161485","659d779096ebe05ecca2ebce","1","49","null","","","","","","","","","<p style='font-size: 30px;'><strong>Okay</strong></p>","null","neutral_feedback","0","test","44","","","","","","","",""
"","","","","","","","","","","","html-button-response","95","2.0.0","1166680","659d779096ebe05ecca2ebce","1","49","5193","","","","","","","","","<img src= ""rock_img/I_Basalt_16.jpg"" style=""width:8cm; height:7.659999999999999cm;""><p>What type of rock is this?</p>","0","class_response","0","test","45","Andesite","Basalt","16","false","1","2","",""
"","","","","","","","","","","","html-keyboard-response","96","2.0.0","1167187","659d779096ebe05ecca2ebce","1","49","null","","","","","","","","","<p style='font-size: 30px;'><strong>Okay</strong></p>","null","neutral_feedback","0","test","45","","","","","","","",""
"","","","","","","","","","","","html-button-response","97","2.0.0","1169274","659d779096ebe05ecca2ebce","1","49","2084","","","","","","","","","<img src= ""rock_img/I_Obsidian_02.jpg"" style=""width:8cm; height:7.51cm;""><p>What type of rock is this?</p>","3","class_response","0","test","46","Gabbro","Obsidian","02","false","4","5","",""
"","","","","","","","","","","","html-keyboard-response","98","2.0.0","1169776","659d779096ebe05ecca2ebce","1","49","null","","","","","","","","","<p style='font-size: 30px;'><strong>Okay</strong></p>","null","neutral_feedback","0","test","46","","","","","","","",""
"","","","","","","","","","","","html-button-response","99","2.0.0","1172665","659d779096ebe05ecca2ebce","1","49","2886","","","","","","","","","<img src= ""rock_img/I_Andesite_16.jpg"" style=""width:8cm; height:6.010000000000001cm;""><p>What type of rock is this?</p>","1","class_response","0","test","47","Basalt","Andesite","16","false","2","1","",""
"","","","","","","","","","","","html-keyboard-response","100","2.0.0","1173173","659d779096ebe05ecca2ebce","1","49","null","","","","","","","","","<p style='font-size: 30px;'><strong>Okay</strong></p>","null","neutral_feedback","0","test","47","","","","","","","",""
"","","","","","","","","","","","html-button-response","101","2.0.0","1176341","659d779096ebe05ecca2ebce","1","49","3166","","","","","","","","","<img src= ""rock_img/I_Gabbro_14.jpg"" style=""width:8cm; height:8.48cm;""><p>What type of rock is this?</p>","7","class_response","0","test","48","Pumice","Gabbro","14","false","8","4","",""
"","","","","","","","","","","","html-keyboard-response","102","2.0.0","1176855","659d779096ebe05ecca2ebce","1","49","null","","","","","","","","","<p style='font-size: 30px;'><strong>Okay</strong></p>","null","neutral_feedback","0","test","48","","","","","","","",""
"","","","","","","","","","","","instructions","103","2.0.0","1209286","659d779096ebe05ecca2ebce","1","49","32373","","","","","","","","[{""page_index"":0,""viewing_time"":16133},{""page_index"":1,""viewing_time"":6195},{""page_index"":2,""viewing_time"":10045}]","","","","","","","","","","","","","",""
"","","","","","","","","","","","html-button-response","104","2.0.0","1232367","659d779096ebe05ecca2ebce","1","49","23080","","","","","","","","","","0","start_train","","","","","","","","","","",""
"","","","","","","","","","","","html-button-response","105","2.0.0","1237509","659d779096ebe05ecca2ebce","1","49","5140","","","","","","","","","<img src= ""rock_img/I_Basalt_01.jpg"" style=""width:8cm; height:7.880000000000001cm;""><p>What type of rock is this?</p>","0","class_response","1","train","1","Andesite","Basalt","01","false","1","2","",""
"","","","","","","","","","","","html-button-response","106","2.0.0","1252846","659d779096ebe05ecca2ebce","1","49","15335","","","","","","","","","<img src= rock_img/I_Basalt_01.jpg style=""width:8cm; height:7.880000000000001cm;""><p style='font-size: 30px; color: red;'><strong>Incorrect!</strong></p><p style='font-size: 30px;'><strong>This rock is basalt</strong></p>","0","corr_feedback","1","train","1","","","","","","","",""
"","","","","","","","","","","","html-button-response","107","2.0.0","1254816","659d779096ebe05ecca2ebce","1","49","1968","","","","","","","","","<img src= ""rock_img/I_Obsidian_10.jpg"" style=""width:8cm; height:6.260000000000001cm;""><p>What type of rock is this?</p>","2","class_response","1","train","2","Diorite","Obsidian","10","false","3","5","",""
"","","","","","","","","","","","html-button-response","108","2.0.0","1263176","659d779096ebe05ecca2ebce","1","49","8359","","","","","","","","","<img src= rock_img/I_Obsidian_10.jpg style=""width:8cm; height:6.260000000000001cm;""><p style='font-size: 30px; color: red;'><strong>Incorrect!</strong></p><p style='font-size: 30px;'><strong>This rock is obsidian</strong></p>","0","corr_feedback","1","train","2","","","","","","","",""
"","","","","","","","","","","","html-button-response","109","2.0.0","1268672","659d779096ebe05ecca2ebce","1","49","5495","","","","","","","","","<img src= ""rock_img/I_Pegmatite_13.jpg"" style=""width:8cm; height:4.95cm;""><p>What type of rock is this?</p>","7","class_response","1","train","3","Pumice","Pegmatite","13","false","8","6","",""
"","","","","","","","","","","","html-button-response","110","2.0.0","1275927","659d779096ebe05ecca2ebce","1","49","7254","","","","","","","","","<img src= rock_img/I_Pegmatite_13.jpg style=""width:8cm; height:4.95cm;""><p style='font-size: 30px; color: red;'><strong>Incorrect!</strong></p><p style='font-size: 30px;'><strong>This rock is pegmatite</strong></p>","0","corr_feedback","1","train","3","","","","","","","",""
"","","","","","","","","","","","html-button-response","111","2.0.0","1280167","659d779096ebe05ecca2ebce","1","49","4238","","","","","","","","","<img src= ""rock_img/I_Andesite_05.jpg"" style=""width:8cm; height:4.12cm;""><p>What type of rock is this?</p>","1","class_response","1","train","4","Basalt","Andesite","05","false","2","1","",""
"","","","","","","","","","","","html-button-response","112","2.0.0","1285024","659d779096ebe05ecca2ebce","1","49","4856","","","","","","","","","<img src= rock_img/I_Andesite_05.jpg style=""width:8cm; height:4.12cm;""><p style='font-size: 30px; color: red;'><strong>Incorrect!</strong></p><p style='font-size: 30px;'><strong>This rock is andesite</strong></p>","0","corr_feedback","1","train","4","","","","","","","",""
"","","","","","","","","","","","html-button-response","113","2.0.0","1296234","659d779096ebe05ecca2ebce","1","49","11208","","","","","","","","","<img src= ""rock_img/I_Diorite_12.jpg"" style=""width:8cm; height:4.88cm;""><p>What type of rock is this?</p>","7","class_response","1","train","5","Pumice","Diorite","12","false","8","3","",""
"","","","","","","","","","","","html-button-response","114","2.0.0","1300519","659d779096ebe05ecca2ebce","1","49","4283","","","","","","","","","<img src= rock_img/I_Diorite_12.jpg style=""width:8cm; height:4.88cm;""><p style='font-size: 30px; color: red;'><strong>Incorrect!</strong></p><p style='font-size: 30px;'><strong>This rock is diorite</strong></p>","0","corr_feedback","1","train","5","","","","","","","",""
"","","","","","","","","","","","html-button-response","115","2.0.0","1302790","659d779096ebe05ecca2ebce","1","49","2269","","","","","","","","","<img src= ""rock_img/I_Diorite_16.jpg"" style=""width:8cm; height:6.74cm;""><p>What type of rock is this?</p>","4","class_response","1","train","6","Obsidian","Diorite","16","false","5","3","",""
"","","","","","","","","","","","html-button-response","116","2.0.0","1306655","659d779096ebe05ecca2ebce","1","49","3864","","","","","","","","","<img src= rock_img/I_Diorite_16.jpg style=""width:8cm; height:6.74cm;""><p style='font-size: 30px; color: red;'><strong>Incorrect!</strong></p><p style='font-size: 30px;'><strong>This rock is diorite</strong></p>","0","corr_feedback","1","train","6","","","","","","","",""
"","","","","","","","","","","","html-button-response","117","2.0.0","1312624","659d779096ebe05ecca2ebce","1","49","5967","","","","","","","","","<img src= ""rock_img/I_Andesite_04.jpg"" style=""width:8cm; height:5.96cm;""><p>What type of rock is this?</p>","6","class_response","1","train","7","Peridotite","Andesite","04","false","7","1","",""
"","","","","","","","","","","","html-button-response","118","2.0.0","1315376","659d779096ebe05ecca2ebce","1","49","2751","","","","","","","","","<img src= rock_img/I_Andesite_04.jpg style=""width:8cm; height:5.96cm;""><p style='font-size: 30px; color: red;'><strong>Incorrect!</strong></p><p style='font-size: 30px;'><strong>This rock is andesite</strong></p>","0","corr_feedback","1","train","7","","","","","","","",""
"","","","","","","","","","","","html-button-response","119","2.0.0","1318563","659d779096ebe05ecca2ebce","1","49","3186","","","","","","","","","<img src= ""rock_img/I_Basalt_14.jpg"" style=""width:8cm; height:5.82cm;""><p>What type of rock is this?</p>","0","class_response","1","train","8","Andesite","Basalt","14","false","1","2","",""
"","","","","","","","","","","","html-button-response","120","2.0.0","1321721","659d779096ebe05ecca2ebce","1","49","3157","","","","","","","","","<img src= rock_img/I_Basalt_14.jpg style=""width:8cm; height:5.82cm;""><p style='font-size: 30px; color: red;'><strong>Incorrect!</strong></p><p style='font-size: 30px;'><strong>This rock is basalt</strong></p>","0","corr_feedback","1","train","8","","","","","","","",""
"","","","","","","","","","","","html-button-response","121","2.0.0","1324684","659d779096ebe05ecca2ebce","1","49","2961","","","","","","","","","<img src= ""rock_img/I_Gabbro_12.jpg"" style=""width:8cm; height:7.800000000000001cm;""><p>What type of rock is this?</p>","6","class_response","1","train","9","Peridotite","Gabbro","12","false","7","4","",""
"","","","","","","","","","","","html-button-response","122","2.0.0","1327397","659d779096ebe05ecca2ebce","1","49","2712","","","","","","","","","<img src= rock_img/I_Gabbro_12.jpg style=""width:8cm; height:7.800000000000001cm;""><p style='font-size: 30px; color: red;'><strong>Incorrect!</strong></p><p style='font-size: 30px;'><strong>This rock is gabbro</strong></p>","0","corr_feedback","1","train","9","","","","","","","",""
"","","","","","","","","","","","html-button-response","123","2.0.0","1331397","659d779096ebe05ecca2ebce","1","49","3998","","","","","","","","","<img src= ""rock_img/I_Obsidian_06.jpg"" style=""width:8cm; height:6.8cm;""><p>What type of rock is this?</p>","7","class_response","1","train","10","Pumice","Obsidian","06","false","8","5","",""
"","","","","","","","","","","","html-button-response","124","2.0.0","1334998","659d779096ebe05ecca2ebce","1","49","3599","","","","","","","","","<img src= rock_img/I_Obsidian_06.jpg style=""width:8cm; height:6.8cm;""><p style='font-size: 30px; color: red;'><strong>Incorrect!</strong></p><p style='font-size: 30px;'><strong>This rock is obsidian</strong></p>","0","corr_feedback","1","train","10","","","","","","","",""
"","","","","","","","","","","","html-button-response","125","2.0.0","1339140","659d779096ebe05ecca2ebce","1","49","4141","","","","","","","","","<img src= ""rock_img/I_Obsidian_08.jpg"" style=""width:8cm; height:7.39cm;""><p>What type of rock is this?</p>","2","class_response","1","train","11","Diorite","Obsidian","08","false","3","5","",""
"","","","","","","","","","","","html-button-response","126","2.0.0","1342418","659d779096ebe05ecca2ebce","1","49","3277","","","","","","","","","<img src= rock_img/I_Obsidian_08.jpg style=""width:8cm; height:7.39cm;""><p style='font-size: 30px; color: red;'><strong>Incorrect!</strong></p><p style='font-size: 30px;'><strong>This rock is obsidian</strong></p>","0","corr_feedback","1","train","11","","","","","","","",""
"","","","","","","","","","","","html-button-response","127","2.0.0","1344801","659d779096ebe05ecca2ebce","1","49","2382","","","","","","","","","<img src= ""rock_img/I_Obsidian_11.jpg"" style=""width:8cm; height:6.05cm;""><p>What type of rock is this?</p>","3","class_response","1","train","12","Gabbro","Obsidian","11","false","4","5","",""
"","","","","","","","","","","","html-button-response","128","2.0.0","1347854","659d779096ebe05ecca2ebce","1","49","3051","","","","","","","","","<img src= rock_img/I_Obsidian_11.jpg style=""width:8cm; height:6.05cm;""><p style='font-size: 30px; color: red;'><strong>Incorrect!</strong></p><p style='font-size: 30px;'><strong>This rock is obsidian</strong></p>","0","corr_feedback","1","train","12","","","","","","","",""
"","","","","","","","","","","","html-button-response","129","2.0.0","1350004","659d779096ebe05ecca2ebce","1","49","2148","","","","","","","","","<img src= ""rock_img/I_Pumice_08.jpg"" style=""width:8cm; height:6.67cm;""><p>What type of rock is this?</p>","0","class_response","1","train","13","Andesite","Pumice","08","false","1","8","",""
"","","","","","","","","","","","html-button-response","130","2.0.0","1353132","659d779096ebe05ecca2ebce","1","49","3127","","","","","","","","","<img src= rock_img/I_Pumice_08.jpg style=""width:8cm; height:6.67cm;""><p style='font-size: 30px; color: red;'><strong>Incorrect!</strong></p><p style='font-size: 30px;'><strong>This rock is pumice</strong></p>","0","corr_feedback","1","train","13","","","","","","","",""
"","","","","","","","","","","","html-button-response","131","2.0.0","1359424","659d779096ebe05ecca2ebce","1","49","6291","","","","","","","","","<img src= ""rock_img/I_Diorite_13.jpg"" style=""width:8cm; height:6.29cm;""><p>What type of rock is this?</p>","6","class_response","1","train","14","Peridotite","Diorite","13","false","7","3","",""
"","","","","","","","","","","","html-button-response","132","2.0.0","1362229","659d779096ebe05ecca2ebce","1","49","2804","","","","","","","","","<img src= rock_img/I_Diorite_13.jpg style=""width:8cm; height:6.29cm;""><p style='font-size: 30px; color: red;'><strong>Incorrect!</strong></p><p style='font-size: 30px;'><strong>This rock is diorite</strong></p>","0","corr_feedback","1","train","14","","","","","","","",""
"","","","","","","","","","","","html-button-response","133","2.0.0","1364815","659d779096ebe05ecca2ebce","1","49","2585","","","","","","","","","<img src= ""rock_img/I_Pegmatite_08.jpg"" style=""width:8cm; height:7.68cm;""><p>What type of rock is this?</p>","4","class_response","1","train","15","Obsidian","Pegmatite","08","false","5","6","",""
"","","","","","","","","","","","html-button-response","134","2.0.0","1367439","659d779096ebe05ecca2ebce","1","49","2623","","","","","","","","","<img src= rock_img/I_Pegmatite_08.jpg style=""width:8cm; height:7.68cm;""><p style='font-size: 30px; color: red;'><strong>Incorrect!</strong></p><p style='font-size: 30px;'><strong>This rock is pegmatite</strong></p>","0","corr_feedback","1","train","15","","","","","","","",""
"","","","","","","","","","","","html-button-response","135","2.0.0","1370814","659d779096ebe05ecca2ebce","1","49","3374","","","","","","","","","<img src= ""rock_img/I_Pegmatite_03.jpg"" style=""width:8cm; height:5.239999999999999cm;""><p>What type of rock is this?</p>","5","class_response","1","train","16","Pegmatite","Pegmatite","03","true","6","6","",""
"","","","","","","","","","","","html-button-response","136","2.0.0","1375912","659d779096ebe05ecca2ebce","1","49","5096","","","","","","","","","<img src= rock_img/I_Pegmatite_03.jpg style=""width:8cm; height:5.239999999999999cm;""><p style='font-size: 30px; color: green;'><strong>Correct!</strong></p><p style='font-size: 30px;'><strong>This rock is pegmatite</strong></p>","0","corr_feedback","1","train","16","","","","","","","",""
"","","","","","","","","","","","html-button-response","137","2.0.0","1378483","659d779096ebe05ecca2ebce","1","49","2570","","","","","","","","","<img src= ""rock_img/I_Gabbro_10.jpg"" style=""width:8cm; height:5.680000000000001cm;""><p>What type of rock is this?</p>","0","class_response","1","train","17","Andesite","Gabbro","10","false","1","4","",""
"","","","","","","","","","","","html-button-response","138","2.0.0","1381618","659d779096ebe05ecca2ebce","1","49","3133","","","","","","","","","<img src= rock_img/I_Gabbro_10.jpg style=""width:8cm; height:5.680000000000001cm;""><p style='font-size: 30px; color: red;'><strong>Incorrect!</strong></p><p style='font-size: 30px;'><strong>This rock is gabbro</strong></p>","0","corr_feedback","1","train","17","","","","","","","",""
"","","","","","","","","","","","html-button-response","139","2.0.0","1383595","659d779096ebe05ecca2ebce","1","49","1976","","","","","","","","","<img src= ""rock_img/I_Pumice_05.jpg"" style=""width:8cm; height:7.25cm;""><p>What type of rock is this?</p>","3","class_response","1","train","18","Gabbro","Pumice","05","false","4","8","",""
"","","","","","","","","","","","html-button-response","140","2.0.0","1385783","659d779096ebe05ecca2ebce","1","49","2186","","","","","","","","","<img src= rock_img/I_Pumice_05.jpg style=""width:8cm; height:7.25cm;""><p style='font-size: 30px; color: red;'><strong>Incorrect!</strong></p><p style='font-size: 30px;'><strong>This rock is pumice</strong></p>","0","corr_feedback","1","train","18","","","","","","","",""
"","","","","","","","","","","","html-button-response","141","2.0.0","1391219","659d779096ebe05ecca2ebce","1","49","5435","","","","","","","","","<img src= ""rock_img/I_Andesite_10.jpg"" style=""width:8cm; height:4.16cm;""><p>What type of rock is this?</p>","5","class_response","1","train","19","Pegmatite","Andesite","10","false","6","1","",""
"","","","","","","","","","","","html-button-response","142","2.0.0","1393534","659d779096ebe05ecca2ebce","1","49","2313","","","","","","","","","<img src= rock_img/I_Andesite_10.jpg style=""width:8cm; height:4.16cm;""><p style='font-size: 30px; color: red;'><strong>Incorrect!</strong></p><p style='font-size: 30px;'><strong>This rock is andesite</strong></p>","0","corr_feedback","1","train","19","","","","","","","",""
"","","","","","","","","","","","html-button-response","143","2.0.0","1395241","659d779096ebe05ecca2ebce","1","49","1706","","","","","","","","","<img src= ""rock_img/I_Basalt_06.jpg"" style=""width:8cm; height:7.06cm;""><p>What type of rock is this?</p>","4","class_response","1","train","20","Obsidian","Basalt","06","false","5","2","",""
"","","","","","","","","","","","html-button-response","144","2.0.0","1398158","659d779096ebe05ecca2ebce","1","49","2915","","","","","","","","","<img src= rock_img/I_Basalt_06.jpg style=""width:8cm; height:7.06cm;""><p style='font-size: 30px; color: red;'><strong>Incorrect!</strong></p><p style='font-size: 30px;'><strong>This rock is basalt</strong></p>","0","corr_feedback","1","train","20","","","","","","","",""
"","","","","","","","","","","","html-button-response","145","2.0.0","1399842","659d779096ebe05ecca2ebce","1","49","1683","","","","","","","","","<img src= ""rock_img/I_Obsidian_05.jpg"" style=""width:8cm; height:6.33cm;""><p>What type of rock is this?</p>","7","class_response","1","train","21","Pumice","Obsidian","05","false","8","5","",""
"","","","","","","","","","","","html-button-response","146","2.0.0","1402361","659d779096ebe05ecca2ebce","1","49","2518","","","","","","","","","<img src= rock_img/I_Obsidian_05.jpg style=""width:8cm; height:6.33cm;""><p style='font-size: 30px; color: red;'><strong>Incorrect!</strong></p><p style='font-size: 30px;'><strong>This rock is obsidian</strong></p>","0","corr_feedback","1","train","21","","","","","","","",""
"","","","","","","","","","","","html-button-response","147","2.0.0","1404082","659d779096ebe05ecca2ebce","1","49","1719","","","","","","","","","<img src= ""rock_img/I_Gabbro_08.jpg"" style=""width:8cm; height:5.15cm;""><p>What type of rock is this?</p>","2","class_response","1","train","22","Diorite","Gabbro","08","false","3","4","",""
"","","","","","","","","","","","html-button-response","148","2.0.0","1406127","659d779096ebe05ecca2ebce","1","49","2044","","","","","","","","","<img src= rock_img/I_Gabbro_08.jpg style=""width:8cm; height:5.15cm;""><p style='font-size: 30px; color: red;'><strong>Incorrect!</strong></p><p style='font-size: 30px;'><strong>This rock is gabbro</strong></p>","0","corr_feedback","1","train","22","","","","","","","",""
"","","","","","","","","","","","html-button-response","149","2.0.0","1409037","659d779096ebe05ecca2ebce","1","49","2909","","","","","","","","","<img src= ""rock_img/I_Obsidian_09.jpg"" style=""width:8cm; height:5cm;""><p>What type of rock is this?</p>","6","class_response","1","train","23","Peridotite","Obsidian","09","false","7","5","",""
"","","","","","","","","","","","html-button-response","150","2.0.0","1411548","659d779096ebe05ecca2ebce","1","49","2510","","","","","","","","","<img src= rock_img/I_Obsidian_09.jpg style=""width:8cm; height:5cm;""><p style='font-size: 30px; color: red;'><strong>Incorrect!</strong></p><p style='font-size: 30px;'><strong>This rock is obsidian</strong></p>","0","corr_feedback","1","train","23","","","","","","","",""
"","","","","","","","","","","","html-button-response","151","2.0.0","1414029","659d779096ebe05ecca2ebce","1","49","2480","","","","","","","","","<img src= ""rock_img/I_Pumice_06.jpg"" style=""width:8cm; height:6.9399999999999995cm;""><p>What type of rock is this?</p>","7","class_response","1","train","24","Pumice","Pumice","06","true","8","8","",""
"","","","","","","","","","","","html-button-response","152","2.0.0","1416457","659d779096ebe05ecca2ebce","1","49","2427","","","","","","","","","<img src= rock_img/I_Pumice_06.jpg style=""width:8cm; height:6.9399999999999995cm;""><p style='font-size: 30px; color: green;'><strong>Correct!</strong></p><p style='font-size: 30px;'><strong>This rock is pumice</strong></p>","0","corr_feedback","1","train","24","","","","","","","",""
"","","","","","","","","","","","html-button-response","153","2.0.0","1418818","659d779096ebe05ecca2ebce","1","49","2360","","","","","","","","","<img src= ""rock_img/I_Peridotite_15.jpg"" style=""width:8cm; height:6cm;""><p>What type of rock is this?</p>","0","class_response","1","train","25","Andesite","Peridotite","15","false","1","7","",""
"","","","","","","","","","","","html-button-response","154","2.0.0","1421337","659d779096ebe05ecca2ebce","1","49","2517","","","","","","","","","<img src= rock_img/I_Peridotite_15.jpg style=""width:8cm; height:6cm;""><p style='font-size: 30px; color: red;'><strong>Incorrect!</strong></p><p style='font-size: 30px;'><strong>This rock is peridotite</strong></p>","0","corr_feedback","1","train","25","","","","","","","",""
"","","","","","","","","","","","html-button-response","155","2.0.0","1423457","659d779096ebe05ecca2ebce","1","49","2119","","","","","","","","","<img src= ""rock_img/I_Peridotite_06.jpg"" style=""width:8cm; height:7.53cm;""><p>What type of rock is this?</p>","2","class_response","1","train","26","Diorite","Peridotite","06","false","3","7","",""
"","","","","","","","","","","","html-button-response","156","2.0.0","1425539","659d779096ebe05ecca2ebce","1","49","2081","","","","","","","","","<img src= rock_img/I_Peridotite_06.jpg style=""width:8cm; height:7.53cm;""><p style='font-size: 30px; color: red;'><strong>Incorrect!</strong></p><p style='font-size: 30px;'><strong>This rock is peridotite</strong></p>","0","corr_feedback","1","train","26","","","","","","","",""
"","","","","","","","","","","","html-button-response","157","2.0.0","1429464","659d779096ebe05ecca2ebce","1","49","3924","","","","","","","","","<img src= ""rock_img/I_Peridotite_13.jpg"" style=""width:8cm; height:7.58cm;""><p>What type of rock is this?</p>","0","class_response","1","train","27","Andesite","Peridotite","13","false","1","7","",""
"","","","","","","","","","","","html-button-response","158","2.0.0","1433065","659d779096ebe05ecca2ebce","1","49","3600","","","","","","","","","<img src= rock_img/I_Peridotite_13.jpg style=""width:8cm; height:7.58cm;""><p style='font-size: 30px; color: red;'><strong>Incorrect!</strong></p><p style='font-size: 30px;'><strong>This rock is peridotite</strong></p>","0","corr_feedback","1","train","27","","","","","","","",""
"","","","","","","","","","","","html-button-response","159","2.0.0","1442260","659d779096ebe05ecca2ebce","1","49","9194","","","","","","","","","<img src= ""rock_img/I_Pegmatite_10.jpg"" style=""width:8cm; height:4.16cm;""><p>What type of rock is this?</p>","6","class_response","1","train","28","Peridotite","Pegmatite","10","false","7","6","",""
"","","","","","","","","","","","html-button-response","160","2.0.0","1450658","659d779096ebe05ecca2ebce","1","49","8396","","","","","","","","","<img src= rock_img/I_Pegmatite_10.jpg style=""width:8cm; height:4.16cm;""><p style='font-size: 30px; color: red;'><strong>Incorrect!</strong></p><p style='font-size: 30px;'><strong>This rock is pegmatite</strong></p>","0","corr_feedback","1","train","28","","","","","","","",""
"","","","","","","","","","","","html-button-response","161","2.0.0","1454199","659d779096ebe05ecca2ebce","1","49","3540","","","","","","","","","<img src= ""rock_img/I_Andesite_03.jpg"" style=""width:8cm; height:5.73cm;""><p>What type of rock is this?</p>","3","class_response","1","train","29","Gabbro","Andesite","03","false","4","1","",""
"","","","","","","","","","","","html-button-response","162","2.0.0","1461379","659d779096ebe05ecca2ebce","1","49","7178","","","","","","","","","<img src= rock_img/I_Andesite_03.jpg style=""width:8cm; height:5.73cm;""><p style='font-size: 30px; color: red;'><strong>Incorrect!</strong></p><p style='font-size: 30px;'><strong>This rock is andesite</strong></p>","0","corr_feedback","1","train","29","","","","","","","",""
"","","","","","","","","","","","html-button-response","163","2.0.0","1465830","659d779096ebe05ecca2ebce","1","49","4449","","","","","","","","","<img src= ""rock_img/I_Peridotite_05.jpg"" style=""width:8cm; height:7.1499999999999995cm;""><p>What type of rock is this?</p>","1","class_response","1","train","30","Basalt","Peridotite","05","false","2","7","",""
"","","","","","","","","","","","html-button-response","164","2.0.0","1474047","659d779096ebe05ecca2ebce","1","49","8216","","","","","","","","","<img src= rock_img/I_Peridotite_05.jpg style=""width:8cm; height:7.1499999999999995cm;""><p style='font-size: 30px; color: red;'><strong>Incorrect!</strong></p><p style='font-size: 30px;'><strong>This rock is peridotite</strong></p>","0","corr_feedback","1","train","30","","","","","","","",""
"","","","","","","","","","","","html-button-response","165","2.0.0","1478821","659d779096ebe05ecca2ebce","1","49","4773","","","","","","","","","<img src= ""rock_img/I_Gabbro_11.jpg"" style=""width:8cm; height:6.2cm;""><p>What type of rock is this?</p>","7","class_response","1","train","31","Pumice","Gabbro","11","false","8","4","",""
"","","","","","","","","","","","html-button-response","166","2.0.0","1486317","659d779096ebe05ecca2ebce","1","49","7494","","","","","","","","","<img src= rock_img/I_Gabbro_11.jpg style=""width:8cm; height:6.2cm;""><p style='font-size: 30px; color: red;'><strong>Incorrect!</strong></p><p style='font-size: 30px;'><strong>This rock is gabbro</strong></p>","0","corr_feedback","1","train","31","","","","","","","",""
"","","","","","","","","","","","html-button-response","167","2.0.0","1490226","659d779096ebe05ecca2ebce","1","49","3908","","","","","","","","","<img src= ""rock_img/I_Peridotite_16.jpg"" style=""width:8cm; height:6.989999999999999cm;""><p>What type of rock is this?</p>","7","class_response","1","train","32","Pumice","Peridotite","16","false","8","7","",""
"","","","","","","","","","","","html-button-response","168","2.0.0","1498482","659d779096ebe05ecca2ebce","1","49","8254","","","","","","","","","<img src= rock_img/I_Peridotite_16.jpg style=""width:8cm; height:6.989999999999999cm;""><p style='font-size: 30px; color: red;'><strong>Incorrect!</strong></p><p style='font-size: 30px;'><strong>This rock is peridotite</strong></p>","0","corr_feedback","1","train","32","","","","","","","",""
"","","","","","","","","","","","html-button-response","169","2.0.0","1502203","659d779096ebe05ecca2ebce","1","49","3719","","","","","","","","","<img src= ""rock_img/I_Pegmatite_16.jpg"" style=""width:8cm; height:5.8cm;""><p>What type of rock is this?</p>","3","class_response","1","train","33","Gabbro","Pegmatite","16","false","4","6","",""
"","","","","","","","","","","","html-button-response","170","2.0.0","1509127","659d779096ebe05ecca2ebce","1","49","6922","","","","","","","","","<img src= rock_img/I_Pegmatite_16.jpg style=""width:8cm; height:5.8cm;""><p style='font-size: 30px; color: red;'><strong>Incorrect!</strong></p><p style='font-size: 30px;'><strong>This rock is pegmatite</strong></p>","0","corr_feedback","1","train","33","","","","","","","",""
"","","","","","","","","","","","html-button-response","171","2.0.0","1514517","659d779096ebe05ecca2ebce","1","49","5389","","","","","","","","","<img src= ""rock_img/I_Basalt_02.jpg"" style=""width:8cm; height:6.45cm;""><p>What type of rock is this?</p>","0","class_response","1","train","34","Andesite","Basalt","02","false","1","2","",""
"","","","","","","","","","","","html-button-response","172","2.0.0","1521735","659d779096ebe05ecca2ebce","1","49","7217","","","","","","","","","<img src= rock_img/I_Basalt_02.jpg style=""width:8cm; height:6.45cm;""><p style='font-size: 30px; color: red;'><strong>Incorrect!</strong></p><p style='font-size: 30px;'><strong>This rock is basalt</strong></p>","0","corr_feedback","1","train","34","","","","","","","",""
"","","","","","","","","","","","html-button-response","173","2.0.0","1524960","659d779096ebe05ecca2ebce","1","49","3224","","","","","","","","","<img src= ""rock_img/I_Pumice_02.jpg"" style=""width:8cm; height:7.3999999999999995cm;""><p>What type of rock is this?</p>","5","class_response","1","train","35","Pegmatite","Pumice","02","false","6","8","",""
"","","","","","","","","","","","html-button-response","174","2.0.0","1532794","659d779096ebe05ecca2ebce","1","49","7832","","","","","","","","","<img src= rock_img/I_Pumice_02.jpg style=""width:8cm; height:7.3999999999999995cm;""><p style='font-size: 30px; color: red;'><strong>Incorrect!</strong></p><p style='font-size: 30px;'><strong>This rock is pumice</strong></p>","0","corr_feedback","1","train","35","","","","","","","",""
"","","","","","","","","","","","html-button-response","175","2.0.0","1545327","659d779096ebe05ecca2ebce","1","49","12531","","","","","","","","","<img src= ""rock_img/I_Pumice_03.jpg"" style=""width:8cm; height:6.64cm;""><p>What type of rock is this?</p>","5","class_response","1","train","36","Pegmatite","Pumice","03","false","6","8","",""
"","","","","","","","","","","","html-button-response","176","2.0.0","1552680","659d779096ebe05ecca2ebce","1","49","7351","","","","","","","","","<img src= rock_img/I_Pumice_03.jpg style=""width:8cm; height:6.64cm;""><p style='font-size: 30px; color: red;'><strong>Incorrect!</strong></p><p style='font-size: 30px;'><strong>This rock is pumice</strong></p>","0","corr_feedback","1","train","36","","","","","","","",""
"","","","","","","","","","","","html-button-response","177","2.0.0","1555326","659d779096ebe05ecca2ebce","1","49","2644","","","","","","","","","<img src= ""rock_img/I_Gabbro_16.jpg"" style=""width:8cm; height:6.44cm;""><p>What type of rock is this?</p>","3","class_response","1","train","37","Gabbro","Gabbro","16","true","4","4","",""
"","","","","","","","","","","","html-button-response","178","2.0.0","1561769","659d779096ebe05ecca2ebce","1","49","6442","","","","","","","","","<img src= rock_img/I_Gabbro_16.jpg style=""width:8cm; height:6.44cm;""><p style='font-size: 30px; color: green;'><strong>Correct!</strong></p><p style='font-size: 30px;'><strong>This rock is gabbro</strong></p>","0","corr_feedback","1","train","37","","","","","","","",""
"","","","","","","","","","","","html-button-response","179","2.0.0","1586234","659d779096ebe05ecca2ebce","1","49","24464","","","","","","","","","<img src= ""rock_img/I_Basalt_12.jpg"" style=""width:8cm; height:6.010000000000001cm;""><p>What type of rock is this?</p>","7","class_response","1","train","38","Pumice","Basalt","12","false","8","2","",""
"","","","","","","","","","","","html-button-response","180","2.0.0","1596654","659d779096ebe05ecca2ebce","1","49","10419","","","","","","","","","<img src= rock_img/I_Basalt_12.jpg style=""width:8cm; height:6.010000000000001cm;""><p style='font-size: 30px; color: red;'><strong>Incorrect!</strong></p><p style='font-size: 30px;'><strong>This rock is basalt</strong></p>","0","corr_feedback","1","train","38","","","","","","","",""
"","","","","","","","","","","","html-button-response","181","2.0.0","1599315","659d779096ebe05ecca2ebce","1","49","2660","","","","","","","","","<img src= ""rock_img/I_Andesite_11.jpg"" style=""width:8cm; height:4.92cm;""><p>What type of rock is this?</p>","3","class_response","1","train","39","Gabbro","Andesite","11","false","4","1","",""
"","","","","","","","","","","","html-button-response","182","2.0.0","1610135","659d779096ebe05ecca2ebce","1","49","10818","","","","","","","","","<img src= rock_img/I_Andesite_11.jpg style=""width:8cm; height:4.92cm;""><p style='font-size: 30px; color: red;'><strong>Incorrect!</strong></p><p style='font-size: 30px;'><strong>This rock is andesite</strong></p>","0","corr_feedback","1","train","39","","","","","","","",""
"","","","","","","","","","","","html-button-response","183","2.0.0","1612254","659d779096ebe05ecca2ebce","1","49","2118","","","","","","","","","<img src= ""rock_img/I_Diorite_06.jpg"" style=""width:8cm; height:6.03cm;""><p>What type of rock is this?</p>","3","class_response","1","train","40","Gabbro","Diorite","06","false","4","3","",""
"","","","","","","","","","","","html-button-response","184","2.0.0","1618727","659d779096ebe05ecca2ebce","1","49","6471","","","","","","","","","<img src= rock_img/I_Diorite_06.jpg style=""width:8cm; height:6.03cm;""><p style='font-size: 30px; color: red;'><strong>Incorrect!</strong></p><p style='font-size: 30px;'><strong>This rock is diorite</strong></p>","0","corr_feedback","1","train","40","","","","","","","",""
"","","","","","","","","","","","html-button-response","185","2.0.0","1620968","659d779096ebe05ecca2ebce","1","49","2239","","","","","","","","","<img src= ""rock_img/I_Pegmatite_06.jpg"" style=""width:8cm; height:5.17cm;""><p>What type of rock is this?</p>","3","class_response","1","train","41","Gabbro","Pegmatite","06","false","4","6","",""
"","","","","","","","","","","","html-button-response","186","2.0.0","1628011","659d779096ebe05ecca2ebce","1","49","7042","","","","","","","","","<img src= rock_img/I_Pegmatite_06.jpg style=""width:8cm; height:5.17cm;""><p style='font-size: 30px; color: red;'><strong>Incorrect!</strong></p><p style='font-size: 30px;'><strong>This rock is pegmatite</strong></p>","0","corr_feedback","1","train","41","","","","","","","",""
"","","","","","","","","","","","html-button-response","187","2.0.0","1630418","659d779096ebe05ecca2ebce","1","49","2405","","","","","","","","","<img src= ""rock_img/I_Andesite_14.jpg"" style=""width:8cm; height:5.449999999999999cm;""><p>What type of rock is this?</p>","5","class_response","1","train","42","Pegmatite","Andesite","14","false","6","1","",""
"","","","","","","","","","","","html-button-response","188","2.0.0","1637409","659d779096ebe05ecca2ebce","1","49","6990","","","","","","","","","<img src= rock_img/I_Andesite_14.jpg style=""width:8cm; height:5.449999999999999cm;""><p style='font-size: 30px; color: red;'><strong>Incorrect!</strong></p><p style='font-size: 30px;'><strong>This rock is andesite</strong></p>","0","corr_feedback","1","train","42","","","","","","","",""
"","","","","","","","","","","","html-button-response","189","2.0.0","1644372","659d779096ebe05ecca2ebce","1","49","6961","","","","","","","","","<img src= ""rock_img/I_Basalt_10.jpg"" style=""width:8cm; height:5.85cm;""><p>What type of rock is this?</p>","4","class_response","1","train","43","Obsidian","Basalt","10","false","5","2","",""
"","","","","","","","","","","","html-button-response","190","2.0.0","1650289","659d779096ebe05ecca2ebce","1","49","5915","","","","","","","","","<img src= rock_img/I_Basalt_10.jpg style=""width:8cm; height:5.85cm;""><p style='font-size: 30px; color: red;'><strong>Incorrect!</strong></p><p style='font-size: 30px;'><strong>This rock is basalt</strong></p>","0","corr_feedback","1","train","43","","","","","","","",""
"","","","","","","","","","","","html-button-response","191","2.0.0","1653130","659d779096ebe05ecca2ebce","1","49","2840","","","","","","","","","<img src= ""rock_img/I_Diorite_10.jpg"" style=""width:8cm; height:5.949999999999999cm;""><p>What type of rock is this?</p>","5","class_response","1","train","44","Pegmatite","Diorite","10","false","6","3","",""
"","","","","","","","","","","","html-button-response","192","2.0.0","1658671","659d779096ebe05ecca2ebce","1","49","5540","","","","","","","","","<img src= rock_img/I_Diorite_10.jpg style=""width:8cm; height:5.949999999999999cm;""><p style='font-size: 30px; color: red;'><strong>Incorrect!</strong></p><p style='font-size: 30px;'><strong>This rock is diorite</strong></p>","0","corr_feedback","1","train","44","","","","","","","",""
"","","","","","","","","","","","html-button-response","193","2.0.0","1661670","659d779096ebe05ecca2ebce","1","49","2998","","","","","","","","","<img src= ""rock_img/I_Gabbro_15.jpg"" style=""width:8cm; height:6.29cm;""><p>What type of rock is this?</p>","3","class_response","1","train","45","Gabbro","Gabbro","15","true","4","4","",""
"","","","","","","","","","","","html-button-response","194","2.0.0","1668377","659d779096ebe05ecca2ebce","1","49","6706","","","","","","","","","<img src= rock_img/I_Gabbro_15.jpg style=""width:8cm; height:6.29cm;""><p style='font-size: 30px; color: green;'><strong>Correct!</strong></p><p style='font-size: 30px;'><strong>This rock is gabbro</strong></p>","0","corr_feedback","1","train","45","","","","","","","",""
"","","","","","","","","","","","html-button-response","195","2.0.0","1673167","659d779096ebe05ecca2ebce","1","49","4788","","","","","","","","","<img src= ""rock_img/I_Peridotite_07.jpg"" style=""width:8cm; height:4.83cm;""><p>What type of rock is this?</p>","7","class_response","1","train","46","Pumice","Peridotite","07","false","8","7","",""
"","","","","","","","","","","","html-button-response","196","2.0.0","1680940","659d779096ebe05ecca2ebce","1","49","7772","","","","","","","","","<img src= rock_img/I_Peridotite_07.jpg style=""width:8cm; height:4.83cm;""><p style='font-size: 30px; color: red;'><strong>Incorrect!</strong></p><p style='font-size: 30px;'><strong>This rock is peridotite</strong></p>","0","corr_feedback","1","train","46","","","","","","","",""
"","","","","","","","","","","","html-button-response","197","2.0.0","1685948","659d779096ebe05ecca2ebce","1","49","5006","","","","","","","","","<img src= ""rock_img/I_Pumice_10.jpg"" style=""width:8cm; height:7.609999999999999cm;""><p>What type of rock is this?</p>","4","class_response","1","train","47","Obsidian","Pumice","10","false","5","8","",""
"","","","","","","","","","","","html-button-response","198","2.0.0","1692089","659d779096ebe05ecca2ebce","1","49","6140","","","","","","","","","<img src= rock_img/I_Pumice_10.jpg style=""width:8cm; height:7.609999999999999cm;""><p style='font-size: 30px; color: red;'><strong>Incorrect!</strong></p><p style='font-size: 30px;'><strong>This rock is pumice</strong></p>","0","corr_feedback","1","train","47","","","","","","","",""
"","","","","","","","","","","","html-button-response","199","2.0.0","1695624","659d779096ebe05ecca2ebce","1","49","3533","","","","","","","","","<img src= ""rock_img/I_Diorite_11.jpg"" style=""width:8cm; height:7.11cm;""><p>What type of rock is this?</p>","7","class_response","1","train","48","Pumice","Diorite","11","false","8","3","",""
"","","","","","","","","","","","html-button-response","200","2.0.0","1704539","659d779096ebe05ecca2ebce","1","49","8914","","","","","","","","","<img src= rock_img/I_Diorite_11.jpg style=""width:8cm; height:7.11cm;""><p style='font-size: 30px; color: red;'><strong>Incorrect!</strong></p><p style='font-size: 30px;'><strong>This rock is diorite</strong></p>","0","corr_feedback","1","train","48","","","","","","","",""
"","","","","","","","","","","","instructions","203","2.0.0","1842011","659d779096ebe05ecca2ebce","1","49","137470","","","","","","","","[{""page_index"":0,""viewing_time"":7058},{""page_index"":1,""viewing_time"":130412}]","","","","","","","","","","","","","",""
"","","","","","","","","","","","html-button-response","204","2.0.0","1844454","659d779096ebe05ecca2ebce","1","49","2442","","","","","","","","","","0","start_test","","","","","","","","","","",""
"","","","","","","","","","","","html-button-response","205","2.0.0","1894059","659d779096ebe05ecca2ebce","1","49","49603","","","","","","","","","<img src= ""rock_img/I_Diorite_15.jpg"" style=""width:8cm; height:5.54cm;""><p>What type of rock is this?</p>","3","class_response","1","test","1","Gabbro","Diorite","15","false","4","3","",""
"","","","","","","","","","","","html-keyboard-response","206","2.0.0","1894563","659d779096ebe05ecca2ebce","1","49","null","","","","","","","","","<p style='font-size: 30px;'><strong>Okay</strong></p>","null","neutral_feedback","1","test","1","","","","","","","",""
"","","","","","","","","","","","html-button-response","207","2.0.0","1921103","659d779096ebe05ecca2ebce","1","49","26537","","","","","","","","","<img src= ""rock_img/I_Andesite_06.jpg"" style=""width:8cm; height:6.840000000000001cm;""><p>What type of rock is this?</p>","2","class_response","1","test","2","Diorite","Andesite","06","false","3","1","",""
"","","","","","","","","","","","html-keyboard-response","208","2.0.0","1921609","659d779096ebe05ecca2ebce","1","49","null","","","","","","","","","<p style='font-size: 30px;'><strong>Okay</strong></p>","null","neutral_feedback","1","test","2","","","","","","","",""
"","","","","","","","","","","","html-button-response","209","2.0.0","1934094","659d779096ebe05ecca2ebce","1","49","12483","","","","","","","","","<img src= ""rock_img/I_Basalt_11.jpg"" style=""width:8cm; height:5.359999999999999cm;""><p>What type of rock is this?</p>","0","class_response","1","test","3","Andesite","Basalt","11","false","1","2","",""
"","","","","","","","","","","","html-keyboard-response","210","2.0.0","1934595","659d779096ebe05ecca2ebce","1","49","null","","","","","","","","","<p style='font-size: 30px;'><strong>Okay</strong></p>","null","neutral_feedback","1","test","3","","","","","","","",""
"","","","","","","","","","","","html-button-response","211","2.0.0","1941680","659d779096ebe05ecca2ebce","1","49","7082","","","","","","","","","<img src= ""rock_img/I_Obsidian_07.jpg"" style=""width:8cm; height:4.76cm;""><p>What type of rock is this?</p>","4","class_response","1","test","4","Obsidian","Obsidian","07","true","5","5","",""
"","","","","","","","","","","","html-keyboard-response","212","2.0.0","1942182","659d779096ebe05ecca2ebce","1","49","null","","","","","","","","","<p style='font-size: 30px;'><strong>Okay</strong></p>","null","neutral_feedback","1","test","4","","","","","","","",""
"","","","","","","","","","","","html-button-response","213","2.0.0","1952882","659d779096ebe05ecca2ebce","1","49","10697","","","","","","","","","<img src= ""rock_img/I_Diorite_09.jpg"" style=""width:8cm; height:5.27cm;""><p>What type of rock is this?</p>","2","class_response","1","test","5","Diorite","Diorite","09","true","3","3","",""
"","","","","","","","","","","","html-keyboard-response","214","2.0.0","1953387","659d779096ebe05ecca2ebce","1","49","null","","","","","","","","","<p style='font-size: 30px;'><strong>Okay</strong></p>","null","neutral_feedback","1","test","5","","","","","","","",""
"","","","","","","","","","","","html-button-response","215","2.0.0","1972723","659d779096ebe05ecca2ebce","1","49","19334","","","","","","","","","<img src= ""rock_img/I_Peridotite_02.jpg"" style=""width:8cm; height:5.859999999999999cm;""><p>What type of rock is this?</p>","2","class_response","1","test","6","Diorite","Peridotite","02","false","3","7","",""
"","","","","","","","","","","","html-keyboard-response","216","2.0.0","1973227","659d779096ebe05ecca2ebce","1","49","null","","","","","","","","","<p style='font-size: 30px;'><strong>Okay</strong></p>","null","neutral_feedback","1","test","6","","","","","","","",""
"","","","","","","","","","","","html-button-response","217","2.0.0","1986661","659d779096ebe05ecca2ebce","1","49","13432","","","","","","","","","<img src= ""rock_img/I_Pumice_15.jpg"" style=""width:8cm; height:7.86cm;""><p>What type of rock is this?</p>","7","class_response","1","test","7","Pumice","Pumice","15","true","8","8","",""
"","","","","","","","","","","","html-keyboard-response","218","2.0.0","1987163","659d779096ebe05ecca2ebce","1","49","null","","","","","","","","","<p style='font-size: 30px;'><strong>Okay</strong></p>","null","neutral_feedback","1","test","7","","","","","","","",""
"","","","","","","","","","","","html-button-response","219","2.0.0","2065528","659d779096ebe05ecca2ebce","1","49","78363","","","","","","","","","<img src= ""rock_img/I_Obsidian_14.jpg"" style=""width:8cm; height:7.64cm;""><p>What type of rock is this?</p>","4","class_response","1","test","8","Obsidian","Obsidian","14","true","5","5","",""
"","","","","","","","","","","","html-keyboard-response","220","2.0.0","2066032","659d779096ebe05ecca2ebce","1","49","null","","","","","","","","","<p style='font-size: 30px;'><strong>Okay</strong></p>","null","neutral_feedback","1","test","8","","","","","","","",""
"","","","","","","","","","","","html-button-response","221","2.0.0","2073512","659d779096ebe05ecca2ebce","1","49","7477","","","","","","","","","<img src= ""rock_img/I_Peridotite_14.jpg"" style=""width:8cm; height:5.3cm;""><p>What type of rock is this?</p>","2","class_response","1","test","9","Diorite","Peridotite","14","false","3","7","",""
"","","","","","","","","","","","html-keyboard-response","222","2.0.0","2074015","659d779096ebe05ecca2ebce","1","49","null","","","","","","","","","<p style='font-size: 30px;'><strong>Okay</strong></p>","null","neutral_feedback","1","test","9","","","","","","","",""
"","","","","","","","","","","","html-button-response","223","2.0.0","2083308","659d779096ebe05ecca2ebce","1","49","9290","","","","","","","","","<img src= ""rock_img/I_Gabbro_01.jpg"" style=""width:8cm; height:5.21cm;""><p>What type of rock is this?</p>","0","class_response","1","test","10","Andesite","Gabbro","01","false","1","4","",""
"","","","","","","","","","","","html-keyboard-response","224","2.0.0","2083809","659d779096ebe05ecca2ebce","1","49","null","","","","","","","","","<p style='font-size: 30px;'><strong>Okay</strong></p>","null","neutral_feedback","1","test","10","","","","","","","",""
"","","","","","","","","","","","html-button-response","225","2.0.0","2094007","659d779096ebe05ecca2ebce","1","49","10196","","","","","","","","","<img src= ""rock_img/I_Basalt_08.jpg"" style=""width:8cm; height:10.44cm;""><p>What type of rock is this?</p>","1","class_response","1","test","11","Basalt","Basalt","08","true","2","2","",""
"","","","","","","","","","","","html-keyboard-response","226","2.0.0","2094515","659d779096ebe05ecca2ebce","1","49","null","","","","","","","","","<p style='font-size: 30px;'><strong>Okay</strong></p>","null","neutral_feedback","1","test","11","","","","","","","",""
"","","","","","","","","","","","html-button-response","227","2.0.0","2107818","659d779096ebe05ecca2ebce","1","49","13300","","","","","","","","","<img src= ""rock_img/I_Pumice_04.jpg"" style=""width:8cm; height:6.819999999999999cm;""><p>What type of rock is this?</p>","7","class_response","1","test","12","Pumice","Pumice","04","true","8","8","",""
"","","","","","","","","","","","html-keyboard-response","228","2.0.0","2108329","659d779096ebe05ecca2ebce","1","49","null","","","","","","","","","<p style='font-size: 30px;'><strong>Okay</strong></p>","null","neutral_feedback","1","test","12","","","","","","","",""
"","","","","","","","","","","","html-button-response","229","2.0.0","2114502","659d779096ebe05ecca2ebce","1","49","6171","","","","","","","","","<img src= ""rock_img/I_Peridotite_04.jpg"" style=""width:8cm; height:6.680000000000001cm;""><p>What type of rock is this?</p>","4","class_response","1","test","13","Obsidian","Peridotite","04","false","5","7","",""
"","","","","","","","","","","","html-keyboard-response","230","2.0.0","2115005","659d779096ebe05ecca2ebce","1","49","null","","","","","","","","","<p style='font-size: 30px;'><strong>Okay</strong></p>","null","neutral_feedback","1","test","13","","","","","","","",""
"","","","","","","","","","","","html-button-response","231","2.0.0","2123163","659d779096ebe05ecca2ebce","1","49","8155","","","","","","","","","<img src= ""rock_img/I_Diorite_07.jpg"" style=""width:8cm; height:5.239999999999999cm;""><p>What type of rock is this?</p>","7","class_response","1","test","14","Pumice","Diorite","07","false","8","3","",""
"","","","","","","","","","","","html-keyboard-response","232","2.0.0","2123666","659d779096ebe05ecca2ebce","1","49","null","","","","","","","","","<p style='font-size: 30px;'><strong>Okay</strong></p>","null","neutral_feedback","1","test","14","","","","","","","",""
"","","","","","","","","","","","html-button-response","233","2.0.0","2132605","659d779096ebe05ecca2ebce","1","49","8936","","","","","","","","","<img src= ""rock_img/I_Peridotite_10.jpg"" style=""width:8cm; height:5.390000000000001cm;""><p>What type of rock is this?</p>","6","class_response","1","test","15","Peridotite","Peridotite","10","true","7","7","",""
"","","","","","","","","","","","html-keyboard-response","234","2.0.0","2133118","659d779096ebe05ecca2ebce","1","49","null","","","","","","","","","<p style='font-size: 30px;'><strong>Okay</strong></p>","null","neutral_feedback","1","test","15","","","","","","","",""
"","","","","","","","","","","","html-button-response","235","2.0.0","2135177","659d779096ebe05ecca2ebce","1","49","2057","","","","","","","","","<img src= ""rock_img/I_Pegmatite_11.jpg"" style=""width:8cm; height:8.14cm;""><p>What type of rock is this?</p>","0","class_response","1","test","16","Andesite","Pegmatite","11","false","1","6","",""
"","","","","","","","","","","","html-keyboard-response","236","2.0.0","2135688","659d779096ebe05ecca2ebce","1","49","null","","","","","","","","","<p style='font-size: 30px;'><strong>Okay</strong></p>","null","neutral_feedback","1","test","16","","","","","","","",""
"","","","","","","","","","","","html-button-response","237","2.0.0","2156656","659d779096ebe05ecca2ebce","1","49","20965","","","","","","","","","<img src= ""rock_img/I_Pegmatite_09.jpg"" style=""width:8cm; height:4.03cm;""><p>What type of rock is this?</p>","5","class_response","1","test","17","Pegmatite","Pegmatite","09","true","6","6","",""
"","","","","","","","","","","","html-keyboard-response","238","2.0.0","2157158","659d779096ebe05ecca2ebce","1","49","null","","","","","","","","","<p style='font-size: 30px;'><strong>Okay</strong></p>","null","neutral_feedback","1","test","17","","","","","","","",""
"","","","","","","","","","","","html-button-response","239","2.0.0","2169256","659d779096ebe05ecca2ebce","1","49","12097","","","","","","","","","<img src= ""rock_img/I_Obsidian_02.jpg"" style=""width:8cm; height:7.51cm;""><p>What type of rock is this?</p>","4","class_response","1","test","18","Obsidian","Obsidian","02","true","5","5","",""
"","","","","","","","","","","","html-keyboard-response","240","2.0.0","2169765","659d779096ebe05ecca2ebce","1","49","null","","","","","","","","","<p style='font-size: 30px;'><strong>Okay</strong></p>","null","neutral_feedback","1","test","18","","","","","","","",""
"","","","","","","","","","","","html-button-response","241","2.0.0","2191729","659d779096ebe05ecca2ebce","1","49","21962","","","","","","","","","<img src= ""rock_img/I_Pumice_09.jpg"" style=""width:8cm; height:6.44cm;""><p>What type of rock is this?</p>","1","class_response","1","test","19","Basalt","Pumice","09","false","2","8","",""
"","","","","","","","","","","","html-keyboard-response","242","2.0.0","2192230","659d779096ebe05ecca2ebce","1","49","null","","","","","","","","","<p style='font-size: 30px;'><strong>Okay</strong></p>","null","neutral_feedback","1","test","19","","","","","","","",""
"","","","","","","","","","","","html-button-response","243","2.0.0","2222381","659d779096ebe05ecca2ebce","1","49","30148","","","","","","","","","<img src= ""rock_img/I_Gabbro_14.jpg"" style=""width:8cm; height:8.48cm;""><p>What type of rock is this?</p>","1","class_response","1","test","20","Basalt","Gabbro","14","false","2","4","",""
"","","","","","","","","","","","html-keyboard-response","244","2.0.0","2222884","659d779096ebe05ecca2ebce","1","49","null","","","","","","","","","<p style='font-size: 30px;'><strong>Okay</strong></p>","null","neutral_feedback","1","test","20","","","","","","","",""
"","","","","","","","","","","","html-button-response","245","2.0.0","2237800","659d779096ebe05ecca2ebce","1","49","14913","","","","","","","","","<img src= ""rock_img/I_Pumice_14.jpg"" style=""width:8cm; height:6.39cm;""><p>What type of rock is this?</p>","7","class_response","1","test","21","Pumice","Pumice","14","true","8","8","",""
"","","","","","","","","","","","html-keyboard-response","246","2.0.0","2238301","659d779096ebe05ecca2ebce","1","49","null","","","","","","","","","<p style='font-size: 30px;'><strong>Okay</strong></p>","null","neutral_feedback","1","test","21","","","","","","","",""
"","","","","","","","","","","","html-button-response","247","2.0.0","2265331","659d779096ebe05ecca2ebce","1","49","27028","","","","","","","","","<img src= ""rock_img/I_Andesite_09.jpg"" style=""width:8cm; height:6cm;""><p>What type of rock is this?</p>","3","class_response","1","test","22","Gabbro","Andesite","09","false","4","1","",""
"","","","","","","","","","","","html-keyboard-response","248","2.0.0","2265833","659d779096ebe05ecca2ebce","1","49","null","","","","","","","","","<p style='font-size: 30px;'><strong>Okay</strong></p>","null","neutral_feedback","1","test","22","","","","","","","",""
"","","","","","","","","","","","html-button-response","249","2.0.0","2272789","659d779096ebe05ecca2ebce","1","49","6953","","","","","","","","","<img src= ""rock_img/I_Pumice_13.jpg"" style=""width:8cm; height:8.200000000000001cm;""><p>What type of rock is this?</p>","7","class_response","1","test","23","Pumice","Pumice","13","true","8","8","",""
"","","","","","","","","","","","html-keyboard-response","250","2.0.0","2273293","659d779096ebe05ecca2ebce","1","49","null","","","","","","","","","<p style='font-size: 30px;'><strong>Okay</strong></p>","null","neutral_feedback","1","test","23","","","","","","","",""
"","","","","","","","","","","","html-button-response","251","2.0.0","2399712","659d779096ebe05ecca2ebce","1","49","126418","","","","","","","","","<img src= ""rock_img/I_Diorite_08.jpg"" style=""width:8cm; height:6.37cm;""><p>What type of rock is this?</p>","2","class_response","1","test","24","Diorite","Diorite","08","true","3","3","",""
"","","","","","","","","","","","html-keyboard-response","252","2.0.0","2400216","659d779096ebe05ecca2ebce","1","49","null","","","","","","","","","<p style='font-size: 30px;'><strong>Okay</strong></p>","null","neutral_feedback","1","test","24","","","","","","","",""
"","","","","","","","","","","","html-button-response","253","2.0.0","2423778","659d779096ebe05ecca2ebce","1","49","23559","","","","","","","","","<img src= ""rock_img/I_Peridotite_08.jpg"" style=""width:8cm; height:6.7cm;""><p>What type of rock is this?</p>","6","class_response","1","test","25","Peridotite","Peridotite","08","true","7","7","",""
"","","","","","","","","","","","html-keyboard-response","254","2.0.0","2424287","659d779096ebe05ecca2ebce","1","49","null","","","","","","","","","<p style='font-size: 30px;'><strong>Okay</strong></p>","null","neutral_feedback","1","test","25","","","","","","","",""
"","","","","","","","","","","","html-button-response","255","2.0.0","2433943","659d779096ebe05ecca2ebce","1","49","9653","","","","","","","","","<img src= ""rock_img/I_Obsidian_16.jpg"" style=""width:8cm; height:9.3cm;""><p>What type of rock is this?</p>","4","class_response","1","test","26","Obsidian","Obsidian","16","true","5","5","",""
"","","","","","","","","","","","html-keyboard-response","256","2.0.0","2434445","659d779096ebe05ecca2ebce","1","49","null","","","","","","","","","<p style='font-size: 30px;'><strong>Okay</strong></p>","null","neutral_feedback","1","test","26","","","","","","","",""
"","","","","","","","","","","","html-button-response","257","2.0.0","2436514","659d779096ebe05ecca2ebce","1","49","2066","","","","","","","","","<img src= ""rock_img/I_Obsidian_12.jpg"" style=""width:8cm; height:6.53cm;""><p>What type of rock is this?</p>","4","class_response","1","test","27","Obsidian","Obsidian","12","true","5","5","",""
"","","","","","","","","","","","html-keyboard-response","258","2.0.0","2437023","659d779096ebe05ecca2ebce","1","49","null","","","","","","","","","<p style='font-size: 30px;'><strong>Okay</strong></p>","null","neutral_feedback","1","test","27","","","","","","","",""
"","","","","","","","","","","","html-button-response","259","2.0.0","2448521","659d779096ebe05ecca2ebce","1","49","11496","","","","","","","","","<img src= ""rock_img/I_Basalt_16.jpg"" style=""width:8cm; height:7.659999999999999cm;""><p>What type of rock is this?</p>","1","class_response","1","test","28","Basalt","Basalt","16","true","2","2","",""
"","","","","","","","","","","","html-keyboard-response","260","2.0.0","2449027","659d779096ebe05ecca2ebce","1","49","null","","","","","","","","","<p style='font-size: 30px;'><strong>Okay</strong></p>","null","neutral_feedback","1","test","28","","","","","","","",""
"","","","","","","","","","","","html-button-response","261","2.0.0","2474263","659d779096ebe05ecca2ebce","1","49","25234","","","","","","","","","<img src= ""rock_img/I_Gabbro_09.jpg"" style=""width:8cm; height:7.279999999999999cm;""><p>What type of rock is this?</p>","0","class_response","1","test","29","Andesite","Gabbro","09","false","1","4","",""
"","","","","","","","","","","","html-keyboard-response","262","2.0.0","2474774","659d779096ebe05ecca2ebce","1","49","null","","","","","","","","","<p style='font-size: 30px;'><strong>Okay</strong></p>","null","neutral_feedback","1","test","29","","","","","","","",""
"","","","","","","","","","","","html-button-response","263","2.0.0","2500419","659d779096ebe05ecca2ebce","1","49","25642","","","","","","","","","<img src= ""rock_img/I_Andesite_01.jpg"" style=""width:8cm; height:5.87cm;""><p>What type of rock is this?</p>","0","class_response","1","test","30","Andesite","Andesite","01","true","1","1","",""
"","","","","","","","","","","","html-keyboard-response","264","2.0.0","2500935","659d779096ebe05ecca2ebce","1","49","null","","","","","","","","","<p style='font-size: 30px;'><strong>Okay</strong></p>","null","neutral_feedback","1","test","30","","","","","","","",""
"","","","","","","","","","","","html-button-response","265","2.0.0","2503516","659d779096ebe05ecca2ebce","1","49","2579","","","","","","","","","<img src= ""rock_img/I_Basalt_09.jpg"" style=""width:8cm; height:6.2cm;""><p>What type of rock is this?</p>","7","class_response","1","test","31","Pumice","Basalt","09","false","8","2","",""
"","","","","","","","","","","","html-keyboard-response","266","2.0.0","2504018","659d779096ebe05ecca2ebce","1","49","null","","","","","","","","","<p style='font-size: 30px;'><strong>Okay</strong></p>","null","neutral_feedback","1","test","31","","","","","","","",""
"","","","","","","","","","","","html-button-response","267","2.0.0","2610223","659d779096ebe05ecca2ebce","1","49","106203","","","","","","","","","<img src= ""rock_img/I_Diorite_02.jpg"" style=""width:8cm; height:6.27cm;""><p>What type of rock is this?</p>","2","class_response","1","test","32","Diorite","Diorite","02","true","3","3","",""
"","","","","","","","","","","","html-keyboard-response","268","2.0.0","2610731","659d779096ebe05ecca2ebce","1","49","null","","","","","","","","","<p style='font-size: 30px;'><strong>Okay</strong></p>","null","neutral_feedback","1","test","32","","","","","","","",""
"","","","","","","","","","","","html-button-response","269","2.0.0","2612922","659d779096ebe05ecca2ebce","1","49","2189","","","","","","","","","<img src= ""rock_img/I_Andesite_07.jpg"" style=""width:8cm; height:5.93cm;""><p>What type of rock is this?</p>","1","class_response","1","test","33","Basalt","Andesite","07","false","2","1","",""
"","","","","","","","","","","","html-keyboard-response","270","2.0.0","2613427","659d779096ebe05ecca2ebce","1","49","null","","","","","","","","","<p style='font-size: 30px;'><strong>Okay</strong></p>","null","neutral_feedback","1","test","33","","","","","","","",""
"","","","","","","","","","","","html-button-response","271","2.0.0","2620906","659d779096ebe05ecca2ebce","1","49","7477","","","","","","","","","<img src= ""rock_img/I_Basalt_05.jpg"" style=""width:8cm; height:8.18cm;""><p>What type of rock is this?</p>","1","class_response","1","test","34","Basalt","Basalt","05","true","2","2","",""
"","","","","","","","","","","","html-keyboard-response","272","2.0.0","2621408","659d779096ebe05ecca2ebce","1","49","null","","","","","","","","","<p style='font-size: 30px;'><strong>Okay</strong></p>","null","neutral_feedback","1","test","34","","","","","","","",""
"","","","","","","","","","","","html-button-response","273","2.0.0","2622523","659d779096ebe05ecca2ebce","1","49","1113","","","","","","","","","<img src= ""rock_img/I_Basalt_04.jpg"" style=""width:8cm; height:7.53cm;""><p>What type of rock is this?</p>","1","class_response","1","test","35","Basalt","Basalt","04","true","2","2","",""
"","","","","","","","","","","","html-keyboard-response","274","2.0.0","2623033","659d779096ebe05ecca2ebce","1","49","null","","","","","","","","","<p style='font-size: 30px;'><strong>Okay</strong></p>","null","neutral_feedback","1","test","35","","","","","","","",""
"","","","","","","","","","","","html-button-response","275","2.0.0","2652784","659d779096ebe05ecca2ebce","1","49","29748","","","","","","","","","<img src= ""rock_img/I_Pegmatite_05.jpg"" style=""width:8cm; height:7.300000000000001cm;""><p>What type of rock is this?</p>","2","class_response","1","test","36","Diorite","Pegmatite","05","false","3","6","",""
"","","","","","","","","","","","html-keyboard-response","276","2.0.0","2653299","659d779096ebe05ecca2ebce","1","49","null","","","","","","","","","<p style='font-size: 30px;'><strong>Okay</strong></p>","null","neutral_feedback","1","test","36","","","","","","","",""
"","","","","","","","","","","","html-button-response","277","2.0.0","2655227","659d779096ebe05ecca2ebce","1","49","1925","","","","","","","","","<img src= ""rock_img/I_Andesite_02.jpg"" style=""width:8cm; height:8.5cm;""><p>What type of rock is this?</p>","3","class_response","1","test","37","Gabbro","Andesite","02","false","4","1","",""
"","","","","","","","","","","","html-keyboard-response","278","2.0.0","2655739","659d779096ebe05ecca2ebce","1","49","null","","","","","","","","","<p style='font-size: 30px;'><strong>Okay</strong></p>","null","neutral_feedback","1","test","37","","","","","","","",""
"","","","","","","","","","","","html-button-response","279","2.0.0","2657911","659d779096ebe05ecca2ebce","1","49","2170","","","","","","","","","<img src= ""rock_img/I_Pegmatite_12.jpg"" style=""width:8cm; height:5.7cm;""><p>What type of rock is this?</p>","0","class_response","1","test","38","Andesite","Pegmatite","12","false","1","6","",""
"","","","","","","","","","","","html-keyboard-response","280","2.0.0","2658422","659d779096ebe05ecca2ebce","1","49","null","","","","","","","","","<p style='font-size: 30px;'><strong>Okay</strong></p>","null","neutral_feedback","1","test","38","","","","","","","",""
"","","","","","","","","","","","html-button-response","281","2.0.0","2660926","659d779096ebe05ecca2ebce","1","49","2502","","","","","","","","","<img src= ""rock_img/I_Pegmatite_07.jpg"" style=""width:8cm; height:6.7cm;""><p>What type of rock is this?</p>","3","class_response","1","test","39","Gabbro","Pegmatite","07","false","4","6","",""
"","","","","","","","","","","","html-keyboard-response","282","2.0.0","2661438","659d779096ebe05ecca2ebce","1","49","null","","","","","","","","","<p style='font-size: 30px;'><strong>Okay</strong></p>","null","neutral_feedback","1","test","39","","","","","","","",""
"","","","","","","","","","","","html-button-response","283","2.0.0","2668144","659d779096ebe05ecca2ebce","1","49","6703","","","","","","","","","<img src= ""rock_img/I_Peridotite_12.jpg"" style=""width:8cm; height:4.54cm;""><p>What type of rock is this?</p>","2","class_response","1","test","40","Diorite","Peridotite","12","false","3","7","",""
"","","","","","","","","","","","html-keyboard-response","284","2.0.0","2668651","659d779096ebe05ecca2ebce","1","49","null","","","","","","","","","<p style='font-size: 30px;'><strong>Okay</strong></p>","null","neutral_feedback","1","test","40","","","","","","","",""
"","","","","","","","","","","","html-button-response","285","2.0.0","2698359","659d779096ebe05ecca2ebce","1","49","29705","","","","","","","","","<img src= ""rock_img/I_Pumice_16.jpg"" style=""width:8cm; height:6.79cm;""><p>What type of rock is this?</p>","7","class_response","1","test","41","Pumice","Pumice","16","true","8","8","",""
"","","","","","","","","","","","html-keyboard-response","286","2.0.0","2698861","659d779096ebe05ecca2ebce","1","49","null","","","","","","","","","<p style='font-size: 30px;'><strong>Okay</strong></p>","null","neutral_feedback","1","test","41","","","","","","","",""
"","","","","","","","","","","","html-button-response","287","2.0.0","2707276","659d779096ebe05ecca2ebce","1","49","8412","","","","","","","","","<img src= ""rock_img/I_Pegmatite_15.jpg"" style=""width:8cm; height:6cm;""><p>What type of rock is this?</p>","2","class_response","1","test","42","Diorite","Pegmatite","15","false","3","6","",""
"","","","","","","","","","","","html-keyboard-response","288","2.0.0","2707777","659d779096ebe05ecca2ebce","1","49","null","","","","","","","","","<p style='font-size: 30px;'><strong>Okay</strong></p>","null","neutral_feedback","1","test","42","","","","","","","",""
"","","","","","","","","","","","html-button-response","289","2.0.0","2710036","659d779096ebe05ecca2ebce","1","49","2256","","","","","","","","","<img src= ""rock_img/I_Obsidian_04.jpg"" style=""width:8cm; height:6.930000000000001cm;""><p>What type of rock is this?</p>","4","class_response","1","test","43","Obsidian","Obsidian","04","true","5","5","",""
"","","","","","","","","","","","html-keyboard-response","290","2.0.0","2710539","659d779096ebe05ecca2ebce","1","49","null","","","","","","","","","<p style='font-size: 30px;'><strong>Okay</strong></p>","null","neutral_feedback","1","test","43","","","","","","","",""
"","","","","","","","","","","","html-button-response","291","2.0.0","2715719","659d779096ebe05ecca2ebce","1","49","5177","","","","","","","","","<img src= ""rock_img/I_Diorite_14.jpg"" style=""width:8cm; height:5.71cm;""><p>What type of rock is this?</p>","2","class_response","1","test","44","Diorite","Diorite","14","true","3","3","",""
"","","","","","","","","","","","html-keyboard-response","292","2.0.0","2716228","659d779096ebe05ecca2ebce","1","49","null","","","","","","","","","<p style='font-size: 30px;'><strong>Okay</strong></p>","null","neutral_feedback","1","test","44","","","","","","","",""
"","","","","","","","","","","","html-button-response","293","2.0.0","2722846","659d779096ebe05ecca2ebce","1","49","6615","","","","","","","","","<img src= ""rock_img/I_Andesite_16.jpg"" style=""width:8cm; height:6.010000000000001cm;""><p>What type of rock is this?</p>","0","class_response","1","test","45","Andesite","Andesite","16","true","1","1","",""
"","","","","","","","","","","","html-keyboard-response","294","2.0.0","2723362","659d779096ebe05ecca2ebce","1","49","null","","","","","","","","","<p style='font-size: 30px;'><strong>Okay</strong></p>","null","neutral_feedback","1","test","45","","","","","","","",""
"","","","","","","","","","","","html-button-response","295","2.0.0","2732484","659d779096ebe05ecca2ebce","1","49","9119","","","","","","","","","<img src= ""rock_img/I_Gabbro_13.jpg"" style=""width:8cm; height:5.08cm;""><p>What type of rock is this?</p>","1","class_response","1","test","46","Basalt","Gabbro","13","false","2","4","",""
"","","","","","","","","","","","html-keyboard-response","296","2.0.0","2732991","659d779096ebe05ecca2ebce","1","49","null","","","","","","","","","<p style='font-size: 30px;'><strong>Okay</strong></p>","null","neutral_feedback","1","test","46","","","","","","","",""
"","","","","","","","","","","","html-button-response","297","2.0.0","2749596","659d779096ebe05ecca2ebce","1","49","16602","","","","","","","","","<img src= ""rock_img/I_Gabbro_03.jpg"" style=""width:8cm; height:8.52cm;""><p>What type of rock is this?</p>","2","class_response","1","test","47","Diorite","Gabbro","03","false","3","4","",""
"","","","","","","","","","","","html-keyboard-response","298","2.0.0","2750108","659d779096ebe05ecca2ebce","1","49","null","","","","","","","","","<p style='font-size: 30px;'><strong>Okay</strong></p>","null","neutral_feedback","1","test","47","","","","","","","",""
"","","","","","","","","","","","html-button-response","299","2.0.0","2759144","659d779096ebe05ecca2ebce","1","49","9033","","","","","","","","","<img src= ""rock_img/I_Gabbro_05.jpg"" style=""width:8cm; height:6cm;""><p>What type of rock is this?</p>","0","class_response","1","test","48","Andesite","Gabbro","05","false","1","4","",""
"","","","","","","","","","","","html-keyboard-response","300","2.0.0","2759657","659d779096ebe05ecca2ebce","1","49","null","","","","","","","","","<p style='font-size: 30px;'><strong>Okay</strong></p>","null","neutral_feedback","1","test","48","","","","","","","",""
"","","","","","","","","","","","html-button-response","301","2.0.0","2792600","659d779096ebe05ecca2ebce","1","49","","","","","","","","","","","","cycle_feedback","","","","","","","","","","16505.700000047684","16411.700000047684"
"","","","","","","","","","","","html-button-response","303","2.0.0","2796193","659d779096ebe05ecca2ebce","1","49","3592","","","","","","","","","","0","start_train","","","","","","","","","","",""
