"width","height","webaudio","browser","browser_version","mobile","os","fullscreen","vsync_rate","webcam","microphone","trial_type","trial_index","plugin_version","time_elapsed","subjID","condition","stimID","rt","url","success","value","timeout","failed_images","failed_audio","failed_video","view_history","stimulus","response","trialType","cycle","phase","trial","resp","cat","token","corr","resp_num","cat_num","time_fb1","time_fb2"
"631","910","true","chrome","130.0.0","false","Windows 10","true","121.56","true","true","browser-check","0","2.0.0","507","62e02660c3ef175825ab7655","1","25","","","","","","","","","","","","","","","","","","","","","","",""
"","","","","","","","","","","","external-html","1","2.0.0","4250","62e02660c3ef175825ab7655","1","25","3676","consent_form.html","","","","","","","","","","","","","","","","","","","","",""
"","","","","","","","","","","","fullscreen","2","2.0.0","6432","62e02660c3ef175825ab7655","1","25","1170","","true","","","","","","","","","","","","","","","","","","","",""
"","","","","","","","","","","","call-function","3","2.0.0","6433","62e02660c3ef175825ab7655","1","25","","","","{}","","","","","","","","","","","","","","","","","","",""
"","","","","","","","","","","","preload","4","2.0.0","7724","62e02660c3ef175825ab7655","1","25","","","true","","false","[]","[]","[]","","","","","","","","","","","","","","",""
"","","","","","","","","","","","instructions","5","2.0.0","18938","62e02660c3ef175825ab7655","1","25","11213","","","","","","","","[{""page_index"":0,""viewing_time"":4159},{""page_index"":1,""viewing_time"":4431},{""page_index"":2,""viewing_time"":2622}]","","","","","","","","","","","","","",""
"","","","","","","","","","","","html-button-response","6","2.0.0","19799","62e02660c3ef175825ab7655","1","25","860","","","","","","","","","","0","start_test","","","","","","","","","","",""
"","","","","","","","","","","","html-button-response","7","2.0.0","32173","62e02660c3ef175825ab7655","1","25","12373","","","","","","","","","<img src= ""rock_img/I_Obsidian_08.jpg"" style=""width:8cm; height:7.39cm;""><p>What type of rock is this?</p>","4","class_response","0","test","1","Obsidian","Obsidian","08","true","5","5","",""
"","","","","","","","","","","","html-keyboard-response","8","2.0.0","32682","62e02660c3ef175825ab7655","1","25","null","","","","","","","","","<p style='font-size: 30px;'><strong>Okay</strong></p>","null","neutral_feedback","0","test","1","","","","","","","",""
"","","","","","","","","","","","html-button-response","9","2.0.0","43686","62e02660c3ef175825ab7655","1","25","11003","","","","","","","","","<img src= ""rock_img/I_Diorite_10.jpg"" style=""width:8cm; height:5.949999999999999cm;""><p>What type of rock is this?</p>","1","class_response","0","test","2","Basalt","Diorite","10","false","2","3","",""
"","","","","","","","","","","","html-keyboard-response","10","2.0.0","44188","62e02660c3ef175825ab7655","1","25","null","","","","","","","","","<p style='font-size: 30px;'><strong>Okay</strong></p>","null","neutral_feedback","0","test","2","","","","","","","",""
"","","","","","","","","","","","html-button-response","11","2.0.0","46859","62e02660c3ef175825ab7655","1","25","2670","","","","","","","","","<img src= ""rock_img/I_Pumice_03.jpg"" style=""width:8cm; height:6.64cm;""><p>What type of rock is this?</p>","7","class_response","0","test","3","Pumice","Pumice","03","true","8","8","",""
"","","","","","","","","","","","html-keyboard-response","12","2.0.0","47369","62e02660c3ef175825ab7655","1","25","null","","","","","","","","","<p style='font-size: 30px;'><strong>Okay</strong></p>","null","neutral_feedback","0","test","3","","","","","","","",""
"","","","","","","","","","","","html-button-response","13","2.0.0","48531","62e02660c3ef175825ab7655","1","25","1161","","","","","","","","","<img src= ""rock_img/I_Obsidian_16.jpg"" style=""width:8cm; height:9.3cm;""><p>What type of rock is this?</p>","4","class_response","0","test","4","Obsidian","Obsidian","16","true","5","5","",""
"","","","","","","","","","","","html-keyboard-response","14","2.0.0","49042","62e02660c3ef175825ab7655","1","25","null","","","","","","","","","<p style='font-size: 30px;'><strong>Okay</strong></p>","null","neutral_feedback","0","test","4","","","","","","","",""
"","","","","","","","","","","","html-button-response","15","2.0.0","50252","62e02660c3ef175825ab7655","1","25","1210","","","","","","","","","<img src= ""rock_img/I_Obsidian_10.jpg"" style=""width:8cm; height:6.260000000000001cm;""><p>What type of rock is this?</p>","4","class_response","0","test","5","Obsidian","Obsidian","10","true","5","5","",""
"","","","","","","","","","","","html-keyboard-response","16","2.0.0","50767","62e02660c3ef175825ab7655","1","25","null","","","","","","","","","<p style='font-size: 30px;'><strong>Okay</strong></p>","null","neutral_feedback","0","test","5","","","","","","","",""
"","","","","","","","","","","","html-button-response","17","2.0.0","54325","62e02660c3ef175825ab7655","1","25","3557","","","","","","","","","<img src= ""rock_img/I_Diorite_13.jpg"" style=""width:8cm; height:6.29cm;""><p>What type of rock is this?</p>","2","class_response","0","test","6","Diorite","Diorite","13","true","3","3","",""
"","","","","","","","","","","","html-keyboard-response","18","2.0.0","54839","62e02660c3ef175825ab7655","1","25","null","","","","","","","","","<p style='font-size: 30px;'><strong>Okay</strong></p>","null","neutral_feedback","0","test","6","","","","","","","",""
"","","","","","","","","","","","html-button-response","19","2.0.0","56537","62e02660c3ef175825ab7655","1","25","1696","","","","","","","","","<img src= ""rock_img/I_Peridotite_14.jpg"" style=""width:8cm; height:5.3cm;""><p>What type of rock is this?</p>","6","class_response","0","test","7","Peridotite","Peridotite","14","true","7","7","",""
"","","","","","","","","","","","html-keyboard-response","20","2.0.0","57039","62e02660c3ef175825ab7655","1","25","null","","","","","","","","","<p style='font-size: 30px;'><strong>Okay</strong></p>","null","neutral_feedback","0","test","7","","","","","","","",""
"","","","","","","","","","","","html-button-response","21","2.0.0","59299","62e02660c3ef175825ab7655","1","25","2258","","","","","","","","","<img src= ""rock_img/I_Peridotite_16.jpg"" style=""width:8cm; height:6.989999999999999cm;""><p>What type of rock is this?</p>","5","class_response","0","test","8","Pegmatite","Peridotite","16","false","6","7","",""
"","","","","","","","","","","","html-keyboard-response","22","2.0.0","59811","62e02660c3ef175825ab7655","1","25","null","","","","","","","","","<p style='font-size: 30px;'><strong>Okay</strong></p>","null","neutral_feedback","0","test","8","","","","","","","",""
"","","","","","","","","","","","html-button-response","23","2.0.0","64051","62e02660c3ef175825ab7655","1","25","4239","","","","","","","","","<img src= ""rock_img/I_Diorite_08.jpg"" style=""width:8cm; height:6.37cm;""><p>What type of rock is this?</p>","2","class_response","0","test","9","Diorite","Diorite","08","true","3","3","",""
"","","","","","","","","","","","html-keyboard-response","24","2.0.0","64558","62e02660c3ef175825ab7655","1","25","null","","","","","","","","","<p style='font-size: 30px;'><strong>Okay</strong></p>","null","neutral_feedback","0","test","9","","","","","","","",""
"","","","","","","","","","","","html-button-response","25","2.0.0","66223","62e02660c3ef175825ab7655","1","25","1664","","","","","","","","","<img src= ""rock_img/I_Pumice_13.jpg"" style=""width:8cm; height:8.200000000000001cm;""><p>What type of rock is this?</p>","7","class_response","0","test","10","Pumice","Pumice","13","true","8","8","",""
"","","","","","","","","","","","html-keyboard-response","26","2.0.0","66725","62e02660c3ef175825ab7655","1","25","null","","","","","","","","","<p style='font-size: 30px;'><strong>Okay</strong></p>","null","neutral_feedback","0","test","10","","","","","","","",""
"","","","","","","","","","","","html-button-response","27","2.0.0","68285","62e02660c3ef175825ab7655","1","25","1559","","","","","","","","","<img src= ""rock_img/I_Andesite_04.jpg"" style=""width:8cm; height:5.96cm;""><p>What type of rock is this?</p>","0","class_response","0","test","11","Andesite","Andesite","04","true","1","1","",""
"","","","","","","","","","","","html-keyboard-response","28","2.0.0","68793","62e02660c3ef175825ab7655","1","25","null","","","","","","","","","<p style='font-size: 30px;'><strong>Okay</strong></p>","null","neutral_feedback","0","test","11","","","","","","","",""
"","","","","","","","","","","","html-button-response","29","2.0.0","71157","62e02660c3ef175825ab7655","1","25","2363","","","","","","","","","<img src= ""rock_img/I_Gabbro_08.jpg"" style=""width:8cm; height:5.15cm;""><p>What type of rock is this?</p>","2","class_response","0","test","12","Diorite","Gabbro","08","false","3","4","",""
"","","","","","","","","","","","html-keyboard-response","30","2.0.0","71673","62e02660c3ef175825ab7655","1","25","null","","","","","","","","","<p style='font-size: 30px;'><strong>Okay</strong></p>","null","neutral_feedback","0","test","12","","","","","","","",""
"","","","","","","","","","","","html-button-response","31","2.0.0","73378","62e02660c3ef175825ab7655","1","25","1704","","","","","","","","","<img src= ""rock_img/I_Gabbro_15.jpg"" style=""width:8cm; height:6.29cm;""><p>What type of rock is this?</p>","6","class_response","0","test","13","Peridotite","Gabbro","15","false","7","4","",""
"","","","","","","","","","","","html-keyboard-response","32","2.0.0","73881","62e02660c3ef175825ab7655","1","25","null","","","","","","","","","<p style='font-size: 30px;'><strong>Okay</strong></p>","null","neutral_feedback","0","test","13","","","","","","","",""
"","","","","","","","","","","","html-button-response","33","2.0.0","75070","62e02660c3ef175825ab7655","1","25","1189","","","","","","","","","<img src= ""rock_img/I_Pumice_02.jpg"" style=""width:8cm; height:7.3999999999999995cm;""><p>What type of rock is this?</p>","7","class_response","0","test","14","Pumice","Pumice","02","true","8","8","",""
"","","","","","","","","","","","html-keyboard-response","34","2.0.0","75574","62e02660c3ef175825ab7655","1","25","null","","","","","","","","","<p style='font-size: 30px;'><strong>Okay</strong></p>","null","neutral_feedback","0","test","14","","","","","","","",""
"","","","","","","","","","","","html-button-response","35","2.0.0","77382","62e02660c3ef175825ab7655","1","25","1807","","","","","","","","","<img src= ""rock_img/I_Peridotite_04.jpg"" style=""width:8cm; height:6.680000000000001cm;""><p>What type of rock is this?</p>","3","class_response","0","test","15","Gabbro","Peridotite","04","false","4","7","",""
"","","","","","","","","","","","html-keyboard-response","36","2.0.0","77889","62e02660c3ef175825ab7655","1","25","null","","","","","","","","","<p style='font-size: 30px;'><strong>Okay</strong></p>","null","neutral_feedback","0","test","15","","","","","","","",""
"","","","","","","","","","","","html-button-response","37","2.0.0","79945","62e02660c3ef175825ab7655","1","25","2055","","","","","","","","","<img src= ""rock_img/I_Andesite_06.jpg"" style=""width:8cm; height:6.840000000000001cm;""><p>What type of rock is this?</p>","1","class_response","0","test","16","Basalt","Andesite","06","false","2","1","",""
"","","","","","","","","","","","html-keyboard-response","38","2.0.0","80447","62e02660c3ef175825ab7655","1","25","null","","","","","","","","","<p style='font-size: 30px;'><strong>Okay</strong></p>","null","neutral_feedback","0","test","16","","","","","","","",""
"","","","","","","","","","","","html-button-response","39","2.0.0","82859","62e02660c3ef175825ab7655","1","25","2410","","","","","","","","","<img src= ""rock_img/I_Basalt_02.jpg"" style=""width:8cm; height:6.45cm;""><p>What type of rock is this?</p>","1","class_response","0","test","17","Basalt","Basalt","02","true","2","2","",""
"","","","","","","","","","","","html-keyboard-response","40","2.0.0","83362","62e02660c3ef175825ab7655","1","25","null","","","","","","","","","<p style='font-size: 30px;'><strong>Okay</strong></p>","null","neutral_feedback","0","test","17","","","","","","","",""
"","","","","","","","","","","","html-button-response","41","2.0.0","85230","62e02660c3ef175825ab7655","1","25","1866","","","","","","","","","<img src= ""rock_img/I_Andesite_14.jpg"" style=""width:8cm; height:5.449999999999999cm;""><p>What type of rock is this?</p>","6","class_response","0","test","18","Peridotite","Andesite","14","false","7","1","",""
"","","","","","","","","","","","html-keyboard-response","42","2.0.0","85737","62e02660c3ef175825ab7655","1","25","null","","","","","","","","","<p style='font-size: 30px;'><strong>Okay</strong></p>","null","neutral_feedback","0","test","18","","","","","","","",""
"","","","","","","","","","","","html-button-response","43","2.0.0","88622","62e02660c3ef175825ab7655","1","25","2884","","","","","","","","","<img src= ""rock_img/I_Pegmatite_12.jpg"" style=""width:8cm; height:5.7cm;""><p>What type of rock is this?</p>","5","class_response","0","test","19","Pegmatite","Pegmatite","12","true","6","6","",""
"","","","","","","","","","","","html-keyboard-response","44","2.0.0","89136","62e02660c3ef175825ab7655","1","25","null","","","","","","","","","<p style='font-size: 30px;'><strong>Okay</strong></p>","null","neutral_feedback","0","test","19","","","","","","","",""
"","","","","","","","","","","","html-button-response","45","2.0.0","91804","62e02660c3ef175825ab7655","1","25","2667","","","","","","","","","<img src= ""rock_img/I_Gabbro_16.jpg"" style=""width:8cm; height:6.44cm;""><p>What type of rock is this?</p>","0","class_response","0","test","20","Andesite","Gabbro","16","false","1","4","",""
"","","","","","","","","","","","html-keyboard-response","46","2.0.0","92307","62e02660c3ef175825ab7655","1","25","null","","","","","","","","","<p style='font-size: 30px;'><strong>Okay</strong></p>","null","neutral_feedback","0","test","20","","","","","","","",""
"","","","","","","","","","","","html-button-response","47","2.0.0","93797","62e02660c3ef175825ab7655","1","25","1489","","","","","","","","","<img src= ""rock_img/I_Andesite_05.jpg"" style=""width:8cm; height:4.12cm;""><p>What type of rock is this?</p>","6","class_response","0","test","21","Peridotite","Andesite","05","false","7","1","",""
"","","","","","","","","","","","html-keyboard-response","48","2.0.0","94310","62e02660c3ef175825ab7655","1","25","null","","","","","","","","","<p style='font-size: 30px;'><strong>Okay</strong></p>","null","neutral_feedback","0","test","21","","","","","","","",""
"","","","","","","","","","","","html-button-response","49","2.0.0","96509","62e02660c3ef175825ab7655","1","25","2198","","","","","","","","","<img src= ""rock_img/I_Pegmatite_16.jpg"" style=""width:8cm; height:5.8cm;""><p>What type of rock is this?</p>","3","class_response","0","test","22","Gabbro","Pegmatite","16","false","4","6","",""
"","","","","","","","","","","","html-keyboard-response","50","2.0.0","97010","62e02660c3ef175825ab7655","1","25","null","","","","","","","","","<p style='font-size: 30px;'><strong>Okay</strong></p>","null","neutral_feedback","0","test","22","","","","","","","",""
"","","","","","","","","","","","html-button-response","51","2.0.0","98371","62e02660c3ef175825ab7655","1","25","1360","","","","","","","","","<img src= ""rock_img/I_Basalt_04.jpg"" style=""width:8cm; height:7.53cm;""><p>What type of rock is this?</p>","1","class_response","0","test","23","Basalt","Basalt","04","true","2","2","",""
"","","","","","","","","","","","html-keyboard-response","52","2.0.0","98879","62e02660c3ef175825ab7655","1","25","null","","","","","","","","","<p style='font-size: 30px;'><strong>Okay</strong></p>","null","neutral_feedback","0","test","23","","","","","","","",""
"","","","","","","","","","","","html-button-response","53","2.0.0","100312","62e02660c3ef175825ab7655","1","25","1432","","","","","","","","","<img src= ""rock_img/I_Diorite_02.jpg"" style=""width:8cm; height:6.27cm;""><p>What type of rock is this?</p>","2","class_response","0","test","24","Diorite","Diorite","02","true","3","3","",""
"","","","","","","","","","","","html-keyboard-response","54","2.0.0","100815","62e02660c3ef175825ab7655","1","25","null","","","","","","","","","<p style='font-size: 30px;'><strong>Okay</strong></p>","null","neutral_feedback","0","test","24","","","","","","","",""
"","","","","","","","","","","","html-button-response","55","2.0.0","101934","62e02660c3ef175825ab7655","1","25","1118","","","","","","","","","<img src= ""rock_img/I_Pumice_04.jpg"" style=""width:8cm; height:6.819999999999999cm;""><p>What type of rock is this?</p>","7","class_response","0","test","25","Pumice","Pumice","04","true","8","8","",""
"","","","","","","","","","","","html-keyboard-response","56","2.0.0","102445","62e02660c3ef175825ab7655","1","25","null","","","","","","","","","<p style='font-size: 30px;'><strong>Okay</strong></p>","null","neutral_feedback","0","test","25","","","","","","","",""
"","","","","","","","","","","","html-button-response","57","2.0.0","103248","62e02660c3ef175825ab7655","1","25","802","","","","","","","","","<img src= ""rock_img/I_Pumice_15.jpg"" style=""width:8cm; height:7.86cm;""><p>What type of rock is this?</p>","7","class_response","0","test","26","Pumice","Pumice","15","true","8","8","",""
"","","","","","","","","","","","html-keyboard-response","58","2.0.0","103749","62e02660c3ef175825ab7655","1","25","null","","","","","","","","","<p style='font-size: 30px;'><strong>Okay</strong></p>","null","neutral_feedback","0","test","26","","","","","","","",""
"","","","","","","","","","","","html-button-response","59","2.0.0","105049","62e02660c3ef175825ab7655","1","25","1299","","","","","","","","","<img src= ""rock_img/I_Peridotite_15.jpg"" style=""width:8cm; height:6cm;""><p>What type of rock is this?</p>","6","class_response","0","test","27","Peridotite","Peridotite","15","true","7","7","",""
"","","","","","","","","","","","html-keyboard-response","60","2.0.0","105553","62e02660c3ef175825ab7655","1","25","null","","","","","","","","","<p style='font-size: 30px;'><strong>Okay</strong></p>","null","neutral_feedback","0","test","27","","","","","","","",""
"","","","","","","","","","","","html-button-response","61","2.0.0","107070","62e02660c3ef175825ab7655","1","25","1516","","","","","","","","","<img src= ""rock_img/I_Peridotite_05.jpg"" style=""width:8cm; height:7.1499999999999995cm;""><p>What type of rock is this?</p>","3","class_response","0","test","28","Gabbro","Peridotite","05","false","4","7","",""
"","","","","","","","","","","","html-keyboard-response","62","2.0.0","107577","62e02660c3ef175825ab7655","1","25","null","","","","","","","","","<p style='font-size: 30px;'><strong>Okay</strong></p>","null","neutral_feedback","0","test","28","","","","","","","",""
"","","","","","","","","","","","html-button-response","63","2.0.0","108732","62e02660c3ef175825ab7655","1","25","1154","","","","","","","","","<img src= ""rock_img/I_Obsidian_06.jpg"" style=""width:8cm; height:6.8cm;""><p>What type of rock is this?</p>","4","class_response","0","test","29","Obsidian","Obsidian","06","true","5","5","",""
"","","","","","","","","","","","html-keyboard-response","64","2.0.0","109235","62e02660c3ef175825ab7655","1","25","null","","","","","","","","","<p style='font-size: 30px;'><strong>Okay</strong></p>","null","neutral_feedback","0","test","29","","","","","","","",""
"","","","","","","","","","","","html-button-response","65","2.0.0","111465","62e02660c3ef175825ab7655","1","25","2229","","","","","","","","","<img src= ""rock_img/I_Gabbro_03.jpg"" style=""width:8cm; height:8.52cm;""><p>What type of rock is this?</p>","0","class_response","0","test","30","Andesite","Gabbro","03","false","1","4","",""
"","","","","","","","","","","","html-keyboard-response","66","2.0.0","111966","62e02660c3ef175825ab7655","1","25","null","","","","","","","","","<p style='font-size: 30px;'><strong>Okay</strong></p>","null","neutral_feedback","0","test","30","","","","","","","",""
"","","","","","","","","","","","html-button-response","67","2.0.0","113017","62e02660c3ef175825ab7655","1","25","1050","","","","","","","","","<img src= ""rock_img/I_Basalt_11.jpg"" style=""width:8cm; height:5.359999999999999cm;""><p>What type of rock is this?</p>","7","class_response","0","test","31","Pumice","Basalt","11","false","8","2","",""
"","","","","","","","","","","","html-keyboard-response","68","2.0.0","113521","62e02660c3ef175825ab7655","1","25","null","","","","","","","","","<p style='font-size: 30px;'><strong>Okay</strong></p>","null","neutral_feedback","0","test","31","","","","","","","",""
"","","","","","","","","","","","html-button-response","69","2.0.0","114599","62e02660c3ef175825ab7655","1","25","1077","","","","","","","","","<img src= ""rock_img/I_Obsidian_09.jpg"" style=""width:8cm; height:5cm;""><p>What type of rock is this?</p>","4","class_response","0","test","32","Obsidian","Obsidian","09","true","5","5","",""
"","","","","","","","","","","","html-keyboard-response","70","2.0.0","115107","62e02660c3ef175825ab7655","1","25","null","","","","","","","","","<p style='font-size: 30px;'><strong>Okay</strong></p>","null","neutral_feedback","0","test","32","","","","","","","",""
"","","","","","","","","","","","html-button-response","71","2.0.0","128551","62e02660c3ef175825ab7655","1","25","13443","","","","","","","","","<img src= ""rock_img/I_Pegmatite_07.jpg"" style=""width:8cm; height:6.7cm;""><p>What type of rock is this?</p>","3","class_response","0","test","33","Gabbro","Pegmatite","07","false","4","6","",""
"","","","","","","","","","","","html-keyboard-response","72","2.0.0","129052","62e02660c3ef175825ab7655","1","25","null","","","","","","","","","<p style='font-size: 30px;'><strong>Okay</strong></p>","null","neutral_feedback","0","test","33","","","","","","","",""
"","","","","","","","","","","","html-button-response","73","2.0.0","130092","62e02660c3ef175825ab7655","1","25","1039","","","","","","","","","<img src= ""rock_img/I_Pumice_16.jpg"" style=""width:8cm; height:6.79cm;""><p>What type of rock is this?</p>","7","class_response","0","test","34","Pumice","Pumice","16","true","8","8","",""
"","","","","","","","","","","","html-keyboard-response","74","2.0.0","130598","62e02660c3ef175825ab7655","1","25","null","","","","","","","","","<p style='font-size: 30px;'><strong>Okay</strong></p>","null","neutral_feedback","0","test","34","","","","","","","",""
"","","","","","","","","","","","html-button-response","75","2.0.0","131944","62e02660c3ef175825ab7655","1","25","1345","","","","","","","","","<img src= ""rock_img/I_Pegmatite_13.jpg"" style=""width:8cm; height:4.95cm;""><p>What type of rock is this?</p>","3","class_response","0","test","35","Gabbro","Pegmatite","13","false","4","6","",""
"","","","","","","","","","","","html-keyboard-response","76","2.0.0","132458","62e02660c3ef175825ab7655","1","25","null","","","","","","","","","<p style='font-size: 30px;'><strong>Okay</strong></p>","null","neutral_feedback","0","test","35","","","","","","","",""
"","","","","","","","","","","","html-button-response","77","2.0.0","133587","62e02660c3ef175825ab7655","1","25","1128","","","","","","","","","<img src= ""rock_img/I_Basalt_14.jpg"" style=""width:8cm; height:5.82cm;""><p>What type of rock is this?</p>","7","class_response","0","test","36","Pumice","Basalt","14","false","8","2","",""
"","","","","","","","","","","","html-keyboard-response","78","2.0.0","134092","62e02660c3ef175825ab7655","1","25","null","","","","","","","","","<p style='font-size: 30px;'><strong>Okay</strong></p>","null","neutral_feedback","0","test","36","","","","","","","",""
"","","","","","","","","","","","html-button-response","79","2.0.0","135799","62e02660c3ef175825ab7655","1","25","1706","","","","","","","","","<img src= ""rock_img/I_Pegmatite_03.jpg"" style=""width:8cm; height:5.239999999999999cm;""><p>What type of rock is this?</p>","6","class_response","0","test","37","Peridotite","Pegmatite","03","false","7","6","",""
"","","","","","","","","","","","html-keyboard-response","80","2.0.0","136314","62e02660c3ef175825ab7655","1","25","null","","","","","","","","","<p style='font-size: 30px;'><strong>Okay</strong></p>","null","neutral_feedback","0","test","37","","","","","","","",""
"","","","","","","","","","","","html-button-response","81","2.0.0","137350","62e02660c3ef175825ab7655","1","25","1035","","","","","","","","","<img src= ""rock_img/I_Basalt_12.jpg"" style=""width:8cm; height:6.010000000000001cm;""><p>What type of rock is this?</p>","7","class_response","0","test","38","Pumice","Basalt","12","false","8","2","",""
"","","","","","","","","","","","html-keyboard-response","82","2.0.0","137855","62e02660c3ef175825ab7655","1","25","null","","","","","","","","","<p style='font-size: 30px;'><strong>Okay</strong></p>","null","neutral_feedback","0","test","38","","","","","","","",""
"","","","","","","","","","","","html-button-response","83","2.0.0","139793","62e02660c3ef175825ab7655","1","25","1937","","","","","","","","","<img src= ""rock_img/I_Andesite_16.jpg"" style=""width:8cm; height:6.010000000000001cm;""><p>What type of rock is this?</p>","2","class_response","0","test","39","Diorite","Andesite","16","false","3","1","",""
"","","","","","","","","","","","html-keyboard-response","84","2.0.0","140297","62e02660c3ef175825ab7655","1","25","null","","","","","","","","","<p style='font-size: 30px;'><strong>Okay</strong></p>","null","neutral_feedback","0","test","39","","","","","","","",""
"","","","","","","","","","","","html-button-response","85","2.0.0","142344","62e02660c3ef175825ab7655","1","25","2047","","","","","","","","","<img src= ""rock_img/I_Andesite_03.jpg"" style=""width:8cm; height:5.73cm;""><p>What type of rock is this?</p>","1","class_response","0","test","40","Basalt","Andesite","03","false","2","1","",""
"","","","","","","","","","","","html-keyboard-response","86","2.0.0","142856","62e02660c3ef175825ab7655","1","25","null","","","","","","","","","<p style='font-size: 30px;'><strong>Okay</strong></p>","null","neutral_feedback","0","test","40","","","","","","","",""
"","","","","","","","","","","","html-button-response","87","2.0.0","144366","62e02660c3ef175825ab7655","1","25","1509","","","","","","","","","<img src= ""rock_img/I_Pegmatite_09.jpg"" style=""width:8cm; height:4.03cm;""><p>What type of rock is this?</p>","3","class_response","0","test","41","Gabbro","Pegmatite","09","false","4","6","",""
"","","","","","","","","","","","html-keyboard-response","88","2.0.0","144877","62e02660c3ef175825ab7655","1","25","null","","","","","","","","","<p style='font-size: 30px;'><strong>Okay</strong></p>","null","neutral_feedback","0","test","41","","","","","","","",""
"","","","","","","","","","","","html-button-response","89","2.0.0","147388","62e02660c3ef175825ab7655","1","25","2510","","","","","","","","","<img src= ""rock_img/I_Gabbro_10.jpg"" style=""width:8cm; height:5.680000000000001cm;""><p>What type of rock is this?</p>","0","class_response","0","test","42","Andesite","Gabbro","10","false","1","4","",""
"","","","","","","","","","","","html-keyboard-response","90","2.0.0","147891","62e02660c3ef175825ab7655","1","25","null","","","","","","","","","<p style='font-size: 30px;'><strong>Okay</strong></p>","null","neutral_feedback","0","test","42","","","","","","","",""
"","","","","","","","","","","","html-button-response","91","2.0.0","150001","62e02660c3ef175825ab7655","1","25","2109","","","","","","","","","<img src= ""rock_img/I_Diorite_06.jpg"" style=""width:8cm; height:6.03cm;""><p>What type of rock is this?</p>","2","class_response","0","test","43","Diorite","Diorite","06","true","3","3","",""
"","","","","","","","","","","","html-keyboard-response","92","2.0.0","150507","62e02660c3ef175825ab7655","1","25","null","","","","","","","","","<p style='font-size: 30px;'><strong>Okay</strong></p>","null","neutral_feedback","0","test","43","","","","","","","",""
"","","","","","","","","","","","html-button-response","93","2.0.0","151303","62e02660c3ef175825ab7655","1","25","795","","","","","","","","","<img src= ""rock_img/I_Diorite_15.jpg"" style=""width:8cm; height:5.54cm;""><p>What type of rock is this?</p>","2","class_response","0","test","44","Diorite","Diorite","15","true","3","3","",""
"","","","","","","","","","","","html-keyboard-response","94","2.0.0","151807","62e02660c3ef175825ab7655","1","25","null","","","","","","","","","<p style='font-size: 30px;'><strong>Okay</strong></p>","null","neutral_feedback","0","test","44","","","","","","","",""
"","","","","","","","","","","","html-button-response","95","2.0.0","153335","62e02660c3ef175825ab7655","1","25","1527","","","","","","","","","<img src= ""rock_img/I_Basalt_08.jpg"" style=""width:8cm; height:10.44cm;""><p>What type of rock is this?</p>","1","class_response","0","test","45","Basalt","Basalt","08","true","2","2","",""
"","","","","","","","","","","","html-keyboard-response","96","2.0.0","153848","62e02660c3ef175825ab7655","1","25","null","","","","","","","","","<p style='font-size: 30px;'><strong>Okay</strong></p>","null","neutral_feedback","0","test","45","","","","","","","",""
"","","","","","","","","","","","html-button-response","97","2.0.0","155997","62e02660c3ef175825ab7655","1","25","2148","","","","","","","","","<img src= ""rock_img/I_Peridotite_02.jpg"" style=""width:8cm; height:5.859999999999999cm;""><p>What type of rock is this?</p>","5","class_response","0","test","46","Pegmatite","Peridotite","02","false","6","7","",""
"","","","","","","","","","","","html-keyboard-response","98","2.0.0","156509","62e02660c3ef175825ab7655","1","25","null","","","","","","","","","<p style='font-size: 30px;'><strong>Okay</strong></p>","null","neutral_feedback","0","test","46","","","","","","","",""
"","","","","","","","","","","","html-button-response","99","2.0.0","157438","62e02660c3ef175825ab7655","1","25","929","","","","","","","","","<img src= ""rock_img/I_Obsidian_02.jpg"" style=""width:8cm; height:7.51cm;""><p>What type of rock is this?</p>","4","class_response","0","test","47","Obsidian","Obsidian","02","true","5","5","",""
"","","","","","","","","","","","html-keyboard-response","100","2.0.0","157953","62e02660c3ef175825ab7655","1","25","null","","","","","","","","","<p style='font-size: 30px;'><strong>Okay</strong></p>","null","neutral_feedback","0","test","47","","","","","","","",""
"","","","","","","","","","","","html-button-response","101","2.0.0","160821","62e02660c3ef175825ab7655","1","25","2867","","","","","","","","","<img src= ""rock_img/I_Gabbro_11.jpg"" style=""width:8cm; height:6.2cm;""><p>What type of rock is this?</p>","1","class_response","0","test","48","Basalt","Gabbro","11","false","2","4","",""
"","","","","","","","","","","","html-keyboard-response","102","2.0.0","161337","62e02660c3ef175825ab7655","1","25","null","","","","","","","","","<p style='font-size: 30px;'><strong>Okay</strong></p>","null","neutral_feedback","0","test","48","","","","","","","",""
"","","","","","","","","","","","instructions","103","2.0.0","168867","62e02660c3ef175825ab7655","1","25","7514","","","","","","","","[{""page_index"":0,""viewing_time"":2192},{""page_index"":1,""viewing_time"":1792},{""page_index"":2,""viewing_time"":3531}]","","","","","","","","","","","","","",""
"","","","","","","","","","","","html-button-response","104","2.0.0","170300","62e02660c3ef175825ab7655","1","25","1432","","","","","","","","","","0","start_train","","","","","","","","","","",""
"","","","","","","","","","","","html-button-response","105","2.0.0","172681","62e02660c3ef175825ab7655","1","25","2379","","","","","","","","","<img src= ""rock_img/I_Pegmatite_05.jpg"" style=""width:8cm; height:7.300000000000001cm;""><p>What type of rock is this?</p>","3","class_response","1","train","1","Gabbro","Pegmatite","05","false","4","6","",""
"","","","","","","","","","","","html-button-response","106","2.0.0","174214","62e02660c3ef175825ab7655","1","25","1532","","","","","","","","","<img src= rock_img/I_Pegmatite_05.jpg style=""width:8cm; height:7.300000000000001cm;""><p style='font-size: 30px; color: red;'><strong>Incorrect!</strong></p><p style='font-size: 30px;'><strong>This rock is pegmatite</strong></p>","0","corr_feedback","1","train","1","","","","","","","",""
"","","","","","","","","","","","html-button-response","107","2.0.0","175365","62e02660c3ef175825ab7655","1","25","1151","","","","","","","","","<img src= ""rock_img/I_Obsidian_04.jpg"" style=""width:8cm; height:6.930000000000001cm;""><p>What type of rock is this?</p>","4","class_response","1","train","2","Obsidian","Obsidian","04","true","5","5","",""
"","","","","","","","","","","","html-button-response","108","2.0.0","176017","62e02660c3ef175825ab7655","1","25","651","","","","","","","","","<img src= rock_img/I_Obsidian_04.jpg style=""width:8cm; height:6.930000000000001cm;""><p style='font-size: 30px; color: green;'><strong>Correct!</strong></p><p style='font-size: 30px;'><strong>This rock is obsidian</strong></p>","0","corr_feedback","1","train","2","","","","","","","",""
"","","","","","","","","","","","html-button-response","109","2.0.0","177160","62e02660c3ef175825ab7655","1","25","1142","","","","","","","","","<img src= ""rock_img/I_Basalt_16.jpg"" style=""width:8cm; height:7.659999999999999cm;""><p>What type of rock is this?</p>","7","class_response","1","train","3","Pumice","Basalt","16","false","8","2","",""
"","","","","","","","","","","","html-button-response","110","2.0.0","178782","62e02660c3ef175825ab7655","1","25","1621","","","","","","","","","<img src= rock_img/I_Basalt_16.jpg style=""width:8cm; height:7.659999999999999cm;""><p style='font-size: 30px; color: red;'><strong>Incorrect!</strong></p><p style='font-size: 30px;'><strong>This rock is basalt</strong></p>","0","corr_feedback","1","train","3","","","","","","","",""
"","","","","","","","","","","","html-button-response","111","2.0.0","180013","62e02660c3ef175825ab7655","1","25","1230","","","","","","","","","<img src= ""rock_img/I_Peridotite_13.jpg"" style=""width:8cm; height:7.58cm;""><p>What type of rock is this?</p>","2","class_response","1","train","4","Diorite","Peridotite","13","false","3","7","",""
"","","","","","","","","","","","html-button-response","112","2.0.0","181015","62e02660c3ef175825ab7655","1","25","1001","","","","","","","","","<img src= rock_img/I_Peridotite_13.jpg style=""width:8cm; height:7.58cm;""><p style='font-size: 30px; color: red;'><strong>Incorrect!</strong></p><p style='font-size: 30px;'><strong>This rock is peridotite</strong></p>","0","corr_feedback","1","train","4","","","","","","","",""
"","","","","","","","","","","","html-button-response","113","2.0.0","182377","62e02660c3ef175825ab7655","1","25","1361","","","","","","","","","<img src= ""rock_img/I_Andesite_07.jpg"" style=""width:8cm; height:5.93cm;""><p>What type of rock is this?</p>","6","class_response","1","train","5","Peridotite","Andesite","07","false","7","1","",""
"","","","","","","","","","","","html-button-response","114","2.0.0","183289","62e02660c3ef175825ab7655","1","25","912","","","","","","","","","<img src= rock_img/I_Andesite_07.jpg style=""width:8cm; height:5.93cm;""><p style='font-size: 30px; color: red;'><strong>Incorrect!</strong></p><p style='font-size: 30px;'><strong>This rock is andesite</strong></p>","0","corr_feedback","1","train","5","","","","","","","",""
"","","","","","","","","","","","html-button-response","115","2.0.0","185221","62e02660c3ef175825ab7655","1","25","1931","","","","","","","","","<img src= ""rock_img/I_Peridotite_08.jpg"" style=""width:8cm; height:6.7cm;""><p>What type of rock is this?</p>","2","class_response","1","train","6","Diorite","Peridotite","08","false","3","7","",""
"","","","","","","","","","","","html-button-response","116","2.0.0","186313","62e02660c3ef175825ab7655","1","25","1090","","","","","","","","","<img src= rock_img/I_Peridotite_08.jpg style=""width:8cm; height:6.7cm;""><p style='font-size: 30px; color: red;'><strong>Incorrect!</strong></p><p style='font-size: 30px;'><strong>This rock is peridotite</strong></p>","0","corr_feedback","1","train","6","","","","","","","",""
"","","","","","","","","","","","html-button-response","117","2.0.0","187545","62e02660c3ef175825ab7655","1","25","1231","","","","","","","","","<img src= ""rock_img/I_Pumice_14.jpg"" style=""width:8cm; height:6.39cm;""><p>What type of rock is this?</p>","7","class_response","1","train","7","Pumice","Pumice","14","true","8","8","",""
"","","","","","","","","","","","html-button-response","118","2.0.0","188277","62e02660c3ef175825ab7655","1","25","731","","","","","","","","","<img src= rock_img/I_Pumice_14.jpg style=""width:8cm; height:6.39cm;""><p style='font-size: 30px; color: green;'><strong>Correct!</strong></p><p style='font-size: 30px;'><strong>This rock is pumice</strong></p>","0","corr_feedback","1","train","7","","","","","","","",""
"","","","","","","","","","","","html-button-response","119","2.0.0","189309","62e02660c3ef175825ab7655","1","25","1031","","","","","","","","","<img src= ""rock_img/I_Pumice_10.jpg"" style=""width:8cm; height:7.609999999999999cm;""><p>What type of rock is this?</p>","7","class_response","1","train","8","Pumice","Pumice","10","true","8","8","",""
"","","","","","","","","","","","html-button-response","120","2.0.0","189981","62e02660c3ef175825ab7655","1","25","671","","","","","","","","","<img src= rock_img/I_Pumice_10.jpg style=""width:8cm; height:7.609999999999999cm;""><p style='font-size: 30px; color: green;'><strong>Correct!</strong></p><p style='font-size: 30px;'><strong>This rock is pumice</strong></p>","0","corr_feedback","1","train","8","","","","","","","",""
"","","","","","","","","","","","html-button-response","121","2.0.0","191573","62e02660c3ef175825ab7655","1","25","1592","","","","","","","","","<img src= ""rock_img/I_Diorite_09.jpg"" style=""width:8cm; height:5.27cm;""><p>What type of rock is this?</p>","0","class_response","1","train","9","Andesite","Diorite","09","false","1","3","",""
"","","","","","","","","","","","html-button-response","122","2.0.0","192646","62e02660c3ef175825ab7655","1","25","1071","","","","","","","","","<img src= rock_img/I_Diorite_09.jpg style=""width:8cm; height:5.27cm;""><p style='font-size: 30px; color: red;'><strong>Incorrect!</strong></p><p style='font-size: 30px;'><strong>This rock is diorite</strong></p>","0","corr_feedback","1","train","9","","","","","","","",""
"","","","","","","","","","","","html-button-response","123","2.0.0","194927","62e02660c3ef175825ab7655","1","25","2280","","","","","","","","","<img src= ""rock_img/I_Gabbro_05.jpg"" style=""width:8cm; height:6cm;""><p>What type of rock is this?</p>","3","class_response","1","train","10","Gabbro","Gabbro","05","true","4","4","",""
"","","","","","","","","","","","html-button-response","124","2.0.0","195910","62e02660c3ef175825ab7655","1","25","982","","","","","","","","","<img src= rock_img/I_Gabbro_05.jpg style=""width:8cm; height:6cm;""><p style='font-size: 30px; color: green;'><strong>Correct!</strong></p><p style='font-size: 30px;'><strong>This rock is gabbro</strong></p>","0","corr_feedback","1","train","10","","","","","","","",""
"","","","","","","","","","","","html-button-response","125","2.0.0","197982","62e02660c3ef175825ab7655","1","25","2071","","","","","","","","","<img src= ""rock_img/I_Obsidian_05.jpg"" style=""width:8cm; height:6.33cm;""><p>What type of rock is this?</p>","6","class_response","1","train","11","Peridotite","Obsidian","05","false","7","5","",""
"","","","","","","","","","","","html-button-response","126","2.0.0","199364","62e02660c3ef175825ab7655","1","25","1382","","","","","","","","","<img src= rock_img/I_Obsidian_05.jpg style=""width:8cm; height:6.33cm;""><p style='font-size: 30px; color: red;'><strong>Incorrect!</strong></p><p style='font-size: 30px;'><strong>This rock is obsidian</strong></p>","0","corr_feedback","1","train","11","","","","","","","",""
"","","","","","","","","","","","html-button-response","127","2.0.0","200675","62e02660c3ef175825ab7655","1","25","1310","","","","","","","","","<img src= ""rock_img/I_Pegmatite_08.jpg"" style=""width:8cm; height:7.68cm;""><p>What type of rock is this?</p>","4","class_response","1","train","12","Obsidian","Pegmatite","08","false","5","6","",""
"","","","","","","","","","","","html-button-response","128","2.0.0","201817","62e02660c3ef175825ab7655","1","25","1141","","","","","","","","","<img src= rock_img/I_Pegmatite_08.jpg style=""width:8cm; height:7.68cm;""><p style='font-size: 30px; color: red;'><strong>Incorrect!</strong></p><p style='font-size: 30px;'><strong>This rock is pegmatite</strong></p>","0","corr_feedback","1","train","12","","","","","","","",""
"","","","","","","","","","","","html-button-response","129","2.0.0","203780","62e02660c3ef175825ab7655","1","25","1962","","","","","","","","","<img src= ""rock_img/I_Andesite_10.jpg"" style=""width:8cm; height:4.16cm;""><p>What type of rock is this?</p>","2","class_response","1","train","13","Diorite","Andesite","10","false","3","1","",""
"","","","","","","","","","","","html-button-response","130","2.0.0","204561","62e02660c3ef175825ab7655","1","25","781","","","","","","","","","<img src= rock_img/I_Andesite_10.jpg style=""width:8cm; height:4.16cm;""><p style='font-size: 30px; color: red;'><strong>Incorrect!</strong></p><p style='font-size: 30px;'><strong>This rock is andesite</strong></p>","0","corr_feedback","1","train","13","","","","","","","",""
"","","","","","","","","","","","html-button-response","131","2.0.0","205923","62e02660c3ef175825ab7655","1","25","1360","","","","","","","","","<img src= ""rock_img/I_Basalt_06.jpg"" style=""width:8cm; height:7.06cm;""><p>What type of rock is this?</p>","1","class_response","1","train","14","Basalt","Basalt","06","true","2","2","",""
"","","","","","","","","","","","html-button-response","132","2.0.0","206775","62e02660c3ef175825ab7655","1","25","852","","","","","","","","","<img src= rock_img/I_Basalt_06.jpg style=""width:8cm; height:7.06cm;""><p style='font-size: 30px; color: green;'><strong>Correct!</strong></p><p style='font-size: 30px;'><strong>This rock is basalt</strong></p>","0","corr_feedback","1","train","14","","","","","","","",""
"","","","","","","","","","","","html-button-response","133","2.0.0","207718","62e02660c3ef175825ab7655","1","25","942","","","","","","","","","<img src= ""rock_img/I_Gabbro_14.jpg"" style=""width:8cm; height:8.48cm;""><p>What type of rock is this?</p>","1","class_response","1","train","15","Basalt","Gabbro","14","false","2","4","",""
"","","","","","","","","","","","html-button-response","134","2.0.0","208819","62e02660c3ef175825ab7655","1","25","1100","","","","","","","","","<img src= rock_img/I_Gabbro_14.jpg style=""width:8cm; height:8.48cm;""><p style='font-size: 30px; color: red;'><strong>Incorrect!</strong></p><p style='font-size: 30px;'><strong>This rock is gabbro</strong></p>","0","corr_feedback","1","train","15","","","","","","","",""
"","","","","","","","","","","","html-button-response","135","2.0.0","210211","62e02660c3ef175825ab7655","1","25","1390","","","","","","","","","<img src= ""rock_img/I_Peridotite_06.jpg"" style=""width:8cm; height:7.53cm;""><p>What type of rock is this?</p>","5","class_response","1","train","16","Pegmatite","Peridotite","06","false","6","7","",""
"","","","","","","","","","","","html-button-response","136","2.0.0","210943","62e02660c3ef175825ab7655","1","25","731","","","","","","","","","<img src= rock_img/I_Peridotite_06.jpg style=""width:8cm; height:7.53cm;""><p style='font-size: 30px; color: red;'><strong>Incorrect!</strong></p><p style='font-size: 30px;'><strong>This rock is peridotite</strong></p>","0","corr_feedback","1","train","16","","","","","","","",""
"","","","","","","","","","","","html-button-response","137","2.0.0","212785","62e02660c3ef175825ab7655","1","25","1842","","","","","","","","","<img src= ""rock_img/I_Gabbro_13.jpg"" style=""width:8cm; height:5.08cm;""><p>What type of rock is this?</p>","6","class_response","1","train","17","Peridotite","Gabbro","13","false","7","4","",""
"","","","","","","","","","","","html-button-response","138","2.0.0","213358","62e02660c3ef175825ab7655","1","25","571","","","","","","","","","<img src= rock_img/I_Gabbro_13.jpg style=""width:8cm; height:5.08cm;""><p style='font-size: 30px; color: red;'><strong>Incorrect!</strong></p><p style='font-size: 30px;'><strong>This rock is gabbro</strong></p>","0","corr_feedback","1","train","17","","","","","","","",""
"","","","","","","","","","","","html-button-response","139","2.0.0","215759","62e02660c3ef175825ab7655","1","25","2401","","","","","","","","","<img src= ""rock_img/I_Diorite_14.jpg"" style=""width:8cm; height:5.71cm;""><p>What type of rock is this?</p>","3","class_response","1","train","18","Gabbro","Diorite","14","false","4","3","",""
"","","","","","","","","","","","html-button-response","140","2.0.0","216601","62e02660c3ef175825ab7655","1","25","841","","","","","","","","","<img src= rock_img/I_Diorite_14.jpg style=""width:8cm; height:5.71cm;""><p style='font-size: 30px; color: red;'><strong>Incorrect!</strong></p><p style='font-size: 30px;'><strong>This rock is diorite</strong></p>","0","corr_feedback","1","train","18","","","","","","","",""
"","","","","","","","","","","","html-button-response","141","2.0.0","217963","62e02660c3ef175825ab7655","1","25","1361","","","","","","","","","<img src= ""rock_img/I_Gabbro_01.jpg"" style=""width:8cm; height:5.21cm;""><p>What type of rock is this?</p>","2","class_response","1","train","19","Diorite","Gabbro","01","false","3","4","",""
"","","","","","","","","","","","html-button-response","142","2.0.0","218696","62e02660c3ef175825ab7655","1","25","732","","","","","","","","","<img src= rock_img/I_Gabbro_01.jpg style=""width:8cm; height:5.21cm;""><p style='font-size: 30px; color: red;'><strong>Incorrect!</strong></p><p style='font-size: 30px;'><strong>This rock is gabbro</strong></p>","0","corr_feedback","1","train","19","","","","","","","",""
"","","","","","","","","","","","html-button-response","143","2.0.0","220157","62e02660c3ef175825ab7655","1","25","1460","","","","","","","","","<img src= ""rock_img/I_Basalt_10.jpg"" style=""width:8cm; height:5.85cm;""><p>What type of rock is this?</p>","1","class_response","1","train","20","Basalt","Basalt","10","true","2","2","",""
"","","","","","","","","","","","html-button-response","144","2.0.0","220889","62e02660c3ef175825ab7655","1","25","731","","","","","","","","","<img src= rock_img/I_Basalt_10.jpg style=""width:8cm; height:5.85cm;""><p style='font-size: 30px; color: green;'><strong>Correct!</strong></p><p style='font-size: 30px;'><strong>This rock is basalt</strong></p>","0","corr_feedback","1","train","20","","","","","","","",""
"","","","","","","","","","","","html-button-response","145","2.0.0","222321","62e02660c3ef175825ab7655","1","25","1431","","","","","","","","","<img src= ""rock_img/I_Peridotite_07.jpg"" style=""width:8cm; height:4.83cm;""><p>What type of rock is this?</p>","2","class_response","1","train","21","Diorite","Peridotite","07","false","3","7","",""
"","","","","","","","","","","","html-button-response","146","2.0.0","223004","62e02660c3ef175825ab7655","1","25","682","","","","","","","","","<img src= rock_img/I_Peridotite_07.jpg style=""width:8cm; height:4.83cm;""><p style='font-size: 30px; color: red;'><strong>Incorrect!</strong></p><p style='font-size: 30px;'><strong>This rock is peridotite</strong></p>","0","corr_feedback","1","train","21","","","","","","","",""
"","","","","","","","","","","","html-button-response","147","2.0.0","224145","62e02660c3ef175825ab7655","1","25","1140","","","","","","","","","<img src= ""rock_img/I_Diorite_11.jpg"" style=""width:8cm; height:7.11cm;""><p>What type of rock is this?</p>","6","class_response","1","train","22","Peridotite","Diorite","11","false","7","3","",""
"","","","","","","","","","","","html-button-response","148","2.0.0","224867","62e02660c3ef175825ab7655","1","25","721","","","","","","","","","<img src= rock_img/I_Diorite_11.jpg style=""width:8cm; height:7.11cm;""><p style='font-size: 30px; color: red;'><strong>Incorrect!</strong></p><p style='font-size: 30px;'><strong>This rock is diorite</strong></p>","0","corr_feedback","1","train","22","","","","","","","",""
"","","","","","","","","","","","html-button-response","149","2.0.0","225859","62e02660c3ef175825ab7655","1","25","991","","","","","","","","","<img src= ""rock_img/I_Obsidian_12.jpg"" style=""width:8cm; height:6.53cm;""><p>What type of rock is this?</p>","4","class_response","1","train","23","Obsidian","Obsidian","12","true","5","5","",""
"","","","","","","","","","","","html-button-response","150","2.0.0","226501","62e02660c3ef175825ab7655","1","25","642","","","","","","","","","<img src= rock_img/I_Obsidian_12.jpg style=""width:8cm; height:6.53cm;""><p style='font-size: 30px; color: green;'><strong>Correct!</strong></p><p style='font-size: 30px;'><strong>This rock is obsidian</strong></p>","0","corr_feedback","1","train","23","","","","","","","",""
"","","","","","","","","","","","html-button-response","151","2.0.0","227924","62e02660c3ef175825ab7655","1","25","1421","","","","","","","","","<img src= ""rock_img/I_Diorite_12.jpg"" style=""width:8cm; height:4.88cm;""><p>What type of rock is this?</p>","0","class_response","1","train","24","Andesite","Diorite","12","false","1","3","",""
"","","","","","","","","","","","html-button-response","152","2.0.0","228796","62e02660c3ef175825ab7655","1","25","871","","","","","","","","","<img src= rock_img/I_Diorite_12.jpg style=""width:8cm; height:4.88cm;""><p style='font-size: 30px; color: red;'><strong>Incorrect!</strong></p><p style='font-size: 30px;'><strong>This rock is diorite</strong></p>","0","corr_feedback","1","train","24","","","","","","","",""
"","","","","","","","","","","","html-button-response","153","2.0.0","231989","62e02660c3ef175825ab7655","1","25","3192","","","","","","","","","<img src= ""rock_img/I_Andesite_02.jpg"" style=""width:8cm; height:8.5cm;""><p>What type of rock is this?</p>","3","class_response","1","train","25","Gabbro","Andesite","02","false","4","1","",""
"","","","","","","","","","","","html-button-response","154","2.0.0","232931","62e02660c3ef175825ab7655","1","25","942","","","","","","","","","<img src= rock_img/I_Andesite_02.jpg style=""width:8cm; height:8.5cm;""><p style='font-size: 30px; color: red;'><strong>Incorrect!</strong></p><p style='font-size: 30px;'><strong>This rock is andesite</strong></p>","0","corr_feedback","1","train","25","","","","","","","",""
"","","","","","","","","","","","html-button-response","155","2.0.0","234103","62e02660c3ef175825ab7655","1","25","1170","","","","","","","","","<img src= ""rock_img/I_Diorite_16.jpg"" style=""width:8cm; height:6.74cm;""><p>What type of rock is this?</p>","0","class_response","1","train","26","Andesite","Diorite","16","false","1","3","",""
"","","","","","","","","","","","html-button-response","156","2.0.0","234996","62e02660c3ef175825ab7655","1","25","892","","","","","","","","","<img src= rock_img/I_Diorite_16.jpg style=""width:8cm; height:6.74cm;""><p style='font-size: 30px; color: red;'><strong>Incorrect!</strong></p><p style='font-size: 30px;'><strong>This rock is diorite</strong></p>","0","corr_feedback","1","train","26","","","","","","","",""
"","","","","","","","","","","","html-button-response","157","2.0.0","236477","62e02660c3ef175825ab7655","1","25","1480","","","","","","","","","<img src= ""rock_img/I_Peridotite_10.jpg"" style=""width:8cm; height:5.390000000000001cm;""><p>What type of rock is this?</p>","0","class_response","1","train","27","Andesite","Peridotite","10","false","1","7","",""
"","","","","","","","","","","","html-button-response","158","2.0.0","237362","62e02660c3ef175825ab7655","1","25","884","","","","","","","","","<img src= rock_img/I_Peridotite_10.jpg style=""width:8cm; height:5.390000000000001cm;""><p style='font-size: 30px; color: red;'><strong>Incorrect!</strong></p><p style='font-size: 30px;'><strong>This rock is peridotite</strong></p>","0","corr_feedback","1","train","27","","","","","","","",""
"","","","","","","","","","","","html-button-response","159","2.0.0","238683","62e02660c3ef175825ab7655","1","25","1320","","","","","","","","","<img src= ""rock_img/I_Pumice_09.jpg"" style=""width:8cm; height:6.44cm;""><p>What type of rock is this?</p>","7","class_response","1","train","28","Pumice","Pumice","09","true","8","8","",""
"","","","","","","","","","","","html-button-response","160","2.0.0","239376","62e02660c3ef175825ab7655","1","25","693","","","","","","","","","<img src= rock_img/I_Pumice_09.jpg style=""width:8cm; height:6.44cm;""><p style='font-size: 30px; color: green;'><strong>Correct!</strong></p><p style='font-size: 30px;'><strong>This rock is pumice</strong></p>","0","corr_feedback","1","train","28","","","","","","","",""
"","","","","","","","","","","","html-button-response","161","2.0.0","240357","62e02660c3ef175825ab7655","1","25","980","","","","","","","","","<img src= ""rock_img/I_Pumice_06.jpg"" style=""width:8cm; height:6.9399999999999995cm;""><p>What type of rock is this?</p>","7","class_response","1","train","29","Pumice","Pumice","06","true","8","8","",""
"","","","","","","","","","","","html-button-response","162","2.0.0","240880","62e02660c3ef175825ab7655","1","25","521","","","","","","","","","<img src= rock_img/I_Pumice_06.jpg style=""width:8cm; height:6.9399999999999995cm;""><p style='font-size: 30px; color: green;'><strong>Correct!</strong></p><p style='font-size: 30px;'><strong>This rock is pumice</strong></p>","0","corr_feedback","1","train","29","","","","","","","",""
"","","","","","","","","","","","html-button-response","163","2.0.0","242301","62e02660c3ef175825ab7655","1","25","1421","","","","","","","","","<img src= ""rock_img/I_Obsidian_14.jpg"" style=""width:8cm; height:7.64cm;""><p>What type of rock is this?</p>","4","class_response","1","train","30","Obsidian","Obsidian","14","true","5","5","",""
"","","","","","","","","","","","html-button-response","164","2.0.0","242943","62e02660c3ef175825ab7655","1","25","641","","","","","","","","","<img src= rock_img/I_Obsidian_14.jpg style=""width:8cm; height:7.64cm;""><p style='font-size: 30px; color: green;'><strong>Correct!</strong></p><p style='font-size: 30px;'><strong>This rock is obsidian</strong></p>","0","corr_feedback","1","train","30","","","","","","","",""
"","","","","","","","","","","","html-button-response","165","2.0.0","245275","62e02660c3ef175825ab7655","1","25","2331","","","","","","","","","<img src= ""rock_img/I_Andesite_01.jpg"" style=""width:8cm; height:5.87cm;""><p>What type of rock is this?</p>","2","class_response","1","train","31","Diorite","Andesite","01","false","3","1","",""
"","","","","","","","","","","","html-button-response","166","2.0.0","245887","62e02660c3ef175825ab7655","1","25","610","","","","","","","","","<img src= rock_img/I_Andesite_01.jpg style=""width:8cm; height:5.87cm;""><p style='font-size: 30px; color: red;'><strong>Incorrect!</strong></p><p style='font-size: 30px;'><strong>This rock is andesite</strong></p>","0","corr_feedback","1","train","31","","","","","","","",""
"","","","","","","","","","","","html-button-response","167","2.0.0","248889","62e02660c3ef175825ab7655","1","25","3002","","","","","","","","","<img src= ""rock_img/I_Pegmatite_06.jpg"" style=""width:8cm; height:5.17cm;""><p>What type of rock is this?</p>","5","class_response","1","train","32","Pegmatite","Pegmatite","06","true","6","6","",""
"","","","","","","","","","","","html-button-response","168","2.0.0","249851","62e02660c3ef175825ab7655","1","25","961","","","","","","","","","<img src= rock_img/I_Pegmatite_06.jpg style=""width:8cm; height:5.17cm;""><p style='font-size: 30px; color: green;'><strong>Correct!</strong></p><p style='font-size: 30px;'><strong>This rock is pegmatite</strong></p>","0","corr_feedback","1","train","32","","","","","","","",""
"","","","","","","","","","","","html-button-response","169","2.0.0","251013","62e02660c3ef175825ab7655","1","25","1160","","","","","","","","","<img src= ""rock_img/I_Andesite_11.jpg"" style=""width:8cm; height:4.92cm;""><p>What type of rock is this?</p>","5","class_response","1","train","33","Pegmatite","Andesite","11","false","6","1","",""
"","","","","","","","","","","","html-button-response","170","2.0.0","251575","62e02660c3ef175825ab7655","1","25","562","","","","","","","","","<img src= rock_img/I_Andesite_11.jpg style=""width:8cm; height:4.92cm;""><p style='font-size: 30px; color: red;'><strong>Incorrect!</strong></p><p style='font-size: 30px;'><strong>This rock is andesite</strong></p>","0","corr_feedback","1","train","33","","","","","","","",""
"","","","","","","","","","","","html-button-response","171","2.0.0","252638","62e02660c3ef175825ab7655","1","25","1061","","","","","","","","","<img src= ""rock_img/I_Basalt_01.jpg"" style=""width:8cm; height:7.880000000000001cm;""><p>What type of rock is this?</p>","1","class_response","1","train","34","Basalt","Basalt","01","true","2","2","",""
"","","","","","","","","","","","html-button-response","172","2.0.0","253180","62e02660c3ef175825ab7655","1","25","541","","","","","","","","","<img src= rock_img/I_Basalt_01.jpg style=""width:8cm; height:7.880000000000001cm;""><p style='font-size: 30px; color: green;'><strong>Correct!</strong></p><p style='font-size: 30px;'><strong>This rock is basalt</strong></p>","0","corr_feedback","1","train","34","","","","","","","",""
"","","","","","","","","","","","html-button-response","173","2.0.0","254522","62e02660c3ef175825ab7655","1","25","1341","","","","","","","","","<img src= ""rock_img/I_Gabbro_09.jpg"" style=""width:8cm; height:7.279999999999999cm;""><p>What type of rock is this?</p>","1","class_response","1","train","35","Basalt","Gabbro","09","false","2","4","",""
"","","","","","","","","","","","html-button-response","174","2.0.0","255083","62e02660c3ef175825ab7655","1","25","560","","","","","","","","","<img src= rock_img/I_Gabbro_09.jpg style=""width:8cm; height:7.279999999999999cm;""><p style='font-size: 30px; color: red;'><strong>Incorrect!</strong></p><p style='font-size: 30px;'><strong>This rock is gabbro</strong></p>","0","corr_feedback","1","train","35","","","","","","","",""
"","","","","","","","","","","","html-button-response","175","2.0.0","256625","62e02660c3ef175825ab7655","1","25","1541","","","","","","","","","<img src= ""rock_img/I_Pegmatite_10.jpg"" style=""width:8cm; height:4.16cm;""><p>What type of rock is this?</p>","5","class_response","1","train","36","Pegmatite","Pegmatite","10","true","6","6","",""
"","","","","","","","","","","","html-button-response","176","2.0.0","257277","62e02660c3ef175825ab7655","1","25","651","","","","","","","","","<img src= rock_img/I_Pegmatite_10.jpg style=""width:8cm; height:4.16cm;""><p style='font-size: 30px; color: green;'><strong>Correct!</strong></p><p style='font-size: 30px;'><strong>This rock is pegmatite</strong></p>","0","corr_feedback","1","train","36","","","","","","","",""
"","","","","","","","","","","","html-button-response","177","2.0.0","258810","62e02660c3ef175825ab7655","1","25","1531","","","","","","","","","<img src= ""rock_img/I_Andesite_09.jpg"" style=""width:8cm; height:6cm;""><p>What type of rock is this?</p>","0","class_response","1","train","37","Andesite","Andesite","09","true","1","1","",""
"","","","","","","","","","","","html-button-response","178","2.0.0","259422","62e02660c3ef175825ab7655","1","25","611","","","","","","","","","<img src= rock_img/I_Andesite_09.jpg style=""width:8cm; height:6cm;""><p style='font-size: 30px; color: green;'><strong>Correct!</strong></p><p style='font-size: 30px;'><strong>This rock is andesite</strong></p>","0","corr_feedback","1","train","37","","","","","","","",""
"","","","","","","","","","","","html-button-response","179","2.0.0","260783","62e02660c3ef175825ab7655","1","25","1360","","","","","","","","","<img src= ""rock_img/I_Diorite_07.jpg"" style=""width:8cm; height:5.239999999999999cm;""><p>What type of rock is this?</p>","0","class_response","1","train","38","Andesite","Diorite","07","false","1","3","",""
"","","","","","","","","","","","html-button-response","180","2.0.0","261375","62e02660c3ef175825ab7655","1","25","591","","","","","","","","","<img src= rock_img/I_Diorite_07.jpg style=""width:8cm; height:5.239999999999999cm;""><p style='font-size: 30px; color: red;'><strong>Incorrect!</strong></p><p style='font-size: 30px;'><strong>This rock is diorite</strong></p>","0","corr_feedback","1","train","38","","","","","","","",""
"","","","","","","","","","","","html-button-response","181","2.0.0","262937","62e02660c3ef175825ab7655","1","25","1562","","","","","","","","","<img src= ""rock_img/I_Basalt_09.jpg"" style=""width:8cm; height:6.2cm;""><p>What type of rock is this?</p>","1","class_response","1","train","39","Basalt","Basalt","09","true","2","2","",""
"","","","","","","","","","","","html-button-response","182","2.0.0","263499","62e02660c3ef175825ab7655","1","25","561","","","","","","","","","<img src= rock_img/I_Basalt_09.jpg style=""width:8cm; height:6.2cm;""><p style='font-size: 30px; color: green;'><strong>Correct!</strong></p><p style='font-size: 30px;'><strong>This rock is basalt</strong></p>","0","corr_feedback","1","train","39","","","","","","","",""
"","","","","","","","","","","","html-button-response","183","2.0.0","265781","62e02660c3ef175825ab7655","1","25","2281","","","","","","","","","<img src= ""rock_img/I_Peridotite_12.jpg"" style=""width:8cm; height:4.54cm;""><p>What type of rock is this?</p>","3","class_response","1","train","40","Gabbro","Peridotite","12","false","4","7","",""
"","","","","","","","","","","","html-button-response","184","2.0.0","266444","62e02660c3ef175825ab7655","1","25","662","","","","","","","","","<img src= rock_img/I_Peridotite_12.jpg style=""width:8cm; height:4.54cm;""><p style='font-size: 30px; color: red;'><strong>Incorrect!</strong></p><p style='font-size: 30px;'><strong>This rock is peridotite</strong></p>","0","corr_feedback","1","train","40","","","","","","","",""
"","","","","","","","","","","","html-button-response","185","2.0.0","267845","62e02660c3ef175825ab7655","1","25","1400","","","","","","","","","<img src= ""rock_img/I_Pegmatite_15.jpg"" style=""width:8cm; height:6cm;""><p>What type of rock is this?</p>","6","class_response","1","train","41","Peridotite","Pegmatite","15","false","7","6","",""
"","","","","","","","","","","","html-button-response","186","2.0.0","268707","62e02660c3ef175825ab7655","1","25","862","","","","","","","","","<img src= rock_img/I_Pegmatite_15.jpg style=""width:8cm; height:6cm;""><p style='font-size: 30px; color: red;'><strong>Incorrect!</strong></p><p style='font-size: 30px;'><strong>This rock is pegmatite</strong></p>","0","corr_feedback","1","train","41","","","","","","","",""
"","","","","","","","","","","","html-button-response","187","2.0.0","269799","62e02660c3ef175825ab7655","1","25","1091","","","","","","","","","<img src= ""rock_img/I_Pumice_05.jpg"" style=""width:8cm; height:7.25cm;""><p>What type of rock is this?</p>","7","class_response","1","train","42","Pumice","Pumice","05","true","8","8","",""
"","","","","","","","","","","","html-button-response","188","2.0.0","270400","62e02660c3ef175825ab7655","1","25","600","","","","","","","","","<img src= rock_img/I_Pumice_05.jpg style=""width:8cm; height:7.25cm;""><p style='font-size: 30px; color: green;'><strong>Correct!</strong></p><p style='font-size: 30px;'><strong>This rock is pumice</strong></p>","0","corr_feedback","1","train","42","","","","","","","",""
"","","","","","","","","","","","html-button-response","189","2.0.0","271753","62e02660c3ef175825ab7655","1","25","1352","","","","","","","","","<img src= ""rock_img/I_Pegmatite_11.jpg"" style=""width:8cm; height:8.14cm;""><p>What type of rock is this?</p>","4","class_response","1","train","43","Obsidian","Pegmatite","11","false","5","6","",""
"","","","","","","","","","","","html-button-response","190","2.0.0","272465","62e02660c3ef175825ab7655","1","25","712","","","","","","","","","<img src= rock_img/I_Pegmatite_11.jpg style=""width:8cm; height:8.14cm;""><p style='font-size: 30px; color: red;'><strong>Incorrect!</strong></p><p style='font-size: 30px;'><strong>This rock is pegmatite</strong></p>","0","corr_feedback","1","train","43","","","","","","","",""
"","","","","","","","","","","","html-button-response","191","2.0.0","273587","62e02660c3ef175825ab7655","1","25","1121","","","","","","","","","<img src= ""rock_img/I_Obsidian_07.jpg"" style=""width:8cm; height:4.76cm;""><p>What type of rock is this?</p>","4","class_response","1","train","44","Obsidian","Obsidian","07","true","5","5","",""
"","","","","","","","","","","","html-button-response","192","2.0.0","274180","62e02660c3ef175825ab7655","1","25","592","","","","","","","","","<img src= rock_img/I_Obsidian_07.jpg style=""width:8cm; height:4.76cm;""><p style='font-size: 30px; color: green;'><strong>Correct!</strong></p><p style='font-size: 30px;'><strong>This rock is obsidian</strong></p>","0","corr_feedback","1","train","44","","","","","","","",""
"","","","","","","","","","","","html-button-response","193","2.0.0","275161","62e02660c3ef175825ab7655","1","25","980","","","","","","","","","<img src= ""rock_img/I_Pumice_08.jpg"" style=""width:8cm; height:6.67cm;""><p>What type of rock is this?</p>","7","class_response","1","train","45","Pumice","Pumice","08","true","8","8","",""
"","","","","","","","","","","","html-button-response","194","2.0.0","275693","62e02660c3ef175825ab7655","1","25","531","","","","","","","","","<img src= rock_img/I_Pumice_08.jpg style=""width:8cm; height:6.67cm;""><p style='font-size: 30px; color: green;'><strong>Correct!</strong></p><p style='font-size: 30px;'><strong>This rock is pumice</strong></p>","0","corr_feedback","1","train","45","","","","","","","",""
"","","","","","","","","","","","html-button-response","195","2.0.0","276595","62e02660c3ef175825ab7655","1","25","901","","","","","","","","","<img src= ""rock_img/I_Obsidian_11.jpg"" style=""width:8cm; height:6.05cm;""><p>What type of rock is this?</p>","4","class_response","1","train","46","Obsidian","Obsidian","11","true","5","5","",""
"","","","","","","","","","","","html-button-response","196","2.0.0","277147","62e02660c3ef175825ab7655","1","25","552","","","","","","","","","<img src= rock_img/I_Obsidian_11.jpg style=""width:8cm; height:6.05cm;""><p style='font-size: 30px; color: green;'><strong>Correct!</strong></p><p style='font-size: 30px;'><strong>This rock is obsidian</strong></p>","0","corr_feedback","1","train","46","","","","","","","",""
"","","","","","","","","","","","html-button-response","197","2.0.0","278089","62e02660c3ef175825ab7655","1","25","941","","","","","","","","","<img src= ""rock_img/I_Basalt_05.jpg"" style=""width:8cm; height:8.18cm;""><p>What type of rock is this?</p>","1","class_response","1","train","47","Basalt","Basalt","05","true","2","2","",""
"","","","","","","","","","","","html-button-response","198","2.0.0","278581","62e02660c3ef175825ab7655","1","25","491","","","","","","","","","<img src= rock_img/I_Basalt_05.jpg style=""width:8cm; height:8.18cm;""><p style='font-size: 30px; color: green;'><strong>Correct!</strong></p><p style='font-size: 30px;'><strong>This rock is basalt</strong></p>","0","corr_feedback","1","train","47","","","","","","","",""
"","","","","","","","","","","","html-button-response","199","2.0.0","280294","62e02660c3ef175825ab7655","1","25","1712","","","","","","","","","<img src= ""rock_img/I_Gabbro_12.jpg"" style=""width:8cm; height:7.800000000000001cm;""><p>What type of rock is this?</p>","0","class_response","1","train","48","Andesite","Gabbro","12","false","1","4","",""
"","","","","","","","","","","","html-button-response","200","2.0.0","280965","62e02660c3ef175825ab7655","1","25","671","","","","","","","","","<img src= rock_img/I_Gabbro_12.jpg style=""width:8cm; height:7.800000000000001cm;""><p style='font-size: 30px; color: red;'><strong>Incorrect!</strong></p><p style='font-size: 30px;'><strong>This rock is gabbro</strong></p>","0","corr_feedback","1","train","48","","","","","","","",""
"","","","","","","","","","","","instructions","203","2.0.0","299911","62e02660c3ef175825ab7655","1","25","18945","","","","","","","","[{""page_index"":0,""viewing_time"":1872},{""page_index"":1,""viewing_time"":17073}]","","","","","","","","","","","","","",""
"","","","","","","","","","","","html-button-response","204","2.0.0","307934","62e02660c3ef175825ab7655","1","25","8021","","","","","","","","","","0","start_test","","","","","","","","","","",""
"","","","","","","","","","","","html-button-response","205","2.0.0","309005","62e02660c3ef175825ab7655","1","25","1070","","","","","","","","","<img src= ""rock_img/I_Obsidian_02.jpg"" style=""width:8cm; height:7.51cm;""><p>What type of rock is this?</p>","4","class_response","1","test","1","Obsidian","Obsidian","02","true","5","5","",""
"","","","","","","","","","","","html-keyboard-response","206","2.0.0","309510","62e02660c3ef175825ab7655","1","25","null","","","","","","","","","<p style='font-size: 30px;'><strong>Okay</strong></p>","null","neutral_feedback","1","test","1","","","","","","","",""
"","","","","","","","","","","","html-button-response","207","2.0.0","311847","62e02660c3ef175825ab7655","1","25","2336","","","","","","","","","<img src= ""rock_img/I_Pegmatite_07.jpg"" style=""width:8cm; height:6.7cm;""><p>What type of rock is this?</p>","5","class_response","1","test","2","Pegmatite","Pegmatite","07","true","6","6","",""
"","","","","","","","","","","","html-keyboard-response","208","2.0.0","312351","62e02660c3ef175825ab7655","1","25","null","","","","","","","","","<p style='font-size: 30px;'><strong>Okay</strong></p>","null","neutral_feedback","1","test","2","","","","","","","",""
"","","","","","","","","","","","html-button-response","209","2.0.0","313239","62e02660c3ef175825ab7655","1","25","887","","","","","","","","","<img src= ""rock_img/I_Obsidian_16.jpg"" style=""width:8cm; height:9.3cm;""><p>What type of rock is this?</p>","4","class_response","1","test","3","Obsidian","Obsidian","16","true","5","5","",""
"","","","","","","","","","","","html-keyboard-response","210","2.0.0","313749","62e02660c3ef175825ab7655","1","25","null","","","","","","","","","<p style='font-size: 30px;'><strong>Okay</strong></p>","null","neutral_feedback","1","test","3","","","","","","","",""
"","","","","","","","","","","","html-button-response","211","2.0.0","315501","62e02660c3ef175825ab7655","1","25","1751","","","","","","","","","<img src= ""rock_img/I_Peridotite_14.jpg"" style=""width:8cm; height:5.3cm;""><p>What type of rock is this?</p>","0","class_response","1","test","4","Andesite","Peridotite","14","false","1","7","",""
"","","","","","","","","","","","html-keyboard-response","212","2.0.0","316003","62e02660c3ef175825ab7655","1","25","null","","","","","","","","","<p style='font-size: 30px;'><strong>Okay</strong></p>","null","neutral_feedback","1","test","4","","","","","","","",""
"","","","","","","","","","","","html-button-response","213","2.0.0","317233","62e02660c3ef175825ab7655","1","25","1229","","","","","","","","","<img src= ""rock_img/I_Diorite_15.jpg"" style=""width:8cm; height:5.54cm;""><p>What type of rock is this?</p>","0","class_response","1","test","5","Andesite","Diorite","15","false","1","3","",""
"","","","","","","","","","","","html-keyboard-response","214","2.0.0","317734","62e02660c3ef175825ab7655","1","25","null","","","","","","","","","<p style='font-size: 30px;'><strong>Okay</strong></p>","null","neutral_feedback","1","test","5","","","","","","","",""
"","","","","","","","","","","","html-button-response","215","2.0.0","319015","62e02660c3ef175825ab7655","1","25","1280","","","","","","","","","<img src= ""rock_img/I_Basalt_12.jpg"" style=""width:8cm; height:6.010000000000001cm;""><p>What type of rock is this?</p>","7","class_response","1","test","6","Pumice","Basalt","12","false","8","2","",""
"","","","","","","","","","","","html-keyboard-response","216","2.0.0","319525","62e02660c3ef175825ab7655","1","25","null","","","","","","","","","<p style='font-size: 30px;'><strong>Okay</strong></p>","null","neutral_feedback","1","test","6","","","","","","","",""
"","","","","","","","","","","","html-button-response","217","2.0.0","324909","62e02660c3ef175825ab7655","1","25","5383","","","","","","","","","<img src= ""rock_img/I_Basalt_08.jpg"" style=""width:8cm; height:10.44cm;""><p>What type of rock is this?</p>","1","class_response","1","test","7","Basalt","Basalt","08","true","2","2","",""
"","","","","","","","","","","","html-keyboard-response","218","2.0.0","325410","62e02660c3ef175825ab7655","1","25","null","","","","","","","","","<p style='font-size: 30px;'><strong>Okay</strong></p>","null","neutral_feedback","1","test","7","","","","","","","",""
"","","","","","","","","","","","html-button-response","219","2.0.0","326481","62e02660c3ef175825ab7655","1","25","1069","","","","","","","","","<img src= ""rock_img/I_Diorite_10.jpg"" style=""width:8cm; height:5.949999999999999cm;""><p>What type of rock is this?</p>","0","class_response","1","test","8","Andesite","Diorite","10","false","1","3","",""
"","","","","","","","","","","","html-keyboard-response","220","2.0.0","326986","62e02660c3ef175825ab7655","1","25","null","","","","","","","","","<p style='font-size: 30px;'><strong>Okay</strong></p>","null","neutral_feedback","1","test","8","","","","","","","",""
"","","","","","","","","","","","html-button-response","221","2.0.0","327953","62e02660c3ef175825ab7655","1","25","966","","","","","","","","","<img src= ""rock_img/I_Diorite_06.jpg"" style=""width:8cm; height:6.03cm;""><p>What type of rock is this?</p>","3","class_response","1","test","9","Gabbro","Diorite","06","false","4","3","",""
"","","","","","","","","","","","html-keyboard-response","222","2.0.0","328455","62e02660c3ef175825ab7655","1","25","null","","","","","","","","","<p style='font-size: 30px;'><strong>Okay</strong></p>","null","neutral_feedback","1","test","9","","","","","","","",""
"","","","","","","","","","","","html-button-response","223","2.0.0","329364","62e02660c3ef175825ab7655","1","25","908","","","","","","","","","<img src= ""rock_img/I_Pumice_04.jpg"" style=""width:8cm; height:6.819999999999999cm;""><p>What type of rock is this?</p>","7","class_response","1","test","10","Pumice","Pumice","04","true","8","8","",""
"","","","","","","","","","","","html-keyboard-response","224","2.0.0","329880","62e02660c3ef175825ab7655","1","25","null","","","","","","","","","<p style='font-size: 30px;'><strong>Okay</strong></p>","null","neutral_feedback","1","test","10","","","","","","","",""
"","","","","","","","","","","","html-button-response","225","2.0.0","331977","62e02660c3ef175825ab7655","1","25","2097","","","","","","","","","<img src= ""rock_img/I_Gabbro_08.jpg"" style=""width:8cm; height:5.15cm;""><p>What type of rock is this?</p>","2","class_response","1","test","11","Diorite","Gabbro","08","false","3","4","",""
"","","","","","","","","","","","html-keyboard-response","226","2.0.0","332478","62e02660c3ef175825ab7655","1","25","null","","","","","","","","","<p style='font-size: 30px;'><strong>Okay</strong></p>","null","neutral_feedback","1","test","11","","","","","","","",""
"","","","","","","","","","","","html-button-response","227","2.0.0","334048","62e02660c3ef175825ab7655","1","25","1569","","","","","","","","","<img src= ""rock_img/I_Pegmatite_12.jpg"" style=""width:8cm; height:5.7cm;""><p>What type of rock is this?</p>","6","class_response","1","test","12","Peridotite","Pegmatite","12","false","7","6","",""
"","","","","","","","","","","","html-keyboard-response","228","2.0.0","334555","62e02660c3ef175825ab7655","1","25","null","","","","","","","","","<p style='font-size: 30px;'><strong>Okay</strong></p>","null","neutral_feedback","1","test","12","","","","","","","",""
"","","","","","","","","","","","html-button-response","229","2.0.0","336721","62e02660c3ef175825ab7655","1","25","2165","","","","","","","","","<img src= ""rock_img/I_Diorite_08.jpg"" style=""width:8cm; height:6.37cm;""><p>What type of rock is this?</p>","3","class_response","1","test","13","Gabbro","Diorite","08","false","4","3","",""
"","","","","","","","","","","","html-keyboard-response","230","2.0.0","337236","62e02660c3ef175825ab7655","1","25","null","","","","","","","","","<p style='font-size: 30px;'><strong>Okay</strong></p>","null","neutral_feedback","1","test","13","","","","","","","",""
"","","","","","","","","","","","html-button-response","231","2.0.0","338372","62e02660c3ef175825ab7655","1","25","1136","","","","","","","","","<img src= ""rock_img/I_Andesite_05.jpg"" style=""width:8cm; height:4.12cm;""><p>What type of rock is this?</p>","3","class_response","1","test","14","Gabbro","Andesite","05","false","4","1","",""
"","","","","","","","","","","","html-keyboard-response","232","2.0.0","338873","62e02660c3ef175825ab7655","1","25","null","","","","","","","","","<p style='font-size: 30px;'><strong>Okay</strong></p>","null","neutral_feedback","1","test","14","","","","","","","",""
"","","","","","","","","","","","html-button-response","233","2.0.0","339775","62e02660c3ef175825ab7655","1","25","900","","","","","","","","","<img src= ""rock_img/I_Obsidian_08.jpg"" style=""width:8cm; height:7.39cm;""><p>What type of rock is this?</p>","4","class_response","1","test","15","Obsidian","Obsidian","08","true","5","5","",""
"","","","","","","","","","","","html-keyboard-response","234","2.0.0","340277","62e02660c3ef175825ab7655","1","25","null","","","","","","","","","<p style='font-size: 30px;'><strong>Okay</strong></p>","null","neutral_feedback","1","test","15","","","","","","","",""
"","","","","","","","","","","","html-button-response","235","2.0.0","342897","62e02660c3ef175825ab7655","1","25","2619","","","","","","","","","<img src= ""rock_img/I_Andesite_14.jpg"" style=""width:8cm; height:5.449999999999999cm;""><p>What type of rock is this?</p>","5","class_response","1","test","16","Pegmatite","Andesite","14","false","6","1","",""
"","","","","","","","","","","","html-keyboard-response","236","2.0.0","343405","62e02660c3ef175825ab7655","1","25","null","","","","","","","","","<p style='font-size: 30px;'><strong>Okay</strong></p>","null","neutral_feedback","1","test","16","","","","","","","",""
"","","","","","","","","","","","html-button-response","237","2.0.0","344510","62e02660c3ef175825ab7655","1","25","1104","","","","","","","","","<img src= ""rock_img/I_Diorite_13.jpg"" style=""width:8cm; height:6.29cm;""><p>What type of rock is this?</p>","5","class_response","1","test","17","Pegmatite","Diorite","13","false","6","3","",""
"","","","","","","","","","","","html-keyboard-response","238","2.0.0","345013","62e02660c3ef175825ab7655","1","25","null","","","","","","","","","<p style='font-size: 30px;'><strong>Okay</strong></p>","null","neutral_feedback","1","test","17","","","","","","","",""
"","","","","","","","","","","","html-button-response","239","2.0.0","345930","62e02660c3ef175825ab7655","1","25","916","","","","","","","","","<img src= ""rock_img/I_Gabbro_16.jpg"" style=""width:8cm; height:6.44cm;""><p>What type of rock is this?</p>","1","class_response","1","test","18","Basalt","Gabbro","16","false","2","4","",""
"","","","","","","","","","","","html-keyboard-response","240","2.0.0","346437","62e02660c3ef175825ab7655","1","25","null","","","","","","","","","<p style='font-size: 30px;'><strong>Okay</strong></p>","null","neutral_feedback","1","test","18","","","","","","","",""
"","","","","","","","","","","","html-button-response","241","2.0.0","348652","62e02660c3ef175825ab7655","1","25","2214","","","","","","","","","<img src= ""rock_img/I_Pegmatite_09.jpg"" style=""width:8cm; height:4.03cm;""><p>What type of rock is this?</p>","6","class_response","1","test","19","Peridotite","Pegmatite","09","false","7","6","",""
"","","","","","","","","","","","html-keyboard-response","242","2.0.0","349153","62e02660c3ef175825ab7655","1","25","null","","","","","","","","","<p style='font-size: 30px;'><strong>Okay</strong></p>","null","neutral_feedback","1","test","19","","","","","","","",""
"","","","","","","","","","","","html-button-response","243","2.0.0","351644","62e02660c3ef175825ab7655","1","25","2490","","","","","","","","","<img src= ""rock_img/I_Andesite_06.jpg"" style=""width:8cm; height:6.840000000000001cm;""><p>What type of rock is this?</p>","2","class_response","1","test","20","Diorite","Andesite","06","false","3","1","",""
"","","","","","","","","","","","html-keyboard-response","244","2.0.0","352146","62e02660c3ef175825ab7655","1","25","null","","","","","","","","","<p style='font-size: 30px;'><strong>Okay</strong></p>","null","neutral_feedback","1","test","20","","","","","","","",""
"","","","","","","","","","","","html-button-response","245","2.0.0","353296","62e02660c3ef175825ab7655","1","25","1150","","","","","","","","","<img src= ""rock_img/I_Pegmatite_16.jpg"" style=""width:8cm; height:5.8cm;""><p>What type of rock is this?</p>","6","class_response","1","test","21","Peridotite","Pegmatite","16","false","7","6","",""
"","","","","","","","","","","","html-keyboard-response","246","2.0.0","353808","62e02660c3ef175825ab7655","1","25","null","","","","","","","","","<p style='font-size: 30px;'><strong>Okay</strong></p>","null","neutral_feedback","1","test","21","","","","","","","",""
"","","","","","","","","","","","html-button-response","247","2.0.0","355090","62e02660c3ef175825ab7655","1","25","1282","","","","","","","","","<img src= ""rock_img/I_Pumice_03.jpg"" style=""width:8cm; height:6.64cm;""><p>What type of rock is this?</p>","7","class_response","1","test","22","Pumice","Pumice","03","true","8","8","",""
"","","","","","","","","","","","html-keyboard-response","248","2.0.0","355591","62e02660c3ef175825ab7655","1","25","null","","","","","","","","","<p style='font-size: 30px;'><strong>Okay</strong></p>","null","neutral_feedback","1","test","22","","","","","","","",""
"","","","","","","","","","","","html-button-response","249","2.0.0","357752","62e02660c3ef175825ab7655","1","25","2161","","","","","","","","","<img src= ""rock_img/I_Andesite_03.jpg"" style=""width:8cm; height:5.73cm;""><p>What type of rock is this?</p>","0","class_response","1","test","23","Andesite","Andesite","03","true","1","1","",""
"","","","","","","","","","","","html-keyboard-response","250","2.0.0","358255","62e02660c3ef175825ab7655","1","25","null","","","","","","","","","<p style='font-size: 30px;'><strong>Okay</strong></p>","null","neutral_feedback","1","test","23","","","","","","","",""
"","","","","","","","","","","","html-button-response","251","2.0.0","359635","62e02660c3ef175825ab7655","1","25","1379","","","","","","","","","<img src= ""rock_img/I_Pumice_02.jpg"" style=""width:8cm; height:7.3999999999999995cm;""><p>What type of rock is this?</p>","7","class_response","1","test","24","Pumice","Pumice","02","true","8","8","",""
"","","","","","","","","","","","html-keyboard-response","252","2.0.0","360136","62e02660c3ef175825ab7655","1","25","null","","","","","","","","","<p style='font-size: 30px;'><strong>Okay</strong></p>","null","neutral_feedback","1","test","24","","","","","","","",""
"","","","","","","","","","","","html-button-response","253","2.0.0","360857","62e02660c3ef175825ab7655","1","25","720","","","","","","","","","<img src= ""rock_img/I_Obsidian_10.jpg"" style=""width:8cm; height:6.260000000000001cm;""><p>What type of rock is this?</p>","4","class_response","1","test","25","Obsidian","Obsidian","10","true","5","5","",""
"","","","","","","","","","","","html-keyboard-response","254","2.0.0","361371","62e02660c3ef175825ab7655","1","25","null","","","","","","","","","<p style='font-size: 30px;'><strong>Okay</strong></p>","null","neutral_feedback","1","test","25","","","","","","","",""
"","","","","","","","","","","","html-button-response","255","2.0.0","362608","62e02660c3ef175825ab7655","1","25","1237","","","","","","","","","<img src= ""rock_img/I_Pumice_16.jpg"" style=""width:8cm; height:6.79cm;""><p>What type of rock is this?</p>","7","class_response","1","test","26","Pumice","Pumice","16","true","8","8","",""
"","","","","","","","","","","","html-keyboard-response","256","2.0.0","363122","62e02660c3ef175825ab7655","1","25","null","","","","","","","","","<p style='font-size: 30px;'><strong>Okay</strong></p>","null","neutral_feedback","1","test","26","","","","","","","",""
"","","","","","","","","","","","html-button-response","257","2.0.0","368601","62e02660c3ef175825ab7655","1","25","5477","","","","","","","","","<img src= ""rock_img/I_Andesite_04.jpg"" style=""width:8cm; height:5.96cm;""><p>What type of rock is this?</p>","0","class_response","1","test","27","Andesite","Andesite","04","true","1","1","",""
"","","","","","","","","","","","html-keyboard-response","258","2.0.0","369110","62e02660c3ef175825ab7655","1","25","null","","","","","","","","","<p style='font-size: 30px;'><strong>Okay</strong></p>","null","neutral_feedback","1","test","27","","","","","","","",""
"","","","","","","","","","","","html-button-response","259","2.0.0","370132","62e02660c3ef175825ab7655","1","25","1022","","","","","","","","","<img src= ""rock_img/I_Basalt_11.jpg"" style=""width:8cm; height:5.359999999999999cm;""><p>What type of rock is this?</p>","7","class_response","1","test","28","Pumice","Basalt","11","false","8","2","",""
"","","","","","","","","","","","html-keyboard-response","260","2.0.0","370633","62e02660c3ef175825ab7655","1","25","null","","","","","","","","","<p style='font-size: 30px;'><strong>Okay</strong></p>","null","neutral_feedback","1","test","28","","","","","","","",""
"","","","","","","","","","","","html-button-response","261","2.0.0","371684","62e02660c3ef175825ab7655","1","25","1050","","","","","","","","","<img src= ""rock_img/I_Peridotite_16.jpg"" style=""width:8cm; height:6.989999999999999cm;""><p>What type of rock is this?</p>","3","class_response","1","test","29","Gabbro","Peridotite","16","false","4","7","",""
"","","","","","","","","","","","html-keyboard-response","262","2.0.0","372185","62e02660c3ef175825ab7655","1","25","null","","","","","","","","","<p style='font-size: 30px;'><strong>Okay</strong></p>","null","neutral_feedback","1","test","29","","","","","","","",""
"","","","","","","","","","","","html-button-response","263","2.0.0","373536","62e02660c3ef175825ab7655","1","25","1350","","","","","","","","","<img src= ""rock_img/I_Pegmatite_03.jpg"" style=""width:8cm; height:5.239999999999999cm;""><p>What type of rock is this?</p>","6","class_response","1","test","30","Peridotite","Pegmatite","03","false","7","6","",""
"","","","","","","","","","","","html-keyboard-response","264","2.0.0","374051","62e02660c3ef175825ab7655","1","25","null","","","","","","","","","<p style='font-size: 30px;'><strong>Okay</strong></p>","null","neutral_feedback","1","test","30","","","","","","","",""
"","","","","","","","","","","","html-button-response","265","2.0.0","375209","62e02660c3ef175825ab7655","1","25","1157","","","","","","","","","<img src= ""rock_img/I_Peridotite_04.jpg"" style=""width:8cm; height:6.680000000000001cm;""><p>What type of rock is this?</p>","6","class_response","1","test","31","Peridotite","Peridotite","04","true","7","7","",""
"","","","","","","","","","","","html-keyboard-response","266","2.0.0","375712","62e02660c3ef175825ab7655","1","25","null","","","","","","","","","<p style='font-size: 30px;'><strong>Okay</strong></p>","null","neutral_feedback","1","test","31","","","","","","","",""
"","","","","","","","","","","","html-button-response","267","2.0.0","377050","62e02660c3ef175825ab7655","1","25","1338","","","","","","","","","<img src= ""rock_img/I_Gabbro_03.jpg"" style=""width:8cm; height:8.52cm;""><p>What type of rock is this?</p>","2","class_response","1","test","32","Diorite","Gabbro","03","false","3","4","",""
"","","","","","","","","","","","html-keyboard-response","268","2.0.0","377555","62e02660c3ef175825ab7655","1","25","null","","","","","","","","","<p style='font-size: 30px;'><strong>Okay</strong></p>","null","neutral_feedback","1","test","32","","","","","","","",""
"","","","","","","","","","","","html-button-response","269","2.0.0","379243","62e02660c3ef175825ab7655","1","25","1686","","","","","","","","","<img src= ""rock_img/I_Gabbro_10.jpg"" style=""width:8cm; height:5.680000000000001cm;""><p>What type of rock is this?</p>","1","class_response","1","test","33","Basalt","Gabbro","10","false","2","4","",""
"","","","","","","","","","","","html-keyboard-response","270","2.0.0","379757","62e02660c3ef175825ab7655","1","25","null","","","","","","","","","<p style='font-size: 30px;'><strong>Okay</strong></p>","null","neutral_feedback","1","test","33","","","","","","","",""
"","","","","","","","","","","","html-button-response","271","2.0.0","380854","62e02660c3ef175825ab7655","1","25","1096","","","","","","","","","<img src= ""rock_img/I_Andesite_16.jpg"" style=""width:8cm; height:6.010000000000001cm;""><p>What type of rock is this?</p>","0","class_response","1","test","34","Andesite","Andesite","16","true","1","1","",""
"","","","","","","","","","","","html-keyboard-response","272","2.0.0","381359","62e02660c3ef175825ab7655","1","25","null","","","","","","","","","<p style='font-size: 30px;'><strong>Okay</strong></p>","null","neutral_feedback","1","test","34","","","","","","","",""
"","","","","","","","","","","","html-button-response","273","2.0.0","382607","62e02660c3ef175825ab7655","1","25","1246","","","","","","","","","<img src= ""rock_img/I_Pegmatite_13.jpg"" style=""width:8cm; height:4.95cm;""><p>What type of rock is this?</p>","6","class_response","1","test","35","Peridotite","Pegmatite","13","false","7","6","",""
"","","","","","","","","","","","html-keyboard-response","274","2.0.0","383110","62e02660c3ef175825ab7655","1","25","null","","","","","","","","","<p style='font-size: 30px;'><strong>Okay</strong></p>","null","neutral_feedback","1","test","35","","","","","","","",""
"","","","","","","","","","","","html-button-response","275","2.0.0","384588","62e02660c3ef175825ab7655","1","25","1478","","","","","","","","","<img src= ""rock_img/I_Peridotite_05.jpg"" style=""width:8cm; height:7.1499999999999995cm;""><p>What type of rock is this?</p>","3","class_response","1","test","36","Gabbro","Peridotite","05","false","4","7","",""
"","","","","","","","","","","","html-keyboard-response","276","2.0.0","385100","62e02660c3ef175825ab7655","1","25","null","","","","","","","","","<p style='font-size: 30px;'><strong>Okay</strong></p>","null","neutral_feedback","1","test","36","","","","","","","",""
"","","","","","","","","","","","html-button-response","277","2.0.0","386110","62e02660c3ef175825ab7655","1","25","1009","","","","","","","","","<img src= ""rock_img/I_Obsidian_06.jpg"" style=""width:8cm; height:6.8cm;""><p>What type of rock is this?</p>","4","class_response","1","test","37","Obsidian","Obsidian","06","true","5","5","",""
"","","","","","","","","","","","html-keyboard-response","278","2.0.0","386621","62e02660c3ef175825ab7655","1","25","null","","","","","","","","","<p style='font-size: 30px;'><strong>Okay</strong></p>","null","neutral_feedback","1","test","37","","","","","","","",""
"","","","","","","","","","","","html-button-response","279","2.0.0","388342","62e02660c3ef175825ab7655","1","25","1721","","","","","","","","","<img src= ""rock_img/I_Diorite_02.jpg"" style=""width:8cm; height:6.27cm;""><p>What type of rock is this?</p>","0","class_response","1","test","38","Andesite","Diorite","02","false","1","3","",""
"","","","","","","","","","","","html-keyboard-response","280","2.0.0","388855","62e02660c3ef175825ab7655","1","25","null","","","","","","","","","<p style='font-size: 30px;'><strong>Okay</strong></p>","null","neutral_feedback","1","test","38","","","","","","","",""
"","","","","","","","","","","","html-button-response","281","2.0.0","390126","62e02660c3ef175825ab7655","1","25","1270","","","","","","","","","<img src= ""rock_img/I_Pumice_13.jpg"" style=""width:8cm; height:8.200000000000001cm;""><p>What type of rock is this?</p>","7","class_response","1","test","39","Pumice","Pumice","13","true","8","8","",""
"","","","","","","","","","","","html-keyboard-response","282","2.0.0","390628","62e02660c3ef175825ab7655","1","25","null","","","","","","","","","<p style='font-size: 30px;'><strong>Okay</strong></p>","null","neutral_feedback","1","test","39","","","","","","","",""
"","","","","","","","","","","","html-button-response","283","2.0.0","391358","62e02660c3ef175825ab7655","1","25","730","","","","","","","","","<img src= ""rock_img/I_Pumice_15.jpg"" style=""width:8cm; height:7.86cm;""><p>What type of rock is this?</p>","7","class_response","1","test","40","Pumice","Pumice","15","true","8","8","",""
"","","","","","","","","","","","html-keyboard-response","284","2.0.0","391862","62e02660c3ef175825ab7655","1","25","null","","","","","","","","","<p style='font-size: 30px;'><strong>Okay</strong></p>","null","neutral_feedback","1","test","40","","","","","","","",""
"","","","","","","","","","","","html-button-response","285","2.0.0","393632","62e02660c3ef175825ab7655","1","25","1770","","","","","","","","","<img src= ""rock_img/I_Peridotite_02.jpg"" style=""width:8cm; height:5.859999999999999cm;""><p>What type of rock is this?</p>","3","class_response","1","test","41","Gabbro","Peridotite","02","false","4","7","",""
"","","","","","","","","","","","html-keyboard-response","286","2.0.0","394138","62e02660c3ef175825ab7655","1","25","null","","","","","","","","","<p style='font-size: 30px;'><strong>Okay</strong></p>","null","neutral_feedback","1","test","41","","","","","","","",""
"","","","","","","","","","","","html-button-response","287","2.0.0","395115","62e02660c3ef175825ab7655","1","25","976","","","","","","","","","<img src= ""rock_img/I_Gabbro_11.jpg"" style=""width:8cm; height:6.2cm;""><p>What type of rock is this?</p>","1","class_response","1","test","42","Basalt","Gabbro","11","false","2","4","",""
"","","","","","","","","","","","html-keyboard-response","288","2.0.0","395626","62e02660c3ef175825ab7655","1","25","null","","","","","","","","","<p style='font-size: 30px;'><strong>Okay</strong></p>","null","neutral_feedback","1","test","42","","","","","","","",""
"","","","","","","","","","","","html-button-response","289","2.0.0","396727","62e02660c3ef175825ab7655","1","25","1100","","","","","","","","","<img src= ""rock_img/I_Basalt_14.jpg"" style=""width:8cm; height:5.82cm;""><p>What type of rock is this?</p>","7","class_response","1","test","43","Pumice","Basalt","14","false","8","2","",""
"","","","","","","","","","","","html-keyboard-response","290","2.0.0","397233","62e02660c3ef175825ab7655","1","25","null","","","","","","","","","<p style='font-size: 30px;'><strong>Okay</strong></p>","null","neutral_feedback","1","test","43","","","","","","","",""
"","","","","","","","","","","","html-button-response","291","2.0.0","398430","62e02660c3ef175825ab7655","1","25","1196","","","","","","","","","<img src= ""rock_img/I_Basalt_02.jpg"" style=""width:8cm; height:6.45cm;""><p>What type of rock is this?</p>","1","class_response","1","test","44","Basalt","Basalt","02","true","2","2","",""
"","","","","","","","","","","","html-keyboard-response","292","2.0.0","398945","62e02660c3ef175825ab7655","1","25","null","","","","","","","","","<p style='font-size: 30px;'><strong>Okay</strong></p>","null","neutral_feedback","1","test","44","","","","","","","",""
"","","","","","","","","","","","html-button-response","293","2.0.0","399943","62e02660c3ef175825ab7655","1","25","997","","","","","","","","","<img src= ""rock_img/I_Obsidian_09.jpg"" style=""width:8cm; height:5cm;""><p>What type of rock is this?</p>","4","class_response","1","test","45","Obsidian","Obsidian","09","true","5","5","",""
"","","","","","","","","","","","html-keyboard-response","294","2.0.0","400449","62e02660c3ef175825ab7655","1","25","null","","","","","","","","","<p style='font-size: 30px;'><strong>Okay</strong></p>","null","neutral_feedback","1","test","45","","","","","","","",""
"","","","","","","","","","","","html-button-response","295","2.0.0","403115","62e02660c3ef175825ab7655","1","25","2665","","","","","","","","","<img src= ""rock_img/I_Gabbro_15.jpg"" style=""width:8cm; height:6.29cm;""><p>What type of rock is this?</p>","0","class_response","1","test","46","Andesite","Gabbro","15","false","1","4","",""
"","","","","","","","","","","","html-keyboard-response","296","2.0.0","403618","62e02660c3ef175825ab7655","1","25","null","","","","","","","","","<p style='font-size: 30px;'><strong>Okay</strong></p>","null","neutral_feedback","1","test","46","","","","","","","",""
"","","","","","","","","","","","html-button-response","297","2.0.0","404546","62e02660c3ef175825ab7655","1","25","928","","","","","","","","","<img src= ""rock_img/I_Basalt_04.jpg"" style=""width:8cm; height:7.53cm;""><p>What type of rock is this?</p>","1","class_response","1","test","47","Basalt","Basalt","04","true","2","2","",""
"","","","","","","","","","","","html-keyboard-response","298","2.0.0","405048","62e02660c3ef175825ab7655","1","25","null","","","","","","","","","<p style='font-size: 30px;'><strong>Okay</strong></p>","null","neutral_feedback","1","test","47","","","","","","","",""
"","","","","","","","","","","","html-button-response","299","2.0.0","406289","62e02660c3ef175825ab7655","1","25","1241","","","","","","","","","<img src= ""rock_img/I_Peridotite_15.jpg"" style=""width:8cm; height:6cm;""><p>What type of rock is this?</p>","3","class_response","1","test","48","Gabbro","Peridotite","15","false","4","7","",""
"","","","","","","","","","","","html-keyboard-response","300","2.0.0","406794","62e02660c3ef175825ab7655","1","25","null","","","","","","","","","<p style='font-size: 30px;'><strong>Okay</strong></p>","null","neutral_feedback","1","test","48","","","","","","","",""
"","","","","","","","","","","","html-button-response","301","2.0.0","423823","62e02660c3ef175825ab7655","1","25","","","","","","","","","","","","cycle_feedback","","","","","","","","","","9783.89999999106","7241.4000000059605"
"","","","","","","","","","","","html-button-response","303","2.0.0","424845","62e02660c3ef175825ab7655","1","25","1021","","","","","","","","","","0","start_train","","","","","","","","","","",""
"","","","","","","","","","","","html-button-response","304","2.0.0","426568","62e02660c3ef175825ab7655","1","25","1721","","","","","","","","","<img src= ""rock_img/I_Pegmatite_15.jpg"" style=""width:8cm; height:6cm;""><p>What type of rock is this?</p>","6","class_response","2","train","1","Peridotite","Pegmatite","15","false","7","6","",""
