"width","height","webaudio","browser","browser_version","mobile","os","fullscreen","vsync_rate","webcam","microphone","trial_type","trial_index","plugin_version","time_elapsed","subjID","condition","stimID","rt","url","success","value","timeout","failed_images","failed_audio","failed_video","view_history","stimulus","response","trialType","cycle","phase","trial","resp","cat","token","corr","resp_num","cat_num","time_fb1","time_fb2"
"2560","1305","true","chrome","130.0.0","false","Windows 10","true","246.51","false","true","browser-check","0","2.0.0","248","66946e3054a30a2bf5b1be40","1","36","","","","","","","","","","","","","","","","","","","","","","",""
"","","","","","","","","","","","external-html","1","2.0.0","22105","66946e3054a30a2bf5b1be40","1","36","21727","consent_form.html","","","","","","","","","","","","","","","","","","","","",""
"","","","","","","","","","","","fullscreen","2","2.0.0","28450","66946e3054a30a2bf5b1be40","1","36","5336","","true","","","","","","","","","","","","","","","","","","","",""
"","","","","","","","","","","","call-function","3","2.0.0","28451","66946e3054a30a2bf5b1be40","1","36","","","","{}","","","","","","","","","","","","","","","","","","",""
"","","","","","","","","","","","preload","4","2.0.0","31732","66946e3054a30a2bf5b1be40","1","36","","","true","","false","[]","[]","[]","","","","","","","","","","","","","","",""
"","","","","","","","","","","","instructions","5","2.0.0","175727","66946e3054a30a2bf5b1be40","1","36","143994","","","","","","","","[{""page_index"":0,""viewing_time"":56484},{""page_index"":1,""viewing_time"":83602},{""page_index"":2,""viewing_time"":3908}]","","","","","","","","","","","","","",""
"","","","","","","","","","","","html-button-response","6","2.0.0","176844","66946e3054a30a2bf5b1be40","1","36","1116","","","","","","","","","","0","start_test","","","","","","","","","","",""
"","","","","","","","","","","","html-button-response","7","2.0.0","178128","66946e3054a30a2bf5b1be40","1","36","1282","","","","","","","","","<img src= ""rock_img/I_Basalt_09.jpg"" style=""width:8cm; height:6.2cm;""><p>What type of rock is this?</p>","2","class_response","0","test","1","Diorite","Basalt","09","false","3","2","",""
"","","","","","","","","","","","html-keyboard-response","8","2.0.0","178642","66946e3054a30a2bf5b1be40","1","36","null","","","","","","","","","<p style='font-size: 30px;'><strong>Okay</strong></p>","null","neutral_feedback","0","test","1","","","","","","","",""
"","","","","","","","","","","","html-button-response","9","2.0.0","180410","66946e3054a30a2bf5b1be40","1","36","1767","","","","","","","","","<img src= ""rock_img/I_Pegmatite_11.jpg"" style=""width:8cm; height:8.14cm;""><p>What type of rock is this?</p>","4","class_response","0","test","2","Obsidian","Pegmatite","11","false","5","6","",""
"","","","","","","","","","","","html-keyboard-response","10","2.0.0","180922","66946e3054a30a2bf5b1be40","1","36","null","","","","","","","","","<p style='font-size: 30px;'><strong>Okay</strong></p>","null","neutral_feedback","0","test","2","","","","","","","",""
"","","","","","","","","","","","html-button-response","11","2.0.0","183845","66946e3054a30a2bf5b1be40","1","36","2923","","","","","","","","","<img src= ""rock_img/I_Basalt_16.jpg"" style=""width:8cm; height:7.659999999999999cm;""><p>What type of rock is this?</p>","7","class_response","0","test","3","Pumice","Basalt","16","false","8","2","",""
"","","","","","","","","","","","html-keyboard-response","12","2.0.0","184348","66946e3054a30a2bf5b1be40","1","36","null","","","","","","","","","<p style='font-size: 30px;'><strong>Okay</strong></p>","null","neutral_feedback","0","test","3","","","","","","","",""
"","","","","","","","","","","","html-button-response","13","2.0.0","186196","66946e3054a30a2bf5b1be40","1","36","1847","","","","","","","","","<img src= ""rock_img/I_Pumice_05.jpg"" style=""width:8cm; height:7.25cm;""><p>What type of rock is this?</p>","1","class_response","0","test","4","Basalt","Pumice","05","false","2","8","",""
"","","","","","","","","","","","html-keyboard-response","14","2.0.0","186697","66946e3054a30a2bf5b1be40","1","36","null","","","","","","","","","<p style='font-size: 30px;'><strong>Okay</strong></p>","null","neutral_feedback","0","test","4","","","","","","","",""
"","","","","","","","","","","","html-button-response","15","2.0.0","188180","66946e3054a30a2bf5b1be40","1","36","1482","","","","","","","","","<img src= ""rock_img/I_Andesite_01.jpg"" style=""width:8cm; height:5.87cm;""><p>What type of rock is this?</p>","3","class_response","0","test","5","Gabbro","Andesite","01","false","4","1","",""
"","","","","","","","","","","","html-keyboard-response","16","2.0.0","188687","66946e3054a30a2bf5b1be40","1","36","null","","","","","","","","","<p style='font-size: 30px;'><strong>Okay</strong></p>","null","neutral_feedback","0","test","5","","","","","","","",""
"","","","","","","","","","","","html-button-response","17","2.0.0","189942","66946e3054a30a2bf5b1be40","1","36","1255","","","","","","","","","<img src= ""rock_img/I_Peridotite_15.jpg"" style=""width:8cm; height:6cm;""><p>What type of rock is this?</p>","6","class_response","0","test","6","Peridotite","Peridotite","15","true","7","7","",""
"","","","","","","","","","","","html-keyboard-response","18","2.0.0","190446","66946e3054a30a2bf5b1be40","1","36","null","","","","","","","","","<p style='font-size: 30px;'><strong>Okay</strong></p>","null","neutral_feedback","0","test","6","","","","","","","",""
"","","","","","","","","","","","html-button-response","19","2.0.0","192089","66946e3054a30a2bf5b1be40","1","36","1642","","","","","","","","","<img src= ""rock_img/I_Diorite_08.jpg"" style=""width:8cm; height:6.37cm;""><p>What type of rock is this?</p>","0","class_response","0","test","7","Andesite","Diorite","08","false","1","3","",""
"","","","","","","","","","","","html-keyboard-response","20","2.0.0","192590","66946e3054a30a2bf5b1be40","1","36","null","","","","","","","","","<p style='font-size: 30px;'><strong>Okay</strong></p>","null","neutral_feedback","0","test","7","","","","","","","",""
"","","","","","","","","","","","html-button-response","21","2.0.0","194845","66946e3054a30a2bf5b1be40","1","36","2254","","","","","","","","","<img src= ""rock_img/I_Obsidian_12.jpg"" style=""width:8cm; height:6.53cm;""><p>What type of rock is this?</p>","4","class_response","0","test","8","Obsidian","Obsidian","12","true","5","5","",""
"","","","","","","","","","","","html-keyboard-response","22","2.0.0","195346","66946e3054a30a2bf5b1be40","1","36","null","","","","","","","","","<p style='font-size: 30px;'><strong>Okay</strong></p>","null","neutral_feedback","0","test","8","","","","","","","",""
"","","","","","","","","","","","html-button-response","23","2.0.0","196849","66946e3054a30a2bf5b1be40","1","36","1502","","","","","","","","","<img src= ""rock_img/I_Obsidian_11.jpg"" style=""width:8cm; height:6.05cm;""><p>What type of rock is this?</p>","4","class_response","0","test","9","Obsidian","Obsidian","11","true","5","5","",""
"","","","","","","","","","","","html-keyboard-response","24","2.0.0","197349","66946e3054a30a2bf5b1be40","1","36","null","","","","","","","","","<p style='font-size: 30px;'><strong>Okay</strong></p>","null","neutral_feedback","0","test","9","","","","","","","",""
"","","","","","","","","","","","html-button-response","25","2.0.0","198942","66946e3054a30a2bf5b1be40","1","36","1592","","","","","","","","","<img src= ""rock_img/I_Diorite_07.jpg"" style=""width:8cm; height:5.239999999999999cm;""><p>What type of rock is this?</p>","5","class_response","0","test","10","Pegmatite","Diorite","07","false","6","3","",""
"","","","","","","","","","","","html-keyboard-response","26","2.0.0","199455","66946e3054a30a2bf5b1be40","1","36","null","","","","","","","","","<p style='font-size: 30px;'><strong>Okay</strong></p>","null","neutral_feedback","0","test","10","","","","","","","",""
"","","","","","","","","","","","html-button-response","27","2.0.0","200568","66946e3054a30a2bf5b1be40","1","36","1112","","","","","","","","","<img src= ""rock_img/I_Pegmatite_15.jpg"" style=""width:8cm; height:6cm;""><p>What type of rock is this?</p>","3","class_response","0","test","11","Gabbro","Pegmatite","15","false","4","6","",""
"","","","","","","","","","","","html-keyboard-response","28","2.0.0","201069","66946e3054a30a2bf5b1be40","1","36","null","","","","","","","","","<p style='font-size: 30px;'><strong>Okay</strong></p>","null","neutral_feedback","0","test","11","","","","","","","",""
"","","","","","","","","","","","html-button-response","29","2.0.0","202196","66946e3054a30a2bf5b1be40","1","36","1126","","","","","","","","","<img src= ""rock_img/I_Pumice_13.jpg"" style=""width:8cm; height:8.200000000000001cm;""><p>What type of rock is this?</p>","7","class_response","0","test","12","Pumice","Pumice","13","true","8","8","",""
"","","","","","","","","","","","html-keyboard-response","30","2.0.0","202696","66946e3054a30a2bf5b1be40","1","36","null","","","","","","","","","<p style='font-size: 30px;'><strong>Okay</strong></p>","null","neutral_feedback","0","test","12","","","","","","","",""
"","","","","","","","","","","","html-button-response","31","2.0.0","203757","66946e3054a30a2bf5b1be40","1","36","1060","","","","","","","","","<img src= ""rock_img/I_Obsidian_14.jpg"" style=""width:8cm; height:7.64cm;""><p>What type of rock is this?</p>","4","class_response","0","test","13","Obsidian","Obsidian","14","true","5","5","",""
"","","","","","","","","","","","html-keyboard-response","32","2.0.0","204258","66946e3054a30a2bf5b1be40","1","36","null","","","","","","","","","<p style='font-size: 30px;'><strong>Okay</strong></p>","null","neutral_feedback","0","test","13","","","","","","","",""
"","","","","","","","","","","","html-button-response","33","2.0.0","205819","66946e3054a30a2bf5b1be40","1","36","1561","","","","","","","","","<img src= ""rock_img/I_Basalt_01.jpg"" style=""width:8cm; height:7.880000000000001cm;""><p>What type of rock is this?</p>","1","class_response","0","test","14","Basalt","Basalt","01","true","2","2","",""
"","","","","","","","","","","","html-keyboard-response","34","2.0.0","206321","66946e3054a30a2bf5b1be40","1","36","null","","","","","","","","","<p style='font-size: 30px;'><strong>Okay</strong></p>","null","neutral_feedback","0","test","14","","","","","","","",""
"","","","","","","","","","","","html-button-response","35","2.0.0","207452","66946e3054a30a2bf5b1be40","1","36","1131","","","","","","","","","<img src= ""rock_img/I_Peridotite_10.jpg"" style=""width:8cm; height:5.390000000000001cm;""><p>What type of rock is this?</p>","0","class_response","0","test","15","Andesite","Peridotite","10","false","1","7","",""
"","","","","","","","","","","","html-keyboard-response","36","2.0.0","207953","66946e3054a30a2bf5b1be40","1","36","null","","","","","","","","","<p style='font-size: 30px;'><strong>Okay</strong></p>","null","neutral_feedback","0","test","15","","","","","","","",""
"","","","","","","","","","","","html-button-response","37","2.0.0","208878","66946e3054a30a2bf5b1be40","1","36","924","","","","","","","","","<img src= ""rock_img/I_Diorite_16.jpg"" style=""width:8cm; height:6.74cm;""><p>What type of rock is this?</p>","0","class_response","0","test","16","Andesite","Diorite","16","false","1","3","",""
"","","","","","","","","","","","html-keyboard-response","38","2.0.0","209382","66946e3054a30a2bf5b1be40","1","36","null","","","","","","","","","<p style='font-size: 30px;'><strong>Okay</strong></p>","null","neutral_feedback","0","test","16","","","","","","","",""
"","","","","","","","","","","","html-button-response","39","2.0.0","209986","66946e3054a30a2bf5b1be40","1","36","604","","","","","","","","","<img src= ""rock_img/I_Pumice_08.jpg"" style=""width:8cm; height:6.67cm;""><p>What type of rock is this?</p>","5","class_response","0","test","17","Pegmatite","Pumice","08","false","6","8","",""
"","","","","","","","","","","","html-keyboard-response","40","2.0.0","210500","66946e3054a30a2bf5b1be40","1","36","null","","","","","","","","","<p style='font-size: 30px;'><strong>Okay</strong></p>","null","neutral_feedback","0","test","17","","","","","","","",""
"","","","","","","","","","","","html-button-response","41","2.0.0","212720","66946e3054a30a2bf5b1be40","1","36","2220","","","","","","","","","<img src= ""rock_img/I_Pegmatite_12.jpg"" style=""width:8cm; height:5.7cm;""><p>What type of rock is this?</p>","2","class_response","0","test","18","Diorite","Pegmatite","12","false","3","6","",""
"","","","","","","","","","","","html-keyboard-response","42","2.0.0","213233","66946e3054a30a2bf5b1be40","1","36","null","","","","","","","","","<p style='font-size: 30px;'><strong>Okay</strong></p>","null","neutral_feedback","0","test","18","","","","","","","",""
"","","","","","","","","","","","html-button-response","43","2.0.0","295289","66946e3054a30a2bf5b1be40","1","36","82056","","","","","","","","","<img src= ""rock_img/I_Gabbro_01.jpg"" style=""width:8cm; height:5.21cm;""><p>What type of rock is this?</p>","3","class_response","0","test","19","Gabbro","Gabbro","01","true","4","4","",""
"","","","","","","","","","","","html-keyboard-response","44","2.0.0","295792","66946e3054a30a2bf5b1be40","1","36","null","","","","","","","","","<p style='font-size: 30px;'><strong>Okay</strong></p>","null","neutral_feedback","0","test","19","","","","","","","",""
"","","","","","","","","","","","html-button-response","45","2.0.0","296314","66946e3054a30a2bf5b1be40","1","36","521","","","","","","","","","<img src= ""rock_img/I_Gabbro_15.jpg"" style=""width:8cm; height:6.29cm;""><p>What type of rock is this?</p>","6","class_response","0","test","20","Peridotite","Gabbro","15","false","7","4","",""
"","","","","","","","","","","","html-keyboard-response","46","2.0.0","296829","66946e3054a30a2bf5b1be40","1","36","null","","","","","","","","","<p style='font-size: 30px;'><strong>Okay</strong></p>","null","neutral_feedback","0","test","20","","","","","","","",""
"","","","","","","","","","","","html-button-response","47","2.0.0","297951","66946e3054a30a2bf5b1be40","1","36","1121","","","","","","","","","<img src= ""rock_img/I_Peridotite_12.jpg"" style=""width:8cm; height:4.54cm;""><p>What type of rock is this?</p>","3","class_response","0","test","21","Gabbro","Peridotite","12","false","4","7","",""
"","","","","","","","","","","","html-keyboard-response","48","2.0.0","298453","66946e3054a30a2bf5b1be40","1","36","null","","","","","","","","","<p style='font-size: 30px;'><strong>Okay</strong></p>","null","neutral_feedback","0","test","21","","","","","","","",""
"","","","","","","","","","","","html-button-response","49","2.0.0","299273","66946e3054a30a2bf5b1be40","1","36","820","","","","","","","","","<img src= ""rock_img/I_Basalt_06.jpg"" style=""width:8cm; height:7.06cm;""><p>What type of rock is this?</p>","7","class_response","0","test","22","Pumice","Basalt","06","false","8","2","",""
"","","","","","","","","","","","html-keyboard-response","50","2.0.0","299786","66946e3054a30a2bf5b1be40","1","36","null","","","","","","","","","<p style='font-size: 30px;'><strong>Okay</strong></p>","null","neutral_feedback","0","test","22","","","","","","","",""
"","","","","","","","","","","","html-button-response","51","2.0.0","303689","66946e3054a30a2bf5b1be40","1","36","3903","","","","","","","","","<img src= ""rock_img/I_Gabbro_08.jpg"" style=""width:8cm; height:5.15cm;""><p>What type of rock is this?</p>","3","class_response","0","test","23","Gabbro","Gabbro","08","true","4","4","",""
"","","","","","","","","","","","html-keyboard-response","52","2.0.0","304201","66946e3054a30a2bf5b1be40","1","36","null","","","","","","","","","<p style='font-size: 30px;'><strong>Okay</strong></p>","null","neutral_feedback","0","test","23","","","","","","","",""
"","","","","","","","","","","","html-button-response","53","2.0.0","316658","66946e3054a30a2bf5b1be40","1","36","12457","","","","","","","","","<img src= ""rock_img/I_Peridotite_02.jpg"" style=""width:8cm; height:5.859999999999999cm;""><p>What type of rock is this?</p>","6","class_response","0","test","24","Peridotite","Peridotite","02","true","7","7","",""
"","","","","","","","","","","","html-keyboard-response","54","2.0.0","317174","66946e3054a30a2bf5b1be40","1","36","null","","","","","","","","","<p style='font-size: 30px;'><strong>Okay</strong></p>","null","neutral_feedback","0","test","24","","","","","","","",""
"","","","","","","","","","","","html-button-response","55","2.0.0","335505","66946e3054a30a2bf5b1be40","1","36","18330","","","","","","","","","<img src= ""rock_img/I_Pegmatite_16.jpg"" style=""width:8cm; height:5.8cm;""><p>What type of rock is this?</p>","3","class_response","0","test","25","Gabbro","Pegmatite","16","false","4","6","",""
"","","","","","","","","","","","html-keyboard-response","56","2.0.0","336021","66946e3054a30a2bf5b1be40","1","36","null","","","","","","","","","<p style='font-size: 30px;'><strong>Okay</strong></p>","null","neutral_feedback","0","test","25","","","","","","","",""
"","","","","","","","","","","","html-button-response","57","2.0.0","337924","66946e3054a30a2bf5b1be40","1","36","1902","","","","","","","","","<img src= ""rock_img/I_Basalt_08.jpg"" style=""width:8cm; height:10.44cm;""><p>What type of rock is this?</p>","4","class_response","0","test","26","Obsidian","Basalt","08","false","5","2","",""
"","","","","","","","","","","","html-keyboard-response","58","2.0.0","338428","66946e3054a30a2bf5b1be40","1","36","null","","","","","","","","","<p style='font-size: 30px;'><strong>Okay</strong></p>","null","neutral_feedback","0","test","26","","","","","","","",""
"","","","","","","","","","","","html-button-response","59","2.0.0","339327","66946e3054a30a2bf5b1be40","1","36","898","","","","","","","","","<img src= ""rock_img/I_Diorite_14.jpg"" style=""width:8cm; height:5.71cm;""><p>What type of rock is this?</p>","5","class_response","0","test","27","Pegmatite","Diorite","14","false","6","3","",""
"","","","","","","","","","","","html-keyboard-response","60","2.0.0","339829","66946e3054a30a2bf5b1be40","1","36","null","","","","","","","","","<p style='font-size: 30px;'><strong>Okay</strong></p>","null","neutral_feedback","0","test","27","","","","","","","",""
"","","","","","","","","","","","html-button-response","61","2.0.0","340372","66946e3054a30a2bf5b1be40","1","36","543","","","","","","","","","<img src= ""rock_img/I_Andesite_07.jpg"" style=""width:8cm; height:5.93cm;""><p>What type of rock is this?</p>","2","class_response","0","test","28","Diorite","Andesite","07","false","3","1","",""
"","","","","","","","","","","","html-keyboard-response","62","2.0.0","340873","66946e3054a30a2bf5b1be40","1","36","null","","","","","","","","","<p style='font-size: 30px;'><strong>Okay</strong></p>","null","neutral_feedback","0","test","28","","","","","","","",""
"","","","","","","","","","","","html-button-response","63","2.0.0","342198","66946e3054a30a2bf5b1be40","1","36","1324","","","","","","","","","<img src= ""rock_img/I_Obsidian_09.jpg"" style=""width:8cm; height:5cm;""><p>What type of rock is this?</p>","4","class_response","0","test","29","Obsidian","Obsidian","09","true","5","5","",""
"","","","","","","","","","","","html-keyboard-response","64","2.0.0","342702","66946e3054a30a2bf5b1be40","1","36","null","","","","","","","","","<p style='font-size: 30px;'><strong>Okay</strong></p>","null","neutral_feedback","0","test","29","","","","","","","",""
"","","","","","","","","","","","html-button-response","65","2.0.0","343312","66946e3054a30a2bf5b1be40","1","36","610","","","","","","","","","<img src= ""rock_img/I_Gabbro_03.jpg"" style=""width:8cm; height:8.52cm;""><p>What type of rock is this?</p>","6","class_response","0","test","30","Peridotite","Gabbro","03","false","7","4","",""
"","","","","","","","","","","","html-keyboard-response","66","2.0.0","343813","66946e3054a30a2bf5b1be40","1","36","null","","","","","","","","","<p style='font-size: 30px;'><strong>Okay</strong></p>","null","neutral_feedback","0","test","30","","","","","","","",""
"","","","","","","","","","","","html-button-response","67","2.0.0","344511","66946e3054a30a2bf5b1be40","1","36","697","","","","","","","","","<img src= ""rock_img/I_Obsidian_07.jpg"" style=""width:8cm; height:4.76cm;""><p>What type of rock is this?</p>","3","class_response","0","test","31","Gabbro","Obsidian","07","false","4","5","",""
"","","","","","","","","","","","html-keyboard-response","68","2.0.0","345022","66946e3054a30a2bf5b1be40","1","36","null","","","","","","","","","<p style='font-size: 30px;'><strong>Okay</strong></p>","null","neutral_feedback","0","test","31","","","","","","","",""
"","","","","","","","","","","","html-button-response","69","2.0.0","345658","66946e3054a30a2bf5b1be40","1","36","635","","","","","","","","","<img src= ""rock_img/I_Andesite_02.jpg"" style=""width:8cm; height:8.5cm;""><p>What type of rock is this?</p>","7","class_response","0","test","32","Pumice","Andesite","02","false","8","1","",""
"","","","","","","","","","","","html-keyboard-response","70","2.0.0","346173","66946e3054a30a2bf5b1be40","1","36","null","","","","","","","","","<p style='font-size: 30px;'><strong>Okay</strong></p>","null","neutral_feedback","0","test","32","","","","","","","",""
"","","","","","","","","","","","html-button-response","71","2.0.0","403249","66946e3054a30a2bf5b1be40","1","36","57075","","","","","","","","","<img src= ""rock_img/I_Pegmatite_09.jpg"" style=""width:8cm; height:4.03cm;""><p>What type of rock is this?</p>","3","class_response","0","test","33","Gabbro","Pegmatite","09","false","4","6","",""
"","","","","","","","","","","","html-keyboard-response","72","2.0.0","403763","66946e3054a30a2bf5b1be40","1","36","null","","","","","","","","","<p style='font-size: 30px;'><strong>Okay</strong></p>","null","neutral_feedback","0","test","33","","","","","","","",""
"","","","","","","","","","","","html-button-response","73","2.0.0","404895","66946e3054a30a2bf5b1be40","1","36","1132","","","","","","","","","<img src= ""rock_img/I_Gabbro_05.jpg"" style=""width:8cm; height:6cm;""><p>What type of rock is this?</p>","2","class_response","0","test","34","Diorite","Gabbro","05","false","3","4","",""
"","","","","","","","","","","","html-keyboard-response","74","2.0.0","405403","66946e3054a30a2bf5b1be40","1","36","null","","","","","","","","","<p style='font-size: 30px;'><strong>Okay</strong></p>","null","neutral_feedback","0","test","34","","","","","","","",""
"","","","","","","","","","","","html-button-response","75","2.0.0","405831","66946e3054a30a2bf5b1be40","1","36","427","","","","","","","","","<img src= ""rock_img/I_Gabbro_11.jpg"" style=""width:8cm; height:6.2cm;""><p>What type of rock is this?</p>","6","class_response","0","test","35","Peridotite","Gabbro","11","false","7","4","",""
"","","","","","","","","","","","html-keyboard-response","76","2.0.0","406331","66946e3054a30a2bf5b1be40","1","36","null","","","","","","","","","<p style='font-size: 30px;'><strong>Okay</strong></p>","null","neutral_feedback","0","test","35","","","","","","","",""
"","","","","","","","","","","","html-button-response","77","2.0.0","407043","66946e3054a30a2bf5b1be40","1","36","710","","","","","","","","","<img src= ""rock_img/I_Pumice_02.jpg"" style=""width:8cm; height:7.3999999999999995cm;""><p>What type of rock is this?</p>","1","class_response","0","test","36","Basalt","Pumice","02","false","2","8","",""
"","","","","","","","","","","","html-keyboard-response","78","2.0.0","407551","66946e3054a30a2bf5b1be40","1","36","null","","","","","","","","","<p style='font-size: 30px;'><strong>Okay</strong></p>","null","neutral_feedback","0","test","36","","","","","","","",""
"","","","","","","","","","","","html-button-response","79","2.0.0","408301","66946e3054a30a2bf5b1be40","1","36","749","","","","","","","","","<img src= ""rock_img/I_Pumice_06.jpg"" style=""width:8cm; height:6.9399999999999995cm;""><p>What type of rock is this?</p>","4","class_response","0","test","37","Obsidian","Pumice","06","false","5","8","",""
"","","","","","","","","","","","html-keyboard-response","80","2.0.0","408809","66946e3054a30a2bf5b1be40","1","36","null","","","","","","","","","<p style='font-size: 30px;'><strong>Okay</strong></p>","null","neutral_feedback","0","test","37","","","","","","","",""
"","","","","","","","","","","","html-button-response","81","2.0.0","409333","66946e3054a30a2bf5b1be40","1","36","523","","","","","","","","","<img src= ""rock_img/I_Andesite_14.jpg"" style=""width:8cm; height:5.449999999999999cm;""><p>What type of rock is this?</p>","5","class_response","0","test","38","Pegmatite","Andesite","14","false","6","1","",""
"","","","","","","","","","","","html-keyboard-response","82","2.0.0","409836","66946e3054a30a2bf5b1be40","1","36","null","","","","","","","","","<p style='font-size: 30px;'><strong>Okay</strong></p>","null","neutral_feedback","0","test","38","","","","","","","",""
"","","","","","","","","","","","html-button-response","83","2.0.0","410614","66946e3054a30a2bf5b1be40","1","36","777","","","","","","","","","<img src= ""rock_img/I_Pegmatite_08.jpg"" style=""width:8cm; height:7.68cm;""><p>What type of rock is this?</p>","3","class_response","0","test","39","Gabbro","Pegmatite","08","false","4","6","",""
"","","","","","","","","","","","html-keyboard-response","84","2.0.0","411115","66946e3054a30a2bf5b1be40","1","36","null","","","","","","","","","<p style='font-size: 30px;'><strong>Okay</strong></p>","null","neutral_feedback","0","test","39","","","","","","","",""
"","","","","","","","","","","","html-button-response","85","2.0.0","411986","66946e3054a30a2bf5b1be40","1","36","870","","","","","","","","","<img src= ""rock_img/I_Diorite_11.jpg"" style=""width:8cm; height:7.11cm;""><p>What type of rock is this?</p>","1","class_response","0","test","40","Basalt","Diorite","11","false","2","3","",""
"","","","","","","","","","","","html-keyboard-response","86","2.0.0","412487","66946e3054a30a2bf5b1be40","1","36","null","","","","","","","","","<p style='font-size: 30px;'><strong>Okay</strong></p>","null","neutral_feedback","0","test","40","","","","","","","",""
"","","","","","","","","","","","html-button-response","87","2.0.0","413225","66946e3054a30a2bf5b1be40","1","36","738","","","","","","","","","<img src= ""rock_img/I_Andesite_10.jpg"" style=""width:8cm; height:4.16cm;""><p>What type of rock is this?</p>","6","class_response","0","test","41","Peridotite","Andesite","10","false","7","1","",""
"","","","","","","","","","","","html-keyboard-response","88","2.0.0","413727","66946e3054a30a2bf5b1be40","1","36","null","","","","","","","","","<p style='font-size: 30px;'><strong>Okay</strong></p>","null","neutral_feedback","0","test","41","","","","","","","",""
"","","","","","","","","","","","html-button-response","89","2.0.0","414353","66946e3054a30a2bf5b1be40","1","36","626","","","","","","","","","<img src= ""rock_img/I_Peridotite_14.jpg"" style=""width:8cm; height:5.3cm;""><p>What type of rock is this?</p>","3","class_response","0","test","42","Gabbro","Peridotite","14","false","4","7","",""
"","","","","","","","","","","","html-keyboard-response","90","2.0.0","414854","66946e3054a30a2bf5b1be40","1","36","null","","","","","","","","","<p style='font-size: 30px;'><strong>Okay</strong></p>","null","neutral_feedback","0","test","42","","","","","","","",""
"","","","","","","","","","","","html-button-response","91","2.0.0","415485","66946e3054a30a2bf5b1be40","1","36","630","","","","","","","","","<img src= ""rock_img/I_Peridotite_07.jpg"" style=""width:8cm; height:4.83cm;""><p>What type of rock is this?</p>","5","class_response","0","test","43","Pegmatite","Peridotite","07","false","6","7","",""
"","","","","","","","","","","","html-keyboard-response","92","2.0.0","415986","66946e3054a30a2bf5b1be40","1","36","null","","","","","","","","","<p style='font-size: 30px;'><strong>Okay</strong></p>","null","neutral_feedback","0","test","43","","","","","","","",""
"","","","","","","","","","","","html-button-response","93","2.0.0","416306","66946e3054a30a2bf5b1be40","1","36","319","","","","","","","","","<img src= ""rock_img/I_Diorite_06.jpg"" style=""width:8cm; height:6.03cm;""><p>What type of rock is this?</p>","0","class_response","0","test","44","Andesite","Diorite","06","false","1","3","",""
"","","","","","","","","","","","html-keyboard-response","94","2.0.0","416807","66946e3054a30a2bf5b1be40","1","36","null","","","","","","","","","<p style='font-size: 30px;'><strong>Okay</strong></p>","null","neutral_feedback","0","test","44","","","","","","","",""
"","","","","","","","","","","","html-button-response","95","2.0.0","418059","66946e3054a30a2bf5b1be40","1","36","1251","","","","","","","","","<img src= ""rock_img/I_Obsidian_16.jpg"" style=""width:8cm; height:9.3cm;""><p>What type of rock is this?</p>","4","class_response","0","test","45","Obsidian","Obsidian","16","true","5","5","",""
"","","","","","","","","","","","html-keyboard-response","96","2.0.0","418563","66946e3054a30a2bf5b1be40","1","36","null","","","","","","","","","<p style='font-size: 30px;'><strong>Okay</strong></p>","null","neutral_feedback","0","test","45","","","","","","","",""
"","","","","","","","","","","","html-button-response","97","2.0.0","419254","66946e3054a30a2bf5b1be40","1","36","691","","","","","","","","","<img src= ""rock_img/I_Basalt_02.jpg"" style=""width:8cm; height:6.45cm;""><p>What type of rock is this?</p>","7","class_response","0","test","46","Pumice","Basalt","02","false","8","2","",""
"","","","","","","","","","","","html-keyboard-response","98","2.0.0","419755","66946e3054a30a2bf5b1be40","1","36","null","","","","","","","","","<p style='font-size: 30px;'><strong>Okay</strong></p>","null","neutral_feedback","0","test","46","","","","","","","",""
"","","","","","","","","","","","html-button-response","99","2.0.0","420460","66946e3054a30a2bf5b1be40","1","36","704","","","","","","","","","<img src= ""rock_img/I_Andesite_09.jpg"" style=""width:8cm; height:6cm;""><p>What type of rock is this?</p>","5","class_response","0","test","47","Pegmatite","Andesite","09","false","6","1","",""
"","","","","","","","","","","","html-keyboard-response","100","2.0.0","420964","66946e3054a30a2bf5b1be40","1","36","null","","","","","","","","","<p style='font-size: 30px;'><strong>Okay</strong></p>","null","neutral_feedback","0","test","47","","","","","","","",""
"","","","","","","","","","","","html-button-response","101","2.0.0","421650","66946e3054a30a2bf5b1be40","1","36","686","","","","","","","","","<img src= ""rock_img/I_Pumice_16.jpg"" style=""width:8cm; height:6.79cm;""><p>What type of rock is this?</p>","1","class_response","0","test","48","Basalt","Pumice","16","false","2","8","",""
"","","","","","","","","","","","html-keyboard-response","102","2.0.0","422151","66946e3054a30a2bf5b1be40","1","36","null","","","","","","","","","<p style='font-size: 30px;'><strong>Okay</strong></p>","null","neutral_feedback","0","test","48","","","","","","","",""
"","","","","","","","","","","","instructions","103","2.0.0","492269","66946e3054a30a2bf5b1be40","1","36","70109","","","","","","","","[{""page_index"":0,""viewing_time"":65840},{""page_index"":1,""viewing_time"":3121},{""page_index"":2,""viewing_time"":1148}]","","","","","","","","","","","","","",""
"","","","","","","","","","","","html-button-response","104","2.0.0","558210","66946e3054a30a2bf5b1be40","1","36","65940","","","","","","","","","","0","start_train","","","","","","","","","","",""
"","","","","","","","","","","","html-button-response","105","2.0.0","559382","66946e3054a30a2bf5b1be40","1","36","1172","","","","","","","","","<img src= ""rock_img/I_Gabbro_16.jpg"" style=""width:8cm; height:6.44cm;""><p>What type of rock is this?</p>","1","class_response","1","train","1","Basalt","Gabbro","16","false","2","4","",""
"","","","","","","","","","","","html-button-response","106","2.0.0","560456","66946e3054a30a2bf5b1be40","1","36","1073","","","","","","","","","<img src= rock_img/I_Gabbro_16.jpg style=""width:8cm; height:6.44cm;""><p style='font-size: 30px; color: red;'><strong>Incorrect!</strong></p><p style='font-size: 30px;'><strong>This rock is gabbro</strong></p>","0","corr_feedback","1","train","1","","","","","","","",""
"","","","","","","","","","","","html-button-response","107","2.0.0","561169","66946e3054a30a2bf5b1be40","1","36","712","","","","","","","","","<img src= ""rock_img/I_Diorite_15.jpg"" style=""width:8cm; height:5.54cm;""><p>What type of rock is this?</p>","2","class_response","1","train","2","Diorite","Diorite","15","true","3","3","",""
"","","","","","","","","","","","html-button-response","108","2.0.0","562263","66946e3054a30a2bf5b1be40","1","36","1094","","","","","","","","","<img src= rock_img/I_Diorite_15.jpg style=""width:8cm; height:5.54cm;""><p style='font-size: 30px; color: green;'><strong>Correct!</strong></p><p style='font-size: 30px;'><strong>This rock is diorite</strong></p>","0","corr_feedback","1","train","2","","","","","","","",""
"","","","","","","","","","","","html-button-response","109","2.0.0","562967","66946e3054a30a2bf5b1be40","1","36","703","","","","","","","","","<img src= ""rock_img/I_Gabbro_13.jpg"" style=""width:8cm; height:5.08cm;""><p>What type of rock is this?</p>","5","class_response","1","train","3","Pegmatite","Gabbro","13","false","6","4","",""
"","","","","","","","","","","","html-button-response","110","2.0.0","563478","66946e3054a30a2bf5b1be40","1","36","510","","","","","","","","","<img src= rock_img/I_Gabbro_13.jpg style=""width:8cm; height:5.08cm;""><p style='font-size: 30px; color: red;'><strong>Incorrect!</strong></p><p style='font-size: 30px;'><strong>This rock is gabbro</strong></p>","0","corr_feedback","1","train","3","","","","","","","",""
"","","","","","","","","","","","html-button-response","111","2.0.0","564512","66946e3054a30a2bf5b1be40","1","36","1033","","","","","","","","","<img src= ""rock_img/I_Basalt_10.jpg"" style=""width:8cm; height:5.85cm;""><p>What type of rock is this?</p>","4","class_response","1","train","4","Obsidian","Basalt","10","false","5","2","",""
"","","","","","","","","","","","html-button-response","112","2.0.0","565094","66946e3054a30a2bf5b1be40","1","36","582","","","","","","","","","<img src= rock_img/I_Basalt_10.jpg style=""width:8cm; height:5.85cm;""><p style='font-size: 30px; color: red;'><strong>Incorrect!</strong></p><p style='font-size: 30px;'><strong>This rock is basalt</strong></p>","0","corr_feedback","1","train","4","","","","","","","",""
"","","","","","","","","","","","html-button-response","113","2.0.0","566359","66946e3054a30a2bf5b1be40","1","36","1264","","","","","","","","","<img src= ""rock_img/I_Peridotite_04.jpg"" style=""width:8cm; height:6.680000000000001cm;""><p>What type of rock is this?</p>","3","class_response","1","train","5","Gabbro","Peridotite","04","false","4","7","",""
"","","","","","","","","","","","html-button-response","114","2.0.0","567164","66946e3054a30a2bf5b1be40","1","36","805","","","","","","","","","<img src= rock_img/I_Peridotite_04.jpg style=""width:8cm; height:6.680000000000001cm;""><p style='font-size: 30px; color: red;'><strong>Incorrect!</strong></p><p style='font-size: 30px;'><strong>This rock is peridotite</strong></p>","0","corr_feedback","1","train","5","","","","","","","",""
"","","","","","","","","","","","html-button-response","115","2.0.0","567638","66946e3054a30a2bf5b1be40","1","36","473","","","","","","","","","<img src= ""rock_img/I_Andesite_16.jpg"" style=""width:8cm; height:6.010000000000001cm;""><p>What type of rock is this?</p>","6","class_response","1","train","6","Peridotite","Andesite","16","false","7","1","",""
"","","","","","","","","","","","html-button-response","116","2.0.0","568388","66946e3054a30a2bf5b1be40","1","36","749","","","","","","","","","<img src= rock_img/I_Andesite_16.jpg style=""width:8cm; height:6.010000000000001cm;""><p style='font-size: 30px; color: red;'><strong>Incorrect!</strong></p><p style='font-size: 30px;'><strong>This rock is andesite</strong></p>","0","corr_feedback","1","train","6","","","","","","","",""
"","","","","","","","","","","","html-button-response","117","2.0.0","569297","66946e3054a30a2bf5b1be40","1","36","908","","","","","","","","","<img src= ""rock_img/I_Peridotite_05.jpg"" style=""width:8cm; height:7.1499999999999995cm;""><p>What type of rock is this?</p>","7","class_response","1","train","7","Pumice","Peridotite","05","false","8","7","",""
"","","","","","","","","","","","html-button-response","118","2.0.0","570433","66946e3054a30a2bf5b1be40","1","36","1135","","","","","","","","","<img src= rock_img/I_Peridotite_05.jpg style=""width:8cm; height:7.1499999999999995cm;""><p style='font-size: 30px; color: red;'><strong>Incorrect!</strong></p><p style='font-size: 30px;'><strong>This rock is peridotite</strong></p>","0","corr_feedback","1","train","7","","","","","","","",""
"","","","","","","","","","","","html-button-response","119","2.0.0","571246","66946e3054a30a2bf5b1be40","1","36","813","","","","","","","","","<img src= ""rock_img/I_Basalt_04.jpg"" style=""width:8cm; height:7.53cm;""><p>What type of rock is this?</p>","6","class_response","1","train","8","Peridotite","Basalt","04","false","7","2","",""
"","","","","","","","","","","","html-button-response","120","2.0.0","571836","66946e3054a30a2bf5b1be40","1","36","589","","","","","","","","","<img src= rock_img/I_Basalt_04.jpg style=""width:8cm; height:7.53cm;""><p style='font-size: 30px; color: red;'><strong>Incorrect!</strong></p><p style='font-size: 30px;'><strong>This rock is basalt</strong></p>","0","corr_feedback","1","train","8","","","","","","","",""
"","","","","","","","","","","","html-button-response","121","2.0.0","572646","66946e3054a30a2bf5b1be40","1","36","809","","","","","","","","","<img src= ""rock_img/I_Andesite_06.jpg"" style=""width:8cm; height:6.840000000000001cm;""><p>What type of rock is this?</p>","5","class_response","1","train","9","Pegmatite","Andesite","06","false","6","1","",""
"","","","","","","","","","","","html-button-response","122","2.0.0","573298","66946e3054a30a2bf5b1be40","1","36","651","","","","","","","","","<img src= rock_img/I_Andesite_06.jpg style=""width:8cm; height:6.840000000000001cm;""><p style='font-size: 30px; color: red;'><strong>Incorrect!</strong></p><p style='font-size: 30px;'><strong>This rock is andesite</strong></p>","0","corr_feedback","1","train","9","","","","","","","",""
"","","","","","","","","","","","html-button-response","123","2.0.0","573984","66946e3054a30a2bf5b1be40","1","36","686","","","","","","","","","<img src= ""rock_img/I_Obsidian_06.jpg"" style=""width:8cm; height:6.8cm;""><p>What type of rock is this?</p>","1","class_response","1","train","10","Basalt","Obsidian","06","false","2","5","",""
"","","","","","","","","","","","html-button-response","124","2.0.0","574868","66946e3054a30a2bf5b1be40","1","36","883","","","","","","","","","<img src= rock_img/I_Obsidian_06.jpg style=""width:8cm; height:6.8cm;""><p style='font-size: 30px; color: red;'><strong>Incorrect!</strong></p><p style='font-size: 30px;'><strong>This rock is obsidian</strong></p>","0","corr_feedback","1","train","10","","","","","","","",""
"","","","","","","","","","","","html-button-response","125","2.0.0","575896","66946e3054a30a2bf5b1be40","1","36","1028","","","","","","","","","<img src= ""rock_img/I_Peridotite_16.jpg"" style=""width:8cm; height:6.989999999999999cm;""><p>What type of rock is this?</p>","0","class_response","1","train","11","Andesite","Peridotite","16","false","1","7","",""
"","","","","","","","","","","","html-button-response","126","2.0.0","576882","66946e3054a30a2bf5b1be40","1","36","986","","","","","","","","","<img src= rock_img/I_Peridotite_16.jpg style=""width:8cm; height:6.989999999999999cm;""><p style='font-size: 30px; color: red;'><strong>Incorrect!</strong></p><p style='font-size: 30px;'><strong>This rock is peridotite</strong></p>","0","corr_feedback","1","train","11","","","","","","","",""
"","","","","","","","","","","","html-button-response","127","2.0.0","577719","66946e3054a30a2bf5b1be40","1","36","836","","","","","","","","","<img src= ""rock_img/I_Diorite_09.jpg"" style=""width:8cm; height:5.27cm;""><p>What type of rock is this?</p>","2","class_response","1","train","12","Diorite","Diorite","09","true","3","3","",""
"","","","","","","","","","","","html-button-response","128","2.0.0","578329","66946e3054a30a2bf5b1be40","1","36","609","","","","","","","","","<img src= rock_img/I_Diorite_09.jpg style=""width:8cm; height:5.27cm;""><p style='font-size: 30px; color: green;'><strong>Correct!</strong></p><p style='font-size: 30px;'><strong>This rock is diorite</strong></p>","0","corr_feedback","1","train","12","","","","","","","",""
"","","","","","","","","","","","html-button-response","129","2.0.0","579685","66946e3054a30a2bf5b1be40","1","36","1356","","","","","","","","","<img src= ""rock_img/I_Gabbro_10.jpg"" style=""width:8cm; height:5.680000000000001cm;""><p>What type of rock is this?</p>","6","class_response","1","train","13","Peridotite","Gabbro","10","false","7","4","",""
"","","","","","","","","","","","html-button-response","130","2.0.0","580245","66946e3054a30a2bf5b1be40","1","36","559","","","","","","","","","<img src= rock_img/I_Gabbro_10.jpg style=""width:8cm; height:5.680000000000001cm;""><p style='font-size: 30px; color: red;'><strong>Incorrect!</strong></p><p style='font-size: 30px;'><strong>This rock is gabbro</strong></p>","0","corr_feedback","1","train","13","","","","","","","",""
"","","","","","","","","","","","html-button-response","131","2.0.0","582132","66946e3054a30a2bf5b1be40","1","36","1887","","","","","","","","","<img src= ""rock_img/I_Pumice_10.jpg"" style=""width:8cm; height:7.609999999999999cm;""><p>What type of rock is this?</p>","6","class_response","1","train","14","Peridotite","Pumice","10","false","7","8","",""
"","","","","","","","","","","","html-button-response","132","2.0.0","582733","66946e3054a30a2bf5b1be40","1","36","600","","","","","","","","","<img src= rock_img/I_Pumice_10.jpg style=""width:8cm; height:7.609999999999999cm;""><p style='font-size: 30px; color: red;'><strong>Incorrect!</strong></p><p style='font-size: 30px;'><strong>This rock is pumice</strong></p>","0","corr_feedback","1","train","14","","","","","","","",""
"","","","","","","","","","","","html-button-response","133","2.0.0","583516","66946e3054a30a2bf5b1be40","1","36","783","","","","","","","","","<img src= ""rock_img/I_Diorite_02.jpg"" style=""width:8cm; height:6.27cm;""><p>What type of rock is this?</p>","5","class_response","1","train","15","Pegmatite","Diorite","02","false","6","3","",""
"","","","","","","","","","","","html-button-response","134","2.0.0","584131","66946e3054a30a2bf5b1be40","1","36","614","","","","","","","","","<img src= rock_img/I_Diorite_02.jpg style=""width:8cm; height:6.27cm;""><p style='font-size: 30px; color: red;'><strong>Incorrect!</strong></p><p style='font-size: 30px;'><strong>This rock is diorite</strong></p>","0","corr_feedback","1","train","15","","","","","","","",""
"","","","","","","","","","","","html-button-response","135","2.0.0","584933","66946e3054a30a2bf5b1be40","1","36","801","","","","","","","","","<img src= ""rock_img/I_Andesite_03.jpg"" style=""width:8cm; height:5.73cm;""><p>What type of rock is this?</p>","6","class_response","1","train","16","Peridotite","Andesite","03","false","7","1","",""
"","","","","","","","","","","","html-button-response","136","2.0.0","585476","66946e3054a30a2bf5b1be40","1","36","543","","","","","","","","","<img src= rock_img/I_Andesite_03.jpg style=""width:8cm; height:5.73cm;""><p style='font-size: 30px; color: red;'><strong>Incorrect!</strong></p><p style='font-size: 30px;'><strong>This rock is andesite</strong></p>","0","corr_feedback","1","train","16","","","","","","","",""
"","","","","","","","","","","","html-button-response","137","2.0.0","586264","66946e3054a30a2bf5b1be40","1","36","787","","","","","","","","","<img src= ""rock_img/I_Pegmatite_06.jpg"" style=""width:8cm; height:5.17cm;""><p>What type of rock is this?</p>","1","class_response","1","train","17","Basalt","Pegmatite","06","false","2","6","",""
"","","","","","","","","","","","html-button-response","138","2.0.0","586784","66946e3054a30a2bf5b1be40","1","36","520","","","","","","","","","<img src= rock_img/I_Pegmatite_06.jpg style=""width:8cm; height:5.17cm;""><p style='font-size: 30px; color: red;'><strong>Incorrect!</strong></p><p style='font-size: 30px;'><strong>This rock is pegmatite</strong></p>","0","corr_feedback","1","train","17","","","","","","","",""
"","","","","","","","","","","","html-button-response","139","2.0.0","588106","66946e3054a30a2bf5b1be40","1","36","1321","","","","","","","","","<img src= ""rock_img/I_Pumice_09.jpg"" style=""width:8cm; height:6.44cm;""><p>What type of rock is this?</p>","3","class_response","1","train","18","Gabbro","Pumice","09","false","4","8","",""
"","","","","","","","","","","","html-button-response","140","2.0.0","588606","66946e3054a30a2bf5b1be40","1","36","499","","","","","","","","","<img src= rock_img/I_Pumice_09.jpg style=""width:8cm; height:6.44cm;""><p style='font-size: 30px; color: red;'><strong>Incorrect!</strong></p><p style='font-size: 30px;'><strong>This rock is pumice</strong></p>","0","corr_feedback","1","train","18","","","","","","","",""
"","","","","","","","","","","","html-button-response","141","2.0.0","589752","66946e3054a30a2bf5b1be40","1","36","1146","","","","","","","","","<img src= ""rock_img/I_Obsidian_10.jpg"" style=""width:8cm; height:6.260000000000001cm;""><p>What type of rock is this?</p>","1","class_response","1","train","19","Basalt","Obsidian","10","false","2","5","",""
"","","","","","","","","","","","html-button-response","142","2.0.0","590456","66946e3054a30a2bf5b1be40","1","36","704","","","","","","","","","<img src= rock_img/I_Obsidian_10.jpg style=""width:8cm; height:6.260000000000001cm;""><p style='font-size: 30px; color: red;'><strong>Incorrect!</strong></p><p style='font-size: 30px;'><strong>This rock is obsidian</strong></p>","0","corr_feedback","1","train","19","","","","","","","",""
"","","","","","","","","","","","html-button-response","143","2.0.0","591436","66946e3054a30a2bf5b1be40","1","36","979","","","","","","","","","<img src= ""rock_img/I_Gabbro_09.jpg"" style=""width:8cm; height:7.279999999999999cm;""><p>What type of rock is this?</p>","5","class_response","1","train","20","Pegmatite","Gabbro","09","false","6","4","",""
"","","","","","","","","","","","html-button-response","144","2.0.0","592007","66946e3054a30a2bf5b1be40","1","36","571","","","","","","","","","<img src= rock_img/I_Gabbro_09.jpg style=""width:8cm; height:7.279999999999999cm;""><p style='font-size: 30px; color: red;'><strong>Incorrect!</strong></p><p style='font-size: 30px;'><strong>This rock is gabbro</strong></p>","0","corr_feedback","1","train","20","","","","","","","",""
"","","","","","","","","","","","html-button-response","145","2.0.0","592706","66946e3054a30a2bf5b1be40","1","36","698","","","","","","","","","<img src= ""rock_img/I_Peridotite_06.jpg"" style=""width:8cm; height:7.53cm;""><p>What type of rock is this?</p>","0","class_response","1","train","21","Andesite","Peridotite","06","false","1","7","",""
"","","","","","","","","","","","html-button-response","146","2.0.0","593419","66946e3054a30a2bf5b1be40","1","36","713","","","","","","","","","<img src= rock_img/I_Peridotite_06.jpg style=""width:8cm; height:7.53cm;""><p style='font-size: 30px; color: red;'><strong>Incorrect!</strong></p><p style='font-size: 30px;'><strong>This rock is peridotite</strong></p>","0","corr_feedback","1","train","21","","","","","","","",""
"","","","","","","","","","","","html-button-response","147","2.0.0","593955","66946e3054a30a2bf5b1be40","1","36","535","","","","","","","","","<img src= ""rock_img/I_Pumice_15.jpg"" style=""width:8cm; height:7.86cm;""><p>What type of rock is this?</p>","5","class_response","1","train","22","Pegmatite","Pumice","15","false","6","8","",""
"","","","","","","","","","","","html-button-response","148","2.0.0","594565","66946e3054a30a2bf5b1be40","1","36","609","","","","","","","","","<img src= rock_img/I_Pumice_15.jpg style=""width:8cm; height:7.86cm;""><p style='font-size: 30px; color: red;'><strong>Incorrect!</strong></p><p style='font-size: 30px;'><strong>This rock is pumice</strong></p>","0","corr_feedback","1","train","22","","","","","","","",""
"","","","","","","","","","","","html-button-response","149","2.0.0","595093","66946e3054a30a2bf5b1be40","1","36","527","","","","","","","","","<img src= ""rock_img/I_Obsidian_08.jpg"" style=""width:8cm; height:7.39cm;""><p>What type of rock is this?</p>","2","class_response","1","train","23","Diorite","Obsidian","08","false","3","5","",""
"","","","","","","","","","","","html-button-response","150","2.0.0","595573","66946e3054a30a2bf5b1be40","1","36","480","","","","","","","","","<img src= rock_img/I_Obsidian_08.jpg style=""width:8cm; height:7.39cm;""><p style='font-size: 30px; color: red;'><strong>Incorrect!</strong></p><p style='font-size: 30px;'><strong>This rock is obsidian</strong></p>","0","corr_feedback","1","train","23","","","","","","","",""
"","","","","","","","","","","","html-button-response","151","2.0.0","595988","66946e3054a30a2bf5b1be40","1","36","414","","","","","","","","","<img src= ""rock_img/I_Andesite_04.jpg"" style=""width:8cm; height:5.96cm;""><p>What type of rock is this?</p>","6","class_response","1","train","24","Peridotite","Andesite","04","false","7","1","",""
"","","","","","","","","","","","html-button-response","152","2.0.0","596530","66946e3054a30a2bf5b1be40","1","36","542","","","","","","","","","<img src= rock_img/I_Andesite_04.jpg style=""width:8cm; height:5.96cm;""><p style='font-size: 30px; color: red;'><strong>Incorrect!</strong></p><p style='font-size: 30px;'><strong>This rock is andesite</strong></p>","0","corr_feedback","1","train","24","","","","","","","",""
"","","","","","","","","","","","html-button-response","153","2.0.0","597279","66946e3054a30a2bf5b1be40","1","36","748","","","","","","","","","<img src= ""rock_img/I_Pegmatite_07.jpg"" style=""width:8cm; height:6.7cm;""><p>What type of rock is this?</p>","3","class_response","1","train","25","Gabbro","Pegmatite","07","false","4","6","",""
"","","","","","","","","","","","html-button-response","154","2.0.0","597864","66946e3054a30a2bf5b1be40","1","36","584","","","","","","","","","<img src= rock_img/I_Pegmatite_07.jpg style=""width:8cm; height:6.7cm;""><p style='font-size: 30px; color: red;'><strong>Incorrect!</strong></p><p style='font-size: 30px;'><strong>This rock is pegmatite</strong></p>","0","corr_feedback","1","train","25","","","","","","","",""
"","","","","","","","","","","","html-button-response","155","2.0.0","599325","66946e3054a30a2bf5b1be40","1","36","1461","","","","","","","","","<img src= ""rock_img/I_Diorite_12.jpg"" style=""width:8cm; height:4.88cm;""><p>What type of rock is this?</p>","6","class_response","1","train","26","Peridotite","Diorite","12","false","7","3","",""
"","","","","","","","","","","","html-button-response","156","2.0.0","599849","66946e3054a30a2bf5b1be40","1","36","523","","","","","","","","","<img src= rock_img/I_Diorite_12.jpg style=""width:8cm; height:4.88cm;""><p style='font-size: 30px; color: red;'><strong>Incorrect!</strong></p><p style='font-size: 30px;'><strong>This rock is diorite</strong></p>","0","corr_feedback","1","train","26","","","","","","","",""
"","","","","","","","","","","","html-button-response","157","2.0.0","600788","66946e3054a30a2bf5b1be40","1","36","939","","","","","","","","","<img src= ""rock_img/I_Andesite_11.jpg"" style=""width:8cm; height:4.92cm;""><p>What type of rock is this?</p>","1","class_response","1","train","27","Basalt","Andesite","11","false","2","1","",""
"","","","","","","","","","","","html-button-response","158","2.0.0","601321","66946e3054a30a2bf5b1be40","1","36","532","","","","","","","","","<img src= rock_img/I_Andesite_11.jpg style=""width:8cm; height:4.92cm;""><p style='font-size: 30px; color: red;'><strong>Incorrect!</strong></p><p style='font-size: 30px;'><strong>This rock is andesite</strong></p>","0","corr_feedback","1","train","27","","","","","","","",""
"","","","","","","","","","","","html-button-response","159","2.0.0","602388","66946e3054a30a2bf5b1be40","1","36","1066","","","","","","","","","<img src= ""rock_img/I_Basalt_11.jpg"" style=""width:8cm; height:5.359999999999999cm;""><p>What type of rock is this?</p>","1","class_response","1","train","28","Basalt","Basalt","11","true","2","2","",""
"","","","","","","","","","","","html-button-response","160","2.0.0","603035","66946e3054a30a2bf5b1be40","1","36","647","","","","","","","","","<img src= rock_img/I_Basalt_11.jpg style=""width:8cm; height:5.359999999999999cm;""><p style='font-size: 30px; color: green;'><strong>Correct!</strong></p><p style='font-size: 30px;'><strong>This rock is basalt</strong></p>","0","corr_feedback","1","train","28","","","","","","","",""
"","","","","","","","","","","","html-button-response","161","2.0.0","603917","66946e3054a30a2bf5b1be40","1","36","881","","","","","","","","","<img src= ""rock_img/I_Obsidian_02.jpg"" style=""width:8cm; height:7.51cm;""><p>What type of rock is this?</p>","4","class_response","1","train","29","Obsidian","Obsidian","02","true","5","5","",""
"","","","","","","","","","","","html-button-response","162","2.0.0","604484","66946e3054a30a2bf5b1be40","1","36","567","","","","","","","","","<img src= rock_img/I_Obsidian_02.jpg style=""width:8cm; height:7.51cm;""><p style='font-size: 30px; color: green;'><strong>Correct!</strong></p><p style='font-size: 30px;'><strong>This rock is obsidian</strong></p>","0","corr_feedback","1","train","29","","","","","","","",""
"","","","","","","","","","","","html-button-response","163","2.0.0","605164","66946e3054a30a2bf5b1be40","1","36","679","","","","","","","","","<img src= ""rock_img/I_Pegmatite_10.jpg"" style=""width:8cm; height:4.16cm;""><p>What type of rock is this?</p>","2","class_response","1","train","30","Diorite","Pegmatite","10","false","3","6","",""
"","","","","","","","","","","","html-button-response","164","2.0.0","605640","66946e3054a30a2bf5b1be40","1","36","476","","","","","","","","","<img src= rock_img/I_Pegmatite_10.jpg style=""width:8cm; height:4.16cm;""><p style='font-size: 30px; color: red;'><strong>Incorrect!</strong></p><p style='font-size: 30px;'><strong>This rock is pegmatite</strong></p>","0","corr_feedback","1","train","30","","","","","","","",""
"","","","","","","","","","","","html-button-response","165","2.0.0","606419","66946e3054a30a2bf5b1be40","1","36","778","","","","","","","","","<img src= ""rock_img/I_Obsidian_05.jpg"" style=""width:8cm; height:6.33cm;""><p>What type of rock is this?</p>","5","class_response","1","train","31","Pegmatite","Obsidian","05","false","6","5","",""
"","","","","","","","","","","","html-button-response","166","2.0.0","606861","66946e3054a30a2bf5b1be40","1","36","441","","","","","","","","","<img src= rock_img/I_Obsidian_05.jpg style=""width:8cm; height:6.33cm;""><p style='font-size: 30px; color: red;'><strong>Incorrect!</strong></p><p style='font-size: 30px;'><strong>This rock is obsidian</strong></p>","0","corr_feedback","1","train","31","","","","","","","",""
"","","","","","","","","","","","html-button-response","167","2.0.0","684414","66946e3054a30a2bf5b1be40","1","36","77552","","","","","","","","","<img src= ""rock_img/I_Pumice_03.jpg"" style=""width:8cm; height:6.64cm;""><p>What type of rock is this?</p>","2","class_response","1","train","32","Diorite","Pumice","03","false","3","8","",""
"","","","","","","","","","","","html-button-response","168","2.0.0","684915","66946e3054a30a2bf5b1be40","1","36","501","","","","","","","","","<img src= rock_img/I_Pumice_03.jpg style=""width:8cm; height:6.64cm;""><p style='font-size: 30px; color: red;'><strong>Incorrect!</strong></p><p style='font-size: 30px;'><strong>This rock is pumice</strong></p>","0","corr_feedback","1","train","32","","","","","","","",""
"","","","","","","","","","","","html-button-response","169","2.0.0","685968","66946e3054a30a2bf5b1be40","1","36","1052","","","","","","","","","<img src= ""rock_img/I_Pegmatite_05.jpg"" style=""width:8cm; height:7.300000000000001cm;""><p>What type of rock is this?</p>","4","class_response","1","train","33","Obsidian","Pegmatite","05","false","5","6","",""
"","","","","","","","","","","","html-button-response","170","2.0.0","686505","66946e3054a30a2bf5b1be40","1","36","537","","","","","","","","","<img src= rock_img/I_Pegmatite_05.jpg style=""width:8cm; height:7.300000000000001cm;""><p style='font-size: 30px; color: red;'><strong>Incorrect!</strong></p><p style='font-size: 30px;'><strong>This rock is pegmatite</strong></p>","0","corr_feedback","1","train","33","","","","","","","",""
"","","","","","","","","","","","html-button-response","171","2.0.0","730228","66946e3054a30a2bf5b1be40","1","36","43722","","","","","","","","","<img src= ""rock_img/I_Peridotite_13.jpg"" style=""width:8cm; height:7.58cm;""><p>What type of rock is this?</p>","1","class_response","1","train","34","Basalt","Peridotite","13","false","2","7","",""
"","","","","","","","","","","","html-button-response","172","2.0.0","730686","66946e3054a30a2bf5b1be40","1","36","458","","","","","","","","","<img src= rock_img/I_Peridotite_13.jpg style=""width:8cm; height:7.58cm;""><p style='font-size: 30px; color: red;'><strong>Incorrect!</strong></p><p style='font-size: 30px;'><strong>This rock is peridotite</strong></p>","0","corr_feedback","1","train","34","","","","","","","",""
"","","","","","","","","","","","html-button-response","173","2.0.0","731170","66946e3054a30a2bf5b1be40","1","36","483","","","","","","","","","<img src= ""rock_img/I_Andesite_05.jpg"" style=""width:8cm; height:4.12cm;""><p>What type of rock is this?</p>","6","class_response","1","train","35","Peridotite","Andesite","05","false","7","1","",""
"","","","","","","","","","","","html-button-response","174","2.0.0","731601","66946e3054a30a2bf5b1be40","1","36","431","","","","","","","","","<img src= rock_img/I_Andesite_05.jpg style=""width:8cm; height:4.12cm;""><p style='font-size: 30px; color: red;'><strong>Incorrect!</strong></p><p style='font-size: 30px;'><strong>This rock is andesite</strong></p>","0","corr_feedback","1","train","35","","","","","","","",""
"","","","","","","","","","","","html-button-response","175","2.0.0","732158","66946e3054a30a2bf5b1be40","1","36","556","","","","","","","","","<img src= ""rock_img/I_Peridotite_08.jpg"" style=""width:8cm; height:6.7cm;""><p>What type of rock is this?</p>","2","class_response","1","train","36","Diorite","Peridotite","08","false","3","7","",""
"","","","","","","","","","","","html-button-response","176","2.0.0","732605","66946e3054a30a2bf5b1be40","1","36","447","","","","","","","","","<img src= rock_img/I_Peridotite_08.jpg style=""width:8cm; height:6.7cm;""><p style='font-size: 30px; color: red;'><strong>Incorrect!</strong></p><p style='font-size: 30px;'><strong>This rock is peridotite</strong></p>","0","corr_feedback","1","train","36","","","","","","","",""
"","","","","","","","","","","","html-button-response","177","2.0.0","733020","66946e3054a30a2bf5b1be40","1","36","414","","","","","","","","","<img src= ""rock_img/I_Basalt_12.jpg"" style=""width:8cm; height:6.010000000000001cm;""><p>What type of rock is this?</p>","3","class_response","1","train","37","Gabbro","Basalt","12","false","4","2","",""
"","","","","","","","","","","","html-button-response","178","2.0.0","733560","66946e3054a30a2bf5b1be40","1","36","539","","","","","","","","","<img src= rock_img/I_Basalt_12.jpg style=""width:8cm; height:6.010000000000001cm;""><p style='font-size: 30px; color: red;'><strong>Incorrect!</strong></p><p style='font-size: 30px;'><strong>This rock is basalt</strong></p>","0","corr_feedback","1","train","37","","","","","","","",""
"","","","","","","","","","","","html-button-response","179","2.0.0","734163","66946e3054a30a2bf5b1be40","1","36","603","","","","","","","","","<img src= ""rock_img/I_Gabbro_12.jpg"" style=""width:8cm; height:7.800000000000001cm;""><p>What type of rock is this?</p>","5","class_response","1","train","38","Pegmatite","Gabbro","12","false","6","4","",""
"","","","","","","","","","","","html-button-response","180","2.0.0","734640","66946e3054a30a2bf5b1be40","1","36","476","","","","","","","","","<img src= rock_img/I_Gabbro_12.jpg style=""width:8cm; height:7.800000000000001cm;""><p style='font-size: 30px; color: red;'><strong>Incorrect!</strong></p><p style='font-size: 30px;'><strong>This rock is gabbro</strong></p>","0","corr_feedback","1","train","38","","","","","","","",""
"","","","","","","","","","","","html-button-response","181","2.0.0","735217","66946e3054a30a2bf5b1be40","1","36","577","","","","","","","","","<img src= ""rock_img/I_Obsidian_04.jpg"" style=""width:8cm; height:6.930000000000001cm;""><p>What type of rock is this?</p>","1","class_response","1","train","39","Basalt","Obsidian","04","false","2","5","",""
"","","","","","","","","","","","html-button-response","182","2.0.0","735724","66946e3054a30a2bf5b1be40","1","36","506","","","","","","","","","<img src= rock_img/I_Obsidian_04.jpg style=""width:8cm; height:6.930000000000001cm;""><p style='font-size: 30px; color: red;'><strong>Incorrect!</strong></p><p style='font-size: 30px;'><strong>This rock is obsidian</strong></p>","0","corr_feedback","1","train","39","","","","","","","",""
"","","","","","","","","","","","html-button-response","183","2.0.0","736133","66946e3054a30a2bf5b1be40","1","36","409","","","","","","","","","<img src= ""rock_img/I_Diorite_13.jpg"" style=""width:8cm; height:6.29cm;""><p>What type of rock is this?</p>","4","class_response","1","train","40","Obsidian","Diorite","13","false","5","3","",""
"","","","","","","","","","","","html-button-response","184","2.0.0","736767","66946e3054a30a2bf5b1be40","1","36","633","","","","","","","","","<img src= rock_img/I_Diorite_13.jpg style=""width:8cm; height:6.29cm;""><p style='font-size: 30px; color: red;'><strong>Incorrect!</strong></p><p style='font-size: 30px;'><strong>This rock is diorite</strong></p>","0","corr_feedback","1","train","40","","","","","","","",""
"","","","","","","","","","","","html-button-response","185","2.0.0","737393","66946e3054a30a2bf5b1be40","1","36","626","","","","","","","","","<img src= ""rock_img/I_Basalt_14.jpg"" style=""width:8cm; height:5.82cm;""><p>What type of rock is this?</p>","7","class_response","1","train","41","Pumice","Basalt","14","false","8","2","",""
"","","","","","","","","","","","html-button-response","186","2.0.0","738214","66946e3054a30a2bf5b1be40","1","36","820","","","","","","","","","<img src= rock_img/I_Basalt_14.jpg style=""width:8cm; height:5.82cm;""><p style='font-size: 30px; color: red;'><strong>Incorrect!</strong></p><p style='font-size: 30px;'><strong>This rock is basalt</strong></p>","0","corr_feedback","1","train","41","","","","","","","",""
"","","","","","","","","","","","html-button-response","187","2.0.0","738695","66946e3054a30a2bf5b1be40","1","36","481","","","","","","","","","<img src= ""rock_img/I_Pegmatite_13.jpg"" style=""width:8cm; height:4.95cm;""><p>What type of rock is this?</p>","4","class_response","1","train","42","Obsidian","Pegmatite","13","false","5","6","",""
"","","","","","","","","","","","html-button-response","188","2.0.0","739086","66946e3054a30a2bf5b1be40","1","36","390","","","","","","","","","<img src= rock_img/I_Pegmatite_13.jpg style=""width:8cm; height:4.95cm;""><p style='font-size: 30px; color: red;'><strong>Incorrect!</strong></p><p style='font-size: 30px;'><strong>This rock is pegmatite</strong></p>","0","corr_feedback","1","train","42","","","","","","","",""
"","","","","","","","","","","","html-button-response","189","2.0.0","739592","66946e3054a30a2bf5b1be40","1","36","506","","","","","","","","","<img src= ""rock_img/I_Gabbro_14.jpg"" style=""width:8cm; height:8.48cm;""><p>What type of rock is this?</p>","1","class_response","1","train","43","Basalt","Gabbro","14","false","2","4","",""
"","","","","","","","","","","","html-button-response","190","2.0.0","740002","66946e3054a30a2bf5b1be40","1","36","409","","","","","","","","","<img src= rock_img/I_Gabbro_14.jpg style=""width:8cm; height:8.48cm;""><p style='font-size: 30px; color: red;'><strong>Incorrect!</strong></p><p style='font-size: 30px;'><strong>This rock is gabbro</strong></p>","0","corr_feedback","1","train","43","","","","","","","",""
"","","","","","","","","","","","html-button-response","191","2.0.0","740576","66946e3054a30a2bf5b1be40","1","36","573","","","","","","","","","<img src= ""rock_img/I_Basalt_05.jpg"" style=""width:8cm; height:8.18cm;""><p>What type of rock is this?</p>","2","class_response","1","train","44","Diorite","Basalt","05","false","3","2","",""
"","","","","","","","","","","","html-button-response","192","2.0.0","740932","66946e3054a30a2bf5b1be40","1","36","355","","","","","","","","","<img src= rock_img/I_Basalt_05.jpg style=""width:8cm; height:8.18cm;""><p style='font-size: 30px; color: red;'><strong>Incorrect!</strong></p><p style='font-size: 30px;'><strong>This rock is basalt</strong></p>","0","corr_feedback","1","train","44","","","","","","","",""
"","","","","","","","","","","","html-button-response","193","2.0.0","780268","66946e3054a30a2bf5b1be40","1","36","39335","","","","","","","","","<img src= ""rock_img/I_Pegmatite_03.jpg"" style=""width:8cm; height:5.239999999999999cm;""><p>What type of rock is this?</p>","4","class_response","1","train","45","Obsidian","Pegmatite","03","false","5","6","",""
"","","","","","","","","","","","html-button-response","194","2.0.0","780836","66946e3054a30a2bf5b1be40","1","36","567","","","","","","","","","<img src= rock_img/I_Pegmatite_03.jpg style=""width:8cm; height:5.239999999999999cm;""><p style='font-size: 30px; color: red;'><strong>Incorrect!</strong></p><p style='font-size: 30px;'><strong>This rock is pegmatite</strong></p>","0","corr_feedback","1","train","45","","","","","","","",""
"","","","","","","","","","","","html-button-response","195","2.0.0","781560","66946e3054a30a2bf5b1be40","1","36","723","","","","","","","","","<img src= ""rock_img/I_Pumice_04.jpg"" style=""width:8cm; height:6.819999999999999cm;""><p>What type of rock is this?</p>","1","class_response","1","train","46","Basalt","Pumice","04","false","2","8","",""
"","","","","","","","","","","","html-button-response","196","2.0.0","781906","66946e3054a30a2bf5b1be40","1","36","346","","","","","","","","","<img src= rock_img/I_Pumice_04.jpg style=""width:8cm; height:6.819999999999999cm;""><p style='font-size: 30px; color: red;'><strong>Incorrect!</strong></p><p style='font-size: 30px;'><strong>This rock is pumice</strong></p>","0","corr_feedback","1","train","46","","","","","","","",""
"","","","","","","","","","","","html-button-response","197","2.0.0","782224","66946e3054a30a2bf5b1be40","1","36","318","","","","","","","","","<img src= ""rock_img/I_Diorite_10.jpg"" style=""width:8cm; height:5.949999999999999cm;""><p>What type of rock is this?</p>","2","class_response","1","train","47","Diorite","Diorite","10","true","3","3","",""
"","","","","","","","","","","","html-button-response","198","2.0.0","782572","66946e3054a30a2bf5b1be40","1","36","348","","","","","","","","","<img src= rock_img/I_Diorite_10.jpg style=""width:8cm; height:5.949999999999999cm;""><p style='font-size: 30px; color: green;'><strong>Correct!</strong></p><p style='font-size: 30px;'><strong>This rock is diorite</strong></p>","0","corr_feedback","1","train","47","","","","","","","",""
"","","","","","","","","","","","html-button-response","199","2.0.0","782985","66946e3054a30a2bf5b1be40","1","36","412","","","","","","","","","<img src= ""rock_img/I_Pumice_14.jpg"" style=""width:8cm; height:6.39cm;""><p>What type of rock is this?</p>","5","class_response","1","train","48","Pegmatite","Pumice","14","false","6","8","",""
"","","","","","","","","","","","html-button-response","200","2.0.0","783377","66946e3054a30a2bf5b1be40","1","36","392","","","","","","","","","<img src= rock_img/I_Pumice_14.jpg style=""width:8cm; height:6.39cm;""><p style='font-size: 30px; color: red;'><strong>Incorrect!</strong></p><p style='font-size: 30px;'><strong>This rock is pumice</strong></p>","0","corr_feedback","1","train","48","","","","","","","",""
"","","","","","","","","","","","instructions","203","2.0.0","791952","66946e3054a30a2bf5b1be40","1","36","8574","","","","","","","","[{""page_index"":0,""viewing_time"":2822},{""page_index"":1,""viewing_time"":5751}]","","","","","","","","","","","","","",""
"","","","","","","","","","","","html-button-response","204","2.0.0","792924","66946e3054a30a2bf5b1be40","1","36","971","","","","","","","","","","0","start_test","","","","","","","","","","",""
"","","","","","","","","","","","html-button-response","205","2.0.0","794162","66946e3054a30a2bf5b1be40","1","36","1238","","","","","","","","","<img src= ""rock_img/I_Obsidian_14.jpg"" style=""width:8cm; height:7.64cm;""><p>What type of rock is this?</p>","4","class_response","1","test","1","Obsidian","Obsidian","14","true","5","5","",""
"","","","","","","","","","","","html-keyboard-response","206","2.0.0","794666","66946e3054a30a2bf5b1be40","1","36","null","","","","","","","","","<p style='font-size: 30px;'><strong>Okay</strong></p>","null","neutral_feedback","1","test","1","","","","","","","",""
"","","","","","","","","","","","html-button-response","207","2.0.0","795171","66946e3054a30a2bf5b1be40","1","36","504","","","","","","","","","<img src= ""rock_img/I_Peridotite_02.jpg"" style=""width:8cm; height:5.859999999999999cm;""><p>What type of rock is this?</p>","1","class_response","1","test","2","Basalt","Peridotite","02","false","2","7","",""
"","","","","","","","","","","","html-keyboard-response","208","2.0.0","795674","66946e3054a30a2bf5b1be40","1","36","null","","","","","","","","","<p style='font-size: 30px;'><strong>Okay</strong></p>","null","neutral_feedback","1","test","2","","","","","","","",""
"","","","","","","","","","","","html-button-response","209","2.0.0","796161","66946e3054a30a2bf5b1be40","1","36","487","","","","","","","","","<img src= ""rock_img/I_Andesite_10.jpg"" style=""width:8cm; height:4.16cm;""><p>What type of rock is this?</p>","6","class_response","1","test","3","Peridotite","Andesite","10","false","7","1","",""
"","","","","","","","","","","","html-keyboard-response","210","2.0.0","796662","66946e3054a30a2bf5b1be40","1","36","null","","","","","","","","","<p style='font-size: 30px;'><strong>Okay</strong></p>","null","neutral_feedback","1","test","3","","","","","","","",""
"","","","","","","","","","","","html-button-response","211","2.0.0","856443","66946e3054a30a2bf5b1be40","1","36","59781","","","","","","","","","<img src= ""rock_img/I_Pegmatite_09.jpg"" style=""width:8cm; height:4.03cm;""><p>What type of rock is this?</p>","6","class_response","1","test","4","Peridotite","Pegmatite","09","false","7","6","",""
"","","","","","","","","","","","html-keyboard-response","212","2.0.0","856944","66946e3054a30a2bf5b1be40","1","36","null","","","","","","","","","<p style='font-size: 30px;'><strong>Okay</strong></p>","null","neutral_feedback","1","test","4","","","","","","","",""
"","","","","","","","","","","","html-button-response","213","2.0.0","857662","66946e3054a30a2bf5b1be40","1","36","717","","","","","","","","","<img src= ""rock_img/I_Pumice_06.jpg"" style=""width:8cm; height:6.9399999999999995cm;""><p>What type of rock is this?</p>","2","class_response","1","test","5","Diorite","Pumice","06","false","3","8","",""
"","","","","","","","","","","","html-keyboard-response","214","2.0.0","858169","66946e3054a30a2bf5b1be40","1","36","null","","","","","","","","","<p style='font-size: 30px;'><strong>Okay</strong></p>","null","neutral_feedback","1","test","5","","","","","","","",""
"","","","","","","","","","","","html-button-response","215","2.0.0","903843","66946e3054a30a2bf5b1be40","1","36","45673","","","","","","","","","<img src= ""rock_img/I_Andesite_01.jpg"" style=""width:8cm; height:5.87cm;""><p>What type of rock is this?</p>","4","class_response","1","test","6","Obsidian","Andesite","01","false","5","1","",""
"","","","","","","","","","","","html-keyboard-response","216","2.0.0","904351","66946e3054a30a2bf5b1be40","1","36","null","","","","","","","","","<p style='font-size: 30px;'><strong>Okay</strong></p>","null","neutral_feedback","1","test","6","","","","","","","",""
"","","","","","","","","","","","html-button-response","217","2.0.0","904743","66946e3054a30a2bf5b1be40","1","36","392","","","","","","","","","<img src= ""rock_img/I_Diorite_07.jpg"" style=""width:8cm; height:5.239999999999999cm;""><p>What type of rock is this?</p>","2","class_response","1","test","7","Diorite","Diorite","07","true","3","3","",""
"","","","","","","","","","","","html-keyboard-response","218","2.0.0","905253","66946e3054a30a2bf5b1be40","1","36","null","","","","","","","","","<p style='font-size: 30px;'><strong>Okay</strong></p>","null","neutral_feedback","1","test","7","","","","","","","",""
"","","","","","","","","","","","html-button-response","219","2.0.0","905533","66946e3054a30a2bf5b1be40","1","36","279","","","","","","","","","<img src= ""rock_img/I_Basalt_09.jpg"" style=""width:8cm; height:6.2cm;""><p>What type of rock is this?</p>","5","class_response","1","test","8","Pegmatite","Basalt","09","false","6","2","",""
"","","","","","","","","","","","html-keyboard-response","220","2.0.0","906034","66946e3054a30a2bf5b1be40","1","36","null","","","","","","","","","<p style='font-size: 30px;'><strong>Okay</strong></p>","null","neutral_feedback","1","test","8","","","","","","","",""
"","","","","","","","","","","","html-button-response","221","2.0.0","906291","66946e3054a30a2bf5b1be40","1","36","256","","","","","","","","","<img src= ""rock_img/I_Andesite_07.jpg"" style=""width:8cm; height:5.93cm;""><p>What type of rock is this?</p>","0","class_response","1","test","9","Andesite","Andesite","07","true","1","1","",""
"","","","","","","","","","","","html-keyboard-response","222","2.0.0","906800","66946e3054a30a2bf5b1be40","1","36","null","","","","","","","","","<p style='font-size: 30px;'><strong>Okay</strong></p>","null","neutral_feedback","1","test","9","","","","","","","",""
"","","","","","","","","","","","html-button-response","223","2.0.0","906947","66946e3054a30a2bf5b1be40","1","36","146","","","","","","","","","<img src= ""rock_img/I_Basalt_01.jpg"" style=""width:8cm; height:7.880000000000001cm;""><p>What type of rock is this?</p>","4","class_response","1","test","10","Obsidian","Basalt","01","false","5","2","",""
"","","","","","","","","","","","html-keyboard-response","224","2.0.0","907457","66946e3054a30a2bf5b1be40","1","36","null","","","","","","","","","<p style='font-size: 30px;'><strong>Okay</strong></p>","null","neutral_feedback","1","test","10","","","","","","","",""
"","","","","","","","","","","","html-button-response","225","2.0.0","908365","66946e3054a30a2bf5b1be40","1","36","908","","","","","","","","","<img src= ""rock_img/I_Obsidian_11.jpg"" style=""width:8cm; height:6.05cm;""><p>What type of rock is this?</p>","4","class_response","1","test","11","Obsidian","Obsidian","11","true","5","5","",""
"","","","","","","","","","","","html-keyboard-response","226","2.0.0","908866","66946e3054a30a2bf5b1be40","1","36","null","","","","","","","","","<p style='font-size: 30px;'><strong>Okay</strong></p>","null","neutral_feedback","1","test","11","","","","","","","",""
"","","","","","","","","","","","html-button-response","227","2.0.0","973149","66946e3054a30a2bf5b1be40","1","36","64283","","","","","","","","","<img src= ""rock_img/I_Gabbro_03.jpg"" style=""width:8cm; height:8.52cm;""><p>What type of rock is this?</p>","2","class_response","1","test","12","Diorite","Gabbro","03","false","3","4","",""
"","","","","","","","","","","","html-keyboard-response","228","2.0.0","973650","66946e3054a30a2bf5b1be40","1","36","null","","","","","","","","","<p style='font-size: 30px;'><strong>Okay</strong></p>","null","neutral_feedback","1","test","12","","","","","","","",""
"","","","","","","","","","","","html-button-response","229","2.0.0","974251","66946e3054a30a2bf5b1be40","1","36","600","","","","","","","","","<img src= ""rock_img/I_Diorite_11.jpg"" style=""width:8cm; height:7.11cm;""><p>What type of rock is this?</p>","4","class_response","1","test","13","Obsidian","Diorite","11","false","5","3","",""
"","","","","","","","","","","","html-keyboard-response","230","2.0.0","974752","66946e3054a30a2bf5b1be40","1","36","null","","","","","","","","","<p style='font-size: 30px;'><strong>Okay</strong></p>","null","neutral_feedback","1","test","13","","","","","","","",""
"","","","","","","","","","","","html-button-response","231","2.0.0","975953","66946e3054a30a2bf5b1be40","1","36","1201","","","","","","","","","<img src= ""rock_img/I_Gabbro_11.jpg"" style=""width:8cm; height:6.2cm;""><p>What type of rock is this?</p>","3","class_response","1","test","14","Gabbro","Gabbro","11","true","4","4","",""
"","","","","","","","","","","","html-keyboard-response","232","2.0.0","976455","66946e3054a30a2bf5b1be40","1","36","null","","","","","","","","","<p style='font-size: 30px;'><strong>Okay</strong></p>","null","neutral_feedback","1","test","14","","","","","","","",""
"","","","","","","","","","","","html-button-response","233","2.0.0","976712","66946e3054a30a2bf5b1be40","1","36","257","","","","","","","","","<img src= ""rock_img/I_Pumice_08.jpg"" style=""width:8cm; height:6.67cm;""><p>What type of rock is this?</p>","1","class_response","1","test","15","Basalt","Pumice","08","false","2","8","",""
"","","","","","","","","","","","html-keyboard-response","234","2.0.0","977223","66946e3054a30a2bf5b1be40","1","36","null","","","","","","","","","<p style='font-size: 30px;'><strong>Okay</strong></p>","null","neutral_feedback","1","test","15","","","","","","","",""
"","","","","","","","","","","","html-button-response","235","2.0.0","978083","66946e3054a30a2bf5b1be40","1","36","859","","","","","","","","","<img src= ""rock_img/I_Obsidian_07.jpg"" style=""width:8cm; height:4.76cm;""><p>What type of rock is this?</p>","5","class_response","1","test","16","Pegmatite","Obsidian","07","false","6","5","",""
"","","","","","","","","","","","html-keyboard-response","236","2.0.0","978586","66946e3054a30a2bf5b1be40","1","36","null","","","","","","","","","<p style='font-size: 30px;'><strong>Okay</strong></p>","null","neutral_feedback","1","test","16","","","","","","","",""
"","","","","","","","","","","","html-button-response","237","2.0.0","978882","66946e3054a30a2bf5b1be40","1","36","296","","","","","","","","","<img src= ""rock_img/I_Pumice_05.jpg"" style=""width:8cm; height:7.25cm;""><p>What type of rock is this?</p>","0","class_response","1","test","17","Andesite","Pumice","05","false","1","8","",""
"","","","","","","","","","","","html-keyboard-response","238","2.0.0","979382","66946e3054a30a2bf5b1be40","1","36","null","","","","","","","","","<p style='font-size: 30px;'><strong>Okay</strong></p>","null","neutral_feedback","1","test","17","","","","","","","",""
"","","","","","","","","","","","html-button-response","239","2.0.0","979730","66946e3054a30a2bf5b1be40","1","36","347","","","","","","","","","<img src= ""rock_img/I_Pegmatite_12.jpg"" style=""width:8cm; height:5.7cm;""><p>What type of rock is this?</p>","6","class_response","1","test","18","Peridotite","Pegmatite","12","false","7","6","",""
"","","","","","","","","","","","html-keyboard-response","240","2.0.0","980232","66946e3054a30a2bf5b1be40","1","36","null","","","","","","","","","<p style='font-size: 30px;'><strong>Okay</strong></p>","null","neutral_feedback","1","test","18","","","","","","","",""
"","","","","","","","","","","","html-button-response","241","2.0.0","980901","66946e3054a30a2bf5b1be40","1","36","669","","","","","","","","","<img src= ""rock_img/I_Pumice_13.jpg"" style=""width:8cm; height:8.200000000000001cm;""><p>What type of rock is this?</p>","2","class_response","1","test","19","Diorite","Pumice","13","false","3","8","",""
"","","","","","","","","","","","html-keyboard-response","242","2.0.0","981404","66946e3054a30a2bf5b1be40","1","36","null","","","","","","","","","<p style='font-size: 30px;'><strong>Okay</strong></p>","null","neutral_feedback","1","test","19","","","","","","","",""
"","","","","","","","","","","","html-button-response","243","2.0.0","981753","66946e3054a30a2bf5b1be40","1","36","349","","","","","","","","","<img src= ""rock_img/I_Pegmatite_08.jpg"" style=""width:8cm; height:7.68cm;""><p>What type of rock is this?</p>","7","class_response","1","test","20","Pumice","Pegmatite","08","false","8","6","",""
"","","","","","","","","","","","html-keyboard-response","244","2.0.0","982254","66946e3054a30a2bf5b1be40","1","36","null","","","","","","","","","<p style='font-size: 30px;'><strong>Okay</strong></p>","null","neutral_feedback","1","test","20","","","","","","","",""
"","","","","","","","","","","","html-button-response","245","2.0.0","982724","66946e3054a30a2bf5b1be40","1","36","469","","","","","","","","","<img src= ""rock_img/I_Diorite_16.jpg"" style=""width:8cm; height:6.74cm;""><p>What type of rock is this?</p>","1","class_response","1","test","21","Basalt","Diorite","16","false","2","3","",""
"","","","","","","","","","","","html-keyboard-response","246","2.0.0","983225","66946e3054a30a2bf5b1be40","1","36","null","","","","","","","","","<p style='font-size: 30px;'><strong>Okay</strong></p>","null","neutral_feedback","1","test","21","","","","","","","",""
"","","","","","","","","","","","html-button-response","247","2.0.0","983986","66946e3054a30a2bf5b1be40","1","36","761","","","","","","","","","<img src= ""rock_img/I_Pegmatite_15.jpg"" style=""width:8cm; height:6cm;""><p>What type of rock is this?</p>","5","class_response","1","test","22","Pegmatite","Pegmatite","15","true","6","6","",""
"","","","","","","","","","","","html-keyboard-response","248","2.0.0","984488","66946e3054a30a2bf5b1be40","1","36","null","","","","","","","","","<p style='font-size: 30px;'><strong>Okay</strong></p>","null","neutral_feedback","1","test","22","","","","","","","",""
"","","","","","","","","","","","html-button-response","249","2.0.0","984950","66946e3054a30a2bf5b1be40","1","36","462","","","","","","","","","<img src= ""rock_img/I_Peridotite_12.jpg"" style=""width:8cm; height:4.54cm;""><p>What type of rock is this?</p>","3","class_response","1","test","23","Gabbro","Peridotite","12","false","4","7","",""
"","","","","","","","","","","","html-keyboard-response","250","2.0.0","985457","66946e3054a30a2bf5b1be40","1","36","null","","","","","","","","","<p style='font-size: 30px;'><strong>Okay</strong></p>","null","neutral_feedback","1","test","23","","","","","","","",""
"","","","","","","","","","","","html-button-response","251","2.0.0","986398","66946e3054a30a2bf5b1be40","1","36","940","","","","","","","","","<img src= ""rock_img/I_Obsidian_12.jpg"" style=""width:8cm; height:6.53cm;""><p>What type of rock is this?</p>","2","class_response","1","test","24","Diorite","Obsidian","12","false","3","5","",""
"","","","","","","","","","","","html-keyboard-response","252","2.0.0","986903","66946e3054a30a2bf5b1be40","1","36","null","","","","","","","","","<p style='font-size: 30px;'><strong>Okay</strong></p>","null","neutral_feedback","1","test","24","","","","","","","",""
"","","","","","","","","","","","html-button-response","253","2.0.0","987422","66946e3054a30a2bf5b1be40","1","36","519","","","","","","","","","<img src= ""rock_img/I_Pumice_02.jpg"" style=""width:8cm; height:7.3999999999999995cm;""><p>What type of rock is this?</p>","1","class_response","1","test","25","Basalt","Pumice","02","false","2","8","",""
"","","","","","","","","","","","html-keyboard-response","254","2.0.0","987923","66946e3054a30a2bf5b1be40","1","36","null","","","","","","","","","<p style='font-size: 30px;'><strong>Okay</strong></p>","null","neutral_feedback","1","test","25","","","","","","","",""
"","","","","","","","","","","","html-button-response","255","2.0.0","988194","66946e3054a30a2bf5b1be40","1","36","271","","","","","","","","","<img src= ""rock_img/I_Diorite_14.jpg"" style=""width:8cm; height:5.71cm;""><p>What type of rock is this?</p>","6","class_response","1","test","26","Peridotite","Diorite","14","false","7","3","",""
"","","","","","","","","","","","html-keyboard-response","256","2.0.0","988697","66946e3054a30a2bf5b1be40","1","36","null","","","","","","","","","<p style='font-size: 30px;'><strong>Okay</strong></p>","null","neutral_feedback","1","test","26","","","","","","","",""
"","","","","","","","","","","","html-button-response","257","2.0.0","989869","66946e3054a30a2bf5b1be40","1","36","1172","","","","","","","","","<img src= ""rock_img/I_Basalt_16.jpg"" style=""width:8cm; height:7.659999999999999cm;""><p>What type of rock is this?</p>","1","class_response","1","test","27","Basalt","Basalt","16","true","2","2","",""
"","","","","","","","","","","","html-keyboard-response","258","2.0.0","990372","66946e3054a30a2bf5b1be40","1","36","null","","","","","","","","","<p style='font-size: 30px;'><strong>Okay</strong></p>","null","neutral_feedback","1","test","27","","","","","","","",""
"","","","","","","","","","","","html-button-response","259","2.0.0","990838","66946e3054a30a2bf5b1be40","1","36","466","","","","","","","","","<img src= ""rock_img/I_Gabbro_08.jpg"" style=""width:8cm; height:5.15cm;""><p>What type of rock is this?</p>","7","class_response","1","test","28","Pumice","Gabbro","08","false","8","4","",""
"","","","","","","","","","","","html-keyboard-response","260","2.0.0","991339","66946e3054a30a2bf5b1be40","1","36","null","","","","","","","","","<p style='font-size: 30px;'><strong>Okay</strong></p>","null","neutral_feedback","1","test","28","","","","","","","",""
"","","","","","","","","","","","html-button-response","261","2.0.0","991820","66946e3054a30a2bf5b1be40","1","36","480","","","","","","","","","<img src= ""rock_img/I_Basalt_02.jpg"" style=""width:8cm; height:6.45cm;""><p>What type of rock is this?</p>","2","class_response","1","test","29","Diorite","Basalt","02","false","3","2","",""
"","","","","","","","","","","","html-keyboard-response","262","2.0.0","992320","66946e3054a30a2bf5b1be40","1","36","null","","","","","","","","","<p style='font-size: 30px;'><strong>Okay</strong></p>","null","neutral_feedback","1","test","29","","","","","","","",""
"","","","","","","","","","","","html-button-response","263","2.0.0","992753","66946e3054a30a2bf5b1be40","1","36","432","","","","","","","","","<img src= ""rock_img/I_Gabbro_15.jpg"" style=""width:8cm; height:6.29cm;""><p>What type of rock is this?</p>","6","class_response","1","test","30","Peridotite","Gabbro","15","false","7","4","",""
"","","","","","","","","","","","html-keyboard-response","264","2.0.0","993256","66946e3054a30a2bf5b1be40","1","36","null","","","","","","","","","<p style='font-size: 30px;'><strong>Okay</strong></p>","null","neutral_feedback","1","test","30","","","","","","","",""
"","","","","","","","","","","","html-button-response","265","2.0.0","993749","66946e3054a30a2bf5b1be40","1","36","493","","","","","","","","","<img src= ""rock_img/I_Gabbro_01.jpg"" style=""width:8cm; height:5.21cm;""><p>What type of rock is this?</p>","3","class_response","1","test","31","Gabbro","Gabbro","01","true","4","4","",""
"","","","","","","","","","","","html-keyboard-response","266","2.0.0","994252","66946e3054a30a2bf5b1be40","1","36","null","","","","","","","","","<p style='font-size: 30px;'><strong>Okay</strong></p>","null","neutral_feedback","1","test","31","","","","","","","",""
"","","","","","","","","","","","html-button-response","267","2.0.0","994775","66946e3054a30a2bf5b1be40","1","36","523","","","","","","","","","<img src= ""rock_img/I_Pumice_16.jpg"" style=""width:8cm; height:6.79cm;""><p>What type of rock is this?</p>","1","class_response","1","test","32","Basalt","Pumice","16","false","2","8","",""
"","","","","","","","","","","","html-keyboard-response","268","2.0.0","995277","66946e3054a30a2bf5b1be40","1","36","null","","","","","","","","","<p style='font-size: 30px;'><strong>Okay</strong></p>","null","neutral_feedback","1","test","32","","","","","","","",""
"","","","","","","","","","","","html-button-response","269","2.0.0","995860","66946e3054a30a2bf5b1be40","1","36","582","","","","","","","","","<img src= ""rock_img/I_Pegmatite_11.jpg"" style=""width:8cm; height:8.14cm;""><p>What type of rock is this?</p>","0","class_response","1","test","33","Andesite","Pegmatite","11","false","1","6","",""
"","","","","","","","","","","","html-keyboard-response","270","2.0.0","996361","66946e3054a30a2bf5b1be40","1","36","null","","","","","","","","","<p style='font-size: 30px;'><strong>Okay</strong></p>","null","neutral_feedback","1","test","33","","","","","","","",""
"","","","","","","","","","","","html-button-response","271","2.0.0","996881","66946e3054a30a2bf5b1be40","1","36","520","","","","","","","","","<img src= ""rock_img/I_Gabbro_05.jpg"" style=""width:8cm; height:6cm;""><p>What type of rock is this?</p>","5","class_response","1","test","34","Pegmatite","Gabbro","05","false","6","4","",""
"","","","","","","","","","","","html-keyboard-response","272","2.0.0","997392","66946e3054a30a2bf5b1be40","1","36","null","","","","","","","","","<p style='font-size: 30px;'><strong>Okay</strong></p>","null","neutral_feedback","1","test","34","","","","","","","",""
"","","","","","","","","","","","html-button-response","273","2.0.0","997626","66946e3054a30a2bf5b1be40","1","36","234","","","","","","","","","<img src= ""rock_img/I_Andesite_09.jpg"" style=""width:8cm; height:6cm;""><p>What type of rock is this?</p>","2","class_response","1","test","35","Diorite","Andesite","09","false","3","1","",""
"","","","","","","","","","","","html-keyboard-response","274","2.0.0","998142","66946e3054a30a2bf5b1be40","1","36","null","","","","","","","","","<p style='font-size: 30px;'><strong>Okay</strong></p>","null","neutral_feedback","1","test","35","","","","","","","",""
"","","","","","","","","","","","html-button-response","275","2.0.0","998509","66946e3054a30a2bf5b1be40","1","36","366","","","","","","","","","<img src= ""rock_img/I_Diorite_08.jpg"" style=""width:8cm; height:6.37cm;""><p>What type of rock is this?</p>","6","class_response","1","test","36","Peridotite","Diorite","08","false","7","3","",""
"","","","","","","","","","","","html-keyboard-response","276","2.0.0","999010","66946e3054a30a2bf5b1be40","1","36","null","","","","","","","","","<p style='font-size: 30px;'><strong>Okay</strong></p>","null","neutral_feedback","1","test","36","","","","","","","",""
"","","","","","","","","","","","html-button-response","277","2.0.0","999434","66946e3054a30a2bf5b1be40","1","36","424","","","","","","","","","<img src= ""rock_img/I_Peridotite_15.jpg"" style=""width:8cm; height:6cm;""><p>What type of rock is this?</p>","1","class_response","1","test","37","Basalt","Peridotite","15","false","2","7","",""
"","","","","","","","","","","","html-keyboard-response","278","2.0.0","999935","66946e3054a30a2bf5b1be40","1","36","null","","","","","","","","","<p style='font-size: 30px;'><strong>Okay</strong></p>","null","neutral_feedback","1","test","37","","","","","","","",""
"","","","","","","","","","","","html-button-response","279","2.0.0","1000297","66946e3054a30a2bf5b1be40","1","36","361","","","","","","","","","<img src= ""rock_img/I_Obsidian_09.jpg"" style=""width:8cm; height:5cm;""><p>What type of rock is this?</p>","2","class_response","1","test","38","Diorite","Obsidian","09","false","3","5","",""
"","","","","","","","","","","","html-keyboard-response","280","2.0.0","1000799","66946e3054a30a2bf5b1be40","1","36","null","","","","","","","","","<p style='font-size: 30px;'><strong>Okay</strong></p>","null","neutral_feedback","1","test","38","","","","","","","",""
"","","","","","","","","","","","html-button-response","281","2.0.0","1001157","66946e3054a30a2bf5b1be40","1","36","358","","","","","","","","","<img src= ""rock_img/I_Basalt_06.jpg"" style=""width:8cm; height:7.06cm;""><p>What type of rock is this?</p>","2","class_response","1","test","39","Diorite","Basalt","06","false","3","2","",""
"","","","","","","","","","","","html-keyboard-response","282","2.0.0","1001658","66946e3054a30a2bf5b1be40","1","36","null","","","","","","","","","<p style='font-size: 30px;'><strong>Okay</strong></p>","null","neutral_feedback","1","test","39","","","","","","","",""
"","","","","","","","","","","","html-button-response","283","2.0.0","1001977","66946e3054a30a2bf5b1be40","1","36","318","","","","","","","","","<img src= ""rock_img/I_Pegmatite_16.jpg"" style=""width:8cm; height:5.8cm;""><p>What type of rock is this?</p>","5","class_response","1","test","40","Pegmatite","Pegmatite","16","true","6","6","",""
"","","","","","","","","","","","html-keyboard-response","284","2.0.0","1002482","66946e3054a30a2bf5b1be40","1","36","null","","","","","","","","","<p style='font-size: 30px;'><strong>Okay</strong></p>","null","neutral_feedback","1","test","40","","","","","","","",""
"","","","","","","","","","","","html-button-response","285","2.0.0","1002974","66946e3054a30a2bf5b1be40","1","36","491","","","","","","","","","<img src= ""rock_img/I_Peridotite_07.jpg"" style=""width:8cm; height:4.83cm;""><p>What type of rock is this?</p>","4","class_response","1","test","41","Obsidian","Peridotite","07","false","5","7","",""
"","","","","","","","","","","","html-keyboard-response","286","2.0.0","1003475","66946e3054a30a2bf5b1be40","1","36","null","","","","","","","","","<p style='font-size: 30px;'><strong>Okay</strong></p>","null","neutral_feedback","1","test","41","","","","","","","",""
"","","","","","","","","","","","html-button-response","287","2.0.0","1003748","66946e3054a30a2bf5b1be40","1","36","272","","","","","","","","","<img src= ""rock_img/I_Andesite_14.jpg"" style=""width:8cm; height:5.449999999999999cm;""><p>What type of rock is this?</p>","1","class_response","1","test","42","Basalt","Andesite","14","false","2","1","",""
"","","","","","","","","","","","html-keyboard-response","288","2.0.0","1004250","66946e3054a30a2bf5b1be40","1","36","null","","","","","","","","","<p style='font-size: 30px;'><strong>Okay</strong></p>","null","neutral_feedback","1","test","42","","","","","","","",""
"","","","","","","","","","","","html-button-response","289","2.0.0","1004525","66946e3054a30a2bf5b1be40","1","36","274","","","","","","","","","<img src= ""rock_img/I_Peridotite_14.jpg"" style=""width:8cm; height:5.3cm;""><p>What type of rock is this?</p>","6","class_response","1","test","43","Peridotite","Peridotite","14","true","7","7","",""
"","","","","","","","","","","","html-keyboard-response","290","2.0.0","1005025","66946e3054a30a2bf5b1be40","1","36","null","","","","","","","","","<p style='font-size: 30px;'><strong>Okay</strong></p>","null","neutral_feedback","1","test","43","","","","","","","",""
"","","","","","","","","","","","html-button-response","291","2.0.0","1006334","66946e3054a30a2bf5b1be40","1","36","1308","","","","","","","","","<img src= ""rock_img/I_Obsidian_16.jpg"" style=""width:8cm; height:9.3cm;""><p>What type of rock is this?</p>","4","class_response","1","test","44","Obsidian","Obsidian","16","true","5","5","",""
"","","","","","","","","","","","html-keyboard-response","292","2.0.0","1006836","66946e3054a30a2bf5b1be40","1","36","null","","","","","","","","","<p style='font-size: 30px;'><strong>Okay</strong></p>","null","neutral_feedback","1","test","44","","","","","","","",""
"","","","","","","","","","","","html-button-response","293","2.0.0","1007090","66946e3054a30a2bf5b1be40","1","36","254","","","","","","","","","<img src= ""rock_img/I_Diorite_06.jpg"" style=""width:8cm; height:6.03cm;""><p>What type of rock is this?</p>","6","class_response","1","test","45","Peridotite","Diorite","06","false","7","3","",""
"","","","","","","","","","","","html-keyboard-response","294","2.0.0","1007592","66946e3054a30a2bf5b1be40","1","36","null","","","","","","","","","<p style='font-size: 30px;'><strong>Okay</strong></p>","null","neutral_feedback","1","test","45","","","","","","","",""
"","","","","","","","","","","","html-button-response","295","2.0.0","1008064","66946e3054a30a2bf5b1be40","1","36","471","","","","","","","","","<img src= ""rock_img/I_Peridotite_10.jpg"" style=""width:8cm; height:5.390000000000001cm;""><p>What type of rock is this?</p>","3","class_response","1","test","46","Gabbro","Peridotite","10","false","4","7","",""
"","","","","","","","","","","","html-keyboard-response","296","2.0.0","1008568","66946e3054a30a2bf5b1be40","1","36","null","","","","","","","","","<p style='font-size: 30px;'><strong>Okay</strong></p>","null","neutral_feedback","1","test","46","","","","","","","",""
"","","","","","","","","","","","html-button-response","297","2.0.0","1009075","66946e3054a30a2bf5b1be40","1","36","507","","","","","","","","","<img src= ""rock_img/I_Basalt_08.jpg"" style=""width:8cm; height:10.44cm;""><p>What type of rock is this?</p>","1","class_response","1","test","47","Basalt","Basalt","08","true","2","2","",""
"","","","","","","","","","","","html-keyboard-response","298","2.0.0","1009576","66946e3054a30a2bf5b1be40","1","36","null","","","","","","","","","<p style='font-size: 30px;'><strong>Okay</strong></p>","null","neutral_feedback","1","test","47","","","","","","","",""
"","","","","","","","","","","","html-button-response","299","2.0.0","1010032","66946e3054a30a2bf5b1be40","1","36","455","","","","","","","","","<img src= ""rock_img/I_Andesite_02.jpg"" style=""width:8cm; height:8.5cm;""><p>What type of rock is this?</p>","7","class_response","1","test","48","Pumice","Andesite","02","false","8","1","",""
"","","","","","","","","","","","html-keyboard-response","300","2.0.0","1010535","66946e3054a30a2bf5b1be40","1","36","null","","","","","","","","","<p style='font-size: 30px;'><strong>Okay</strong></p>","null","neutral_feedback","1","test","48","","","","","","","",""
"","","","","","","","","","","","html-button-response","301","2.0.0","1015372","66946e3054a30a2bf5b1be40","1","36","","","","","","","","","","","","cycle_feedback","","","","","","","","","","2510.900000035763","2324.5"
"","","","","","","","","","","","html-button-response","303","2.0.0","1016385","66946e3054a30a2bf5b1be40","1","36","1012","","","","","","","","","","0","start_train","","","","","","","","","","",""
"","","","","","","","","","","","html-button-response","304","2.0.0","1016972","66946e3054a30a2bf5b1be40","1","36","585","","","","","","","","","<img src= ""rock_img/I_Diorite_09.jpg"" style=""width:8cm; height:5.27cm;""><p>What type of rock is this?</p>","2","class_response","2","train","1","Diorite","Diorite","09","true","3","3","",""
