"width","height","webaudio","browser","browser_version","mobile","os","fullscreen","vsync_rate","webcam","microphone","trial_type","trial_index","plugin_version","time_elapsed","subjID","condition","stimID","rt","url","success","value","timeout","failed_images","failed_audio","failed_video","view_history","stimulus","response","trialType","cycle","phase","trial","resp","cat","token","corr","resp_num","cat_num","time_fb1","time_fb2"
"1366","599","true","chrome","131.0.0","false","Windows 10","true","1.35","true","true","browser-check","0","2.0.0","44412","66642e662f34ff5f86f505f2","1","54","","","","","","","","","","","","","","","","","","","","","","",""
"","","","","","","","","","","","external-html","1","2.0.0","58023","66642e662f34ff5f86f505f2","1","54","13094","consent_form.html","","","","","","","","","","","","","","","","","","","","",""
"","","","","","","","","","","","fullscreen","2","2.0.0","61688","66642e662f34ff5f86f505f2","1","54","2647","","true","","","","","","","","","","","","","","","","","","","",""
"","","","","","","","","","","","call-function","3","2.0.0","61692","66642e662f34ff5f86f505f2","1","54","","","","{}","","","","","","","","","","","","","","","","","","",""
"","","","","","","","","","","","preload","4","2.0.0","80350","66642e662f34ff5f86f505f2","1","54","","","true","","false","[]","[]","[]","","","","","","","","","","","","","","",""
"","","","","","","","","","","","instructions","5","2.0.0","356855","66642e662f34ff5f86f505f2","1","54","276504","","","","","","","","[{""page_index"":0,""viewing_time"":46136},{""page_index"":1,""viewing_time"":209191},{""page_index"":2,""viewing_time"":21176}]","","","","","","","","","","","","","",""
"","","","","","","","","","","","html-button-response","6","2.0.0","361957","66642e662f34ff5f86f505f2","1","54","5100","","","","","","","","","","0","start_test","","","","","","","","","","",""
"","","","","","","","","","","","html-button-response","7","2.0.0","365379","66642e662f34ff5f86f505f2","1","54","3419","","","","","","","","","<img src= ""rock_img/I_Andesite_16.jpg"" style=""width:8cm; height:6.010000000000001cm;""><p>What type of rock is this?</p>","1","class_response","0","test","1","Basalt","Andesite","16","false","2","1","",""
"","","","","","","","","","","","html-keyboard-response","8","2.0.0","365894","66642e662f34ff5f86f505f2","1","54","null","","","","","","","","","<p style='font-size: 30px;'><strong>Okay</strong></p>","null","neutral_feedback","0","test","1","","","","","","","",""
"","","","","","","","","","","","html-button-response","9","2.0.0","370924","66642e662f34ff5f86f505f2","1","54","5028","","","","","","","","","<img src= ""rock_img/I_Pumice_05.jpg"" style=""width:8cm; height:7.25cm;""><p>What type of rock is this?</p>","5","class_response","0","test","2","Pegmatite","Pumice","05","false","6","8","",""
"","","","","","","","","","","","html-keyboard-response","10","2.0.0","371427","66642e662f34ff5f86f505f2","1","54","null","","","","","","","","","<p style='font-size: 30px;'><strong>Okay</strong></p>","null","neutral_feedback","0","test","2","","","","","","","",""
"","","","","","","","","","","","html-button-response","11","2.0.0","373510","66642e662f34ff5f86f505f2","1","54","2080","","","","","","","","","<img src= ""rock_img/I_Diorite_09.jpg"" style=""width:8cm; height:5.27cm;""><p>What type of rock is this?</p>","6","class_response","0","test","3","Peridotite","Diorite","09","false","7","3","",""
"","","","","","","","","","","","html-keyboard-response","12","2.0.0","374023","66642e662f34ff5f86f505f2","1","54","null","","","","","","","","","<p style='font-size: 30px;'><strong>Okay</strong></p>","null","neutral_feedback","0","test","3","","","","","","","",""
"","","","","","","","","","","","html-button-response","13","2.0.0","376597","66642e662f34ff5f86f505f2","1","54","2572","","","","","","","","","<img src= ""rock_img/I_Pegmatite_06.jpg"" style=""width:8cm; height:5.17cm;""><p>What type of rock is this?</p>","4","class_response","0","test","4","Obsidian","Pegmatite","06","false","5","6","",""
"","","","","","","","","","","","html-keyboard-response","14","2.0.0","377109","66642e662f34ff5f86f505f2","1","54","null","","","","","","","","","<p style='font-size: 30px;'><strong>Okay</strong></p>","null","neutral_feedback","0","test","4","","","","","","","",""
"","","","","","","","","","","","html-button-response","15","2.0.0","379354","66642e662f34ff5f86f505f2","1","54","2242","","","","","","","","","<img src= ""rock_img/I_Peridotite_12.jpg"" style=""width:8cm; height:4.54cm;""><p>What type of rock is this?</p>","0","class_response","0","test","5","Andesite","Peridotite","12","false","1","7","",""
"","","","","","","","","","","","html-keyboard-response","16","2.0.0","379860","66642e662f34ff5f86f505f2","1","54","null","","","","","","","","","<p style='font-size: 30px;'><strong>Okay</strong></p>","null","neutral_feedback","0","test","5","","","","","","","",""
"","","","","","","","","","","","html-button-response","17","2.0.0","381906","66642e662f34ff5f86f505f2","1","54","2043","","","","","","","","","<img src= ""rock_img/I_Gabbro_03.jpg"" style=""width:8cm; height:8.52cm;""><p>What type of rock is this?</p>","2","class_response","0","test","6","Diorite","Gabbro","03","false","3","4","",""
"","","","","","","","","","","","html-keyboard-response","18","2.0.0","382423","66642e662f34ff5f86f505f2","1","54","null","","","","","","","","","<p style='font-size: 30px;'><strong>Okay</strong></p>","null","neutral_feedback","0","test","6","","","","","","","",""
"","","","","","","","","","","","html-button-response","19","2.0.0","386431","66642e662f34ff5f86f505f2","1","54","4006","","","","","","","","","<img src= ""rock_img/I_Diorite_14.jpg"" style=""width:8cm; height:5.71cm;""><p>What type of rock is this?</p>","6","class_response","0","test","7","Peridotite","Diorite","14","false","7","3","",""
"","","","","","","","","","","","html-keyboard-response","20","2.0.0","386940","66642e662f34ff5f86f505f2","1","54","null","","","","","","","","","<p style='font-size: 30px;'><strong>Okay</strong></p>","null","neutral_feedback","0","test","7","","","","","","","",""
"","","","","","","","","","","","html-button-response","21","2.0.0","389472","66642e662f34ff5f86f505f2","1","54","2530","","","","","","","","","<img src= ""rock_img/I_Andesite_09.jpg"" style=""width:8cm; height:6cm;""><p>What type of rock is this?</p>","3","class_response","0","test","8","Gabbro","Andesite","09","false","4","1","",""
"","","","","","","","","","","","html-keyboard-response","22","2.0.0","389975","66642e662f34ff5f86f505f2","1","54","null","","","","","","","","","<p style='font-size: 30px;'><strong>Okay</strong></p>","null","neutral_feedback","0","test","8","","","","","","","",""
"","","","","","","","","","","","html-button-response","23","2.0.0","392017","66642e662f34ff5f86f505f2","1","54","2040","","","","","","","","","<img src= ""rock_img/I_Peridotite_15.jpg"" style=""width:8cm; height:6cm;""><p>What type of rock is this?</p>","7","class_response","0","test","9","Pumice","Peridotite","15","false","8","7","",""
"","","","","","","","","","","","html-keyboard-response","24","2.0.0","392526","66642e662f34ff5f86f505f2","1","54","null","","","","","","","","","<p style='font-size: 30px;'><strong>Okay</strong></p>","null","neutral_feedback","0","test","9","","","","","","","",""
"","","","","","","","","","","","html-button-response","25","2.0.0","395223","66642e662f34ff5f86f505f2","1","54","2693","","","","","","","","","<img src= ""rock_img/I_Pegmatite_10.jpg"" style=""width:8cm; height:4.16cm;""><p>What type of rock is this?</p>","7","class_response","0","test","10","Pumice","Pegmatite","10","false","8","6","",""
"","","","","","","","","","","","html-keyboard-response","26","2.0.0","395727","66642e662f34ff5f86f505f2","1","54","null","","","","","","","","","<p style='font-size: 30px;'><strong>Okay</strong></p>","null","neutral_feedback","0","test","10","","","","","","","",""
"","","","","","","","","","","","html-button-response","27","2.0.0","398908","66642e662f34ff5f86f505f2","1","54","3179","","","","","","","","","<img src= ""rock_img/I_Obsidian_16.jpg"" style=""width:8cm; height:9.3cm;""><p>What type of rock is this?</p>","4","class_response","0","test","11","Obsidian","Obsidian","16","true","5","5","",""
"","","","","","","","","","","","html-keyboard-response","28","2.0.0","399411","66642e662f34ff5f86f505f2","1","54","null","","","","","","","","","<p style='font-size: 30px;'><strong>Okay</strong></p>","null","neutral_feedback","0","test","11","","","","","","","",""
"","","","","","","","","","","","html-button-response","29","2.0.0","403742","66642e662f34ff5f86f505f2","1","54","4328","","","","","","","","","<img src= ""rock_img/I_Andesite_11.jpg"" style=""width:8cm; height:4.92cm;""><p>What type of rock is this?</p>","2","class_response","0","test","12","Diorite","Andesite","11","false","3","1","",""
"","","","","","","","","","","","html-keyboard-response","30","2.0.0","404255","66642e662f34ff5f86f505f2","1","54","null","","","","","","","","","<p style='font-size: 30px;'><strong>Okay</strong></p>","null","neutral_feedback","0","test","12","","","","","","","",""
"","","","","","","","","","","","html-button-response","31","2.0.0","407388","66642e662f34ff5f86f505f2","1","54","3130","","","","","","","","","<img src= ""rock_img/I_Peridotite_05.jpg"" style=""width:8cm; height:7.1499999999999995cm;""><p>What type of rock is this?</p>","1","class_response","0","test","13","Basalt","Peridotite","05","false","2","7","",""
"","","","","","","","","","","","html-keyboard-response","32","2.0.0","407892","66642e662f34ff5f86f505f2","1","54","null","","","","","","","","","<p style='font-size: 30px;'><strong>Okay</strong></p>","null","neutral_feedback","0","test","13","","","","","","","",""
"","","","","","","","","","","","html-button-response","33","2.0.0","410155","66642e662f34ff5f86f505f2","1","54","2260","","","","","","","","","<img src= ""rock_img/I_Obsidian_14.jpg"" style=""width:8cm; height:7.64cm;""><p>What type of rock is this?</p>","4","class_response","0","test","14","Obsidian","Obsidian","14","true","5","5","",""
"","","","","","","","","","","","html-keyboard-response","34","2.0.0","410666","66642e662f34ff5f86f505f2","1","54","null","","","","","","","","","<p style='font-size: 30px;'><strong>Okay</strong></p>","null","neutral_feedback","0","test","14","","","","","","","",""
"","","","","","","","","","","","html-button-response","35","2.0.0","413471","66642e662f34ff5f86f505f2","1","54","2803","","","","","","","","","<img src= ""rock_img/I_Gabbro_09.jpg"" style=""width:8cm; height:7.279999999999999cm;""><p>What type of rock is this?</p>","5","class_response","0","test","15","Pegmatite","Gabbro","09","false","6","4","",""
"","","","","","","","","","","","html-keyboard-response","36","2.0.0","413979","66642e662f34ff5f86f505f2","1","54","null","","","","","","","","","<p style='font-size: 30px;'><strong>Okay</strong></p>","null","neutral_feedback","0","test","15","","","","","","","",""
"","","","","","","","","","","","html-button-response","37","2.0.0","417367","66642e662f34ff5f86f505f2","1","54","3385","","","","","","","","","<img src= ""rock_img/I_Peridotite_07.jpg"" style=""width:8cm; height:4.83cm;""><p>What type of rock is this?</p>","6","class_response","0","test","16","Peridotite","Peridotite","07","true","7","7","",""
"","","","","","","","","","","","html-keyboard-response","38","2.0.0","417873","66642e662f34ff5f86f505f2","1","54","null","","","","","","","","","<p style='font-size: 30px;'><strong>Okay</strong></p>","null","neutral_feedback","0","test","16","","","","","","","",""
"","","","","","","","","","","","html-button-response","39","2.0.0","420184","66642e662f34ff5f86f505f2","1","54","2308","","","","","","","","","<img src= ""rock_img/I_Pegmatite_05.jpg"" style=""width:8cm; height:7.300000000000001cm;""><p>What type of rock is this?</p>","6","class_response","0","test","17","Peridotite","Pegmatite","05","false","7","6","",""
"","","","","","","","","","","","html-keyboard-response","40","2.0.0","420689","66642e662f34ff5f86f505f2","1","54","null","","","","","","","","","<p style='font-size: 30px;'><strong>Okay</strong></p>","null","neutral_feedback","0","test","17","","","","","","","",""
"","","","","","","","","","","","html-button-response","41","2.0.0","422674","66642e662f34ff5f86f505f2","1","54","1982","","","","","","","","","<img src= ""rock_img/I_Gabbro_08.jpg"" style=""width:8cm; height:5.15cm;""><p>What type of rock is this?</p>","0","class_response","0","test","18","Andesite","Gabbro","08","false","1","4","",""
"","","","","","","","","","","","html-keyboard-response","42","2.0.0","423178","66642e662f34ff5f86f505f2","1","54","null","","","","","","","","","<p style='font-size: 30px;'><strong>Okay</strong></p>","null","neutral_feedback","0","test","18","","","","","","","",""
"","","","","","","","","","","","html-button-response","43","2.0.0","425717","66642e662f34ff5f86f505f2","1","54","2537","","","","","","","","","<img src= ""rock_img/I_Obsidian_05.jpg"" style=""width:8cm; height:6.33cm;""><p>What type of rock is this?</p>","3","class_response","0","test","19","Gabbro","Obsidian","05","false","4","5","",""
"","","","","","","","","","","","html-keyboard-response","44","2.0.0","426225","66642e662f34ff5f86f505f2","1","54","null","","","","","","","","","<p style='font-size: 30px;'><strong>Okay</strong></p>","null","neutral_feedback","0","test","19","","","","","","","",""
"","","","","","","","","","","","html-button-response","45","2.0.0","429201","66642e662f34ff5f86f505f2","1","54","2974","","","","","","","","","<img src= ""rock_img/I_Pumice_04.jpg"" style=""width:8cm; height:6.819999999999999cm;""><p>What type of rock is this?</p>","2","class_response","0","test","20","Diorite","Pumice","04","false","3","8","",""
"","","","","","","","","","","","html-keyboard-response","46","2.0.0","429709","66642e662f34ff5f86f505f2","1","54","null","","","","","","","","","<p style='font-size: 30px;'><strong>Okay</strong></p>","null","neutral_feedback","0","test","20","","","","","","","",""
"","","","","","","","","","","","html-button-response","47","2.0.0","431837","66642e662f34ff5f86f505f2","1","54","2125","","","","","","","","","<img src= ""rock_img/I_Pegmatite_07.jpg"" style=""width:8cm; height:6.7cm;""><p>What type of rock is this?</p>","7","class_response","0","test","21","Pumice","Pegmatite","07","false","8","6","",""
"","","","","","","","","","","","html-keyboard-response","48","2.0.0","432353","66642e662f34ff5f86f505f2","1","54","null","","","","","","","","","<p style='font-size: 30px;'><strong>Okay</strong></p>","null","neutral_feedback","0","test","21","","","","","","","",""
"","","","","","","","","","","","html-button-response","49","2.0.0","434584","66642e662f34ff5f86f505f2","1","54","2229","","","","","","","","","<img src= ""rock_img/I_Basalt_08.jpg"" style=""width:8cm; height:10.44cm;""><p>What type of rock is this?</p>","4","class_response","0","test","22","Obsidian","Basalt","08","false","5","2","",""
"","","","","","","","","","","","html-keyboard-response","50","2.0.0","435088","66642e662f34ff5f86f505f2","1","54","null","","","","","","","","","<p style='font-size: 30px;'><strong>Okay</strong></p>","null","neutral_feedback","0","test","22","","","","","","","",""
"","","","","","","","","","","","html-button-response","51","2.0.0","437969","66642e662f34ff5f86f505f2","1","54","2879","","","","","","","","","<img src= ""rock_img/I_Obsidian_08.jpg"" style=""width:8cm; height:7.39cm;""><p>What type of rock is this?</p>","4","class_response","0","test","23","Obsidian","Obsidian","08","true","5","5","",""
"","","","","","","","","","","","html-keyboard-response","52","2.0.0","438484","66642e662f34ff5f86f505f2","1","54","null","","","","","","","","","<p style='font-size: 30px;'><strong>Okay</strong></p>","null","neutral_feedback","0","test","23","","","","","","","",""
"","","","","","","","","","","","html-button-response","53","2.0.0","440703","66642e662f34ff5f86f505f2","1","54","2217","","","","","","","","","<img src= ""rock_img/I_Andesite_06.jpg"" style=""width:8cm; height:6.840000000000001cm;""><p>What type of rock is this?</p>","1","class_response","0","test","24","Basalt","Andesite","06","false","2","1","",""
"","","","","","","","","","","","html-keyboard-response","54","2.0.0","441220","66642e662f34ff5f86f505f2","1","54","null","","","","","","","","","<p style='font-size: 30px;'><strong>Okay</strong></p>","null","neutral_feedback","0","test","24","","","","","","","",""
"","","","","","","","","","","","html-button-response","55","2.0.0","443134","66642e662f34ff5f86f505f2","1","54","1912","","","","","","","","","<img src= ""rock_img/I_Diorite_12.jpg"" style=""width:8cm; height:4.88cm;""><p>What type of rock is this?</p>","6","class_response","0","test","25","Peridotite","Diorite","12","false","7","3","",""
"","","","","","","","","","","","html-keyboard-response","56","2.0.0","443652","66642e662f34ff5f86f505f2","1","54","null","","","","","","","","","<p style='font-size: 30px;'><strong>Okay</strong></p>","null","neutral_feedback","0","test","25","","","","","","","",""
"","","","","","","","","","","","html-button-response","57","2.0.0","445618","66642e662f34ff5f86f505f2","1","54","1964","","","","","","","","","<img src= ""rock_img/I_Diorite_10.jpg"" style=""width:8cm; height:5.949999999999999cm;""><p>What type of rock is this?</p>","2","class_response","0","test","26","Diorite","Diorite","10","true","3","3","",""
"","","","","","","","","","","","html-keyboard-response","58","2.0.0","446126","66642e662f34ff5f86f505f2","1","54","null","","","","","","","","","<p style='font-size: 30px;'><strong>Okay</strong></p>","null","neutral_feedback","0","test","26","","","","","","","",""
"","","","","","","","","","","","html-button-response","59","2.0.0","448333","66642e662f34ff5f86f505f2","1","54","2204","","","","","","","","","<img src= ""rock_img/I_Obsidian_10.jpg"" style=""width:8cm; height:6.260000000000001cm;""><p>What type of rock is this?</p>","4","class_response","0","test","27","Obsidian","Obsidian","10","true","5","5","",""
"","","","","","","","","","","","html-keyboard-response","60","2.0.0","448837","66642e662f34ff5f86f505f2","1","54","null","","","","","","","","","<p style='font-size: 30px;'><strong>Okay</strong></p>","null","neutral_feedback","0","test","27","","","","","","","",""
"","","","","","","","","","","","html-button-response","61","2.0.0","451152","66642e662f34ff5f86f505f2","1","54","2312","","","","","","","","","<img src= ""rock_img/I_Basalt_12.jpg"" style=""width:8cm; height:6.010000000000001cm;""><p>What type of rock is this?</p>","5","class_response","0","test","28","Pegmatite","Basalt","12","false","6","2","",""
"","","","","","","","","","","","html-keyboard-response","62","2.0.0","451668","66642e662f34ff5f86f505f2","1","54","null","","","","","","","","","<p style='font-size: 30px;'><strong>Okay</strong></p>","null","neutral_feedback","0","test","28","","","","","","","",""
"","","","","","","","","","","","html-button-response","63","2.0.0","453772","66642e662f34ff5f86f505f2","1","54","2103","","","","","","","","","<img src= ""rock_img/I_Peridotite_13.jpg"" style=""width:8cm; height:7.58cm;""><p>What type of rock is this?</p>","7","class_response","0","test","29","Pumice","Peridotite","13","false","8","7","",""
"","","","","","","","","","","","html-keyboard-response","64","2.0.0","454289","66642e662f34ff5f86f505f2","1","54","null","","","","","","","","","<p style='font-size: 30px;'><strong>Okay</strong></p>","null","neutral_feedback","0","test","29","","","","","","","",""
"","","","","","","","","","","","html-button-response","65","2.0.0","458671","66642e662f34ff5f86f505f2","1","54","4379","","","","","","","","","<img src= ""rock_img/I_Basalt_16.jpg"" style=""width:8cm; height:7.659999999999999cm;""><p>What type of rock is this?</p>","5","class_response","0","test","30","Pegmatite","Basalt","16","false","6","2","",""
"","","","","","","","","","","","html-keyboard-response","66","2.0.0","459173","66642e662f34ff5f86f505f2","1","54","null","","","","","","","","","<p style='font-size: 30px;'><strong>Okay</strong></p>","null","neutral_feedback","0","test","30","","","","","","","",""
"","","","","","","","","","","","html-button-response","67","2.0.0","462318","66642e662f34ff5f86f505f2","1","54","3142","","","","","","","","","<img src= ""rock_img/I_Pegmatite_11.jpg"" style=""width:8cm; height:8.14cm;""><p>What type of rock is this?</p>","7","class_response","0","test","31","Pumice","Pegmatite","11","false","8","6","",""
"","","","","","","","","","","","html-keyboard-response","68","2.0.0","462836","66642e662f34ff5f86f505f2","1","54","null","","","","","","","","","<p style='font-size: 30px;'><strong>Okay</strong></p>","null","neutral_feedback","0","test","31","","","","","","","",""
"","","","","","","","","","","","html-button-response","69","2.0.0","465633","66642e662f34ff5f86f505f2","1","54","2796","","","","","","","","","<img src= ""rock_img/I_Peridotite_04.jpg"" style=""width:8cm; height:6.680000000000001cm;""><p>What type of rock is this?</p>","7","class_response","0","test","32","Pumice","Peridotite","04","false","8","7","",""
"","","","","","","","","","","","html-keyboard-response","70","2.0.0","466141","66642e662f34ff5f86f505f2","1","54","null","","","","","","","","","<p style='font-size: 30px;'><strong>Okay</strong></p>","null","neutral_feedback","0","test","32","","","","","","","",""
"","","","","","","","","","","","html-button-response","71","2.0.0","468218","66642e662f34ff5f86f505f2","1","54","2075","","","","","","","","","<img src= ""rock_img/I_Andesite_02.jpg"" style=""width:8cm; height:8.5cm;""><p>What type of rock is this?</p>","0","class_response","0","test","33","Andesite","Andesite","02","true","1","1","",""
"","","","","","","","","","","","html-keyboard-response","72","2.0.0","468720","66642e662f34ff5f86f505f2","1","54","null","","","","","","","","","<p style='font-size: 30px;'><strong>Okay</strong></p>","null","neutral_feedback","0","test","33","","","","","","","",""
"","","","","","","","","","","","html-button-response","73","2.0.0","471101","66642e662f34ff5f86f505f2","1","54","2380","","","","","","","","","<img src= ""rock_img/I_Gabbro_16.jpg"" style=""width:8cm; height:6.44cm;""><p>What type of rock is this?</p>","2","class_response","0","test","34","Diorite","Gabbro","16","false","3","4","",""
"","","","","","","","","","","","html-keyboard-response","74","2.0.0","471607","66642e662f34ff5f86f505f2","1","54","null","","","","","","","","","<p style='font-size: 30px;'><strong>Okay</strong></p>","null","neutral_feedback","0","test","34","","","","","","","",""
"","","","","","","","","","","","html-button-response","75","2.0.0","473933","66642e662f34ff5f86f505f2","1","54","2323","","","","","","","","","<img src= ""rock_img/I_Basalt_02.jpg"" style=""width:8cm; height:6.45cm;""><p>What type of rock is this?</p>","3","class_response","0","test","35","Gabbro","Basalt","02","false","4","2","",""
"","","","","","","","","","","","html-keyboard-response","76","2.0.0","474444","66642e662f34ff5f86f505f2","1","54","null","","","","","","","","","<p style='font-size: 30px;'><strong>Okay</strong></p>","null","neutral_feedback","0","test","35","","","","","","","",""
"","","","","","","","","","","","html-button-response","77","2.0.0","476866","66642e662f34ff5f86f505f2","1","54","2420","","","","","","","","","<img src= ""rock_img/I_Obsidian_06.jpg"" style=""width:8cm; height:6.8cm;""><p>What type of rock is this?</p>","4","class_response","0","test","36","Obsidian","Obsidian","06","true","5","5","",""
"","","","","","","","","","","","html-keyboard-response","78","2.0.0","477371","66642e662f34ff5f86f505f2","1","54","null","","","","","","","","","<p style='font-size: 30px;'><strong>Okay</strong></p>","null","neutral_feedback","0","test","36","","","","","","","",""
"","","","","","","","","","","","html-button-response","79","2.0.0","479230","66642e662f34ff5f86f505f2","1","54","1857","","","","","","","","","<img src= ""rock_img/I_Basalt_11.jpg"" style=""width:8cm; height:5.359999999999999cm;""><p>What type of rock is this?</p>","5","class_response","0","test","37","Pegmatite","Basalt","11","false","6","2","",""
"","","","","","","","","","","","html-keyboard-response","80","2.0.0","479747","66642e662f34ff5f86f505f2","1","54","null","","","","","","","","","<p style='font-size: 30px;'><strong>Okay</strong></p>","null","neutral_feedback","0","test","37","","","","","","","",""
"","","","","","","","","","","","html-button-response","81","2.0.0","482596","66642e662f34ff5f86f505f2","1","54","2847","","","","","","","","","<img src= ""rock_img/I_Gabbro_15.jpg"" style=""width:8cm; height:6.29cm;""><p>What type of rock is this?</p>","6","class_response","0","test","38","Peridotite","Gabbro","15","false","7","4","",""
"","","","","","","","","","","","html-keyboard-response","82","2.0.0","483102","66642e662f34ff5f86f505f2","1","54","null","","","","","","","","","<p style='font-size: 30px;'><strong>Okay</strong></p>","null","neutral_feedback","0","test","38","","","","","","","",""
"","","","","","","","","","","","html-button-response","83","2.0.0","485135","66642e662f34ff5f86f505f2","1","54","2031","","","","","","","","","<img src= ""rock_img/I_Pumice_13.jpg"" style=""width:8cm; height:8.200000000000001cm;""><p>What type of rock is this?</p>","7","class_response","0","test","39","Pumice","Pumice","13","true","8","8","",""
"","","","","","","","","","","","html-keyboard-response","84","2.0.0","485638","66642e662f34ff5f86f505f2","1","54","null","","","","","","","","","<p style='font-size: 30px;'><strong>Okay</strong></p>","null","neutral_feedback","0","test","39","","","","","","","",""
"","","","","","","","","","","","html-button-response","85","2.0.0","489580","66642e662f34ff5f86f505f2","1","54","3939","","","","","","","","","<img src= ""rock_img/I_Gabbro_10.jpg"" style=""width:8cm; height:5.680000000000001cm;""><p>What type of rock is this?</p>","0","class_response","0","test","40","Andesite","Gabbro","10","false","1","4","",""
"","","","","","","","","","","","html-keyboard-response","86","2.0.0","490084","66642e662f34ff5f86f505f2","1","54","null","","","","","","","","","<p style='font-size: 30px;'><strong>Okay</strong></p>","null","neutral_feedback","0","test","40","","","","","","","",""
"","","","","","","","","","","","html-button-response","87","2.0.0","496867","66642e662f34ff5f86f505f2","1","54","6780","","","","","","","","","<img src= ""rock_img/I_Pumice_08.jpg"" style=""width:8cm; height:6.67cm;""><p>What type of rock is this?</p>","2","class_response","0","test","41","Diorite","Pumice","08","false","3","8","",""
"","","","","","","","","","","","html-keyboard-response","88","2.0.0","497381","66642e662f34ff5f86f505f2","1","54","null","","","","","","","","","<p style='font-size: 30px;'><strong>Okay</strong></p>","null","neutral_feedback","0","test","41","","","","","","","",""
"","","","","","","","","","","","html-button-response","89","2.0.0","501633","66642e662f34ff5f86f505f2","1","54","4249","","","","","","","","","<img src= ""rock_img/I_Pumice_14.jpg"" style=""width:8cm; height:6.39cm;""><p>What type of rock is this?</p>","7","class_response","0","test","42","Pumice","Pumice","14","true","8","8","",""
"","","","","","","","","","","","html-keyboard-response","90","2.0.0","502148","66642e662f34ff5f86f505f2","1","54","null","","","","","","","","","<p style='font-size: 30px;'><strong>Okay</strong></p>","null","neutral_feedback","0","test","42","","","","","","","",""
"","","","","","","","","","","","html-button-response","91","2.0.0","505864","66642e662f34ff5f86f505f2","1","54","3714","","","","","","","","","<img src= ""rock_img/I_Pegmatite_03.jpg"" style=""width:8cm; height:5.239999999999999cm;""><p>What type of rock is this?</p>","6","class_response","0","test","43","Peridotite","Pegmatite","03","false","7","6","",""
"","","","","","","","","","","","html-keyboard-response","92","2.0.0","506371","66642e662f34ff5f86f505f2","1","54","null","","","","","","","","","<p style='font-size: 30px;'><strong>Okay</strong></p>","null","neutral_feedback","0","test","43","","","","","","","",""
"","","","","","","","","","","","html-button-response","93","2.0.0","508346","66642e662f34ff5f86f505f2","1","54","1972","","","","","","","","","<img src= ""rock_img/I_Andesite_10.jpg"" style=""width:8cm; height:4.16cm;""><p>What type of rock is this?</p>","1","class_response","0","test","44","Basalt","Andesite","10","false","2","1","",""
"","","","","","","","","","","","html-keyboard-response","94","2.0.0","508851","66642e662f34ff5f86f505f2","1","54","null","","","","","","","","","<p style='font-size: 30px;'><strong>Okay</strong></p>","null","neutral_feedback","0","test","44","","","","","","","",""
"","","","","","","","","","","","html-button-response","95","2.0.0","514432","66642e662f34ff5f86f505f2","1","54","5579","","","","","","","","","<img src= ""rock_img/I_Diorite_11.jpg"" style=""width:8cm; height:7.11cm;""><p>What type of rock is this?</p>","2","class_response","0","test","45","Diorite","Diorite","11","true","3","3","",""
"","","","","","","","","","","","html-keyboard-response","96","2.0.0","514949","66642e662f34ff5f86f505f2","1","54","null","","","","","","","","","<p style='font-size: 30px;'><strong>Okay</strong></p>","null","neutral_feedback","0","test","45","","","","","","","",""
"","","","","","","","","","","","html-button-response","97","2.0.0","518597","66642e662f34ff5f86f505f2","1","54","3645","","","","","","","","","<img src= ""rock_img/I_Basalt_04.jpg"" style=""width:8cm; height:7.53cm;""><p>What type of rock is this?</p>","3","class_response","0","test","46","Gabbro","Basalt","04","false","4","2","",""
"","","","","","","","","","","","html-keyboard-response","98","2.0.0","519113","66642e662f34ff5f86f505f2","1","54","null","","","","","","","","","<p style='font-size: 30px;'><strong>Okay</strong></p>","null","neutral_feedback","0","test","46","","","","","","","",""
"","","","","","","","","","","","html-button-response","99","2.0.0","529880","66642e662f34ff5f86f505f2","1","54","10765","","","","","","","","","<img src= ""rock_img/I_Pumice_10.jpg"" style=""width:8cm; height:7.609999999999999cm;""><p>What type of rock is this?</p>","7","class_response","0","test","47","Pumice","Pumice","10","true","8","8","",""
"","","","","","","","","","","","html-keyboard-response","100","2.0.0","530397","66642e662f34ff5f86f505f2","1","54","null","","","","","","","","","<p style='font-size: 30px;'><strong>Okay</strong></p>","null","neutral_feedback","0","test","47","","","","","","","",""
"","","","","","","","","","","","html-button-response","101","2.0.0","542159","66642e662f34ff5f86f505f2","1","54","11760","","","","","","","","","<img src= ""rock_img/I_Diorite_02.jpg"" style=""width:8cm; height:6.27cm;""><p>What type of rock is this?</p>","2","class_response","0","test","48","Diorite","Diorite","02","true","3","3","",""
"","","","","","","","","","","","html-keyboard-response","102","2.0.0","542666","66642e662f34ff5f86f505f2","1","54","null","","","","","","","","","<p style='font-size: 30px;'><strong>Okay</strong></p>","null","neutral_feedback","0","test","48","","","","","","","",""
"","","","","","","","","","","","instructions","103","2.0.0","600976","66642e662f34ff5f86f505f2","1","54","58278","","","","","","","","[{""page_index"":0,""viewing_time"":35095},{""page_index"":1,""viewing_time"":14017},{""page_index"":2,""viewing_time"":9167}]","","","","","","","","","","","","","",""
"","","","","","","","","","","","html-button-response","104","2.0.0","605221","66642e662f34ff5f86f505f2","1","54","4243","","","","","","","","","","0","start_train","","","","","","","","","","",""
"","","","","","","","","","","","html-button-response","105","2.0.0","610411","66642e662f34ff5f86f505f2","1","54","5187","","","","","","","","","<img src= ""rock_img/I_Diorite_15.jpg"" style=""width:8cm; height:5.54cm;""><p>What type of rock is this?</p>","5","class_response","1","train","1","Pegmatite","Diorite","15","false","6","3","",""
"","","","","","","","","","","","html-button-response","106","2.0.0","625042","66642e662f34ff5f86f505f2","1","54","14628","","","","","","","","","<img src= rock_img/I_Diorite_15.jpg style=""width:8cm; height:5.54cm;""><p style='font-size: 30px; color: red;'><strong>Incorrect!</strong></p><p style='font-size: 30px;'><strong>This rock is diorite</strong></p>","0","corr_feedback","1","train","1","","","","","","","",""
"","","","","","","","","","","","html-button-response","107","2.0.0","629227","66642e662f34ff5f86f505f2","1","54","4182","","","","","","","","","<img src= ""rock_img/I_Diorite_13.jpg"" style=""width:8cm; height:6.29cm;""><p>What type of rock is this?</p>","7","class_response","1","train","2","Pumice","Diorite","13","false","8","3","",""
"","","","","","","","","","","","html-button-response","108","2.0.0","631190","66642e662f34ff5f86f505f2","1","54","1960","","","","","","","","","<img src= rock_img/I_Diorite_13.jpg style=""width:8cm; height:6.29cm;""><p style='font-size: 30px; color: red;'><strong>Incorrect!</strong></p><p style='font-size: 30px;'><strong>This rock is diorite</strong></p>","0","corr_feedback","1","train","2","","","","","","","",""
"","","","","","","","","","","","html-button-response","109","2.0.0","634620","66642e662f34ff5f86f505f2","1","54","3428","","","","","","","","","<img src= ""rock_img/I_Pumice_03.jpg"" style=""width:8cm; height:6.64cm;""><p>What type of rock is this?</p>","7","class_response","1","train","3","Pumice","Pumice","03","true","8","8","",""
"","","","","","","","","","","","html-button-response","110","2.0.0","636789","66642e662f34ff5f86f505f2","1","54","2168","","","","","","","","","<img src= rock_img/I_Pumice_03.jpg style=""width:8cm; height:6.64cm;""><p style='font-size: 30px; color: green;'><strong>Correct!</strong></p><p style='font-size: 30px;'><strong>This rock is pumice</strong></p>","0","corr_feedback","1","train","3","","","","","","","",""
"","","","","","","","","","","","html-button-response","111","2.0.0","638841","66642e662f34ff5f86f505f2","1","54","2049","","","","","","","","","<img src= ""rock_img/I_Pumice_15.jpg"" style=""width:8cm; height:7.86cm;""><p>What type of rock is this?</p>","7","class_response","1","train","4","Pumice","Pumice","15","true","8","8","",""
"","","","","","","","","","","","html-button-response","112","2.0.0","640774","66642e662f34ff5f86f505f2","1","54","1932","","","","","","","","","<img src= rock_img/I_Pumice_15.jpg style=""width:8cm; height:7.86cm;""><p style='font-size: 30px; color: green;'><strong>Correct!</strong></p><p style='font-size: 30px;'><strong>This rock is pumice</strong></p>","0","corr_feedback","1","train","4","","","","","","","",""
"","","","","","","","","","","","html-button-response","113","2.0.0","642941","66642e662f34ff5f86f505f2","1","54","2165","","","","","","","","","<img src= ""rock_img/I_Basalt_10.jpg"" style=""width:8cm; height:5.85cm;""><p>What type of rock is this?</p>","4","class_response","1","train","5","Obsidian","Basalt","10","false","5","2","",""
"","","","","","","","","","","","html-button-response","114","2.0.0","645295","66642e662f34ff5f86f505f2","1","54","2352","","","","","","","","","<img src= rock_img/I_Basalt_10.jpg style=""width:8cm; height:5.85cm;""><p style='font-size: 30px; color: red;'><strong>Incorrect!</strong></p><p style='font-size: 30px;'><strong>This rock is basalt</strong></p>","0","corr_feedback","1","train","5","","","","","","","",""
"","","","","","","","","","","","html-button-response","115","2.0.0","646774","66642e662f34ff5f86f505f2","1","54","1476","","","","","","","","","<img src= ""rock_img/I_Gabbro_12.jpg"" style=""width:8cm; height:7.800000000000001cm;""><p>What type of rock is this?</p>","1","class_response","1","train","6","Basalt","Gabbro","12","false","2","4","",""
"","","","","","","","","","","","html-button-response","116","2.0.0","649043","66642e662f34ff5f86f505f2","1","54","2267","","","","","","","","","<img src= rock_img/I_Gabbro_12.jpg style=""width:8cm; height:7.800000000000001cm;""><p style='font-size: 30px; color: red;'><strong>Incorrect!</strong></p><p style='font-size: 30px;'><strong>This rock is gabbro</strong></p>","0","corr_feedback","1","train","6","","","","","","","",""
"","","","","","","","","","","","html-button-response","117","2.0.0","657974","66642e662f34ff5f86f505f2","1","54","8928","","","","","","","","","<img src= ""rock_img/I_Diorite_06.jpg"" style=""width:8cm; height:6.03cm;""><p>What type of rock is this?</p>","6","class_response","1","train","7","Peridotite","Diorite","06","false","7","3","",""
"","","","","","","","","","","","html-button-response","118","2.0.0","659976","66642e662f34ff5f86f505f2","1","54","1999","","","","","","","","","<img src= rock_img/I_Diorite_06.jpg style=""width:8cm; height:6.03cm;""><p style='font-size: 30px; color: red;'><strong>Incorrect!</strong></p><p style='font-size: 30px;'><strong>This rock is diorite</strong></p>","0","corr_feedback","1","train","7","","","","","","","",""
"","","","","","","","","","","","html-button-response","119","2.0.0","662759","66642e662f34ff5f86f505f2","1","54","2780","","","","","","","","","<img src= ""rock_img/I_Obsidian_11.jpg"" style=""width:8cm; height:6.05cm;""><p>What type of rock is this?</p>","4","class_response","1","train","8","Obsidian","Obsidian","11","true","5","5","",""
"","","","","","","","","","","","html-button-response","120","2.0.0","665023","66642e662f34ff5f86f505f2","1","54","2261","","","","","","","","","<img src= rock_img/I_Obsidian_11.jpg style=""width:8cm; height:6.05cm;""><p style='font-size: 30px; color: green;'><strong>Correct!</strong></p><p style='font-size: 30px;'><strong>This rock is obsidian</strong></p>","0","corr_feedback","1","train","8","","","","","","","",""
"","","","","","","","","","","","html-button-response","121","2.0.0","667296","66642e662f34ff5f86f505f2","1","54","2270","","","","","","","","","<img src= ""rock_img/I_Diorite_07.jpg"" style=""width:8cm; height:5.239999999999999cm;""><p>What type of rock is this?</p>","2","class_response","1","train","9","Diorite","Diorite","07","true","3","3","",""
"","","","","","","","","","","","html-button-response","122","2.0.0","671376","66642e662f34ff5f86f505f2","1","54","4077","","","","","","","","","<img src= rock_img/I_Diorite_07.jpg style=""width:8cm; height:5.239999999999999cm;""><p style='font-size: 30px; color: green;'><strong>Correct!</strong></p><p style='font-size: 30px;'><strong>This rock is diorite</strong></p>","0","corr_feedback","1","train","9","","","","","","","",""
"","","","","","","","","","","","html-button-response","123","2.0.0","673590","66642e662f34ff5f86f505f2","1","54","2212","","","","","","","","","<img src= ""rock_img/I_Andesite_05.jpg"" style=""width:8cm; height:4.12cm;""><p>What type of rock is this?</p>","0","class_response","1","train","10","Andesite","Andesite","05","true","1","1","",""
"","","","","","","","","","","","html-button-response","124","2.0.0","677773","66642e662f34ff5f86f505f2","1","54","4181","","","","","","","","","<img src= rock_img/I_Andesite_05.jpg style=""width:8cm; height:4.12cm;""><p style='font-size: 30px; color: green;'><strong>Correct!</strong></p><p style='font-size: 30px;'><strong>This rock is andesite</strong></p>","0","corr_feedback","1","train","10","","","","","","","",""
"","","","","","","","","","","","html-button-response","125","2.0.0","681022","66642e662f34ff5f86f505f2","1","54","3247","","","","","","","","","<img src= ""rock_img/I_Peridotite_06.jpg"" style=""width:8cm; height:7.53cm;""><p>What type of rock is this?</p>","1","class_response","1","train","11","Basalt","Peridotite","06","false","2","7","",""
"","","","","","","","","","","","html-button-response","126","2.0.0","683085","66642e662f34ff5f86f505f2","1","54","2060","","","","","","","","","<img src= rock_img/I_Peridotite_06.jpg style=""width:8cm; height:7.53cm;""><p style='font-size: 30px; color: red;'><strong>Incorrect!</strong></p><p style='font-size: 30px;'><strong>This rock is peridotite</strong></p>","0","corr_feedback","1","train","11","","","","","","","",""
"","","","","","","","","","","","html-button-response","127","2.0.0","686656","66642e662f34ff5f86f505f2","1","54","3568","","","","","","","","","<img src= ""rock_img/I_Pegmatite_12.jpg"" style=""width:8cm; height:5.7cm;""><p>What type of rock is this?</p>","6","class_response","1","train","12","Peridotite","Pegmatite","12","false","7","6","",""
"","","","","","","","","","","","html-button-response","128","2.0.0","689247","66642e662f34ff5f86f505f2","1","54","2588","","","","","","","","","<img src= rock_img/I_Pegmatite_12.jpg style=""width:8cm; height:5.7cm;""><p style='font-size: 30px; color: red;'><strong>Incorrect!</strong></p><p style='font-size: 30px;'><strong>This rock is pegmatite</strong></p>","0","corr_feedback","1","train","12","","","","","","","",""
"","","","","","","","","","","","html-button-response","129","2.0.0","692045","66642e662f34ff5f86f505f2","1","54","2797","","","","","","","","","<img src= ""rock_img/I_Basalt_14.jpg"" style=""width:8cm; height:5.82cm;""><p>What type of rock is this?</p>","7","class_response","1","train","13","Pumice","Basalt","14","false","8","2","",""
"","","","","","","","","","","","html-button-response","130","2.0.0","694519","66642e662f34ff5f86f505f2","1","54","2472","","","","","","","","","<img src= rock_img/I_Basalt_14.jpg style=""width:8cm; height:5.82cm;""><p style='font-size: 30px; color: red;'><strong>Incorrect!</strong></p><p style='font-size: 30px;'><strong>This rock is basalt</strong></p>","0","corr_feedback","1","train","13","","","","","","","",""
"","","","","","","","","","","","html-button-response","131","2.0.0","700371","66642e662f34ff5f86f505f2","1","54","5851","","","","","","","","","<img src= ""rock_img/I_Gabbro_05.jpg"" style=""width:8cm; height:6cm;""><p>What type of rock is this?</p>","1","class_response","1","train","14","Basalt","Gabbro","05","false","2","4","",""
"","","","","","","","","","","","html-button-response","132","2.0.0","702270","66642e662f34ff5f86f505f2","1","54","1897","","","","","","","","","<img src= rock_img/I_Gabbro_05.jpg style=""width:8cm; height:6cm;""><p style='font-size: 30px; color: red;'><strong>Incorrect!</strong></p><p style='font-size: 30px;'><strong>This rock is gabbro</strong></p>","0","corr_feedback","1","train","14","","","","","","","",""
"","","","","","","","","","","","html-button-response","133","2.0.0","704854","66642e662f34ff5f86f505f2","1","54","2581","","","","","","","","","<img src= ""rock_img/I_Obsidian_04.jpg"" style=""width:8cm; height:6.930000000000001cm;""><p>What type of rock is this?</p>","4","class_response","1","train","15","Obsidian","Obsidian","04","true","5","5","",""
"","","","","","","","","","","","html-button-response","134","2.0.0","706337","66642e662f34ff5f86f505f2","1","54","1481","","","","","","","","","<img src= rock_img/I_Obsidian_04.jpg style=""width:8cm; height:6.930000000000001cm;""><p style='font-size: 30px; color: green;'><strong>Correct!</strong></p><p style='font-size: 30px;'><strong>This rock is obsidian</strong></p>","0","corr_feedback","1","train","15","","","","","","","",""
"","","","","","","","","","","","html-button-response","135","2.0.0","708756","66642e662f34ff5f86f505f2","1","54","2416","","","","","","","","","<img src= ""rock_img/I_Peridotite_08.jpg"" style=""width:8cm; height:6.7cm;""><p>What type of rock is this?</p>","3","class_response","1","train","16","Gabbro","Peridotite","08","false","4","7","",""
"","","","","","","","","","","","html-button-response","136","2.0.0","711954","66642e662f34ff5f86f505f2","1","54","3196","","","","","","","","","<img src= rock_img/I_Peridotite_08.jpg style=""width:8cm; height:6.7cm;""><p style='font-size: 30px; color: red;'><strong>Incorrect!</strong></p><p style='font-size: 30px;'><strong>This rock is peridotite</strong></p>","0","corr_feedback","1","train","16","","","","","","","",""
"","","","","","","","","","","","html-button-response","137","2.0.0","714904","66642e662f34ff5f86f505f2","1","54","2947","","","","","","","","","<img src= ""rock_img/I_Pumice_06.jpg"" style=""width:8cm; height:6.9399999999999995cm;""><p>What type of rock is this?</p>","7","class_response","1","train","17","Pumice","Pumice","06","true","8","8","",""
"","","","","","","","","","","","html-button-response","138","2.0.0","716767","66642e662f34ff5f86f505f2","1","54","1861","","","","","","","","","<img src= rock_img/I_Pumice_06.jpg style=""width:8cm; height:6.9399999999999995cm;""><p style='font-size: 30px; color: green;'><strong>Correct!</strong></p><p style='font-size: 30px;'><strong>This rock is pumice</strong></p>","0","corr_feedback","1","train","17","","","","","","","",""
"","","","","","","","","","","","html-button-response","139","2.0.0","720420","66642e662f34ff5f86f505f2","1","54","3652","","","","","","","","","<img src= ""rock_img/I_Andesite_03.jpg"" style=""width:8cm; height:5.73cm;""><p>What type of rock is this?</p>","3","class_response","1","train","18","Gabbro","Andesite","03","false","4","1","",""
"","","","","","","","","","","","html-button-response","140","2.0.0","722454","66642e662f34ff5f86f505f2","1","54","2031","","","","","","","","","<img src= rock_img/I_Andesite_03.jpg style=""width:8cm; height:5.73cm;""><p style='font-size: 30px; color: red;'><strong>Incorrect!</strong></p><p style='font-size: 30px;'><strong>This rock is andesite</strong></p>","0","corr_feedback","1","train","18","","","","","","","",""
"","","","","","","","","","","","html-button-response","141","2.0.0","725638","66642e662f34ff5f86f505f2","1","54","3182","","","","","","","","","<img src= ""rock_img/I_Obsidian_07.jpg"" style=""width:8cm; height:4.76cm;""><p>What type of rock is this?</p>","4","class_response","1","train","19","Obsidian","Obsidian","07","true","5","5","",""
"","","","","","","","","","","","html-button-response","142","2.0.0","727369","66642e662f34ff5f86f505f2","1","54","1729","","","","","","","","","<img src= rock_img/I_Obsidian_07.jpg style=""width:8cm; height:4.76cm;""><p style='font-size: 30px; color: green;'><strong>Correct!</strong></p><p style='font-size: 30px;'><strong>This rock is obsidian</strong></p>","0","corr_feedback","1","train","19","","","","","","","",""
"","","","","","","","","","","","html-button-response","143","2.0.0","729604","66642e662f34ff5f86f505f2","1","54","2232","","","","","","","","","<img src= ""rock_img/I_Peridotite_10.jpg"" style=""width:8cm; height:5.390000000000001cm;""><p>What type of rock is this?</p>","0","class_response","1","train","20","Andesite","Peridotite","10","false","1","7","",""
"","","","","","","","","","","","html-button-response","144","2.0.0","737471","66642e662f34ff5f86f505f2","1","54","7865","","","","","","","","","<img src= rock_img/I_Peridotite_10.jpg style=""width:8cm; height:5.390000000000001cm;""><p style='font-size: 30px; color: red;'><strong>Incorrect!</strong></p><p style='font-size: 30px;'><strong>This rock is peridotite</strong></p>","0","corr_feedback","1","train","20","","","","","","","",""
"","","","","","","","","","","","html-button-response","145","2.0.0","741705","66642e662f34ff5f86f505f2","1","54","4231","","","","","","","","","<img src= ""rock_img/I_Diorite_08.jpg"" style=""width:8cm; height:6.37cm;""><p>What type of rock is this?</p>","5","class_response","1","train","21","Pegmatite","Diorite","08","false","6","3","",""
"","","","","","","","","","","","html-button-response","146","2.0.0","743119","66642e662f34ff5f86f505f2","1","54","1411","","","","","","","","","<img src= rock_img/I_Diorite_08.jpg style=""width:8cm; height:6.37cm;""><p style='font-size: 30px; color: red;'><strong>Incorrect!</strong></p><p style='font-size: 30px;'><strong>This rock is diorite</strong></p>","0","corr_feedback","1","train","21","","","","","","","",""
"","","","","","","","","","","","html-button-response","147","2.0.0","747253","66642e662f34ff5f86f505f2","1","54","4132","","","","","","","","","<img src= ""rock_img/I_Basalt_06.jpg"" style=""width:8cm; height:7.06cm;""><p>What type of rock is this?</p>","4","class_response","1","train","22","Obsidian","Basalt","06","false","5","2","",""
"","","","","","","","","","","","html-button-response","148","2.0.0","748865","66642e662f34ff5f86f505f2","1","54","1610","","","","","","","","","<img src= rock_img/I_Basalt_06.jpg style=""width:8cm; height:7.06cm;""><p style='font-size: 30px; color: red;'><strong>Incorrect!</strong></p><p style='font-size: 30px;'><strong>This rock is basalt</strong></p>","0","corr_feedback","1","train","22","","","","","","","",""
"","","","","","","","","","","","html-button-response","149","2.0.0","751968","66642e662f34ff5f86f505f2","1","54","3102","","","","","","","","","<img src= ""rock_img/I_Pegmatite_09.jpg"" style=""width:8cm; height:4.03cm;""><p>What type of rock is this?</p>","5","class_response","1","train","23","Pegmatite","Pegmatite","09","true","6","6","",""
"","","","","","","","","","","","html-button-response","150","2.0.0","753832","66642e662f34ff5f86f505f2","1","54","1862","","","","","","","","","<img src= rock_img/I_Pegmatite_09.jpg style=""width:8cm; height:4.03cm;""><p style='font-size: 30px; color: green;'><strong>Correct!</strong></p><p style='font-size: 30px;'><strong>This rock is pegmatite</strong></p>","0","corr_feedback","1","train","23","","","","","","","",""
"","","","","","","","","","","","html-button-response","151","2.0.0","755802","66642e662f34ff5f86f505f2","1","54","1968","","","","","","","","","<img src= ""rock_img/I_Pumice_16.jpg"" style=""width:8cm; height:6.79cm;""><p>What type of rock is this?</p>","7","class_response","1","train","24","Pumice","Pumice","16","true","8","8","",""
"","","","","","","","","","","","html-button-response","152","2.0.0","758369","66642e662f34ff5f86f505f2","1","54","2564","","","","","","","","","<img src= rock_img/I_Pumice_16.jpg style=""width:8cm; height:6.79cm;""><p style='font-size: 30px; color: green;'><strong>Correct!</strong></p><p style='font-size: 30px;'><strong>This rock is pumice</strong></p>","0","corr_feedback","1","train","24","","","","","","","",""
"","","","","","","","","","","","html-button-response","153","2.0.0","760842","66642e662f34ff5f86f505f2","1","54","2472","","","","","","","","","<img src= ""rock_img/I_Pumice_09.jpg"" style=""width:8cm; height:6.44cm;""><p>What type of rock is this?</p>","7","class_response","1","train","25","Pumice","Pumice","09","true","8","8","",""
"","","","","","","","","","","","html-button-response","154","2.0.0","766184","66642e662f34ff5f86f505f2","1","54","5341","","","","","","","","","<img src= rock_img/I_Pumice_09.jpg style=""width:8cm; height:6.44cm;""><p style='font-size: 30px; color: green;'><strong>Correct!</strong></p><p style='font-size: 30px;'><strong>This rock is pumice</strong></p>","0","corr_feedback","1","train","25","","","","","","","",""
"","","","","","","","","","","","html-button-response","155","2.0.0","768102","66642e662f34ff5f86f505f2","1","54","1914","","","","","","","","","<img src= ""rock_img/I_Obsidian_09.jpg"" style=""width:8cm; height:5cm;""><p>What type of rock is this?</p>","4","class_response","1","train","26","Obsidian","Obsidian","09","true","5","5","",""
"","","","","","","","","","","","html-button-response","156","2.0.0","769433","66642e662f34ff5f86f505f2","1","54","1328","","","","","","","","","<img src= rock_img/I_Obsidian_09.jpg style=""width:8cm; height:5cm;""><p style='font-size: 30px; color: green;'><strong>Correct!</strong></p><p style='font-size: 30px;'><strong>This rock is obsidian</strong></p>","0","corr_feedback","1","train","26","","","","","","","",""
"","","","","","","","","","","","html-button-response","157","2.0.0","771601","66642e662f34ff5f86f505f2","1","54","2166","","","","","","","","","<img src= ""rock_img/I_Andesite_04.jpg"" style=""width:8cm; height:5.96cm;""><p>What type of rock is this?</p>","0","class_response","1","train","27","Andesite","Andesite","04","true","1","1","",""
"","","","","","","","","","","","html-button-response","158","2.0.0","773434","66642e662f34ff5f86f505f2","1","54","1831","","","","","","","","","<img src= rock_img/I_Andesite_04.jpg style=""width:8cm; height:5.96cm;""><p style='font-size: 30px; color: green;'><strong>Correct!</strong></p><p style='font-size: 30px;'><strong>This rock is andesite</strong></p>","0","corr_feedback","1","train","27","","","","","","","",""
"","","","","","","","","","","","html-button-response","159","2.0.0","775363","66642e662f34ff5f86f505f2","1","54","1927","","","","","","","","","<img src= ""rock_img/I_Obsidian_12.jpg"" style=""width:8cm; height:6.53cm;""><p>What type of rock is this?</p>","4","class_response","1","train","28","Obsidian","Obsidian","12","true","5","5","",""
"","","","","","","","","","","","html-button-response","160","2.0.0","776799","66642e662f34ff5f86f505f2","1","54","1434","","","","","","","","","<img src= rock_img/I_Obsidian_12.jpg style=""width:8cm; height:6.53cm;""><p style='font-size: 30px; color: green;'><strong>Correct!</strong></p><p style='font-size: 30px;'><strong>This rock is obsidian</strong></p>","0","corr_feedback","1","train","28","","","","","","","",""
"","","","","","","","","","","","html-button-response","161","2.0.0","779830","66642e662f34ff5f86f505f2","1","54","3029","","","","","","","","","<img src= ""rock_img/I_Peridotite_16.jpg"" style=""width:8cm; height:6.989999999999999cm;""><p>What type of rock is this?</p>","5","class_response","1","train","29","Pegmatite","Peridotite","16","false","6","7","",""
"","","","","","","","","","","","html-button-response","162","2.0.0","781148","66642e662f34ff5f86f505f2","1","54","1315","","","","","","","","","<img src= rock_img/I_Peridotite_16.jpg style=""width:8cm; height:6.989999999999999cm;""><p style='font-size: 30px; color: red;'><strong>Incorrect!</strong></p><p style='font-size: 30px;'><strong>This rock is peridotite</strong></p>","0","corr_feedback","1","train","29","","","","","","","",""
"","","","","","","","","","","","html-button-response","163","2.0.0","787133","66642e662f34ff5f86f505f2","1","54","5983","","","","","","","","","<img src= ""rock_img/I_Basalt_09.jpg"" style=""width:8cm; height:6.2cm;""><p>What type of rock is this?</p>","1","class_response","1","train","30","Basalt","Basalt","09","true","2","2","",""
"","","","","","","","","","","","html-button-response","164","2.0.0","789835","66642e662f34ff5f86f505f2","1","54","2699","","","","","","","","","<img src= rock_img/I_Basalt_09.jpg style=""width:8cm; height:6.2cm;""><p style='font-size: 30px; color: green;'><strong>Correct!</strong></p><p style='font-size: 30px;'><strong>This rock is basalt</strong></p>","0","corr_feedback","1","train","30","","","","","","","",""
"","","","","","","","","","","","html-button-response","165","2.0.0","792484","66642e662f34ff5f86f505f2","1","54","2646","","","","","","","","","<img src= ""rock_img/I_Pegmatite_08.jpg"" style=""width:8cm; height:7.68cm;""><p>What type of rock is this?</p>","5","class_response","1","train","31","Pegmatite","Pegmatite","08","true","6","6","",""
"","","","","","","","","","","","html-button-response","166","2.0.0","794549","66642e662f34ff5f86f505f2","1","54","2063","","","","","","","","","<img src= rock_img/I_Pegmatite_08.jpg style=""width:8cm; height:7.68cm;""><p style='font-size: 30px; color: green;'><strong>Correct!</strong></p><p style='font-size: 30px;'><strong>This rock is pegmatite</strong></p>","0","corr_feedback","1","train","31","","","","","","","",""
"","","","","","","","","","","","html-button-response","167","2.0.0","796331","66642e662f34ff5f86f505f2","1","54","1780","","","","","","","","","<img src= ""rock_img/I_Obsidian_02.jpg"" style=""width:8cm; height:7.51cm;""><p>What type of rock is this?</p>","4","class_response","1","train","32","Obsidian","Obsidian","02","true","5","5","",""
"","","","","","","","","","","","html-button-response","168","2.0.0","797930","66642e662f34ff5f86f505f2","1","54","1597","","","","","","","","","<img src= rock_img/I_Obsidian_02.jpg style=""width:8cm; height:7.51cm;""><p style='font-size: 30px; color: green;'><strong>Correct!</strong></p><p style='font-size: 30px;'><strong>This rock is obsidian</strong></p>","0","corr_feedback","1","train","32","","","","","","","",""
"","","","","","","","","","","","html-button-response","169","2.0.0","800847","66642e662f34ff5f86f505f2","1","54","2914","","","","","","","","","<img src= ""rock_img/I_Basalt_05.jpg"" style=""width:8cm; height:8.18cm;""><p>What type of rock is this?</p>","3","class_response","1","train","33","Gabbro","Basalt","05","false","4","2","",""
"","","","","","","","","","","","html-button-response","170","2.0.0","802416","66642e662f34ff5f86f505f2","1","54","1567","","","","","","","","","<img src= rock_img/I_Basalt_05.jpg style=""width:8cm; height:8.18cm;""><p style='font-size: 30px; color: red;'><strong>Incorrect!</strong></p><p style='font-size: 30px;'><strong>This rock is basalt</strong></p>","0","corr_feedback","1","train","33","","","","","","","",""
"","","","","","","","","","","","html-button-response","171","2.0.0","806931","66642e662f34ff5f86f505f2","1","54","4511","","","","","","","","","<img src= ""rock_img/I_Gabbro_14.jpg"" style=""width:8cm; height:8.48cm;""><p>What type of rock is this?</p>","3","class_response","1","train","34","Gabbro","Gabbro","14","true","4","4","",""
"","","","","","","","","","","","html-button-response","172","2.0.0","810448","66642e662f34ff5f86f505f2","1","54","3515","","","","","","","","","<img src= rock_img/I_Gabbro_14.jpg style=""width:8cm; height:8.48cm;""><p style='font-size: 30px; color: green;'><strong>Correct!</strong></p><p style='font-size: 30px;'><strong>This rock is gabbro</strong></p>","0","corr_feedback","1","train","34","","","","","","","",""
"","","","","","","","","","","","html-button-response","173","2.0.0","813765","66642e662f34ff5f86f505f2","1","54","3314","","","","","","","","","<img src= ""rock_img/I_Peridotite_14.jpg"" style=""width:8cm; height:5.3cm;""><p>What type of rock is this?</p>","5","class_response","1","train","35","Pegmatite","Peridotite","14","false","6","7","",""
"","","","","","","","","","","","html-button-response","174","2.0.0","814915","66642e662f34ff5f86f505f2","1","54","1147","","","","","","","","","<img src= rock_img/I_Peridotite_14.jpg style=""width:8cm; height:5.3cm;""><p style='font-size: 30px; color: red;'><strong>Incorrect!</strong></p><p style='font-size: 30px;'><strong>This rock is peridotite</strong></p>","0","corr_feedback","1","train","35","","","","","","","",""
"","","","","","","","","","","","html-button-response","175","2.0.0","819899","66642e662f34ff5f86f505f2","1","54","4982","","","","","","","","","<img src= ""rock_img/I_Basalt_01.jpg"" style=""width:8cm; height:7.880000000000001cm;""><p>What type of rock is this?</p>","2","class_response","1","train","36","Diorite","Basalt","01","false","3","2","",""
"","","","","","","","","","","","html-button-response","176","2.0.0","821632","66642e662f34ff5f86f505f2","1","54","1730","","","","","","","","","<img src= rock_img/I_Basalt_01.jpg style=""width:8cm; height:7.880000000000001cm;""><p style='font-size: 30px; color: red;'><strong>Incorrect!</strong></p><p style='font-size: 30px;'><strong>This rock is basalt</strong></p>","0","corr_feedback","1","train","36","","","","","","","",""
"","","","","","","","","","","","html-button-response","177","2.0.0","823851","66642e662f34ff5f86f505f2","1","54","2217","","","","","","","","","<img src= ""rock_img/I_Pegmatite_13.jpg"" style=""width:8cm; height:4.95cm;""><p>What type of rock is this?</p>","1","class_response","1","train","37","Basalt","Pegmatite","13","false","2","6","",""
"","","","","","","","","","","","html-button-response","178","2.0.0","828920","66642e662f34ff5f86f505f2","1","54","5067","","","","","","","","","<img src= rock_img/I_Pegmatite_13.jpg style=""width:8cm; height:4.95cm;""><p style='font-size: 30px; color: red;'><strong>Incorrect!</strong></p><p style='font-size: 30px;'><strong>This rock is pegmatite</strong></p>","0","corr_feedback","1","train","37","","","","","","","",""
"","","","","","","","","","","","html-button-response","179","2.0.0","831815","66642e662f34ff5f86f505f2","1","54","2892","","","","","","","","","<img src= ""rock_img/I_Diorite_16.jpg"" style=""width:8cm; height:6.74cm;""><p>What type of rock is this?</p>","5","class_response","1","train","38","Pegmatite","Diorite","16","false","6","3","",""
"","","","","","","","","","","","html-button-response","180","2.0.0","832712","66642e662f34ff5f86f505f2","1","54","894","","","","","","","","","<img src= rock_img/I_Diorite_16.jpg style=""width:8cm; height:6.74cm;""><p style='font-size: 30px; color: red;'><strong>Incorrect!</strong></p><p style='font-size: 30px;'><strong>This rock is diorite</strong></p>","0","corr_feedback","1","train","38","","","","","","","",""
"","","","","","","","","","","","html-button-response","181","2.0.0","836347","66642e662f34ff5f86f505f2","1","54","3634","","","","","","","","","<img src= ""rock_img/I_Gabbro_11.jpg"" style=""width:8cm; height:6.2cm;""><p>What type of rock is this?</p>","1","class_response","1","train","39","Basalt","Gabbro","11","false","2","4","",""
"","","","","","","","","","","","html-button-response","182","2.0.0","837831","66642e662f34ff5f86f505f2","1","54","1482","","","","","","","","","<img src= rock_img/I_Gabbro_11.jpg style=""width:8cm; height:6.2cm;""><p style='font-size: 30px; color: red;'><strong>Incorrect!</strong></p><p style='font-size: 30px;'><strong>This rock is gabbro</strong></p>","0","corr_feedback","1","train","39","","","","","","","",""
"","","","","","","","","","","","html-button-response","183","2.0.0","841180","66642e662f34ff5f86f505f2","1","54","3347","","","","","","","","","<img src= ""rock_img/I_Andesite_01.jpg"" style=""width:8cm; height:5.87cm;""><p>What type of rock is this?</p>","0","class_response","1","train","40","Andesite","Andesite","01","true","1","1","",""
"","","","","","","","","","","","html-button-response","184","2.0.0","842906","66642e662f34ff5f86f505f2","1","54","1724","","","","","","","","","<img src= rock_img/I_Andesite_01.jpg style=""width:8cm; height:5.87cm;""><p style='font-size: 30px; color: green;'><strong>Correct!</strong></p><p style='font-size: 30px;'><strong>This rock is andesite</strong></p>","0","corr_feedback","1","train","40","","","","","","","",""
"","","","","","","","","","","","html-button-response","185","2.0.0","852612","66642e662f34ff5f86f505f2","1","54","9703","","","","","","","","","<img src= ""rock_img/I_Pegmatite_16.jpg"" style=""width:8cm; height:5.8cm;""><p>What type of rock is this?</p>","7","class_response","1","train","41","Pumice","Pegmatite","16","false","8","6","",""
"","","","","","","","","","","","html-button-response","186","2.0.0","854471","66642e662f34ff5f86f505f2","1","54","1858","","","","","","","","","<img src= rock_img/I_Pegmatite_16.jpg style=""width:8cm; height:5.8cm;""><p style='font-size: 30px; color: red;'><strong>Incorrect!</strong></p><p style='font-size: 30px;'><strong>This rock is pegmatite</strong></p>","0","corr_feedback","1","train","41","","","","","","","",""
"","","","","","","","","","","","html-button-response","187","2.0.0","854676","66642e662f34ff5f86f505f2","1","54","203","","","","","","","","","<img src= ""rock_img/I_Pegmatite_15.jpg"" style=""width:8cm; height:6cm;""><p>What type of rock is this?</p>","6","class_response","1","train","42","Peridotite","Pegmatite","15","false","7","6","",""
"","","","","","","","","","","","html-button-response","188","2.0.0","857212","66642e662f34ff5f86f505f2","1","54","2535","","","","","","","","","<img src= rock_img/I_Pegmatite_15.jpg style=""width:8cm; height:6cm;""><p style='font-size: 30px; color: red;'><strong>Incorrect!</strong></p><p style='font-size: 30px;'><strong>This rock is pegmatite</strong></p>","0","corr_feedback","1","train","42","","","","","","","",""
"","","","","","","","","","","","html-button-response","189","2.0.0","863808","66642e662f34ff5f86f505f2","1","54","6594","","","","","","","","","<img src= ""rock_img/I_Andesite_14.jpg"" style=""width:8cm; height:5.449999999999999cm;""><p>What type of rock is this?</p>","2","class_response","1","train","43","Diorite","Andesite","14","false","3","1","",""
"","","","","","","","","","","","html-button-response","190","2.0.0","865351","66642e662f34ff5f86f505f2","1","54","1541","","","","","","","","","<img src= rock_img/I_Andesite_14.jpg style=""width:8cm; height:5.449999999999999cm;""><p style='font-size: 30px; color: red;'><strong>Incorrect!</strong></p><p style='font-size: 30px;'><strong>This rock is andesite</strong></p>","0","corr_feedback","1","train","43","","","","","","","",""
"","","","","","","","","","","","html-button-response","191","2.0.0","869025","66642e662f34ff5f86f505f2","1","54","3672","","","","","","","","","<img src= ""rock_img/I_Gabbro_13.jpg"" style=""width:8cm; height:5.08cm;""><p>What type of rock is this?</p>","2","class_response","1","train","44","Diorite","Gabbro","13","false","3","4","",""
"","","","","","","","","","","","html-button-response","192","2.0.0","870612","66642e662f34ff5f86f505f2","1","54","1585","","","","","","","","","<img src= rock_img/I_Gabbro_13.jpg style=""width:8cm; height:5.08cm;""><p style='font-size: 30px; color: red;'><strong>Incorrect!</strong></p><p style='font-size: 30px;'><strong>This rock is gabbro</strong></p>","0","corr_feedback","1","train","44","","","","","","","",""
"","","","","","","","","","","","html-button-response","193","2.0.0","873910","66642e662f34ff5f86f505f2","1","54","3296","","","","","","","","","<img src= ""rock_img/I_Andesite_07.jpg"" style=""width:8cm; height:5.93cm;""><p>What type of rock is this?</p>","2","class_response","1","train","45","Diorite","Andesite","07","false","3","1","",""
"","","","","","","","","","","","html-button-response","194","2.0.0","876158","66642e662f34ff5f86f505f2","1","54","2246","","","","","","","","","<img src= rock_img/I_Andesite_07.jpg style=""width:8cm; height:5.93cm;""><p style='font-size: 30px; color: red;'><strong>Incorrect!</strong></p><p style='font-size: 30px;'><strong>This rock is andesite</strong></p>","0","corr_feedback","1","train","45","","","","","","","",""
"","","","","","","","","","","","html-button-response","195","2.0.0","879844","66642e662f34ff5f86f505f2","1","54","3683","","","","","","","","","<img src= ""rock_img/I_Peridotite_02.jpg"" style=""width:8cm; height:5.859999999999999cm;""><p>What type of rock is this?</p>","6","class_response","1","train","46","Peridotite","Peridotite","02","true","7","7","",""
"","","","","","","","","","","","html-button-response","196","2.0.0","884154","66642e662f34ff5f86f505f2","1","54","4308","","","","","","","","","<img src= rock_img/I_Peridotite_02.jpg style=""width:8cm; height:5.859999999999999cm;""><p style='font-size: 30px; color: green;'><strong>Correct!</strong></p><p style='font-size: 30px;'><strong>This rock is peridotite</strong></p>","0","corr_feedback","1","train","46","","","","","","","",""
"","","","","","","","","","","","html-button-response","197","2.0.0","885978","66642e662f34ff5f86f505f2","1","54","1822","","","","","","","","","<img src= ""rock_img/I_Pumice_02.jpg"" style=""width:8cm; height:7.3999999999999995cm;""><p>What type of rock is this?</p>","7","class_response","1","train","47","Pumice","Pumice","02","true","8","8","",""
"","","","","","","","","","","","html-button-response","198","2.0.0","887427","66642e662f34ff5f86f505f2","1","54","1446","","","","","","","","","<img src= rock_img/I_Pumice_02.jpg style=""width:8cm; height:7.3999999999999995cm;""><p style='font-size: 30px; color: green;'><strong>Correct!</strong></p><p style='font-size: 30px;'><strong>This rock is pumice</strong></p>","0","corr_feedback","1","train","47","","","","","","","",""
"","","","","","","","","","","","html-button-response","199","2.0.0","890827","66642e662f34ff5f86f505f2","1","54","3397","","","","","","","","","<img src= ""rock_img/I_Gabbro_01.jpg"" style=""width:8cm; height:5.21cm;""><p>What type of rock is this?</p>","0","class_response","1","train","48","Andesite","Gabbro","01","false","1","4","",""
"","","","","","","","","","","","html-button-response","200","2.0.0","892412","66642e662f34ff5f86f505f2","1","54","1582","","","","","","","","","<img src= rock_img/I_Gabbro_01.jpg style=""width:8cm; height:5.21cm;""><p style='font-size: 30px; color: red;'><strong>Incorrect!</strong></p><p style='font-size: 30px;'><strong>This rock is gabbro</strong></p>","0","corr_feedback","1","train","48","","","","","","","",""
"","","","","","","","","","","","instructions","203","2.0.0","917108","66642e662f34ff5f86f505f2","1","54","24693","","","","","","","","[{""page_index"":0,""viewing_time"":4881},{""page_index"":1,""viewing_time"":19813}]","","","","","","","","","","","","","",""
"","","","","","","","","","","","html-button-response","204","2.0.0","923659","66642e662f34ff5f86f505f2","1","54","6548","","","","","","","","","","0","start_test","","","","","","","","","","",""
"","","","","","","","","","","","html-button-response","205","2.0.0","925942","66642e662f34ff5f86f505f2","1","54","2281","","","","","","","","","<img src= ""rock_img/I_Pumice_05.jpg"" style=""width:8cm; height:7.25cm;""><p>What type of rock is this?</p>","7","class_response","1","test","1","Pumice","Pumice","05","true","8","8","",""
"","","","","","","","","","","","html-keyboard-response","206","2.0.0","926445","66642e662f34ff5f86f505f2","1","54","null","","","","","","","","","<p style='font-size: 30px;'><strong>Okay</strong></p>","null","neutral_feedback","1","test","1","","","","","","","",""
"","","","","","","","","","","","html-button-response","207","2.0.0","930384","66642e662f34ff5f86f505f2","1","54","3937","","","","","","","","","<img src= ""rock_img/I_Gabbro_10.jpg"" style=""width:8cm; height:5.680000000000001cm;""><p>What type of rock is this?</p>","2","class_response","1","test","2","Diorite","Gabbro","10","false","3","4","",""
"","","","","","","","","","","","html-keyboard-response","208","2.0.0","930897","66642e662f34ff5f86f505f2","1","54","null","","","","","","","","","<p style='font-size: 30px;'><strong>Okay</strong></p>","null","neutral_feedback","1","test","2","","","","","","","",""
"","","","","","","","","","","","html-button-response","209","2.0.0","933677","66642e662f34ff5f86f505f2","1","54","2778","","","","","","","","","<img src= ""rock_img/I_Andesite_10.jpg"" style=""width:8cm; height:4.16cm;""><p>What type of rock is this?</p>","7","class_response","1","test","3","Pumice","Andesite","10","false","8","1","",""
"","","","","","","","","","","","html-keyboard-response","210","2.0.0","934191","66642e662f34ff5f86f505f2","1","54","null","","","","","","","","","<p style='font-size: 30px;'><strong>Okay</strong></p>","null","neutral_feedback","1","test","3","","","","","","","",""
"","","","","","","","","","","","html-button-response","211","2.0.0","936845","66642e662f34ff5f86f505f2","1","54","2651","","","","","","","","","<img src= ""rock_img/I_Diorite_02.jpg"" style=""width:8cm; height:6.27cm;""><p>What type of rock is this?</p>","0","class_response","1","test","4","Andesite","Diorite","02","false","1","3","",""
"","","","","","","","","","","","html-keyboard-response","212","2.0.0","937360","66642e662f34ff5f86f505f2","1","54","null","","","","","","","","","<p style='font-size: 30px;'><strong>Okay</strong></p>","null","neutral_feedback","1","test","4","","","","","","","",""
"","","","","","","","","","","","html-button-response","213","2.0.0","940291","66642e662f34ff5f86f505f2","1","54","2929","","","","","","","","","<img src= ""rock_img/I_Andesite_11.jpg"" style=""width:8cm; height:4.92cm;""><p>What type of rock is this?</p>","2","class_response","1","test","5","Diorite","Andesite","11","false","3","1","",""
"","","","","","","","","","","","html-keyboard-response","214","2.0.0","940795","66642e662f34ff5f86f505f2","1","54","null","","","","","","","","","<p style='font-size: 30px;'><strong>Okay</strong></p>","null","neutral_feedback","1","test","5","","","","","","","",""
"","","","","","","","","","","","html-button-response","215","2.0.0","943575","66642e662f34ff5f86f505f2","1","54","2777","","","","","","","","","<img src= ""rock_img/I_Andesite_02.jpg"" style=""width:8cm; height:8.5cm;""><p>What type of rock is this?</p>","1","class_response","1","test","6","Basalt","Andesite","02","false","2","1","",""
"","","","","","","","","","","","html-keyboard-response","216","2.0.0","944080","66642e662f34ff5f86f505f2","1","54","null","","","","","","","","","<p style='font-size: 30px;'><strong>Okay</strong></p>","null","neutral_feedback","1","test","6","","","","","","","",""
"","","","","","","","","","","","html-button-response","217","2.0.0","949058","66642e662f34ff5f86f505f2","1","54","4975","","","","","","","","","<img src= ""rock_img/I_Peridotite_05.jpg"" style=""width:8cm; height:7.1499999999999995cm;""><p>What type of rock is this?</p>","5","class_response","1","test","7","Pegmatite","Peridotite","05","false","6","7","",""
"","","","","","","","","","","","html-keyboard-response","218","2.0.0","949573","66642e662f34ff5f86f505f2","1","54","null","","","","","","","","","<p style='font-size: 30px;'><strong>Okay</strong></p>","null","neutral_feedback","1","test","7","","","","","","","",""
"","","","","","","","","","","","html-button-response","219","2.0.0","952263","66642e662f34ff5f86f505f2","1","54","2688","","","","","","","","","<img src= ""rock_img/I_Basalt_02.jpg"" style=""width:8cm; height:6.45cm;""><p>What type of rock is this?</p>","3","class_response","1","test","8","Gabbro","Basalt","02","false","4","2","",""
"","","","","","","","","","","","html-keyboard-response","220","2.0.0","952779","66642e662f34ff5f86f505f2","1","54","null","","","","","","","","","<p style='font-size: 30px;'><strong>Okay</strong></p>","null","neutral_feedback","1","test","8","","","","","","","",""
"","","","","","","","","","","","html-button-response","221","2.0.0","957557","66642e662f34ff5f86f505f2","1","54","4777","","","","","","","","","<img src= ""rock_img/I_Peridotite_13.jpg"" style=""width:8cm; height:7.58cm;""><p>What type of rock is this?</p>","5","class_response","1","test","9","Pegmatite","Peridotite","13","false","6","7","",""
"","","","","","","","","","","","html-keyboard-response","222","2.0.0","958063","66642e662f34ff5f86f505f2","1","54","null","","","","","","","","","<p style='font-size: 30px;'><strong>Okay</strong></p>","null","neutral_feedback","1","test","9","","","","","","","",""
"","","","","","","","","","","","html-button-response","223","2.0.0","964942","66642e662f34ff5f86f505f2","1","54","6876","","","","","","","","","<img src= ""rock_img/I_Basalt_11.jpg"" style=""width:8cm; height:5.359999999999999cm;""><p>What type of rock is this?</p>","7","class_response","1","test","10","Pumice","Basalt","11","false","8","2","",""
"","","","","","","","","","","","html-keyboard-response","224","2.0.0","965457","66642e662f34ff5f86f505f2","1","54","null","","","","","","","","","<p style='font-size: 30px;'><strong>Okay</strong></p>","null","neutral_feedback","1","test","10","","","","","","","",""
"","","","","","","","","","","","html-button-response","225","2.0.0","974307","66642e662f34ff5f86f505f2","1","54","8848","","","","","","","","","<img src= ""rock_img/I_Pegmatite_03.jpg"" style=""width:8cm; height:5.239999999999999cm;""><p>What type of rock is this?</p>","5","class_response","1","test","11","Pegmatite","Pegmatite","03","true","6","6","",""
"","","","","","","","","","","","html-keyboard-response","226","2.0.0","974824","66642e662f34ff5f86f505f2","1","54","null","","","","","","","","","<p style='font-size: 30px;'><strong>Okay</strong></p>","null","neutral_feedback","1","test","11","","","","","","","",""
"","","","","","","","","","","","html-button-response","227","2.0.0","978287","66642e662f34ff5f86f505f2","1","54","3460","","","","","","","","","<img src= ""rock_img/I_Gabbro_03.jpg"" style=""width:8cm; height:8.52cm;""><p>What type of rock is this?</p>","2","class_response","1","test","12","Diorite","Gabbro","03","false","3","4","",""
"","","","","","","","","","","","html-keyboard-response","228","2.0.0","978800","66642e662f34ff5f86f505f2","1","54","null","","","","","","","","","<p style='font-size: 30px;'><strong>Okay</strong></p>","null","neutral_feedback","1","test","12","","","","","","","",""
"","","","","","","","","","","","html-button-response","229","2.0.0","981324","66642e662f34ff5f86f505f2","1","54","2522","","","","","","","","","<img src= ""rock_img/I_Diorite_09.jpg"" style=""width:8cm; height:5.27cm;""><p>What type of rock is this?</p>","2","class_response","1","test","13","Diorite","Diorite","09","true","3","3","",""
"","","","","","","","","","","","html-keyboard-response","230","2.0.0","981838","66642e662f34ff5f86f505f2","1","54","null","","","","","","","","","<p style='font-size: 30px;'><strong>Okay</strong></p>","null","neutral_feedback","1","test","13","","","","","","","",""
"","","","","","","","","","","","html-button-response","231","2.0.0","984741","66642e662f34ff5f86f505f2","1","54","2900","","","","","","","","","<img src= ""rock_img/I_Gabbro_16.jpg"" style=""width:8cm; height:6.44cm;""><p>What type of rock is this?</p>","4","class_response","1","test","14","Obsidian","Gabbro","16","false","5","4","",""
"","","","","","","","","","","","html-keyboard-response","232","2.0.0","985246","66642e662f34ff5f86f505f2","1","54","null","","","","","","","","","<p style='font-size: 30px;'><strong>Okay</strong></p>","null","neutral_feedback","1","test","14","","","","","","","",""
"","","","","","","","","","","","html-button-response","233","2.0.0","990224","66642e662f34ff5f86f505f2","1","54","4975","","","","","","","","","<img src= ""rock_img/I_Basalt_12.jpg"" style=""width:8cm; height:6.010000000000001cm;""><p>What type of rock is this?</p>","3","class_response","1","test","15","Gabbro","Basalt","12","false","4","2","",""
"","","","","","","","","","","","html-keyboard-response","234","2.0.0","990725","66642e662f34ff5f86f505f2","1","54","null","","","","","","","","","<p style='font-size: 30px;'><strong>Okay</strong></p>","null","neutral_feedback","1","test","15","","","","","","","",""
"","","","","","","","","","","","html-button-response","235","2.0.0","993938","66642e662f34ff5f86f505f2","1","54","3209","","","","","","","","","<img src= ""rock_img/I_Diorite_12.jpg"" style=""width:8cm; height:4.88cm;""><p>What type of rock is this?</p>","2","class_response","1","test","16","Diorite","Diorite","12","true","3","3","",""
"","","","","","","","","","","","html-keyboard-response","236","2.0.0","994442","66642e662f34ff5f86f505f2","1","54","null","","","","","","","","","<p style='font-size: 30px;'><strong>Okay</strong></p>","null","neutral_feedback","1","test","16","","","","","","","",""
"","","","","","","","","","","","html-button-response","237","2.0.0","996374","66642e662f34ff5f86f505f2","1","54","1929","","","","","","","","","<img src= ""rock_img/I_Pumice_14.jpg"" style=""width:8cm; height:6.39cm;""><p>What type of rock is this?</p>","7","class_response","1","test","17","Pumice","Pumice","14","true","8","8","",""
"","","","","","","","","","","","html-keyboard-response","238","2.0.0","996876","66642e662f34ff5f86f505f2","1","54","null","","","","","","","","","<p style='font-size: 30px;'><strong>Okay</strong></p>","null","neutral_feedback","1","test","17","","","","","","","",""
"","","","","","","","","","","","html-button-response","239","2.0.0","1000822","66642e662f34ff5f86f505f2","1","54","3943","","","","","","","","","<img src= ""rock_img/I_Pegmatite_05.jpg"" style=""width:8cm; height:7.300000000000001cm;""><p>What type of rock is this?</p>","5","class_response","1","test","18","Pegmatite","Pegmatite","05","true","6","6","",""
"","","","","","","","","","","","html-keyboard-response","240","2.0.0","1001324","66642e662f34ff5f86f505f2","1","54","null","","","","","","","","","<p style='font-size: 30px;'><strong>Okay</strong></p>","null","neutral_feedback","1","test","18","","","","","","","",""
"","","","","","","","","","","","html-button-response","241","2.0.0","1004140","66642e662f34ff5f86f505f2","1","54","2815","","","","","","","","","<img src= ""rock_img/I_Obsidian_10.jpg"" style=""width:8cm; height:6.260000000000001cm;""><p>What type of rock is this?</p>","4","class_response","1","test","19","Obsidian","Obsidian","10","true","5","5","",""
"","","","","","","","","","","","html-keyboard-response","242","2.0.0","1004655","66642e662f34ff5f86f505f2","1","54","null","","","","","","","","","<p style='font-size: 30px;'><strong>Okay</strong></p>","null","neutral_feedback","1","test","19","","","","","","","",""
"","","","","","","","","","","","html-button-response","243","2.0.0","1007705","66642e662f34ff5f86f505f2","1","54","3047","","","","","","","","","<img src= ""rock_img/I_Basalt_08.jpg"" style=""width:8cm; height:10.44cm;""><p>What type of rock is this?</p>","2","class_response","1","test","20","Diorite","Basalt","08","false","3","2","",""
"","","","","","","","","","","","html-keyboard-response","244","2.0.0","1008213","66642e662f34ff5f86f505f2","1","54","null","","","","","","","","","<p style='font-size: 30px;'><strong>Okay</strong></p>","null","neutral_feedback","1","test","20","","","","","","","",""
"","","","","","","","","","","","html-button-response","245","2.0.0","1014535","66642e662f34ff5f86f505f2","1","54","6321","","","","","","","","","<img src= ""rock_img/I_Diorite_10.jpg"" style=""width:8cm; height:5.949999999999999cm;""><p>What type of rock is this?</p>","2","class_response","1","test","21","Diorite","Diorite","10","true","3","3","",""
"","","","","","","","","","","","html-keyboard-response","246","2.0.0","1015039","66642e662f34ff5f86f505f2","1","54","null","","","","","","","","","<p style='font-size: 30px;'><strong>Okay</strong></p>","null","neutral_feedback","1","test","21","","","","","","","",""
"","","","","","","","","","","","html-button-response","247","2.0.0","1019355","66642e662f34ff5f86f505f2","1","54","4314","","","","","","","","","<img src= ""rock_img/I_Pumice_10.jpg"" style=""width:8cm; height:7.609999999999999cm;""><p>What type of rock is this?</p>","7","class_response","1","test","22","Pumice","Pumice","10","true","8","8","",""
"","","","","","","","","","","","html-keyboard-response","248","2.0.0","1019863","66642e662f34ff5f86f505f2","1","54","null","","","","","","","","","<p style='font-size: 30px;'><strong>Okay</strong></p>","null","neutral_feedback","1","test","22","","","","","","","",""
"","","","","","","","","","","","html-button-response","249","2.0.0","1023452","66642e662f34ff5f86f505f2","1","54","3588","","","","","","","","","<img src= ""rock_img/I_Pegmatite_11.jpg"" style=""width:8cm; height:8.14cm;""><p>What type of rock is this?</p>","5","class_response","1","test","23","Pegmatite","Pegmatite","11","true","6","6","",""
"","","","","","","","","","","","html-keyboard-response","250","2.0.0","1023962","66642e662f34ff5f86f505f2","1","54","null","","","","","","","","","<p style='font-size: 30px;'><strong>Okay</strong></p>","null","neutral_feedback","1","test","23","","","","","","","",""
"","","","","","","","","","","","html-button-response","251","2.0.0","1032321","66642e662f34ff5f86f505f2","1","54","8356","","","","","","","","","<img src= ""rock_img/I_Andesite_06.jpg"" style=""width:8cm; height:6.840000000000001cm;""><p>What type of rock is this?</p>","0","class_response","1","test","24","Andesite","Andesite","06","true","1","1","",""
"","","","","","","","","","","","html-keyboard-response","252","2.0.0","1032838","66642e662f34ff5f86f505f2","1","54","null","","","","","","","","","<p style='font-size: 30px;'><strong>Okay</strong></p>","null","neutral_feedback","1","test","24","","","","","","","",""
"","","","","","","","","","","","html-button-response","253","2.0.0","1043637","66642e662f34ff5f86f505f2","1","54","10797","","","","","","","","","<img src= ""rock_img/I_Basalt_16.jpg"" style=""width:8cm; height:7.659999999999999cm;""><p>What type of rock is this?</p>","3","class_response","1","test","25","Gabbro","Basalt","16","false","4","2","",""
"","","","","","","","","","","","html-keyboard-response","254","2.0.0","1044155","66642e662f34ff5f86f505f2","1","54","null","","","","","","","","","<p style='font-size: 30px;'><strong>Okay</strong></p>","null","neutral_feedback","1","test","25","","","","","","","",""
"","","","","","","","","","","","html-button-response","255","2.0.0","1046017","66642e662f34ff5f86f505f2","1","54","1860","","","","","","","","","<img src= ""rock_img/I_Pumice_08.jpg"" style=""width:8cm; height:6.67cm;""><p>What type of rock is this?</p>","7","class_response","1","test","26","Pumice","Pumice","08","true","8","8","",""
"","","","","","","","","","","","html-keyboard-response","256","2.0.0","1046524","66642e662f34ff5f86f505f2","1","54","null","","","","","","","","","<p style='font-size: 30px;'><strong>Okay</strong></p>","null","neutral_feedback","1","test","26","","","","","","","",""
"","","","","","","","","","","","html-button-response","257","2.0.0","1048921","66642e662f34ff5f86f505f2","1","54","2396","","","","","","","","","<img src= ""rock_img/I_Peridotite_15.jpg"" style=""width:8cm; height:6cm;""><p>What type of rock is this?</p>","5","class_response","1","test","27","Pegmatite","Peridotite","15","false","6","7","",""
"","","","","","","","","","","","html-keyboard-response","258","2.0.0","1049423","66642e662f34ff5f86f505f2","1","54","null","","","","","","","","","<p style='font-size: 30px;'><strong>Okay</strong></p>","null","neutral_feedback","1","test","27","","","","","","","",""
"","","","","","","","","","","","html-button-response","259","2.0.0","1052020","66642e662f34ff5f86f505f2","1","54","2594","","","","","","","","","<img src= ""rock_img/I_Peridotite_07.jpg"" style=""width:8cm; height:4.83cm;""><p>What type of rock is this?</p>","7","class_response","1","test","28","Pumice","Peridotite","07","false","8","7","",""
"","","","","","","","","","","","html-keyboard-response","260","2.0.0","1052537","66642e662f34ff5f86f505f2","1","54","null","","","","","","","","","<p style='font-size: 30px;'><strong>Okay</strong></p>","null","neutral_feedback","1","test","28","","","","","","","",""
"","","","","","","","","","","","html-button-response","261","2.0.0","1060100","66642e662f34ff5f86f505f2","1","54","7562","","","","","","","","","<img src= ""rock_img/I_Andesite_09.jpg"" style=""width:8cm; height:6cm;""><p>What type of rock is this?</p>","2","class_response","1","test","29","Diorite","Andesite","09","false","3","1","",""
"","","","","","","","","","","","html-keyboard-response","262","2.0.0","1060608","66642e662f34ff5f86f505f2","1","54","null","","","","","","","","","<p style='font-size: 30px;'><strong>Okay</strong></p>","null","neutral_feedback","1","test","29","","","","","","","",""
"","","","","","","","","","","","html-button-response","263","2.0.0","1062983","66642e662f34ff5f86f505f2","1","54","2373","","","","","","","","","<img src= ""rock_img/I_Obsidian_06.jpg"" style=""width:8cm; height:6.8cm;""><p>What type of rock is this?</p>","4","class_response","1","test","30","Obsidian","Obsidian","06","true","5","5","",""
"","","","","","","","","","","","html-keyboard-response","264","2.0.0","1063488","66642e662f34ff5f86f505f2","1","54","null","","","","","","","","","<p style='font-size: 30px;'><strong>Okay</strong></p>","null","neutral_feedback","1","test","30","","","","","","","",""
"","","","","","","","","","","","html-button-response","265","2.0.0","1066582","66642e662f34ff5f86f505f2","1","54","3091","","","","","","","","","<img src= ""rock_img/I_Pegmatite_06.jpg"" style=""width:8cm; height:5.17cm;""><p>What type of rock is this?</p>","5","class_response","1","test","31","Pegmatite","Pegmatite","06","true","6","6","",""
"","","","","","","","","","","","html-keyboard-response","266","2.0.0","1067083","66642e662f34ff5f86f505f2","1","54","null","","","","","","","","","<p style='font-size: 30px;'><strong>Okay</strong></p>","null","neutral_feedback","1","test","31","","","","","","","",""
"","","","","","","","","","","","html-button-response","267","2.0.0","1069298","66642e662f34ff5f86f505f2","1","54","2212","","","","","","","","","<img src= ""rock_img/I_Obsidian_14.jpg"" style=""width:8cm; height:7.64cm;""><p>What type of rock is this?</p>","4","class_response","1","test","32","Obsidian","Obsidian","14","true","5","5","",""
"","","","","","","","","","","","html-keyboard-response","268","2.0.0","1069807","66642e662f34ff5f86f505f2","1","54","null","","","","","","","","","<p style='font-size: 30px;'><strong>Okay</strong></p>","null","neutral_feedback","1","test","32","","","","","","","",""
"","","","","","","","","","","","html-button-response","269","2.0.0","1071813","66642e662f34ff5f86f505f2","1","54","2004","","","","","","","","","<img src= ""rock_img/I_Obsidian_16.jpg"" style=""width:8cm; height:9.3cm;""><p>What type of rock is this?</p>","4","class_response","1","test","33","Obsidian","Obsidian","16","true","5","5","",""
"","","","","","","","","","","","html-keyboard-response","270","2.0.0","1072328","66642e662f34ff5f86f505f2","1","54","null","","","","","","","","","<p style='font-size: 30px;'><strong>Okay</strong></p>","null","neutral_feedback","1","test","33","","","","","","","",""
"","","","","","","","","","","","html-button-response","271","2.0.0","1074485","66642e662f34ff5f86f505f2","1","54","2155","","","","","","","","","<img src= ""rock_img/I_Basalt_04.jpg"" style=""width:8cm; height:7.53cm;""><p>What type of rock is this?</p>","3","class_response","1","test","34","Gabbro","Basalt","04","false","4","2","",""
"","","","","","","","","","","","html-keyboard-response","272","2.0.0","1075001","66642e662f34ff5f86f505f2","1","54","null","","","","","","","","","<p style='font-size: 30px;'><strong>Okay</strong></p>","null","neutral_feedback","1","test","34","","","","","","","",""
"","","","","","","","","","","","html-button-response","273","2.0.0","1075604","66642e662f34ff5f86f505f2","1","54","600","","","","","","","","","<img src= ""rock_img/I_Peridotite_12.jpg"" style=""width:8cm; height:4.54cm;""><p>What type of rock is this?</p>","7","class_response","1","test","35","Pumice","Peridotite","12","false","8","7","",""
"","","","","","","","","","","","html-keyboard-response","274","2.0.0","1076120","66642e662f34ff5f86f505f2","1","54","null","","","","","","","","","<p style='font-size: 30px;'><strong>Okay</strong></p>","null","neutral_feedback","1","test","35","","","","","","","",""
"","","","","","","","","","","","html-button-response","275","2.0.0","1078052","66642e662f34ff5f86f505f2","1","54","1930","","","","","","","","","<img src= ""rock_img/I_Diorite_11.jpg"" style=""width:8cm; height:7.11cm;""><p>What type of rock is this?</p>","1","class_response","1","test","36","Basalt","Diorite","11","false","2","3","",""
"","","","","","","","","","","","html-keyboard-response","276","2.0.0","1078566","66642e662f34ff5f86f505f2","1","54","null","","","","","","","","","<p style='font-size: 30px;'><strong>Okay</strong></p>","null","neutral_feedback","1","test","36","","","","","","","",""
"","","","","","","","","","","","html-button-response","277","2.0.0","1084583","66642e662f34ff5f86f505f2","1","54","6015","","","","","","","","","<img src= ""rock_img/I_Diorite_14.jpg"" style=""width:8cm; height:5.71cm;""><p>What type of rock is this?</p>","2","class_response","1","test","37","Diorite","Diorite","14","true","3","3","",""
"","","","","","","","","","","","html-keyboard-response","278","2.0.0","1085087","66642e662f34ff5f86f505f2","1","54","null","","","","","","","","","<p style='font-size: 30px;'><strong>Okay</strong></p>","null","neutral_feedback","1","test","37","","","","","","","",""
"","","","","","","","","","","","html-button-response","279","2.0.0","1086202","66642e662f34ff5f86f505f2","1","54","1113","","","","","","","","","<img src= ""rock_img/I_Peridotite_04.jpg"" style=""width:8cm; height:6.680000000000001cm;""><p>What type of rock is this?</p>","2","class_response","1","test","38","Diorite","Peridotite","04","false","3","7","",""
"","","","","","","","","","","","html-keyboard-response","280","2.0.0","1086704","66642e662f34ff5f86f505f2","1","54","null","","","","","","","","","<p style='font-size: 30px;'><strong>Okay</strong></p>","null","neutral_feedback","1","test","38","","","","","","","",""
"","","","","","","","","","","","html-button-response","281","2.0.0","1099787","66642e662f34ff5f86f505f2","1","54","13081","","","","","","","","","<img src= ""rock_img/I_Obsidian_08.jpg"" style=""width:8cm; height:7.39cm;""><p>What type of rock is this?</p>","4","class_response","1","test","39","Obsidian","Obsidian","08","true","5","5","",""
"","","","","","","","","","","","html-keyboard-response","282","2.0.0","1100294","66642e662f34ff5f86f505f2","1","54","null","","","","","","","","","<p style='font-size: 30px;'><strong>Okay</strong></p>","null","neutral_feedback","1","test","39","","","","","","","",""
"","","","","","","","","","","","html-button-response","283","2.0.0","1101916","66642e662f34ff5f86f505f2","1","54","1620","","","","","","","","","<img src= ""rock_img/I_Pumice_04.jpg"" style=""width:8cm; height:6.819999999999999cm;""><p>What type of rock is this?</p>","7","class_response","1","test","40","Pumice","Pumice","04","true","8","8","",""
"","","","","","","","","","","","html-keyboard-response","284","2.0.0","1102433","66642e662f34ff5f86f505f2","1","54","null","","","","","","","","","<p style='font-size: 30px;'><strong>Okay</strong></p>","null","neutral_feedback","1","test","40","","","","","","","",""
"","","","","","","","","","","","html-button-response","285","2.0.0","1104501","66642e662f34ff5f86f505f2","1","54","2065","","","","","","","","","<img src= ""rock_img/I_Obsidian_05.jpg"" style=""width:8cm; height:6.33cm;""><p>What type of rock is this?</p>","4","class_response","1","test","41","Obsidian","Obsidian","05","true","5","5","",""
"","","","","","","","","","","","html-keyboard-response","286","2.0.0","1105005","66642e662f34ff5f86f505f2","1","54","null","","","","","","","","","<p style='font-size: 30px;'><strong>Okay</strong></p>","null","neutral_feedback","1","test","41","","","","","","","",""
"","","","","","","","","","","","html-button-response","287","2.0.0","1109191","66642e662f34ff5f86f505f2","1","54","4184","","","","","","","","","<img src= ""rock_img/I_Pegmatite_10.jpg"" style=""width:8cm; height:4.16cm;""><p>What type of rock is this?</p>","5","class_response","1","test","42","Pegmatite","Pegmatite","10","true","6","6","",""
"","","","","","","","","","","","html-keyboard-response","288","2.0.0","1109702","66642e662f34ff5f86f505f2","1","54","null","","","","","","","","","<p style='font-size: 30px;'><strong>Okay</strong></p>","null","neutral_feedback","1","test","42","","","","","","","",""
"","","","","","","","","","","","html-button-response","289","2.0.0","1112102","66642e662f34ff5f86f505f2","1","54","2398","","","","","","","","","<img src= ""rock_img/I_Andesite_16.jpg"" style=""width:8cm; height:6.010000000000001cm;""><p>What type of rock is this?</p>","2","class_response","1","test","43","Diorite","Andesite","16","false","3","1","",""
"","","","","","","","","","","","html-keyboard-response","290","2.0.0","1112618","66642e662f34ff5f86f505f2","1","54","null","","","","","","","","","<p style='font-size: 30px;'><strong>Okay</strong></p>","null","neutral_feedback","1","test","43","","","","","","","",""
"","","","","","","","","","","","html-button-response","291","2.0.0","1114091","66642e662f34ff5f86f505f2","1","54","1472","","","","","","","","","<img src= ""rock_img/I_Gabbro_09.jpg"" style=""width:8cm; height:7.279999999999999cm;""><p>What type of rock is this?</p>","2","class_response","1","test","44","Diorite","Gabbro","09","false","3","4","",""
"","","","","","","","","","","","html-keyboard-response","292","2.0.0","1114600","66642e662f34ff5f86f505f2","1","54","null","","","","","","","","","<p style='font-size: 30px;'><strong>Okay</strong></p>","null","neutral_feedback","1","test","44","","","","","","","",""
"","","","","","","","","","","","html-button-response","293","2.0.0","1116931","66642e662f34ff5f86f505f2","1","54","2328","","","","","","","","","<img src= ""rock_img/I_Gabbro_15.jpg"" style=""width:8cm; height:6.29cm;""><p>What type of rock is this?</p>","6","class_response","1","test","45","Peridotite","Gabbro","15","false","7","4","",""
"","","","","","","","","","","","html-keyboard-response","294","2.0.0","1117434","66642e662f34ff5f86f505f2","1","54","null","","","","","","","","","<p style='font-size: 30px;'><strong>Okay</strong></p>","null","neutral_feedback","1","test","45","","","","","","","",""
"","","","","","","","","","","","html-button-response","295","2.0.0","1121797","66642e662f34ff5f86f505f2","1","54","4361","","","","","","","","","<img src= ""rock_img/I_Pegmatite_07.jpg"" style=""width:8cm; height:6.7cm;""><p>What type of rock is this?</p>","5","class_response","1","test","46","Pegmatite","Pegmatite","07","true","6","6","",""
"","","","","","","","","","","","html-keyboard-response","296","2.0.0","1122307","66642e662f34ff5f86f505f2","1","54","null","","","","","","","","","<p style='font-size: 30px;'><strong>Okay</strong></p>","null","neutral_feedback","1","test","46","","","","","","","",""
"","","","","","","","","","","","html-button-response","297","2.0.0","1126064","66642e662f34ff5f86f505f2","1","54","3755","","","","","","","","","<img src= ""rock_img/I_Pumice_13.jpg"" style=""width:8cm; height:8.200000000000001cm;""><p>What type of rock is this?</p>","7","class_response","1","test","47","Pumice","Pumice","13","true","8","8","",""
"","","","","","","","","","","","html-keyboard-response","298","2.0.0","1126570","66642e662f34ff5f86f505f2","1","54","null","","","","","","","","","<p style='font-size: 30px;'><strong>Okay</strong></p>","null","neutral_feedback","1","test","47","","","","","","","",""
"","","","","","","","","","","","html-button-response","299","2.0.0","1136548","66642e662f34ff5f86f505f2","1","54","9976","","","","","","","","","<img src= ""rock_img/I_Gabbro_08.jpg"" style=""width:8cm; height:5.15cm;""><p>What type of rock is this?</p>","2","class_response","1","test","48","Diorite","Gabbro","08","false","3","4","",""
"","","","","","","","","","","","html-keyboard-response","300","2.0.0","1137051","66642e662f34ff5f86f505f2","1","54","null","","","","","","","","","<p style='font-size: 30px;'><strong>Okay</strong></p>","null","neutral_feedback","1","test","48","","","","","","","",""
"","","","","","","","","","","","html-button-response","301","2.0.0","1184527","66642e662f34ff5f86f505f2","1","54","","","","","","","","","","","","cycle_feedback","","","","","","","","","","15724.599999964237","31746.69999998808"
"","","","","","","","","","","","html-button-response","303","2.0.0","1191892","66642e662f34ff5f86f505f2","1","54","7364","","","","","","","","","","0","start_train","","","","","","","","","","",""
"","","","","","","","","","","","html-button-response","304","2.0.0","1195579","66642e662f34ff5f86f505f2","1","54","3685","","","","","","","","","<img src= ""rock_img/I_Gabbro_14.jpg"" style=""width:8cm; height:8.48cm;""><p>What type of rock is this?</p>","0","class_response","2","train","1","Andesite","Gabbro","14","false","1","4","",""
