"width","height","webaudio","browser","browser_version","mobile","os","fullscreen","vsync_rate","webcam","microphone","trial_type","trial_index","plugin_version","time_elapsed","subjID","condition","stimID","rt","url","success","value","timeout","failed_images","failed_audio","failed_video","view_history","stimulus","response","trialType","cycle","phase","trial","resp","cat","token","corr","resp_num","cat_num","time_fb1","time_fb2"
"1440","727","true","chrome","130.0.0","false","Mac OS","true","59.23","true","true","browser-check","0","2.0.0","1038","66cf5d2817623ac399e0586f","1","46","","","","","","","","","","","","","","","","","","","","","","",""
"","","","","","","","","","","","external-html","1","2.0.0","17205","66cf5d2817623ac399e0586f","1","46","16014","consent_form.html","","","","","","","","","","","","","","","","","","","","",""
"","","","","","","","","","","","fullscreen","2","2.0.0","20414","66cf5d2817623ac399e0586f","1","46","2200","","true","","","","","","","","","","","","","","","","","","","",""
"","","","","","","","","","","","call-function","3","2.0.0","20418","66cf5d2817623ac399e0586f","1","46","","","","{}","","","","","","","","","","","","","","","","","","",""
"","","","","","","","","","","","preload","4","2.0.0","22855","66cf5d2817623ac399e0586f","1","46","","","true","","false","[]","[]","[]","","","","","","","","","","","","","","",""
"","","","","","","","","","","","instructions","5","2.0.0","49390","66cf5d2817623ac399e0586f","1","46","26534","","","","","","","","[{""page_index"":0,""viewing_time"":4574},{""page_index"":1,""viewing_time"":13999},{""page_index"":2,""viewing_time"":7961}]","","","","","","","","","","","","","",""
"","","","","","","","","","","","html-button-response","6","2.0.0","51808","66cf5d2817623ac399e0586f","1","46","2415","","","","","","","","","","0","start_test","","","","","","","","","","",""
"","","","","","","","","","","","html-button-response","7","2.0.0","61559","66cf5d2817623ac399e0586f","1","46","9748","","","","","","","","","<img src= ""rock_img/I_Peridotite_02.jpg"" style=""width:8cm; height:5.859999999999999cm;""><p>What type of rock is this?</p>","6","class_response","0","test","1","Peridotite","Peridotite","02","true","7","7","",""
"","","","","","","","","","","","html-keyboard-response","8","2.0.0","62062","66cf5d2817623ac399e0586f","1","46","null","","","","","","","","","<p style='font-size: 30px;'><strong>Okay</strong></p>","null","neutral_feedback","0","test","1","","","","","","","",""
"","","","","","","","","","","","html-button-response","9","2.0.0","68635","66cf5d2817623ac399e0586f","1","46","6570","","","","","","","","","<img src= ""rock_img/I_Basalt_01.jpg"" style=""width:8cm; height:7.880000000000001cm;""><p>What type of rock is this?</p>","1","class_response","0","test","2","Basalt","Basalt","01","true","2","2","",""
"","","","","","","","","","","","html-keyboard-response","10","2.0.0","69138","66cf5d2817623ac399e0586f","1","46","null","","","","","","","","","<p style='font-size: 30px;'><strong>Okay</strong></p>","null","neutral_feedback","0","test","2","","","","","","","",""
"","","","","","","","","","","","html-button-response","11","2.0.0","72704","66cf5d2817623ac399e0586f","1","46","3563","","","","","","","","","<img src= ""rock_img/I_Pumice_04.jpg"" style=""width:8cm; height:6.819999999999999cm;""><p>What type of rock is this?</p>","7","class_response","0","test","3","Pumice","Pumice","04","true","8","8","",""
"","","","","","","","","","","","html-keyboard-response","12","2.0.0","73207","66cf5d2817623ac399e0586f","1","46","null","","","","","","","","","<p style='font-size: 30px;'><strong>Okay</strong></p>","null","neutral_feedback","0","test","3","","","","","","","",""
"","","","","","","","","","","","html-button-response","13","2.0.0","78536","66cf5d2817623ac399e0586f","1","46","5327","","","","","","","","","<img src= ""rock_img/I_Pegmatite_06.jpg"" style=""width:8cm; height:5.17cm;""><p>What type of rock is this?</p>","3","class_response","0","test","4","Gabbro","Pegmatite","06","false","4","6","",""
"","","","","","","","","","","","html-keyboard-response","14","2.0.0","79039","66cf5d2817623ac399e0586f","1","46","null","","","","","","","","","<p style='font-size: 30px;'><strong>Okay</strong></p>","null","neutral_feedback","0","test","4","","","","","","","",""
"","","","","","","","","","","","html-button-response","15","2.0.0","83803","66cf5d2817623ac399e0586f","1","46","4761","","","","","","","","","<img src= ""rock_img/I_Pumice_08.jpg"" style=""width:8cm; height:6.67cm;""><p>What type of rock is this?</p>","7","class_response","0","test","5","Pumice","Pumice","08","true","8","8","",""
"","","","","","","","","","","","html-keyboard-response","16","2.0.0","84306","66cf5d2817623ac399e0586f","1","46","null","","","","","","","","","<p style='font-size: 30px;'><strong>Okay</strong></p>","null","neutral_feedback","0","test","5","","","","","","","",""
"","","","","","","","","","","","html-button-response","17","2.0.0","88691","66cf5d2817623ac399e0586f","1","46","4383","","","","","","","","","<img src= ""rock_img/I_Gabbro_08.jpg"" style=""width:8cm; height:5.15cm;""><p>What type of rock is this?</p>","2","class_response","0","test","6","Diorite","Gabbro","08","false","3","4","",""
"","","","","","","","","","","","html-keyboard-response","18","2.0.0","89193","66cf5d2817623ac399e0586f","1","46","null","","","","","","","","","<p style='font-size: 30px;'><strong>Okay</strong></p>","null","neutral_feedback","0","test","6","","","","","","","",""
"","","","","","","","","","","","html-button-response","19","2.0.0","91494","66cf5d2817623ac399e0586f","1","46","2300","","","","","","","","","<img src= ""rock_img/I_Pegmatite_05.jpg"" style=""width:8cm; height:7.300000000000001cm;""><p>What type of rock is this?</p>","4","class_response","0","test","7","Obsidian","Pegmatite","05","false","5","6","",""
"","","","","","","","","","","","html-keyboard-response","20","2.0.0","91996","66cf5d2817623ac399e0586f","1","46","null","","","","","","","","","<p style='font-size: 30px;'><strong>Okay</strong></p>","null","neutral_feedback","0","test","7","","","","","","","",""
"","","","","","","","","","","","html-button-response","21","2.0.0","94228","66cf5d2817623ac399e0586f","1","46","2230","","","","","","","","","<img src= ""rock_img/I_Basalt_06.jpg"" style=""width:8cm; height:7.06cm;""><p>What type of rock is this?</p>","4","class_response","0","test","8","Obsidian","Basalt","06","false","5","2","",""
"","","","","","","","","","","","html-keyboard-response","22","2.0.0","94729","66cf5d2817623ac399e0586f","1","46","null","","","","","","","","","<p style='font-size: 30px;'><strong>Okay</strong></p>","null","neutral_feedback","0","test","8","","","","","","","",""
"","","","","","","","","","","","html-button-response","23","2.0.0","98727","66cf5d2817623ac399e0586f","1","46","3996","","","","","","","","","<img src= ""rock_img/I_Diorite_10.jpg"" style=""width:8cm; height:5.949999999999999cm;""><p>What type of rock is this?</p>","3","class_response","0","test","9","Gabbro","Diorite","10","false","4","3","",""
"","","","","","","","","","","","html-keyboard-response","24","2.0.0","99230","66cf5d2817623ac399e0586f","1","46","null","","","","","","","","","<p style='font-size: 30px;'><strong>Okay</strong></p>","null","neutral_feedback","0","test","9","","","","","","","",""
"","","","","","","","","","","","html-button-response","25","2.0.0","103888","66cf5d2817623ac399e0586f","1","46","4656","","","","","","","","","<img src= ""rock_img/I_Andesite_03.jpg"" style=""width:8cm; height:5.73cm;""><p>What type of rock is this?</p>","1","class_response","0","test","10","Basalt","Andesite","03","false","2","1","",""
"","","","","","","","","","","","html-keyboard-response","26","2.0.0","104391","66cf5d2817623ac399e0586f","1","46","null","","","","","","","","","<p style='font-size: 30px;'><strong>Okay</strong></p>","null","neutral_feedback","0","test","10","","","","","","","",""
"","","","","","","","","","","","html-button-response","27","2.0.0","105958","66cf5d2817623ac399e0586f","1","46","1564","","","","","","","","","<img src= ""rock_img/I_Obsidian_02.jpg"" style=""width:8cm; height:7.51cm;""><p>What type of rock is this?</p>","4","class_response","0","test","11","Obsidian","Obsidian","02","true","5","5","",""
"","","","","","","","","","","","html-keyboard-response","28","2.0.0","106460","66cf5d2817623ac399e0586f","1","46","null","","","","","","","","","<p style='font-size: 30px;'><strong>Okay</strong></p>","null","neutral_feedback","0","test","11","","","","","","","",""
"","","","","","","","","","","","html-button-response","29","2.0.0","111026","66cf5d2817623ac399e0586f","1","46","4564","","","","","","","","","<img src= ""rock_img/I_Diorite_13.jpg"" style=""width:8cm; height:6.29cm;""><p>What type of rock is this?</p>","0","class_response","0","test","12","Andesite","Diorite","13","false","1","3","",""
"","","","","","","","","","","","html-keyboard-response","30","2.0.0","111528","66cf5d2817623ac399e0586f","1","46","null","","","","","","","","","<p style='font-size: 30px;'><strong>Okay</strong></p>","null","neutral_feedback","0","test","12","","","","","","","",""
"","","","","","","","","","","","html-button-response","31","2.0.0","113038","66cf5d2817623ac399e0586f","1","46","1507","","","","","","","","","<img src= ""rock_img/I_Obsidian_06.jpg"" style=""width:8cm; height:6.8cm;""><p>What type of rock is this?</p>","4","class_response","0","test","13","Obsidian","Obsidian","06","true","5","5","",""
"","","","","","","","","","","","html-keyboard-response","32","2.0.0","113540","66cf5d2817623ac399e0586f","1","46","null","","","","","","","","","<p style='font-size: 30px;'><strong>Okay</strong></p>","null","neutral_feedback","0","test","13","","","","","","","",""
"","","","","","","","","","","","html-button-response","33","2.0.0","114943","66cf5d2817623ac399e0586f","1","46","1400","","","","","","","","","<img src= ""rock_img/I_Pumice_09.jpg"" style=""width:8cm; height:6.44cm;""><p>What type of rock is this?</p>","6","class_response","0","test","14","Peridotite","Pumice","09","false","7","8","",""
"","","","","","","","","","","","html-keyboard-response","34","2.0.0","115446","66cf5d2817623ac399e0586f","1","46","null","","","","","","","","","<p style='font-size: 30px;'><strong>Okay</strong></p>","null","neutral_feedback","0","test","14","","","","","","","",""
"","","","","","","","","","","","html-button-response","35","2.0.0","119727","66cf5d2817623ac399e0586f","1","46","4279","","","","","","","","","<img src= ""rock_img/I_Pegmatite_15.jpg"" style=""width:8cm; height:6cm;""><p>What type of rock is this?</p>","5","class_response","0","test","15","Pegmatite","Pegmatite","15","true","6","6","",""
"","","","","","","","","","","","html-keyboard-response","36","2.0.0","120229","66cf5d2817623ac399e0586f","1","46","null","","","","","","","","","<p style='font-size: 30px;'><strong>Okay</strong></p>","null","neutral_feedback","0","test","15","","","","","","","",""
"","","","","","","","","","","","html-button-response","37","2.0.0","121735","66cf5d2817623ac399e0586f","1","46","1503","","","","","","","","","<img src= ""rock_img/I_Obsidian_05.jpg"" style=""width:8cm; height:6.33cm;""><p>What type of rock is this?</p>","4","class_response","0","test","16","Obsidian","Obsidian","05","true","5","5","",""
"","","","","","","","","","","","html-keyboard-response","38","2.0.0","122237","66cf5d2817623ac399e0586f","1","46","null","","","","","","","","","<p style='font-size: 30px;'><strong>Okay</strong></p>","null","neutral_feedback","0","test","16","","","","","","","",""
"","","","","","","","","","","","html-button-response","39","2.0.0","130254","66cf5d2817623ac399e0586f","1","46","8015","","","","","","","","","<img src= ""rock_img/I_Gabbro_13.jpg"" style=""width:8cm; height:5.08cm;""><p>What type of rock is this?</p>","0","class_response","0","test","17","Andesite","Gabbro","13","false","1","4","",""
"","","","","","","","","","","","html-keyboard-response","40","2.0.0","130756","66cf5d2817623ac399e0586f","1","46","null","","","","","","","","","<p style='font-size: 30px;'><strong>Okay</strong></p>","null","neutral_feedback","0","test","17","","","","","","","",""
"","","","","","","","","","","","html-button-response","41","2.0.0","132819","66cf5d2817623ac399e0586f","1","46","2060","","","","","","","","","<img src= ""rock_img/I_Gabbro_15.jpg"" style=""width:8cm; height:6.29cm;""><p>What type of rock is this?</p>","0","class_response","0","test","18","Andesite","Gabbro","15","false","1","4","",""
"","","","","","","","","","","","html-keyboard-response","42","2.0.0","133321","66cf5d2817623ac399e0586f","1","46","null","","","","","","","","","<p style='font-size: 30px;'><strong>Okay</strong></p>","null","neutral_feedback","0","test","18","","","","","","","",""
"","","","","","","","","","","","html-button-response","43","2.0.0","135252","66cf5d2817623ac399e0586f","1","46","1928","","","","","","","","","<img src= ""rock_img/I_Peridotite_14.jpg"" style=""width:8cm; height:5.3cm;""><p>What type of rock is this?</p>","6","class_response","0","test","19","Peridotite","Peridotite","14","true","7","7","",""
"","","","","","","","","","","","html-keyboard-response","44","2.0.0","135754","66cf5d2817623ac399e0586f","1","46","null","","","","","","","","","<p style='font-size: 30px;'><strong>Okay</strong></p>","null","neutral_feedback","0","test","19","","","","","","","",""
"","","","","","","","","","","","html-button-response","45","2.0.0","138743","66cf5d2817623ac399e0586f","1","46","2987","","","","","","","","","<img src= ""rock_img/I_Diorite_08.jpg"" style=""width:8cm; height:6.37cm;""><p>What type of rock is this?</p>","2","class_response","0","test","20","Diorite","Diorite","08","true","3","3","",""
"","","","","","","","","","","","html-keyboard-response","46","2.0.0","139246","66cf5d2817623ac399e0586f","1","46","null","","","","","","","","","<p style='font-size: 30px;'><strong>Okay</strong></p>","null","neutral_feedback","0","test","20","","","","","","","",""
"","","","","","","","","","","","html-button-response","47","2.0.0","140742","66cf5d2817623ac399e0586f","1","46","1494","","","","","","","","","<img src= ""rock_img/I_Peridotite_12.jpg"" style=""width:8cm; height:4.54cm;""><p>What type of rock is this?</p>","2","class_response","0","test","21","Diorite","Peridotite","12","false","3","7","",""
"","","","","","","","","","","","html-keyboard-response","48","2.0.0","141244","66cf5d2817623ac399e0586f","1","46","null","","","","","","","","","<p style='font-size: 30px;'><strong>Okay</strong></p>","null","neutral_feedback","0","test","21","","","","","","","",""
"","","","","","","","","","","","html-button-response","49","2.0.0","142992","66cf5d2817623ac399e0586f","1","46","1746","","","","","","","","","<img src= ""rock_img/I_Pumice_03.jpg"" style=""width:8cm; height:6.64cm;""><p>What type of rock is this?</p>","7","class_response","0","test","22","Pumice","Pumice","03","true","8","8","",""
"","","","","","","","","","","","html-keyboard-response","50","2.0.0","143495","66cf5d2817623ac399e0586f","1","46","null","","","","","","","","","<p style='font-size: 30px;'><strong>Okay</strong></p>","null","neutral_feedback","0","test","22","","","","","","","",""
"","","","","","","","","","","","html-button-response","51","2.0.0","146806","66cf5d2817623ac399e0586f","1","46","3308","","","","","","","","","<img src= ""rock_img/I_Pegmatite_11.jpg"" style=""width:8cm; height:8.14cm;""><p>What type of rock is this?</p>","3","class_response","0","test","23","Gabbro","Pegmatite","11","false","4","6","",""
"","","","","","","","","","","","html-keyboard-response","52","2.0.0","147308","66cf5d2817623ac399e0586f","1","46","null","","","","","","","","","<p style='font-size: 30px;'><strong>Okay</strong></p>","null","neutral_feedback","0","test","23","","","","","","","",""
"","","","","","","","","","","","html-button-response","53","2.0.0","148645","66cf5d2817623ac399e0586f","1","46","1335","","","","","","","","","<img src= ""rock_img/I_Obsidian_09.jpg"" style=""width:8cm; height:5cm;""><p>What type of rock is this?</p>","4","class_response","0","test","24","Obsidian","Obsidian","09","true","5","5","",""
"","","","","","","","","","","","html-keyboard-response","54","2.0.0","149148","66cf5d2817623ac399e0586f","1","46","null","","","","","","","","","<p style='font-size: 30px;'><strong>Okay</strong></p>","null","neutral_feedback","0","test","24","","","","","","","",""
"","","","","","","","","","","","html-button-response","55","2.0.0","150654","66cf5d2817623ac399e0586f","1","46","1505","","","","","","","","","<img src= ""rock_img/I_Obsidian_12.jpg"" style=""width:8cm; height:6.53cm;""><p>What type of rock is this?</p>","4","class_response","0","test","25","Obsidian","Obsidian","12","true","5","5","",""
"","","","","","","","","","","","html-keyboard-response","56","2.0.0","151156","66cf5d2817623ac399e0586f","1","46","null","","","","","","","","","<p style='font-size: 30px;'><strong>Okay</strong></p>","null","neutral_feedback","0","test","25","","","","","","","",""
"","","","","","","","","","","","html-button-response","57","2.0.0","155337","66cf5d2817623ac399e0586f","1","46","4179","","","","","","","","","<img src= ""rock_img/I_Diorite_09.jpg"" style=""width:8cm; height:5.27cm;""><p>What type of rock is this?</p>","0","class_response","0","test","26","Andesite","Diorite","09","false","1","3","",""
"","","","","","","","","","","","html-keyboard-response","58","2.0.0","155839","66cf5d2817623ac399e0586f","1","46","null","","","","","","","","","<p style='font-size: 30px;'><strong>Okay</strong></p>","null","neutral_feedback","0","test","26","","","","","","","",""
"","","","","","","","","","","","html-button-response","59","2.0.0","158319","66cf5d2817623ac399e0586f","1","46","2478","","","","","","","","","<img src= ""rock_img/I_Pegmatite_09.jpg"" style=""width:8cm; height:4.03cm;""><p>What type of rock is this?</p>","3","class_response","0","test","27","Gabbro","Pegmatite","09","false","4","6","",""
"","","","","","","","","","","","html-keyboard-response","60","2.0.0","158821","66cf5d2817623ac399e0586f","1","46","null","","","","","","","","","<p style='font-size: 30px;'><strong>Okay</strong></p>","null","neutral_feedback","0","test","27","","","","","","","",""
"","","","","","","","","","","","html-button-response","61","2.0.0","161472","66cf5d2817623ac399e0586f","1","46","2649","","","","","","","","","<img src= ""rock_img/I_Andesite_16.jpg"" style=""width:8cm; height:6.010000000000001cm;""><p>What type of rock is this?</p>","2","class_response","0","test","28","Diorite","Andesite","16","false","3","1","",""
"","","","","","","","","","","","html-keyboard-response","62","2.0.0","161975","66cf5d2817623ac399e0586f","1","46","null","","","","","","","","","<p style='font-size: 30px;'><strong>Okay</strong></p>","null","neutral_feedback","0","test","28","","","","","","","",""
"","","","","","","","","","","","html-button-response","63","2.0.0","163209","66cf5d2817623ac399e0586f","1","46","1233","","","","","","","","","<img src= ""rock_img/I_Gabbro_01.jpg"" style=""width:8cm; height:5.21cm;""><p>What type of rock is this?</p>","2","class_response","0","test","29","Diorite","Gabbro","01","false","3","4","",""
"","","","","","","","","","","","html-keyboard-response","64","2.0.0","163711","66cf5d2817623ac399e0586f","1","46","null","","","","","","","","","<p style='font-size: 30px;'><strong>Okay</strong></p>","null","neutral_feedback","0","test","29","","","","","","","",""
"","","","","","","","","","","","html-button-response","65","2.0.0","165210","66cf5d2817623ac399e0586f","1","46","1496","","","","","","","","","<img src= ""rock_img/I_Andesite_05.jpg"" style=""width:8cm; height:4.12cm;""><p>What type of rock is this?</p>","2","class_response","0","test","30","Diorite","Andesite","05","false","3","1","",""
"","","","","","","","","","","","html-keyboard-response","66","2.0.0","165712","66cf5d2817623ac399e0586f","1","46","null","","","","","","","","","<p style='font-size: 30px;'><strong>Okay</strong></p>","null","neutral_feedback","0","test","30","","","","","","","",""
"","","","","","","","","","","","html-button-response","67","2.0.0","168294","66cf5d2817623ac399e0586f","1","46","2579","","","","","","","","","<img src= ""rock_img/I_Peridotite_16.jpg"" style=""width:8cm; height:6.989999999999999cm;""><p>What type of rock is this?</p>","6","class_response","0","test","31","Peridotite","Peridotite","16","true","7","7","",""
"","","","","","","","","","","","html-keyboard-response","68","2.0.0","168796","66cf5d2817623ac399e0586f","1","46","null","","","","","","","","","<p style='font-size: 30px;'><strong>Okay</strong></p>","null","neutral_feedback","0","test","31","","","","","","","",""
"","","","","","","","","","","","html-button-response","69","2.0.0","174716","66cf5d2817623ac399e0586f","1","46","5918","","","","","","","","","<img src= ""rock_img/I_Gabbro_11.jpg"" style=""width:8cm; height:6.2cm;""><p>What type of rock is this?</p>","0","class_response","0","test","32","Andesite","Gabbro","11","false","1","4","",""
"","","","","","","","","","","","html-keyboard-response","70","2.0.0","175220","66cf5d2817623ac399e0586f","1","46","null","","","","","","","","","<p style='font-size: 30px;'><strong>Okay</strong></p>","null","neutral_feedback","0","test","32","","","","","","","",""
"","","","","","","","","","","","html-button-response","71","2.0.0","176832","66cf5d2817623ac399e0586f","1","46","1609","","","","","","","","","<img src= ""rock_img/I_Andesite_04.jpg"" style=""width:8cm; height:5.96cm;""><p>What type of rock is this?</p>","2","class_response","0","test","33","Diorite","Andesite","04","false","3","1","",""
"","","","","","","","","","","","html-keyboard-response","72","2.0.0","177335","66cf5d2817623ac399e0586f","1","46","null","","","","","","","","","<p style='font-size: 30px;'><strong>Okay</strong></p>","null","neutral_feedback","0","test","33","","","","","","","",""
"","","","","","","","","","","","html-button-response","73","2.0.0","179352","66cf5d2817623ac399e0586f","1","46","2015","","","","","","","","","<img src= ""rock_img/I_Pumice_14.jpg"" style=""width:8cm; height:6.39cm;""><p>What type of rock is this?</p>","7","class_response","0","test","34","Pumice","Pumice","14","true","8","8","",""
"","","","","","","","","","","","html-keyboard-response","74","2.0.0","179854","66cf5d2817623ac399e0586f","1","46","null","","","","","","","","","<p style='font-size: 30px;'><strong>Okay</strong></p>","null","neutral_feedback","0","test","34","","","","","","","",""
"","","","","","","","","","","","html-button-response","75","2.0.0","181102","66cf5d2817623ac399e0586f","1","46","1245","","","","","","","","","<img src= ""rock_img/I_Obsidian_11.jpg"" style=""width:8cm; height:6.05cm;""><p>What type of rock is this?</p>","4","class_response","0","test","35","Obsidian","Obsidian","11","true","5","5","",""
"","","","","","","","","","","","html-keyboard-response","76","2.0.0","181604","66cf5d2817623ac399e0586f","1","46","null","","","","","","","","","<p style='font-size: 30px;'><strong>Okay</strong></p>","null","neutral_feedback","0","test","35","","","","","","","",""
"","","","","","","","","","","","html-button-response","77","2.0.0","183364","66cf5d2817623ac399e0586f","1","46","1758","","","","","","","","","<img src= ""rock_img/I_Basalt_04.jpg"" style=""width:8cm; height:7.53cm;""><p>What type of rock is this?</p>","1","class_response","0","test","36","Basalt","Basalt","04","true","2","2","",""
"","","","","","","","","","","","html-keyboard-response","78","2.0.0","183866","66cf5d2817623ac399e0586f","1","46","null","","","","","","","","","<p style='font-size: 30px;'><strong>Okay</strong></p>","null","neutral_feedback","0","test","36","","","","","","","",""
"","","","","","","","","","","","html-button-response","79","2.0.0","184883","66cf5d2817623ac399e0586f","1","46","1015","","","","","","","","","<img src= ""rock_img/I_Basalt_05.jpg"" style=""width:8cm; height:8.18cm;""><p>What type of rock is this?</p>","1","class_response","0","test","37","Basalt","Basalt","05","true","2","2","",""
"","","","","","","","","","","","html-keyboard-response","80","2.0.0","185386","66cf5d2817623ac399e0586f","1","46","null","","","","","","","","","<p style='font-size: 30px;'><strong>Okay</strong></p>","null","neutral_feedback","0","test","37","","","","","","","",""
"","","","","","","","","","","","html-button-response","81","2.0.0","187061","66cf5d2817623ac399e0586f","1","46","1672","","","","","","","","","<img src= ""rock_img/I_Pumice_16.jpg"" style=""width:8cm; height:6.79cm;""><p>What type of rock is this?</p>","7","class_response","0","test","38","Pumice","Pumice","16","true","8","8","",""
"","","","","","","","","","","","html-keyboard-response","82","2.0.0","187563","66cf5d2817623ac399e0586f","1","46","null","","","","","","","","","<p style='font-size: 30px;'><strong>Okay</strong></p>","null","neutral_feedback","0","test","38","","","","","","","",""
"","","","","","","","","","","","html-button-response","83","2.0.0","189187","66cf5d2817623ac399e0586f","1","46","1622","","","","","","","","","<img src= ""rock_img/I_Andesite_11.jpg"" style=""width:8cm; height:4.92cm;""><p>What type of rock is this?</p>","3","class_response","0","test","39","Gabbro","Andesite","11","false","4","1","",""
"","","","","","","","","","","","html-keyboard-response","84","2.0.0","189689","66cf5d2817623ac399e0586f","1","46","null","","","","","","","","","<p style='font-size: 30px;'><strong>Okay</strong></p>","null","neutral_feedback","0","test","39","","","","","","","",""
"","","","","","","","","","","","html-button-response","85","2.0.0","194824","66cf5d2817623ac399e0586f","1","46","5134","","","","","","","","","<img src= ""rock_img/I_Basalt_16.jpg"" style=""width:8cm; height:7.659999999999999cm;""><p>What type of rock is this?</p>","7","class_response","0","test","40","Pumice","Basalt","16","false","8","2","",""
"","","","","","","","","","","","html-keyboard-response","86","2.0.0","195326","66cf5d2817623ac399e0586f","1","46","null","","","","","","","","","<p style='font-size: 30px;'><strong>Okay</strong></p>","null","neutral_feedback","0","test","40","","","","","","","",""
"","","","","","","","","","","","html-button-response","87","2.0.0","197542","66cf5d2817623ac399e0586f","1","46","2216","","","","","","","","","<img src= ""rock_img/I_Diorite_16.jpg"" style=""width:8cm; height:6.74cm;""><p>What type of rock is this?</p>","3","class_response","0","test","41","Gabbro","Diorite","16","false","4","3","",""
"","","","","","","","","","","","html-keyboard-response","88","2.0.0","198044","66cf5d2817623ac399e0586f","1","46","null","","","","","","","","","<p style='font-size: 30px;'><strong>Okay</strong></p>","null","neutral_feedback","0","test","41","","","","","","","",""
"","","","","","","","","","","","html-button-response","89","2.0.0","200154","66cf5d2817623ac399e0586f","1","46","2109","","","","","","","","","<img src= ""rock_img/I_Peridotite_05.jpg"" style=""width:8cm; height:7.1499999999999995cm;""><p>What type of rock is this?</p>","0","class_response","0","test","42","Andesite","Peridotite","05","false","1","7","",""
"","","","","","","","","","","","html-keyboard-response","90","2.0.0","200656","66cf5d2817623ac399e0586f","1","46","null","","","","","","","","","<p style='font-size: 30px;'><strong>Okay</strong></p>","null","neutral_feedback","0","test","42","","","","","","","",""
"","","","","","","","","","","","html-button-response","91","2.0.0","202628","66cf5d2817623ac399e0586f","1","46","1970","","","","","","","","","<img src= ""rock_img/I_Peridotite_10.jpg"" style=""width:8cm; height:5.390000000000001cm;""><p>What type of rock is this?</p>","6","class_response","0","test","43","Peridotite","Peridotite","10","true","7","7","",""
"","","","","","","","","","","","html-keyboard-response","92","2.0.0","203130","66cf5d2817623ac399e0586f","1","46","null","","","","","","","","","<p style='font-size: 30px;'><strong>Okay</strong></p>","null","neutral_feedback","0","test","43","","","","","","","",""
"","","","","","","","","","","","html-button-response","93","2.0.0","205194","66cf5d2817623ac399e0586f","1","46","2061","","","","","","","","","<img src= ""rock_img/I_Basalt_12.jpg"" style=""width:8cm; height:6.010000000000001cm;""><p>What type of rock is this?</p>","7","class_response","0","test","44","Pumice","Basalt","12","false","8","2","",""
"","","","","","","","","","","","html-keyboard-response","94","2.0.0","205696","66cf5d2817623ac399e0586f","1","46","null","","","","","","","","","<p style='font-size: 30px;'><strong>Okay</strong></p>","null","neutral_feedback","0","test","44","","","","","","","",""
"","","","","","","","","","","","html-button-response","95","2.0.0","207624","66cf5d2817623ac399e0586f","1","46","1926","","","","","","","","","<img src= ""rock_img/I_Andesite_14.jpg"" style=""width:8cm; height:5.449999999999999cm;""><p>What type of rock is this?</p>","3","class_response","0","test","45","Gabbro","Andesite","14","false","4","1","",""
"","","","","","","","","","","","html-keyboard-response","96","2.0.0","208126","66cf5d2817623ac399e0586f","1","46","null","","","","","","","","","<p style='font-size: 30px;'><strong>Okay</strong></p>","null","neutral_feedback","0","test","45","","","","","","","",""
"","","","","","","","","","","","html-button-response","97","2.0.0","210728","66cf5d2817623ac399e0586f","1","46","2600","","","","","","","","","<img src= ""rock_img/I_Gabbro_12.jpg"" style=""width:8cm; height:7.800000000000001cm;""><p>What type of rock is this?</p>","0","class_response","0","test","46","Andesite","Gabbro","12","false","1","4","",""
"","","","","","","","","","","","html-keyboard-response","98","2.0.0","211230","66cf5d2817623ac399e0586f","1","46","null","","","","","","","","","<p style='font-size: 30px;'><strong>Okay</strong></p>","null","neutral_feedback","0","test","46","","","","","","","",""
"","","","","","","","","","","","html-button-response","99","2.0.0","213248","66cf5d2817623ac399e0586f","1","46","2016","","","","","","","","","<img src= ""rock_img/I_Diorite_12.jpg"" style=""width:8cm; height:4.88cm;""><p>What type of rock is this?</p>","2","class_response","0","test","47","Diorite","Diorite","12","true","3","3","",""
"","","","","","","","","","","","html-keyboard-response","100","2.0.0","213750","66cf5d2817623ac399e0586f","1","46","null","","","","","","","","","<p style='font-size: 30px;'><strong>Okay</strong></p>","null","neutral_feedback","0","test","47","","","","","","","",""
"","","","","","","","","","","","html-button-response","101","2.0.0","215407","66cf5d2817623ac399e0586f","1","46","1656","","","","","","","","","<img src= ""rock_img/I_Pegmatite_16.jpg"" style=""width:8cm; height:5.8cm;""><p>What type of rock is this?</p>","3","class_response","0","test","48","Gabbro","Pegmatite","16","false","4","6","",""
"","","","","","","","","","","","html-keyboard-response","102","2.0.0","215909","66cf5d2817623ac399e0586f","1","46","null","","","","","","","","","<p style='font-size: 30px;'><strong>Okay</strong></p>","null","neutral_feedback","0","test","48","","","","","","","",""
"","","","","","","","","","","","instructions","103","2.0.0","234023","66cf5d2817623ac399e0586f","1","46","18079","","","","","","","","[{""page_index"":0,""viewing_time"":11344},{""page_index"":1,""viewing_time"":3449},{""page_index"":2,""viewing_time"":3286}]","","","","","","","","","","","","","",""
"","","","","","","","","","","","html-button-response","104","2.0.0","237323","66cf5d2817623ac399e0586f","1","46","3298","","","","","","","","","","0","start_train","","","","","","","","","","",""
"","","","","","","","","","","","html-button-response","105","2.0.0","240131","66cf5d2817623ac399e0586f","1","46","2806","","","","","","","","","<img src= ""rock_img/I_Andesite_06.jpg"" style=""width:8cm; height:6.840000000000001cm;""><p>What type of rock is this?</p>","2","class_response","1","train","1","Diorite","Andesite","06","false","3","1","",""
"","","","","","","","","","","","html-button-response","106","2.0.0","242351","66cf5d2817623ac399e0586f","1","46","2217","","","","","","","","","<img src= rock_img/I_Andesite_06.jpg style=""width:8cm; height:6.840000000000001cm;""><p style='font-size: 30px; color: red;'><strong>Incorrect!</strong></p><p style='font-size: 30px;'><strong>This rock is andesite</strong></p>","0","corr_feedback","1","train","1","","","","","","","",""
"","","","","","","","","","","","html-button-response","107","2.0.0","243702","66cf5d2817623ac399e0586f","1","46","1349","","","","","","","","","<img src= ""rock_img/I_Pegmatite_13.jpg"" style=""width:8cm; height:4.95cm;""><p>What type of rock is this?</p>","3","class_response","1","train","2","Gabbro","Pegmatite","13","false","4","6","",""
"","","","","","","","","","","","html-button-response","108","2.0.0","246173","66cf5d2817623ac399e0586f","1","46","2469","","","","","","","","","<img src= rock_img/I_Pegmatite_13.jpg style=""width:8cm; height:4.95cm;""><p style='font-size: 30px; color: red;'><strong>Incorrect!</strong></p><p style='font-size: 30px;'><strong>This rock is pegmatite</strong></p>","0","corr_feedback","1","train","2","","","","","","","",""
"","","","","","","","","","","","html-button-response","109","2.0.0","248241","66cf5d2817623ac399e0586f","1","46","2066","","","","","","","","","<img src= ""rock_img/I_Diorite_11.jpg"" style=""width:8cm; height:7.11cm;""><p>What type of rock is this?</p>","0","class_response","1","train","3","Andesite","Diorite","11","false","1","3","",""
"","","","","","","","","","","","html-button-response","110","2.0.0","249712","66cf5d2817623ac399e0586f","1","46","1469","","","","","","","","","<img src= rock_img/I_Diorite_11.jpg style=""width:8cm; height:7.11cm;""><p style='font-size: 30px; color: red;'><strong>Incorrect!</strong></p><p style='font-size: 30px;'><strong>This rock is diorite</strong></p>","0","corr_feedback","1","train","3","","","","","","","",""
"","","","","","","","","","","","html-button-response","111","2.0.0","250867","66cf5d2817623ac399e0586f","1","46","1152","","","","","","","","","<img src= ""rock_img/I_Obsidian_08.jpg"" style=""width:8cm; height:7.39cm;""><p>What type of rock is this?</p>","4","class_response","1","train","4","Obsidian","Obsidian","08","true","5","5","",""
"","","","","","","","","","","","html-button-response","112","2.0.0","251947","66cf5d2817623ac399e0586f","1","46","1079","","","","","","","","","<img src= rock_img/I_Obsidian_08.jpg style=""width:8cm; height:7.39cm;""><p style='font-size: 30px; color: green;'><strong>Correct!</strong></p><p style='font-size: 30px;'><strong>This rock is obsidian</strong></p>","0","corr_feedback","1","train","4","","","","","","","",""
"","","","","","","","","","","","html-button-response","113","2.0.0","253301","66cf5d2817623ac399e0586f","1","46","1352","","","","","","","","","<img src= ""rock_img/I_Obsidian_14.jpg"" style=""width:8cm; height:7.64cm;""><p>What type of rock is this?</p>","4","class_response","1","train","5","Obsidian","Obsidian","14","true","5","5","",""
"","","","","","","","","","","","html-button-response","114","2.0.0","254467","66cf5d2817623ac399e0586f","1","46","1164","","","","","","","","","<img src= rock_img/I_Obsidian_14.jpg style=""width:8cm; height:7.64cm;""><p style='font-size: 30px; color: green;'><strong>Correct!</strong></p><p style='font-size: 30px;'><strong>This rock is obsidian</strong></p>","0","corr_feedback","1","train","5","","","","","","","",""
"","","","","","","","","","","","html-button-response","115","2.0.0","256255","66cf5d2817623ac399e0586f","1","46","1786","","","","","","","","","<img src= ""rock_img/I_Peridotite_15.jpg"" style=""width:8cm; height:6cm;""><p>What type of rock is this?</p>","6","class_response","1","train","6","Peridotite","Peridotite","15","true","7","7","",""
"","","","","","","","","","","","html-button-response","116","2.0.0","258127","66cf5d2817623ac399e0586f","1","46","1870","","","","","","","","","<img src= rock_img/I_Peridotite_15.jpg style=""width:8cm; height:6cm;""><p style='font-size: 30px; color: green;'><strong>Correct!</strong></p><p style='font-size: 30px;'><strong>This rock is peridotite</strong></p>","0","corr_feedback","1","train","6","","","","","","","",""
"","","","","","","","","","","","html-button-response","117","2.0.0","259267","66cf5d2817623ac399e0586f","1","46","1138","","","","","","","","","<img src= ""rock_img/I_Obsidian_16.jpg"" style=""width:8cm; height:9.3cm;""><p>What type of rock is this?</p>","4","class_response","1","train","7","Obsidian","Obsidian","16","true","5","5","",""
"","","","","","","","","","","","html-button-response","118","2.0.0","260377","66cf5d2817623ac399e0586f","1","46","1108","","","","","","","","","<img src= rock_img/I_Obsidian_16.jpg style=""width:8cm; height:9.3cm;""><p style='font-size: 30px; color: green;'><strong>Correct!</strong></p><p style='font-size: 30px;'><strong>This rock is obsidian</strong></p>","0","corr_feedback","1","train","7","","","","","","","",""
"","","","","","","","","","","","html-button-response","119","2.0.0","262252","66cf5d2817623ac399e0586f","1","46","1873","","","","","","","","","<img src= ""rock_img/I_Basalt_11.jpg"" style=""width:8cm; height:5.359999999999999cm;""><p>What type of rock is this?</p>","7","class_response","1","train","8","Pumice","Basalt","11","false","8","2","",""
"","","","","","","","","","","","html-button-response","120","2.0.0","264322","66cf5d2817623ac399e0586f","1","46","2068","","","","","","","","","<img src= rock_img/I_Basalt_11.jpg style=""width:8cm; height:5.359999999999999cm;""><p style='font-size: 30px; color: red;'><strong>Incorrect!</strong></p><p style='font-size: 30px;'><strong>This rock is basalt</strong></p>","0","corr_feedback","1","train","8","","","","","","","",""
"","","","","","","","","","","","html-button-response","121","2.0.0","265566","66cf5d2817623ac399e0586f","1","46","1241","","","","","","","","","<img src= ""rock_img/I_Pumice_15.jpg"" style=""width:8cm; height:7.86cm;""><p>What type of rock is this?</p>","1","class_response","1","train","9","Basalt","Pumice","15","false","2","8","",""
"","","","","","","","","","","","html-button-response","122","2.0.0","266617","66cf5d2817623ac399e0586f","1","46","1050","","","","","","","","","<img src= rock_img/I_Pumice_15.jpg style=""width:8cm; height:7.86cm;""><p style='font-size: 30px; color: red;'><strong>Incorrect!</strong></p><p style='font-size: 30px;'><strong>This rock is pumice</strong></p>","0","corr_feedback","1","train","9","","","","","","","",""
"","","","","","","","","","","","html-button-response","123","2.0.0","268481","66cf5d2817623ac399e0586f","1","46","1861","","","","","","","","","<img src= ""rock_img/I_Gabbro_14.jpg"" style=""width:8cm; height:8.48cm;""><p>What type of rock is this?</p>","2","class_response","1","train","10","Diorite","Gabbro","14","false","3","4","",""
"","","","","","","","","","","","html-button-response","124","2.0.0","269995","66cf5d2817623ac399e0586f","1","46","1512","","","","","","","","","<img src= rock_img/I_Gabbro_14.jpg style=""width:8cm; height:8.48cm;""><p style='font-size: 30px; color: red;'><strong>Incorrect!</strong></p><p style='font-size: 30px;'><strong>This rock is gabbro</strong></p>","0","corr_feedback","1","train","10","","","","","","","",""
"","","","","","","","","","","","html-button-response","125","2.0.0","273802","66cf5d2817623ac399e0586f","1","46","3805","","","","","","","","","<img src= ""rock_img/I_Peridotite_08.jpg"" style=""width:8cm; height:6.7cm;""><p>What type of rock is this?</p>","0","class_response","1","train","11","Andesite","Peridotite","08","false","1","7","",""
"","","","","","","","","","","","html-button-response","126","2.0.0","274961","66cf5d2817623ac399e0586f","1","46","1158","","","","","","","","","<img src= rock_img/I_Peridotite_08.jpg style=""width:8cm; height:6.7cm;""><p style='font-size: 30px; color: red;'><strong>Incorrect!</strong></p><p style='font-size: 30px;'><strong>This rock is peridotite</strong></p>","0","corr_feedback","1","train","11","","","","","","","",""
"","","","","","","","","","","","html-button-response","127","2.0.0","277780","66cf5d2817623ac399e0586f","1","46","2817","","","","","","","","","<img src= ""rock_img/I_Pumice_05.jpg"" style=""width:8cm; height:7.25cm;""><p>What type of rock is this?</p>","7","class_response","1","train","12","Pumice","Pumice","05","true","8","8","",""
"","","","","","","","","","","","html-button-response","128","2.0.0","278800","66cf5d2817623ac399e0586f","1","46","1018","","","","","","","","","<img src= rock_img/I_Pumice_05.jpg style=""width:8cm; height:7.25cm;""><p style='font-size: 30px; color: green;'><strong>Correct!</strong></p><p style='font-size: 30px;'><strong>This rock is pumice</strong></p>","0","corr_feedback","1","train","12","","","","","","","",""
"","","","","","","","","","","","html-button-response","129","2.0.0","280507","66cf5d2817623ac399e0586f","1","46","1705","","","","","","","","","<img src= ""rock_img/I_Pumice_02.jpg"" style=""width:8cm; height:7.3999999999999995cm;""><p>What type of rock is this?</p>","7","class_response","1","train","13","Pumice","Pumice","02","true","8","8","",""
"","","","","","","","","","","","html-button-response","130","2.0.0","281710","66cf5d2817623ac399e0586f","1","46","1201","","","","","","","","","<img src= rock_img/I_Pumice_02.jpg style=""width:8cm; height:7.3999999999999995cm;""><p style='font-size: 30px; color: green;'><strong>Correct!</strong></p><p style='font-size: 30px;'><strong>This rock is pumice</strong></p>","0","corr_feedback","1","train","13","","","","","","","",""
"","","","","","","","","","","","html-button-response","131","2.0.0","284215","66cf5d2817623ac399e0586f","1","46","2503","","","","","","","","","<img src= ""rock_img/I_Diorite_14.jpg"" style=""width:8cm; height:5.71cm;""><p>What type of rock is this?</p>","5","class_response","1","train","14","Pegmatite","Diorite","14","false","6","3","",""
"","","","","","","","","","","","html-button-response","132","2.0.0","285250","66cf5d2817623ac399e0586f","1","46","1033","","","","","","","","","<img src= rock_img/I_Diorite_14.jpg style=""width:8cm; height:5.71cm;""><p style='font-size: 30px; color: red;'><strong>Incorrect!</strong></p><p style='font-size: 30px;'><strong>This rock is diorite</strong></p>","0","corr_feedback","1","train","14","","","","","","","",""
"","","","","","","","","","","","html-button-response","133","2.0.0","287004","66cf5d2817623ac399e0586f","1","46","1752","","","","","","","","","<img src= ""rock_img/I_Basalt_08.jpg"" style=""width:8cm; height:10.44cm;""><p>What type of rock is this?</p>","1","class_response","1","train","15","Basalt","Basalt","08","true","2","2","",""
"","","","","","","","","","","","html-button-response","134","2.0.0","288355","66cf5d2817623ac399e0586f","1","46","1349","","","","","","","","","<img src= rock_img/I_Basalt_08.jpg style=""width:8cm; height:10.44cm;""><p style='font-size: 30px; color: green;'><strong>Correct!</strong></p><p style='font-size: 30px;'><strong>This rock is basalt</strong></p>","0","corr_feedback","1","train","15","","","","","","","",""
"","","","","","","","","","","","html-button-response","135","2.0.0","291520","66cf5d2817623ac399e0586f","1","46","3163","","","","","","","","","<img src= ""rock_img/I_Diorite_07.jpg"" style=""width:8cm; height:5.239999999999999cm;""><p>What type of rock is this?</p>","2","class_response","1","train","16","Diorite","Diorite","07","true","3","3","",""
"","","","","","","","","","","","html-button-response","136","2.0.0","292671","66cf5d2817623ac399e0586f","1","46","1149","","","","","","","","","<img src= rock_img/I_Diorite_07.jpg style=""width:8cm; height:5.239999999999999cm;""><p style='font-size: 30px; color: green;'><strong>Correct!</strong></p><p style='font-size: 30px;'><strong>This rock is diorite</strong></p>","0","corr_feedback","1","train","16","","","","","","","",""
"","","","","","","","","","","","html-button-response","137","2.0.0","297713","66cf5d2817623ac399e0586f","1","46","5039","","","","","","","","","<img src= ""rock_img/I_Gabbro_16.jpg"" style=""width:8cm; height:6.44cm;""><p>What type of rock is this?</p>","3","class_response","1","train","17","Gabbro","Gabbro","16","true","4","4","",""
"","","","","","","","","","","","html-button-response","138","2.0.0","298807","66cf5d2817623ac399e0586f","1","46","1092","","","","","","","","","<img src= rock_img/I_Gabbro_16.jpg style=""width:8cm; height:6.44cm;""><p style='font-size: 30px; color: green;'><strong>Correct!</strong></p><p style='font-size: 30px;'><strong>This rock is gabbro</strong></p>","0","corr_feedback","1","train","17","","","","","","","",""
"","","","","","","","","","","","html-button-response","139","2.0.0","302268","66cf5d2817623ac399e0586f","1","46","3460","","","","","","","","","<img src= ""rock_img/I_Diorite_02.jpg"" style=""width:8cm; height:6.27cm;""><p>What type of rock is this?</p>","2","class_response","1","train","18","Diorite","Diorite","02","true","3","3","",""
"","","","","","","","","","","","html-button-response","140","2.0.0","303336","66cf5d2817623ac399e0586f","1","46","1067","","","","","","","","","<img src= rock_img/I_Diorite_02.jpg style=""width:8cm; height:6.27cm;""><p style='font-size: 30px; color: green;'><strong>Correct!</strong></p><p style='font-size: 30px;'><strong>This rock is diorite</strong></p>","0","corr_feedback","1","train","18","","","","","","","",""
"","","","","","","","","","","","html-button-response","141","2.0.0","305058","66cf5d2817623ac399e0586f","1","46","1720","","","","","","","","","<img src= ""rock_img/I_Obsidian_07.jpg"" style=""width:8cm; height:4.76cm;""><p>What type of rock is this?</p>","4","class_response","1","train","19","Obsidian","Obsidian","07","true","5","5","",""
"","","","","","","","","","","","html-button-response","142","2.0.0","306696","66cf5d2817623ac399e0586f","1","46","1637","","","","","","","","","<img src= rock_img/I_Obsidian_07.jpg style=""width:8cm; height:4.76cm;""><p style='font-size: 30px; color: green;'><strong>Correct!</strong></p><p style='font-size: 30px;'><strong>This rock is obsidian</strong></p>","0","corr_feedback","1","train","19","","","","","","","",""
"","","","","","","","","","","","html-button-response","143","2.0.0","308331","66cf5d2817623ac399e0586f","1","46","1633","","","","","","","","","<img src= ""rock_img/I_Pegmatite_03.jpg"" style=""width:8cm; height:5.239999999999999cm;""><p>What type of rock is this?</p>","5","class_response","1","train","20","Pegmatite","Pegmatite","03","true","6","6","",""
"","","","","","","","","","","","html-button-response","144","2.0.0","309291","66cf5d2817623ac399e0586f","1","46","958","","","","","","","","","<img src= rock_img/I_Pegmatite_03.jpg style=""width:8cm; height:5.239999999999999cm;""><p style='font-size: 30px; color: green;'><strong>Correct!</strong></p><p style='font-size: 30px;'><strong>This rock is pegmatite</strong></p>","0","corr_feedback","1","train","20","","","","","","","",""
"","","","","","","","","","","","html-button-response","145","2.0.0","311063","66cf5d2817623ac399e0586f","1","46","1770","","","","","","","","","<img src= ""rock_img/I_Gabbro_05.jpg"" style=""width:8cm; height:6cm;""><p>What type of rock is this?</p>","0","class_response","1","train","21","Andesite","Gabbro","05","false","1","4","",""
"","","","","","","","","","","","html-button-response","146","2.0.0","312111","66cf5d2817623ac399e0586f","1","46","1046","","","","","","","","","<img src= rock_img/I_Gabbro_05.jpg style=""width:8cm; height:6cm;""><p style='font-size: 30px; color: red;'><strong>Incorrect!</strong></p><p style='font-size: 30px;'><strong>This rock is gabbro</strong></p>","0","corr_feedback","1","train","21","","","","","","","",""
"","","","","","","","","","","","html-button-response","147","2.0.0","314785","66cf5d2817623ac399e0586f","1","46","2672","","","","","","","","","<img src= ""rock_img/I_Andesite_07.jpg"" style=""width:8cm; height:5.93cm;""><p>What type of rock is this?</p>","5","class_response","1","train","22","Pegmatite","Andesite","07","false","6","1","",""
"","","","","","","","","","","","html-button-response","148","2.0.0","315756","66cf5d2817623ac399e0586f","1","46","970","","","","","","","","","<img src= rock_img/I_Andesite_07.jpg style=""width:8cm; height:5.93cm;""><p style='font-size: 30px; color: red;'><strong>Incorrect!</strong></p><p style='font-size: 30px;'><strong>This rock is andesite</strong></p>","0","corr_feedback","1","train","22","","","","","","","",""
"","","","","","","","","","","","html-button-response","149","2.0.0","317136","66cf5d2817623ac399e0586f","1","46","1378","","","","","","","","","<img src= ""rock_img/I_Basalt_10.jpg"" style=""width:8cm; height:5.85cm;""><p>What type of rock is this?</p>","1","class_response","1","train","23","Basalt","Basalt","10","true","2","2","",""
"","","","","","","","","","","","html-button-response","150","2.0.0","318081","66cf5d2817623ac399e0586f","1","46","943","","","","","","","","","<img src= rock_img/I_Basalt_10.jpg style=""width:8cm; height:5.85cm;""><p style='font-size: 30px; color: green;'><strong>Correct!</strong></p><p style='font-size: 30px;'><strong>This rock is basalt</strong></p>","0","corr_feedback","1","train","23","","","","","","","",""
"","","","","","","","","","","","html-button-response","151","2.0.0","324786","66cf5d2817623ac399e0586f","1","46","6703","","","","","","","","","<img src= ""rock_img/I_Andesite_02.jpg"" style=""width:8cm; height:8.5cm;""><p>What type of rock is this?</p>","5","class_response","1","train","24","Pegmatite","Andesite","02","false","6","1","",""
"","","","","","","","","","","","html-button-response","152","2.0.0","325840","66cf5d2817623ac399e0586f","1","46","1052","","","","","","","","","<img src= rock_img/I_Andesite_02.jpg style=""width:8cm; height:8.5cm;""><p style='font-size: 30px; color: red;'><strong>Incorrect!</strong></p><p style='font-size: 30px;'><strong>This rock is andesite</strong></p>","0","corr_feedback","1","train","24","","","","","","","",""
"","","","","","","","","","","","html-button-response","153","2.0.0","327219","66cf5d2817623ac399e0586f","1","46","1378","","","","","","","","","<img src= ""rock_img/I_Peridotite_06.jpg"" style=""width:8cm; height:7.53cm;""><p>What type of rock is this?</p>","6","class_response","1","train","25","Peridotite","Peridotite","06","true","7","7","",""
"","","","","","","","","","","","html-button-response","154","2.0.0","328134","66cf5d2817623ac399e0586f","1","46","913","","","","","","","","","<img src= rock_img/I_Peridotite_06.jpg style=""width:8cm; height:7.53cm;""><p style='font-size: 30px; color: green;'><strong>Correct!</strong></p><p style='font-size: 30px;'><strong>This rock is peridotite</strong></p>","0","corr_feedback","1","train","25","","","","","","","",""
"","","","","","","","","","","","html-button-response","155","2.0.0","329844","66cf5d2817623ac399e0586f","1","46","1709","","","","","","","","","<img src= ""rock_img/I_Andesite_09.jpg"" style=""width:8cm; height:6cm;""><p>What type of rock is this?</p>","0","class_response","1","train","26","Andesite","Andesite","09","true","1","1","",""
"","","","","","","","","","","","html-button-response","156","2.0.0","330789","66cf5d2817623ac399e0586f","1","46","943","","","","","","","","","<img src= rock_img/I_Andesite_09.jpg style=""width:8cm; height:6cm;""><p style='font-size: 30px; color: green;'><strong>Correct!</strong></p><p style='font-size: 30px;'><strong>This rock is andesite</strong></p>","0","corr_feedback","1","train","26","","","","","","","",""
"","","","","","","","","","","","html-button-response","157","2.0.0","334327","66cf5d2817623ac399e0586f","1","46","3535","","","","","","","","","<img src= ""rock_img/I_Peridotite_04.jpg"" style=""width:8cm; height:6.680000000000001cm;""><p>What type of rock is this?</p>","6","class_response","1","train","27","Peridotite","Peridotite","04","true","7","7","",""
"","","","","","","","","","","","html-button-response","158","2.0.0","335347","66cf5d2817623ac399e0586f","1","46","1019","","","","","","","","","<img src= rock_img/I_Peridotite_04.jpg style=""width:8cm; height:6.680000000000001cm;""><p style='font-size: 30px; color: green;'><strong>Correct!</strong></p><p style='font-size: 30px;'><strong>This rock is peridotite</strong></p>","0","corr_feedback","1","train","27","","","","","","","",""
"","","","","","","","","","","","html-button-response","159","2.0.0","336956","66cf5d2817623ac399e0586f","1","46","1607","","","","","","","","","<img src= ""rock_img/I_Basalt_02.jpg"" style=""width:8cm; height:6.45cm;""><p>What type of rock is this?</p>","1","class_response","1","train","28","Basalt","Basalt","02","true","2","2","",""
"","","","","","","","","","","","html-button-response","160","2.0.0","337854","66cf5d2817623ac399e0586f","1","46","896","","","","","","","","","<img src= rock_img/I_Basalt_02.jpg style=""width:8cm; height:6.45cm;""><p style='font-size: 30px; color: green;'><strong>Correct!</strong></p><p style='font-size: 30px;'><strong>This rock is basalt</strong></p>","0","corr_feedback","1","train","28","","","","","","","",""
"","","","","","","","","","","","html-button-response","161","2.0.0","342671","66cf5d2817623ac399e0586f","1","46","4815","","","","","","","","","<img src= ""rock_img/I_Basalt_14.jpg"" style=""width:8cm; height:5.82cm;""><p>What type of rock is this?</p>","1","class_response","1","train","29","Basalt","Basalt","14","true","2","2","",""
"","","","","","","","","","","","html-button-response","162","2.0.0","343626","66cf5d2817623ac399e0586f","1","46","952","","","","","","","","","<img src= rock_img/I_Basalt_14.jpg style=""width:8cm; height:5.82cm;""><p style='font-size: 30px; color: green;'><strong>Correct!</strong></p><p style='font-size: 30px;'><strong>This rock is basalt</strong></p>","0","corr_feedback","1","train","29","","","","","","","",""
"","","","","","","","","","","","html-button-response","163","2.0.0","344964","66cf5d2817623ac399e0586f","1","46","1336","","","","","","","","","<img src= ""rock_img/I_Pegmatite_12.jpg"" style=""width:8cm; height:5.7cm;""><p>What type of rock is this?</p>","5","class_response","1","train","30","Pegmatite","Pegmatite","12","true","6","6","",""
"","","","","","","","","","","","html-button-response","164","2.0.0","345983","66cf5d2817623ac399e0586f","1","46","1017","","","","","","","","","<img src= rock_img/I_Pegmatite_12.jpg style=""width:8cm; height:5.7cm;""><p style='font-size: 30px; color: green;'><strong>Correct!</strong></p><p style='font-size: 30px;'><strong>This rock is pegmatite</strong></p>","0","corr_feedback","1","train","30","","","","","","","",""
"","","","","","","","","","","","html-button-response","165","2.0.0","349569","66cf5d2817623ac399e0586f","1","46","3584","","","","","","","","","<img src= ""rock_img/I_Gabbro_09.jpg"" style=""width:8cm; height:7.279999999999999cm;""><p>What type of rock is this?</p>","3","class_response","1","train","31","Gabbro","Gabbro","09","true","4","4","",""
"","","","","","","","","","","","html-button-response","166","2.0.0","350544","66cf5d2817623ac399e0586f","1","46","974","","","","","","","","","<img src= rock_img/I_Gabbro_09.jpg style=""width:8cm; height:7.279999999999999cm;""><p style='font-size: 30px; color: green;'><strong>Correct!</strong></p><p style='font-size: 30px;'><strong>This rock is gabbro</strong></p>","0","corr_feedback","1","train","31","","","","","","","",""
"","","","","","","","","","","","html-button-response","167","2.0.0","352194","66cf5d2817623ac399e0586f","1","46","1648","","","","","","","","","<img src= ""rock_img/I_Peridotite_13.jpg"" style=""width:8cm; height:7.58cm;""><p>What type of rock is this?</p>","6","class_response","1","train","32","Peridotite","Peridotite","13","true","7","7","",""
"","","","","","","","","","","","html-button-response","168","2.0.0","353211","66cf5d2817623ac399e0586f","1","46","1015","","","","","","","","","<img src= rock_img/I_Peridotite_13.jpg style=""width:8cm; height:7.58cm;""><p style='font-size: 30px; color: green;'><strong>Correct!</strong></p><p style='font-size: 30px;'><strong>This rock is peridotite</strong></p>","0","corr_feedback","1","train","32","","","","","","","",""
"","","","","","","","","","","","html-button-response","169","2.0.0","354546","66cf5d2817623ac399e0586f","1","46","1333","","","","","","","","","<img src= ""rock_img/I_Pegmatite_08.jpg"" style=""width:8cm; height:7.68cm;""><p>What type of rock is this?</p>","5","class_response","1","train","33","Pegmatite","Pegmatite","08","true","6","6","",""
"","","","","","","","","","","","html-button-response","170","2.0.0","355461","66cf5d2817623ac399e0586f","1","46","914","","","","","","","","","<img src= rock_img/I_Pegmatite_08.jpg style=""width:8cm; height:7.68cm;""><p style='font-size: 30px; color: green;'><strong>Correct!</strong></p><p style='font-size: 30px;'><strong>This rock is pegmatite</strong></p>","0","corr_feedback","1","train","33","","","","","","","",""
"","","","","","","","","","","","html-button-response","171","2.0.0","358254","66cf5d2817623ac399e0586f","1","46","2791","","","","","","","","","<img src= ""rock_img/I_Andesite_10.jpg"" style=""width:8cm; height:4.16cm;""><p>What type of rock is this?</p>","3","class_response","1","train","34","Gabbro","Andesite","10","false","4","1","",""
"","","","","","","","","","","","html-button-response","172","2.0.0","359110","66cf5d2817623ac399e0586f","1","46","854","","","","","","","","","<img src= rock_img/I_Andesite_10.jpg style=""width:8cm; height:4.16cm;""><p style='font-size: 30px; color: red;'><strong>Incorrect!</strong></p><p style='font-size: 30px;'><strong>This rock is andesite</strong></p>","0","corr_feedback","1","train","34","","","","","","","",""
"","","","","","","","","","","","html-button-response","173","2.0.0","360669","66cf5d2817623ac399e0586f","1","46","1557","","","","","","","","","<img src= ""rock_img/I_Obsidian_10.jpg"" style=""width:8cm; height:6.260000000000001cm;""><p>What type of rock is this?</p>","4","class_response","1","train","35","Obsidian","Obsidian","10","true","5","5","",""
"","","","","","","","","","","","html-button-response","174","2.0.0","361461","66cf5d2817623ac399e0586f","1","46","790","","","","","","","","","<img src= rock_img/I_Obsidian_10.jpg style=""width:8cm; height:6.260000000000001cm;""><p style='font-size: 30px; color: green;'><strong>Correct!</strong></p><p style='font-size: 30px;'><strong>This rock is obsidian</strong></p>","0","corr_feedback","1","train","35","","","","","","","",""
"","","","","","","","","","","","html-button-response","175","2.0.0","362976","66cf5d2817623ac399e0586f","1","46","1513","","","","","","","","","<img src= ""rock_img/I_Pegmatite_07.jpg"" style=""width:8cm; height:6.7cm;""><p>What type of rock is this?</p>","5","class_response","1","train","36","Pegmatite","Pegmatite","07","true","6","6","",""
"","","","","","","","","","","","html-button-response","176","2.0.0","363741","66cf5d2817623ac399e0586f","1","46","763","","","","","","","","","<img src= rock_img/I_Pegmatite_07.jpg style=""width:8cm; height:6.7cm;""><p style='font-size: 30px; color: green;'><strong>Correct!</strong></p><p style='font-size: 30px;'><strong>This rock is pegmatite</strong></p>","0","corr_feedback","1","train","36","","","","","","","",""
"","","","","","","","","","","","html-button-response","177","2.0.0","368936","66cf5d2817623ac399e0586f","1","46","5193","","","","","","","","","<img src= ""rock_img/I_Pumice_13.jpg"" style=""width:8cm; height:8.200000000000001cm;""><p>What type of rock is this?</p>","2","class_response","1","train","37","Diorite","Pumice","13","false","3","8","",""
"","","","","","","","","","","","html-button-response","178","2.0.0","369770","66cf5d2817623ac399e0586f","1","46","833","","","","","","","","","<img src= rock_img/I_Pumice_13.jpg style=""width:8cm; height:8.200000000000001cm;""><p style='font-size: 30px; color: red;'><strong>Incorrect!</strong></p><p style='font-size: 30px;'><strong>This rock is pumice</strong></p>","0","corr_feedback","1","train","37","","","","","","","",""
"","","","","","","","","","","","html-button-response","179","2.0.0","371154","66cf5d2817623ac399e0586f","1","46","1381","","","","","","","","","<img src= ""rock_img/I_Basalt_09.jpg"" style=""width:8cm; height:6.2cm;""><p>What type of rock is this?</p>","1","class_response","1","train","38","Basalt","Basalt","09","true","2","2","",""
"","","","","","","","","","","","html-button-response","180","2.0.0","372125","66cf5d2817623ac399e0586f","1","46","970","","","","","","","","","<img src= rock_img/I_Basalt_09.jpg style=""width:8cm; height:6.2cm;""><p style='font-size: 30px; color: green;'><strong>Correct!</strong></p><p style='font-size: 30px;'><strong>This rock is basalt</strong></p>","0","corr_feedback","1","train","38","","","","","","","",""
"","","","","","","","","","","","html-button-response","181","2.0.0","375054","66cf5d2817623ac399e0586f","1","46","2927","","","","","","","","","<img src= ""rock_img/I_Diorite_06.jpg"" style=""width:8cm; height:6.03cm;""><p>What type of rock is this?</p>","0","class_response","1","train","39","Andesite","Diorite","06","false","1","3","",""
"","","","","","","","","","","","html-button-response","182","2.0.0","376083","66cf5d2817623ac399e0586f","1","46","1028","","","","","","","","","<img src= rock_img/I_Diorite_06.jpg style=""width:8cm; height:6.03cm;""><p style='font-size: 30px; color: red;'><strong>Incorrect!</strong></p><p style='font-size: 30px;'><strong>This rock is diorite</strong></p>","0","corr_feedback","1","train","39","","","","","","","",""
"","","","","","","","","","","","html-button-response","183","2.0.0","377514","66cf5d2817623ac399e0586f","1","46","1430","","","","","","","","","<img src= ""rock_img/I_Gabbro_10.jpg"" style=""width:8cm; height:5.680000000000001cm;""><p>What type of rock is this?</p>","0","class_response","1","train","40","Andesite","Gabbro","10","false","1","4","",""
"","","","","","","","","","","","html-button-response","184","2.0.0","378322","66cf5d2817623ac399e0586f","1","46","806","","","","","","","","","<img src= rock_img/I_Gabbro_10.jpg style=""width:8cm; height:5.680000000000001cm;""><p style='font-size: 30px; color: red;'><strong>Incorrect!</strong></p><p style='font-size: 30px;'><strong>This rock is gabbro</strong></p>","0","corr_feedback","1","train","40","","","","","","","",""
"","","","","","","","","","","","html-button-response","185","2.0.0","380331","66cf5d2817623ac399e0586f","1","46","2007","","","","","","","","","<img src= ""rock_img/I_Andesite_01.jpg"" style=""width:8cm; height:5.87cm;""><p>What type of rock is this?</p>","2","class_response","1","train","41","Diorite","Andesite","01","false","3","1","",""
"","","","","","","","","","","","html-button-response","186","2.0.0","381170","66cf5d2817623ac399e0586f","1","46","837","","","","","","","","","<img src= rock_img/I_Andesite_01.jpg style=""width:8cm; height:5.87cm;""><p style='font-size: 30px; color: red;'><strong>Incorrect!</strong></p><p style='font-size: 30px;'><strong>This rock is andesite</strong></p>","0","corr_feedback","1","train","41","","","","","","","",""
"","","","","","","","","","","","html-button-response","187","2.0.0","383525","66cf5d2817623ac399e0586f","1","46","2354","","","","","","","","","<img src= ""rock_img/I_Pumice_06.jpg"" style=""width:8cm; height:6.9399999999999995cm;""><p>What type of rock is this?</p>","7","class_response","1","train","42","Pumice","Pumice","06","true","8","8","",""
"","","","","","","","","","","","html-button-response","188","2.0.0","384443","66cf5d2817623ac399e0586f","1","46","916","","","","","","","","","<img src= rock_img/I_Pumice_06.jpg style=""width:8cm; height:6.9399999999999995cm;""><p style='font-size: 30px; color: green;'><strong>Correct!</strong></p><p style='font-size: 30px;'><strong>This rock is pumice</strong></p>","0","corr_feedback","1","train","42","","","","","","","",""
"","","","","","","","","","","","html-button-response","189","2.0.0","385929","66cf5d2817623ac399e0586f","1","46","1484","","","","","","","","","<img src= ""rock_img/I_Pegmatite_10.jpg"" style=""width:8cm; height:4.16cm;""><p>What type of rock is this?</p>","6","class_response","1","train","43","Peridotite","Pegmatite","10","false","7","6","",""
"","","","","","","","","","","","html-button-response","190","2.0.0","387470","66cf5d2817623ac399e0586f","1","46","1540","","","","","","","","","<img src= rock_img/I_Pegmatite_10.jpg style=""width:8cm; height:4.16cm;""><p style='font-size: 30px; color: red;'><strong>Incorrect!</strong></p><p style='font-size: 30px;'><strong>This rock is pegmatite</strong></p>","0","corr_feedback","1","train","43","","","","","","","",""
"","","","","","","","","","","","html-button-response","191","2.0.0","388764","66cf5d2817623ac399e0586f","1","46","1292","","","","","","","","","<img src= ""rock_img/I_Obsidian_04.jpg"" style=""width:8cm; height:6.930000000000001cm;""><p>What type of rock is this?</p>","4","class_response","1","train","44","Obsidian","Obsidian","04","true","5","5","",""
"","","","","","","","","","","","html-button-response","192","2.0.0","389616","66cf5d2817623ac399e0586f","1","46","851","","","","","","","","","<img src= rock_img/I_Obsidian_04.jpg style=""width:8cm; height:6.930000000000001cm;""><p style='font-size: 30px; color: green;'><strong>Correct!</strong></p><p style='font-size: 30px;'><strong>This rock is obsidian</strong></p>","0","corr_feedback","1","train","44","","","","","","","",""
"","","","","","","","","","","","html-button-response","193","2.0.0","394008","66cf5d2817623ac399e0586f","1","46","4390","","","","","","","","","<img src= ""rock_img/I_Peridotite_07.jpg"" style=""width:8cm; height:4.83cm;""><p>What type of rock is this?</p>","0","class_response","1","train","45","Andesite","Peridotite","07","false","1","7","",""
"","","","","","","","","","","","html-button-response","194","2.0.0","394939","66cf5d2817623ac399e0586f","1","46","929","","","","","","","","","<img src= rock_img/I_Peridotite_07.jpg style=""width:8cm; height:4.83cm;""><p style='font-size: 30px; color: red;'><strong>Incorrect!</strong></p><p style='font-size: 30px;'><strong>This rock is peridotite</strong></p>","0","corr_feedback","1","train","45","","","","","","","",""
"","","","","","","","","","","","html-button-response","195","2.0.0","396635","66cf5d2817623ac399e0586f","1","46","1694","","","","","","","","","<img src= ""rock_img/I_Pumice_10.jpg"" style=""width:8cm; height:7.609999999999999cm;""><p>What type of rock is this?</p>","7","class_response","1","train","46","Pumice","Pumice","10","true","8","8","",""
"","","","","","","","","","","","html-button-response","196","2.0.0","397462","66cf5d2817623ac399e0586f","1","46","825","","","","","","","","","<img src= rock_img/I_Pumice_10.jpg style=""width:8cm; height:7.609999999999999cm;""><p style='font-size: 30px; color: green;'><strong>Correct!</strong></p><p style='font-size: 30px;'><strong>This rock is pumice</strong></p>","0","corr_feedback","1","train","46","","","","","","","",""
"","","","","","","","","","","","html-button-response","197","2.0.0","399231","66cf5d2817623ac399e0586f","1","46","1766","","","","","","","","","<img src= ""rock_img/I_Diorite_15.jpg"" style=""width:8cm; height:5.54cm;""><p>What type of rock is this?</p>","2","class_response","1","train","47","Diorite","Diorite","15","true","3","3","",""
"","","","","","","","","","","","html-button-response","198","2.0.0","400025","66cf5d2817623ac399e0586f","1","46","792","","","","","","","","","<img src= rock_img/I_Diorite_15.jpg style=""width:8cm; height:5.54cm;""><p style='font-size: 30px; color: green;'><strong>Correct!</strong></p><p style='font-size: 30px;'><strong>This rock is diorite</strong></p>","0","corr_feedback","1","train","47","","","","","","","",""
"","","","","","","","","","","","html-button-response","199","2.0.0","401123","66cf5d2817623ac399e0586f","1","46","1097","","","","","","","","","<img src= ""rock_img/I_Gabbro_03.jpg"" style=""width:8cm; height:8.52cm;""><p>What type of rock is this?</p>","2","class_response","1","train","48","Diorite","Gabbro","03","false","3","4","",""
"","","","","","","","","","","","html-button-response","200","2.0.0","402204","66cf5d2817623ac399e0586f","1","46","1079","","","","","","","","","<img src= rock_img/I_Gabbro_03.jpg style=""width:8cm; height:8.52cm;""><p style='font-size: 30px; color: red;'><strong>Incorrect!</strong></p><p style='font-size: 30px;'><strong>This rock is gabbro</strong></p>","0","corr_feedback","1","train","48","","","","","","","",""
"","","","","","","","","","","","instructions","203","2.0.0","415643","66cf5d2817623ac399e0586f","1","46","13438","","","","","","","","[{""page_index"":0,""viewing_time"":4092},{""page_index"":1,""viewing_time"":9346}]","","","","","","","","","","","","","",""
"","","","","","","","","","","","html-button-response","204","2.0.0","418208","66cf5d2817623ac399e0586f","1","46","2563","","","","","","","","","","0","start_test","","","","","","","","","","",""
"","","","","","","","","","","","html-button-response","205","2.0.0","419691","66cf5d2817623ac399e0586f","1","46","1480","","","","","","","","","<img src= ""rock_img/I_Obsidian_09.jpg"" style=""width:8cm; height:5cm;""><p>What type of rock is this?</p>","4","class_response","1","test","1","Obsidian","Obsidian","09","true","5","5","",""
"","","","","","","","","","","","html-keyboard-response","206","2.0.0","420193","66cf5d2817623ac399e0586f","1","46","null","","","","","","","","","<p style='font-size: 30px;'><strong>Okay</strong></p>","null","neutral_feedback","1","test","1","","","","","","","",""
"","","","","","","","","","","","html-button-response","207","2.0.0","422045","66cf5d2817623ac399e0586f","1","46","1850","","","","","","","","","<img src= ""rock_img/I_Pegmatite_05.jpg"" style=""width:8cm; height:7.300000000000001cm;""><p>What type of rock is this?</p>","5","class_response","1","test","2","Pegmatite","Pegmatite","05","true","6","6","",""
"","","","","","","","","","","","html-keyboard-response","208","2.0.0","422547","66cf5d2817623ac399e0586f","1","46","null","","","","","","","","","<p style='font-size: 30px;'><strong>Okay</strong></p>","null","neutral_feedback","1","test","2","","","","","","","",""
"","","","","","","","","","","","html-button-response","209","2.0.0","424567","66cf5d2817623ac399e0586f","1","46","2017","","","","","","","","","<img src= ""rock_img/I_Peridotite_16.jpg"" style=""width:8cm; height:6.989999999999999cm;""><p>What type of rock is this?</p>","6","class_response","1","test","3","Peridotite","Peridotite","16","true","7","7","",""
"","","","","","","","","","","","html-keyboard-response","210","2.0.0","425069","66cf5d2817623ac399e0586f","1","46","null","","","","","","","","","<p style='font-size: 30px;'><strong>Okay</strong></p>","null","neutral_feedback","1","test","3","","","","","","","",""
"","","","","","","","","","","","html-button-response","211","2.0.0","427054","66cf5d2817623ac399e0586f","1","46","1983","","","","","","","","","<img src= ""rock_img/I_Andesite_03.jpg"" style=""width:8cm; height:5.73cm;""><p>What type of rock is this?</p>","0","class_response","1","test","4","Andesite","Andesite","03","true","1","1","",""
"","","","","","","","","","","","html-keyboard-response","212","2.0.0","427556","66cf5d2817623ac399e0586f","1","46","null","","","","","","","","","<p style='font-size: 30px;'><strong>Okay</strong></p>","null","neutral_feedback","1","test","4","","","","","","","",""
"","","","","","","","","","","","html-button-response","213","2.0.0","429004","66cf5d2817623ac399e0586f","1","46","1446","","","","","","","","","<img src= ""rock_img/I_Basalt_04.jpg"" style=""width:8cm; height:7.53cm;""><p>What type of rock is this?</p>","1","class_response","1","test","5","Basalt","Basalt","04","true","2","2","",""
"","","","","","","","","","","","html-keyboard-response","214","2.0.0","429506","66cf5d2817623ac399e0586f","1","46","null","","","","","","","","","<p style='font-size: 30px;'><strong>Okay</strong></p>","null","neutral_feedback","1","test","5","","","","","","","",""
"","","","","","","","","","","","html-button-response","215","2.0.0","430823","66cf5d2817623ac399e0586f","1","46","1315","","","","","","","","","<img src= ""rock_img/I_Pumice_16.jpg"" style=""width:8cm; height:6.79cm;""><p>What type of rock is this?</p>","7","class_response","1","test","6","Pumice","Pumice","16","true","8","8","",""
"","","","","","","","","","","","html-keyboard-response","216","2.0.0","431325","66cf5d2817623ac399e0586f","1","46","null","","","","","","","","","<p style='font-size: 30px;'><strong>Okay</strong></p>","null","neutral_feedback","1","test","6","","","","","","","",""
"","","","","","","","","","","","html-button-response","217","2.0.0","434284","66cf5d2817623ac399e0586f","1","46","2957","","","","","","","","","<img src= ""rock_img/I_Gabbro_08.jpg"" style=""width:8cm; height:5.15cm;""><p>What type of rock is this?</p>","2","class_response","1","test","7","Diorite","Gabbro","08","false","3","4","",""
"","","","","","","","","","","","html-keyboard-response","218","2.0.0","434786","66cf5d2817623ac399e0586f","1","46","null","","","","","","","","","<p style='font-size: 30px;'><strong>Okay</strong></p>","null","neutral_feedback","1","test","7","","","","","","","",""
"","","","","","","","","","","","html-button-response","219","2.0.0","437012","66cf5d2817623ac399e0586f","1","46","2224","","","","","","","","","<img src= ""rock_img/I_Gabbro_12.jpg"" style=""width:8cm; height:7.800000000000001cm;""><p>What type of rock is this?</p>","0","class_response","1","test","8","Andesite","Gabbro","12","false","1","4","",""
"","","","","","","","","","","","html-keyboard-response","220","2.0.0","437513","66cf5d2817623ac399e0586f","1","46","null","","","","","","","","","<p style='font-size: 30px;'><strong>Okay</strong></p>","null","neutral_feedback","1","test","8","","","","","","","",""
"","","","","","","","","","","","html-button-response","221","2.0.0","439265","66cf5d2817623ac399e0586f","1","46","1750","","","","","","","","","<img src= ""rock_img/I_Andesite_14.jpg"" style=""width:8cm; height:5.449999999999999cm;""><p>What type of rock is this?</p>","5","class_response","1","test","9","Pegmatite","Andesite","14","false","6","1","",""
"","","","","","","","","","","","html-keyboard-response","222","2.0.0","439768","66cf5d2817623ac399e0586f","1","46","null","","","","","","","","","<p style='font-size: 30px;'><strong>Okay</strong></p>","null","neutral_feedback","1","test","9","","","","","","","",""
"","","","","","","","","","","","html-button-response","223","2.0.0","441844","66cf5d2817623ac399e0586f","1","46","2075","","","","","","","","","<img src= ""rock_img/I_Peridotite_05.jpg"" style=""width:8cm; height:7.1499999999999995cm;""><p>What type of rock is this?</p>","6","class_response","1","test","10","Peridotite","Peridotite","05","true","7","7","",""
"","","","","","","","","","","","html-keyboard-response","224","2.0.0","442346","66cf5d2817623ac399e0586f","1","46","null","","","","","","","","","<p style='font-size: 30px;'><strong>Okay</strong></p>","null","neutral_feedback","1","test","10","","","","","","","",""
"","","","","","","","","","","","html-button-response","225","2.0.0","445684","66cf5d2817623ac399e0586f","1","46","3336","","","","","","","","","<img src= ""rock_img/I_Gabbro_13.jpg"" style=""width:8cm; height:5.08cm;""><p>What type of rock is this?</p>","3","class_response","1","test","11","Gabbro","Gabbro","13","true","4","4","",""
"","","","","","","","","","","","html-keyboard-response","226","2.0.0","446186","66cf5d2817623ac399e0586f","1","46","null","","","","","","","","","<p style='font-size: 30px;'><strong>Okay</strong></p>","null","neutral_feedback","1","test","11","","","","","","","",""
"","","","","","","","","","","","html-button-response","227","2.0.0","447608","66cf5d2817623ac399e0586f","1","46","1419","","","","","","","","","<img src= ""rock_img/I_Pegmatite_16.jpg"" style=""width:8cm; height:5.8cm;""><p>What type of rock is this?</p>","5","class_response","1","test","12","Pegmatite","Pegmatite","16","true","6","6","",""
"","","","","","","","","","","","html-keyboard-response","228","2.0.0","448109","66cf5d2817623ac399e0586f","1","46","null","","","","","","","","","<p style='font-size: 30px;'><strong>Okay</strong></p>","null","neutral_feedback","1","test","12","","","","","","","",""
"","","","","","","","","","","","html-button-response","229","2.0.0","451448","66cf5d2817623ac399e0586f","1","46","3337","","","","","","","","","<img src= ""rock_img/I_Gabbro_15.jpg"" style=""width:8cm; height:6.29cm;""><p>What type of rock is this?</p>","3","class_response","1","test","13","Gabbro","Gabbro","15","true","4","4","",""
"","","","","","","","","","","","html-keyboard-response","230","2.0.0","451950","66cf5d2817623ac399e0586f","1","46","null","","","","","","","","","<p style='font-size: 30px;'><strong>Okay</strong></p>","null","neutral_feedback","1","test","13","","","","","","","",""
"","","","","","","","","","","","html-button-response","231","2.0.0","454086","66cf5d2817623ac399e0586f","1","46","2135","","","","","","","","","<img src= ""rock_img/I_Diorite_09.jpg"" style=""width:8cm; height:5.27cm;""><p>What type of rock is this?</p>","0","class_response","1","test","14","Andesite","Diorite","09","false","1","3","",""
"","","","","","","","","","","","html-keyboard-response","232","2.0.0","454588","66cf5d2817623ac399e0586f","1","46","null","","","","","","","","","<p style='font-size: 30px;'><strong>Okay</strong></p>","null","neutral_feedback","1","test","14","","","","","","","",""
"","","","","","","","","","","","html-button-response","233","2.0.0","456849","66cf5d2817623ac399e0586f","1","46","2258","","","","","","","","","<img src= ""rock_img/I_Diorite_13.jpg"" style=""width:8cm; height:6.29cm;""><p>What type of rock is this?</p>","0","class_response","1","test","15","Andesite","Diorite","13","false","1","3","",""
"","","","","","","","","","","","html-keyboard-response","234","2.0.0","457351","66cf5d2817623ac399e0586f","1","46","null","","","","","","","","","<p style='font-size: 30px;'><strong>Okay</strong></p>","null","neutral_feedback","1","test","15","","","","","","","",""
"","","","","","","","","","","","html-button-response","235","2.0.0","458663","66cf5d2817623ac399e0586f","1","46","1310","","","","","","","","","<img src= ""rock_img/I_Obsidian_12.jpg"" style=""width:8cm; height:6.53cm;""><p>What type of rock is this?</p>","4","class_response","1","test","16","Obsidian","Obsidian","12","true","5","5","",""
"","","","","","","","","","","","html-keyboard-response","236","2.0.0","459165","66cf5d2817623ac399e0586f","1","46","null","","","","","","","","","<p style='font-size: 30px;'><strong>Okay</strong></p>","null","neutral_feedback","1","test","16","","","","","","","",""
"","","","","","","","","","","","html-button-response","237","2.0.0","460641","66cf5d2817623ac399e0586f","1","46","1473","","","","","","","","","<img src= ""rock_img/I_Pumice_09.jpg"" style=""width:8cm; height:6.44cm;""><p>What type of rock is this?</p>","7","class_response","1","test","17","Pumice","Pumice","09","true","8","8","",""
"","","","","","","","","","","","html-keyboard-response","238","2.0.0","461143","66cf5d2817623ac399e0586f","1","46","null","","","","","","","","","<p style='font-size: 30px;'><strong>Okay</strong></p>","null","neutral_feedback","1","test","17","","","","","","","",""
"","","","","","","","","","","","html-button-response","239","2.0.0","464240","66cf5d2817623ac399e0586f","1","46","3095","","","","","","","","","<img src= ""rock_img/I_Diorite_08.jpg"" style=""width:8cm; height:6.37cm;""><p>What type of rock is this?</p>","2","class_response","1","test","18","Diorite","Diorite","08","true","3","3","",""
"","","","","","","","","","","","html-keyboard-response","240","2.0.0","464742","66cf5d2817623ac399e0586f","1","46","null","","","","","","","","","<p style='font-size: 30px;'><strong>Okay</strong></p>","null","neutral_feedback","1","test","18","","","","","","","",""
"","","","","","","","","","","","html-button-response","241","2.0.0","466101","66cf5d2817623ac399e0586f","1","46","1357","","","","","","","","","<img src= ""rock_img/I_Pumice_08.jpg"" style=""width:8cm; height:6.67cm;""><p>What type of rock is this?</p>","7","class_response","1","test","19","Pumice","Pumice","08","true","8","8","",""
"","","","","","","","","","","","html-keyboard-response","242","2.0.0","466603","66cf5d2817623ac399e0586f","1","46","null","","","","","","","","","<p style='font-size: 30px;'><strong>Okay</strong></p>","null","neutral_feedback","1","test","19","","","","","","","",""
"","","","","","","","","","","","html-button-response","243","2.0.0","468427","66cf5d2817623ac399e0586f","1","46","1821","","","","","","","","","<img src= ""rock_img/I_Pumice_04.jpg"" style=""width:8cm; height:6.819999999999999cm;""><p>What type of rock is this?</p>","7","class_response","1","test","20","Pumice","Pumice","04","true","8","8","",""
"","","","","","","","","","","","html-keyboard-response","244","2.0.0","468928","66cf5d2817623ac399e0586f","1","46","null","","","","","","","","","<p style='font-size: 30px;'><strong>Okay</strong></p>","null","neutral_feedback","1","test","20","","","","","","","",""
"","","","","","","","","","","","html-button-response","245","2.0.0","472567","66cf5d2817623ac399e0586f","1","46","3637","","","","","","","","","<img src= ""rock_img/I_Pegmatite_09.jpg"" style=""width:8cm; height:4.03cm;""><p>What type of rock is this?</p>","6","class_response","1","test","21","Peridotite","Pegmatite","09","false","7","6","",""
"","","","","","","","","","","","html-keyboard-response","246","2.0.0","473070","66cf5d2817623ac399e0586f","1","46","null","","","","","","","","","<p style='font-size: 30px;'><strong>Okay</strong></p>","null","neutral_feedback","1","test","21","","","","","","","",""
"","","","","","","","","","","","html-button-response","247","2.0.0","475098","66cf5d2817623ac399e0586f","1","46","2026","","","","","","","","","<img src= ""rock_img/I_Basalt_06.jpg"" style=""width:8cm; height:7.06cm;""><p>What type of rock is this?</p>","1","class_response","1","test","22","Basalt","Basalt","06","true","2","2","",""
"","","","","","","","","","","","html-keyboard-response","248","2.0.0","475600","66cf5d2817623ac399e0586f","1","46","null","","","","","","","","","<p style='font-size: 30px;'><strong>Okay</strong></p>","null","neutral_feedback","1","test","22","","","","","","","",""
"","","","","","","","","","","","html-button-response","249","2.0.0","477128","66cf5d2817623ac399e0586f","1","46","1525","","","","","","","","","<img src= ""rock_img/I_Peridotite_14.jpg"" style=""width:8cm; height:5.3cm;""><p>What type of rock is this?</p>","6","class_response","1","test","23","Peridotite","Peridotite","14","true","7","7","",""
"","","","","","","","","","","","html-keyboard-response","250","2.0.0","477630","66cf5d2817623ac399e0586f","1","46","null","","","","","","","","","<p style='font-size: 30px;'><strong>Okay</strong></p>","null","neutral_feedback","1","test","23","","","","","","","",""
"","","","","","","","","","","","html-button-response","251","2.0.0","479678","66cf5d2817623ac399e0586f","1","46","2046","","","","","","","","","<img src= ""rock_img/I_Pegmatite_06.jpg"" style=""width:8cm; height:5.17cm;""><p>What type of rock is this?</p>","5","class_response","1","test","24","Pegmatite","Pegmatite","06","true","6","6","",""
"","","","","","","","","","","","html-keyboard-response","252","2.0.0","480180","66cf5d2817623ac399e0586f","1","46","null","","","","","","","","","<p style='font-size: 30px;'><strong>Okay</strong></p>","null","neutral_feedback","1","test","24","","","","","","","",""
"","","","","","","","","","","","html-button-response","253","2.0.0","481969","66cf5d2817623ac399e0586f","1","46","1787","","","","","","","","","<img src= ""rock_img/I_Obsidian_05.jpg"" style=""width:8cm; height:6.33cm;""><p>What type of rock is this?</p>","4","class_response","1","test","25","Obsidian","Obsidian","05","true","5","5","",""
"","","","","","","","","","","","html-keyboard-response","254","2.0.0","482472","66cf5d2817623ac399e0586f","1","46","null","","","","","","","","","<p style='font-size: 30px;'><strong>Okay</strong></p>","null","neutral_feedback","1","test","25","","","","","","","",""
"","","","","","","","","","","","html-button-response","255","2.0.0","483754","66cf5d2817623ac399e0586f","1","46","1280","","","","","","","","","<img src= ""rock_img/I_Basalt_05.jpg"" style=""width:8cm; height:8.18cm;""><p>What type of rock is this?</p>","1","class_response","1","test","26","Basalt","Basalt","05","true","2","2","",""
"","","","","","","","","","","","html-keyboard-response","256","2.0.0","484256","66cf5d2817623ac399e0586f","1","46","null","","","","","","","","","<p style='font-size: 30px;'><strong>Okay</strong></p>","null","neutral_feedback","1","test","26","","","","","","","",""
"","","","","","","","","","","","html-button-response","257","2.0.0","486578","66cf5d2817623ac399e0586f","1","46","2320","","","","","","","","","<img src= ""rock_img/I_Gabbro_01.jpg"" style=""width:8cm; height:5.21cm;""><p>What type of rock is this?</p>","3","class_response","1","test","27","Gabbro","Gabbro","01","true","4","4","",""
"","","","","","","","","","","","html-keyboard-response","258","2.0.0","487080","66cf5d2817623ac399e0586f","1","46","null","","","","","","","","","<p style='font-size: 30px;'><strong>Okay</strong></p>","null","neutral_feedback","1","test","27","","","","","","","",""
"","","","","","","","","","","","html-button-response","259","2.0.0","488614","66cf5d2817623ac399e0586f","1","46","1531","","","","","","","","","<img src= ""rock_img/I_Pumice_03.jpg"" style=""width:8cm; height:6.64cm;""><p>What type of rock is this?</p>","7","class_response","1","test","28","Pumice","Pumice","03","true","8","8","",""
"","","","","","","","","","","","html-keyboard-response","260","2.0.0","489115","66cf5d2817623ac399e0586f","1","46","null","","","","","","","","","<p style='font-size: 30px;'><strong>Okay</strong></p>","null","neutral_feedback","1","test","28","","","","","","","",""
"","","","","","","","","","","","html-button-response","261","2.0.0","492593","66cf5d2817623ac399e0586f","1","46","3476","","","","","","","","","<img src= ""rock_img/I_Gabbro_11.jpg"" style=""width:8cm; height:6.2cm;""><p>What type of rock is this?</p>","1","class_response","1","test","29","Basalt","Gabbro","11","false","2","4","",""
"","","","","","","","","","","","html-keyboard-response","262","2.0.0","493095","66cf5d2817623ac399e0586f","1","46","null","","","","","","","","","<p style='font-size: 30px;'><strong>Okay</strong></p>","null","neutral_feedback","1","test","29","","","","","","","",""
"","","","","","","","","","","","html-button-response","263","2.0.0","496324","66cf5d2817623ac399e0586f","1","46","3227","","","","","","","","","<img src= ""rock_img/I_Basalt_16.jpg"" style=""width:8cm; height:7.659999999999999cm;""><p>What type of rock is this?</p>","1","class_response","1","test","30","Basalt","Basalt","16","true","2","2","",""
"","","","","","","","","","","","html-keyboard-response","264","2.0.0","496827","66cf5d2817623ac399e0586f","1","46","null","","","","","","","","","<p style='font-size: 30px;'><strong>Okay</strong></p>","null","neutral_feedback","1","test","30","","","","","","","",""
"","","","","","","","","","","","html-button-response","265","2.0.0","499098","66cf5d2817623ac399e0586f","1","46","2270","","","","","","","","","<img src= ""rock_img/I_Andesite_05.jpg"" style=""width:8cm; height:4.12cm;""><p>What type of rock is this?</p>","5","class_response","1","test","31","Pegmatite","Andesite","05","false","6","1","",""
"","","","","","","","","","","","html-keyboard-response","266","2.0.0","499600","66cf5d2817623ac399e0586f","1","46","null","","","","","","","","","<p style='font-size: 30px;'><strong>Okay</strong></p>","null","neutral_feedback","1","test","31","","","","","","","",""
"","","","","","","","","","","","html-button-response","267","2.0.0","501022","66cf5d2817623ac399e0586f","1","46","1419","","","","","","","","","<img src= ""rock_img/I_Diorite_16.jpg"" style=""width:8cm; height:6.74cm;""><p>What type of rock is this?</p>","2","class_response","1","test","32","Diorite","Diorite","16","true","3","3","",""
"","","","","","","","","","","","html-keyboard-response","268","2.0.0","501524","66cf5d2817623ac399e0586f","1","46","null","","","","","","","","","<p style='font-size: 30px;'><strong>Okay</strong></p>","null","neutral_feedback","1","test","32","","","","","","","",""
"","","","","","","","","","","","html-button-response","269","2.0.0","502790","66cf5d2817623ac399e0586f","1","46","1263","","","","","","","","","<img src= ""rock_img/I_Pegmatite_11.jpg"" style=""width:8cm; height:8.14cm;""><p>What type of rock is this?</p>","5","class_response","1","test","33","Pegmatite","Pegmatite","11","true","6","6","",""
"","","","","","","","","","","","html-keyboard-response","270","2.0.0","503292","66cf5d2817623ac399e0586f","1","46","null","","","","","","","","","<p style='font-size: 30px;'><strong>Okay</strong></p>","null","neutral_feedback","1","test","33","","","","","","","",""
"","","","","","","","","","","","html-button-response","271","2.0.0","504861","66cf5d2817623ac399e0586f","1","46","1567","","","","","","","","","<img src= ""rock_img/I_Andesite_04.jpg"" style=""width:8cm; height:5.96cm;""><p>What type of rock is this?</p>","0","class_response","1","test","34","Andesite","Andesite","04","true","1","1","",""
"","","","","","","","","","","","html-keyboard-response","272","2.0.0","505364","66cf5d2817623ac399e0586f","1","46","null","","","","","","","","","<p style='font-size: 30px;'><strong>Okay</strong></p>","null","neutral_feedback","1","test","34","","","","","","","",""
"","","","","","","","","","","","html-button-response","273","2.0.0","506542","66cf5d2817623ac399e0586f","1","46","1176","","","","","","","","","<img src= ""rock_img/I_Obsidian_11.jpg"" style=""width:8cm; height:6.05cm;""><p>What type of rock is this?</p>","4","class_response","1","test","35","Obsidian","Obsidian","11","true","5","5","",""
"","","","","","","","","","","","html-keyboard-response","274","2.0.0","507044","66cf5d2817623ac399e0586f","1","46","null","","","","","","","","","<p style='font-size: 30px;'><strong>Okay</strong></p>","null","neutral_feedback","1","test","35","","","","","","","",""
"","","","","","","","","","","","html-button-response","275","2.0.0","508908","66cf5d2817623ac399e0586f","1","46","1862","","","","","","","","","<img src= ""rock_img/I_Andesite_11.jpg"" style=""width:8cm; height:4.92cm;""><p>What type of rock is this?</p>","5","class_response","1","test","36","Pegmatite","Andesite","11","false","6","1","",""
"","","","","","","","","","","","html-keyboard-response","276","2.0.0","509410","66cf5d2817623ac399e0586f","1","46","null","","","","","","","","","<p style='font-size: 30px;'><strong>Okay</strong></p>","null","neutral_feedback","1","test","36","","","","","","","",""
"","","","","","","","","","","","html-button-response","277","2.0.0","512420","66cf5d2817623ac399e0586f","1","46","3008","","","","","","","","","<img src= ""rock_img/I_Basalt_12.jpg"" style=""width:8cm; height:6.010000000000001cm;""><p>What type of rock is this?</p>","1","class_response","1","test","37","Basalt","Basalt","12","true","2","2","",""
"","","","","","","","","","","","html-keyboard-response","278","2.0.0","512923","66cf5d2817623ac399e0586f","1","46","null","","","","","","","","","<p style='font-size: 30px;'><strong>Okay</strong></p>","null","neutral_feedback","1","test","37","","","","","","","",""
"","","","","","","","","","","","html-button-response","279","2.0.0","514612","66cf5d2817623ac399e0586f","1","46","1687","","","","","","","","","<img src= ""rock_img/I_Peridotite_02.jpg"" style=""width:8cm; height:5.859999999999999cm;""><p>What type of rock is this?</p>","6","class_response","1","test","38","Peridotite","Peridotite","02","true","7","7","",""
"","","","","","","","","","","","html-keyboard-response","280","2.0.0","515113","66cf5d2817623ac399e0586f","1","46","null","","","","","","","","","<p style='font-size: 30px;'><strong>Okay</strong></p>","null","neutral_feedback","1","test","38","","","","","","","",""
"","","","","","","","","","","","html-button-response","281","2.0.0","516499","66cf5d2817623ac399e0586f","1","46","1383","","","","","","","","","<img src= ""rock_img/I_Peridotite_10.jpg"" style=""width:8cm; height:5.390000000000001cm;""><p>What type of rock is this?</p>","6","class_response","1","test","39","Peridotite","Peridotite","10","true","7","7","",""
"","","","","","","","","","","","html-keyboard-response","282","2.0.0","517000","66cf5d2817623ac399e0586f","1","46","null","","","","","","","","","<p style='font-size: 30px;'><strong>Okay</strong></p>","null","neutral_feedback","1","test","39","","","","","","","",""
"","","","","","","","","","","","html-button-response","283","2.0.0","518164","66cf5d2817623ac399e0586f","1","46","1162","","","","","","","","","<img src= ""rock_img/I_Obsidian_06.jpg"" style=""width:8cm; height:6.8cm;""><p>What type of rock is this?</p>","4","class_response","1","test","40","Obsidian","Obsidian","06","true","5","5","",""
"","","","","","","","","","","","html-keyboard-response","284","2.0.0","518665","66cf5d2817623ac399e0586f","1","46","null","","","","","","","","","<p style='font-size: 30px;'><strong>Okay</strong></p>","null","neutral_feedback","1","test","40","","","","","","","",""
"","","","","","","","","","","","html-button-response","285","2.0.0","520252","66cf5d2817623ac399e0586f","1","46","1585","","","","","","","","","<img src= ""rock_img/I_Peridotite_12.jpg"" style=""width:8cm; height:4.54cm;""><p>What type of rock is this?</p>","6","class_response","1","test","41","Peridotite","Peridotite","12","true","7","7","",""
"","","","","","","","","","","","html-keyboard-response","286","2.0.0","520754","66cf5d2817623ac399e0586f","1","46","null","","","","","","","","","<p style='font-size: 30px;'><strong>Okay</strong></p>","null","neutral_feedback","1","test","41","","","","","","","",""
"","","","","","","","","","","","html-button-response","287","2.0.0","522652","66cf5d2817623ac399e0586f","1","46","1896","","","","","","","","","<img src= ""rock_img/I_Diorite_12.jpg"" style=""width:8cm; height:4.88cm;""><p>What type of rock is this?</p>","6","class_response","1","test","42","Peridotite","Diorite","12","false","7","3","",""
"","","","","","","","","","","","html-keyboard-response","288","2.0.0","523154","66cf5d2817623ac399e0586f","1","46","null","","","","","","","","","<p style='font-size: 30px;'><strong>Okay</strong></p>","null","neutral_feedback","1","test","42","","","","","","","",""
"","","","","","","","","","","","html-button-response","289","2.0.0","524466","66cf5d2817623ac399e0586f","1","46","1310","","","","","","","","","<img src= ""rock_img/I_Basalt_01.jpg"" style=""width:8cm; height:7.880000000000001cm;""><p>What type of rock is this?</p>","1","class_response","1","test","43","Basalt","Basalt","01","true","2","2","",""
"","","","","","","","","","","","html-keyboard-response","290","2.0.0","524967","66cf5d2817623ac399e0586f","1","46","null","","","","","","","","","<p style='font-size: 30px;'><strong>Okay</strong></p>","null","neutral_feedback","1","test","43","","","","","","","",""
"","","","","","","","","","","","html-button-response","291","2.0.0","526102","66cf5d2817623ac399e0586f","1","46","1132","","","","","","","","","<img src= ""rock_img/I_Obsidian_02.jpg"" style=""width:8cm; height:7.51cm;""><p>What type of rock is this?</p>","4","class_response","1","test","44","Obsidian","Obsidian","02","true","5","5","",""
"","","","","","","","","","","","html-keyboard-response","292","2.0.0","526604","66cf5d2817623ac399e0586f","1","46","null","","","","","","","","","<p style='font-size: 30px;'><strong>Okay</strong></p>","null","neutral_feedback","1","test","44","","","","","","","",""
"","","","","","","","","","","","html-button-response","293","2.0.0","530418","66cf5d2817623ac399e0586f","1","46","3812","","","","","","","","","<img src= ""rock_img/I_Andesite_16.jpg"" style=""width:8cm; height:6.010000000000001cm;""><p>What type of rock is this?</p>","2","class_response","1","test","45","Diorite","Andesite","16","false","3","1","",""
"","","","","","","","","","","","html-keyboard-response","294","2.0.0","530920","66cf5d2817623ac399e0586f","1","46","null","","","","","","","","","<p style='font-size: 30px;'><strong>Okay</strong></p>","null","neutral_feedback","1","test","45","","","","","","","",""
"","","","","","","","","","","","html-button-response","295","2.0.0","532519","66cf5d2817623ac399e0586f","1","46","1597","","","","","","","","","<img src= ""rock_img/I_Diorite_10.jpg"" style=""width:8cm; height:5.949999999999999cm;""><p>What type of rock is this?</p>","6","class_response","1","test","46","Peridotite","Diorite","10","false","7","3","",""
"","","","","","","","","","","","html-keyboard-response","296","2.0.0","533022","66cf5d2817623ac399e0586f","1","46","null","","","","","","","","","<p style='font-size: 30px;'><strong>Okay</strong></p>","null","neutral_feedback","1","test","46","","","","","","","",""
"","","","","","","","","","","","html-button-response","297","2.0.0","534217","66cf5d2817623ac399e0586f","1","46","1194","","","","","","","","","<img src= ""rock_img/I_Pegmatite_15.jpg"" style=""width:8cm; height:6cm;""><p>What type of rock is this?</p>","5","class_response","1","test","47","Pegmatite","Pegmatite","15","true","6","6","",""
"","","","","","","","","","","","html-keyboard-response","298","2.0.0","534720","66cf5d2817623ac399e0586f","1","46","null","","","","","","","","","<p style='font-size: 30px;'><strong>Okay</strong></p>","null","neutral_feedback","1","test","47","","","","","","","",""
"","","","","","","","","","","","html-button-response","299","2.0.0","536191","66cf5d2817623ac399e0586f","1","46","1469","","","","","","","","","<img src= ""rock_img/I_Pumice_14.jpg"" style=""width:8cm; height:6.39cm;""><p>What type of rock is this?</p>","7","class_response","1","test","48","Pumice","Pumice","14","true","8","8","",""
"","","","","","","","","","","","html-keyboard-response","300","2.0.0","536693","66cf5d2817623ac399e0586f","1","46","null","","","","","","","","","<p style='font-size: 30px;'><strong>Okay</strong></p>","null","neutral_feedback","1","test","48","","","","","","","",""
"","","","","","","","","","","","html-button-response","301","2.0.0","567711","66cf5d2817623ac399e0586f","1","46","","","","","","","","","","","","cycle_feedback","","","","","","","","","","22593.5","8415.09999999404"
"","","","","","","","","","","","html-button-response","303","2.0.0","570516","66cf5d2817623ac399e0586f","1","46","2803","","","","","","","","","","0","start_train","","","","","","","","","","",""
"","","","","","","","","","","","html-button-response","304","2.0.0","575405","66cf5d2817623ac399e0586f","1","46","4887","","","","","","","","","<img src= ""rock_img/I_Andesite_10.jpg"" style=""width:8cm; height:4.16cm;""><p>What type of rock is this?</p>","3","class_response","2","train","1","Gabbro","Andesite","10","false","4","1","",""
