"width","height","webaudio","browser","browser_version","mobile","os","fullscreen","vsync_rate","webcam","microphone","trial_type","trial_index","plugin_version","time_elapsed","subjID","condition","stimID","rt","url","success","value","timeout","failed_images","failed_audio","failed_video","view_history","stimulus","response","trialType","cycle","phase","trial","resp","cat","token","corr","resp_num","cat_num","time_fb1","time_fb2"
"1280","632","true","chrome","131.0.0","false","Windows 10","true","60.56","true","true","browser-check","0","2.0.0","1011","64d50c4b3a44318d98f4f5b2","1","24","","","","","","","","","","","","","","","","","","","","","","",""
"","","","","","","","","","","","external-html","1","2.0.0","14148","64d50c4b3a44318d98f4f5b2","1","24","13057","consent_form.html","","","","","","","","","","","","","","","","","","","","",""
"","","","","","","","","","","","fullscreen","2","2.0.0","19814","64d50c4b3a44318d98f4f5b2","1","24","4662","","true","","","","","","","","","","","","","","","","","","","",""
"","","","","","","","","","","","call-function","3","2.0.0","19818","64d50c4b3a44318d98f4f5b2","1","24","","","","{}","","","","","","","","","","","","","","","","","","",""
"","","","","","","","","","","","preload","4","2.0.0","33658","64d50c4b3a44318d98f4f5b2","1","24","","","true","","false","[]","[]","[]","","","","","","","","","","","","","","",""
"","","","","","","","","","","","instructions","5","2.0.0","77580","64d50c4b3a44318d98f4f5b2","1","24","43920","","","","","","","","[{""page_index"":0,""viewing_time"":9381},{""page_index"":1,""viewing_time"":23375},{""page_index"":2,""viewing_time"":11164}]","","","","","","","","","","","","","",""
"","","","","","","","","","","","html-button-response","6","2.0.0","79828","64d50c4b3a44318d98f4f5b2","1","24","2246","","","","","","","","","","0","start_test","","","","","","","","","","",""
"","","","","","","","","","","","html-button-response","7","2.0.0","88995","64d50c4b3a44318d98f4f5b2","1","24","9166","","","","","","","","","<img src= ""rock_img/I_Pumice_14.jpg"" style=""width:8cm; height:6.39cm;""><p>What type of rock is this?</p>","7","class_response","0","test","1","Pumice","Pumice","14","true","8","8","",""
"","","","","","","","","","","","html-keyboard-response","8","2.0.0","89501","64d50c4b3a44318d98f4f5b2","1","24","null","","","","","","","","","<p style='font-size: 30px;'><strong>Okay</strong></p>","null","neutral_feedback","0","test","1","","","","","","","",""
"","","","","","","","","","","","html-button-response","9","2.0.0","97068","64d50c4b3a44318d98f4f5b2","1","24","7564","","","","","","","","","<img src= ""rock_img/I_Obsidian_06.jpg"" style=""width:8cm; height:6.8cm;""><p>What type of rock is this?</p>","4","class_response","0","test","2","Obsidian","Obsidian","06","true","5","5","",""
"","","","","","","","","","","","html-keyboard-response","10","2.0.0","97571","64d50c4b3a44318d98f4f5b2","1","24","null","","","","","","","","","<p style='font-size: 30px;'><strong>Okay</strong></p>","null","neutral_feedback","0","test","2","","","","","","","",""
"","","","","","","","","","","","html-button-response","11","2.0.0","104219","64d50c4b3a44318d98f4f5b2","1","24","6645","","","","","","","","","<img src= ""rock_img/I_Diorite_16.jpg"" style=""width:8cm; height:6.74cm;""><p>What type of rock is this?</p>","2","class_response","0","test","3","Diorite","Diorite","16","true","3","3","",""
"","","","","","","","","","","","html-keyboard-response","12","2.0.0","104736","64d50c4b3a44318d98f4f5b2","1","24","null","","","","","","","","","<p style='font-size: 30px;'><strong>Okay</strong></p>","null","neutral_feedback","0","test","3","","","","","","","",""
"","","","","","","","","","","","html-button-response","13","2.0.0","113929","64d50c4b3a44318d98f4f5b2","1","24","9191","","","","","","","","","<img src= ""rock_img/I_Andesite_11.jpg"" style=""width:8cm; height:4.92cm;""><p>What type of rock is this?</p>","3","class_response","0","test","4","Gabbro","Andesite","11","false","4","1","",""
"","","","","","","","","","","","html-keyboard-response","14","2.0.0","114431","64d50c4b3a44318d98f4f5b2","1","24","null","","","","","","","","","<p style='font-size: 30px;'><strong>Okay</strong></p>","null","neutral_feedback","0","test","4","","","","","","","",""
"","","","","","","","","","","","html-button-response","15","2.0.0","118380","64d50c4b3a44318d98f4f5b2","1","24","3948","","","","","","","","","<img src= ""rock_img/I_Pumice_03.jpg"" style=""width:8cm; height:6.64cm;""><p>What type of rock is this?</p>","7","class_response","0","test","5","Pumice","Pumice","03","true","8","8","",""
"","","","","","","","","","","","html-keyboard-response","16","2.0.0","118895","64d50c4b3a44318d98f4f5b2","1","24","null","","","","","","","","","<p style='font-size: 30px;'><strong>Okay</strong></p>","null","neutral_feedback","0","test","5","","","","","","","",""
"","","","","","","","","","","","html-button-response","17","2.0.0","126621","64d50c4b3a44318d98f4f5b2","1","24","7725","","","","","","","","","<img src= ""rock_img/I_Gabbro_08.jpg"" style=""width:8cm; height:5.15cm;""><p>What type of rock is this?</p>","0","class_response","0","test","6","Andesite","Gabbro","08","false","1","4","",""
"","","","","","","","","","","","html-keyboard-response","18","2.0.0","127123","64d50c4b3a44318d98f4f5b2","1","24","null","","","","","","","","","<p style='font-size: 30px;'><strong>Okay</strong></p>","null","neutral_feedback","0","test","6","","","","","","","",""
"","","","","","","","","","","","html-button-response","19","2.0.0","129729","64d50c4b3a44318d98f4f5b2","1","24","2605","","","","","","","","","<img src= ""rock_img/I_Gabbro_03.jpg"" style=""width:8cm; height:8.52cm;""><p>What type of rock is this?</p>","0","class_response","0","test","7","Andesite","Gabbro","03","false","1","4","",""
"","","","","","","","","","","","html-keyboard-response","20","2.0.0","130231","64d50c4b3a44318d98f4f5b2","1","24","null","","","","","","","","","<p style='font-size: 30px;'><strong>Okay</strong></p>","null","neutral_feedback","0","test","7","","","","","","","",""
"","","","","","","","","","","","html-button-response","21","2.0.0","133097","64d50c4b3a44318d98f4f5b2","1","24","2864","","","","","","","","","<img src= ""rock_img/I_Peridotite_07.jpg"" style=""width:8cm; height:4.83cm;""><p>What type of rock is this?</p>","0","class_response","0","test","8","Andesite","Peridotite","07","false","1","7","",""
"","","","","","","","","","","","html-keyboard-response","22","2.0.0","133599","64d50c4b3a44318d98f4f5b2","1","24","null","","","","","","","","","<p style='font-size: 30px;'><strong>Okay</strong></p>","null","neutral_feedback","0","test","8","","","","","","","",""
"","","","","","","","","","","","html-button-response","23","2.0.0","137800","64d50c4b3a44318d98f4f5b2","1","24","4200","","","","","","","","","<img src= ""rock_img/I_Pegmatite_10.jpg"" style=""width:8cm; height:4.16cm;""><p>What type of rock is this?</p>","1","class_response","0","test","9","Basalt","Pegmatite","10","false","2","6","",""
"","","","","","","","","","","","html-keyboard-response","24","2.0.0","138316","64d50c4b3a44318d98f4f5b2","1","24","null","","","","","","","","","<p style='font-size: 30px;'><strong>Okay</strong></p>","null","neutral_feedback","0","test","9","","","","","","","",""
"","","","","","","","","","","","html-button-response","25","2.0.0","145092","64d50c4b3a44318d98f4f5b2","1","24","6774","","","","","","","","","<img src= ""rock_img/I_Pegmatite_16.jpg"" style=""width:8cm; height:5.8cm;""><p>What type of rock is this?</p>","5","class_response","0","test","10","Pegmatite","Pegmatite","16","true","6","6","",""
"","","","","","","","","","","","html-keyboard-response","26","2.0.0","145596","64d50c4b3a44318d98f4f5b2","1","24","null","","","","","","","","","<p style='font-size: 30px;'><strong>Okay</strong></p>","null","neutral_feedback","0","test","10","","","","","","","",""
"","","","","","","","","","","","html-button-response","27","2.0.0","151530","64d50c4b3a44318d98f4f5b2","1","24","5932","","","","","","","","","<img src= ""rock_img/I_Pumice_08.jpg"" style=""width:8cm; height:6.67cm;""><p>What type of rock is this?</p>","7","class_response","0","test","11","Pumice","Pumice","08","true","8","8","",""
"","","","","","","","","","","","html-keyboard-response","28","2.0.0","152037","64d50c4b3a44318d98f4f5b2","1","24","null","","","","","","","","","<p style='font-size: 30px;'><strong>Okay</strong></p>","null","neutral_feedback","0","test","11","","","","","","","",""
"","","","","","","","","","","","html-button-response","29","2.0.0","159518","64d50c4b3a44318d98f4f5b2","1","24","7480","","","","","","","","","<img src= ""rock_img/I_Basalt_16.jpg"" style=""width:8cm; height:7.659999999999999cm;""><p>What type of rock is this?</p>","5","class_response","0","test","12","Pegmatite","Basalt","16","false","6","2","",""
"","","","","","","","","","","","html-keyboard-response","30","2.0.0","160025","64d50c4b3a44318d98f4f5b2","1","24","null","","","","","","","","","<p style='font-size: 30px;'><strong>Okay</strong></p>","null","neutral_feedback","0","test","12","","","","","","","",""
"","","","","","","","","","","","html-button-response","31","2.0.0","162344","64d50c4b3a44318d98f4f5b2","1","24","2318","","","","","","","","","<img src= ""rock_img/I_Andesite_06.jpg"" style=""width:8cm; height:6.840000000000001cm;""><p>What type of rock is this?</p>","0","class_response","0","test","13","Andesite","Andesite","06","true","1","1","",""
"","","","","","","","","","","","html-keyboard-response","32","2.0.0","162846","64d50c4b3a44318d98f4f5b2","1","24","null","","","","","","","","","<p style='font-size: 30px;'><strong>Okay</strong></p>","null","neutral_feedback","0","test","13","","","","","","","",""
"","","","","","","","","","","","html-button-response","33","2.0.0","165193","64d50c4b3a44318d98f4f5b2","1","24","2345","","","","","","","","","<img src= ""rock_img/I_Andesite_07.jpg"" style=""width:8cm; height:5.93cm;""><p>What type of rock is this?</p>","1","class_response","0","test","14","Basalt","Andesite","07","false","2","1","",""
"","","","","","","","","","","","html-keyboard-response","34","2.0.0","165697","64d50c4b3a44318d98f4f5b2","1","24","null","","","","","","","","","<p style='font-size: 30px;'><strong>Okay</strong></p>","null","neutral_feedback","0","test","14","","","","","","","",""
"","","","","","","","","","","","html-button-response","35","2.0.0","168797","64d50c4b3a44318d98f4f5b2","1","24","3098","","","","","","","","","<img src= ""rock_img/I_Diorite_07.jpg"" style=""width:8cm; height:5.239999999999999cm;""><p>What type of rock is this?</p>","1","class_response","0","test","15","Basalt","Diorite","07","false","2","3","",""
"","","","","","","","","","","","html-keyboard-response","36","2.0.0","169310","64d50c4b3a44318d98f4f5b2","1","24","null","","","","","","","","","<p style='font-size: 30px;'><strong>Okay</strong></p>","null","neutral_feedback","0","test","15","","","","","","","",""
"","","","","","","","","","","","html-button-response","37","2.0.0","172373","64d50c4b3a44318d98f4f5b2","1","24","3061","","","","","","","","","<img src= ""rock_img/I_Obsidian_02.jpg"" style=""width:8cm; height:7.51cm;""><p>What type of rock is this?</p>","4","class_response","0","test","16","Obsidian","Obsidian","02","true","5","5","",""
"","","","","","","","","","","","html-keyboard-response","38","2.0.0","172875","64d50c4b3a44318d98f4f5b2","1","24","null","","","","","","","","","<p style='font-size: 30px;'><strong>Okay</strong></p>","null","neutral_feedback","0","test","16","","","","","","","",""
"","","","","","","","","","","","html-button-response","39","2.0.0","174969","64d50c4b3a44318d98f4f5b2","1","24","2092","","","","","","","","","<img src= ""rock_img/I_Pumice_16.jpg"" style=""width:8cm; height:6.79cm;""><p>What type of rock is this?</p>","7","class_response","0","test","17","Pumice","Pumice","16","true","8","8","",""
"","","","","","","","","","","","html-keyboard-response","40","2.0.0","175472","64d50c4b3a44318d98f4f5b2","1","24","null","","","","","","","","","<p style='font-size: 30px;'><strong>Okay</strong></p>","null","neutral_feedback","0","test","17","","","","","","","",""
"","","","","","","","","","","","html-button-response","41","2.0.0","180791","64d50c4b3a44318d98f4f5b2","1","24","5317","","","","","","","","","<img src= ""rock_img/I_Andesite_10.jpg"" style=""width:8cm; height:4.16cm;""><p>What type of rock is this?</p>","0","class_response","0","test","18","Andesite","Andesite","10","true","1","1","",""
"","","","","","","","","","","","html-keyboard-response","42","2.0.0","181297","64d50c4b3a44318d98f4f5b2","1","24","null","","","","","","","","","<p style='font-size: 30px;'><strong>Okay</strong></p>","null","neutral_feedback","0","test","18","","","","","","","",""
"","","","","","","","","","","","html-button-response","43","2.0.0","185776","64d50c4b3a44318d98f4f5b2","1","24","4477","","","","","","","","","<img src= ""rock_img/I_Gabbro_13.jpg"" style=""width:8cm; height:5.08cm;""><p>What type of rock is this?</p>","5","class_response","0","test","19","Pegmatite","Gabbro","13","false","6","4","",""
"","","","","","","","","","","","html-keyboard-response","44","2.0.0","186284","64d50c4b3a44318d98f4f5b2","1","24","null","","","","","","","","","<p style='font-size: 30px;'><strong>Okay</strong></p>","null","neutral_feedback","0","test","19","","","","","","","",""
"","","","","","","","","","","","html-button-response","45","2.0.0","189617","64d50c4b3a44318d98f4f5b2","1","24","3332","","","","","","","","","<img src= ""rock_img/I_Pegmatite_05.jpg"" style=""width:8cm; height:7.300000000000001cm;""><p>What type of rock is this?</p>","7","class_response","0","test","20","Pumice","Pegmatite","05","false","8","6","",""
"","","","","","","","","","","","html-keyboard-response","46","2.0.0","190120","64d50c4b3a44318d98f4f5b2","1","24","null","","","","","","","","","<p style='font-size: 30px;'><strong>Okay</strong></p>","null","neutral_feedback","0","test","20","","","","","","","",""
"","","","","","","","","","","","html-button-response","47","2.0.0","193816","64d50c4b3a44318d98f4f5b2","1","24","3693","","","","","","","","","<img src= ""rock_img/I_Peridotite_06.jpg"" style=""width:8cm; height:7.53cm;""><p>What type of rock is this?</p>","1","class_response","0","test","21","Basalt","Peridotite","06","false","2","7","",""
"","","","","","","","","","","","html-keyboard-response","48","2.0.0","194325","64d50c4b3a44318d98f4f5b2","1","24","null","","","","","","","","","<p style='font-size: 30px;'><strong>Okay</strong></p>","null","neutral_feedback","0","test","21","","","","","","","",""
"","","","","","","","","","","","html-button-response","49","2.0.0","196256","64d50c4b3a44318d98f4f5b2","1","24","1929","","","","","","","","","<img src= ""rock_img/I_Diorite_02.jpg"" style=""width:8cm; height:6.27cm;""><p>What type of rock is this?</p>","1","class_response","0","test","22","Basalt","Diorite","02","false","2","3","",""
"","","","","","","","","","","","html-keyboard-response","50","2.0.0","196771","64d50c4b3a44318d98f4f5b2","1","24","null","","","","","","","","","<p style='font-size: 30px;'><strong>Okay</strong></p>","null","neutral_feedback","0","test","22","","","","","","","",""
"","","","","","","","","","","","html-button-response","51","2.0.0","199282","64d50c4b3a44318d98f4f5b2","1","24","2509","","","","","","","","","<img src= ""rock_img/I_Pegmatite_03.jpg"" style=""width:8cm; height:5.239999999999999cm;""><p>What type of rock is this?</p>","2","class_response","0","test","23","Diorite","Pegmatite","03","false","3","6","",""
"","","","","","","","","","","","html-keyboard-response","52","2.0.0","199789","64d50c4b3a44318d98f4f5b2","1","24","null","","","","","","","","","<p style='font-size: 30px;'><strong>Okay</strong></p>","null","neutral_feedback","0","test","23","","","","","","","",""
"","","","","","","","","","","","html-button-response","53","2.0.0","203777","64d50c4b3a44318d98f4f5b2","1","24","3986","","","","","","","","","<img src= ""rock_img/I_Diorite_10.jpg"" style=""width:8cm; height:5.949999999999999cm;""><p>What type of rock is this?</p>","0","class_response","0","test","24","Andesite","Diorite","10","false","1","3","",""
"","","","","","","","","","","","html-keyboard-response","54","2.0.0","204279","64d50c4b3a44318d98f4f5b2","1","24","null","","","","","","","","","<p style='font-size: 30px;'><strong>Okay</strong></p>","null","neutral_feedback","0","test","24","","","","","","","",""
"","","","","","","","","","","","html-button-response","55","2.0.0","205868","64d50c4b3a44318d98f4f5b2","1","24","1588","","","","","","","","","<img src= ""rock_img/I_Basalt_08.jpg"" style=""width:8cm; height:10.44cm;""><p>What type of rock is this?</p>","4","class_response","0","test","25","Obsidian","Basalt","08","false","5","2","",""
"","","","","","","","","","","","html-keyboard-response","56","2.0.0","206370","64d50c4b3a44318d98f4f5b2","1","24","null","","","","","","","","","<p style='font-size: 30px;'><strong>Okay</strong></p>","null","neutral_feedback","0","test","25","","","","","","","",""
"","","","","","","","","","","","html-button-response","57","2.0.0","209896","64d50c4b3a44318d98f4f5b2","1","24","3524","","","","","","","","","<img src= ""rock_img/I_Gabbro_11.jpg"" style=""width:8cm; height:6.2cm;""><p>What type of rock is this?</p>","5","class_response","0","test","26","Pegmatite","Gabbro","11","false","6","4","",""
"","","","","","","","","","","","html-keyboard-response","58","2.0.0","210410","64d50c4b3a44318d98f4f5b2","1","24","null","","","","","","","","","<p style='font-size: 30px;'><strong>Okay</strong></p>","null","neutral_feedback","0","test","26","","","","","","","",""
"","","","","","","","","","","","html-button-response","59","2.0.0","213211","64d50c4b3a44318d98f4f5b2","1","24","2800","","","","","","","","","<img src= ""rock_img/I_Andesite_14.jpg"" style=""width:8cm; height:5.449999999999999cm;""><p>What type of rock is this?</p>","6","class_response","0","test","27","Peridotite","Andesite","14","false","7","1","",""
"","","","","","","","","","","","html-keyboard-response","60","2.0.0","213713","64d50c4b3a44318d98f4f5b2","1","24","null","","","","","","","","","<p style='font-size: 30px;'><strong>Okay</strong></p>","null","neutral_feedback","0","test","27","","","","","","","",""
"","","","","","","","","","","","html-button-response","61","2.0.0","216415","64d50c4b3a44318d98f4f5b2","1","24","2700","","","","","","","","","<img src= ""rock_img/I_Diorite_08.jpg"" style=""width:8cm; height:6.37cm;""><p>What type of rock is this?</p>","1","class_response","0","test","28","Basalt","Diorite","08","false","2","3","",""
"","","","","","","","","","","","html-keyboard-response","62","2.0.0","216929","64d50c4b3a44318d98f4f5b2","1","24","null","","","","","","","","","<p style='font-size: 30px;'><strong>Okay</strong></p>","null","neutral_feedback","0","test","28","","","","","","","",""
"","","","","","","","","","","","html-button-response","63","2.0.0","218269","64d50c4b3a44318d98f4f5b2","1","24","1338","","","","","","","","","<img src= ""rock_img/I_Basalt_12.jpg"" style=""width:8cm; height:6.010000000000001cm;""><p>What type of rock is this?</p>","1","class_response","0","test","29","Basalt","Basalt","12","true","2","2","",""
"","","","","","","","","","","","html-keyboard-response","64","2.0.0","218771","64d50c4b3a44318d98f4f5b2","1","24","null","","","","","","","","","<p style='font-size: 30px;'><strong>Okay</strong></p>","null","neutral_feedback","0","test","29","","","","","","","",""
"","","","","","","","","","","","html-button-response","65","2.0.0","220398","64d50c4b3a44318d98f4f5b2","1","24","1625","","","","","","","","","<img src= ""rock_img/I_Obsidian_12.jpg"" style=""width:8cm; height:6.53cm;""><p>What type of rock is this?</p>","4","class_response","0","test","30","Obsidian","Obsidian","12","true","5","5","",""
"","","","","","","","","","","","html-keyboard-response","66","2.0.0","220914","64d50c4b3a44318d98f4f5b2","1","24","null","","","","","","","","","<p style='font-size: 30px;'><strong>Okay</strong></p>","null","neutral_feedback","0","test","30","","","","","","","",""
"","","","","","","","","","","","html-button-response","67","2.0.0","223624","64d50c4b3a44318d98f4f5b2","1","24","2708","","","","","","","","","<img src= ""rock_img/I_Gabbro_01.jpg"" style=""width:8cm; height:5.21cm;""><p>What type of rock is this?</p>","1","class_response","0","test","31","Basalt","Gabbro","01","false","2","4","",""
"","","","","","","","","","","","html-keyboard-response","68","2.0.0","224131","64d50c4b3a44318d98f4f5b2","1","24","null","","","","","","","","","<p style='font-size: 30px;'><strong>Okay</strong></p>","null","neutral_feedback","0","test","31","","","","","","","",""
"","","","","","","","","","","","html-button-response","69","2.0.0","225930","64d50c4b3a44318d98f4f5b2","1","24","1797","","","","","","","","","<img src= ""rock_img/I_Peridotite_15.jpg"" style=""width:8cm; height:6cm;""><p>What type of rock is this?</p>","6","class_response","0","test","32","Peridotite","Peridotite","15","true","7","7","",""
"","","","","","","","","","","","html-keyboard-response","70","2.0.0","226434","64d50c4b3a44318d98f4f5b2","1","24","null","","","","","","","","","<p style='font-size: 30px;'><strong>Okay</strong></p>","null","neutral_feedback","0","test","32","","","","","","","",""
"","","","","","","","","","","","html-button-response","71","2.0.0","230669","64d50c4b3a44318d98f4f5b2","1","24","4234","","","","","","","","","<img src= ""rock_img/I_Peridotite_08.jpg"" style=""width:8cm; height:6.7cm;""><p>What type of rock is this?</p>","7","class_response","0","test","33","Pumice","Peridotite","08","false","8","7","",""
"","","","","","","","","","","","html-keyboard-response","72","2.0.0","231172","64d50c4b3a44318d98f4f5b2","1","24","null","","","","","","","","","<p style='font-size: 30px;'><strong>Okay</strong></p>","null","neutral_feedback","0","test","33","","","","","","","",""
"","","","","","","","","","","","html-button-response","73","2.0.0","232709","64d50c4b3a44318d98f4f5b2","1","24","1536","","","","","","","","","<img src= ""rock_img/I_Basalt_06.jpg"" style=""width:8cm; height:7.06cm;""><p>What type of rock is this?</p>","4","class_response","0","test","34","Obsidian","Basalt","06","false","5","2","",""
"","","","","","","","","","","","html-keyboard-response","74","2.0.0","233222","64d50c4b3a44318d98f4f5b2","1","24","null","","","","","","","","","<p style='font-size: 30px;'><strong>Okay</strong></p>","null","neutral_feedback","0","test","34","","","","","","","",""
"","","","","","","","","","","","html-button-response","75","2.0.0","235216","64d50c4b3a44318d98f4f5b2","1","24","1992","","","","","","","","","<img src= ""rock_img/I_Pumice_09.jpg"" style=""width:8cm; height:6.44cm;""><p>What type of rock is this?</p>","7","class_response","0","test","35","Pumice","Pumice","09","true","8","8","",""
"","","","","","","","","","","","html-keyboard-response","76","2.0.0","235719","64d50c4b3a44318d98f4f5b2","1","24","null","","","","","","","","","<p style='font-size: 30px;'><strong>Okay</strong></p>","null","neutral_feedback","0","test","35","","","","","","","",""
"","","","","","","","","","","","html-button-response","77","2.0.0","238264","64d50c4b3a44318d98f4f5b2","1","24","2543","","","","","","","","","<img src= ""rock_img/I_Basalt_04.jpg"" style=""width:8cm; height:7.53cm;""><p>What type of rock is this?</p>","4","class_response","0","test","36","Obsidian","Basalt","04","false","5","2","",""
"","","","","","","","","","","","html-keyboard-response","78","2.0.0","238769","64d50c4b3a44318d98f4f5b2","1","24","null","","","","","","","","","<p style='font-size: 30px;'><strong>Okay</strong></p>","null","neutral_feedback","0","test","36","","","","","","","",""
"","","","","","","","","","","","html-button-response","79","2.0.0","241697","64d50c4b3a44318d98f4f5b2","1","24","2927","","","","","","","","","<img src= ""rock_img/I_Andesite_04.jpg"" style=""width:8cm; height:5.96cm;""><p>What type of rock is this?</p>","1","class_response","0","test","37","Basalt","Andesite","04","false","2","1","",""
"","","","","","","","","","","","html-keyboard-response","80","2.0.0","242207","64d50c4b3a44318d98f4f5b2","1","24","null","","","","","","","","","<p style='font-size: 30px;'><strong>Okay</strong></p>","null","neutral_feedback","0","test","37","","","","","","","",""
"","","","","","","","","","","","html-button-response","81","2.0.0","248587","64d50c4b3a44318d98f4f5b2","1","24","6379","","","","","","","","","<img src= ""rock_img/I_Obsidian_07.jpg"" style=""width:8cm; height:4.76cm;""><p>What type of rock is this?</p>","5","class_response","0","test","38","Pegmatite","Obsidian","07","false","6","5","",""
"","","","","","","","","","","","html-keyboard-response","82","2.0.0","249093","64d50c4b3a44318d98f4f5b2","1","24","null","","","","","","","","","<p style='font-size: 30px;'><strong>Okay</strong></p>","null","neutral_feedback","0","test","38","","","","","","","",""
"","","","","","","","","","","","html-button-response","83","2.0.0","250871","64d50c4b3a44318d98f4f5b2","1","24","1776","","","","","","","","","<img src= ""rock_img/I_Peridotite_13.jpg"" style=""width:8cm; height:7.58cm;""><p>What type of rock is this?</p>","6","class_response","0","test","39","Peridotite","Peridotite","13","true","7","7","",""
"","","","","","","","","","","","html-keyboard-response","84","2.0.0","251376","64d50c4b3a44318d98f4f5b2","1","24","null","","","","","","","","","<p style='font-size: 30px;'><strong>Okay</strong></p>","null","neutral_feedback","0","test","39","","","","","","","",""
"","","","","","","","","","","","html-button-response","85","2.0.0","253845","64d50c4b3a44318d98f4f5b2","1","24","2467","","","","","","","","","<img src= ""rock_img/I_Gabbro_14.jpg"" style=""width:8cm; height:8.48cm;""><p>What type of rock is this?</p>","2","class_response","0","test","40","Diorite","Gabbro","14","false","3","4","",""
"","","","","","","","","","","","html-keyboard-response","86","2.0.0","254347","64d50c4b3a44318d98f4f5b2","1","24","null","","","","","","","","","<p style='font-size: 30px;'><strong>Okay</strong></p>","null","neutral_feedback","0","test","40","","","","","","","",""
"","","","","","","","","","","","html-button-response","87","2.0.0","258836","64d50c4b3a44318d98f4f5b2","1","24","4487","","","","","","","","","<img src= ""rock_img/I_Basalt_10.jpg"" style=""width:8cm; height:5.85cm;""><p>What type of rock is this?</p>","1","class_response","0","test","41","Basalt","Basalt","10","true","2","2","",""
"","","","","","","","","","","","html-keyboard-response","88","2.0.0","259342","64d50c4b3a44318d98f4f5b2","1","24","null","","","","","","","","","<p style='font-size: 30px;'><strong>Okay</strong></p>","null","neutral_feedback","0","test","41","","","","","","","",""
"","","","","","","","","","","","html-button-response","89","2.0.0","262715","64d50c4b3a44318d98f4f5b2","1","24","3372","","","","","","","","","<img src= ""rock_img/I_Pegmatite_07.jpg"" style=""width:8cm; height:6.7cm;""><p>What type of rock is this?</p>","2","class_response","0","test","42","Diorite","Pegmatite","07","false","3","6","",""
"","","","","","","","","","","","html-keyboard-response","90","2.0.0","263222","64d50c4b3a44318d98f4f5b2","1","24","null","","","","","","","","","<p style='font-size: 30px;'><strong>Okay</strong></p>","null","neutral_feedback","0","test","42","","","","","","","",""
"","","","","","","","","","","","html-button-response","91","2.0.0","265341","64d50c4b3a44318d98f4f5b2","1","24","2117","","","","","","","","","<img src= ""rock_img/I_Diorite_11.jpg"" style=""width:8cm; height:7.11cm;""><p>What type of rock is this?</p>","1","class_response","0","test","43","Basalt","Diorite","11","false","2","3","",""
"","","","","","","","","","","","html-keyboard-response","92","2.0.0","265847","64d50c4b3a44318d98f4f5b2","1","24","null","","","","","","","","","<p style='font-size: 30px;'><strong>Okay</strong></p>","null","neutral_feedback","0","test","43","","","","","","","",""
"","","","","","","","","","","","html-button-response","93","2.0.0","267462","64d50c4b3a44318d98f4f5b2","1","24","1613","","","","","","","","","<img src= ""rock_img/I_Pegmatite_15.jpg"" style=""width:8cm; height:6cm;""><p>What type of rock is this?</p>","1","class_response","0","test","44","Basalt","Pegmatite","15","false","2","6","",""
"","","","","","","","","","","","html-keyboard-response","94","2.0.0","267972","64d50c4b3a44318d98f4f5b2","1","24","null","","","","","","","","","<p style='font-size: 30px;'><strong>Okay</strong></p>","null","neutral_feedback","0","test","44","","","","","","","",""
"","","","","","","","","","","","html-button-response","95","2.0.0","269123","64d50c4b3a44318d98f4f5b2","1","24","1149","","","","","","","","","<img src= ""rock_img/I_Peridotite_02.jpg"" style=""width:8cm; height:5.859999999999999cm;""><p>What type of rock is this?</p>","1","class_response","0","test","45","Basalt","Peridotite","02","false","2","7","",""
"","","","","","","","","","","","html-keyboard-response","96","2.0.0","269632","64d50c4b3a44318d98f4f5b2","1","24","null","","","","","","","","","<p style='font-size: 30px;'><strong>Okay</strong></p>","null","neutral_feedback","0","test","45","","","","","","","",""
"","","","","","","","","","","","html-button-response","97","2.0.0","271222","64d50c4b3a44318d98f4f5b2","1","24","1588","","","","","","","","","<img src= ""rock_img/I_Obsidian_04.jpg"" style=""width:8cm; height:6.930000000000001cm;""><p>What type of rock is this?</p>","4","class_response","0","test","46","Obsidian","Obsidian","04","true","5","5","",""
"","","","","","","","","","","","html-keyboard-response","98","2.0.0","271733","64d50c4b3a44318d98f4f5b2","1","24","null","","","","","","","","","<p style='font-size: 30px;'><strong>Okay</strong></p>","null","neutral_feedback","0","test","46","","","","","","","",""
"","","","","","","","","","","","html-button-response","99","2.0.0","273528","64d50c4b3a44318d98f4f5b2","1","24","1793","","","","","","","","","<img src= ""rock_img/I_Pumice_10.jpg"" style=""width:8cm; height:7.609999999999999cm;""><p>What type of rock is this?</p>","7","class_response","0","test","47","Pumice","Pumice","10","true","8","8","",""
"","","","","","","","","","","","html-keyboard-response","100","2.0.0","274035","64d50c4b3a44318d98f4f5b2","1","24","null","","","","","","","","","<p style='font-size: 30px;'><strong>Okay</strong></p>","null","neutral_feedback","0","test","47","","","","","","","",""
"","","","","","","","","","","","html-button-response","101","2.0.0","275716","64d50c4b3a44318d98f4f5b2","1","24","1679","","","","","","","","","<img src= ""rock_img/I_Obsidian_14.jpg"" style=""width:8cm; height:7.64cm;""><p>What type of rock is this?</p>","4","class_response","0","test","48","Obsidian","Obsidian","14","true","5","5","",""
"","","","","","","","","","","","html-keyboard-response","102","2.0.0","276219","64d50c4b3a44318d98f4f5b2","1","24","null","","","","","","","","","<p style='font-size: 30px;'><strong>Okay</strong></p>","null","neutral_feedback","0","test","48","","","","","","","",""
"","","","","","","","","","","","instructions","103","2.0.0","294679","64d50c4b3a44318d98f4f5b2","1","24","18436","","","","","","","","[{""page_index"":0,""viewing_time"":7186},{""page_index"":1,""viewing_time"":7394},{""page_index"":2,""viewing_time"":3857}]","","","","","","","","","","","","","",""
"","","","","","","","","","","","html-button-response","104","2.0.0","297601","64d50c4b3a44318d98f4f5b2","1","24","2921","","","","","","","","","","0","start_train","","","","","","","","","","",""
"","","","","","","","","","","","html-button-response","105","2.0.0","302829","64d50c4b3a44318d98f4f5b2","1","24","5227","","","","","","","","","<img src= ""rock_img/I_Pegmatite_11.jpg"" style=""width:8cm; height:8.14cm;""><p>What type of rock is this?</p>","2","class_response","1","train","1","Diorite","Pegmatite","11","false","3","6","",""
"","","","","","","","","","","","html-button-response","106","2.0.0","311298","64d50c4b3a44318d98f4f5b2","1","24","8467","","","","","","","","","<img src= rock_img/I_Pegmatite_11.jpg style=""width:8cm; height:8.14cm;""><p style='font-size: 30px; color: red;'><strong>Incorrect!</strong></p><p style='font-size: 30px;'><strong>This rock is pegmatite</strong></p>","0","corr_feedback","1","train","1","","","","","","","",""
"","","","","","","","","","","","html-button-response","107","2.0.0","313820","64d50c4b3a44318d98f4f5b2","1","24","2520","","","","","","","","","<img src= ""rock_img/I_Pumice_06.jpg"" style=""width:8cm; height:6.9399999999999995cm;""><p>What type of rock is this?</p>","7","class_response","1","train","2","Pumice","Pumice","06","true","8","8","",""
"","","","","","","","","","","","html-button-response","108","2.0.0","315281","64d50c4b3a44318d98f4f5b2","1","24","1459","","","","","","","","","<img src= rock_img/I_Pumice_06.jpg style=""width:8cm; height:6.9399999999999995cm;""><p style='font-size: 30px; color: green;'><strong>Correct!</strong></p><p style='font-size: 30px;'><strong>This rock is pumice</strong></p>","0","corr_feedback","1","train","2","","","","","","","",""
"","","","","","","","","","","","html-button-response","109","2.0.0","317209","64d50c4b3a44318d98f4f5b2","1","24","1927","","","","","","","","","<img src= ""rock_img/I_Basalt_05.jpg"" style=""width:8cm; height:8.18cm;""><p>What type of rock is this?</p>","4","class_response","1","train","3","Obsidian","Basalt","05","false","5","2","",""
"","","","","","","","","","","","html-button-response","110","2.0.0","319612","64d50c4b3a44318d98f4f5b2","1","24","2401","","","","","","","","","<img src= rock_img/I_Basalt_05.jpg style=""width:8cm; height:8.18cm;""><p style='font-size: 30px; color: red;'><strong>Incorrect!</strong></p><p style='font-size: 30px;'><strong>This rock is basalt</strong></p>","0","corr_feedback","1","train","3","","","","","","","",""
"","","","","","","","","","","","html-button-response","111","2.0.0","322749","64d50c4b3a44318d98f4f5b2","1","24","3135","","","","","","","","","<img src= ""rock_img/I_Basalt_11.jpg"" style=""width:8cm; height:5.359999999999999cm;""><p>What type of rock is this?</p>","7","class_response","1","train","4","Pumice","Basalt","11","false","8","2","",""
"","","","","","","","","","","","html-button-response","112","2.0.0","324418","64d50c4b3a44318d98f4f5b2","1","24","1667","","","","","","","","","<img src= rock_img/I_Basalt_11.jpg style=""width:8cm; height:5.359999999999999cm;""><p style='font-size: 30px; color: red;'><strong>Incorrect!</strong></p><p style='font-size: 30px;'><strong>This rock is basalt</strong></p>","0","corr_feedback","1","train","4","","","","","","","",""
"","","","","","","","","","","","html-button-response","113","2.0.0","326716","64d50c4b3a44318d98f4f5b2","1","24","2298","","","","","","","","","<img src= ""rock_img/I_Andesite_03.jpg"" style=""width:8cm; height:5.73cm;""><p>What type of rock is this?</p>","2","class_response","1","train","5","Diorite","Andesite","03","false","3","1","",""
"","","","","","","","","","","","html-button-response","114","2.0.0","330780","64d50c4b3a44318d98f4f5b2","1","24","4063","","","","","","","","","<img src= rock_img/I_Andesite_03.jpg style=""width:8cm; height:5.73cm;""><p style='font-size: 30px; color: red;'><strong>Incorrect!</strong></p><p style='font-size: 30px;'><strong>This rock is andesite</strong></p>","0","corr_feedback","1","train","5","","","","","","","",""
"","","","","","","","","","","","html-button-response","115","2.0.0","337899","64d50c4b3a44318d98f4f5b2","1","24","7118","","","","","","","","","<img src= ""rock_img/I_Pegmatite_08.jpg"" style=""width:8cm; height:7.68cm;""><p>What type of rock is this?</p>","5","class_response","1","train","6","Pegmatite","Pegmatite","08","true","6","6","",""
"","","","","","","","","","","","html-button-response","116","2.0.0","339487","64d50c4b3a44318d98f4f5b2","1","24","1586","","","","","","","","","<img src= rock_img/I_Pegmatite_08.jpg style=""width:8cm; height:7.68cm;""><p style='font-size: 30px; color: green;'><strong>Correct!</strong></p><p style='font-size: 30px;'><strong>This rock is pegmatite</strong></p>","0","corr_feedback","1","train","6","","","","","","","",""
"","","","","","","","","","","","html-button-response","117","2.0.0","345664","64d50c4b3a44318d98f4f5b2","1","24","6176","","","","","","","","","<img src= ""rock_img/I_Basalt_14.jpg"" style=""width:8cm; height:5.82cm;""><p>What type of rock is this?</p>","2","class_response","1","train","7","Diorite","Basalt","14","false","3","2","",""
"","","","","","","","","","","","html-button-response","118","2.0.0","355586","64d50c4b3a44318d98f4f5b2","1","24","9921","","","","","","","","","<img src= rock_img/I_Basalt_14.jpg style=""width:8cm; height:5.82cm;""><p style='font-size: 30px; color: red;'><strong>Incorrect!</strong></p><p style='font-size: 30px;'><strong>This rock is basalt</strong></p>","0","corr_feedback","1","train","7","","","","","","","",""
"","","","","","","","","","","","html-button-response","119","2.0.0","357937","64d50c4b3a44318d98f4f5b2","1","24","2350","","","","","","","","","<img src= ""rock_img/I_Diorite_09.jpg"" style=""width:8cm; height:5.27cm;""><p>What type of rock is this?</p>","2","class_response","1","train","8","Diorite","Diorite","09","true","3","3","",""
"","","","","","","","","","","","html-button-response","120","2.0.0","359406","64d50c4b3a44318d98f4f5b2","1","24","1467","","","","","","","","","<img src= rock_img/I_Diorite_09.jpg style=""width:8cm; height:5.27cm;""><p style='font-size: 30px; color: green;'><strong>Correct!</strong></p><p style='font-size: 30px;'><strong>This rock is diorite</strong></p>","0","corr_feedback","1","train","8","","","","","","","",""
"","","","","","","","","","","","html-button-response","121","2.0.0","361319","64d50c4b3a44318d98f4f5b2","1","24","1912","","","","","","","","","<img src= ""rock_img/I_Obsidian_08.jpg"" style=""width:8cm; height:7.39cm;""><p>What type of rock is this?</p>","4","class_response","1","train","9","Obsidian","Obsidian","08","true","5","5","",""
"","","","","","","","","","","","html-button-response","122","2.0.0","362913","64d50c4b3a44318d98f4f5b2","1","24","1593","","","","","","","","","<img src= rock_img/I_Obsidian_08.jpg style=""width:8cm; height:7.39cm;""><p style='font-size: 30px; color: green;'><strong>Correct!</strong></p><p style='font-size: 30px;'><strong>This rock is obsidian</strong></p>","0","corr_feedback","1","train","9","","","","","","","",""
"","","","","","","","","","","","html-button-response","123","2.0.0","365708","64d50c4b3a44318d98f4f5b2","1","24","2794","","","","","","","","","<img src= ""rock_img/I_Andesite_02.jpg"" style=""width:8cm; height:8.5cm;""><p>What type of rock is this?</p>","1","class_response","1","train","10","Basalt","Andesite","02","false","2","1","",""
"","","","","","","","","","","","html-button-response","124","2.0.0","366946","64d50c4b3a44318d98f4f5b2","1","24","1237","","","","","","","","","<img src= rock_img/I_Andesite_02.jpg style=""width:8cm; height:8.5cm;""><p style='font-size: 30px; color: red;'><strong>Incorrect!</strong></p><p style='font-size: 30px;'><strong>This rock is andesite</strong></p>","0","corr_feedback","1","train","10","","","","","","","",""
"","","","","","","","","","","","html-button-response","125","2.0.0","369260","64d50c4b3a44318d98f4f5b2","1","24","2312","","","","","","","","","<img src= ""rock_img/I_Pumice_05.jpg"" style=""width:8cm; height:7.25cm;""><p>What type of rock is this?</p>","7","class_response","1","train","11","Pumice","Pumice","05","true","8","8","",""
"","","","","","","","","","","","html-button-response","126","2.0.0","370595","64d50c4b3a44318d98f4f5b2","1","24","1333","","","","","","","","","<img src= rock_img/I_Pumice_05.jpg style=""width:8cm; height:7.25cm;""><p style='font-size: 30px; color: green;'><strong>Correct!</strong></p><p style='font-size: 30px;'><strong>This rock is pumice</strong></p>","0","corr_feedback","1","train","11","","","","","","","",""
"","","","","","","","","","","","html-button-response","127","2.0.0","372938","64d50c4b3a44318d98f4f5b2","1","24","2342","","","","","","","","","<img src= ""rock_img/I_Peridotite_10.jpg"" style=""width:8cm; height:5.390000000000001cm;""><p>What type of rock is this?</p>","0","class_response","1","train","12","Andesite","Peridotite","10","false","1","7","",""
"","","","","","","","","","","","html-button-response","128","2.0.0","374384","64d50c4b3a44318d98f4f5b2","1","24","1445","","","","","","","","","<img src= rock_img/I_Peridotite_10.jpg style=""width:8cm; height:5.390000000000001cm;""><p style='font-size: 30px; color: red;'><strong>Incorrect!</strong></p><p style='font-size: 30px;'><strong>This rock is peridotite</strong></p>","0","corr_feedback","1","train","12","","","","","","","",""
"","","","","","","","","","","","html-button-response","129","2.0.0","376409","64d50c4b3a44318d98f4f5b2","1","24","2023","","","","","","","","","<img src= ""rock_img/I_Pumice_13.jpg"" style=""width:8cm; height:8.200000000000001cm;""><p>What type of rock is this?</p>","7","class_response","1","train","13","Pumice","Pumice","13","true","8","8","",""
"","","","","","","","","","","","html-button-response","130","2.0.0","377721","64d50c4b3a44318d98f4f5b2","1","24","1311","","","","","","","","","<img src= rock_img/I_Pumice_13.jpg style=""width:8cm; height:8.200000000000001cm;""><p style='font-size: 30px; color: green;'><strong>Correct!</strong></p><p style='font-size: 30px;'><strong>This rock is pumice</strong></p>","0","corr_feedback","1","train","13","","","","","","","",""
"","","","","","","","","","","","html-button-response","131","2.0.0","381458","64d50c4b3a44318d98f4f5b2","1","24","3736","","","","","","","","","<img src= ""rock_img/I_Basalt_01.jpg"" style=""width:8cm; height:7.880000000000001cm;""><p>What type of rock is this?</p>","1","class_response","1","train","14","Basalt","Basalt","01","true","2","2","",""
"","","","","","","","","","","","html-button-response","132","2.0.0","382904","64d50c4b3a44318d98f4f5b2","1","24","1444","","","","","","","","","<img src= rock_img/I_Basalt_01.jpg style=""width:8cm; height:7.880000000000001cm;""><p style='font-size: 30px; color: green;'><strong>Correct!</strong></p><p style='font-size: 30px;'><strong>This rock is basalt</strong></p>","0","corr_feedback","1","train","14","","","","","","","",""
"","","","","","","","","","","","html-button-response","133","2.0.0","385603","64d50c4b3a44318d98f4f5b2","1","24","2698","","","","","","","","","<img src= ""rock_img/I_Andesite_05.jpg"" style=""width:8cm; height:4.12cm;""><p>What type of rock is this?</p>","0","class_response","1","train","15","Andesite","Andesite","05","true","1","1","",""
"","","","","","","","","","","","html-button-response","134","2.0.0","386856","64d50c4b3a44318d98f4f5b2","1","24","1252","","","","","","","","","<img src= rock_img/I_Andesite_05.jpg style=""width:8cm; height:4.12cm;""><p style='font-size: 30px; color: green;'><strong>Correct!</strong></p><p style='font-size: 30px;'><strong>This rock is andesite</strong></p>","0","corr_feedback","1","train","15","","","","","","","",""
"","","","","","","","","","","","html-button-response","135","2.0.0","390186","64d50c4b3a44318d98f4f5b2","1","24","3328","","","","","","","","","<img src= ""rock_img/I_Gabbro_16.jpg"" style=""width:8cm; height:6.44cm;""><p>What type of rock is this?</p>","3","class_response","1","train","16","Gabbro","Gabbro","16","true","4","4","",""
"","","","","","","","","","","","html-button-response","136","2.0.0","391550","64d50c4b3a44318d98f4f5b2","1","24","1363","","","","","","","","","<img src= rock_img/I_Gabbro_16.jpg style=""width:8cm; height:6.44cm;""><p style='font-size: 30px; color: green;'><strong>Correct!</strong></p><p style='font-size: 30px;'><strong>This rock is gabbro</strong></p>","0","corr_feedback","1","train","16","","","","","","","",""
"","","","","","","","","","","","html-button-response","137","2.0.0","395154","64d50c4b3a44318d98f4f5b2","1","24","3602","","","","","","","","","<img src= ""rock_img/I_Pegmatite_12.jpg"" style=""width:8cm; height:5.7cm;""><p>What type of rock is this?</p>","6","class_response","1","train","17","Peridotite","Pegmatite","12","false","7","6","",""
"","","","","","","","","","","","html-button-response","138","2.0.0","396555","64d50c4b3a44318d98f4f5b2","1","24","1400","","","","","","","","","<img src= rock_img/I_Pegmatite_12.jpg style=""width:8cm; height:5.7cm;""><p style='font-size: 30px; color: red;'><strong>Incorrect!</strong></p><p style='font-size: 30px;'><strong>This rock is pegmatite</strong></p>","0","corr_feedback","1","train","17","","","","","","","",""
"","","","","","","","","","","","html-button-response","139","2.0.0","399476","64d50c4b3a44318d98f4f5b2","1","24","2920","","","","","","","","","<img src= ""rock_img/I_Diorite_13.jpg"" style=""width:8cm; height:6.29cm;""><p>What type of rock is this?</p>","0","class_response","1","train","18","Andesite","Diorite","13","false","1","3","",""
"","","","","","","","","","","","html-button-response","140","2.0.0","400796","64d50c4b3a44318d98f4f5b2","1","24","1319","","","","","","","","","<img src= rock_img/I_Diorite_13.jpg style=""width:8cm; height:6.29cm;""><p style='font-size: 30px; color: red;'><strong>Incorrect!</strong></p><p style='font-size: 30px;'><strong>This rock is diorite</strong></p>","0","corr_feedback","1","train","18","","","","","","","",""
"","","","","","","","","","","","html-button-response","141","2.0.0","404037","64d50c4b3a44318d98f4f5b2","1","24","3239","","","","","","","","","<img src= ""rock_img/I_Peridotite_04.jpg"" style=""width:8cm; height:6.680000000000001cm;""><p>What type of rock is this?</p>","1","class_response","1","train","19","Basalt","Peridotite","04","false","2","7","",""
"","","","","","","","","","","","html-button-response","142","2.0.0","405563","64d50c4b3a44318d98f4f5b2","1","24","1525","","","","","","","","","<img src= rock_img/I_Peridotite_04.jpg style=""width:8cm; height:6.680000000000001cm;""><p style='font-size: 30px; color: red;'><strong>Incorrect!</strong></p><p style='font-size: 30px;'><strong>This rock is peridotite</strong></p>","0","corr_feedback","1","train","19","","","","","","","",""
"","","","","","","","","","","","html-button-response","143","2.0.0","407707","64d50c4b3a44318d98f4f5b2","1","24","2143","","","","","","","","","<img src= ""rock_img/I_Pumice_15.jpg"" style=""width:8cm; height:7.86cm;""><p>What type of rock is this?</p>","7","class_response","1","train","20","Pumice","Pumice","15","true","8","8","",""
"","","","","","","","","","","","html-button-response","144","2.0.0","409130","64d50c4b3a44318d98f4f5b2","1","24","1422","","","","","","","","","<img src= rock_img/I_Pumice_15.jpg style=""width:8cm; height:7.86cm;""><p style='font-size: 30px; color: green;'><strong>Correct!</strong></p><p style='font-size: 30px;'><strong>This rock is pumice</strong></p>","0","corr_feedback","1","train","20","","","","","","","",""
"","","","","","","","","","","","html-button-response","145","2.0.0","410866","64d50c4b3a44318d98f4f5b2","1","24","1735","","","","","","","","","<img src= ""rock_img/I_Diorite_15.jpg"" style=""width:8cm; height:5.54cm;""><p>What type of rock is this?</p>","5","class_response","1","train","21","Pegmatite","Diorite","15","false","6","3","",""
"","","","","","","","","","","","html-button-response","146","2.0.0","412059","64d50c4b3a44318d98f4f5b2","1","24","1191","","","","","","","","","<img src= rock_img/I_Diorite_15.jpg style=""width:8cm; height:5.54cm;""><p style='font-size: 30px; color: red;'><strong>Incorrect!</strong></p><p style='font-size: 30px;'><strong>This rock is diorite</strong></p>","0","corr_feedback","1","train","21","","","","","","","",""
"","","","","","","","","","","","html-button-response","147","2.0.0","417761","64d50c4b3a44318d98f4f5b2","1","24","5701","","","","","","","","","<img src= ""rock_img/I_Gabbro_10.jpg"" style=""width:8cm; height:5.680000000000001cm;""><p>What type of rock is this?</p>","1","class_response","1","train","22","Basalt","Gabbro","10","false","2","4","",""
"","","","","","","","","","","","html-button-response","148","2.0.0","418970","64d50c4b3a44318d98f4f5b2","1","24","1208","","","","","","","","","<img src= rock_img/I_Gabbro_10.jpg style=""width:8cm; height:5.680000000000001cm;""><p style='font-size: 30px; color: red;'><strong>Incorrect!</strong></p><p style='font-size: 30px;'><strong>This rock is gabbro</strong></p>","0","corr_feedback","1","train","22","","","","","","","",""
"","","","","","","","","","","","html-button-response","149","2.0.0","421216","64d50c4b3a44318d98f4f5b2","1","24","2245","","","","","","","","","<img src= ""rock_img/I_Andesite_01.jpg"" style=""width:8cm; height:5.87cm;""><p>What type of rock is this?</p>","3","class_response","1","train","23","Gabbro","Andesite","01","false","4","1","",""
"","","","","","","","","","","","html-button-response","150","2.0.0","422433","64d50c4b3a44318d98f4f5b2","1","24","1215","","","","","","","","","<img src= rock_img/I_Andesite_01.jpg style=""width:8cm; height:5.87cm;""><p style='font-size: 30px; color: red;'><strong>Incorrect!</strong></p><p style='font-size: 30px;'><strong>This rock is andesite</strong></p>","0","corr_feedback","1","train","23","","","","","","","",""
"","","","","","","","","","","","html-button-response","151","2.0.0","424494","64d50c4b3a44318d98f4f5b2","1","24","2060","","","","","","","","","<img src= ""rock_img/I_Obsidian_11.jpg"" style=""width:8cm; height:6.05cm;""><p>What type of rock is this?</p>","4","class_response","1","train","24","Obsidian","Obsidian","11","true","5","5","",""
"","","","","","","","","","","","html-button-response","152","2.0.0","425370","64d50c4b3a44318d98f4f5b2","1","24","874","","","","","","","","","<img src= rock_img/I_Obsidian_11.jpg style=""width:8cm; height:6.05cm;""><p style='font-size: 30px; color: green;'><strong>Correct!</strong></p><p style='font-size: 30px;'><strong>This rock is obsidian</strong></p>","0","corr_feedback","1","train","24","","","","","","","",""
"","","","","","","","","","","","html-button-response","153","2.0.0","428409","64d50c4b3a44318d98f4f5b2","1","24","3038","","","","","","","","","<img src= ""rock_img/I_Basalt_02.jpg"" style=""width:8cm; height:6.45cm;""><p>What type of rock is this?</p>","1","class_response","1","train","25","Basalt","Basalt","02","true","2","2","",""
"","","","","","","","","","","","html-button-response","154","2.0.0","430477","64d50c4b3a44318d98f4f5b2","1","24","2067","","","","","","","","","<img src= rock_img/I_Basalt_02.jpg style=""width:8cm; height:6.45cm;""><p style='font-size: 30px; color: green;'><strong>Correct!</strong></p><p style='font-size: 30px;'><strong>This rock is basalt</strong></p>","0","corr_feedback","1","train","25","","","","","","","",""
"","","","","","","","","","","","html-button-response","155","2.0.0","432294","64d50c4b3a44318d98f4f5b2","1","24","1815","","","","","","","","","<img src= ""rock_img/I_Andesite_16.jpg"" style=""width:8cm; height:6.010000000000001cm;""><p>What type of rock is this?</p>","0","class_response","1","train","26","Andesite","Andesite","16","true","1","1","",""
"","","","","","","","","","","","html-button-response","156","2.0.0","434266","64d50c4b3a44318d98f4f5b2","1","24","1971","","","","","","","","","<img src= rock_img/I_Andesite_16.jpg style=""width:8cm; height:6.010000000000001cm;""><p style='font-size: 30px; color: green;'><strong>Correct!</strong></p><p style='font-size: 30px;'><strong>This rock is andesite</strong></p>","0","corr_feedback","1","train","26","","","","","","","",""
"","","","","","","","","","","","html-button-response","157","2.0.0","436698","64d50c4b3a44318d98f4f5b2","1","24","2430","","","","","","","","","<img src= ""rock_img/I_Gabbro_05.jpg"" style=""width:8cm; height:6cm;""><p>What type of rock is this?</p>","2","class_response","1","train","27","Diorite","Gabbro","05","false","3","4","",""
"","","","","","","","","","","","html-button-response","158","2.0.0","437818","64d50c4b3a44318d98f4f5b2","1","24","1118","","","","","","","","","<img src= rock_img/I_Gabbro_05.jpg style=""width:8cm; height:6cm;""><p style='font-size: 30px; color: red;'><strong>Incorrect!</strong></p><p style='font-size: 30px;'><strong>This rock is gabbro</strong></p>","0","corr_feedback","1","train","27","","","","","","","",""
"","","","","","","","","","","","html-button-response","159","2.0.0","440072","64d50c4b3a44318d98f4f5b2","1","24","2253","","","","","","","","","<img src= ""rock_img/I_Peridotite_12.jpg"" style=""width:8cm; height:4.54cm;""><p>What type of rock is this?</p>","3","class_response","1","train","28","Gabbro","Peridotite","12","false","4","7","",""
"","","","","","","","","","","","html-button-response","160","2.0.0","441332","64d50c4b3a44318d98f4f5b2","1","24","1259","","","","","","","","","<img src= rock_img/I_Peridotite_12.jpg style=""width:8cm; height:4.54cm;""><p style='font-size: 30px; color: red;'><strong>Incorrect!</strong></p><p style='font-size: 30px;'><strong>This rock is peridotite</strong></p>","0","corr_feedback","1","train","28","","","","","","","",""
"","","","","","","","","","","","html-button-response","161","2.0.0","447487","64d50c4b3a44318d98f4f5b2","1","24","6153","","","","","","","","","<img src= ""rock_img/I_Peridotite_05.jpg"" style=""width:8cm; height:7.1499999999999995cm;""><p>What type of rock is this?</p>","2","class_response","1","train","29","Diorite","Peridotite","05","false","3","7","",""
"","","","","","","","","","","","html-button-response","162","2.0.0","448436","64d50c4b3a44318d98f4f5b2","1","24","948","","","","","","","","","<img src= rock_img/I_Peridotite_05.jpg style=""width:8cm; height:7.1499999999999995cm;""><p style='font-size: 30px; color: red;'><strong>Incorrect!</strong></p><p style='font-size: 30px;'><strong>This rock is peridotite</strong></p>","0","corr_feedback","1","train","29","","","","","","","",""
"","","","","","","","","","","","html-button-response","163","2.0.0","450563","64d50c4b3a44318d98f4f5b2","1","24","2126","","","","","","","","","<img src= ""rock_img/I_Gabbro_12.jpg"" style=""width:8cm; height:7.800000000000001cm;""><p>What type of rock is this?</p>","5","class_response","1","train","30","Pegmatite","Gabbro","12","false","6","4","",""
"","","","","","","","","","","","html-button-response","164","2.0.0","452053","64d50c4b3a44318d98f4f5b2","1","24","1489","","","","","","","","","<img src= rock_img/I_Gabbro_12.jpg style=""width:8cm; height:7.800000000000001cm;""><p style='font-size: 30px; color: red;'><strong>Incorrect!</strong></p><p style='font-size: 30px;'><strong>This rock is gabbro</strong></p>","0","corr_feedback","1","train","30","","","","","","","",""
"","","","","","","","","","","","html-button-response","165","2.0.0","454033","64d50c4b3a44318d98f4f5b2","1","24","1978","","","","","","","","","<img src= ""rock_img/I_Andesite_09.jpg"" style=""width:8cm; height:6cm;""><p>What type of rock is this?</p>","1","class_response","1","train","31","Basalt","Andesite","09","false","2","1","",""
"","","","","","","","","","","","html-button-response","166","2.0.0","455448","64d50c4b3a44318d98f4f5b2","1","24","1414","","","","","","","","","<img src= rock_img/I_Andesite_09.jpg style=""width:8cm; height:6cm;""><p style='font-size: 30px; color: red;'><strong>Incorrect!</strong></p><p style='font-size: 30px;'><strong>This rock is andesite</strong></p>","0","corr_feedback","1","train","31","","","","","","","",""
"","","","","","","","","","","","html-button-response","167","2.0.0","460609","64d50c4b3a44318d98f4f5b2","1","24","5160","","","","","","","","","<img src= ""rock_img/I_Pegmatite_06.jpg"" style=""width:8cm; height:5.17cm;""><p>What type of rock is this?</p>","2","class_response","1","train","32","Diorite","Pegmatite","06","false","3","6","",""
"","","","","","","","","","","","html-button-response","168","2.0.0","461774","64d50c4b3a44318d98f4f5b2","1","24","1164","","","","","","","","","<img src= rock_img/I_Pegmatite_06.jpg style=""width:8cm; height:5.17cm;""><p style='font-size: 30px; color: red;'><strong>Incorrect!</strong></p><p style='font-size: 30px;'><strong>This rock is pegmatite</strong></p>","0","corr_feedback","1","train","32","","","","","","","",""
"","","","","","","","","","","","html-button-response","169","2.0.0","466118","64d50c4b3a44318d98f4f5b2","1","24","4342","","","","","","","","","<img src= ""rock_img/I_Pegmatite_13.jpg"" style=""width:8cm; height:4.95cm;""><p>What type of rock is this?</p>","6","class_response","1","train","33","Peridotite","Pegmatite","13","false","7","6","",""
"","","","","","","","","","","","html-button-response","170","2.0.0","466933","64d50c4b3a44318d98f4f5b2","1","24","814","","","","","","","","","<img src= rock_img/I_Pegmatite_13.jpg style=""width:8cm; height:4.95cm;""><p style='font-size: 30px; color: red;'><strong>Incorrect!</strong></p><p style='font-size: 30px;'><strong>This rock is pegmatite</strong></p>","0","corr_feedback","1","train","33","","","","","","","",""
"","","","","","","","","","","","html-button-response","171","2.0.0","472560","64d50c4b3a44318d98f4f5b2","1","24","5626","","","","","","","","","<img src= ""rock_img/I_Peridotite_16.jpg"" style=""width:8cm; height:6.989999999999999cm;""><p>What type of rock is this?</p>","2","class_response","1","train","34","Diorite","Peridotite","16","false","3","7","",""
"","","","","","","","","","","","html-button-response","172","2.0.0","473836","64d50c4b3a44318d98f4f5b2","1","24","1274","","","","","","","","","<img src= rock_img/I_Peridotite_16.jpg style=""width:8cm; height:6.989999999999999cm;""><p style='font-size: 30px; color: red;'><strong>Incorrect!</strong></p><p style='font-size: 30px;'><strong>This rock is peridotite</strong></p>","0","corr_feedback","1","train","34","","","","","","","",""
"","","","","","","","","","","","html-button-response","173","2.0.0","476186","64d50c4b3a44318d98f4f5b2","1","24","2349","","","","","","","","","<img src= ""rock_img/I_Diorite_06.jpg"" style=""width:8cm; height:6.03cm;""><p>What type of rock is this?</p>","0","class_response","1","train","35","Andesite","Diorite","06","false","1","3","",""
"","","","","","","","","","","","html-button-response","174","2.0.0","479737","64d50c4b3a44318d98f4f5b2","1","24","3549","","","","","","","","","<img src= rock_img/I_Diorite_06.jpg style=""width:8cm; height:6.03cm;""><p style='font-size: 30px; color: red;'><strong>Incorrect!</strong></p><p style='font-size: 30px;'><strong>This rock is diorite</strong></p>","0","corr_feedback","1","train","35","","","","","","","",""
"","","","","","","","","","","","html-button-response","175","2.0.0","483741","64d50c4b3a44318d98f4f5b2","1","24","4003","","","","","","","","","<img src= ""rock_img/I_Gabbro_09.jpg"" style=""width:8cm; height:7.279999999999999cm;""><p>What type of rock is this?</p>","1","class_response","1","train","36","Basalt","Gabbro","09","false","2","4","",""
"","","","","","","","","","","","html-button-response","176","2.0.0","484897","64d50c4b3a44318d98f4f5b2","1","24","1155","","","","","","","","","<img src= rock_img/I_Gabbro_09.jpg style=""width:8cm; height:7.279999999999999cm;""><p style='font-size: 30px; color: red;'><strong>Incorrect!</strong></p><p style='font-size: 30px;'><strong>This rock is gabbro</strong></p>","0","corr_feedback","1","train","36","","","","","","","",""
"","","","","","","","","","","","html-button-response","177","2.0.0","487218","64d50c4b3a44318d98f4f5b2","1","24","2320","","","","","","","","","<img src= ""rock_img/I_Gabbro_15.jpg"" style=""width:8cm; height:6.29cm;""><p>What type of rock is this?</p>","2","class_response","1","train","37","Diorite","Gabbro","15","false","3","4","",""
"","","","","","","","","","","","html-button-response","178","2.0.0","488315","64d50c4b3a44318d98f4f5b2","1","24","1096","","","","","","","","","<img src= rock_img/I_Gabbro_15.jpg style=""width:8cm; height:6.29cm;""><p style='font-size: 30px; color: red;'><strong>Incorrect!</strong></p><p style='font-size: 30px;'><strong>This rock is gabbro</strong></p>","0","corr_feedback","1","train","37","","","","","","","",""
"","","","","","","","","","","","html-button-response","179","2.0.0","490480","64d50c4b3a44318d98f4f5b2","1","24","2164","","","","","","","","","<img src= ""rock_img/I_Diorite_14.jpg"" style=""width:8cm; height:5.71cm;""><p>What type of rock is this?</p>","6","class_response","1","train","38","Peridotite","Diorite","14","false","7","3","",""
"","","","","","","","","","","","html-button-response","180","2.0.0","491837","64d50c4b3a44318d98f4f5b2","1","24","1355","","","","","","","","","<img src= rock_img/I_Diorite_14.jpg style=""width:8cm; height:5.71cm;""><p style='font-size: 30px; color: red;'><strong>Incorrect!</strong></p><p style='font-size: 30px;'><strong>This rock is diorite</strong></p>","0","corr_feedback","1","train","38","","","","","","","",""
"","","","","","","","","","","","html-button-response","181","2.0.0","493653","64d50c4b3a44318d98f4f5b2","1","24","1815","","","","","","","","","<img src= ""rock_img/I_Obsidian_09.jpg"" style=""width:8cm; height:5cm;""><p>What type of rock is this?</p>","4","class_response","1","train","39","Obsidian","Obsidian","09","true","5","5","",""
"","","","","","","","","","","","html-button-response","182","2.0.0","495588","64d50c4b3a44318d98f4f5b2","1","24","1934","","","","","","","","","<img src= rock_img/I_Obsidian_09.jpg style=""width:8cm; height:5cm;""><p style='font-size: 30px; color: green;'><strong>Correct!</strong></p><p style='font-size: 30px;'><strong>This rock is obsidian</strong></p>","0","corr_feedback","1","train","39","","","","","","","",""
"","","","","","","","","","","","html-button-response","183","2.0.0","498895","64d50c4b3a44318d98f4f5b2","1","24","3305","","","","","","","","","<img src= ""rock_img/I_Diorite_12.jpg"" style=""width:8cm; height:4.88cm;""><p>What type of rock is this?</p>","0","class_response","1","train","40","Andesite","Diorite","12","false","1","3","",""
"","","","","","","","","","","","html-button-response","184","2.0.0","500185","64d50c4b3a44318d98f4f5b2","1","24","1289","","","","","","","","","<img src= rock_img/I_Diorite_12.jpg style=""width:8cm; height:4.88cm;""><p style='font-size: 30px; color: red;'><strong>Incorrect!</strong></p><p style='font-size: 30px;'><strong>This rock is diorite</strong></p>","0","corr_feedback","1","train","40","","","","","","","",""
"","","","","","","","","","","","html-button-response","185","2.0.0","503477","64d50c4b3a44318d98f4f5b2","1","24","3291","","","","","","","","","<img src= ""rock_img/I_Obsidian_05.jpg"" style=""width:8cm; height:6.33cm;""><p>What type of rock is this?</p>","4","class_response","1","train","41","Obsidian","Obsidian","05","true","5","5","",""
"","","","","","","","","","","","html-button-response","186","2.0.0","504752","64d50c4b3a44318d98f4f5b2","1","24","1274","","","","","","","","","<img src= rock_img/I_Obsidian_05.jpg style=""width:8cm; height:6.33cm;""><p style='font-size: 30px; color: green;'><strong>Correct!</strong></p><p style='font-size: 30px;'><strong>This rock is obsidian</strong></p>","0","corr_feedback","1","train","41","","","","","","","",""
"","","","","","","","","","","","html-button-response","187","2.0.0","509208","64d50c4b3a44318d98f4f5b2","1","24","4455","","","","","","","","","<img src= ""rock_img/I_Peridotite_14.jpg"" style=""width:8cm; height:5.3cm;""><p>What type of rock is this?</p>","5","class_response","1","train","42","Pegmatite","Peridotite","14","false","6","7","",""
"","","","","","","","","","","","html-button-response","188","2.0.0","510387","64d50c4b3a44318d98f4f5b2","1","24","1178","","","","","","","","","<img src= rock_img/I_Peridotite_14.jpg style=""width:8cm; height:5.3cm;""><p style='font-size: 30px; color: red;'><strong>Incorrect!</strong></p><p style='font-size: 30px;'><strong>This rock is peridotite</strong></p>","0","corr_feedback","1","train","42","","","","","","","",""
"","","","","","","","","","","","html-button-response","189","2.0.0","512648","64d50c4b3a44318d98f4f5b2","1","24","2260","","","","","","","","","<img src= ""rock_img/I_Pumice_04.jpg"" style=""width:8cm; height:6.819999999999999cm;""><p>What type of rock is this?</p>","7","class_response","1","train","43","Pumice","Pumice","04","true","8","8","",""
"","","","","","","","","","","","html-button-response","190","2.0.0","513634","64d50c4b3a44318d98f4f5b2","1","24","984","","","","","","","","","<img src= rock_img/I_Pumice_04.jpg style=""width:8cm; height:6.819999999999999cm;""><p style='font-size: 30px; color: green;'><strong>Correct!</strong></p><p style='font-size: 30px;'><strong>This rock is pumice</strong></p>","0","corr_feedback","1","train","43","","","","","","","",""
"","","","","","","","","","","","html-button-response","191","2.0.0","515265","64d50c4b3a44318d98f4f5b2","1","24","1630","","","","","","","","","<img src= ""rock_img/I_Pumice_02.jpg"" style=""width:8cm; height:7.3999999999999995cm;""><p>What type of rock is this?</p>","7","class_response","1","train","44","Pumice","Pumice","02","true","8","8","",""
"","","","","","","","","","","","html-button-response","192","2.0.0","516348","64d50c4b3a44318d98f4f5b2","1","24","1081","","","","","","","","","<img src= rock_img/I_Pumice_02.jpg style=""width:8cm; height:7.3999999999999995cm;""><p style='font-size: 30px; color: green;'><strong>Correct!</strong></p><p style='font-size: 30px;'><strong>This rock is pumice</strong></p>","0","corr_feedback","1","train","44","","","","","","","",""
"","","","","","","","","","","","html-button-response","193","2.0.0","518164","64d50c4b3a44318d98f4f5b2","1","24","1815","","","","","","","","","<img src= ""rock_img/I_Obsidian_16.jpg"" style=""width:8cm; height:9.3cm;""><p>What type of rock is this?</p>","4","class_response","1","train","45","Obsidian","Obsidian","16","true","5","5","",""
"","","","","","","","","","","","html-button-response","194","2.0.0","519276","64d50c4b3a44318d98f4f5b2","1","24","1111","","","","","","","","","<img src= rock_img/I_Obsidian_16.jpg style=""width:8cm; height:9.3cm;""><p style='font-size: 30px; color: green;'><strong>Correct!</strong></p><p style='font-size: 30px;'><strong>This rock is obsidian</strong></p>","0","corr_feedback","1","train","45","","","","","","","",""
"","","","","","","","","","","","html-button-response","195","2.0.0","521967","64d50c4b3a44318d98f4f5b2","1","24","2690","","","","","","","","","<img src= ""rock_img/I_Pegmatite_09.jpg"" style=""width:8cm; height:4.03cm;""><p>What type of rock is this?</p>","2","class_response","1","train","46","Diorite","Pegmatite","09","false","3","6","",""
"","","","","","","","","","","","html-button-response","196","2.0.0","523109","64d50c4b3a44318d98f4f5b2","1","24","1140","","","","","","","","","<img src= rock_img/I_Pegmatite_09.jpg style=""width:8cm; height:4.03cm;""><p style='font-size: 30px; color: red;'><strong>Incorrect!</strong></p><p style='font-size: 30px;'><strong>This rock is pegmatite</strong></p>","0","corr_feedback","1","train","46","","","","","","","",""
"","","","","","","","","","","","html-button-response","197","2.0.0","525230","64d50c4b3a44318d98f4f5b2","1","24","2119","","","","","","","","","<img src= ""rock_img/I_Obsidian_10.jpg"" style=""width:8cm; height:6.260000000000001cm;""><p>What type of rock is this?</p>","4","class_response","1","train","47","Obsidian","Obsidian","10","true","5","5","",""
"","","","","","","","","","","","html-button-response","198","2.0.0","526215","64d50c4b3a44318d98f4f5b2","1","24","985","","","","","","","","","<img src= rock_img/I_Obsidian_10.jpg style=""width:8cm; height:6.260000000000001cm;""><p style='font-size: 30px; color: green;'><strong>Correct!</strong></p><p style='font-size: 30px;'><strong>This rock is obsidian</strong></p>","0","corr_feedback","1","train","47","","","","","","","",""
"","","","","","","","","","","","html-button-response","199","2.0.0","528462","64d50c4b3a44318d98f4f5b2","1","24","2245","","","","","","","","","<img src= ""rock_img/I_Basalt_09.jpg"" style=""width:8cm; height:6.2cm;""><p>What type of rock is this?</p>","1","class_response","1","train","48","Basalt","Basalt","09","true","2","2","",""
"","","","","","","","","","","","html-button-response","200","2.0.0","529544","64d50c4b3a44318d98f4f5b2","1","24","1081","","","","","","","","","<img src= rock_img/I_Basalt_09.jpg style=""width:8cm; height:6.2cm;""><p style='font-size: 30px; color: green;'><strong>Correct!</strong></p><p style='font-size: 30px;'><strong>This rock is basalt</strong></p>","0","corr_feedback","1","train","48","","","","","","","",""
"","","","","","","","","","","","instructions","203","2.0.0","541043","64d50c4b3a44318d98f4f5b2","1","24","11497","","","","","","","","[{""page_index"":0,""viewing_time"":8687},{""page_index"":1,""viewing_time"":2810}]","","","","","","","","","","","","","",""
"","","","","","","","","","","","html-button-response","204","2.0.0","543141","64d50c4b3a44318d98f4f5b2","1","24","2097","","","","","","","","","","0","start_test","","","","","","","","","","",""
"","","","","","","","","","","","html-button-response","205","2.0.0","545432","64d50c4b3a44318d98f4f5b2","1","24","2289","","","","","","","","","<img src= ""rock_img/I_Pumice_10.jpg"" style=""width:8cm; height:7.609999999999999cm;""><p>What type of rock is this?</p>","7","class_response","1","test","1","Pumice","Pumice","10","true","8","8","",""
"","","","","","","","","","","","html-keyboard-response","206","2.0.0","545939","64d50c4b3a44318d98f4f5b2","1","24","null","","","","","","","","","<p style='font-size: 30px;'><strong>Okay</strong></p>","null","neutral_feedback","1","test","1","","","","","","","",""
"","","","","","","","","","","","html-button-response","207","2.0.0","548746","64d50c4b3a44318d98f4f5b2","1","24","2806","","","","","","","","","<img src= ""rock_img/I_Pegmatite_16.jpg"" style=""width:8cm; height:5.8cm;""><p>What type of rock is this?</p>","2","class_response","1","test","2","Diorite","Pegmatite","16","false","3","6","",""
"","","","","","","","","","","","html-keyboard-response","208","2.0.0","549257","64d50c4b3a44318d98f4f5b2","1","24","null","","","","","","","","","<p style='font-size: 30px;'><strong>Okay</strong></p>","null","neutral_feedback","1","test","2","","","","","","","",""
"","","","","","","","","","","","html-button-response","209","2.0.0","551801","64d50c4b3a44318d98f4f5b2","1","24","2542","","","","","","","","","<img src= ""rock_img/I_Pumice_16.jpg"" style=""width:8cm; height:6.79cm;""><p>What type of rock is this?</p>","7","class_response","1","test","3","Pumice","Pumice","16","true","8","8","",""
"","","","","","","","","","","","html-keyboard-response","210","2.0.0","552307","64d50c4b3a44318d98f4f5b2","1","24","null","","","","","","","","","<p style='font-size: 30px;'><strong>Okay</strong></p>","null","neutral_feedback","1","test","3","","","","","","","",""
"","","","","","","","","","","","html-button-response","211","2.0.0","555108","64d50c4b3a44318d98f4f5b2","1","24","2800","","","","","","","","","<img src= ""rock_img/I_Peridotite_08.jpg"" style=""width:8cm; height:6.7cm;""><p>What type of rock is this?</p>","0","class_response","1","test","4","Andesite","Peridotite","08","false","1","7","",""
"","","","","","","","","","","","html-keyboard-response","212","2.0.0","555609","64d50c4b3a44318d98f4f5b2","1","24","null","","","","","","","","","<p style='font-size: 30px;'><strong>Okay</strong></p>","null","neutral_feedback","1","test","4","","","","","","","",""
"","","","","","","","","","","","html-button-response","213","2.0.0","557466","64d50c4b3a44318d98f4f5b2","1","24","1855","","","","","","","","","<img src= ""rock_img/I_Andesite_06.jpg"" style=""width:8cm; height:6.840000000000001cm;""><p>What type of rock is this?</p>","0","class_response","1","test","5","Andesite","Andesite","06","true","1","1","",""
"","","","","","","","","","","","html-keyboard-response","214","2.0.0","557982","64d50c4b3a44318d98f4f5b2","1","24","null","","","","","","","","","<p style='font-size: 30px;'><strong>Okay</strong></p>","null","neutral_feedback","1","test","5","","","","","","","",""
"","","","","","","","","","","","html-button-response","215","2.0.0","560943","64d50c4b3a44318d98f4f5b2","1","24","2959","","","","","","","","","<img src= ""rock_img/I_Pumice_08.jpg"" style=""width:8cm; height:6.67cm;""><p>What type of rock is this?</p>","7","class_response","1","test","6","Pumice","Pumice","08","true","8","8","",""
"","","","","","","","","","","","html-keyboard-response","216","2.0.0","561444","64d50c4b3a44318d98f4f5b2","1","24","null","","","","","","","","","<p style='font-size: 30px;'><strong>Okay</strong></p>","null","neutral_feedback","1","test","6","","","","","","","",""
"","","","","","","","","","","","html-button-response","217","2.0.0","567372","64d50c4b3a44318d98f4f5b2","1","24","5926","","","","","","","","","<img src= ""rock_img/I_Gabbro_13.jpg"" style=""width:8cm; height:5.08cm;""><p>What type of rock is this?</p>","5","class_response","1","test","7","Pegmatite","Gabbro","13","false","6","4","",""
"","","","","","","","","","","","html-keyboard-response","218","2.0.0","567887","64d50c4b3a44318d98f4f5b2","1","24","null","","","","","","","","","<p style='font-size: 30px;'><strong>Okay</strong></p>","null","neutral_feedback","1","test","7","","","","","","","",""
"","","","","","","","","","","","html-button-response","219","2.0.0","570960","64d50c4b3a44318d98f4f5b2","1","24","3071","","","","","","","","","<img src= ""rock_img/I_Andesite_07.jpg"" style=""width:8cm; height:5.93cm;""><p>What type of rock is this?</p>","0","class_response","1","test","8","Andesite","Andesite","07","true","1","1","",""
"","","","","","","","","","","","html-keyboard-response","220","2.0.0","571466","64d50c4b3a44318d98f4f5b2","1","24","null","","","","","","","","","<p style='font-size: 30px;'><strong>Okay</strong></p>","null","neutral_feedback","1","test","8","","","","","","","",""
"","","","","","","","","","","","html-button-response","221","2.0.0","573318","64d50c4b3a44318d98f4f5b2","1","24","1850","","","","","","","","","<img src= ""rock_img/I_Peridotite_07.jpg"" style=""width:8cm; height:4.83cm;""><p>What type of rock is this?</p>","7","class_response","1","test","9","Pumice","Peridotite","07","false","8","7","",""
"","","","","","","","","","","","html-keyboard-response","222","2.0.0","573832","64d50c4b3a44318d98f4f5b2","1","24","null","","","","","","","","","<p style='font-size: 30px;'><strong>Okay</strong></p>","null","neutral_feedback","1","test","9","","","","","","","",""
"","","","","","","","","","","","html-button-response","223","2.0.0","575594","64d50c4b3a44318d98f4f5b2","1","24","1760","","","","","","","","","<img src= ""rock_img/I_Andesite_10.jpg"" style=""width:8cm; height:4.16cm;""><p>What type of rock is this?</p>","3","class_response","1","test","10","Gabbro","Andesite","10","false","4","1","",""
"","","","","","","","","","","","html-keyboard-response","224","2.0.0","576101","64d50c4b3a44318d98f4f5b2","1","24","null","","","","","","","","","<p style='font-size: 30px;'><strong>Okay</strong></p>","null","neutral_feedback","1","test","10","","","","","","","",""
"","","","","","","","","","","","html-button-response","225","2.0.0","579353","64d50c4b3a44318d98f4f5b2","1","24","3251","","","","","","","","","<img src= ""rock_img/I_Pegmatite_05.jpg"" style=""width:8cm; height:7.300000000000001cm;""><p>What type of rock is this?</p>","7","class_response","1","test","11","Pumice","Pegmatite","05","false","8","6","",""
"","","","","","","","","","","","html-keyboard-response","226","2.0.0","579855","64d50c4b3a44318d98f4f5b2","1","24","null","","","","","","","","","<p style='font-size: 30px;'><strong>Okay</strong></p>","null","neutral_feedback","1","test","11","","","","","","","",""
"","","","","","","","","","","","html-button-response","227","2.0.0","581540","64d50c4b3a44318d98f4f5b2","1","24","1684","","","","","","","","","<img src= ""rock_img/I_Gabbro_11.jpg"" style=""width:8cm; height:6.2cm;""><p>What type of rock is this?</p>","3","class_response","1","test","12","Gabbro","Gabbro","11","true","4","4","",""
"","","","","","","","","","","","html-keyboard-response","228","2.0.0","582052","64d50c4b3a44318d98f4f5b2","1","24","null","","","","","","","","","<p style='font-size: 30px;'><strong>Okay</strong></p>","null","neutral_feedback","1","test","12","","","","","","","",""
"","","","","","","","","","","","html-button-response","229","2.0.0","583705","64d50c4b3a44318d98f4f5b2","1","24","1652","","","","","","","","","<img src= ""rock_img/I_Obsidian_14.jpg"" style=""width:8cm; height:7.64cm;""><p>What type of rock is this?</p>","4","class_response","1","test","13","Obsidian","Obsidian","14","true","5","5","",""
"","","","","","","","","","","","html-keyboard-response","230","2.0.0","584219","64d50c4b3a44318d98f4f5b2","1","24","null","","","","","","","","","<p style='font-size: 30px;'><strong>Okay</strong></p>","null","neutral_feedback","1","test","13","","","","","","","",""
"","","","","","","","","","","","html-button-response","231","2.0.0","588791","64d50c4b3a44318d98f4f5b2","1","24","4570","","","","","","","","","<img src= ""rock_img/I_Andesite_14.jpg"" style=""width:8cm; height:5.449999999999999cm;""><p>What type of rock is this?</p>","2","class_response","1","test","14","Diorite","Andesite","14","false","3","1","",""
"","","","","","","","","","","","html-keyboard-response","232","2.0.0","589304","64d50c4b3a44318d98f4f5b2","1","24","null","","","","","","","","","<p style='font-size: 30px;'><strong>Okay</strong></p>","null","neutral_feedback","1","test","14","","","","","","","",""
"","","","","","","","","","","","html-button-response","233","2.0.0","591240","64d50c4b3a44318d98f4f5b2","1","24","1934","","","","","","","","","<img src= ""rock_img/I_Obsidian_12.jpg"" style=""width:8cm; height:6.53cm;""><p>What type of rock is this?</p>","4","class_response","1","test","15","Obsidian","Obsidian","12","true","5","5","",""
"","","","","","","","","","","","html-keyboard-response","234","2.0.0","591744","64d50c4b3a44318d98f4f5b2","1","24","null","","","","","","","","","<p style='font-size: 30px;'><strong>Okay</strong></p>","null","neutral_feedback","1","test","15","","","","","","","",""
"","","","","","","","","","","","html-button-response","235","2.0.0","593767","64d50c4b3a44318d98f4f5b2","1","24","2020","","","","","","","","","<img src= ""rock_img/I_Diorite_11.jpg"" style=""width:8cm; height:7.11cm;""><p>What type of rock is this?</p>","3","class_response","1","test","16","Gabbro","Diorite","11","false","4","3","",""
"","","","","","","","","","","","html-keyboard-response","236","2.0.0","594280","64d50c4b3a44318d98f4f5b2","1","24","null","","","","","","","","","<p style='font-size: 30px;'><strong>Okay</strong></p>","null","neutral_feedback","1","test","16","","","","","","","",""
"","","","","","","","","","","","html-button-response","237","2.0.0","596072","64d50c4b3a44318d98f4f5b2","1","24","1791","","","","","","","","","<img src= ""rock_img/I_Obsidian_07.jpg"" style=""width:8cm; height:4.76cm;""><p>What type of rock is this?</p>","4","class_response","1","test","17","Obsidian","Obsidian","07","true","5","5","",""
"","","","","","","","","","","","html-keyboard-response","238","2.0.0","596589","64d50c4b3a44318d98f4f5b2","1","24","null","","","","","","","","","<p style='font-size: 30px;'><strong>Okay</strong></p>","null","neutral_feedback","1","test","17","","","","","","","",""
"","","","","","","","","","","","html-button-response","239","2.0.0","598853","64d50c4b3a44318d98f4f5b2","1","24","2262","","","","","","","","","<img src= ""rock_img/I_Basalt_04.jpg"" style=""width:8cm; height:7.53cm;""><p>What type of rock is this?</p>","4","class_response","1","test","18","Obsidian","Basalt","04","false","5","2","",""
"","","","","","","","","","","","html-keyboard-response","240","2.0.0","599359","64d50c4b3a44318d98f4f5b2","1","24","null","","","","","","","","","<p style='font-size: 30px;'><strong>Okay</strong></p>","null","neutral_feedback","1","test","18","","","","","","","",""
"","","","","","","","","","","","html-button-response","241","2.0.0","600936","64d50c4b3a44318d98f4f5b2","1","24","1575","","","","","","","","","<img src= ""rock_img/I_Basalt_08.jpg"" style=""width:8cm; height:10.44cm;""><p>What type of rock is this?</p>","1","class_response","1","test","19","Basalt","Basalt","08","true","2","2","",""
"","","","","","","","","","","","html-keyboard-response","242","2.0.0","601443","64d50c4b3a44318d98f4f5b2","1","24","null","","","","","","","","","<p style='font-size: 30px;'><strong>Okay</strong></p>","null","neutral_feedback","1","test","19","","","","","","","",""
"","","","","","","","","","","","html-button-response","243","2.0.0","603650","64d50c4b3a44318d98f4f5b2","1","24","2204","","","","","","","","","<img src= ""rock_img/I_Gabbro_03.jpg"" style=""width:8cm; height:8.52cm;""><p>What type of rock is this?</p>","3","class_response","1","test","20","Gabbro","Gabbro","03","true","4","4","",""
"","","","","","","","","","","","html-keyboard-response","244","2.0.0","604160","64d50c4b3a44318d98f4f5b2","1","24","null","","","","","","","","","<p style='font-size: 30px;'><strong>Okay</strong></p>","null","neutral_feedback","1","test","20","","","","","","","",""
"","","","","","","","","","","","html-button-response","245","2.0.0","606259","64d50c4b3a44318d98f4f5b2","1","24","2098","","","","","","","","","<img src= ""rock_img/I_Pegmatite_03.jpg"" style=""width:8cm; height:5.239999999999999cm;""><p>What type of rock is this?</p>","6","class_response","1","test","21","Peridotite","Pegmatite","03","false","7","6","",""
"","","","","","","","","","","","html-keyboard-response","246","2.0.0","606762","64d50c4b3a44318d98f4f5b2","1","24","null","","","","","","","","","<p style='font-size: 30px;'><strong>Okay</strong></p>","null","neutral_feedback","1","test","21","","","","","","","",""
"","","","","","","","","","","","html-button-response","247","2.0.0","609685","64d50c4b3a44318d98f4f5b2","1","24","2921","","","","","","","","","<img src= ""rock_img/I_Andesite_04.jpg"" style=""width:8cm; height:5.96cm;""><p>What type of rock is this?</p>","3","class_response","1","test","22","Gabbro","Andesite","04","false","4","1","",""
"","","","","","","","","","","","html-keyboard-response","248","2.0.0","610196","64d50c4b3a44318d98f4f5b2","1","24","null","","","","","","","","","<p style='font-size: 30px;'><strong>Okay</strong></p>","null","neutral_feedback","1","test","22","","","","","","","",""
"","","","","","","","","","","","html-button-response","249","2.0.0","611827","64d50c4b3a44318d98f4f5b2","1","24","1630","","","","","","","","","<img src= ""rock_img/I_Obsidian_02.jpg"" style=""width:8cm; height:7.51cm;""><p>What type of rock is this?</p>","4","class_response","1","test","23","Obsidian","Obsidian","02","true","5","5","",""
"","","","","","","","","","","","html-keyboard-response","250","2.0.0","612331","64d50c4b3a44318d98f4f5b2","1","24","null","","","","","","","","","<p style='font-size: 30px;'><strong>Okay</strong></p>","null","neutral_feedback","1","test","23","","","","","","","",""
"","","","","","","","","","","","html-button-response","251","2.0.0","614497","64d50c4b3a44318d98f4f5b2","1","24","2164","","","","","","","","","<img src= ""rock_img/I_Basalt_10.jpg"" style=""width:8cm; height:5.85cm;""><p>What type of rock is this?</p>","5","class_response","1","test","24","Pegmatite","Basalt","10","false","6","2","",""
"","","","","","","","","","","","html-keyboard-response","252","2.0.0","614999","64d50c4b3a44318d98f4f5b2","1","24","null","","","","","","","","","<p style='font-size: 30px;'><strong>Okay</strong></p>","null","neutral_feedback","1","test","24","","","","","","","",""
"","","","","","","","","","","","html-button-response","253","2.0.0","617374","64d50c4b3a44318d98f4f5b2","1","24","2373","","","","","","","","","<img src= ""rock_img/I_Peridotite_15.jpg"" style=""width:8cm; height:6cm;""><p>What type of rock is this?</p>","6","class_response","1","test","25","Peridotite","Peridotite","15","true","7","7","",""
"","","","","","","","","","","","html-keyboard-response","254","2.0.0","617883","64d50c4b3a44318d98f4f5b2","1","24","null","","","","","","","","","<p style='font-size: 30px;'><strong>Okay</strong></p>","null","neutral_feedback","1","test","25","","","","","","","",""
"","","","","","","","","","","","html-button-response","255","2.0.0","619427","64d50c4b3a44318d98f4f5b2","1","24","1543","","","","","","","","","<img src= ""rock_img/I_Basalt_06.jpg"" style=""width:8cm; height:7.06cm;""><p>What type of rock is this?</p>","1","class_response","1","test","26","Basalt","Basalt","06","true","2","2","",""
"","","","","","","","","","","","html-keyboard-response","256","2.0.0","619934","64d50c4b3a44318d98f4f5b2","1","24","null","","","","","","","","","<p style='font-size: 30px;'><strong>Okay</strong></p>","null","neutral_feedback","1","test","26","","","","","","","",""
"","","","","","","","","","","","html-button-response","257","2.0.0","621726","64d50c4b3a44318d98f4f5b2","1","24","1790","","","","","","","","","<img src= ""rock_img/I_Pumice_14.jpg"" style=""width:8cm; height:6.39cm;""><p>What type of rock is this?</p>","7","class_response","1","test","27","Pumice","Pumice","14","true","8","8","",""
"","","","","","","","","","","","html-keyboard-response","258","2.0.0","622240","64d50c4b3a44318d98f4f5b2","1","24","null","","","","","","","","","<p style='font-size: 30px;'><strong>Okay</strong></p>","null","neutral_feedback","1","test","27","","","","","","","",""
"","","","","","","","","","","","html-button-response","259","2.0.0","624247","64d50c4b3a44318d98f4f5b2","1","24","2006","","","","","","","","","<img src= ""rock_img/I_Gabbro_08.jpg"" style=""width:8cm; height:5.15cm;""><p>What type of rock is this?</p>","3","class_response","1","test","28","Gabbro","Gabbro","08","true","4","4","",""
"","","","","","","","","","","","html-keyboard-response","260","2.0.0","624761","64d50c4b3a44318d98f4f5b2","1","24","null","","","","","","","","","<p style='font-size: 30px;'><strong>Okay</strong></p>","null","neutral_feedback","1","test","28","","","","","","","",""
"","","","","","","","","","","","html-button-response","261","2.0.0","626397","64d50c4b3a44318d98f4f5b2","1","24","1635","","","","","","","","","<img src= ""rock_img/I_Andesite_11.jpg"" style=""width:8cm; height:4.92cm;""><p>What type of rock is this?</p>","2","class_response","1","test","29","Diorite","Andesite","11","false","3","1","",""
"","","","","","","","","","","","html-keyboard-response","262","2.0.0","626912","64d50c4b3a44318d98f4f5b2","1","24","null","","","","","","","","","<p style='font-size: 30px;'><strong>Okay</strong></p>","null","neutral_feedback","1","test","29","","","","","","","",""
"","","","","","","","","","","","html-button-response","263","2.0.0","629445","64d50c4b3a44318d98f4f5b2","1","24","2530","","","","","","","","","<img src= ""rock_img/I_Basalt_12.jpg"" style=""width:8cm; height:6.010000000000001cm;""><p>What type of rock is this?</p>","2","class_response","1","test","30","Diorite","Basalt","12","false","3","2","",""
"","","","","","","","","","","","html-keyboard-response","264","2.0.0","629959","64d50c4b3a44318d98f4f5b2","1","24","null","","","","","","","","","<p style='font-size: 30px;'><strong>Okay</strong></p>","null","neutral_feedback","1","test","30","","","","","","","",""
"","","","","","","","","","","","html-button-response","265","2.0.0","633256","64d50c4b3a44318d98f4f5b2","1","24","3295","","","","","","","","","<img src= ""rock_img/I_Pegmatite_07.jpg"" style=""width:8cm; height:6.7cm;""><p>What type of rock is this?</p>","6","class_response","1","test","31","Peridotite","Pegmatite","07","false","7","6","",""
"","","","","","","","","","","","html-keyboard-response","266","2.0.0","633771","64d50c4b3a44318d98f4f5b2","1","24","null","","","","","","","","","<p style='font-size: 30px;'><strong>Okay</strong></p>","null","neutral_feedback","1","test","31","","","","","","","",""
"","","","","","","","","","","","html-button-response","267","2.0.0","637876","64d50c4b3a44318d98f4f5b2","1","24","4102","","","","","","","","","<img src= ""rock_img/I_Basalt_16.jpg"" style=""width:8cm; height:7.659999999999999cm;""><p>What type of rock is this?</p>","1","class_response","1","test","32","Basalt","Basalt","16","true","2","2","",""
"","","","","","","","","","","","html-keyboard-response","268","2.0.0","638390","64d50c4b3a44318d98f4f5b2","1","24","null","","","","","","","","","<p style='font-size: 30px;'><strong>Okay</strong></p>","null","neutral_feedback","1","test","32","","","","","","","",""
"","","","","","","","","","","","html-button-response","269","2.0.0","640515","64d50c4b3a44318d98f4f5b2","1","24","2123","","","","","","","","","<img src= ""rock_img/I_Diorite_10.jpg"" style=""width:8cm; height:5.949999999999999cm;""><p>What type of rock is this?</p>","0","class_response","1","test","33","Andesite","Diorite","10","false","1","3","",""
"","","","","","","","","","","","html-keyboard-response","270","2.0.0","641020","64d50c4b3a44318d98f4f5b2","1","24","null","","","","","","","","","<p style='font-size: 30px;'><strong>Okay</strong></p>","null","neutral_feedback","1","test","33","","","","","","","",""
"","","","","","","","","","","","html-button-response","271","2.0.0","645023","64d50c4b3a44318d98f4f5b2","1","24","4001","","","","","","","","","<img src= ""rock_img/I_Diorite_16.jpg"" style=""width:8cm; height:6.74cm;""><p>What type of rock is this?</p>","5","class_response","1","test","34","Pegmatite","Diorite","16","false","6","3","",""
"","","","","","","","","","","","html-keyboard-response","272","2.0.0","645528","64d50c4b3a44318d98f4f5b2","1","24","null","","","","","","","","","<p style='font-size: 30px;'><strong>Okay</strong></p>","null","neutral_feedback","1","test","34","","","","","","","",""
"","","","","","","","","","","","html-button-response","273","2.0.0","647418","64d50c4b3a44318d98f4f5b2","1","24","1888","","","","","","","","","<img src= ""rock_img/I_Pegmatite_10.jpg"" style=""width:8cm; height:4.16cm;""><p>What type of rock is this?</p>","6","class_response","1","test","35","Peridotite","Pegmatite","10","false","7","6","",""
"","","","","","","","","","","","html-keyboard-response","274","2.0.0","647927","64d50c4b3a44318d98f4f5b2","1","24","null","","","","","","","","","<p style='font-size: 30px;'><strong>Okay</strong></p>","null","neutral_feedback","1","test","35","","","","","","","",""
"","","","","","","","","","","","html-button-response","275","2.0.0","650250","64d50c4b3a44318d98f4f5b2","1","24","2321","","","","","","","","","<img src= ""rock_img/I_Peridotite_02.jpg"" style=""width:8cm; height:5.859999999999999cm;""><p>What type of rock is this?</p>","7","class_response","1","test","36","Pumice","Peridotite","02","false","8","7","",""
"","","","","","","","","","","","html-keyboard-response","276","2.0.0","650772","64d50c4b3a44318d98f4f5b2","1","24","null","","","","","","","","","<p style='font-size: 30px;'><strong>Okay</strong></p>","null","neutral_feedback","1","test","36","","","","","","","",""
"","","","","","","","","","","","html-button-response","277","2.0.0","651763","64d50c4b3a44318d98f4f5b2","1","24","989","","","","","","","","","<img src= ""rock_img/I_Pumice_03.jpg"" style=""width:8cm; height:6.64cm;""><p>What type of rock is this?</p>","7","class_response","1","test","37","Pumice","Pumice","03","true","8","8","",""
"","","","","","","","","","","","html-keyboard-response","278","2.0.0","652279","64d50c4b3a44318d98f4f5b2","1","24","null","","","","","","","","","<p style='font-size: 30px;'><strong>Okay</strong></p>","null","neutral_feedback","1","test","37","","","","","","","",""
"","","","","","","","","","","","html-button-response","279","2.0.0","656063","64d50c4b3a44318d98f4f5b2","1","24","3782","","","","","","","","","<img src= ""rock_img/I_Peridotite_13.jpg"" style=""width:8cm; height:7.58cm;""><p>What type of rock is this?</p>","3","class_response","1","test","38","Gabbro","Peridotite","13","false","4","7","",""
"","","","","","","","","","","","html-keyboard-response","280","2.0.0","656573","64d50c4b3a44318d98f4f5b2","1","24","null","","","","","","","","","<p style='font-size: 30px;'><strong>Okay</strong></p>","null","neutral_feedback","1","test","38","","","","","","","",""
"","","","","","","","","","","","html-button-response","281","2.0.0","659815","64d50c4b3a44318d98f4f5b2","1","24","3241","","","","","","","","","<img src= ""rock_img/I_Diorite_07.jpg"" style=""width:8cm; height:5.239999999999999cm;""><p>What type of rock is this?</p>","2","class_response","1","test","39","Diorite","Diorite","07","true","3","3","",""
"","","","","","","","","","","","html-keyboard-response","282","2.0.0","660327","64d50c4b3a44318d98f4f5b2","1","24","null","","","","","","","","","<p style='font-size: 30px;'><strong>Okay</strong></p>","null","neutral_feedback","1","test","39","","","","","","","",""
"","","","","","","","","","","","html-button-response","283","2.0.0","663196","64d50c4b3a44318d98f4f5b2","1","24","2867","","","","","","","","","<img src= ""rock_img/I_Peridotite_06.jpg"" style=""width:8cm; height:7.53cm;""><p>What type of rock is this?</p>","3","class_response","1","test","40","Gabbro","Peridotite","06","false","4","7","",""
"","","","","","","","","","","","html-keyboard-response","284","2.0.0","663705","64d50c4b3a44318d98f4f5b2","1","24","null","","","","","","","","","<p style='font-size: 30px;'><strong>Okay</strong></p>","null","neutral_feedback","1","test","40","","","","","","","",""
"","","","","","","","","","","","html-button-response","285","2.0.0","665257","64d50c4b3a44318d98f4f5b2","1","24","1551","","","","","","","","","<img src= ""rock_img/I_Obsidian_06.jpg"" style=""width:8cm; height:6.8cm;""><p>What type of rock is this?</p>","4","class_response","1","test","41","Obsidian","Obsidian","06","true","5","5","",""
"","","","","","","","","","","","html-keyboard-response","286","2.0.0","665767","64d50c4b3a44318d98f4f5b2","1","24","null","","","","","","","","","<p style='font-size: 30px;'><strong>Okay</strong></p>","null","neutral_feedback","1","test","41","","","","","","","",""
"","","","","","","","","","","","html-button-response","287","2.0.0","669662","64d50c4b3a44318d98f4f5b2","1","24","3893","","","","","","","","","<img src= ""rock_img/I_Gabbro_14.jpg"" style=""width:8cm; height:8.48cm;""><p>What type of rock is this?</p>","0","class_response","1","test","42","Andesite","Gabbro","14","false","1","4","",""
"","","","","","","","","","","","html-keyboard-response","288","2.0.0","670164","64d50c4b3a44318d98f4f5b2","1","24","null","","","","","","","","","<p style='font-size: 30px;'><strong>Okay</strong></p>","null","neutral_feedback","1","test","42","","","","","","","",""
"","","","","","","","","","","","html-button-response","289","2.0.0","671939","64d50c4b3a44318d98f4f5b2","1","24","1773","","","","","","","","","<img src= ""rock_img/I_Pumice_09.jpg"" style=""width:8cm; height:6.44cm;""><p>What type of rock is this?</p>","7","class_response","1","test","43","Pumice","Pumice","09","true","8","8","",""
"","","","","","","","","","","","html-keyboard-response","290","2.0.0","672453","64d50c4b3a44318d98f4f5b2","1","24","null","","","","","","","","","<p style='font-size: 30px;'><strong>Okay</strong></p>","null","neutral_feedback","1","test","43","","","","","","","",""
"","","","","","","","","","","","html-button-response","291","2.0.0","674674","64d50c4b3a44318d98f4f5b2","1","24","2220","","","","","","","","","<img src= ""rock_img/I_Gabbro_01.jpg"" style=""width:8cm; height:5.21cm;""><p>What type of rock is this?</p>","0","class_response","1","test","44","Andesite","Gabbro","01","false","1","4","",""
"","","","","","","","","","","","html-keyboard-response","292","2.0.0","675176","64d50c4b3a44318d98f4f5b2","1","24","null","","","","","","","","","<p style='font-size: 30px;'><strong>Okay</strong></p>","null","neutral_feedback","1","test","44","","","","","","","",""
"","","","","","","","","","","","html-button-response","293","2.0.0","677811","64d50c4b3a44318d98f4f5b2","1","24","2633","","","","","","","","","<img src= ""rock_img/I_Diorite_08.jpg"" style=""width:8cm; height:6.37cm;""><p>What type of rock is this?</p>","0","class_response","1","test","45","Andesite","Diorite","08","false","1","3","",""
"","","","","","","","","","","","html-keyboard-response","294","2.0.0","678313","64d50c4b3a44318d98f4f5b2","1","24","null","","","","","","","","","<p style='font-size: 30px;'><strong>Okay</strong></p>","null","neutral_feedback","1","test","45","","","","","","","",""
"","","","","","","","","","","","html-button-response","295","2.0.0","679724","64d50c4b3a44318d98f4f5b2","1","24","1410","","","","","","","","","<img src= ""rock_img/I_Pegmatite_15.jpg"" style=""width:8cm; height:6cm;""><p>What type of rock is this?</p>","5","class_response","1","test","46","Pegmatite","Pegmatite","15","true","6","6","",""
"","","","","","","","","","","","html-keyboard-response","296","2.0.0","680240","64d50c4b3a44318d98f4f5b2","1","24","null","","","","","","","","","<p style='font-size: 30px;'><strong>Okay</strong></p>","null","neutral_feedback","1","test","46","","","","","","","",""
"","","","","","","","","","","","html-button-response","297","2.0.0","681652","64d50c4b3a44318d98f4f5b2","1","24","1411","","","","","","","","","<img src= ""rock_img/I_Obsidian_04.jpg"" style=""width:8cm; height:6.930000000000001cm;""><p>What type of rock is this?</p>","4","class_response","1","test","47","Obsidian","Obsidian","04","true","5","5","",""
"","","","","","","","","","","","html-keyboard-response","298","2.0.0","682153","64d50c4b3a44318d98f4f5b2","1","24","null","","","","","","","","","<p style='font-size: 30px;'><strong>Okay</strong></p>","null","neutral_feedback","1","test","47","","","","","","","",""
"","","","","","","","","","","","html-button-response","299","2.0.0","684299","64d50c4b3a44318d98f4f5b2","1","24","2144","","","","","","","","","<img src= ""rock_img/I_Diorite_02.jpg"" style=""width:8cm; height:6.27cm;""><p>What type of rock is this?</p>","0","class_response","1","test","48","Andesite","Diorite","02","false","1","3","",""
"","","","","","","","","","","","html-keyboard-response","300","2.0.0","684804","64d50c4b3a44318d98f4f5b2","1","24","null","","","","","","","","","<p style='font-size: 30px;'><strong>Okay</strong></p>","null","neutral_feedback","1","test","48","","","","","","","",""
"","","","","","","","","","","","html-button-response","301","2.0.0","698506","64d50c4b3a44318d98f4f5b2","1","24","","","","","","","","","","","","cycle_feedback","","","","","","","","","","10944","2750.599999964237"
"","","","","","","","","","","","html-button-response","303","2.0.0","700641","64d50c4b3a44318d98f4f5b2","1","24","2134","","","","","","","","","","0","start_train","","","","","","","","","","",""
"","","","","","","","","","","","html-button-response","304","2.0.0","702836","64d50c4b3a44318d98f4f5b2","1","24","2194","","","","","","","","","<img src= ""rock_img/I_Obsidian_16.jpg"" style=""width:8cm; height:9.3cm;""><p>What type of rock is this?</p>","4","class_response","2","train","1","Obsidian","Obsidian","16","true","5","5","",""
