"width","height","webaudio","browser","browser_version","mobile","os","fullscreen","vsync_rate","webcam","microphone","trial_type","trial_index","plugin_version","time_elapsed","subjID","condition","stimID","rt","url","success","value","timeout","failed_images","failed_audio","failed_video","view_history","stimulus","response","trialType","cycle","phase","trial","resp","cat","token","corr","resp_num","cat_num","time_fb1","time_fb2"
"1536","730","true","chrome","130.0.0","false","Chrome OS","true","60.86","true","true","browser-check","0","2.0.0","1025","6681a4d12c54df1452c59833","1","39","","","","","","","","","","","","","","","","","","","","","","",""
"","","","","","","","","","","","external-html","1","2.0.0","15685","6681a4d12c54df1452c59833","1","39","14554","consent_form.html","","","","","","","","","","","","","","","","","","","","",""
"","","","","","","","","","","","fullscreen","2","2.0.0","22728","6681a4d12c54df1452c59833","1","39","6021","","true","","","","","","","","","","","","","","","","","","","",""
"","","","","","","","","","","","call-function","3","2.0.0","22734","6681a4d12c54df1452c59833","1","39","","","","{}","","","","","","","","","","","","","","","","","","",""
"","","","","","","","","","","","preload","4","2.0.0","24765","6681a4d12c54df1452c59833","1","39","","","true","","false","[]","[]","[]","","","","","","","","","","","","","","",""
"","","","","","","","","","","","instructions","5","2.0.0","110249","6681a4d12c54df1452c59833","1","39","85481","","","","","","","","[{""page_index"":0,""viewing_time"":10852},{""page_index"":1,""viewing_time"":33185},{""page_index"":2,""viewing_time"":41445}]","","","","","","","","","","","","","",""
"","","","","","","","","","","","html-button-response","6","2.0.0","114271","6681a4d12c54df1452c59833","1","39","4014","","","","","","","","","","0","start_test","","","","","","","","","","",""
"","","","","","","","","","","","html-button-response","7","2.0.0","121853","6681a4d12c54df1452c59833","1","39","7574","","","","","","","","","<img src= ""rock_img/I_Diorite_14.jpg"" style=""width:8cm; height:5.71cm;""><p>What type of rock is this?</p>","2","class_response","0","test","1","Diorite","Diorite","14","true","3","3","",""
"","","","","","","","","","","","html-keyboard-response","8","2.0.0","122359","6681a4d12c54df1452c59833","1","39","null","","","","","","","","","<p style='font-size: 30px;'><strong>Okay</strong></p>","null","neutral_feedback","0","test","1","","","","","","","",""
"","","","","","","","","","","","html-button-response","9","2.0.0","125906","6681a4d12c54df1452c59833","1","39","3540","","","","","","","","","<img src= ""rock_img/I_Basalt_12.jpg"" style=""width:8cm; height:6.010000000000001cm;""><p>What type of rock is this?</p>","5","class_response","0","test","2","Pegmatite","Basalt","12","false","6","2","",""
"","","","","","","","","","","","html-keyboard-response","10","2.0.0","126411","6681a4d12c54df1452c59833","1","39","null","","","","","","","","","<p style='font-size: 30px;'><strong>Okay</strong></p>","null","neutral_feedback","0","test","2","","","","","","","",""
"","","","","","","","","","","","html-button-response","11","2.0.0","130744","6681a4d12c54df1452c59833","1","39","4326","","","","","","","","","<img src= ""rock_img/I_Pumice_16.jpg"" style=""width:8cm; height:6.79cm;""><p>What type of rock is this?</p>","1","class_response","0","test","3","Basalt","Pumice","16","false","2","8","",""
"","","","","","","","","","","","html-keyboard-response","12","2.0.0","131248","6681a4d12c54df1452c59833","1","39","null","","","","","","","","","<p style='font-size: 30px;'><strong>Okay</strong></p>","null","neutral_feedback","0","test","3","","","","","","","",""
"","","","","","","","","","","","html-button-response","13","2.0.0","134031","6681a4d12c54df1452c59833","1","39","2776","","","","","","","","","<img src= ""rock_img/I_Gabbro_12.jpg"" style=""width:8cm; height:7.800000000000001cm;""><p>What type of rock is this?</p>","2","class_response","0","test","4","Diorite","Gabbro","12","false","3","4","",""
"","","","","","","","","","","","html-keyboard-response","14","2.0.0","134534","6681a4d12c54df1452c59833","1","39","null","","","","","","","","","<p style='font-size: 30px;'><strong>Okay</strong></p>","null","neutral_feedback","0","test","4","","","","","","","",""
"","","","","","","","","","","","html-button-response","15","2.0.0","137845","6681a4d12c54df1452c59833","1","39","3305","","","","","","","","","<img src= ""rock_img/I_Obsidian_08.jpg"" style=""width:8cm; height:7.39cm;""><p>What type of rock is this?</p>","4","class_response","0","test","5","Obsidian","Obsidian","08","true","5","5","",""
"","","","","","","","","","","","html-keyboard-response","16","2.0.0","138350","6681a4d12c54df1452c59833","1","39","null","","","","","","","","","<p style='font-size: 30px;'><strong>Okay</strong></p>","null","neutral_feedback","0","test","5","","","","","","","",""
"","","","","","","","","","","","html-button-response","17","2.0.0","141771","6681a4d12c54df1452c59833","1","39","3415","","","","","","","","","<img src= ""rock_img/I_Pumice_14.jpg"" style=""width:8cm; height:6.39cm;""><p>What type of rock is this?</p>","7","class_response","0","test","6","Pumice","Pumice","14","true","8","8","",""
"","","","","","","","","","","","html-keyboard-response","18","2.0.0","142273","6681a4d12c54df1452c59833","1","39","null","","","","","","","","","<p style='font-size: 30px;'><strong>Okay</strong></p>","null","neutral_feedback","0","test","6","","","","","","","",""
"","","","","","","","","","","","html-button-response","19","2.0.0","145873","6681a4d12c54df1452c59833","1","39","3596","","","","","","","","","<img src= ""rock_img/I_Peridotite_15.jpg"" style=""width:8cm; height:6cm;""><p>What type of rock is this?</p>","5","class_response","0","test","7","Pegmatite","Peridotite","15","false","6","7","",""
"","","","","","","","","","","","html-keyboard-response","20","2.0.0","146376","6681a4d12c54df1452c59833","1","39","null","","","","","","","","","<p style='font-size: 30px;'><strong>Okay</strong></p>","null","neutral_feedback","0","test","7","","","","","","","",""
"","","","","","","","","","","","html-button-response","21","2.0.0","149696","6681a4d12c54df1452c59833","1","39","3314","","","","","","","","","<img src= ""rock_img/I_Obsidian_16.jpg"" style=""width:8cm; height:9.3cm;""><p>What type of rock is this?</p>","4","class_response","0","test","8","Obsidian","Obsidian","16","true","5","5","",""
"","","","","","","","","","","","html-keyboard-response","22","2.0.0","150199","6681a4d12c54df1452c59833","1","39","null","","","","","","","","","<p style='font-size: 30px;'><strong>Okay</strong></p>","null","neutral_feedback","0","test","8","","","","","","","",""
"","","","","","","","","","","","html-button-response","23","2.0.0","266523","6681a4d12c54df1452c59833","1","39","116318","","","","","","","","","<img src= ""rock_img/I_Basalt_01.jpg"" style=""width:8cm; height:7.880000000000001cm;""><p>What type of rock is this?</p>","6","class_response","0","test","9","Peridotite","Basalt","01","false","7","2","",""
"","","","","","","","","","","","html-keyboard-response","24","2.0.0","267027","6681a4d12c54df1452c59833","1","39","null","","","","","","","","","<p style='font-size: 30px;'><strong>Okay</strong></p>","null","neutral_feedback","0","test","9","","","","","","","",""
"","","","","","","","","","","","html-button-response","25","2.0.0","269426","6681a4d12c54df1452c59833","1","39","2393","","","","","","","","","<img src= ""rock_img/I_Pumice_06.jpg"" style=""width:8cm; height:6.9399999999999995cm;""><p>What type of rock is this?</p>","4","class_response","0","test","10","Obsidian","Pumice","06","false","5","8","",""
"","","","","","","","","","","","html-keyboard-response","26","2.0.0","269929","6681a4d12c54df1452c59833","1","39","null","","","","","","","","","<p style='font-size: 30px;'><strong>Okay</strong></p>","null","neutral_feedback","0","test","10","","","","","","","",""
"","","","","","","","","","","","html-button-response","27","2.0.0","271561","6681a4d12c54df1452c59833","1","39","1626","","","","","","","","","<img src= ""rock_img/I_Peridotite_16.jpg"" style=""width:8cm; height:6.989999999999999cm;""><p>What type of rock is this?</p>","1","class_response","0","test","11","Basalt","Peridotite","16","false","2","7","",""
"","","","","","","","","","","","html-keyboard-response","28","2.0.0","272064","6681a4d12c54df1452c59833","1","39","null","","","","","","","","","<p style='font-size: 30px;'><strong>Okay</strong></p>","null","neutral_feedback","0","test","11","","","","","","","",""
"","","","","","","","","","","","html-button-response","29","2.0.0","273680","6681a4d12c54df1452c59833","1","39","1613","","","","","","","","","<img src= ""rock_img/I_Gabbro_15.jpg"" style=""width:8cm; height:6.29cm;""><p>What type of rock is this?</p>","6","class_response","0","test","12","Peridotite","Gabbro","15","false","7","4","",""
"","","","","","","","","","","","html-keyboard-response","30","2.0.0","274183","6681a4d12c54df1452c59833","1","39","null","","","","","","","","","<p style='font-size: 30px;'><strong>Okay</strong></p>","null","neutral_feedback","0","test","12","","","","","","","",""
"","","","","","","","","","","","html-button-response","31","2.0.0","275775","6681a4d12c54df1452c59833","1","39","1587","","","","","","","","","<img src= ""rock_img/I_Andesite_10.jpg"" style=""width:8cm; height:4.16cm;""><p>What type of rock is this?</p>","3","class_response","0","test","13","Gabbro","Andesite","10","false","4","1","",""
"","","","","","","","","","","","html-keyboard-response","32","2.0.0","276278","6681a4d12c54df1452c59833","1","39","null","","","","","","","","","<p style='font-size: 30px;'><strong>Okay</strong></p>","null","neutral_feedback","0","test","13","","","","","","","",""
"","","","","","","","","","","","html-button-response","33","2.0.0","277814","6681a4d12c54df1452c59833","1","39","1532","","","","","","","","","<img src= ""rock_img/I_Andesite_05.jpg"" style=""width:8cm; height:4.12cm;""><p>What type of rock is this?</p>","6","class_response","0","test","14","Peridotite","Andesite","05","false","7","1","",""
"","","","","","","","","","","","html-keyboard-response","34","2.0.0","278318","6681a4d12c54df1452c59833","1","39","null","","","","","","","","","<p style='font-size: 30px;'><strong>Okay</strong></p>","null","neutral_feedback","0","test","14","","","","","","","",""
"","","","","","","","","","","","html-button-response","35","2.0.0","279741","6681a4d12c54df1452c59833","1","39","1418","","","","","","","","","<img src= ""rock_img/I_Andesite_06.jpg"" style=""width:8cm; height:6.840000000000001cm;""><p>What type of rock is this?</p>","5","class_response","0","test","15","Pegmatite","Andesite","06","false","6","1","",""
"","","","","","","","","","","","html-keyboard-response","36","2.0.0","280244","6681a4d12c54df1452c59833","1","39","null","","","","","","","","","<p style='font-size: 30px;'><strong>Okay</strong></p>","null","neutral_feedback","0","test","15","","","","","","","",""
"","","","","","","","","","","","html-button-response","37","2.0.0","282404","6681a4d12c54df1452c59833","1","39","2156","","","","","","","","","<img src= ""rock_img/I_Gabbro_09.jpg"" style=""width:8cm; height:7.279999999999999cm;""><p>What type of rock is this?</p>","4","class_response","0","test","16","Obsidian","Gabbro","09","false","5","4","",""
"","","","","","","","","","","","html-keyboard-response","38","2.0.0","282907","6681a4d12c54df1452c59833","1","39","null","","","","","","","","","<p style='font-size: 30px;'><strong>Okay</strong></p>","null","neutral_feedback","0","test","16","","","","","","","",""
"","","","","","","","","","","","html-button-response","39","2.0.0","284898","6681a4d12c54df1452c59833","1","39","1986","","","","","","","","","<img src= ""rock_img/I_Gabbro_05.jpg"" style=""width:8cm; height:6cm;""><p>What type of rock is this?</p>","1","class_response","0","test","17","Basalt","Gabbro","05","false","2","4","",""
"","","","","","","","","","","","html-keyboard-response","40","2.0.0","285402","6681a4d12c54df1452c59833","1","39","null","","","","","","","","","<p style='font-size: 30px;'><strong>Okay</strong></p>","null","neutral_feedback","0","test","17","","","","","","","",""
"","","","","","","","","","","","html-button-response","41","2.0.0","287203","6681a4d12c54df1452c59833","1","39","1795","","","","","","","","","<img src= ""rock_img/I_Basalt_05.jpg"" style=""width:8cm; height:8.18cm;""><p>What type of rock is this?</p>","7","class_response","0","test","18","Pumice","Basalt","05","false","8","2","",""
"","","","","","","","","","","","html-keyboard-response","42","2.0.0","287706","6681a4d12c54df1452c59833","1","39","null","","","","","","","","","<p style='font-size: 30px;'><strong>Okay</strong></p>","null","neutral_feedback","0","test","18","","","","","","","",""
"","","","","","","","","","","","html-button-response","43","2.0.0","289713","6681a4d12c54df1452c59833","1","39","2001","","","","","","","","","<img src= ""rock_img/I_Pumice_03.jpg"" style=""width:8cm; height:6.64cm;""><p>What type of rock is this?</p>","7","class_response","0","test","19","Pumice","Pumice","03","true","8","8","",""
"","","","","","","","","","","","html-keyboard-response","44","2.0.0","290216","6681a4d12c54df1452c59833","1","39","null","","","","","","","","","<p style='font-size: 30px;'><strong>Okay</strong></p>","null","neutral_feedback","0","test","19","","","","","","","",""
"","","","","","","","","","","","html-button-response","45","2.0.0","291800","6681a4d12c54df1452c59833","1","39","1578","","","","","","","","","<img src= ""rock_img/I_Obsidian_10.jpg"" style=""width:8cm; height:6.260000000000001cm;""><p>What type of rock is this?</p>","5","class_response","0","test","20","Pegmatite","Obsidian","10","false","6","5","",""
"","","","","","","","","","","","html-keyboard-response","46","2.0.0","292303","6681a4d12c54df1452c59833","1","39","null","","","","","","","","","<p style='font-size: 30px;'><strong>Okay</strong></p>","null","neutral_feedback","0","test","20","","","","","","","",""
"","","","","","","","","","","","html-button-response","47","2.0.0","293927","6681a4d12c54df1452c59833","1","39","1618","","","","","","","","","<img src= ""rock_img/I_Basalt_06.jpg"" style=""width:8cm; height:7.06cm;""><p>What type of rock is this?</p>","4","class_response","0","test","21","Obsidian","Basalt","06","false","5","2","",""
"","","","","","","","","","","","html-keyboard-response","48","2.0.0","294430","6681a4d12c54df1452c59833","1","39","null","","","","","","","","","<p style='font-size: 30px;'><strong>Okay</strong></p>","null","neutral_feedback","0","test","21","","","","","","","",""
"","","","","","","","","","","","html-button-response","49","2.0.0","296646","6681a4d12c54df1452c59833","1","39","2211","","","","","","","","","<img src= ""rock_img/I_Diorite_15.jpg"" style=""width:8cm; height:5.54cm;""><p>What type of rock is this?</p>","3","class_response","0","test","22","Gabbro","Diorite","15","false","4","3","",""
"","","","","","","","","","","","html-keyboard-response","50","2.0.0","297149","6681a4d12c54df1452c59833","1","39","null","","","","","","","","","<p style='font-size: 30px;'><strong>Okay</strong></p>","null","neutral_feedback","0","test","22","","","","","","","",""
"","","","","","","","","","","","html-button-response","51","2.0.0","298741","6681a4d12c54df1452c59833","1","39","1589","","","","","","","","","<img src= ""rock_img/I_Pegmatite_16.jpg"" style=""width:8cm; height:5.8cm;""><p>What type of rock is this?</p>","5","class_response","0","test","23","Pegmatite","Pegmatite","16","true","6","6","",""
"","","","","","","","","","","","html-keyboard-response","52","2.0.0","299244","6681a4d12c54df1452c59833","1","39","null","","","","","","","","","<p style='font-size: 30px;'><strong>Okay</strong></p>","null","neutral_feedback","0","test","23","","","","","","","",""
"","","","","","","","","","","","html-button-response","53","2.0.0","301139","6681a4d12c54df1452c59833","1","39","1890","","","","","","","","","<img src= ""rock_img/I_Pegmatite_06.jpg"" style=""width:8cm; height:5.17cm;""><p>What type of rock is this?</p>","2","class_response","0","test","24","Diorite","Pegmatite","06","false","3","6","",""
"","","","","","","","","","","","html-keyboard-response","54","2.0.0","301643","6681a4d12c54df1452c59833","1","39","null","","","","","","","","","<p style='font-size: 30px;'><strong>Okay</strong></p>","null","neutral_feedback","0","test","24","","","","","","","",""
"","","","","","","","","","","","html-button-response","55","2.0.0","303888","6681a4d12c54df1452c59833","1","39","2241","","","","","","","","","<img src= ""rock_img/I_Pumice_10.jpg"" style=""width:8cm; height:7.609999999999999cm;""><p>What type of rock is this?</p>","1","class_response","0","test","25","Basalt","Pumice","10","false","2","8","",""
"","","","","","","","","","","","html-keyboard-response","56","2.0.0","304390","6681a4d12c54df1452c59833","1","39","null","","","","","","","","","<p style='font-size: 30px;'><strong>Okay</strong></p>","null","neutral_feedback","0","test","25","","","","","","","",""
"","","","","","","","","","","","html-button-response","57","2.0.0","306089","6681a4d12c54df1452c59833","1","39","1695","","","","","","","","","<img src= ""rock_img/I_Diorite_12.jpg"" style=""width:8cm; height:4.88cm;""><p>What type of rock is this?</p>","6","class_response","0","test","26","Peridotite","Diorite","12","false","7","3","",""
"","","","","","","","","","","","html-keyboard-response","58","2.0.0","306592","6681a4d12c54df1452c59833","1","39","null","","","","","","","","","<p style='font-size: 30px;'><strong>Okay</strong></p>","null","neutral_feedback","0","test","26","","","","","","","",""
"","","","","","","","","","","","html-button-response","59","2.0.0","308455","6681a4d12c54df1452c59833","1","39","1859","","","","","","","","","<img src= ""rock_img/I_Pegmatite_09.jpg"" style=""width:8cm; height:4.03cm;""><p>What type of rock is this?</p>","0","class_response","0","test","27","Andesite","Pegmatite","09","false","1","6","",""
"","","","","","","","","","","","html-keyboard-response","60","2.0.0","308959","6681a4d12c54df1452c59833","1","39","null","","","","","","","","","<p style='font-size: 30px;'><strong>Okay</strong></p>","null","neutral_feedback","0","test","27","","","","","","","",""
"","","","","","","","","","","","html-button-response","61","2.0.0","310823","6681a4d12c54df1452c59833","1","39","1859","","","","","","","","","<img src= ""rock_img/I_Peridotite_07.jpg"" style=""width:8cm; height:4.83cm;""><p>What type of rock is this?</p>","5","class_response","0","test","28","Pegmatite","Peridotite","07","false","6","7","",""
"","","","","","","","","","","","html-keyboard-response","62","2.0.0","311327","6681a4d12c54df1452c59833","1","39","null","","","","","","","","","<p style='font-size: 30px;'><strong>Okay</strong></p>","null","neutral_feedback","0","test","28","","","","","","","",""
"","","","","","","","","","","","html-button-response","63","2.0.0","312838","6681a4d12c54df1452c59833","1","39","1506","","","","","","","","","<img src= ""rock_img/I_Pumice_04.jpg"" style=""width:8cm; height:6.819999999999999cm;""><p>What type of rock is this?</p>","6","class_response","0","test","29","Peridotite","Pumice","04","false","7","8","",""
"","","","","","","","","","","","html-keyboard-response","64","2.0.0","313342","6681a4d12c54df1452c59833","1","39","null","","","","","","","","","<p style='font-size: 30px;'><strong>Okay</strong></p>","null","neutral_feedback","0","test","29","","","","","","","",""
"","","","","","","","","","","","html-button-response","65","2.0.0","315109","6681a4d12c54df1452c59833","1","39","1762","","","","","","","","","<img src= ""rock_img/I_Andesite_16.jpg"" style=""width:8cm; height:6.010000000000001cm;""><p>What type of rock is this?</p>","7","class_response","0","test","30","Pumice","Andesite","16","false","8","1","",""
"","","","","","","","","","","","html-keyboard-response","66","2.0.0","315612","6681a4d12c54df1452c59833","1","39","null","","","","","","","","","<p style='font-size: 30px;'><strong>Okay</strong></p>","null","neutral_feedback","0","test","30","","","","","","","",""
"","","","","","","","","","","","html-button-response","67","2.0.0","317772","6681a4d12c54df1452c59833","1","39","2154","","","","","","","","","<img src= ""rock_img/I_Peridotite_02.jpg"" style=""width:8cm; height:5.859999999999999cm;""><p>What type of rock is this?</p>","5","class_response","0","test","31","Pegmatite","Peridotite","02","false","6","7","",""
"","","","","","","","","","","","html-keyboard-response","68","2.0.0","318275","6681a4d12c54df1452c59833","1","39","null","","","","","","","","","<p style='font-size: 30px;'><strong>Okay</strong></p>","null","neutral_feedback","0","test","31","","","","","","","",""
"","","","","","","","","","","","html-button-response","69","2.0.0","319787","6681a4d12c54df1452c59833","1","39","1508","","","","","","","","","<img src= ""rock_img/I_Peridotite_06.jpg"" style=""width:8cm; height:7.53cm;""><p>What type of rock is this?</p>","2","class_response","0","test","32","Diorite","Peridotite","06","false","3","7","",""
"","","","","","","","","","","","html-keyboard-response","70","2.0.0","320290","6681a4d12c54df1452c59833","1","39","null","","","","","","","","","<p style='font-size: 30px;'><strong>Okay</strong></p>","null","neutral_feedback","0","test","32","","","","","","","",""
"","","","","","","","","","","","html-button-response","71","2.0.0","321938","6681a4d12c54df1452c59833","1","39","1643","","","","","","","","","<img src= ""rock_img/I_Andesite_01.jpg"" style=""width:8cm; height:5.87cm;""><p>What type of rock is this?</p>","4","class_response","0","test","33","Obsidian","Andesite","01","false","5","1","",""
"","","","","","","","","","","","html-keyboard-response","72","2.0.0","322441","6681a4d12c54df1452c59833","1","39","null","","","","","","","","","<p style='font-size: 30px;'><strong>Okay</strong></p>","null","neutral_feedback","0","test","33","","","","","","","",""
"","","","","","","","","","","","html-button-response","73","2.0.0","324745","6681a4d12c54df1452c59833","1","39","2299","","","","","","","","","<img src= ""rock_img/I_Diorite_06.jpg"" style=""width:8cm; height:6.03cm;""><p>What type of rock is this?</p>","0","class_response","0","test","34","Andesite","Diorite","06","false","1","3","",""
"","","","","","","","","","","","html-keyboard-response","74","2.0.0","325248","6681a4d12c54df1452c59833","1","39","null","","","","","","","","","<p style='font-size: 30px;'><strong>Okay</strong></p>","null","neutral_feedback","0","test","34","","","","","","","",""
"","","","","","","","","","","","html-button-response","75","2.0.0","327079","6681a4d12c54df1452c59833","1","39","1826","","","","","","","","","<img src= ""rock_img/I_Obsidian_05.jpg"" style=""width:8cm; height:6.33cm;""><p>What type of rock is this?</p>","1","class_response","0","test","35","Basalt","Obsidian","05","false","2","5","",""
"","","","","","","","","","","","html-keyboard-response","76","2.0.0","327583","6681a4d12c54df1452c59833","1","39","null","","","","","","","","","<p style='font-size: 30px;'><strong>Okay</strong></p>","null","neutral_feedback","0","test","35","","","","","","","",""
"","","","","","","","","","","","html-button-response","77","2.0.0","329543","6681a4d12c54df1452c59833","1","39","1955","","","","","","","","","<img src= ""rock_img/I_Gabbro_01.jpg"" style=""width:8cm; height:5.21cm;""><p>What type of rock is this?</p>","3","class_response","0","test","36","Gabbro","Gabbro","01","true","4","4","",""
"","","","","","","","","","","","html-keyboard-response","78","2.0.0","330046","6681a4d12c54df1452c59833","1","39","null","","","","","","","","","<p style='font-size: 30px;'><strong>Okay</strong></p>","null","neutral_feedback","0","test","36","","","","","","","",""
"","","","","","","","","","","","html-button-response","79","2.0.0","331934","6681a4d12c54df1452c59833","1","39","1883","","","","","","","","","<img src= ""rock_img/I_Gabbro_16.jpg"" style=""width:8cm; height:6.44cm;""><p>What type of rock is this?</p>","6","class_response","0","test","37","Peridotite","Gabbro","16","false","7","4","",""
"","","","","","","","","","","","html-keyboard-response","80","2.0.0","332437","6681a4d12c54df1452c59833","1","39","null","","","","","","","","","<p style='font-size: 30px;'><strong>Okay</strong></p>","null","neutral_feedback","0","test","37","","","","","","","",""
"","","","","","","","","","","","html-button-response","81","2.0.0","334109","6681a4d12c54df1452c59833","1","39","1667","","","","","","","","","<img src= ""rock_img/I_Pegmatite_08.jpg"" style=""width:8cm; height:7.68cm;""><p>What type of rock is this?</p>","5","class_response","0","test","38","Pegmatite","Pegmatite","08","true","6","6","",""
"","","","","","","","","","","","html-keyboard-response","82","2.0.0","334612","6681a4d12c54df1452c59833","1","39","null","","","","","","","","","<p style='font-size: 30px;'><strong>Okay</strong></p>","null","neutral_feedback","0","test","38","","","","","","","",""
"","","","","","","","","","","","html-button-response","83","2.0.0","336508","6681a4d12c54df1452c59833","1","39","1891","","","","","","","","","<img src= ""rock_img/I_Obsidian_11.jpg"" style=""width:8cm; height:6.05cm;""><p>What type of rock is this?</p>","4","class_response","0","test","39","Obsidian","Obsidian","11","true","5","5","",""
"","","","","","","","","","","","html-keyboard-response","84","2.0.0","337011","6681a4d12c54df1452c59833","1","39","null","","","","","","","","","<p style='font-size: 30px;'><strong>Okay</strong></p>","null","neutral_feedback","0","test","39","","","","","","","",""
"","","","","","","","","","","","html-button-response","85","2.0.0","338811","6681a4d12c54df1452c59833","1","39","1795","","","","","","","","","<img src= ""rock_img/I_Diorite_10.jpg"" style=""width:8cm; height:5.949999999999999cm;""><p>What type of rock is this?</p>","1","class_response","0","test","40","Basalt","Diorite","10","false","2","3","",""
"","","","","","","","","","","","html-keyboard-response","86","2.0.0","339314","6681a4d12c54df1452c59833","1","39","null","","","","","","","","","<p style='font-size: 30px;'><strong>Okay</strong></p>","null","neutral_feedback","0","test","40","","","","","","","",""
"","","","","","","","","","","","html-button-response","87","2.0.0","341130","6681a4d12c54df1452c59833","1","39","1810","","","","","","","","","<img src= ""rock_img/I_Obsidian_14.jpg"" style=""width:8cm; height:7.64cm;""><p>What type of rock is this?</p>","4","class_response","0","test","41","Obsidian","Obsidian","14","true","5","5","",""
"","","","","","","","","","","","html-keyboard-response","88","2.0.0","341633","6681a4d12c54df1452c59833","1","39","null","","","","","","","","","<p style='font-size: 30px;'><strong>Okay</strong></p>","null","neutral_feedback","0","test","41","","","","","","","",""
"","","","","","","","","","","","html-button-response","89","2.0.0","343297","6681a4d12c54df1452c59833","1","39","1658","","","","","","","","","<img src= ""rock_img/I_Diorite_13.jpg"" style=""width:8cm; height:6.29cm;""><p>What type of rock is this?</p>","7","class_response","0","test","42","Pumice","Diorite","13","false","8","3","",""
"","","","","","","","","","","","html-keyboard-response","90","2.0.0","343800","6681a4d12c54df1452c59833","1","39","null","","","","","","","","","<p style='font-size: 30px;'><strong>Okay</strong></p>","null","neutral_feedback","0","test","42","","","","","","","",""
"","","","","","","","","","","","html-button-response","91","2.0.0","345280","6681a4d12c54df1452c59833","1","39","1474","","","","","","","","","<img src= ""rock_img/I_Basalt_16.jpg"" style=""width:8cm; height:7.659999999999999cm;""><p>What type of rock is this?</p>","4","class_response","0","test","43","Obsidian","Basalt","16","false","5","2","",""
"","","","","","","","","","","","html-keyboard-response","92","2.0.0","345782","6681a4d12c54df1452c59833","1","39","null","","","","","","","","","<p style='font-size: 30px;'><strong>Okay</strong></p>","null","neutral_feedback","0","test","43","","","","","","","",""
"","","","","","","","","","","","html-button-response","93","2.0.0","347798","6681a4d12c54df1452c59833","1","39","2011","","","","","","","","","<img src= ""rock_img/I_Pegmatite_13.jpg"" style=""width:8cm; height:4.95cm;""><p>What type of rock is this?</p>","0","class_response","0","test","44","Andesite","Pegmatite","13","false","1","6","",""
"","","","","","","","","","","","html-keyboard-response","94","2.0.0","348301","6681a4d12c54df1452c59833","1","39","null","","","","","","","","","<p style='font-size: 30px;'><strong>Okay</strong></p>","null","neutral_feedback","0","test","44","","","","","","","",""
"","","","","","","","","","","","html-button-response","95","2.0.0","349813","6681a4d12c54df1452c59833","1","39","1510","","","","","","","","","<img src= ""rock_img/I_Andesite_03.jpg"" style=""width:8cm; height:5.73cm;""><p>What type of rock is this?</p>","1","class_response","0","test","45","Basalt","Andesite","03","false","2","1","",""
"","","","","","","","","","","","html-keyboard-response","96","2.0.0","350317","6681a4d12c54df1452c59833","1","39","null","","","","","","","","","<p style='font-size: 30px;'><strong>Okay</strong></p>","null","neutral_feedback","0","test","45","","","","","","","",""
"","","","","","","","","","","","html-button-response","97","2.0.0","351397","6681a4d12c54df1452c59833","1","39","1075","","","","","","","","","<img src= ""rock_img/I_Peridotite_04.jpg"" style=""width:8cm; height:6.680000000000001cm;""><p>What type of rock is this?</p>","4","class_response","0","test","46","Obsidian","Peridotite","04","false","5","7","",""
"","","","","","","","","","","","html-keyboard-response","98","2.0.0","351900","6681a4d12c54df1452c59833","1","39","null","","","","","","","","","<p style='font-size: 30px;'><strong>Okay</strong></p>","null","neutral_feedback","0","test","46","","","","","","","",""
"","","","","","","","","","","","html-button-response","99","2.0.0","353636","6681a4d12c54df1452c59833","1","39","1733","","","","","","","","","<img src= ""rock_img/I_Basalt_02.jpg"" style=""width:8cm; height:6.45cm;""><p>What type of rock is this?</p>","4","class_response","0","test","47","Obsidian","Basalt","02","false","5","2","",""
"","","","","","","","","","","","html-keyboard-response","100","2.0.0","354139","6681a4d12c54df1452c59833","1","39","null","","","","","","","","","<p style='font-size: 30px;'><strong>Okay</strong></p>","null","neutral_feedback","0","test","47","","","","","","","",""
"","","","","","","","","","","","html-button-response","101","2.0.0","355395","6681a4d12c54df1452c59833","1","39","1251","","","","","","","","","<img src= ""rock_img/I_Pegmatite_11.jpg"" style=""width:8cm; height:8.14cm;""><p>What type of rock is this?</p>","3","class_response","0","test","48","Gabbro","Pegmatite","11","false","4","6","",""
"","","","","","","","","","","","html-keyboard-response","102","2.0.0","355898","6681a4d12c54df1452c59833","1","39","null","","","","","","","","","<p style='font-size: 30px;'><strong>Okay</strong></p>","null","neutral_feedback","0","test","48","","","","","","","",""
"","","","","","","","","","","","instructions","103","2.0.0","372748","6681a4d12c54df1452c59833","1","39","16776","","","","","","","","[{""page_index"":0,""viewing_time"":6268},{""page_index"":1,""viewing_time"":6396},{""page_index"":2,""viewing_time"":4111}]","","","","","","","","","","","","","",""
"","","","","","","","","","","","html-button-response","104","2.0.0","377688","6681a4d12c54df1452c59833","1","39","4935","","","","","","","","","","0","start_train","","","","","","","","","","",""
"","","","","","","","","","","","html-button-response","105","2.0.0","383711","6681a4d12c54df1452c59833","1","39","6016","","","","","","","","","<img src= ""rock_img/I_Gabbro_08.jpg"" style=""width:8cm; height:5.15cm;""><p>What type of rock is this?</p>","4","class_response","1","train","1","Obsidian","Gabbro","08","false","5","4","",""
"","","","","","","","","","","","html-button-response","106","2.0.0","397232","6681a4d12c54df1452c59833","1","39","13516","","","","","","","","","<img src= rock_img/I_Gabbro_08.jpg style=""width:8cm; height:5.15cm;""><p style='font-size: 30px; color: red;'><strong>Incorrect!</strong></p><p style='font-size: 30px;'><strong>This rock is gabbro</strong></p>","0","corr_feedback","1","train","1","","","","","","","",""
"","","","","","","","","","","","html-button-response","107","2.0.0","399863","6681a4d12c54df1452c59833","1","39","2625","","","","","","","","","<img src= ""rock_img/I_Obsidian_12.jpg"" style=""width:8cm; height:6.53cm;""><p>What type of rock is this?</p>","4","class_response","1","train","2","Obsidian","Obsidian","12","true","5","5","",""
"","","","","","","","","","","","html-button-response","108","2.0.0","405357","6681a4d12c54df1452c59833","1","39","5489","","","","","","","","","<img src= rock_img/I_Obsidian_12.jpg style=""width:8cm; height:6.53cm;""><p style='font-size: 30px; color: green;'><strong>Correct!</strong></p><p style='font-size: 30px;'><strong>This rock is obsidian</strong></p>","0","corr_feedback","1","train","2","","","","","","","",""
"","","","","","","","","","","","html-button-response","109","2.0.0","410155","6681a4d12c54df1452c59833","1","39","4792","","","","","","","","","<img src= ""rock_img/I_Gabbro_10.jpg"" style=""width:8cm; height:5.680000000000001cm;""><p>What type of rock is this?</p>","2","class_response","1","train","3","Diorite","Gabbro","10","false","3","4","",""
"","","","","","","","","","","","html-button-response","110","2.0.0","414272","6681a4d12c54df1452c59833","1","39","4113","","","","","","","","","<img src= rock_img/I_Gabbro_10.jpg style=""width:8cm; height:5.680000000000001cm;""><p style='font-size: 30px; color: red;'><strong>Incorrect!</strong></p><p style='font-size: 30px;'><strong>This rock is gabbro</strong></p>","0","corr_feedback","1","train","3","","","","","","","",""
"","","","","","","","","","","","html-button-response","111","2.0.0","419559","6681a4d12c54df1452c59833","1","39","5281","","","","","","","","","<img src= ""rock_img/I_Peridotite_13.jpg"" style=""width:8cm; height:7.58cm;""><p>What type of rock is this?</p>","1","class_response","1","train","4","Basalt","Peridotite","13","false","2","7","",""
"","","","","","","","","","","","html-button-response","112","2.0.0","424491","6681a4d12c54df1452c59833","1","39","4928","","","","","","","","","<img src= rock_img/I_Peridotite_13.jpg style=""width:8cm; height:7.58cm;""><p style='font-size: 30px; color: red;'><strong>Incorrect!</strong></p><p style='font-size: 30px;'><strong>This rock is peridotite</strong></p>","0","corr_feedback","1","train","4","","","","","","","",""
"","","","","","","","","","","","html-button-response","113","2.0.0","429602","6681a4d12c54df1452c59833","1","39","5105","","","","","","","","","<img src= ""rock_img/I_Andesite_02.jpg"" style=""width:8cm; height:8.5cm;""><p>What type of rock is this?</p>","3","class_response","1","train","5","Gabbro","Andesite","02","false","4","1","",""
"","","","","","","","","","","","html-button-response","114","2.0.0","432944","6681a4d12c54df1452c59833","1","39","3338","","","","","","","","","<img src= rock_img/I_Andesite_02.jpg style=""width:8cm; height:8.5cm;""><p style='font-size: 30px; color: red;'><strong>Incorrect!</strong></p><p style='font-size: 30px;'><strong>This rock is andesite</strong></p>","0","corr_feedback","1","train","5","","","","","","","",""
"","","","","","","","","","","","html-button-response","115","2.0.0","439646","6681a4d12c54df1452c59833","1","39","6696","","","","","","","","","<img src= ""rock_img/I_Andesite_11.jpg"" style=""width:8cm; height:4.92cm;""><p>What type of rock is this?</p>","7","class_response","1","train","6","Pumice","Andesite","11","false","8","1","",""
"","","","","","","","","","","","html-button-response","116","2.0.0","442763","6681a4d12c54df1452c59833","1","39","3113","","","","","","","","","<img src= rock_img/I_Andesite_11.jpg style=""width:8cm; height:4.92cm;""><p style='font-size: 30px; color: red;'><strong>Incorrect!</strong></p><p style='font-size: 30px;'><strong>This rock is andesite</strong></p>","0","corr_feedback","1","train","6","","","","","","","",""
"","","","","","","","","","","","html-button-response","117","2.0.0","446562","6681a4d12c54df1452c59833","1","39","3794","","","","","","","","","<img src= ""rock_img/I_Pegmatite_12.jpg"" style=""width:8cm; height:5.7cm;""><p>What type of rock is this?</p>","2","class_response","1","train","7","Diorite","Pegmatite","12","false","3","6","",""
"","","","","","","","","","","","html-button-response","118","2.0.0","449088","6681a4d12c54df1452c59833","1","39","2521","","","","","","","","","<img src= rock_img/I_Pegmatite_12.jpg style=""width:8cm; height:5.7cm;""><p style='font-size: 30px; color: red;'><strong>Incorrect!</strong></p><p style='font-size: 30px;'><strong>This rock is pegmatite</strong></p>","0","corr_feedback","1","train","7","","","","","","","",""
"","","","","","","","","","","","html-button-response","119","2.0.0","454174","6681a4d12c54df1452c59833","1","39","5081","","","","","","","","","<img src= ""rock_img/I_Diorite_07.jpg"" style=""width:8cm; height:5.239999999999999cm;""><p>What type of rock is this?</p>","1","class_response","1","train","8","Basalt","Diorite","07","false","2","3","",""
"","","","","","","","","","","","html-button-response","120","2.0.0","457157","6681a4d12c54df1452c59833","1","39","2979","","","","","","","","","<img src= rock_img/I_Diorite_07.jpg style=""width:8cm; height:5.239999999999999cm;""><p style='font-size: 30px; color: red;'><strong>Incorrect!</strong></p><p style='font-size: 30px;'><strong>This rock is diorite</strong></p>","0","corr_feedback","1","train","8","","","","","","","",""
"","","","","","","","","","","","html-button-response","121","2.0.0","465137","6681a4d12c54df1452c59833","1","39","7975","","","","","","","","","<img src= ""rock_img/I_Peridotite_14.jpg"" style=""width:8cm; height:5.3cm;""><p>What type of rock is this?</p>","5","class_response","1","train","9","Pegmatite","Peridotite","14","false","6","7","",""
"","","","","","","","","","","","html-button-response","122","2.0.0","471063","6681a4d12c54df1452c59833","1","39","5922","","","","","","","","","<img src= rock_img/I_Peridotite_14.jpg style=""width:8cm; height:5.3cm;""><p style='font-size: 30px; color: red;'><strong>Incorrect!</strong></p><p style='font-size: 30px;'><strong>This rock is peridotite</strong></p>","0","corr_feedback","1","train","9","","","","","","","",""
"","","","","","","","","","","","html-button-response","123","2.0.0","487720","6681a4d12c54df1452c59833","1","39","16651","","","","","","","","","<img src= ""rock_img/I_Andesite_07.jpg"" style=""width:8cm; height:5.93cm;""><p>What type of rock is this?</p>","2","class_response","1","train","10","Diorite","Andesite","07","false","3","1","",""
"","","","","","","","","","","","html-button-response","124","2.0.0","491485","6681a4d12c54df1452c59833","1","39","3761","","","","","","","","","<img src= rock_img/I_Andesite_07.jpg style=""width:8cm; height:5.93cm;""><p style='font-size: 30px; color: red;'><strong>Incorrect!</strong></p><p style='font-size: 30px;'><strong>This rock is andesite</strong></p>","0","corr_feedback","1","train","10","","","","","","","",""
"","","","","","","","","","","","html-button-response","125","2.0.0","495746","6681a4d12c54df1452c59833","1","39","4257","","","","","","","","","<img src= ""rock_img/I_Peridotite_10.jpg"" style=""width:8cm; height:5.390000000000001cm;""><p>What type of rock is this?</p>","3","class_response","1","train","11","Gabbro","Peridotite","10","false","4","7","",""
"","","","","","","","","","","","html-button-response","126","2.0.0","498585","6681a4d12c54df1452c59833","1","39","2837","","","","","","","","","<img src= rock_img/I_Peridotite_10.jpg style=""width:8cm; height:5.390000000000001cm;""><p style='font-size: 30px; color: red;'><strong>Incorrect!</strong></p><p style='font-size: 30px;'><strong>This rock is peridotite</strong></p>","0","corr_feedback","1","train","11","","","","","","","",""
"","","","","","","","","","","","html-button-response","127","2.0.0","501416","6681a4d12c54df1452c59833","1","39","2828","","","","","","","","","<img src= ""rock_img/I_Basalt_10.jpg"" style=""width:8cm; height:5.85cm;""><p>What type of rock is this?</p>","4","class_response","1","train","12","Obsidian","Basalt","10","false","5","2","",""
"","","","","","","","","","","","html-button-response","128","2.0.0","504758","6681a4d12c54df1452c59833","1","39","3340","","","","","","","","","<img src= rock_img/I_Basalt_10.jpg style=""width:8cm; height:5.85cm;""><p style='font-size: 30px; color: red;'><strong>Incorrect!</strong></p><p style='font-size: 30px;'><strong>This rock is basalt</strong></p>","0","corr_feedback","1","train","12","","","","","","","",""
"","","","","","","","","","","","html-button-response","129","2.0.0","508806","6681a4d12c54df1452c59833","1","39","4046","","","","","","","","","<img src= ""rock_img/I_Diorite_09.jpg"" style=""width:8cm; height:5.27cm;""><p>What type of rock is this?</p>","0","class_response","1","train","13","Andesite","Diorite","09","false","1","3","",""
"","","","","","","","","","","","html-button-response","130","2.0.0","511820","6681a4d12c54df1452c59833","1","39","3009","","","","","","","","","<img src= rock_img/I_Diorite_09.jpg style=""width:8cm; height:5.27cm;""><p style='font-size: 30px; color: red;'><strong>Incorrect!</strong></p><p style='font-size: 30px;'><strong>This rock is diorite</strong></p>","0","corr_feedback","1","train","13","","","","","","","",""
"","","","","","","","","","","","html-button-response","131","2.0.0","522312","6681a4d12c54df1452c59833","1","39","10487","","","","","","","","","<img src= ""rock_img/I_Andesite_09.jpg"" style=""width:8cm; height:6cm;""><p>What type of rock is this?</p>","0","class_response","1","train","14","Andesite","Andesite","09","true","1","1","",""
"","","","","","","","","","","","html-button-response","132","2.0.0","530340","6681a4d12c54df1452c59833","1","39","8024","","","","","","","","","<img src= rock_img/I_Andesite_09.jpg style=""width:8cm; height:6cm;""><p style='font-size: 30px; color: green;'><strong>Correct!</strong></p><p style='font-size: 30px;'><strong>This rock is andesite</strong></p>","0","corr_feedback","1","train","14","","","","","","","",""
"","","","","","","","","","","","html-button-response","133","2.0.0","536568","6681a4d12c54df1452c59833","1","39","6224","","","","","","","","","<img src= ""rock_img/I_Andesite_04.jpg"" style=""width:8cm; height:5.96cm;""><p>What type of rock is this?</p>","5","class_response","1","train","15","Pegmatite","Andesite","04","false","6","1","",""
"","","","","","","","","","","","html-button-response","134","2.0.0","540255","6681a4d12c54df1452c59833","1","39","3684","","","","","","","","","<img src= rock_img/I_Andesite_04.jpg style=""width:8cm; height:5.96cm;""><p style='font-size: 30px; color: red;'><strong>Incorrect!</strong></p><p style='font-size: 30px;'><strong>This rock is andesite</strong></p>","0","corr_feedback","1","train","15","","","","","","","",""
"","","","","","","","","","","","html-button-response","135","2.0.0","552754","6681a4d12c54df1452c59833","1","39","12494","","","","","","","","","<img src= ""rock_img/I_Gabbro_14.jpg"" style=""width:8cm; height:8.48cm;""><p>What type of rock is this?</p>","3","class_response","1","train","16","Gabbro","Gabbro","14","true","4","4","",""
"","","","","","","","","","","","html-button-response","136","2.0.0","556737","6681a4d12c54df1452c59833","1","39","3979","","","","","","","","","<img src= rock_img/I_Gabbro_14.jpg style=""width:8cm; height:8.48cm;""><p style='font-size: 30px; color: green;'><strong>Correct!</strong></p><p style='font-size: 30px;'><strong>This rock is gabbro</strong></p>","0","corr_feedback","1","train","16","","","","","","","",""
"","","","","","","","","","","","html-button-response","137","2.0.0","558784","6681a4d12c54df1452c59833","1","39","2042","","","","","","","","","<img src= ""rock_img/I_Obsidian_04.jpg"" style=""width:8cm; height:6.930000000000001cm;""><p>What type of rock is this?</p>","4","class_response","1","train","17","Obsidian","Obsidian","04","true","5","5","",""
"","","","","","","","","","","","html-button-response","138","2.0.0","560998","6681a4d12c54df1452c59833","1","39","2210","","","","","","","","","<img src= rock_img/I_Obsidian_04.jpg style=""width:8cm; height:6.930000000000001cm;""><p style='font-size: 30px; color: green;'><strong>Correct!</strong></p><p style='font-size: 30px;'><strong>This rock is obsidian</strong></p>","0","corr_feedback","1","train","17","","","","","","","",""
"","","","","","","","","","","","html-button-response","139","2.0.0","569395","6681a4d12c54df1452c59833","1","39","8391","","","","","","","","","<img src= ""rock_img/I_Basalt_09.jpg"" style=""width:8cm; height:6.2cm;""><p>What type of rock is this?</p>","0","class_response","1","train","18","Andesite","Basalt","09","false","1","2","",""
"","","","","","","","","","","","html-button-response","140","2.0.0","582365","6681a4d12c54df1452c59833","1","39","12966","","","","","","","","","<img src= rock_img/I_Basalt_09.jpg style=""width:8cm; height:6.2cm;""><p style='font-size: 30px; color: red;'><strong>Incorrect!</strong></p><p style='font-size: 30px;'><strong>This rock is basalt</strong></p>","0","corr_feedback","1","train","18","","","","","","","",""
"","","","","","","","","","","","html-button-response","141","2.0.0","586188","6681a4d12c54df1452c59833","1","39","3817","","","","","","","","","<img src= ""rock_img/I_Basalt_04.jpg"" style=""width:8cm; height:7.53cm;""><p>What type of rock is this?</p>","4","class_response","1","train","19","Obsidian","Basalt","04","false","5","2","",""
"","","","","","","","","","","","html-button-response","142","2.0.0","589753","6681a4d12c54df1452c59833","1","39","3561","","","","","","","","","<img src= rock_img/I_Basalt_04.jpg style=""width:8cm; height:7.53cm;""><p style='font-size: 30px; color: red;'><strong>Incorrect!</strong></p><p style='font-size: 30px;'><strong>This rock is basalt</strong></p>","0","corr_feedback","1","train","19","","","","","","","",""
"","","","","","","","","","","","html-button-response","143","2.0.0","593057","6681a4d12c54df1452c59833","1","39","3298","","","","","","","","","<img src= ""rock_img/I_Pumice_08.jpg"" style=""width:8cm; height:6.67cm;""><p>What type of rock is this?</p>","7","class_response","1","train","20","Pumice","Pumice","08","true","8","8","",""
"","","","","","","","","","","","html-button-response","144","2.0.0","596191","6681a4d12c54df1452c59833","1","39","3129","","","","","","","","","<img src= rock_img/I_Pumice_08.jpg style=""width:8cm; height:6.67cm;""><p style='font-size: 30px; color: green;'><strong>Correct!</strong></p><p style='font-size: 30px;'><strong>This rock is pumice</strong></p>","0","corr_feedback","1","train","20","","","","","","","",""
"","","","","","","","","","","","html-button-response","145","2.0.0","598103","6681a4d12c54df1452c59833","1","39","1907","","","","","","","","","<img src= ""rock_img/I_Obsidian_02.jpg"" style=""width:8cm; height:7.51cm;""><p>What type of rock is this?</p>","4","class_response","1","train","21","Obsidian","Obsidian","02","true","5","5","",""
"","","","","","","","","","","","html-button-response","146","2.0.0","600093","6681a4d12c54df1452c59833","1","39","1986","","","","","","","","","<img src= rock_img/I_Obsidian_02.jpg style=""width:8cm; height:7.51cm;""><p style='font-size: 30px; color: green;'><strong>Correct!</strong></p><p style='font-size: 30px;'><strong>This rock is obsidian</strong></p>","0","corr_feedback","1","train","21","","","","","","","",""
"","","","","","","","","","","","html-button-response","147","2.0.0","605370","6681a4d12c54df1452c59833","1","39","5272","","","","","","","","","<img src= ""rock_img/I_Andesite_14.jpg"" style=""width:8cm; height:5.449999999999999cm;""><p>What type of rock is this?</p>","0","class_response","1","train","22","Andesite","Andesite","14","true","1","1","",""
"","","","","","","","","","","","html-button-response","148","2.0.0","607673","6681a4d12c54df1452c59833","1","39","2299","","","","","","","","","<img src= rock_img/I_Andesite_14.jpg style=""width:8cm; height:5.449999999999999cm;""><p style='font-size: 30px; color: green;'><strong>Correct!</strong></p><p style='font-size: 30px;'><strong>This rock is andesite</strong></p>","0","corr_feedback","1","train","22","","","","","","","",""
"","","","","","","","","","","","html-button-response","149","2.0.0","615287","6681a4d12c54df1452c59833","1","39","7608","","","","","","","","","<img src= ""rock_img/I_Basalt_14.jpg"" style=""width:8cm; height:5.82cm;""><p>What type of rock is this?</p>","3","class_response","1","train","23","Gabbro","Basalt","14","false","4","2","",""
"","","","","","","","","","","","html-button-response","150","2.0.0","619244","6681a4d12c54df1452c59833","1","39","3953","","","","","","","","","<img src= rock_img/I_Basalt_14.jpg style=""width:8cm; height:5.82cm;""><p style='font-size: 30px; color: red;'><strong>Incorrect!</strong></p><p style='font-size: 30px;'><strong>This rock is basalt</strong></p>","0","corr_feedback","1","train","23","","","","","","","",""
"","","","","","","","","","","","html-button-response","151","2.0.0","624266","6681a4d12c54df1452c59833","1","39","5018","","","","","","","","","<img src= ""rock_img/I_Basalt_11.jpg"" style=""width:8cm; height:5.359999999999999cm;""><p>What type of rock is this?</p>","0","class_response","1","train","24","Andesite","Basalt","11","false","1","2","",""
"","","","","","","","","","","","html-button-response","152","2.0.0","628712","6681a4d12c54df1452c59833","1","39","4441","","","","","","","","","<img src= rock_img/I_Basalt_11.jpg style=""width:8cm; height:5.359999999999999cm;""><p style='font-size: 30px; color: red;'><strong>Incorrect!</strong></p><p style='font-size: 30px;'><strong>This rock is basalt</strong></p>","0","corr_feedback","1","train","24","","","","","","","",""
"","","","","","","","","","","","html-button-response","153","2.0.0","630784","6681a4d12c54df1452c59833","1","39","2067","","","","","","","","","<img src= ""rock_img/I_Obsidian_09.jpg"" style=""width:8cm; height:5cm;""><p>What type of rock is this?</p>","4","class_response","1","train","25","Obsidian","Obsidian","09","true","5","5","",""
"","","","","","","","","","","","html-button-response","154","2.0.0","633398","6681a4d12c54df1452c59833","1","39","2610","","","","","","","","","<img src= rock_img/I_Obsidian_09.jpg style=""width:8cm; height:5cm;""><p style='font-size: 30px; color: green;'><strong>Correct!</strong></p><p style='font-size: 30px;'><strong>This rock is obsidian</strong></p>","0","corr_feedback","1","train","25","","","","","","","",""
"","","","","","","","","","","","html-button-response","155","2.0.0","637869","6681a4d12c54df1452c59833","1","39","4465","","","","","","","","","<img src= ""rock_img/I_Gabbro_03.jpg"" style=""width:8cm; height:8.52cm;""><p>What type of rock is this?</p>","7","class_response","1","train","26","Pumice","Gabbro","03","false","8","4","",""
"","","","","","","","","","","","html-button-response","156","2.0.0","645050","6681a4d12c54df1452c59833","1","39","7176","","","","","","","","","<img src= rock_img/I_Gabbro_03.jpg style=""width:8cm; height:8.52cm;""><p style='font-size: 30px; color: red;'><strong>Incorrect!</strong></p><p style='font-size: 30px;'><strong>This rock is gabbro</strong></p>","0","corr_feedback","1","train","26","","","","","","","",""
"","","","","","","","","","","","html-button-response","157","2.0.0","648536","6681a4d12c54df1452c59833","1","39","3480","","","","","","","","","<img src= ""rock_img/I_Pumice_15.jpg"" style=""width:8cm; height:7.86cm;""><p>What type of rock is this?</p>","2","class_response","1","train","27","Diorite","Pumice","15","false","3","8","",""
"","","","","","","","","","","","html-button-response","158","2.0.0","652413","6681a4d12c54df1452c59833","1","39","3873","","","","","","","","","<img src= rock_img/I_Pumice_15.jpg style=""width:8cm; height:7.86cm;""><p style='font-size: 30px; color: red;'><strong>Incorrect!</strong></p><p style='font-size: 30px;'><strong>This rock is pumice</strong></p>","0","corr_feedback","1","train","27","","","","","","","",""
"","","","","","","","","","","","html-button-response","159","2.0.0","657740","6681a4d12c54df1452c59833","1","39","5322","","","","","","","","","<img src= ""rock_img/I_Diorite_02.jpg"" style=""width:8cm; height:6.27cm;""><p>What type of rock is this?</p>","6","class_response","1","train","28","Peridotite","Diorite","02","false","7","3","",""
"","","","","","","","","","","","html-button-response","160","2.0.0","661209","6681a4d12c54df1452c59833","1","39","3465","","","","","","","","","<img src= rock_img/I_Diorite_02.jpg style=""width:8cm; height:6.27cm;""><p style='font-size: 30px; color: red;'><strong>Incorrect!</strong></p><p style='font-size: 30px;'><strong>This rock is diorite</strong></p>","0","corr_feedback","1","train","28","","","","","","","",""
"","","","","","","","","","","","html-button-response","161","2.0.0","663247","6681a4d12c54df1452c59833","1","39","2033","","","","","","","","","<img src= ""rock_img/I_Diorite_16.jpg"" style=""width:8cm; height:6.74cm;""><p>What type of rock is this?</p>","6","class_response","1","train","29","Peridotite","Diorite","16","false","7","3","",""
"","","","","","","","","","","","html-button-response","162","2.0.0","664672","6681a4d12c54df1452c59833","1","39","1423","","","","","","","","","<img src= rock_img/I_Diorite_16.jpg style=""width:8cm; height:6.74cm;""><p style='font-size: 30px; color: red;'><strong>Incorrect!</strong></p><p style='font-size: 30px;'><strong>This rock is diorite</strong></p>","0","corr_feedback","1","train","29","","","","","","","",""
"","","","","","","","","","","","html-button-response","163","2.0.0","667392","6681a4d12c54df1452c59833","1","39","2714","","","","","","","","","<img src= ""rock_img/I_Pumice_02.jpg"" style=""width:8cm; height:7.3999999999999995cm;""><p>What type of rock is this?</p>","7","class_response","1","train","30","Pumice","Pumice","02","true","8","8","",""
"","","","","","","","","","","","html-button-response","164","2.0.0","669949","6681a4d12c54df1452c59833","1","39","2552","","","","","","","","","<img src= rock_img/I_Pumice_02.jpg style=""width:8cm; height:7.3999999999999995cm;""><p style='font-size: 30px; color: green;'><strong>Correct!</strong></p><p style='font-size: 30px;'><strong>This rock is pumice</strong></p>","0","corr_feedback","1","train","30","","","","","","","",""
"","","","","","","","","","","","html-button-response","165","2.0.0","675459","6681a4d12c54df1452c59833","1","39","5505","","","","","","","","","<img src= ""rock_img/I_Peridotite_08.jpg"" style=""width:8cm; height:6.7cm;""><p>What type of rock is this?</p>","3","class_response","1","train","31","Gabbro","Peridotite","08","false","4","7","",""
"","","","","","","","","","","","html-button-response","166","2.0.0","705134","6681a4d12c54df1452c59833","1","39","29671","","","","","","","","","<img src= rock_img/I_Peridotite_08.jpg style=""width:8cm; height:6.7cm;""><p style='font-size: 30px; color: red;'><strong>Incorrect!</strong></p><p style='font-size: 30px;'><strong>This rock is peridotite</strong></p>","0","corr_feedback","1","train","31","","","","","","","",""
"","","","","","","","","","","","html-button-response","167","2.0.0","710931","6681a4d12c54df1452c59833","1","39","5792","","","","","","","","","<img src= ""rock_img/I_Pegmatite_15.jpg"" style=""width:8cm; height:6cm;""><p>What type of rock is this?</p>","0","class_response","1","train","32","Andesite","Pegmatite","15","false","1","6","",""
"","","","","","","","","","","","html-button-response","168","2.0.0","716928","6681a4d12c54df1452c59833","1","39","5992","","","","","","","","","<img src= rock_img/I_Pegmatite_15.jpg style=""width:8cm; height:6cm;""><p style='font-size: 30px; color: red;'><strong>Incorrect!</strong></p><p style='font-size: 30px;'><strong>This rock is pegmatite</strong></p>","0","corr_feedback","1","train","32","","","","","","","",""
"","","","","","","","","","","","html-button-response","169","2.0.0","720832","6681a4d12c54df1452c59833","1","39","3898","","","","","","","","","<img src= ""rock_img/I_Gabbro_13.jpg"" style=""width:8cm; height:5.08cm;""><p>What type of rock is this?</p>","3","class_response","1","train","33","Gabbro","Gabbro","13","true","4","4","",""
"","","","","","","","","","","","html-button-response","170","2.0.0","1249329","6681a4d12c54df1452c59833","1","39","407922","","","","","","","","","<img src= rock_img/I_Gabbro_13.jpg style=""width:8cm; height:5.08cm;""><p style='font-size: 30px; color: green;'><strong>Correct!</strong></p><p style='font-size: 30px;'><strong>This rock is gabbro</strong></p>","0","corr_feedback","1","train","33","","","","","","","",""
"","","","","","","","","","","","html-button-response","171","2.0.0","1251361","6681a4d12c54df1452c59833","1","39","2028","","","","","","","","","<img src= ""rock_img/I_Pegmatite_05.jpg"" style=""width:8cm; height:7.300000000000001cm;""><p>What type of rock is this?</p>","2","class_response","1","train","34","Diorite","Pegmatite","05","false","3","6","",""
"","","","","","","","","","","","html-button-response","172","2.0.0","1252616","6681a4d12c54df1452c59833","1","39","1253","","","","","","","","","<img src= rock_img/I_Pegmatite_05.jpg style=""width:8cm; height:7.300000000000001cm;""><p style='font-size: 30px; color: red;'><strong>Incorrect!</strong></p><p style='font-size: 30px;'><strong>This rock is pegmatite</strong></p>","0","corr_feedback","1","train","34","","","","","","","",""
"","","","","","","","","","","","html-button-response","173","2.0.0","1255042","6681a4d12c54df1452c59833","1","39","2422","","","","","","","","","<img src= ""rock_img/I_Peridotite_05.jpg"" style=""width:8cm; height:7.1499999999999995cm;""><p>What type of rock is this?</p>","5","class_response","1","train","35","Pegmatite","Peridotite","05","false","6","7","",""
"","","","","","","","","","","","html-button-response","174","2.0.0","1256857","6681a4d12c54df1452c59833","1","39","1809","","","","","","","","","<img src= rock_img/I_Peridotite_05.jpg style=""width:8cm; height:7.1499999999999995cm;""><p style='font-size: 30px; color: red;'><strong>Incorrect!</strong></p><p style='font-size: 30px;'><strong>This rock is peridotite</strong></p>","0","corr_feedback","1","train","35","","","","","","","",""
"","","","","","","","","","","","html-button-response","175","2.0.0","1258191","6681a4d12c54df1452c59833","1","39","1327","","","","","","","","","<img src= ""rock_img/I_Pegmatite_07.jpg"" style=""width:8cm; height:6.7cm;""><p>What type of rock is this?</p>","7","class_response","1","train","36","Pumice","Pegmatite","07","false","8","6","",""
"","","","","","","","","","","","html-button-response","176","2.0.0","1276295","6681a4d12c54df1452c59833","1","39","18100","","","","","","","","","<img src= rock_img/I_Pegmatite_07.jpg style=""width:8cm; height:6.7cm;""><p style='font-size: 30px; color: red;'><strong>Incorrect!</strong></p><p style='font-size: 30px;'><strong>This rock is pegmatite</strong></p>","0","corr_feedback","1","train","36","","","","","","","",""
"","","","","","","","","","","","html-button-response","177","2.0.0","1277527","6681a4d12c54df1452c59833","1","39","1228","","","","","","","","","<img src= ""rock_img/I_Obsidian_06.jpg"" style=""width:8cm; height:6.8cm;""><p>What type of rock is this?</p>","4","class_response","1","train","37","Obsidian","Obsidian","06","true","5","5","",""
"","","","","","","","","","","","html-button-response","178","2.0.0","1279453","6681a4d12c54df1452c59833","1","39","1922","","","","","","","","","<img src= rock_img/I_Obsidian_06.jpg style=""width:8cm; height:6.8cm;""><p style='font-size: 30px; color: green;'><strong>Correct!</strong></p><p style='font-size: 30px;'><strong>This rock is obsidian</strong></p>","0","corr_feedback","1","train","37","","","","","","","",""
"","","","","","","","","","","","html-button-response","179","2.0.0","1281342","6681a4d12c54df1452c59833","1","39","1883","","","","","","","","","<img src= ""rock_img/I_Pumice_09.jpg"" style=""width:8cm; height:6.44cm;""><p>What type of rock is this?</p>","7","class_response","1","train","38","Pumice","Pumice","09","true","8","8","",""
"","","","","","","","","","","","html-button-response","180","2.0.0","1282723","6681a4d12c54df1452c59833","1","39","1379","","","","","","","","","<img src= rock_img/I_Pumice_09.jpg style=""width:8cm; height:6.44cm;""><p style='font-size: 30px; color: green;'><strong>Correct!</strong></p><p style='font-size: 30px;'><strong>This rock is pumice</strong></p>","0","corr_feedback","1","train","38","","","","","","","",""
"","","","","","","","","","","","html-button-response","181","2.0.0","1285011","6681a4d12c54df1452c59833","1","39","2282","","","","","","","","","<img src= ""rock_img/I_Diorite_08.jpg"" style=""width:8cm; height:6.37cm;""><p>What type of rock is this?</p>","5","class_response","1","train","39","Pegmatite","Diorite","08","false","6","3","",""
"","","","","","","","","","","","html-button-response","182","2.0.0","1286323","6681a4d12c54df1452c59833","1","39","1307","","","","","","","","","<img src= rock_img/I_Diorite_08.jpg style=""width:8cm; height:6.37cm;""><p style='font-size: 30px; color: red;'><strong>Incorrect!</strong></p><p style='font-size: 30px;'><strong>This rock is diorite</strong></p>","0","corr_feedback","1","train","39","","","","","","","",""
"","","","","","","","","","","","html-button-response","183","2.0.0","1288170","6681a4d12c54df1452c59833","1","39","1842","","","","","","","","","<img src= ""rock_img/I_Pegmatite_03.jpg"" style=""width:8cm; height:5.239999999999999cm;""><p>What type of rock is this?</p>","6","class_response","1","train","40","Peridotite","Pegmatite","03","false","7","6","",""
"","","","","","","","","","","","html-button-response","184","2.0.0","1288931","6681a4d12c54df1452c59833","1","39","757","","","","","","","","","<img src= rock_img/I_Pegmatite_03.jpg style=""width:8cm; height:5.239999999999999cm;""><p style='font-size: 30px; color: red;'><strong>Incorrect!</strong></p><p style='font-size: 30px;'><strong>This rock is pegmatite</strong></p>","0","corr_feedback","1","train","40","","","","","","","",""
"","","","","","","","","","","","html-button-response","185","2.0.0","1289817","6681a4d12c54df1452c59833","1","39","883","","","","","","","","","<img src= ""rock_img/I_Pumice_13.jpg"" style=""width:8cm; height:8.200000000000001cm;""><p>What type of rock is this?</p>","1","class_response","1","train","41","Basalt","Pumice","13","false","2","8","",""
"","","","","","","","","","","","html-button-response","186","2.0.0","1290544","6681a4d12c54df1452c59833","1","39","723","","","","","","","","","<img src= rock_img/I_Pumice_13.jpg style=""width:8cm; height:8.200000000000001cm;""><p style='font-size: 30px; color: red;'><strong>Incorrect!</strong></p><p style='font-size: 30px;'><strong>This rock is pumice</strong></p>","0","corr_feedback","1","train","41","","","","","","","",""
"","","","","","","","","","","","html-button-response","187","2.0.0","1291296","6681a4d12c54df1452c59833","1","39","747","","","","","","","","","<img src= ""rock_img/I_Basalt_08.jpg"" style=""width:8cm; height:10.44cm;""><p>What type of rock is this?</p>","2","class_response","1","train","42","Diorite","Basalt","08","false","3","2","",""
"","","","","","","","","","","","html-button-response","188","2.0.0","1291967","6681a4d12c54df1452c59833","1","39","667","","","","","","","","","<img src= rock_img/I_Basalt_08.jpg style=""width:8cm; height:10.44cm;""><p style='font-size: 30px; color: red;'><strong>Incorrect!</strong></p><p style='font-size: 30px;'><strong>This rock is basalt</strong></p>","0","corr_feedback","1","train","42","","","","","","","",""
"","","","","","","","","","","","html-button-response","189","2.0.0","1295166","6681a4d12c54df1452c59833","1","39","3194","","","","","","","","","<img src= ""rock_img/I_Gabbro_11.jpg"" style=""width:8cm; height:6.2cm;""><p>What type of rock is this?</p>","3","class_response","1","train","43","Gabbro","Gabbro","11","true","4","4","",""
"","","","","","","","","","","","html-button-response","190","2.0.0","1296349","6681a4d12c54df1452c59833","1","39","1180","","","","","","","","","<img src= rock_img/I_Gabbro_11.jpg style=""width:8cm; height:6.2cm;""><p style='font-size: 30px; color: green;'><strong>Correct!</strong></p><p style='font-size: 30px;'><strong>This rock is gabbro</strong></p>","0","corr_feedback","1","train","43","","","","","","","",""
"","","","","","","","","","","","html-button-response","191","2.0.0","1298445","6681a4d12c54df1452c59833","1","39","2090","","","","","","","","","<img src= ""rock_img/I_Diorite_11.jpg"" style=""width:8cm; height:7.11cm;""><p>What type of rock is this?</p>","2","class_response","1","train","44","Diorite","Diorite","11","true","3","3","",""
"","","","","","","","","","","","html-button-response","192","2.0.0","1300484","6681a4d12c54df1452c59833","1","39","2034","","","","","","","","","<img src= rock_img/I_Diorite_11.jpg style=""width:8cm; height:7.11cm;""><p style='font-size: 30px; color: green;'><strong>Correct!</strong></p><p style='font-size: 30px;'><strong>This rock is diorite</strong></p>","0","corr_feedback","1","train","44","","","","","","","",""
"","","","","","","","","","","","html-button-response","193","2.0.0","1302021","6681a4d12c54df1452c59833","1","39","1531","","","","","","","","","<img src= ""rock_img/I_Obsidian_07.jpg"" style=""width:8cm; height:4.76cm;""><p>What type of rock is this?</p>","4","class_response","1","train","45","Obsidian","Obsidian","07","true","5","5","",""
"","","","","","","","","","","","html-button-response","194","2.0.0","1303658","6681a4d12c54df1452c59833","1","39","1633","","","","","","","","","<img src= rock_img/I_Obsidian_07.jpg style=""width:8cm; height:4.76cm;""><p style='font-size: 30px; color: green;'><strong>Correct!</strong></p><p style='font-size: 30px;'><strong>This rock is obsidian</strong></p>","0","corr_feedback","1","train","45","","","","","","","",""
"","","","","","","","","","","","html-button-response","195","2.0.0","1306674","6681a4d12c54df1452c59833","1","39","3011","","","","","","","","","<img src= ""rock_img/I_Pumice_05.jpg"" style=""width:8cm; height:7.25cm;""><p>What type of rock is this?</p>","3","class_response","1","train","46","Gabbro","Pumice","05","false","4","8","",""
"","","","","","","","","","","","html-button-response","196","2.0.0","1307704","6681a4d12c54df1452c59833","1","39","1026","","","","","","","","","<img src= rock_img/I_Pumice_05.jpg style=""width:8cm; height:7.25cm;""><p style='font-size: 30px; color: red;'><strong>Incorrect!</strong></p><p style='font-size: 30px;'><strong>This rock is pumice</strong></p>","0","corr_feedback","1","train","46","","","","","","","",""
"","","","","","","","","","","","html-button-response","197","2.0.0","1309904","6681a4d12c54df1452c59833","1","39","2194","","","","","","","","","<img src= ""rock_img/I_Peridotite_12.jpg"" style=""width:8cm; height:4.54cm;""><p>What type of rock is this?</p>","2","class_response","1","train","47","Diorite","Peridotite","12","false","3","7","",""
"","","","","","","","","","","","html-button-response","198","2.0.0","1310992","6681a4d12c54df1452c59833","1","39","1084","","","","","","","","","<img src= rock_img/I_Peridotite_12.jpg style=""width:8cm; height:4.54cm;""><p style='font-size: 30px; color: red;'><strong>Incorrect!</strong></p><p style='font-size: 30px;'><strong>This rock is peridotite</strong></p>","0","corr_feedback","1","train","47","","","","","","","",""
"","","","","","","","","","","","html-button-response","199","2.0.0","1312069","6681a4d12c54df1452c59833","1","39","1073","","","","","","","","","<img src= ""rock_img/I_Pegmatite_10.jpg"" style=""width:8cm; height:4.16cm;""><p>What type of rock is this?</p>","5","class_response","1","train","48","Pegmatite","Pegmatite","10","true","6","6","",""
"","","","","","","","","","","","html-button-response","200","2.0.0","1312710","6681a4d12c54df1452c59833","1","39","639","","","","","","","","","<img src= rock_img/I_Pegmatite_10.jpg style=""width:8cm; height:4.16cm;""><p style='font-size: 30px; color: green;'><strong>Correct!</strong></p><p style='font-size: 30px;'><strong>This rock is pegmatite</strong></p>","0","corr_feedback","1","train","48","","","","","","","",""
"","","","","","","","","","","","instructions","203","2.0.0","1323986","6681a4d12c54df1452c59833","1","39","11270","","","","","","","","[{""page_index"":0,""viewing_time"":9055},{""page_index"":1,""viewing_time"":2214}]","","","","","","","","","","","","","",""
"","","","","","","","","","","","html-button-response","204","2.0.0","1326112","6681a4d12c54df1452c59833","1","39","2123","","","","","","","","","","0","start_test","","","","","","","","","","",""
"","","","","","","","","","","","html-button-response","205","2.0.0","1330135","6681a4d12c54df1452c59833","1","39","4017","","","","","","","","","<img src= ""rock_img/I_Gabbro_15.jpg"" style=""width:8cm; height:6.29cm;""><p>What type of rock is this?</p>","3","class_response","1","test","1","Gabbro","Gabbro","15","true","4","4","",""
"","","","","","","","","","","","html-keyboard-response","206","2.0.0","1330639","6681a4d12c54df1452c59833","1","39","null","","","","","","","","","<p style='font-size: 30px;'><strong>Okay</strong></p>","null","neutral_feedback","1","test","1","","","","","","","",""
"","","","","","","","","","","","html-button-response","207","2.0.0","1332446","6681a4d12c54df1452c59833","1","39","1802","","","","","","","","","<img src= ""rock_img/I_Pumice_06.jpg"" style=""width:8cm; height:6.9399999999999995cm;""><p>What type of rock is this?</p>","7","class_response","1","test","2","Pumice","Pumice","06","true","8","8","",""
"","","","","","","","","","","","html-keyboard-response","208","2.0.0","1332949","6681a4d12c54df1452c59833","1","39","null","","","","","","","","","<p style='font-size: 30px;'><strong>Okay</strong></p>","null","neutral_feedback","1","test","2","","","","","","","",""
"","","","","","","","","","","","html-button-response","209","2.0.0","1335581","6681a4d12c54df1452c59833","1","39","2627","","","","","","","","","<img src= ""rock_img/I_Pumice_04.jpg"" style=""width:8cm; height:6.819999999999999cm;""><p>What type of rock is this?</p>","7","class_response","1","test","3","Pumice","Pumice","04","true","8","8","",""
"","","","","","","","","","","","html-keyboard-response","210","2.0.0","1336084","6681a4d12c54df1452c59833","1","39","null","","","","","","","","","<p style='font-size: 30px;'><strong>Okay</strong></p>","null","neutral_feedback","1","test","3","","","","","","","",""
"","","","","","","","","","","","html-button-response","211","2.0.0","1338475","6681a4d12c54df1452c59833","1","39","2386","","","","","","","","","<img src= ""rock_img/I_Andesite_10.jpg"" style=""width:8cm; height:4.16cm;""><p>What type of rock is this?</p>","2","class_response","1","test","4","Diorite","Andesite","10","false","3","1","",""
"","","","","","","","","","","","html-keyboard-response","212","2.0.0","1338978","6681a4d12c54df1452c59833","1","39","null","","","","","","","","","<p style='font-size: 30px;'><strong>Okay</strong></p>","null","neutral_feedback","1","test","4","","","","","","","",""
"","","","","","","","","","","","html-button-response","213","2.0.0","1341499","6681a4d12c54df1452c59833","1","39","2515","","","","","","","","","<img src= ""rock_img/I_Pegmatite_16.jpg"" style=""width:8cm; height:5.8cm;""><p>What type of rock is this?</p>","6","class_response","1","test","5","Peridotite","Pegmatite","16","false","7","6","",""
"","","","","","","","","","","","html-keyboard-response","214","2.0.0","1342002","6681a4d12c54df1452c59833","1","39","null","","","","","","","","","<p style='font-size: 30px;'><strong>Okay</strong></p>","null","neutral_feedback","1","test","5","","","","","","","",""
"","","","","","","","","","","","html-button-response","215","2.0.0","1344465","6681a4d12c54df1452c59833","1","39","2459","","","","","","","","","<img src= ""rock_img/I_Andesite_03.jpg"" style=""width:8cm; height:5.73cm;""><p>What type of rock is this?</p>","1","class_response","1","test","6","Basalt","Andesite","03","false","2","1","",""
"","","","","","","","","","","","html-keyboard-response","216","2.0.0","1344968","6681a4d12c54df1452c59833","1","39","null","","","","","","","","","<p style='font-size: 30px;'><strong>Okay</strong></p>","null","neutral_feedback","1","test","6","","","","","","","",""
"","","","","","","","","","","","html-button-response","217","2.0.0","1347400","6681a4d12c54df1452c59833","1","39","2427","","","","","","","","","<img src= ""rock_img/I_Diorite_06.jpg"" style=""width:8cm; height:6.03cm;""><p>What type of rock is this?</p>","5","class_response","1","test","7","Pegmatite","Diorite","06","false","6","3","",""
"","","","","","","","","","","","html-keyboard-response","218","2.0.0","1347903","6681a4d12c54df1452c59833","1","39","null","","","","","","","","","<p style='font-size: 30px;'><strong>Okay</strong></p>","null","neutral_feedback","1","test","7","","","","","","","",""
"","","","","","","","","","","","html-button-response","219","2.0.0","1352126","6681a4d12c54df1452c59833","1","39","4218","","","","","","","","","<img src= ""rock_img/I_Basalt_02.jpg"" style=""width:8cm; height:6.45cm;""><p>What type of rock is this?</p>","4","class_response","1","test","8","Obsidian","Basalt","02","false","5","2","",""
"","","","","","","","","","","","html-keyboard-response","220","2.0.0","1352629","6681a4d12c54df1452c59833","1","39","null","","","","","","","","","<p style='font-size: 30px;'><strong>Okay</strong></p>","null","neutral_feedback","1","test","8","","","","","","","",""
"","","","","","","","","","","","html-button-response","221","2.0.0","1456326","6681a4d12c54df1452c59833","1","39","103692","","","","","","","","","<img src= ""rock_img/I_Obsidian_08.jpg"" style=""width:8cm; height:7.39cm;""><p>What type of rock is this?</p>","4","class_response","1","test","9","Obsidian","Obsidian","08","true","5","5","",""
"","","","","","","","","","","","html-keyboard-response","222","2.0.0","1456829","6681a4d12c54df1452c59833","1","39","null","","","","","","","","","<p style='font-size: 30px;'><strong>Okay</strong></p>","null","neutral_feedback","1","test","9","","","","","","","",""
"","","","","","","","","","","","html-button-response","223","2.0.0","1459478","6681a4d12c54df1452c59833","1","39","2643","","","","","","","","","<img src= ""rock_img/I_Pegmatite_06.jpg"" style=""width:8cm; height:5.17cm;""><p>What type of rock is this?</p>","2","class_response","1","test","10","Diorite","Pegmatite","06","false","3","6","",""
"","","","","","","","","","","","html-keyboard-response","224","2.0.0","1459981","6681a4d12c54df1452c59833","1","39","null","","","","","","","","","<p style='font-size: 30px;'><strong>Okay</strong></p>","null","neutral_feedback","1","test","10","","","","","","","",""
"","","","","","","","","","","","html-button-response","225","2.0.0","1462044","6681a4d12c54df1452c59833","1","39","2060","","","","","","","","","<img src= ""rock_img/I_Obsidian_14.jpg"" style=""width:8cm; height:7.64cm;""><p>What type of rock is this?</p>","4","class_response","1","test","11","Obsidian","Obsidian","14","true","5","5","",""
"","","","","","","","","","","","html-keyboard-response","226","2.0.0","1462547","6681a4d12c54df1452c59833","1","39","null","","","","","","","","","<p style='font-size: 30px;'><strong>Okay</strong></p>","null","neutral_feedback","1","test","11","","","","","","","",""
"","","","","","","","","","","","html-button-response","227","2.0.0","1465818","6681a4d12c54df1452c59833","1","39","3266","","","","","","","","","<img src= ""rock_img/I_Peridotite_16.jpg"" style=""width:8cm; height:6.989999999999999cm;""><p>What type of rock is this?</p>","0","class_response","1","test","12","Andesite","Peridotite","16","false","1","7","",""
"","","","","","","","","","","","html-keyboard-response","228","2.0.0","1466321","6681a4d12c54df1452c59833","1","39","null","","","","","","","","","<p style='font-size: 30px;'><strong>Okay</strong></p>","null","neutral_feedback","1","test","12","","","","","","","",""
"","","","","","","","","","","","html-button-response","229","2.0.0","1468113","6681a4d12c54df1452c59833","1","39","1787","","","","","","","","","<img src= ""rock_img/I_Peridotite_06.jpg"" style=""width:8cm; height:7.53cm;""><p>What type of rock is this?</p>","2","class_response","1","test","13","Diorite","Peridotite","06","false","3","7","",""
"","","","","","","","","","","","html-keyboard-response","230","2.0.0","1468616","6681a4d12c54df1452c59833","1","39","null","","","","","","","","","<p style='font-size: 30px;'><strong>Okay</strong></p>","null","neutral_feedback","1","test","13","","","","","","","",""
"","","","","","","","","","","","html-button-response","231","2.0.0","1470537","6681a4d12c54df1452c59833","1","39","1916","","","","","","","","","<img src= ""rock_img/I_Obsidian_16.jpg"" style=""width:8cm; height:9.3cm;""><p>What type of rock is this?</p>","4","class_response","1","test","14","Obsidian","Obsidian","16","true","5","5","",""
"","","","","","","","","","","","html-keyboard-response","232","2.0.0","1471040","6681a4d12c54df1452c59833","1","39","null","","","","","","","","","<p style='font-size: 30px;'><strong>Okay</strong></p>","null","neutral_feedback","1","test","14","","","","","","","",""
"","","","","","","","","","","","html-button-response","233","2.0.0","1477038","6681a4d12c54df1452c59833","1","39","5993","","","","","","","","","<img src= ""rock_img/I_Gabbro_09.jpg"" style=""width:8cm; height:7.279999999999999cm;""><p>What type of rock is this?</p>","3","class_response","1","test","15","Gabbro","Gabbro","09","true","4","4","",""
"","","","","","","","","","","","html-keyboard-response","234","2.0.0","1477540","6681a4d12c54df1452c59833","1","39","null","","","","","","","","","<p style='font-size: 30px;'><strong>Okay</strong></p>","null","neutral_feedback","1","test","15","","","","","","","",""
"","","","","","","","","","","","html-button-response","235","2.0.0","1480939","6681a4d12c54df1452c59833","1","39","3395","","","","","","","","","<img src= ""rock_img/I_Pegmatite_11.jpg"" style=""width:8cm; height:8.14cm;""><p>What type of rock is this?</p>","6","class_response","1","test","16","Peridotite","Pegmatite","11","false","7","6","",""
"","","","","","","","","","","","html-keyboard-response","236","2.0.0","1481443","6681a4d12c54df1452c59833","1","39","null","","","","","","","","","<p style='font-size: 30px;'><strong>Okay</strong></p>","null","neutral_feedback","1","test","16","","","","","","","",""
"","","","","","","","","","","","html-button-response","237","2.0.0","1483106","6681a4d12c54df1452c59833","1","39","1659","","","","","","","","","<img src= ""rock_img/I_Andesite_16.jpg"" style=""width:8cm; height:6.010000000000001cm;""><p>What type of rock is this?</p>","7","class_response","1","test","17","Pumice","Andesite","16","false","8","1","",""
"","","","","","","","","","","","html-keyboard-response","238","2.0.0","1483610","6681a4d12c54df1452c59833","1","39","null","","","","","","","","","<p style='font-size: 30px;'><strong>Okay</strong></p>","null","neutral_feedback","1","test","17","","","","","","","",""
"","","","","","","","","","","","html-button-response","239","2.0.0","1485792","6681a4d12c54df1452c59833","1","39","2178","","","","","","","","","<img src= ""rock_img/I_Diorite_14.jpg"" style=""width:8cm; height:5.71cm;""><p>What type of rock is this?</p>","5","class_response","1","test","18","Pegmatite","Diorite","14","false","6","3","",""
"","","","","","","","","","","","html-keyboard-response","240","2.0.0","1486293","6681a4d12c54df1452c59833","1","39","null","","","","","","","","","<p style='font-size: 30px;'><strong>Okay</strong></p>","null","neutral_feedback","1","test","18","","","","","","","",""
"","","","","","","","","","","","html-button-response","241","2.0.0","1488568","6681a4d12c54df1452c59833","1","39","2270","","","","","","","","","<img src= ""rock_img/I_Pumice_14.jpg"" style=""width:8cm; height:6.39cm;""><p>What type of rock is this?</p>","7","class_response","1","test","19","Pumice","Pumice","14","true","8","8","",""
"","","","","","","","","","","","html-keyboard-response","242","2.0.0","1489070","6681a4d12c54df1452c59833","1","39","null","","","","","","","","","<p style='font-size: 30px;'><strong>Okay</strong></p>","null","neutral_feedback","1","test","19","","","","","","","",""
"","","","","","","","","","","","html-button-response","243","2.0.0","1492199","6681a4d12c54df1452c59833","1","39","3123","","","","","","","","","<img src= ""rock_img/I_Basalt_05.jpg"" style=""width:8cm; height:8.18cm;""><p>What type of rock is this?</p>","3","class_response","1","test","20","Gabbro","Basalt","05","false","4","2","",""
"","","","","","","","","","","","html-keyboard-response","244","2.0.0","1492702","6681a4d12c54df1452c59833","1","39","null","","","","","","","","","<p style='font-size: 30px;'><strong>Okay</strong></p>","null","neutral_feedback","1","test","20","","","","","","","",""
"","","","","","","","","","","","html-button-response","245","2.0.0","1494651","6681a4d12c54df1452c59833","1","39","1945","","","","","","","","","<img src= ""rock_img/I_Pumice_03.jpg"" style=""width:8cm; height:6.64cm;""><p>What type of rock is this?</p>","7","class_response","1","test","21","Pumice","Pumice","03","true","8","8","",""
"","","","","","","","","","","","html-keyboard-response","246","2.0.0","1495153","6681a4d12c54df1452c59833","1","39","null","","","","","","","","","<p style='font-size: 30px;'><strong>Okay</strong></p>","null","neutral_feedback","1","test","21","","","","","","","",""
"","","","","","","","","","","","html-button-response","247","2.0.0","1497405","6681a4d12c54df1452c59833","1","39","2248","","","","","","","","","<img src= ""rock_img/I_Peridotite_04.jpg"" style=""width:8cm; height:6.680000000000001cm;""><p>What type of rock is this?</p>","5","class_response","1","test","22","Pegmatite","Peridotite","04","false","6","7","",""
"","","","","","","","","","","","html-keyboard-response","248","2.0.0","1497908","6681a4d12c54df1452c59833","1","39","null","","","","","","","","","<p style='font-size: 30px;'><strong>Okay</strong></p>","null","neutral_feedback","1","test","22","","","","","","","",""
"","","","","","","","","","","","html-button-response","249","2.0.0","1961625","6681a4d12c54df1452c59833","1","39","418084","","","","","","","","","<img src= ""rock_img/I_Pegmatite_09.jpg"" style=""width:8cm; height:4.03cm;""><p>What type of rock is this?</p>","2","class_response","1","test","23","Diorite","Pegmatite","09","false","3","6","",""
"","","","","","","","","","","","html-keyboard-response","250","2.0.0","1962128","6681a4d12c54df1452c59833","1","39","null","","","","","","","","","<p style='font-size: 30px;'><strong>Okay</strong></p>","null","neutral_feedback","1","test","23","","","","","","","",""
"","","","","","","","","","","","html-button-response","251","2.0.0","1964464","6681a4d12c54df1452c59833","1","39","2331","","","","","","","","","<img src= ""rock_img/I_Gabbro_12.jpg"" style=""width:8cm; height:7.800000000000001cm;""><p>What type of rock is this?</p>","3","class_response","1","test","24","Gabbro","Gabbro","12","true","4","4","",""
"","","","","","","","","","","","html-keyboard-response","252","2.0.0","1964967","6681a4d12c54df1452c59833","1","39","null","","","","","","","","","<p style='font-size: 30px;'><strong>Okay</strong></p>","null","neutral_feedback","1","test","24","","","","","","","",""
"","","","","","","","","","","","html-button-response","253","2.0.0","1966327","6681a4d12c54df1452c59833","1","39","1356","","","","","","","","","<img src= ""rock_img/I_Diorite_12.jpg"" style=""width:8cm; height:4.88cm;""><p>What type of rock is this?</p>","6","class_response","1","test","25","Peridotite","Diorite","12","false","7","3","",""
"","","","","","","","","","","","html-keyboard-response","254","2.0.0","1966830","6681a4d12c54df1452c59833","1","39","null","","","","","","","","","<p style='font-size: 30px;'><strong>Okay</strong></p>","null","neutral_feedback","1","test","25","","","","","","","",""
"","","","","","","","","","","","html-button-response","255","2.0.0","1967886","6681a4d12c54df1452c59833","1","39","1050","","","","","","","","","<img src= ""rock_img/I_Gabbro_16.jpg"" style=""width:8cm; height:6.44cm;""><p>What type of rock is this?</p>","2","class_response","1","test","26","Diorite","Gabbro","16","false","3","4","",""
"","","","","","","","","","","","html-keyboard-response","256","2.0.0","1968389","6681a4d12c54df1452c59833","1","39","null","","","","","","","","","<p style='font-size: 30px;'><strong>Okay</strong></p>","null","neutral_feedback","1","test","26","","","","","","","",""
"","","","","","","","","","","","html-button-response","257","2.0.0","1969030","6681a4d12c54df1452c59833","1","39","635","","","","","","","","","<img src= ""rock_img/I_Peridotite_02.jpg"" style=""width:8cm; height:5.859999999999999cm;""><p>What type of rock is this?</p>","5","class_response","1","test","27","Pegmatite","Peridotite","02","false","6","7","",""
"","","","","","","","","","","","html-keyboard-response","258","2.0.0","1969533","6681a4d12c54df1452c59833","1","39","null","","","","","","","","","<p style='font-size: 30px;'><strong>Okay</strong></p>","null","neutral_feedback","1","test","27","","","","","","","",""
"","","","","","","","","","","","html-button-response","259","2.0.0","1970861","6681a4d12c54df1452c59833","1","39","1323","","","","","","","","","<img src= ""rock_img/I_Andesite_06.jpg"" style=""width:8cm; height:6.840000000000001cm;""><p>What type of rock is this?</p>","2","class_response","1","test","28","Diorite","Andesite","06","false","3","1","",""
"","","","","","","","","","","","html-keyboard-response","260","2.0.0","1971364","6681a4d12c54df1452c59833","1","39","null","","","","","","","","","<p style='font-size: 30px;'><strong>Okay</strong></p>","null","neutral_feedback","1","test","28","","","","","","","",""
"","","","","","","","","","","","html-button-response","261","2.0.0","1972251","6681a4d12c54df1452c59833","1","39","883","","","","","","","","","<img src= ""rock_img/I_Andesite_05.jpg"" style=""width:8cm; height:4.12cm;""><p>What type of rock is this?</p>","4","class_response","1","test","29","Obsidian","Andesite","05","false","5","1","",""
"","","","","","","","","","","","html-keyboard-response","262","2.0.0","1972753","6681a4d12c54df1452c59833","1","39","null","","","","","","","","","<p style='font-size: 30px;'><strong>Okay</strong></p>","null","neutral_feedback","1","test","29","","","","","","","",""
"","","","","","","","","","","","html-button-response","263","2.0.0","1973476","6681a4d12c54df1452c59833","1","39","718","","","","","","","","","<img src= ""rock_img/I_Gabbro_01.jpg"" style=""width:8cm; height:5.21cm;""><p>What type of rock is this?</p>","6","class_response","1","test","30","Peridotite","Gabbro","01","false","7","4","",""
"","","","","","","","","","","","html-keyboard-response","264","2.0.0","1973980","6681a4d12c54df1452c59833","1","39","null","","","","","","","","","<p style='font-size: 30px;'><strong>Okay</strong></p>","null","neutral_feedback","1","test","30","","","","","","","",""
"","","","","","","","","","","","html-button-response","265","2.0.0","1974851","6681a4d12c54df1452c59833","1","39","865","","","","","","","","","<img src= ""rock_img/I_Pumice_10.jpg"" style=""width:8cm; height:7.609999999999999cm;""><p>What type of rock is this?</p>","3","class_response","1","test","31","Gabbro","Pumice","10","false","4","8","",""
"","","","","","","","","","","","html-keyboard-response","266","2.0.0","1975354","6681a4d12c54df1452c59833","1","39","null","","","","","","","","","<p style='font-size: 30px;'><strong>Okay</strong></p>","null","neutral_feedback","1","test","31","","","","","","","",""
"","","","","","","","","","","","html-button-response","267","2.0.0","1976707","6681a4d12c54df1452c59833","1","39","1348","","","","","","","","","<img src= ""rock_img/I_Gabbro_05.jpg"" style=""width:8cm; height:6cm;""><p>What type of rock is this?</p>","1","class_response","1","test","32","Basalt","Gabbro","05","false","2","4","",""
"","","","","","","","","","","","html-keyboard-response","268","2.0.0","1977210","6681a4d12c54df1452c59833","1","39","null","","","","","","","","","<p style='font-size: 30px;'><strong>Okay</strong></p>","null","neutral_feedback","1","test","32","","","","","","","",""
"","","","","","","","","","","","html-button-response","269","2.0.0","1978410","6681a4d12c54df1452c59833","1","39","1195","","","","","","","","","<img src= ""rock_img/I_Obsidian_10.jpg"" style=""width:8cm; height:6.260000000000001cm;""><p>What type of rock is this?</p>","5","class_response","1","test","33","Pegmatite","Obsidian","10","false","6","5","",""
"","","","","","","","","","","","html-keyboard-response","270","2.0.0","1978913","6681a4d12c54df1452c59833","1","39","null","","","","","","","","","<p style='font-size: 30px;'><strong>Okay</strong></p>","null","neutral_feedback","1","test","33","","","","","","","",""
"","","","","","","","","","","","html-button-response","271","2.0.0","1980489","6681a4d12c54df1452c59833","1","39","1572","","","","","","","","","<img src= ""rock_img/I_Basalt_06.jpg"" style=""width:8cm; height:7.06cm;""><p>What type of rock is this?</p>","4","class_response","1","test","34","Obsidian","Basalt","06","false","5","2","",""
"","","","","","","","","","","","html-keyboard-response","272","2.0.0","1980992","6681a4d12c54df1452c59833","1","39","null","","","","","","","","","<p style='font-size: 30px;'><strong>Okay</strong></p>","null","neutral_feedback","1","test","34","","","","","","","",""
"","","","","","","","","","","","html-button-response","273","2.0.0","1982928","6681a4d12c54df1452c59833","1","39","1932","","","","","","","","","<img src= ""rock_img/I_Andesite_01.jpg"" style=""width:8cm; height:5.87cm;""><p>What type of rock is this?</p>","3","class_response","1","test","35","Gabbro","Andesite","01","false","4","1","",""
"","","","","","","","","","","","html-keyboard-response","274","2.0.0","1983431","6681a4d12c54df1452c59833","1","39","null","","","","","","","","","<p style='font-size: 30px;'><strong>Okay</strong></p>","null","neutral_feedback","1","test","35","","","","","","","",""
"","","","","","","","","","","","html-button-response","275","2.0.0","1985334","6681a4d12c54df1452c59833","1","39","1899","","","","","","","","","<img src= ""rock_img/I_Peridotite_15.jpg"" style=""width:8cm; height:6cm;""><p>What type of rock is this?</p>","1","class_response","1","test","36","Basalt","Peridotite","15","false","2","7","",""
"","","","","","","","","","","","html-keyboard-response","276","2.0.0","1985838","6681a4d12c54df1452c59833","1","39","null","","","","","","","","","<p style='font-size: 30px;'><strong>Okay</strong></p>","null","neutral_feedback","1","test","36","","","","","","","",""
"","","","","","","","","","","","html-button-response","277","2.0.0","1986678","6681a4d12c54df1452c59833","1","39","835","","","","","","","","","<img src= ""rock_img/I_Peridotite_07.jpg"" style=""width:8cm; height:4.83cm;""><p>What type of rock is this?</p>","5","class_response","1","test","37","Pegmatite","Peridotite","07","false","6","7","",""
"","","","","","","","","","","","html-keyboard-response","278","2.0.0","1987182","6681a4d12c54df1452c59833","1","39","null","","","","","","","","","<p style='font-size: 30px;'><strong>Okay</strong></p>","null","neutral_feedback","1","test","37","","","","","","","",""
"","","","","","","","","","","","html-button-response","279","2.0.0","1988229","6681a4d12c54df1452c59833","1","39","1042","","","","","","","","","<img src= ""rock_img/I_Obsidian_05.jpg"" style=""width:8cm; height:6.33cm;""><p>What type of rock is this?</p>","2","class_response","1","test","38","Diorite","Obsidian","05","false","3","5","",""
"","","","","","","","","","","","html-keyboard-response","280","2.0.0","1988732","6681a4d12c54df1452c59833","1","39","null","","","","","","","","","<p style='font-size: 30px;'><strong>Okay</strong></p>","null","neutral_feedback","1","test","38","","","","","","","",""
"","","","","","","","","","","","html-button-response","281","2.0.0","1989845","6681a4d12c54df1452c59833","1","39","1108","","","","","","","","","<img src= ""rock_img/I_Basalt_12.jpg"" style=""width:8cm; height:6.010000000000001cm;""><p>What type of rock is this?</p>","6","class_response","1","test","39","Peridotite","Basalt","12","false","7","2","",""
"","","","","","","","","","","","html-keyboard-response","282","2.0.0","1990349","6681a4d12c54df1452c59833","1","39","null","","","","","","","","","<p style='font-size: 30px;'><strong>Okay</strong></p>","null","neutral_feedback","1","test","39","","","","","","","",""
"","","","","","","","","","","","html-button-response","283","2.0.0","1992148","6681a4d12c54df1452c59833","1","39","1794","","","","","","","","","<img src= ""rock_img/I_Diorite_10.jpg"" style=""width:8cm; height:5.949999999999999cm;""><p>What type of rock is this?</p>","7","class_response","1","test","40","Pumice","Diorite","10","false","8","3","",""
"","","","","","","","","","","","html-keyboard-response","284","2.0.0","1992651","6681a4d12c54df1452c59833","1","39","null","","","","","","","","","<p style='font-size: 30px;'><strong>Okay</strong></p>","null","neutral_feedback","1","test","40","","","","","","","",""
"","","","","","","","","","","","html-button-response","285","2.0.0","1994314","6681a4d12c54df1452c59833","1","39","1658","","","","","","","","","<img src= ""rock_img/I_Diorite_15.jpg"" style=""width:8cm; height:5.54cm;""><p>What type of rock is this?</p>","3","class_response","1","test","41","Gabbro","Diorite","15","false","4","3","",""
"","","","","","","","","","","","html-keyboard-response","286","2.0.0","1994818","6681a4d12c54df1452c59833","1","39","null","","","","","","","","","<p style='font-size: 30px;'><strong>Okay</strong></p>","null","neutral_feedback","1","test","41","","","","","","","",""
"","","","","","","","","","","","html-button-response","287","2.0.0","1996194","6681a4d12c54df1452c59833","1","39","1373","","","","","","","","","<img src= ""rock_img/I_Pegmatite_08.jpg"" style=""width:8cm; height:7.68cm;""><p>What type of rock is this?</p>","1","class_response","1","test","42","Basalt","Pegmatite","08","false","2","6","",""
"","","","","","","","","","","","html-keyboard-response","288","2.0.0","1996697","6681a4d12c54df1452c59833","1","39","null","","","","","","","","","<p style='font-size: 30px;'><strong>Okay</strong></p>","null","neutral_feedback","1","test","42","","","","","","","",""
"","","","","","","","","","","","html-button-response","289","2.0.0","1997985","6681a4d12c54df1452c59833","1","39","1283","","","","","","","","","<img src= ""rock_img/I_Pegmatite_13.jpg"" style=""width:8cm; height:4.95cm;""><p>What type of rock is this?</p>","6","class_response","1","test","43","Peridotite","Pegmatite","13","false","7","6","",""
"","","","","","","","","","","","html-keyboard-response","290","2.0.0","1998488","6681a4d12c54df1452c59833","1","39","null","","","","","","","","","<p style='font-size: 30px;'><strong>Okay</strong></p>","null","neutral_feedback","1","test","43","","","","","","","",""
"","","","","","","","","","","","html-button-response","291","2.0.0","1999799","6681a4d12c54df1452c59833","1","39","1307","","","","","","","","","<img src= ""rock_img/I_Basalt_01.jpg"" style=""width:8cm; height:7.880000000000001cm;""><p>What type of rock is this?</p>","0","class_response","1","test","44","Andesite","Basalt","01","false","1","2","",""
"","","","","","","","","","","","html-keyboard-response","292","2.0.0","2000302","6681a4d12c54df1452c59833","1","39","null","","","","","","","","","<p style='font-size: 30px;'><strong>Okay</strong></p>","null","neutral_feedback","1","test","44","","","","","","","",""
"","","","","","","","","","","","html-button-response","293","2.0.0","2001413","6681a4d12c54df1452c59833","1","39","1107","","","","","","","","","<img src= ""rock_img/I_Basalt_16.jpg"" style=""width:8cm; height:7.659999999999999cm;""><p>What type of rock is this?</p>","1","class_response","1","test","45","Basalt","Basalt","16","true","2","2","",""
"","","","","","","","","","","","html-keyboard-response","294","2.0.0","2001915","6681a4d12c54df1452c59833","1","39","null","","","","","","","","","<p style='font-size: 30px;'><strong>Okay</strong></p>","null","neutral_feedback","1","test","45","","","","","","","",""
"","","","","","","","","","","","html-button-response","295","2.0.0","2003854","6681a4d12c54df1452c59833","1","39","1936","","","","","","","","","<img src= ""rock_img/I_Obsidian_11.jpg"" style=""width:8cm; height:6.05cm;""><p>What type of rock is this?</p>","4","class_response","1","test","46","Obsidian","Obsidian","11","true","5","5","",""
"","","","","","","","","","","","html-keyboard-response","296","2.0.0","2004357","6681a4d12c54df1452c59833","1","39","null","","","","","","","","","<p style='font-size: 30px;'><strong>Okay</strong></p>","null","neutral_feedback","1","test","46","","","","","","","",""
"","","","","","","","","","","","html-button-response","297","2.0.0","2006037","6681a4d12c54df1452c59833","1","39","1675","","","","","","","","","<img src= ""rock_img/I_Pumice_16.jpg"" style=""width:8cm; height:6.79cm;""><p>What type of rock is this?</p>","3","class_response","1","test","47","Gabbro","Pumice","16","false","4","8","",""
"","","","","","","","","","","","html-keyboard-response","298","2.0.0","2006540","6681a4d12c54df1452c59833","1","39","null","","","","","","","","","<p style='font-size: 30px;'><strong>Okay</strong></p>","null","neutral_feedback","1","test","47","","","","","","","",""
"","","","","","","","","","","","html-button-response","299","2.0.0","2008100","6681a4d12c54df1452c59833","1","39","1555","","","","","","","","","<img src= ""rock_img/I_Diorite_13.jpg"" style=""width:8cm; height:6.29cm;""><p>What type of rock is this?</p>","2","class_response","1","test","48","Diorite","Diorite","13","true","3","3","",""
"","","","","","","","","","","","html-keyboard-response","300","2.0.0","2008603","6681a4d12c54df1452c59833","1","39","null","","","","","","","","","<p style='font-size: 30px;'><strong>Okay</strong></p>","null","neutral_feedback","1","test","48","","","","","","","",""
"","","","","","","","","","","","html-button-response","301","2.0.0","2030945","6681a4d12c54df1452c59833","1","39","","","","","","","","","","","","cycle_feedback","","","","","","","","","","10645.400000000373","11674.099999999627"
"","","","","","","","","","","","html-button-response","303","2.0.0","2033056","6681a4d12c54df1452c59833","1","39","2107","","","","","","","","","","0","start_train","","","","","","","","","","",""
"","","","","","","","","","","","html-button-response","304","2.0.0","2035792","6681a4d12c54df1452c59833","1","39","2730","","","","","","","","","<img src= ""rock_img/I_Obsidian_09.jpg"" style=""width:8cm; height:5cm;""><p>What type of rock is this?</p>","4","class_response","2","train","1","Obsidian","Obsidian","09","true","5","5","",""
