"width","height","webaudio","browser","browser_version","mobile","os","fullscreen","vsync_rate","webcam","microphone","trial_type","trial_index","plugin_version","time_elapsed","subjID","condition","stimID","rt","url","success","value","timeout","failed_images","failed_audio","failed_video","view_history","stimulus","response","trialType","cycle","phase","trial","resp","cat","token","corr","resp_num","cat_num","time_fb1","time_fb2"
"1366","633","true","chrome","131.0.0","false","Windows 10","true","60.86","true","true","browser-check","0","2.0.0","1017","6572144253ae69f2c700c9a9","1","32","","","","","","","","","","","","","","","","","","","","","","",""
"","","","","","","","","","","","external-html","1","2.0.0","375685","6572144253ae69f2c700c9a9","1","32","374320","consent_form.html","","","","","","","","","","","","","","","","","","","","",""
"","","","","","","","","","","","fullscreen","2","2.0.0","379736","6572144253ae69f2c700c9a9","1","32","3036","","true","","","","","","","","","","","","","","","","","","","",""
"","","","","","","","","","","","call-function","3","2.0.0","379738","6572144253ae69f2c700c9a9","1","32","","","","{}","","","","","","","","","","","","","","","","","","",""
"","","","","","","","","","","","preload","4","2.0.0","379971","6572144253ae69f2c700c9a9","1","32","","","true","","false","[]","[]","[]","","","","","","","","","","","","","","",""
"","","","","","","","","","","","instructions","5","2.0.0","389760","6572144253ae69f2c700c9a9","1","32","9787","","","","","","","","[{""page_index"":0,""viewing_time"":1248},{""page_index"":1,""viewing_time"":6963},{""page_index"":2,""viewing_time"":1576}]","","","","","","","","","","","","","",""
"","","","","","","","","","","","html-button-response","6","2.0.0","391435","6572144253ae69f2c700c9a9","1","32","1668","","","","","","","","","","0","start_test","","","","","","","","","","",""
"","","","","","","","","","","","html-button-response","7","2.0.0","396272","6572144253ae69f2c700c9a9","1","32","4831","","","","","","","","","<img src= ""rock_img/I_Andesite_16.jpg"" style=""width:8cm; height:6.010000000000001cm;""><p>What type of rock is this?</p>","6","class_response","0","test","1","Peridotite","Andesite","16","false","7","1","",""
"","","","","","","","","","","","html-keyboard-response","8","2.0.0","396840","6572144253ae69f2c700c9a9","1","32","null","","","","","","","","","<p style='font-size: 30px;'><strong>Okay</strong></p>","null","neutral_feedback","0","test","1","","","","","","","",""
"","","","","","","","","","","","html-button-response","9","2.0.0","398545","6572144253ae69f2c700c9a9","1","32","1700","","","","","","","","","<img src= ""rock_img/I_Pumice_08.jpg"" style=""width:8cm; height:6.67cm;""><p>What type of rock is this?</p>","7","class_response","0","test","2","Pumice","Pumice","08","true","8","8","",""
"","","","","","","","","","","","html-keyboard-response","10","2.0.0","399051","6572144253ae69f2c700c9a9","1","32","null","","","","","","","","","<p style='font-size: 30px;'><strong>Okay</strong></p>","null","neutral_feedback","0","test","2","","","","","","","",""
"","","","","","","","","","","","html-button-response","11","2.0.0","402798","6572144253ae69f2c700c9a9","1","32","3740","","","","","","","","","<img src= ""rock_img/I_Obsidian_05.jpg"" style=""width:8cm; height:6.33cm;""><p>What type of rock is this?</p>","4","class_response","0","test","3","Obsidian","Obsidian","05","true","5","5","",""
"","","","","","","","","","","","html-keyboard-response","12","2.0.0","403310","6572144253ae69f2c700c9a9","1","32","null","","","","","","","","","<p style='font-size: 30px;'><strong>Okay</strong></p>","null","neutral_feedback","0","test","3","","","","","","","",""
"","","","","","","","","","","","html-button-response","13","2.0.0","406396","6572144253ae69f2c700c9a9","1","32","3078","","","","","","","","","<img src= ""rock_img/I_Gabbro_16.jpg"" style=""width:8cm; height:6.44cm;""><p>What type of rock is this?</p>","3","class_response","0","test","4","Gabbro","Gabbro","16","true","4","4","",""
"","","","","","","","","","","","html-keyboard-response","14","2.0.0","406912","6572144253ae69f2c700c9a9","1","32","null","","","","","","","","","<p style='font-size: 30px;'><strong>Okay</strong></p>","null","neutral_feedback","0","test","4","","","","","","","",""
"","","","","","","","","","","","html-button-response","15","2.0.0","408657","6572144253ae69f2c700c9a9","1","32","1739","","","","","","","","","<img src= ""rock_img/I_Obsidian_02.jpg"" style=""width:8cm; height:7.51cm;""><p>What type of rock is this?</p>","4","class_response","0","test","5","Obsidian","Obsidian","02","true","5","5","",""
"","","","","","","","","","","","html-keyboard-response","16","2.0.0","409168","6572144253ae69f2c700c9a9","1","32","null","","","","","","","","","<p style='font-size: 30px;'><strong>Okay</strong></p>","null","neutral_feedback","0","test","5","","","","","","","",""
"","","","","","","","","","","","html-button-response","17","2.0.0","411003","6572144253ae69f2c700c9a9","1","32","1832","","","","","","","","","<img src= ""rock_img/I_Pegmatite_15.jpg"" style=""width:8cm; height:6cm;""><p>What type of rock is this?</p>","0","class_response","0","test","6","Andesite","Pegmatite","15","false","1","6","",""
"","","","","","","","","","","","html-keyboard-response","18","2.0.0","411512","6572144253ae69f2c700c9a9","1","32","null","","","","","","","","","<p style='font-size: 30px;'><strong>Okay</strong></p>","null","neutral_feedback","0","test","6","","","","","","","",""
"","","","","","","","","","","","html-button-response","19","2.0.0","413019","6572144253ae69f2c700c9a9","1","32","1502","","","","","","","","","<img src= ""rock_img/I_Pegmatite_06.jpg"" style=""width:8cm; height:5.17cm;""><p>What type of rock is this?</p>","6","class_response","0","test","7","Peridotite","Pegmatite","06","false","7","6","",""
"","","","","","","","","","","","html-keyboard-response","20","2.0.0","413528","6572144253ae69f2c700c9a9","1","32","null","","","","","","","","","<p style='font-size: 30px;'><strong>Okay</strong></p>","null","neutral_feedback","0","test","7","","","","","","","",""
"","","","","","","","","","","","html-button-response","21","2.0.0","414750","6572144253ae69f2c700c9a9","1","32","1220","","","","","","","","","<img src= ""rock_img/I_Peridotite_15.jpg"" style=""width:8cm; height:6cm;""><p>What type of rock is this?</p>","5","class_response","0","test","8","Pegmatite","Peridotite","15","false","6","7","",""
"","","","","","","","","","","","html-keyboard-response","22","2.0.0","415256","6572144253ae69f2c700c9a9","1","32","null","","","","","","","","","<p style='font-size: 30px;'><strong>Okay</strong></p>","null","neutral_feedback","0","test","8","","","","","","","",""
"","","","","","","","","","","","html-button-response","23","2.0.0","416612","6572144253ae69f2c700c9a9","1","32","1351","","","","","","","","","<img src= ""rock_img/I_Andesite_07.jpg"" style=""width:8cm; height:5.93cm;""><p>What type of rock is this?</p>","2","class_response","0","test","9","Diorite","Andesite","07","false","3","1","",""
"","","","","","","","","","","","html-keyboard-response","24","2.0.0","417117","6572144253ae69f2c700c9a9","1","32","null","","","","","","","","","<p style='font-size: 30px;'><strong>Okay</strong></p>","null","neutral_feedback","0","test","9","","","","","","","",""
"","","","","","","","","","","","html-button-response","25","2.0.0","418796","6572144253ae69f2c700c9a9","1","32","1676","","","","","","","","","<img src= ""rock_img/I_Diorite_08.jpg"" style=""width:8cm; height:6.37cm;""><p>What type of rock is this?</p>","1","class_response","0","test","10","Basalt","Diorite","08","false","2","3","",""
"","","","","","","","","","","","html-keyboard-response","26","2.0.0","419301","6572144253ae69f2c700c9a9","1","32","null","","","","","","","","","<p style='font-size: 30px;'><strong>Okay</strong></p>","null","neutral_feedback","0","test","10","","","","","","","",""
"","","","","","","","","","","","html-button-response","27","2.0.0","421999","6572144253ae69f2c700c9a9","1","32","2692","","","","","","","","","<img src= ""rock_img/I_Pegmatite_05.jpg"" style=""width:8cm; height:7.300000000000001cm;""><p>What type of rock is this?</p>","6","class_response","0","test","11","Peridotite","Pegmatite","05","false","7","6","",""
"","","","","","","","","","","","html-keyboard-response","28","2.0.0","422509","6572144253ae69f2c700c9a9","1","32","null","","","","","","","","","<p style='font-size: 30px;'><strong>Okay</strong></p>","null","neutral_feedback","0","test","11","","","","","","","",""
"","","","","","","","","","","","html-button-response","29","2.0.0","424150","6572144253ae69f2c700c9a9","1","32","1637","","","","","","","","","<img src= ""rock_img/I_Diorite_06.jpg"" style=""width:8cm; height:6.03cm;""><p>What type of rock is this?</p>","2","class_response","0","test","12","Diorite","Diorite","06","true","3","3","",""
"","","","","","","","","","","","html-keyboard-response","30","2.0.0","424666","6572144253ae69f2c700c9a9","1","32","null","","","","","","","","","<p style='font-size: 30px;'><strong>Okay</strong></p>","null","neutral_feedback","0","test","12","","","","","","","",""
"","","","","","","","","","","","html-button-response","31","2.0.0","428569","6572144253ae69f2c700c9a9","1","32","3894","","","","","","","","","<img src= ""rock_img/I_Peridotite_05.jpg"" style=""width:8cm; height:7.1499999999999995cm;""><p>What type of rock is this?</p>","5","class_response","0","test","13","Pegmatite","Peridotite","05","false","6","7","",""
"","","","","","","","","","","","html-keyboard-response","32","2.0.0","429081","6572144253ae69f2c700c9a9","1","32","null","","","","","","","","","<p style='font-size: 30px;'><strong>Okay</strong></p>","null","neutral_feedback","0","test","13","","","","","","","",""
"","","","","","","","","","","","html-button-response","33","2.0.0","435464","6572144253ae69f2c700c9a9","1","32","6377","","","","","","","","","<img src= ""rock_img/I_Gabbro_10.jpg"" style=""width:8cm; height:5.680000000000001cm;""><p>What type of rock is this?</p>","3","class_response","0","test","14","Gabbro","Gabbro","10","true","4","4","",""
"","","","","","","","","","","","html-keyboard-response","34","2.0.0","435979","6572144253ae69f2c700c9a9","1","32","null","","","","","","","","","<p style='font-size: 30px;'><strong>Okay</strong></p>","null","neutral_feedback","0","test","14","","","","","","","",""
"","","","","","","","","","","","html-button-response","35","2.0.0","437791","6572144253ae69f2c700c9a9","1","32","1808","","","","","","","","","<img src= ""rock_img/I_Peridotite_02.jpg"" style=""width:8cm; height:5.859999999999999cm;""><p>What type of rock is this?</p>","1","class_response","0","test","15","Basalt","Peridotite","02","false","2","7","",""
"","","","","","","","","","","","html-keyboard-response","36","2.0.0","438296","6572144253ae69f2c700c9a9","1","32","null","","","","","","","","","<p style='font-size: 30px;'><strong>Okay</strong></p>","null","neutral_feedback","0","test","15","","","","","","","",""
"","","","","","","","","","","","html-button-response","37","2.0.0","439738","6572144253ae69f2c700c9a9","1","32","1437","","","","","","","","","<img src= ""rock_img/I_Obsidian_09.jpg"" style=""width:8cm; height:5cm;""><p>What type of rock is this?</p>","4","class_response","0","test","16","Obsidian","Obsidian","09","true","5","5","",""
"","","","","","","","","","","","html-keyboard-response","38","2.0.0","440253","6572144253ae69f2c700c9a9","1","32","null","","","","","","","","","<p style='font-size: 30px;'><strong>Okay</strong></p>","null","neutral_feedback","0","test","16","","","","","","","",""
"","","","","","","","","","","","html-button-response","39","2.0.0","442243","6572144253ae69f2c700c9a9","1","32","1986","","","","","","","","","<img src= ""rock_img/I_Diorite_15.jpg"" style=""width:8cm; height:5.54cm;""><p>What type of rock is this?</p>","7","class_response","0","test","17","Pumice","Diorite","15","false","8","3","",""
"","","","","","","","","","","","html-keyboard-response","40","2.0.0","442760","6572144253ae69f2c700c9a9","1","32","null","","","","","","","","","<p style='font-size: 30px;'><strong>Okay</strong></p>","null","neutral_feedback","0","test","17","","","","","","","",""
"","","","","","","","","","","","html-button-response","41","2.0.0","444433","6572144253ae69f2c700c9a9","1","32","1669","","","","","","","","","<img src= ""rock_img/I_Andesite_01.jpg"" style=""width:8cm; height:5.87cm;""><p>What type of rock is this?</p>","3","class_response","0","test","18","Gabbro","Andesite","01","false","4","1","",""
"","","","","","","","","","","","html-keyboard-response","42","2.0.0","444937","6572144253ae69f2c700c9a9","1","32","null","","","","","","","","","<p style='font-size: 30px;'><strong>Okay</strong></p>","null","neutral_feedback","0","test","18","","","","","","","",""
"","","","","","","","","","","","html-button-response","43","2.0.0","446663","6572144253ae69f2c700c9a9","1","32","1725","","","","","","","","","<img src= ""rock_img/I_Pegmatite_11.jpg"" style=""width:8cm; height:8.14cm;""><p>What type of rock is this?</p>","4","class_response","0","test","19","Obsidian","Pegmatite","11","false","5","6","",""
"","","","","","","","","","","","html-keyboard-response","44","2.0.0","447172","6572144253ae69f2c700c9a9","1","32","null","","","","","","","","","<p style='font-size: 30px;'><strong>Okay</strong></p>","null","neutral_feedback","0","test","19","","","","","","","",""
"","","","","","","","","","","","html-button-response","45","2.0.0","448762","6572144253ae69f2c700c9a9","1","32","1588","","","","","","","","","<img src= ""rock_img/I_Pumice_13.jpg"" style=""width:8cm; height:8.200000000000001cm;""><p>What type of rock is this?</p>","7","class_response","0","test","20","Pumice","Pumice","13","true","8","8","",""
"","","","","","","","","","","","html-keyboard-response","46","2.0.0","449265","6572144253ae69f2c700c9a9","1","32","null","","","","","","","","","<p style='font-size: 30px;'><strong>Okay</strong></p>","null","neutral_feedback","0","test","20","","","","","","","",""
"","","","","","","","","","","","html-button-response","47","2.0.0","450783","6572144253ae69f2c700c9a9","1","32","1515","","","","","","","","","<img src= ""rock_img/I_Andesite_02.jpg"" style=""width:8cm; height:8.5cm;""><p>What type of rock is this?</p>","2","class_response","0","test","21","Diorite","Andesite","02","false","3","1","",""
"","","","","","","","","","","","html-keyboard-response","48","2.0.0","451295","6572144253ae69f2c700c9a9","1","32","null","","","","","","","","","<p style='font-size: 30px;'><strong>Okay</strong></p>","null","neutral_feedback","0","test","21","","","","","","","",""
"","","","","","","","","","","","html-button-response","49","2.0.0","452841","6572144253ae69f2c700c9a9","1","32","1544","","","","","","","","","<img src= ""rock_img/I_Obsidian_10.jpg"" style=""width:8cm; height:6.260000000000001cm;""><p>What type of rock is this?</p>","4","class_response","0","test","22","Obsidian","Obsidian","10","true","5","5","",""
"","","","","","","","","","","","html-keyboard-response","50","2.0.0","453356","6572144253ae69f2c700c9a9","1","32","null","","","","","","","","","<p style='font-size: 30px;'><strong>Okay</strong></p>","null","neutral_feedback","0","test","22","","","","","","","",""
"","","","","","","","","","","","html-button-response","51","2.0.0","455168","6572144253ae69f2c700c9a9","1","32","1806","","","","","","","","","<img src= ""rock_img/I_Pumice_04.jpg"" style=""width:8cm; height:6.819999999999999cm;""><p>What type of rock is this?</p>","7","class_response","0","test","23","Pumice","Pumice","04","true","8","8","",""
"","","","","","","","","","","","html-keyboard-response","52","2.0.0","455685","6572144253ae69f2c700c9a9","1","32","null","","","","","","","","","<p style='font-size: 30px;'><strong>Okay</strong></p>","null","neutral_feedback","0","test","23","","","","","","","",""
"","","","","","","","","","","","html-button-response","53","2.0.0","1098015","6572144253ae69f2c700c9a9","1","32","642325","","","","","","","","","<img src= ""rock_img/I_Gabbro_15.jpg"" style=""width:8cm; height:6.29cm;""><p>What type of rock is this?</p>","2","class_response","0","test","24","Diorite","Gabbro","15","false","3","4","",""
"","","","","","","","","","","","html-keyboard-response","54","2.0.0","1098524","6572144253ae69f2c700c9a9","1","32","null","","","","","","","","","<p style='font-size: 30px;'><strong>Okay</strong></p>","null","neutral_feedback","0","test","24","","","","","","","",""
"","","","","","","","","","","","html-button-response","55","2.0.0","1100342","6572144253ae69f2c700c9a9","1","32","1812","","","","","","","","","<img src= ""rock_img/I_Pegmatite_13.jpg"" style=""width:8cm; height:4.95cm;""><p>What type of rock is this?</p>","1","class_response","0","test","25","Basalt","Pegmatite","13","false","2","6","",""
"","","","","","","","","","","","html-keyboard-response","56","2.0.0","1100844","6572144253ae69f2c700c9a9","1","32","null","","","","","","","","","<p style='font-size: 30px;'><strong>Okay</strong></p>","null","neutral_feedback","0","test","25","","","","","","","",""
"","","","","","","","","","","","html-button-response","57","2.0.0","1102135","6572144253ae69f2c700c9a9","1","32","1287","","","","","","","","","<img src= ""rock_img/I_Basalt_04.jpg"" style=""width:8cm; height:7.53cm;""><p>What type of rock is this?</p>","3","class_response","0","test","26","Gabbro","Basalt","04","false","4","2","",""
"","","","","","","","","","","","html-keyboard-response","58","2.0.0","1102641","6572144253ae69f2c700c9a9","1","32","null","","","","","","","","","<p style='font-size: 30px;'><strong>Okay</strong></p>","null","neutral_feedback","0","test","26","","","","","","","",""
"","","","","","","","","","","","html-button-response","59","2.0.0","1106134","6572144253ae69f2c700c9a9","1","32","3490","","","","","","","","","<img src= ""rock_img/I_Basalt_10.jpg"" style=""width:8cm; height:5.85cm;""><p>What type of rock is this?</p>","0","class_response","0","test","27","Andesite","Basalt","10","false","1","2","",""
"","","","","","","","","","","","html-keyboard-response","60","2.0.0","1106639","6572144253ae69f2c700c9a9","1","32","null","","","","","","","","","<p style='font-size: 30px;'><strong>Okay</strong></p>","null","neutral_feedback","0","test","27","","","","","","","",""
"","","","","","","","","","","","html-button-response","61","2.0.0","1108495","6572144253ae69f2c700c9a9","1","32","1853","","","","","","","","","<img src= ""rock_img/I_Andesite_14.jpg"" style=""width:8cm; height:5.449999999999999cm;""><p>What type of rock is this?</p>","6","class_response","0","test","28","Peridotite","Andesite","14","false","7","1","",""
"","","","","","","","","","","","html-keyboard-response","62","2.0.0","1108997","6572144253ae69f2c700c9a9","1","32","null","","","","","","","","","<p style='font-size: 30px;'><strong>Okay</strong></p>","null","neutral_feedback","0","test","28","","","","","","","",""
"","","","","","","","","","","","html-button-response","63","2.0.0","1109902","6572144253ae69f2c700c9a9","1","32","902","","","","","","","","","<img src= ""rock_img/I_Andesite_10.jpg"" style=""width:8cm; height:4.16cm;""><p>What type of rock is this?</p>","5","class_response","0","test","29","Pegmatite","Andesite","10","false","6","1","",""
"","","","","","","","","","","","html-keyboard-response","64","2.0.0","1110410","6572144253ae69f2c700c9a9","1","32","null","","","","","","","","","<p style='font-size: 30px;'><strong>Okay</strong></p>","null","neutral_feedback","0","test","29","","","","","","","",""
"","","","","","","","","","","","html-button-response","65","2.0.0","1111175","6572144253ae69f2c700c9a9","1","32","761","","","","","","","","","<img src= ""rock_img/I_Basalt_14.jpg"" style=""width:8cm; height:5.82cm;""><p>What type of rock is this?</p>","1","class_response","0","test","30","Basalt","Basalt","14","true","2","2","",""
"","","","","","","","","","","","html-keyboard-response","66","2.0.0","1111687","6572144253ae69f2c700c9a9","1","32","null","","","","","","","","","<p style='font-size: 30px;'><strong>Okay</strong></p>","null","neutral_feedback","0","test","30","","","","","","","",""
"","","","","","","","","","","","html-button-response","67","2.0.0","1113039","6572144253ae69f2c700c9a9","1","32","1348","","","","","","","","","<img src= ""rock_img/I_Gabbro_12.jpg"" style=""width:8cm; height:7.800000000000001cm;""><p>What type of rock is this?</p>","2","class_response","0","test","31","Diorite","Gabbro","12","false","3","4","",""
"","","","","","","","","","","","html-keyboard-response","68","2.0.0","1113543","6572144253ae69f2c700c9a9","1","32","null","","","","","","","","","<p style='font-size: 30px;'><strong>Okay</strong></p>","null","neutral_feedback","0","test","31","","","","","","","",""
"","","","","","","","","","","","html-button-response","69","2.0.0","1115889","6572144253ae69f2c700c9a9","1","32","2340","","","","","","","","","<img src= ""rock_img/I_Peridotite_12.jpg"" style=""width:8cm; height:4.54cm;""><p>What type of rock is this?</p>","6","class_response","0","test","32","Peridotite","Peridotite","12","true","7","7","",""
"","","","","","","","","","","","html-keyboard-response","70","2.0.0","1116400","6572144253ae69f2c700c9a9","1","32","null","","","","","","","","","<p style='font-size: 30px;'><strong>Okay</strong></p>","null","neutral_feedback","0","test","32","","","","","","","",""
"","","","","","","","","","","","html-button-response","71","2.0.0","1117775","6572144253ae69f2c700c9a9","1","32","1371","","","","","","","","","<img src= ""rock_img/I_Obsidian_14.jpg"" style=""width:8cm; height:7.64cm;""><p>What type of rock is this?</p>","4","class_response","0","test","33","Obsidian","Obsidian","14","true","5","5","",""
"","","","","","","","","","","","html-keyboard-response","72","2.0.0","1118276","6572144253ae69f2c700c9a9","1","32","null","","","","","","","","","<p style='font-size: 30px;'><strong>Okay</strong></p>","null","neutral_feedback","0","test","33","","","","","","","",""
"","","","","","","","","","","","html-button-response","73","2.0.0","1119570","6572144253ae69f2c700c9a9","1","32","1291","","","","","","","","","<img src= ""rock_img/I_Obsidian_16.jpg"" style=""width:8cm; height:9.3cm;""><p>What type of rock is this?</p>","4","class_response","0","test","34","Obsidian","Obsidian","16","true","5","5","",""
"","","","","","","","","","","","html-keyboard-response","74","2.0.0","1120086","6572144253ae69f2c700c9a9","1","32","null","","","","","","","","","<p style='font-size: 30px;'><strong>Okay</strong></p>","null","neutral_feedback","0","test","34","","","","","","","",""
"","","","","","","","","","","","html-button-response","75","2.0.0","1121502","6572144253ae69f2c700c9a9","1","32","1414","","","","","","","","","<img src= ""rock_img/I_Diorite_13.jpg"" style=""width:8cm; height:6.29cm;""><p>What type of rock is this?</p>","0","class_response","0","test","35","Andesite","Diorite","13","false","1","3","",""
"","","","","","","","","","","","html-keyboard-response","76","2.0.0","1122006","6572144253ae69f2c700c9a9","1","32","null","","","","","","","","","<p style='font-size: 30px;'><strong>Okay</strong></p>","null","neutral_feedback","0","test","35","","","","","","","",""
"","","","","","","","","","","","html-button-response","77","2.0.0","1123286","6572144253ae69f2c700c9a9","1","32","1279","","","","","","","","","<img src= ""rock_img/I_Basalt_06.jpg"" style=""width:8cm; height:7.06cm;""><p>What type of rock is this?</p>","3","class_response","0","test","36","Gabbro","Basalt","06","false","4","2","",""
"","","","","","","","","","","","html-keyboard-response","78","2.0.0","1123802","6572144253ae69f2c700c9a9","1","32","null","","","","","","","","","<p style='font-size: 30px;'><strong>Okay</strong></p>","null","neutral_feedback","0","test","36","","","","","","","",""
"","","","","","","","","","","","html-button-response","79","2.0.0","1125002","6572144253ae69f2c700c9a9","1","32","1199","","","","","","","","","<img src= ""rock_img/I_Gabbro_05.jpg"" style=""width:8cm; height:6cm;""><p>What type of rock is this?</p>","7","class_response","0","test","37","Pumice","Gabbro","05","false","8","4","",""
"","","","","","","","","","","","html-keyboard-response","80","2.0.0","1125519","6572144253ae69f2c700c9a9","1","32","null","","","","","","","","","<p style='font-size: 30px;'><strong>Okay</strong></p>","null","neutral_feedback","0","test","37","","","","","","","",""
"","","","","","","","","","","","html-button-response","81","2.0.0","1126135","6572144253ae69f2c700c9a9","1","32","612","","","","","","","","","<img src= ""rock_img/I_Pumice_14.jpg"" style=""width:8cm; height:6.39cm;""><p>What type of rock is this?</p>","7","class_response","0","test","38","Pumice","Pumice","14","true","8","8","",""
"","","","","","","","","","","","html-keyboard-response","82","2.0.0","1126641","6572144253ae69f2c700c9a9","1","32","null","","","","","","","","","<p style='font-size: 30px;'><strong>Okay</strong></p>","null","neutral_feedback","0","test","38","","","","","","","",""
"","","","","","","","","","","","html-button-response","83","2.0.0","1128254","6572144253ae69f2c700c9a9","1","32","1608","","","","","","","","","<img src= ""rock_img/I_Basalt_11.jpg"" style=""width:8cm; height:5.359999999999999cm;""><p>What type of rock is this?</p>","5","class_response","0","test","39","Pegmatite","Basalt","11","false","6","2","",""
"","","","","","","","","","","","html-keyboard-response","84","2.0.0","1128759","6572144253ae69f2c700c9a9","1","32","null","","","","","","","","","<p style='font-size: 30px;'><strong>Okay</strong></p>","null","neutral_feedback","0","test","39","","","","","","","",""
"","","","","","","","","","","","html-button-response","85","2.0.0","1130150","6572144253ae69f2c700c9a9","1","32","1387","","","","","","","","","<img src= ""rock_img/I_Basalt_05.jpg"" style=""width:8cm; height:8.18cm;""><p>What type of rock is this?</p>","1","class_response","0","test","40","Basalt","Basalt","05","true","2","2","",""
"","","","","","","","","","","","html-keyboard-response","86","2.0.0","1130666","6572144253ae69f2c700c9a9","1","32","null","","","","","","","","","<p style='font-size: 30px;'><strong>Okay</strong></p>","null","neutral_feedback","0","test","40","","","","","","","",""
"","","","","","","","","","","","html-button-response","87","2.0.0","1131934","6572144253ae69f2c700c9a9","1","32","1267","","","","","","","","","<img src= ""rock_img/I_Pegmatite_09.jpg"" style=""width:8cm; height:4.03cm;""><p>What type of rock is this?</p>","0","class_response","0","test","41","Andesite","Pegmatite","09","false","1","6","",""
"","","","","","","","","","","","html-keyboard-response","88","2.0.0","1132447","6572144253ae69f2c700c9a9","1","32","null","","","","","","","","","<p style='font-size: 30px;'><strong>Okay</strong></p>","null","neutral_feedback","0","test","41","","","","","","","",""
"","","","","","","","","","","","html-button-response","89","2.0.0","1133431","6572144253ae69f2c700c9a9","1","32","980","","","","","","","","","<img src= ""rock_img/I_Gabbro_09.jpg"" style=""width:8cm; height:7.279999999999999cm;""><p>What type of rock is this?</p>","2","class_response","0","test","42","Diorite","Gabbro","09","false","3","4","",""
"","","","","","","","","","","","html-keyboard-response","90","2.0.0","1133947","6572144253ae69f2c700c9a9","1","32","null","","","","","","","","","<p style='font-size: 30px;'><strong>Okay</strong></p>","null","neutral_feedback","0","test","42","","","","","","","",""
"","","","","","","","","","","","html-button-response","91","2.0.0","1135110","6572144253ae69f2c700c9a9","1","32","1157","","","","","","","","","<img src= ""rock_img/I_Pumice_03.jpg"" style=""width:8cm; height:6.64cm;""><p>What type of rock is this?</p>","7","class_response","0","test","43","Pumice","Pumice","03","true","8","8","",""
"","","","","","","","","","","","html-keyboard-response","92","2.0.0","1135626","6572144253ae69f2c700c9a9","1","32","null","","","","","","","","","<p style='font-size: 30px;'><strong>Okay</strong></p>","null","neutral_feedback","0","test","43","","","","","","","",""
"","","","","","","","","","","","html-button-response","93","2.0.0","1136911","6572144253ae69f2c700c9a9","1","32","1281","","","","","","","","","<img src= ""rock_img/I_Peridotite_13.jpg"" style=""width:8cm; height:7.58cm;""><p>What type of rock is this?</p>","3","class_response","0","test","44","Gabbro","Peridotite","13","false","4","7","",""
"","","","","","","","","","","","html-keyboard-response","94","2.0.0","1137417","6572144253ae69f2c700c9a9","1","32","null","","","","","","","","","<p style='font-size: 30px;'><strong>Okay</strong></p>","null","neutral_feedback","0","test","44","","","","","","","",""
"","","","","","","","","","","","html-button-response","95","2.0.0","1137999","6572144253ae69f2c700c9a9","1","32","579","","","","","","","","","<img src= ""rock_img/I_Diorite_11.jpg"" style=""width:8cm; height:7.11cm;""><p>What type of rock is this?</p>","6","class_response","0","test","45","Peridotite","Diorite","11","false","7","3","",""
"","","","","","","","","","","","html-keyboard-response","96","2.0.0","1138503","6572144253ae69f2c700c9a9","1","32","null","","","","","","","","","<p style='font-size: 30px;'><strong>Okay</strong></p>","null","neutral_feedback","0","test","45","","","","","","","",""
"","","","","","","","","","","","html-button-response","97","2.0.0","1139331","6572144253ae69f2c700c9a9","1","32","826","","","","","","","","","<img src= ""rock_img/I_Peridotite_14.jpg"" style=""width:8cm; height:5.3cm;""><p>What type of rock is this?</p>","5","class_response","0","test","46","Pegmatite","Peridotite","14","false","6","7","",""
"","","","","","","","","","","","html-keyboard-response","98","2.0.0","1139835","6572144253ae69f2c700c9a9","1","32","null","","","","","","","","","<p style='font-size: 30px;'><strong>Okay</strong></p>","null","neutral_feedback","0","test","46","","","","","","","",""
"","","","","","","","","","","","html-button-response","99","2.0.0","1141971","6572144253ae69f2c700c9a9","1","32","2133","","","","","","","","","<img src= ""rock_img/I_Pumice_09.jpg"" style=""width:8cm; height:6.44cm;""><p>What type of rock is this?</p>","7","class_response","0","test","47","Pumice","Pumice","09","true","8","8","",""
"","","","","","","","","","","","html-keyboard-response","100","2.0.0","1142486","6572144253ae69f2c700c9a9","1","32","null","","","","","","","","","<p style='font-size: 30px;'><strong>Okay</strong></p>","null","neutral_feedback","0","test","47","","","","","","","",""
"","","","","","","","","","","","html-button-response","101","2.0.0","1143787","6572144253ae69f2c700c9a9","1","32","1297","","","","","","","","","<img src= ""rock_img/I_Diorite_10.jpg"" style=""width:8cm; height:5.949999999999999cm;""><p>What type of rock is this?</p>","2","class_response","0","test","48","Diorite","Diorite","10","true","3","3","",""
"","","","","","","","","","","","html-keyboard-response","102","2.0.0","1144293","6572144253ae69f2c700c9a9","1","32","null","","","","","","","","","<p style='font-size: 30px;'><strong>Okay</strong></p>","null","neutral_feedback","0","test","48","","","","","","","",""
"","","","","","","","","","","","instructions","103","2.0.0","1154574","6572144253ae69f2c700c9a9","1","32","10206","","","","","","","","[{""page_index"":0,""viewing_time"":2574},{""page_index"":1,""viewing_time"":4504},{""page_index"":2,""viewing_time"":3128}]","","","","","","","","","","","","","",""
"","","","","","","","","","","","html-button-response","104","2.0.0","1156166","6572144253ae69f2c700c9a9","1","32","1590","","","","","","","","","","0","start_train","","","","","","","","","","",""
"","","","","","","","","","","","html-button-response","105","2.0.0","1160082","6572144253ae69f2c700c9a9","1","32","3914","","","","","","","","","<img src= ""rock_img/I_Pegmatite_08.jpg"" style=""width:8cm; height:7.68cm;""><p>What type of rock is this?</p>","0","class_response","1","train","1","Andesite","Pegmatite","08","false","1","6","",""
"","","","","","","","","","","","html-button-response","106","2.0.0","1161610","6572144253ae69f2c700c9a9","1","32","1526","","","","","","","","","<img src= rock_img/I_Pegmatite_08.jpg style=""width:8cm; height:7.68cm;""><p style='font-size: 30px; color: red;'><strong>Incorrect!</strong></p><p style='font-size: 30px;'><strong>This rock is pegmatite</strong></p>","0","corr_feedback","1","train","1","","","","","","","",""
"","","","","","","","","","","","html-button-response","107","2.0.0","1163599","6572144253ae69f2c700c9a9","1","32","1987","","","","","","","","","<img src= ""rock_img/I_Gabbro_01.jpg"" style=""width:8cm; height:5.21cm;""><p>What type of rock is this?</p>","2","class_response","1","train","2","Diorite","Gabbro","01","false","3","4","",""
"","","","","","","","","","","","html-button-response","108","2.0.0","1165062","6572144253ae69f2c700c9a9","1","32","1462","","","","","","","","","<img src= rock_img/I_Gabbro_01.jpg style=""width:8cm; height:5.21cm;""><p style='font-size: 30px; color: red;'><strong>Incorrect!</strong></p><p style='font-size: 30px;'><strong>This rock is gabbro</strong></p>","0","corr_feedback","1","train","2","","","","","","","",""
"","","","","","","","","","","","html-button-response","109","2.0.0","1166334","6572144253ae69f2c700c9a9","1","32","1271","","","","","","","","","<img src= ""rock_img/I_Obsidian_07.jpg"" style=""width:8cm; height:4.76cm;""><p>What type of rock is this?</p>","4","class_response","1","train","3","Obsidian","Obsidian","07","true","5","5","",""
"","","","","","","","","","","","html-button-response","110","2.0.0","1167442","6572144253ae69f2c700c9a9","1","32","1106","","","","","","","","","<img src= rock_img/I_Obsidian_07.jpg style=""width:8cm; height:4.76cm;""><p style='font-size: 30px; color: green;'><strong>Correct!</strong></p><p style='font-size: 30px;'><strong>This rock is obsidian</strong></p>","0","corr_feedback","1","train","3","","","","","","","",""
"","","","","","","","","","","","html-button-response","111","2.0.0","1168814","6572144253ae69f2c700c9a9","1","32","1371","","","","","","","","","<img src= ""rock_img/I_Diorite_12.jpg"" style=""width:8cm; height:4.88cm;""><p>What type of rock is this?</p>","1","class_response","1","train","4","Basalt","Diorite","12","false","2","3","",""
"","","","","","","","","","","","html-button-response","112","2.0.0","1169979","6572144253ae69f2c700c9a9","1","32","1163","","","","","","","","","<img src= rock_img/I_Diorite_12.jpg style=""width:8cm; height:4.88cm;""><p style='font-size: 30px; color: red;'><strong>Incorrect!</strong></p><p style='font-size: 30px;'><strong>This rock is diorite</strong></p>","0","corr_feedback","1","train","4","","","","","","","",""
"","","","","","","","","","","","html-button-response","113","2.0.0","1173690","6572144253ae69f2c700c9a9","1","32","3710","","","","","","","","","<img src= ""rock_img/I_Andesite_03.jpg"" style=""width:8cm; height:5.73cm;""><p>What type of rock is this?</p>","7","class_response","1","train","5","Pumice","Andesite","03","false","8","1","",""
"","","","","","","","","","","","html-button-response","114","2.0.0","1174890","6572144253ae69f2c700c9a9","1","32","1198","","","","","","","","","<img src= rock_img/I_Andesite_03.jpg style=""width:8cm; height:5.73cm;""><p style='font-size: 30px; color: red;'><strong>Incorrect!</strong></p><p style='font-size: 30px;'><strong>This rock is andesite</strong></p>","0","corr_feedback","1","train","5","","","","","","","",""
"","","","","","","","","","","","html-button-response","115","2.0.0","1176210","6572144253ae69f2c700c9a9","1","32","1319","","","","","","","","","<img src= ""rock_img/I_Obsidian_11.jpg"" style=""width:8cm; height:6.05cm;""><p>What type of rock is this?</p>","4","class_response","1","train","6","Obsidian","Obsidian","11","true","5","5","",""
"","","","","","","","","","","","html-button-response","116","2.0.0","1180747","6572144253ae69f2c700c9a9","1","32","4535","","","","","","","","","<img src= rock_img/I_Obsidian_11.jpg style=""width:8cm; height:6.05cm;""><p style='font-size: 30px; color: green;'><strong>Correct!</strong></p><p style='font-size: 30px;'><strong>This rock is obsidian</strong></p>","0","corr_feedback","1","train","6","","","","","","","",""
"","","","","","","","","","","","html-button-response","117","2.0.0","1182466","6572144253ae69f2c700c9a9","1","32","1718","","","","","","","","","<img src= ""rock_img/I_Basalt_09.jpg"" style=""width:8cm; height:6.2cm;""><p>What type of rock is this?</p>","3","class_response","1","train","7","Gabbro","Basalt","09","false","4","2","",""
"","","","","","","","","","","","html-button-response","118","2.0.0","1183396","6572144253ae69f2c700c9a9","1","32","929","","","","","","","","","<img src= rock_img/I_Basalt_09.jpg style=""width:8cm; height:6.2cm;""><p style='font-size: 30px; color: red;'><strong>Incorrect!</strong></p><p style='font-size: 30px;'><strong>This rock is basalt</strong></p>","0","corr_feedback","1","train","7","","","","","","","",""
"","","","","","","","","","","","html-button-response","119","2.0.0","1184643","6572144253ae69f2c700c9a9","1","32","1246","","","","","","","","","<img src= ""rock_img/I_Peridotite_16.jpg"" style=""width:8cm; height:6.989999999999999cm;""><p>What type of rock is this?</p>","2","class_response","1","train","8","Diorite","Peridotite","16","false","3","7","",""
"","","","","","","","","","","","html-button-response","120","2.0.0","1185643","6572144253ae69f2c700c9a9","1","32","999","","","","","","","","","<img src= rock_img/I_Peridotite_16.jpg style=""width:8cm; height:6.989999999999999cm;""><p style='font-size: 30px; color: red;'><strong>Incorrect!</strong></p><p style='font-size: 30px;'><strong>This rock is peridotite</strong></p>","0","corr_feedback","1","train","8","","","","","","","",""
"","","","","","","","","","","","html-button-response","121","2.0.0","1187082","6572144253ae69f2c700c9a9","1","32","1438","","","","","","","","","<img src= ""rock_img/I_Obsidian_08.jpg"" style=""width:8cm; height:7.39cm;""><p>What type of rock is this?</p>","4","class_response","1","train","9","Obsidian","Obsidian","08","true","5","5","",""
"","","","","","","","","","","","html-button-response","122","2.0.0","1188018","6572144253ae69f2c700c9a9","1","32","934","","","","","","","","","<img src= rock_img/I_Obsidian_08.jpg style=""width:8cm; height:7.39cm;""><p style='font-size: 30px; color: green;'><strong>Correct!</strong></p><p style='font-size: 30px;'><strong>This rock is obsidian</strong></p>","0","corr_feedback","1","train","9","","","","","","","",""
"","","","","","","","","","","","html-button-response","123","2.0.0","1189243","6572144253ae69f2c700c9a9","1","32","1223","","","","","","","","","<img src= ""rock_img/I_Obsidian_04.jpg"" style=""width:8cm; height:6.930000000000001cm;""><p>What type of rock is this?</p>","4","class_response","1","train","10","Obsidian","Obsidian","04","true","5","5","",""
"","","","","","","","","","","","html-button-response","124","2.0.0","1190074","6572144253ae69f2c700c9a9","1","32","830","","","","","","","","","<img src= rock_img/I_Obsidian_04.jpg style=""width:8cm; height:6.930000000000001cm;""><p style='font-size: 30px; color: green;'><strong>Correct!</strong></p><p style='font-size: 30px;'><strong>This rock is obsidian</strong></p>","0","corr_feedback","1","train","10","","","","","","","",""
"","","","","","","","","","","","html-button-response","125","2.0.0","1191218","6572144253ae69f2c700c9a9","1","32","1142","","","","","","","","","<img src= ""rock_img/I_Obsidian_12.jpg"" style=""width:8cm; height:6.53cm;""><p>What type of rock is this?</p>","4","class_response","1","train","11","Obsidian","Obsidian","12","true","5","5","",""
"","","","","","","","","","","","html-button-response","126","2.0.0","1191850","6572144253ae69f2c700c9a9","1","32","631","","","","","","","","","<img src= rock_img/I_Obsidian_12.jpg style=""width:8cm; height:6.53cm;""><p style='font-size: 30px; color: green;'><strong>Correct!</strong></p><p style='font-size: 30px;'><strong>This rock is obsidian</strong></p>","0","corr_feedback","1","train","11","","","","","","","",""
"","","","","","","","","","","","html-button-response","127","2.0.0","1195034","6572144253ae69f2c700c9a9","1","32","3183","","","","","","","","","<img src= ""rock_img/I_Gabbro_11.jpg"" style=""width:8cm; height:6.2cm;""><p>What type of rock is this?</p>","7","class_response","1","train","12","Pumice","Gabbro","11","false","8","4","",""
"","","","","","","","","","","","html-button-response","128","2.0.0","1195891","6572144253ae69f2c700c9a9","1","32","855","","","","","","","","","<img src= rock_img/I_Gabbro_11.jpg style=""width:8cm; height:6.2cm;""><p style='font-size: 30px; color: red;'><strong>Incorrect!</strong></p><p style='font-size: 30px;'><strong>This rock is gabbro</strong></p>","0","corr_feedback","1","train","12","","","","","","","",""
"","","","","","","","","","","","html-button-response","129","2.0.0","1197123","6572144253ae69f2c700c9a9","1","32","1230","","","","","","","","","<img src= ""rock_img/I_Peridotite_07.jpg"" style=""width:8cm; height:4.83cm;""><p>What type of rock is this?</p>","2","class_response","1","train","13","Diorite","Peridotite","07","false","3","7","",""
"","","","","","","","","","","","html-button-response","130","2.0.0","1198666","6572144253ae69f2c700c9a9","1","32","1542","","","","","","","","","<img src= rock_img/I_Peridotite_07.jpg style=""width:8cm; height:4.83cm;""><p style='font-size: 30px; color: red;'><strong>Incorrect!</strong></p><p style='font-size: 30px;'><strong>This rock is peridotite</strong></p>","0","corr_feedback","1","train","13","","","","","","","",""
"","","","","","","","","","","","html-button-response","131","2.0.0","1199523","6572144253ae69f2c700c9a9","1","32","855","","","","","","","","","<img src= ""rock_img/I_Diorite_07.jpg"" style=""width:8cm; height:5.239999999999999cm;""><p>What type of rock is this?</p>","6","class_response","1","train","14","Peridotite","Diorite","07","false","7","3","",""
"","","","","","","","","","","","html-button-response","132","2.0.0","1200214","6572144253ae69f2c700c9a9","1","32","690","","","","","","","","","<img src= rock_img/I_Diorite_07.jpg style=""width:8cm; height:5.239999999999999cm;""><p style='font-size: 30px; color: red;'><strong>Incorrect!</strong></p><p style='font-size: 30px;'><strong>This rock is diorite</strong></p>","0","corr_feedback","1","train","14","","","","","","","",""
"","","","","","","","","","","","html-button-response","133","2.0.0","1200938","6572144253ae69f2c700c9a9","1","32","723","","","","","","","","","<img src= ""rock_img/I_Gabbro_03.jpg"" style=""width:8cm; height:8.52cm;""><p>What type of rock is this?</p>","1","class_response","1","train","15","Basalt","Gabbro","03","false","2","4","",""
"","","","","","","","","","","","html-button-response","134","2.0.0","1201779","6572144253ae69f2c700c9a9","1","32","840","","","","","","","","","<img src= rock_img/I_Gabbro_03.jpg style=""width:8cm; height:8.52cm;""><p style='font-size: 30px; color: red;'><strong>Incorrect!</strong></p><p style='font-size: 30px;'><strong>This rock is gabbro</strong></p>","0","corr_feedback","1","train","15","","","","","","","",""
"","","","","","","","","","","","html-button-response","135","2.0.0","1202651","6572144253ae69f2c700c9a9","1","32","870","","","","","","","","","<img src= ""rock_img/I_Gabbro_14.jpg"" style=""width:8cm; height:8.48cm;""><p>What type of rock is this?</p>","5","class_response","1","train","16","Pegmatite","Gabbro","14","false","6","4","",""
"","","","","","","","","","","","html-button-response","136","2.0.0","1203266","6572144253ae69f2c700c9a9","1","32","614","","","","","","","","","<img src= rock_img/I_Gabbro_14.jpg style=""width:8cm; height:8.48cm;""><p style='font-size: 30px; color: red;'><strong>Incorrect!</strong></p><p style='font-size: 30px;'><strong>This rock is gabbro</strong></p>","0","corr_feedback","1","train","16","","","","","","","",""
"","","","","","","","","","","","html-button-response","137","2.0.0","1204522","6572144253ae69f2c700c9a9","1","32","1255","","","","","","","","","<img src= ""rock_img/I_Basalt_12.jpg"" style=""width:8cm; height:6.010000000000001cm;""><p>What type of rock is this?</p>","2","class_response","1","train","17","Diorite","Basalt","12","false","3","2","",""
"","","","","","","","","","","","html-button-response","138","2.0.0","1205490","6572144253ae69f2c700c9a9","1","32","967","","","","","","","","","<img src= rock_img/I_Basalt_12.jpg style=""width:8cm; height:6.010000000000001cm;""><p style='font-size: 30px; color: red;'><strong>Incorrect!</strong></p><p style='font-size: 30px;'><strong>This rock is basalt</strong></p>","0","corr_feedback","1","train","17","","","","","","","",""
"","","","","","","","","","","","html-button-response","139","2.0.0","1206634","6572144253ae69f2c700c9a9","1","32","1142","","","","","","","","","<img src= ""rock_img/I_Pegmatite_10.jpg"" style=""width:8cm; height:4.16cm;""><p>What type of rock is this?</p>","7","class_response","1","train","18","Pumice","Pegmatite","10","false","8","6","",""
"","","","","","","","","","","","html-button-response","140","2.0.0","1207657","6572144253ae69f2c700c9a9","1","32","1022","","","","","","","","","<img src= rock_img/I_Pegmatite_10.jpg style=""width:8cm; height:4.16cm;""><p style='font-size: 30px; color: red;'><strong>Incorrect!</strong></p><p style='font-size: 30px;'><strong>This rock is pegmatite</strong></p>","0","corr_feedback","1","train","18","","","","","","","",""
"","","","","","","","","","","","html-button-response","141","2.0.0","1209050","6572144253ae69f2c700c9a9","1","32","1391","","","","","","","","","<img src= ""rock_img/I_Basalt_16.jpg"" style=""width:8cm; height:7.659999999999999cm;""><p>What type of rock is this?</p>","3","class_response","1","train","19","Gabbro","Basalt","16","false","4","2","",""
"","","","","","","","","","","","html-button-response","142","2.0.0","1210138","6572144253ae69f2c700c9a9","1","32","1087","","","","","","","","","<img src= rock_img/I_Basalt_16.jpg style=""width:8cm; height:7.659999999999999cm;""><p style='font-size: 30px; color: red;'><strong>Incorrect!</strong></p><p style='font-size: 30px;'><strong>This rock is basalt</strong></p>","0","corr_feedback","1","train","19","","","","","","","",""
"","","","","","","","","","","","html-button-response","143","2.0.0","1211722","6572144253ae69f2c700c9a9","1","32","1582","","","","","","","","","<img src= ""rock_img/I_Peridotite_10.jpg"" style=""width:8cm; height:5.390000000000001cm;""><p>What type of rock is this?</p>","1","class_response","1","train","20","Basalt","Peridotite","10","false","2","7","",""
"","","","","","","","","","","","html-button-response","144","2.0.0","1212683","6572144253ae69f2c700c9a9","1","32","960","","","","","","","","","<img src= rock_img/I_Peridotite_10.jpg style=""width:8cm; height:5.390000000000001cm;""><p style='font-size: 30px; color: red;'><strong>Incorrect!</strong></p><p style='font-size: 30px;'><strong>This rock is peridotite</strong></p>","0","corr_feedback","1","train","20","","","","","","","",""
"","","","","","","","","","","","html-button-response","145","2.0.0","1214402","6572144253ae69f2c700c9a9","1","32","1718","","","","","","","","","<img src= ""rock_img/I_Andesite_06.jpg"" style=""width:8cm; height:6.840000000000001cm;""><p>What type of rock is this?</p>","0","class_response","1","train","21","Andesite","Andesite","06","true","1","1","",""
"","","","","","","","","","","","html-button-response","146","2.0.0","1215445","6572144253ae69f2c700c9a9","1","32","1042","","","","","","","","","<img src= rock_img/I_Andesite_06.jpg style=""width:8cm; height:6.840000000000001cm;""><p style='font-size: 30px; color: green;'><strong>Correct!</strong></p><p style='font-size: 30px;'><strong>This rock is andesite</strong></p>","0","corr_feedback","1","train","21","","","","","","","",""
"","","","","","","","","","","","html-button-response","147","2.0.0","1216851","6572144253ae69f2c700c9a9","1","32","1404","","","","","","","","","<img src= ""rock_img/I_Basalt_08.jpg"" style=""width:8cm; height:10.44cm;""><p>What type of rock is this?</p>","3","class_response","1","train","22","Gabbro","Basalt","08","false","4","2","",""
"","","","","","","","","","","","html-button-response","148","2.0.0","1217706","6572144253ae69f2c700c9a9","1","32","854","","","","","","","","","<img src= rock_img/I_Basalt_08.jpg style=""width:8cm; height:10.44cm;""><p style='font-size: 30px; color: red;'><strong>Incorrect!</strong></p><p style='font-size: 30px;'><strong>This rock is basalt</strong></p>","0","corr_feedback","1","train","22","","","","","","","",""
"","","","","","","","","","","","html-button-response","149","2.0.0","1221683","6572144253ae69f2c700c9a9","1","32","3975","","","","","","","","","<img src= ""rock_img/I_Gabbro_08.jpg"" style=""width:8cm; height:5.15cm;""><p>What type of rock is this?</p>","5","class_response","1","train","23","Pegmatite","Gabbro","08","false","6","4","",""
"","","","","","","","","","","","html-button-response","150","2.0.0","1222553","6572144253ae69f2c700c9a9","1","32","869","","","","","","","","","<img src= rock_img/I_Gabbro_08.jpg style=""width:8cm; height:5.15cm;""><p style='font-size: 30px; color: red;'><strong>Incorrect!</strong></p><p style='font-size: 30px;'><strong>This rock is gabbro</strong></p>","0","corr_feedback","1","train","23","","","","","","","",""
"","","","","","","","","","","","html-button-response","151","2.0.0","1223826","6572144253ae69f2c700c9a9","1","32","1270","","","","","","","","","<img src= ""rock_img/I_Pumice_06.jpg"" style=""width:8cm; height:6.9399999999999995cm;""><p>What type of rock is this?</p>","7","class_response","1","train","24","Pumice","Pumice","06","true","8","8","",""
"","","","","","","","","","","","html-button-response","152","2.0.0","1225065","6572144253ae69f2c700c9a9","1","32","1238","","","","","","","","","<img src= rock_img/I_Pumice_06.jpg style=""width:8cm; height:6.9399999999999995cm;""><p style='font-size: 30px; color: green;'><strong>Correct!</strong></p><p style='font-size: 30px;'><strong>This rock is pumice</strong></p>","0","corr_feedback","1","train","24","","","","","","","",""
"","","","","","","","","","","","html-button-response","153","2.0.0","1226370","6572144253ae69f2c700c9a9","1","32","1303","","","","","","","","","<img src= ""rock_img/I_Pumice_02.jpg"" style=""width:8cm; height:7.3999999999999995cm;""><p>What type of rock is this?</p>","7","class_response","1","train","25","Pumice","Pumice","02","true","8","8","",""
"","","","","","","","","","","","html-button-response","154","2.0.0","1227514","6572144253ae69f2c700c9a9","1","32","1142","","","","","","","","","<img src= rock_img/I_Pumice_02.jpg style=""width:8cm; height:7.3999999999999995cm;""><p style='font-size: 30px; color: green;'><strong>Correct!</strong></p><p style='font-size: 30px;'><strong>This rock is pumice</strong></p>","0","corr_feedback","1","train","25","","","","","","","",""
"","","","","","","","","","","","html-button-response","155","2.0.0","1230138","6572144253ae69f2c700c9a9","1","32","2623","","","","","","","","","<img src= ""rock_img/I_Pegmatite_03.jpg"" style=""width:8cm; height:5.239999999999999cm;""><p>What type of rock is this?</p>","3","class_response","1","train","26","Gabbro","Pegmatite","03","false","4","6","",""
"","","","","","","","","","","","html-button-response","156","2.0.0","1231051","6572144253ae69f2c700c9a9","1","32","912","","","","","","","","","<img src= rock_img/I_Pegmatite_03.jpg style=""width:8cm; height:5.239999999999999cm;""><p style='font-size: 30px; color: red;'><strong>Incorrect!</strong></p><p style='font-size: 30px;'><strong>This rock is pegmatite</strong></p>","0","corr_feedback","1","train","26","","","","","","","",""
"","","","","","","","","","","","html-button-response","157","2.0.0","1232098","6572144253ae69f2c700c9a9","1","32","1045","","","","","","","","","<img src= ""rock_img/I_Basalt_01.jpg"" style=""width:8cm; height:7.880000000000001cm;""><p>What type of rock is this?</p>","3","class_response","1","train","27","Gabbro","Basalt","01","false","4","2","",""
"","","","","","","","","","","","html-button-response","158","2.0.0","1233002","6572144253ae69f2c700c9a9","1","32","903","","","","","","","","","<img src= rock_img/I_Basalt_01.jpg style=""width:8cm; height:7.880000000000001cm;""><p style='font-size: 30px; color: red;'><strong>Incorrect!</strong></p><p style='font-size: 30px;'><strong>This rock is basalt</strong></p>","0","corr_feedback","1","train","27","","","","","","","",""
"","","","","","","","","","","","html-button-response","159","2.0.0","1234146","6572144253ae69f2c700c9a9","1","32","1142","","","","","","","","","<img src= ""rock_img/I_Pumice_15.jpg"" style=""width:8cm; height:7.86cm;""><p>What type of rock is this?</p>","7","class_response","1","train","28","Pumice","Pumice","15","true","8","8","",""
"","","","","","","","","","","","html-button-response","160","2.0.0","1235068","6572144253ae69f2c700c9a9","1","32","921","","","","","","","","","<img src= rock_img/I_Pumice_15.jpg style=""width:8cm; height:7.86cm;""><p style='font-size: 30px; color: green;'><strong>Correct!</strong></p><p style='font-size: 30px;'><strong>This rock is pumice</strong></p>","0","corr_feedback","1","train","28","","","","","","","",""
"","","","","","","","","","","","html-button-response","161","2.0.0","1237362","6572144253ae69f2c700c9a9","1","32","2292","","","","","","","","","<img src= ""rock_img/I_Pegmatite_07.jpg"" style=""width:8cm; height:6.7cm;""><p>What type of rock is this?</p>","0","class_response","1","train","29","Andesite","Pegmatite","07","false","1","6","",""
"","","","","","","","","","","","html-button-response","162","2.0.0","1238202","6572144253ae69f2c700c9a9","1","32","839","","","","","","","","","<img src= rock_img/I_Pegmatite_07.jpg style=""width:8cm; height:6.7cm;""><p style='font-size: 30px; color: red;'><strong>Incorrect!</strong></p><p style='font-size: 30px;'><strong>This rock is pegmatite</strong></p>","0","corr_feedback","1","train","29","","","","","","","",""
"","","","","","","","","","","","html-button-response","163","2.0.0","1239410","6572144253ae69f2c700c9a9","1","32","1206","","","","","","","","","<img src= ""rock_img/I_Basalt_02.jpg"" style=""width:8cm; height:6.45cm;""><p>What type of rock is this?</p>","3","class_response","1","train","30","Gabbro","Basalt","02","false","4","2","",""
"","","","","","","","","","","","html-button-response","164","2.0.0","1240194","6572144253ae69f2c700c9a9","1","32","783","","","","","","","","","<img src= rock_img/I_Basalt_02.jpg style=""width:8cm; height:6.45cm;""><p style='font-size: 30px; color: red;'><strong>Incorrect!</strong></p><p style='font-size: 30px;'><strong>This rock is basalt</strong></p>","0","corr_feedback","1","train","30","","","","","","","",""
"","","","","","","","","","","","html-button-response","165","2.0.0","1242054","6572144253ae69f2c700c9a9","1","32","1858","","","","","","","","","<img src= ""rock_img/I_Andesite_09.jpg"" style=""width:8cm; height:6cm;""><p>What type of rock is this?</p>","3","class_response","1","train","31","Gabbro","Andesite","09","false","4","1","",""
"","","","","","","","","","","","html-button-response","166","2.0.0","1243050","6572144253ae69f2c700c9a9","1","32","995","","","","","","","","","<img src= rock_img/I_Andesite_09.jpg style=""width:8cm; height:6cm;""><p style='font-size: 30px; color: red;'><strong>Incorrect!</strong></p><p style='font-size: 30px;'><strong>This rock is andesite</strong></p>","0","corr_feedback","1","train","31","","","","","","","",""
"","","","","","","","","","","","html-button-response","167","2.0.0","1244490","6572144253ae69f2c700c9a9","1","32","1439","","","","","","","","","<img src= ""rock_img/I_Pumice_16.jpg"" style=""width:8cm; height:6.79cm;""><p>What type of rock is this?</p>","7","class_response","1","train","32","Pumice","Pumice","16","true","8","8","",""
"","","","","","","","","","","","html-button-response","168","2.0.0","1245538","6572144253ae69f2c700c9a9","1","32","1048","","","","","","","","","<img src= rock_img/I_Pumice_16.jpg style=""width:8cm; height:6.79cm;""><p style='font-size: 30px; color: green;'><strong>Correct!</strong></p><p style='font-size: 30px;'><strong>This rock is pumice</strong></p>","0","corr_feedback","1","train","32","","","","","","","",""
"","","","","","","","","","","","html-button-response","169","2.0.0","1247859","6572144253ae69f2c700c9a9","1","32","2319","","","","","","","","","<img src= ""rock_img/I_Andesite_05.jpg"" style=""width:8cm; height:4.12cm;""><p>What type of rock is this?</p>","5","class_response","1","train","33","Pegmatite","Andesite","05","false","6","1","",""
"","","","","","","","","","","","html-button-response","170","2.0.0","1248658","6572144253ae69f2c700c9a9","1","32","798","","","","","","","","","<img src= rock_img/I_Andesite_05.jpg style=""width:8cm; height:4.12cm;""><p style='font-size: 30px; color: red;'><strong>Incorrect!</strong></p><p style='font-size: 30px;'><strong>This rock is andesite</strong></p>","0","corr_feedback","1","train","33","","","","","","","",""
"","","","","","","","","","","","html-button-response","171","2.0.0","1251667","6572144253ae69f2c700c9a9","1","32","3007","","","","","","","","","<img src= ""rock_img/I_Pumice_05.jpg"" style=""width:8cm; height:7.25cm;""><p>What type of rock is this?</p>","7","class_response","1","train","34","Pumice","Pumice","05","true","8","8","",""
"","","","","","","","","","","","html-button-response","172","2.0.0","1252842","6572144253ae69f2c700c9a9","1","32","1174","","","","","","","","","<img src= rock_img/I_Pumice_05.jpg style=""width:8cm; height:7.25cm;""><p style='font-size: 30px; color: green;'><strong>Correct!</strong></p><p style='font-size: 30px;'><strong>This rock is pumice</strong></p>","0","corr_feedback","1","train","34","","","","","","","",""
"","","","","","","","","","","","html-button-response","173","2.0.0","1255310","6572144253ae69f2c700c9a9","1","32","2466","","","","","","","","","<img src= ""rock_img/I_Pegmatite_16.jpg"" style=""width:8cm; height:5.8cm;""><p>What type of rock is this?</p>","0","class_response","1","train","35","Andesite","Pegmatite","16","false","1","6","",""
"","","","","","","","","","","","html-button-response","174","2.0.0","1258594","6572144253ae69f2c700c9a9","1","32","3283","","","","","","","","","<img src= rock_img/I_Pegmatite_16.jpg style=""width:8cm; height:5.8cm;""><p style='font-size: 30px; color: red;'><strong>Incorrect!</strong></p><p style='font-size: 30px;'><strong>This rock is pegmatite</strong></p>","0","corr_feedback","1","train","35","","","","","","","",""
"","","","","","","","","","","","html-button-response","175","2.0.0","1262278","6572144253ae69f2c700c9a9","1","32","3683","","","","","","","","","<img src= ""rock_img/I_Diorite_16.jpg"" style=""width:8cm; height:6.74cm;""><p>What type of rock is this?</p>","3","class_response","1","train","36","Gabbro","Diorite","16","false","4","3","",""
"","","","","","","","","","","","html-button-response","176","2.0.0","1263401","6572144253ae69f2c700c9a9","1","32","1122","","","","","","","","","<img src= rock_img/I_Diorite_16.jpg style=""width:8cm; height:6.74cm;""><p style='font-size: 30px; color: red;'><strong>Incorrect!</strong></p><p style='font-size: 30px;'><strong>This rock is diorite</strong></p>","0","corr_feedback","1","train","36","","","","","","","",""
"","","","","","","","","","","","html-button-response","177","2.0.0","1268174","6572144253ae69f2c700c9a9","1","32","4771","","","","","","","","","<img src= ""rock_img/I_Gabbro_13.jpg"" style=""width:8cm; height:5.08cm;""><p>What type of rock is this?</p>","1","class_response","1","train","37","Basalt","Gabbro","13","false","2","4","",""
"","","","","","","","","","","","html-button-response","178","2.0.0","1268998","6572144253ae69f2c700c9a9","1","32","823","","","","","","","","","<img src= rock_img/I_Gabbro_13.jpg style=""width:8cm; height:5.08cm;""><p style='font-size: 30px; color: red;'><strong>Incorrect!</strong></p><p style='font-size: 30px;'><strong>This rock is gabbro</strong></p>","0","corr_feedback","1","train","37","","","","","","","",""
"","","","","","","","","","","","html-button-response","179","2.0.0","1270118","6572144253ae69f2c700c9a9","1","32","1118","","","","","","","","","<img src= ""rock_img/I_Obsidian_06.jpg"" style=""width:8cm; height:6.8cm;""><p>What type of rock is this?</p>","4","class_response","1","train","38","Obsidian","Obsidian","06","true","5","5","",""
"","","","","","","","","","","","html-button-response","180","2.0.0","1271078","6572144253ae69f2c700c9a9","1","32","959","","","","","","","","","<img src= rock_img/I_Obsidian_06.jpg style=""width:8cm; height:6.8cm;""><p style='font-size: 30px; color: green;'><strong>Correct!</strong></p><p style='font-size: 30px;'><strong>This rock is obsidian</strong></p>","0","corr_feedback","1","train","38","","","","","","","",""
"","","","","","","","","","","","html-button-response","181","2.0.0","1275566","6572144253ae69f2c700c9a9","1","32","4486","","","","","","","","","<img src= ""rock_img/I_Diorite_02.jpg"" style=""width:8cm; height:6.27cm;""><p>What type of rock is this?</p>","6","class_response","1","train","39","Peridotite","Diorite","02","false","7","3","",""
"","","","","","","","","","","","html-button-response","182","2.0.0","1276670","6572144253ae69f2c700c9a9","1","32","1103","","","","","","","","","<img src= rock_img/I_Diorite_02.jpg style=""width:8cm; height:6.27cm;""><p style='font-size: 30px; color: red;'><strong>Incorrect!</strong></p><p style='font-size: 30px;'><strong>This rock is diorite</strong></p>","0","corr_feedback","1","train","39","","","","","","","",""
"","","","","","","","","","","","html-button-response","183","2.0.0","1278365","6572144253ae69f2c700c9a9","1","32","1694","","","","","","","","","<img src= ""rock_img/I_Diorite_09.jpg"" style=""width:8cm; height:5.27cm;""><p>What type of rock is this?</p>","1","class_response","1","train","40","Basalt","Diorite","09","false","2","3","",""
"","","","","","","","","","","","html-button-response","184","2.0.0","1279230","6572144253ae69f2c700c9a9","1","32","863","","","","","","","","","<img src= rock_img/I_Diorite_09.jpg style=""width:8cm; height:5.27cm;""><p style='font-size: 30px; color: red;'><strong>Incorrect!</strong></p><p style='font-size: 30px;'><strong>This rock is diorite</strong></p>","0","corr_feedback","1","train","40","","","","","","","",""
"","","","","","","","","","","","html-button-response","185","2.0.0","1280534","6572144253ae69f2c700c9a9","1","32","1303","","","","","","","","","<img src= ""rock_img/I_Pegmatite_12.jpg"" style=""width:8cm; height:5.7cm;""><p>What type of rock is this?</p>","5","class_response","1","train","41","Pegmatite","Pegmatite","12","true","6","6","",""
"","","","","","","","","","","","html-button-response","186","2.0.0","1281487","6572144253ae69f2c700c9a9","1","32","952","","","","","","","","","<img src= rock_img/I_Pegmatite_12.jpg style=""width:8cm; height:5.7cm;""><p style='font-size: 30px; color: green;'><strong>Correct!</strong></p><p style='font-size: 30px;'><strong>This rock is pegmatite</strong></p>","0","corr_feedback","1","train","41","","","","","","","",""
"","","","","","","","","","","","html-button-response","187","2.0.0","1282902","6572144253ae69f2c700c9a9","1","32","1414","","","","","","","","","<img src= ""rock_img/I_Peridotite_08.jpg"" style=""width:8cm; height:6.7cm;""><p>What type of rock is this?</p>","3","class_response","1","train","42","Gabbro","Peridotite","08","false","4","7","",""
"","","","","","","","","","","","html-button-response","188","2.0.0","1283973","6572144253ae69f2c700c9a9","1","32","1070","","","","","","","","","<img src= rock_img/I_Peridotite_08.jpg style=""width:8cm; height:6.7cm;""><p style='font-size: 30px; color: red;'><strong>Incorrect!</strong></p><p style='font-size: 30px;'><strong>This rock is peridotite</strong></p>","0","corr_feedback","1","train","42","","","","","","","",""
"","","","","","","","","","","","html-button-response","189","2.0.0","1285309","6572144253ae69f2c700c9a9","1","32","1335","","","","","","","","","<img src= ""rock_img/I_Diorite_14.jpg"" style=""width:8cm; height:5.71cm;""><p>What type of rock is this?</p>","2","class_response","1","train","43","Diorite","Diorite","14","true","3","3","",""
"","","","","","","","","","","","html-button-response","190","2.0.0","1286278","6572144253ae69f2c700c9a9","1","32","968","","","","","","","","","<img src= rock_img/I_Diorite_14.jpg style=""width:8cm; height:5.71cm;""><p style='font-size: 30px; color: green;'><strong>Correct!</strong></p><p style='font-size: 30px;'><strong>This rock is diorite</strong></p>","0","corr_feedback","1","train","43","","","","","","","",""
"","","","","","","","","","","","html-button-response","191","2.0.0","1288390","6572144253ae69f2c700c9a9","1","32","2110","","","","","","","","","<img src= ""rock_img/I_Peridotite_06.jpg"" style=""width:8cm; height:7.53cm;""><p>What type of rock is this?</p>","0","class_response","1","train","44","Andesite","Peridotite","06","false","1","7","",""
"","","","","","","","","","","","html-button-response","192","2.0.0","1289269","6572144253ae69f2c700c9a9","1","32","878","","","","","","","","","<img src= rock_img/I_Peridotite_06.jpg style=""width:8cm; height:7.53cm;""><p style='font-size: 30px; color: red;'><strong>Incorrect!</strong></p><p style='font-size: 30px;'><strong>This rock is peridotite</strong></p>","0","corr_feedback","1","train","44","","","","","","","",""
"","","","","","","","","","","","html-button-response","193","2.0.0","1290902","6572144253ae69f2c700c9a9","1","32","1631","","","","","","","","","<img src= ""rock_img/I_Andesite_04.jpg"" style=""width:8cm; height:5.96cm;""><p>What type of rock is this?</p>","7","class_response","1","train","45","Pumice","Andesite","04","false","8","1","",""
"","","","","","","","","","","","html-button-response","194","2.0.0","1291806","6572144253ae69f2c700c9a9","1","32","903","","","","","","","","","<img src= rock_img/I_Andesite_04.jpg style=""width:8cm; height:5.96cm;""><p style='font-size: 30px; color: red;'><strong>Incorrect!</strong></p><p style='font-size: 30px;'><strong>This rock is andesite</strong></p>","0","corr_feedback","1","train","45","","","","","","","",""
"","","","","","","","","","","","html-button-response","195","2.0.0","1293159","6572144253ae69f2c700c9a9","1","32","1352","","","","","","","","","<img src= ""rock_img/I_Peridotite_04.jpg"" style=""width:8cm; height:6.680000000000001cm;""><p>What type of rock is this?</p>","3","class_response","1","train","46","Gabbro","Peridotite","04","false","4","7","",""
"","","","","","","","","","","","html-button-response","196","2.0.0","1294038","6572144253ae69f2c700c9a9","1","32","878","","","","","","","","","<img src= rock_img/I_Peridotite_04.jpg style=""width:8cm; height:6.680000000000001cm;""><p style='font-size: 30px; color: red;'><strong>Incorrect!</strong></p><p style='font-size: 30px;'><strong>This rock is peridotite</strong></p>","0","corr_feedback","1","train","46","","","","","","","",""
"","","","","","","","","","","","html-button-response","197","2.0.0","1295111","6572144253ae69f2c700c9a9","1","32","1071","","","","","","","","","<img src= ""rock_img/I_Andesite_11.jpg"" style=""width:8cm; height:4.92cm;""><p>What type of rock is this?</p>","1","class_response","1","train","47","Basalt","Andesite","11","false","2","1","",""
"","","","","","","","","","","","html-button-response","198","2.0.0","1295871","6572144253ae69f2c700c9a9","1","32","759","","","","","","","","","<img src= rock_img/I_Andesite_11.jpg style=""width:8cm; height:4.92cm;""><p style='font-size: 30px; color: red;'><strong>Incorrect!</strong></p><p style='font-size: 30px;'><strong>This rock is andesite</strong></p>","0","corr_feedback","1","train","47","","","","","","","",""
"","","","","","","","","","","","html-button-response","199","2.0.0","1296830","6572144253ae69f2c700c9a9","1","32","958","","","","","","","","","<img src= ""rock_img/I_Pumice_10.jpg"" style=""width:8cm; height:7.609999999999999cm;""><p>What type of rock is this?</p>","7","class_response","1","train","48","Pumice","Pumice","10","true","8","8","",""
"","","","","","","","","","","","html-button-response","200","2.0.0","1297566","6572144253ae69f2c700c9a9","1","32","735","","","","","","","","","<img src= rock_img/I_Pumice_10.jpg style=""width:8cm; height:7.609999999999999cm;""><p style='font-size: 30px; color: green;'><strong>Correct!</strong></p><p style='font-size: 30px;'><strong>This rock is pumice</strong></p>","0","corr_feedback","1","train","48","","","","","","","",""
"","","","","","","","","","","","instructions","203","2.0.0","1300413","6572144253ae69f2c700c9a9","1","32","2846","","","","","","","","[{""page_index"":0,""viewing_time"":1271},{""page_index"":1,""viewing_time"":1576}]","","","","","","","","","","","","","",""
"","","","","","","","","","","","html-button-response","204","2.0.0","1301662","6572144253ae69f2c700c9a9","1","32","1247","","","","","","","","","","0","start_test","","","","","","","","","","",""
"","","","","","","","","","","","html-button-response","205","2.0.0","1303806","6572144253ae69f2c700c9a9","1","32","2143","","","","","","","","","<img src= ""rock_img/I_Gabbro_10.jpg"" style=""width:8cm; height:5.680000000000001cm;""><p>What type of rock is this?</p>","2","class_response","1","test","1","Diorite","Gabbro","10","false","3","4","",""
"","","","","","","","","","","","html-keyboard-response","206","2.0.0","1304319","6572144253ae69f2c700c9a9","1","32","null","","","","","","","","","<p style='font-size: 30px;'><strong>Okay</strong></p>","null","neutral_feedback","1","test","1","","","","","","","",""
"","","","","","","","","","","","html-button-response","207","2.0.0","1305726","6572144253ae69f2c700c9a9","1","32","1404","","","","","","","","","<img src= ""rock_img/I_Obsidian_10.jpg"" style=""width:8cm; height:6.260000000000001cm;""><p>What type of rock is this?</p>","4","class_response","1","test","2","Obsidian","Obsidian","10","true","5","5","",""
"","","","","","","","","","","","html-keyboard-response","208","2.0.0","1306233","6572144253ae69f2c700c9a9","1","32","null","","","","","","","","","<p style='font-size: 30px;'><strong>Okay</strong></p>","null","neutral_feedback","1","test","2","","","","","","","",""
"","","","","","","","","","","","html-button-response","209","2.0.0","1310591","6572144253ae69f2c700c9a9","1","32","4354","","","","","","","","","<img src= ""rock_img/I_Basalt_04.jpg"" style=""width:8cm; height:7.53cm;""><p>What type of rock is this?</p>","3","class_response","1","test","3","Gabbro","Basalt","04","false","4","2","",""
"","","","","","","","","","","","html-keyboard-response","210","2.0.0","1311101","6572144253ae69f2c700c9a9","1","32","null","","","","","","","","","<p style='font-size: 30px;'><strong>Okay</strong></p>","null","neutral_feedback","1","test","3","","","","","","","",""
"","","","","","","","","","","","html-button-response","211","2.0.0","1314102","6572144253ae69f2c700c9a9","1","32","2997","","","","","","","","","<img src= ""rock_img/I_Pegmatite_06.jpg"" style=""width:8cm; height:5.17cm;""><p>What type of rock is this?</p>","1","class_response","1","test","4","Basalt","Pegmatite","06","false","2","6","",""
"","","","","","","","","","","","html-keyboard-response","212","2.0.0","1314610","6572144253ae69f2c700c9a9","1","32","null","","","","","","","","","<p style='font-size: 30px;'><strong>Okay</strong></p>","null","neutral_feedback","1","test","4","","","","","","","",""
"","","","","","","","","","","","html-button-response","213","2.0.0","1316630","6572144253ae69f2c700c9a9","1","32","2017","","","","","","","","","<img src= ""rock_img/I_Andesite_07.jpg"" style=""width:8cm; height:5.93cm;""><p>What type of rock is this?</p>","2","class_response","1","test","5","Diorite","Andesite","07","false","3","1","",""
"","","","","","","","","","","","html-keyboard-response","214","2.0.0","1317148","6572144253ae69f2c700c9a9","1","32","null","","","","","","","","","<p style='font-size: 30px;'><strong>Okay</strong></p>","null","neutral_feedback","1","test","5","","","","","","","",""
"","","","","","","","","","","","html-button-response","215","2.0.0","1319045","6572144253ae69f2c700c9a9","1","32","1893","","","","","","","","","<img src= ""rock_img/I_Diorite_06.jpg"" style=""width:8cm; height:6.03cm;""><p>What type of rock is this?</p>","3","class_response","1","test","6","Gabbro","Diorite","06","false","4","3","",""
"","","","","","","","","","","","html-keyboard-response","216","2.0.0","1319549","6572144253ae69f2c700c9a9","1","32","null","","","","","","","","","<p style='font-size: 30px;'><strong>Okay</strong></p>","null","neutral_feedback","1","test","6","","","","","","","",""
"","","","","","","","","","","","html-button-response","217","2.0.0","1320718","6572144253ae69f2c700c9a9","1","32","1166","","","","","","","","","<img src= ""rock_img/I_Andesite_16.jpg"" style=""width:8cm; height:6.010000000000001cm;""><p>What type of rock is this?</p>","0","class_response","1","test","7","Andesite","Andesite","16","true","1","1","",""
"","","","","","","","","","","","html-keyboard-response","218","2.0.0","1321221","6572144253ae69f2c700c9a9","1","32","null","","","","","","","","","<p style='font-size: 30px;'><strong>Okay</strong></p>","null","neutral_feedback","1","test","7","","","","","","","",""
"","","","","","","","","","","","html-button-response","219","2.0.0","1322390","6572144253ae69f2c700c9a9","1","32","1165","","","","","","","","","<img src= ""rock_img/I_Pumice_09.jpg"" style=""width:8cm; height:6.44cm;""><p>What type of rock is this?</p>","7","class_response","1","test","8","Pumice","Pumice","09","true","8","8","",""
"","","","","","","","","","","","html-keyboard-response","220","2.0.0","1322894","6572144253ae69f2c700c9a9","1","32","null","","","","","","","","","<p style='font-size: 30px;'><strong>Okay</strong></p>","null","neutral_feedback","1","test","8","","","","","","","",""
"","","","","","","","","","","","html-button-response","221","2.0.0","1323926","6572144253ae69f2c700c9a9","1","32","1028","","","","","","","","","<img src= ""rock_img/I_Peridotite_15.jpg"" style=""width:8cm; height:6cm;""><p>What type of rock is this?</p>","5","class_response","1","test","9","Pegmatite","Peridotite","15","false","6","7","",""
"","","","","","","","","","","","html-keyboard-response","222","2.0.0","1324438","6572144253ae69f2c700c9a9","1","32","null","","","","","","","","","<p style='font-size: 30px;'><strong>Okay</strong></p>","null","neutral_feedback","1","test","9","","","","","","","",""
"","","","","","","","","","","","html-button-response","223","2.0.0","1325563","6572144253ae69f2c700c9a9","1","32","1124","","","","","","","","","<img src= ""rock_img/I_Pumice_13.jpg"" style=""width:8cm; height:8.200000000000001cm;""><p>What type of rock is this?</p>","7","class_response","1","test","10","Pumice","Pumice","13","true","8","8","",""
"","","","","","","","","","","","html-keyboard-response","224","2.0.0","1326071","6572144253ae69f2c700c9a9","1","32","null","","","","","","","","","<p style='font-size: 30px;'><strong>Okay</strong></p>","null","neutral_feedback","1","test","10","","","","","","","",""
"","","","","","","","","","","","html-button-response","225","2.0.0","1327398","6572144253ae69f2c700c9a9","1","32","1324","","","","","","","","","<img src= ""rock_img/I_Gabbro_12.jpg"" style=""width:8cm; height:7.800000000000001cm;""><p>What type of rock is this?</p>","3","class_response","1","test","11","Gabbro","Gabbro","12","true","4","4","",""
"","","","","","","","","","","","html-keyboard-response","226","2.0.0","1327913","6572144253ae69f2c700c9a9","1","32","null","","","","","","","","","<p style='font-size: 30px;'><strong>Okay</strong></p>","null","neutral_feedback","1","test","11","","","","","","","",""
"","","","","","","","","","","","html-button-response","227","2.0.0","1329086","6572144253ae69f2c700c9a9","1","32","1170","","","","","","","","","<img src= ""rock_img/I_Andesite_10.jpg"" style=""width:8cm; height:4.16cm;""><p>What type of rock is this?</p>","0","class_response","1","test","12","Andesite","Andesite","10","true","1","1","",""
"","","","","","","","","","","","html-keyboard-response","228","2.0.0","1329601","6572144253ae69f2c700c9a9","1","32","null","","","","","","","","","<p style='font-size: 30px;'><strong>Okay</strong></p>","null","neutral_feedback","1","test","12","","","","","","","",""
"","","","","","","","","","","","html-button-response","229","2.0.0","1330382","6572144253ae69f2c700c9a9","1","32","777","","","","","","","","","<img src= ""rock_img/I_Gabbro_05.jpg"" style=""width:8cm; height:6cm;""><p>What type of rock is this?</p>","1","class_response","1","test","13","Basalt","Gabbro","05","false","2","4","",""
"","","","","","","","","","","","html-keyboard-response","230","2.0.0","1330885","6572144253ae69f2c700c9a9","1","32","null","","","","","","","","","<p style='font-size: 30px;'><strong>Okay</strong></p>","null","neutral_feedback","1","test","13","","","","","","","",""
"","","","","","","","","","","","html-button-response","231","2.0.0","1331830","6572144253ae69f2c700c9a9","1","32","940","","","","","","","","","<img src= ""rock_img/I_Basalt_10.jpg"" style=""width:8cm; height:5.85cm;""><p>What type of rock is this?</p>","5","class_response","1","test","14","Pegmatite","Basalt","10","false","6","2","",""
"","","","","","","","","","","","html-keyboard-response","232","2.0.0","1332335","6572144253ae69f2c700c9a9","1","32","null","","","","","","","","","<p style='font-size: 30px;'><strong>Okay</strong></p>","null","neutral_feedback","1","test","14","","","","","","","",""
"","","","","","","","","","","","html-button-response","233","2.0.0","1333042","6572144253ae69f2c700c9a9","1","32","704","","","","","","","","","<img src= ""rock_img/I_Peridotite_02.jpg"" style=""width:8cm; height:5.859999999999999cm;""><p>What type of rock is this?</p>","6","class_response","1","test","15","Peridotite","Peridotite","02","true","7","7","",""
"","","","","","","","","","","","html-keyboard-response","234","2.0.0","1333548","6572144253ae69f2c700c9a9","1","32","null","","","","","","","","","<p style='font-size: 30px;'><strong>Okay</strong></p>","null","neutral_feedback","1","test","15","","","","","","","",""
"","","","","","","","","","","","html-button-response","235","2.0.0","1335102","6572144253ae69f2c700c9a9","1","32","1551","","","","","","","","","<img src= ""rock_img/I_Obsidian_05.jpg"" style=""width:8cm; height:6.33cm;""><p>What type of rock is this?</p>","4","class_response","1","test","16","Obsidian","Obsidian","05","true","5","5","",""
"","","","","","","","","","","","html-keyboard-response","236","2.0.0","1335604","6572144253ae69f2c700c9a9","1","32","null","","","","","","","","","<p style='font-size: 30px;'><strong>Okay</strong></p>","null","neutral_feedback","1","test","16","","","","","","","",""
"","","","","","","","","","","","html-button-response","237","2.0.0","1337774","6572144253ae69f2c700c9a9","1","32","2169","","","","","","","","","<img src= ""rock_img/I_Pegmatite_15.jpg"" style=""width:8cm; height:6cm;""><p>What type of rock is this?</p>","0","class_response","1","test","17","Andesite","Pegmatite","15","false","1","6","",""
"","","","","","","","","","","","html-keyboard-response","238","2.0.0","1338279","6572144253ae69f2c700c9a9","1","32","null","","","","","","","","","<p style='font-size: 30px;'><strong>Okay</strong></p>","null","neutral_feedback","1","test","17","","","","","","","",""
"","","","","","","","","","","","html-button-response","239","2.0.0","1339294","6572144253ae69f2c700c9a9","1","32","1014","","","","","","","","","<img src= ""rock_img/I_Gabbro_16.jpg"" style=""width:8cm; height:6.44cm;""><p>What type of rock is this?</p>","3","class_response","1","test","18","Gabbro","Gabbro","16","true","4","4","",""
"","","","","","","","","","","","html-keyboard-response","240","2.0.0","1339806","6572144253ae69f2c700c9a9","1","32","null","","","","","","","","","<p style='font-size: 30px;'><strong>Okay</strong></p>","null","neutral_feedback","1","test","18","","","","","","","",""
"","","","","","","","","","","","html-button-response","241","2.0.0","1340910","6572144253ae69f2c700c9a9","1","32","1103","","","","","","","","","<img src= ""rock_img/I_Pegmatite_05.jpg"" style=""width:8cm; height:7.300000000000001cm;""><p>What type of rock is this?</p>","2","class_response","1","test","19","Diorite","Pegmatite","05","false","3","6","",""
"","","","","","","","","","","","html-keyboard-response","242","2.0.0","1341413","6572144253ae69f2c700c9a9","1","32","null","","","","","","","","","<p style='font-size: 30px;'><strong>Okay</strong></p>","null","neutral_feedback","1","test","19","","","","","","","",""
"","","","","","","","","","","","html-button-response","243","2.0.0","1342846","6572144253ae69f2c700c9a9","1","32","1431","","","","","","","","","<img src= ""rock_img/I_Andesite_01.jpg"" style=""width:8cm; height:5.87cm;""><p>What type of rock is this?</p>","1","class_response","1","test","20","Basalt","Andesite","01","false","2","1","",""
"","","","","","","","","","","","html-keyboard-response","244","2.0.0","1343349","6572144253ae69f2c700c9a9","1","32","null","","","","","","","","","<p style='font-size: 30px;'><strong>Okay</strong></p>","null","neutral_feedback","1","test","20","","","","","","","",""
"","","","","","","","","","","","html-button-response","245","2.0.0","1344570","6572144253ae69f2c700c9a9","1","32","1218","","","","","","","","","<img src= ""rock_img/I_Pegmatite_09.jpg"" style=""width:8cm; height:4.03cm;""><p>What type of rock is this?</p>","5","class_response","1","test","21","Pegmatite","Pegmatite","09","true","6","6","",""
"","","","","","","","","","","","html-keyboard-response","246","2.0.0","1345072","6572144253ae69f2c700c9a9","1","32","null","","","","","","","","","<p style='font-size: 30px;'><strong>Okay</strong></p>","null","neutral_feedback","1","test","21","","","","","","","",""
"","","","","","","","","","","","html-button-response","247","2.0.0","1346469","6572144253ae69f2c700c9a9","1","32","1394","","","","","","","","","<img src= ""rock_img/I_Gabbro_15.jpg"" style=""width:8cm; height:6.29cm;""><p>What type of rock is this?</p>","6","class_response","1","test","22","Peridotite","Gabbro","15","false","7","4","",""
"","","","","","","","","","","","html-keyboard-response","248","2.0.0","1346977","6572144253ae69f2c700c9a9","1","32","null","","","","","","","","","<p style='font-size: 30px;'><strong>Okay</strong></p>","null","neutral_feedback","1","test","22","","","","","","","",""
"","","","","","","","","","","","html-button-response","249","2.0.0","1347954","6572144253ae69f2c700c9a9","1","32","973","","","","","","","","","<img src= ""rock_img/I_Pumice_08.jpg"" style=""width:8cm; height:6.67cm;""><p>What type of rock is this?</p>","7","class_response","1","test","23","Pumice","Pumice","08","true","8","8","",""
"","","","","","","","","","","","html-keyboard-response","250","2.0.0","1348456","6572144253ae69f2c700c9a9","1","32","null","","","","","","","","","<p style='font-size: 30px;'><strong>Okay</strong></p>","null","neutral_feedback","1","test","23","","","","","","","",""
"","","","","","","","","","","","html-button-response","251","2.0.0","1352538","6572144253ae69f2c700c9a9","1","32","4079","","","","","","","","","<img src= ""rock_img/I_Diorite_08.jpg"" style=""width:8cm; height:6.37cm;""><p>What type of rock is this?</p>","0","class_response","1","test","24","Andesite","Diorite","08","false","1","3","",""
"","","","","","","","","","","","html-keyboard-response","252","2.0.0","1353046","6572144253ae69f2c700c9a9","1","32","null","","","","","","","","","<p style='font-size: 30px;'><strong>Okay</strong></p>","null","neutral_feedback","1","test","24","","","","","","","",""
"","","","","","","","","","","","html-button-response","253","2.0.0","1354306","6572144253ae69f2c700c9a9","1","32","1257","","","","","","","","","<img src= ""rock_img/I_Obsidian_14.jpg"" style=""width:8cm; height:7.64cm;""><p>What type of rock is this?</p>","4","class_response","1","test","25","Obsidian","Obsidian","14","true","5","5","",""
"","","","","","","","","","","","html-keyboard-response","254","2.0.0","1354819","6572144253ae69f2c700c9a9","1","32","null","","","","","","","","","<p style='font-size: 30px;'><strong>Okay</strong></p>","null","neutral_feedback","1","test","25","","","","","","","",""
"","","","","","","","","","","","html-button-response","255","2.0.0","1356874","6572144253ae69f2c700c9a9","1","32","2052","","","","","","","","","<img src= ""rock_img/I_Peridotite_14.jpg"" style=""width:8cm; height:5.3cm;""><p>What type of rock is this?</p>","7","class_response","1","test","26","Pumice","Peridotite","14","false","8","7","",""
"","","","","","","","","","","","html-keyboard-response","256","2.0.0","1357384","6572144253ae69f2c700c9a9","1","32","null","","","","","","","","","<p style='font-size: 30px;'><strong>Okay</strong></p>","null","neutral_feedback","1","test","26","","","","","","","",""
"","","","","","","","","","","","html-button-response","257","2.0.0","1358569","6572144253ae69f2c700c9a9","1","32","1182","","","","","","","","","<img src= ""rock_img/I_Peridotite_12.jpg"" style=""width:8cm; height:4.54cm;""><p>What type of rock is this?</p>","3","class_response","1","test","27","Gabbro","Peridotite","12","false","4","7","",""
"","","","","","","","","","","","html-keyboard-response","258","2.0.0","1359071","6572144253ae69f2c700c9a9","1","32","null","","","","","","","","","<p style='font-size: 30px;'><strong>Okay</strong></p>","null","neutral_feedback","1","test","27","","","","","","","",""
"","","","","","","","","","","","html-button-response","259","2.0.0","1360449","6572144253ae69f2c700c9a9","1","32","1374","","","","","","","","","<img src= ""rock_img/I_Diorite_10.jpg"" style=""width:8cm; height:5.949999999999999cm;""><p>What type of rock is this?</p>","3","class_response","1","test","28","Gabbro","Diorite","10","false","4","3","",""
"","","","","","","","","","","","html-keyboard-response","260","2.0.0","1360961","6572144253ae69f2c700c9a9","1","32","null","","","","","","","","","<p style='font-size: 30px;'><strong>Okay</strong></p>","null","neutral_feedback","1","test","28","","","","","","","",""
"","","","","","","","","","","","html-button-response","261","2.0.0","1362258","6572144253ae69f2c700c9a9","1","32","1295","","","","","","","","","<img src= ""rock_img/I_Diorite_13.jpg"" style=""width:8cm; height:6.29cm;""><p>What type of rock is this?</p>","1","class_response","1","test","29","Basalt","Diorite","13","false","2","3","",""
"","","","","","","","","","","","html-keyboard-response","262","2.0.0","1362772","6572144253ae69f2c700c9a9","1","32","null","","","","","","","","","<p style='font-size: 30px;'><strong>Okay</strong></p>","null","neutral_feedback","1","test","29","","","","","","","",""
"","","","","","","","","","","","html-button-response","263","2.0.0","1364098","6572144253ae69f2c700c9a9","1","32","1323","","","","","","","","","<img src= ""rock_img/I_Diorite_11.jpg"" style=""width:8cm; height:7.11cm;""><p>What type of rock is this?</p>","6","class_response","1","test","30","Peridotite","Diorite","11","false","7","3","",""
"","","","","","","","","","","","html-keyboard-response","264","2.0.0","1364611","6572144253ae69f2c700c9a9","1","32","null","","","","","","","","","<p style='font-size: 30px;'><strong>Okay</strong></p>","null","neutral_feedback","1","test","30","","","","","","","",""
"","","","","","","","","","","","html-button-response","265","2.0.0","1366258","6572144253ae69f2c700c9a9","1","32","1643","","","","","","","","","<img src= ""rock_img/I_Basalt_11.jpg"" style=""width:8cm; height:5.359999999999999cm;""><p>What type of rock is this?</p>","7","class_response","1","test","31","Pumice","Basalt","11","false","8","2","",""
"","","","","","","","","","","","html-keyboard-response","266","2.0.0","1366773","6572144253ae69f2c700c9a9","1","32","null","","","","","","","","","<p style='font-size: 30px;'><strong>Okay</strong></p>","null","neutral_feedback","1","test","31","","","","","","","",""
"","","","","","","","","","","","html-button-response","267","2.0.0","1368771","6572144253ae69f2c700c9a9","1","32","1994","","","","","","","","","<img src= ""rock_img/I_Gabbro_09.jpg"" style=""width:8cm; height:7.279999999999999cm;""><p>What type of rock is this?</p>","0","class_response","1","test","32","Andesite","Gabbro","09","false","1","4","",""
"","","","","","","","","","","","html-keyboard-response","268","2.0.0","1369288","6572144253ae69f2c700c9a9","1","32","null","","","","","","","","","<p style='font-size: 30px;'><strong>Okay</strong></p>","null","neutral_feedback","1","test","32","","","","","","","",""
"","","","","","","","","","","","html-button-response","269","2.0.0","1370882","6572144253ae69f2c700c9a9","1","32","1590","","","","","","","","","<img src= ""rock_img/I_Diorite_15.jpg"" style=""width:8cm; height:5.54cm;""><p>What type of rock is this?</p>","7","class_response","1","test","33","Pumice","Diorite","15","false","8","3","",""
"","","","","","","","","","","","html-keyboard-response","270","2.0.0","1371397","6572144253ae69f2c700c9a9","1","32","null","","","","","","","","","<p style='font-size: 30px;'><strong>Okay</strong></p>","null","neutral_feedback","1","test","33","","","","","","","",""
"","","","","","","","","","","","html-button-response","271","2.0.0","1372087","6572144253ae69f2c700c9a9","1","32","686","","","","","","","","","<img src= ""rock_img/I_Pumice_14.jpg"" style=""width:8cm; height:6.39cm;""><p>What type of rock is this?</p>","7","class_response","1","test","34","Pumice","Pumice","14","true","8","8","",""
"","","","","","","","","","","","html-keyboard-response","272","2.0.0","1372590","6572144253ae69f2c700c9a9","1","32","null","","","","","","","","","<p style='font-size: 30px;'><strong>Okay</strong></p>","null","neutral_feedback","1","test","34","","","","","","","",""
"","","","","","","","","","","","html-button-response","273","2.0.0","1373414","6572144253ae69f2c700c9a9","1","32","820","","","","","","","","","<img src= ""rock_img/I_Pumice_04.jpg"" style=""width:8cm; height:6.819999999999999cm;""><p>What type of rock is this?</p>","7","class_response","1","test","35","Pumice","Pumice","04","true","8","8","",""
"","","","","","","","","","","","html-keyboard-response","274","2.0.0","1373918","6572144253ae69f2c700c9a9","1","32","null","","","","","","","","","<p style='font-size: 30px;'><strong>Okay</strong></p>","null","neutral_feedback","1","test","35","","","","","","","",""
"","","","","","","","","","","","html-button-response","275","2.0.0","1375082","6572144253ae69f2c700c9a9","1","32","1160","","","","","","","","","<img src= ""rock_img/I_Obsidian_16.jpg"" style=""width:8cm; height:9.3cm;""><p>What type of rock is this?</p>","4","class_response","1","test","36","Obsidian","Obsidian","16","true","5","5","",""
"","","","","","","","","","","","html-keyboard-response","276","2.0.0","1375591","6572144253ae69f2c700c9a9","1","32","null","","","","","","","","","<p style='font-size: 30px;'><strong>Okay</strong></p>","null","neutral_feedback","1","test","36","","","","","","","",""
"","","","","","","","","","","","html-button-response","277","2.0.0","1376738","6572144253ae69f2c700c9a9","1","32","1144","","","","","","","","","<img src= ""rock_img/I_Pegmatite_11.jpg"" style=""width:8cm; height:8.14cm;""><p>What type of rock is this?</p>","2","class_response","1","test","37","Diorite","Pegmatite","11","false","3","6","",""
"","","","","","","","","","","","html-keyboard-response","278","2.0.0","1377242","6572144253ae69f2c700c9a9","1","32","null","","","","","","","","","<p style='font-size: 30px;'><strong>Okay</strong></p>","null","neutral_feedback","1","test","37","","","","","","","",""
"","","","","","","","","","","","html-button-response","279","2.0.0","1378966","6572144253ae69f2c700c9a9","1","32","1722","","","","","","","","","<img src= ""rock_img/I_Andesite_14.jpg"" style=""width:8cm; height:5.449999999999999cm;""><p>What type of rock is this?</p>","3","class_response","1","test","38","Gabbro","Andesite","14","false","4","1","",""
"","","","","","","","","","","","html-keyboard-response","280","2.0.0","1379471","6572144253ae69f2c700c9a9","1","32","null","","","","","","","","","<p style='font-size: 30px;'><strong>Okay</strong></p>","null","neutral_feedback","1","test","38","","","","","","","",""
"","","","","","","","","","","","html-button-response","281","2.0.0","1380627","6572144253ae69f2c700c9a9","1","32","1153","","","","","","","","","<img src= ""rock_img/I_Peridotite_13.jpg"" style=""width:8cm; height:7.58cm;""><p>What type of rock is this?</p>","5","class_response","1","test","39","Pegmatite","Peridotite","13","false","6","7","",""
"","","","","","","","","","","","html-keyboard-response","282","2.0.0","1381141","6572144253ae69f2c700c9a9","1","32","null","","","","","","","","","<p style='font-size: 30px;'><strong>Okay</strong></p>","null","neutral_feedback","1","test","39","","","","","","","",""
"","","","","","","","","","","","html-button-response","283","2.0.0","1382386","6572144253ae69f2c700c9a9","1","32","1241","","","","","","","","","<img src= ""rock_img/I_Basalt_06.jpg"" style=""width:8cm; height:7.06cm;""><p>What type of rock is this?</p>","6","class_response","1","test","40","Peridotite","Basalt","06","false","7","2","",""
"","","","","","","","","","","","html-keyboard-response","284","2.0.0","1382896","6572144253ae69f2c700c9a9","1","32","null","","","","","","","","","<p style='font-size: 30px;'><strong>Okay</strong></p>","null","neutral_feedback","1","test","40","","","","","","","",""
"","","","","","","","","","","","html-button-response","285","2.0.0","1384065","6572144253ae69f2c700c9a9","1","32","1166","","","","","","","","","<img src= ""rock_img/I_Andesite_02.jpg"" style=""width:8cm; height:8.5cm;""><p>What type of rock is this?</p>","1","class_response","1","test","41","Basalt","Andesite","02","false","2","1","",""
"","","","","","","","","","","","html-keyboard-response","286","2.0.0","1384567","6572144253ae69f2c700c9a9","1","32","null","","","","","","","","","<p style='font-size: 30px;'><strong>Okay</strong></p>","null","neutral_feedback","1","test","41","","","","","","","",""
"","","","","","","","","","","","html-button-response","287","2.0.0","1385746","6572144253ae69f2c700c9a9","1","32","1176","","","","","","","","","<img src= ""rock_img/I_Obsidian_09.jpg"" style=""width:8cm; height:5cm;""><p>What type of rock is this?</p>","4","class_response","1","test","42","Obsidian","Obsidian","09","true","5","5","",""
"","","","","","","","","","","","html-keyboard-response","288","2.0.0","1386253","6572144253ae69f2c700c9a9","1","32","null","","","","","","","","","<p style='font-size: 30px;'><strong>Okay</strong></p>","null","neutral_feedback","1","test","42","","","","","","","",""
"","","","","","","","","","","","html-button-response","289","2.0.0","1387786","6572144253ae69f2c700c9a9","1","32","1527","","","","","","","","","<img src= ""rock_img/I_Pumice_03.jpg"" style=""width:8cm; height:6.64cm;""><p>What type of rock is this?</p>","7","class_response","1","test","43","Pumice","Pumice","03","true","8","8","",""
"","","","","","","","","","","","html-keyboard-response","290","2.0.0","1388298","6572144253ae69f2c700c9a9","1","32","null","","","","","","","","","<p style='font-size: 30px;'><strong>Okay</strong></p>","null","neutral_feedback","1","test","43","","","","","","","",""
"","","","","","","","","","","","html-button-response","291","2.0.0","1390058","6572144253ae69f2c700c9a9","1","32","1758","","","","","","","","","<img src= ""rock_img/I_Basalt_14.jpg"" style=""width:8cm; height:5.82cm;""><p>What type of rock is this?</p>","7","class_response","1","test","44","Pumice","Basalt","14","false","8","2","",""
"","","","","","","","","","","","html-keyboard-response","292","2.0.0","1390563","6572144253ae69f2c700c9a9","1","32","null","","","","","","","","","<p style='font-size: 30px;'><strong>Okay</strong></p>","null","neutral_feedback","1","test","44","","","","","","","",""
"","","","","","","","","","","","html-button-response","293","2.0.0","1391813","6572144253ae69f2c700c9a9","1","32","1248","","","","","","","","","<img src= ""rock_img/I_Pegmatite_13.jpg"" style=""width:8cm; height:4.95cm;""><p>What type of rock is this?</p>","3","class_response","1","test","45","Gabbro","Pegmatite","13","false","4","6","",""
"","","","","","","","","","","","html-keyboard-response","294","2.0.0","1392326","6572144253ae69f2c700c9a9","1","32","null","","","","","","","","","<p style='font-size: 30px;'><strong>Okay</strong></p>","null","neutral_feedback","1","test","45","","","","","","","",""
"","","","","","","","","","","","html-button-response","295","2.0.0","1393689","6572144253ae69f2c700c9a9","1","32","1362","","","","","","","","","<img src= ""rock_img/I_Basalt_05.jpg"" style=""width:8cm; height:8.18cm;""><p>What type of rock is this?</p>","3","class_response","1","test","46","Gabbro","Basalt","05","false","4","2","",""
"","","","","","","","","","","","html-keyboard-response","296","2.0.0","1394203","6572144253ae69f2c700c9a9","1","32","null","","","","","","","","","<p style='font-size: 30px;'><strong>Okay</strong></p>","null","neutral_feedback","1","test","46","","","","","","","",""
"","","","","","","","","","","","html-button-response","297","2.0.0","1397042","6572144253ae69f2c700c9a9","1","32","2837","","","","","","","","","<img src= ""rock_img/I_Obsidian_02.jpg"" style=""width:8cm; height:7.51cm;""><p>What type of rock is this?</p>","4","class_response","1","test","47","Obsidian","Obsidian","02","true","5","5","",""
"","","","","","","","","","","","html-keyboard-response","298","2.0.0","1397551","6572144253ae69f2c700c9a9","1","32","null","","","","","","","","","<p style='font-size: 30px;'><strong>Okay</strong></p>","null","neutral_feedback","1","test","47","","","","","","","",""
"","","","","","","","","","","","html-button-response","299","2.0.0","1399466","6572144253ae69f2c700c9a9","1","32","1913","","","","","","","","","<img src= ""rock_img/I_Peridotite_05.jpg"" style=""width:8cm; height:7.1499999999999995cm;""><p>What type of rock is this?</p>","0","class_response","1","test","48","Andesite","Peridotite","05","false","1","7","",""
"","","","","","","","","","","","html-keyboard-response","300","2.0.0","1399977","6572144253ae69f2c700c9a9","1","32","null","","","","","","","","","<p style='font-size: 30px;'><strong>Okay</strong></p>","null","neutral_feedback","1","test","48","","","","","","","",""
"","","","","","","","","","","","html-button-response","301","2.0.0","1409842","6572144253ae69f2c700c9a9","1","32","","","","","","","","","","","","cycle_feedback","","","","","","","","","","8809.199999988079","1040.1000000238419"
"","","","","","","","","","","","html-button-response","303","2.0.0","1411061","6572144253ae69f2c700c9a9","1","32","1218","","","","","","","","","","0","start_train","","","","","","","","","","",""
"","","","","","","","","","","","html-button-response","304","2.0.0","1412602","6572144253ae69f2c700c9a9","1","32","1539","","","","","","","","","<img src= ""rock_img/I_Pegmatite_16.jpg"" style=""width:8cm; height:5.8cm;""><p>What type of rock is this?</p>","3","class_response","2","train","1","Gabbro","Pegmatite","16","false","4","6","",""
