"width","height","webaudio","browser","browser_version","mobile","os","fullscreen","vsync_rate","webcam","microphone","trial_type","trial_index","plugin_version","time_elapsed","subjID","condition","stimID","rt","url","success","value","timeout","failed_images","failed_audio","failed_video","view_history","stimulus","response","trialType","cycle","phase","trial","resp","cat","token","corr","resp_num","cat_num","time_fb1","time_fb2"
"1536","695","true","chrome","130.0.0","false","Windows 10","true","60.47","true","true","browser-check","0","2.0.0","1013","5d75c56a52c89d0017df611c","1","15","","","","","","","","","","","","","","","","","","","","","","",""
"","","","","","","","","","","","external-html","1","2.0.0","78654","5d75c56a52c89d0017df611c","1","15","77550","consent_form.html","","","","","","","","","","","","","","","","","","","","",""
"","","","","","","","","","","","fullscreen","2","2.0.0","83802","5d75c56a52c89d0017df611c","1","15","4144","","true","","","","","","","","","","","","","","","","","","","",""
"","","","","","","","","","","","call-function","3","2.0.0","83805","5d75c56a52c89d0017df611c","1","15","","","","{}","","","","","","","","","","","","","","","","","","",""
"","","","","","","","","","","","preload","4","2.0.0","86337","5d75c56a52c89d0017df611c","1","15","","","true","","false","[]","[]","[]","","","","","","","","","","","","","","",""
"","","","","","","","","","","","instructions","5","2.0.0","133755","5d75c56a52c89d0017df611c","1","15","47417","","","","","","","","[{""page_index"":0,""viewing_time"":13249},{""page_index"":1,""viewing_time"":22262},{""page_index"":2,""viewing_time"":11906}]","","","","","","","","","","","","","",""
"","","","","","","","","","","","html-button-response","6","2.0.0","141183","5d75c56a52c89d0017df611c","1","15","7425","","","","","","","","","","0","start_test","","","","","","","","","","",""
"","","","","","","","","","","","html-button-response","7","2.0.0","145576","5d75c56a52c89d0017df611c","1","15","4390","","","","","","","","","<img src= ""rock_img/I_Obsidian_06.jpg"" style=""width:8cm; height:6.8cm;""><p>What type of rock is this?</p>","4","class_response","0","test","1","Obsidian","Obsidian","06","true","5","5","",""
"","","","","","","","","","","","html-keyboard-response","8","2.0.0","146094","5d75c56a52c89d0017df611c","1","15","null","","","","","","","","","<p style='font-size: 30px;'><strong>Okay</strong></p>","null","neutral_feedback","0","test","1","","","","","","","",""
"","","","","","","","","","","","html-button-response","9","2.0.0","153186","5d75c56a52c89d0017df611c","1","15","7089","","","","","","","","","<img src= ""rock_img/I_Andesite_09.jpg"" style=""width:8cm; height:6cm;""><p>What type of rock is this?</p>","7","class_response","0","test","2","Pumice","Andesite","09","false","8","1","",""
"","","","","","","","","","","","html-keyboard-response","10","2.0.0","153696","5d75c56a52c89d0017df611c","1","15","null","","","","","","","","","<p style='font-size: 30px;'><strong>Okay</strong></p>","null","neutral_feedback","0","test","2","","","","","","","",""
"","","","","","","","","","","","html-button-response","11","2.0.0","158763","5d75c56a52c89d0017df611c","1","15","5065","","","","","","","","","<img src= ""rock_img/I_Pegmatite_11.jpg"" style=""width:8cm; height:8.14cm;""><p>What type of rock is this?</p>","0","class_response","0","test","3","Andesite","Pegmatite","11","false","1","6","",""
"","","","","","","","","","","","html-keyboard-response","12","2.0.0","159268","5d75c56a52c89d0017df611c","1","15","null","","","","","","","","","<p style='font-size: 30px;'><strong>Okay</strong></p>","null","neutral_feedback","0","test","3","","","","","","","",""
"","","","","","","","","","","","html-button-response","13","2.0.0","166523","5d75c56a52c89d0017df611c","1","15","7253","","","","","","","","","<img src= ""rock_img/I_Pegmatite_09.jpg"" style=""width:8cm; height:4.03cm;""><p>What type of rock is this?</p>","2","class_response","0","test","4","Diorite","Pegmatite","09","false","3","6","",""
"","","","","","","","","","","","html-keyboard-response","14","2.0.0","167033","5d75c56a52c89d0017df611c","1","15","null","","","","","","","","","<p style='font-size: 30px;'><strong>Okay</strong></p>","null","neutral_feedback","0","test","4","","","","","","","",""
"","","","","","","","","","","","html-button-response","15","2.0.0","170752","5d75c56a52c89d0017df611c","1","15","3717","","","","","","","","","<img src= ""rock_img/I_Diorite_08.jpg"" style=""width:8cm; height:6.37cm;""><p>What type of rock is this?</p>","1","class_response","0","test","5","Basalt","Diorite","08","false","2","3","",""
"","","","","","","","","","","","html-keyboard-response","16","2.0.0","171255","5d75c56a52c89d0017df611c","1","15","null","","","","","","","","","<p style='font-size: 30px;'><strong>Okay</strong></p>","null","neutral_feedback","0","test","5","","","","","","","",""
"","","","","","","","","","","","html-button-response","17","2.0.0","174706","5d75c56a52c89d0017df611c","1","15","3448","","","","","","","","","<img src= ""rock_img/I_Andesite_04.jpg"" style=""width:8cm; height:5.96cm;""><p>What type of rock is this?</p>","5","class_response","0","test","6","Pegmatite","Andesite","04","false","6","1","",""
"","","","","","","","","","","","html-keyboard-response","18","2.0.0","175223","5d75c56a52c89d0017df611c","1","15","null","","","","","","","","","<p style='font-size: 30px;'><strong>Okay</strong></p>","null","neutral_feedback","0","test","6","","","","","","","",""
"","","","","","","","","","","","html-button-response","19","2.0.0","177914","5d75c56a52c89d0017df611c","1","15","2689","","","","","","","","","<img src= ""rock_img/I_Pumice_02.jpg"" style=""width:8cm; height:7.3999999999999995cm;""><p>What type of rock is this?</p>","3","class_response","0","test","7","Gabbro","Pumice","02","false","4","8","",""
"","","","","","","","","","","","html-keyboard-response","20","2.0.0","178420","5d75c56a52c89d0017df611c","1","15","null","","","","","","","","","<p style='font-size: 30px;'><strong>Okay</strong></p>","null","neutral_feedback","0","test","7","","","","","","","",""
"","","","","","","","","","","","html-button-response","21","2.0.0","179828","5d75c56a52c89d0017df611c","1","15","1406","","","","","","","","","<img src= ""rock_img/I_Peridotite_13.jpg"" style=""width:8cm; height:7.58cm;""><p>What type of rock is this?</p>","6","class_response","0","test","8","Peridotite","Peridotite","13","true","7","7","",""
"","","","","","","","","","","","html-keyboard-response","22","2.0.0","180330","5d75c56a52c89d0017df611c","1","15","null","","","","","","","","","<p style='font-size: 30px;'><strong>Okay</strong></p>","null","neutral_feedback","0","test","8","","","","","","","",""
"","","","","","","","","","","","html-button-response","23","2.0.0","185206","5d75c56a52c89d0017df611c","1","15","4874","","","","","","","","","<img src= ""rock_img/I_Gabbro_09.jpg"" style=""width:8cm; height:7.279999999999999cm;""><p>What type of rock is this?</p>","4","class_response","0","test","9","Obsidian","Gabbro","09","false","5","4","",""
"","","","","","","","","","","","html-keyboard-response","24","2.0.0","185708","5d75c56a52c89d0017df611c","1","15","null","","","","","","","","","<p style='font-size: 30px;'><strong>Okay</strong></p>","null","neutral_feedback","0","test","9","","","","","","","",""
"","","","","","","","","","","","html-button-response","25","2.0.0","188771","5d75c56a52c89d0017df611c","1","15","3061","","","","","","","","","<img src= ""rock_img/I_Pegmatite_12.jpg"" style=""width:8cm; height:5.7cm;""><p>What type of rock is this?</p>","2","class_response","0","test","10","Diorite","Pegmatite","12","false","3","6","",""
"","","","","","","","","","","","html-keyboard-response","26","2.0.0","189287","5d75c56a52c89d0017df611c","1","15","null","","","","","","","","","<p style='font-size: 30px;'><strong>Okay</strong></p>","null","neutral_feedback","0","test","10","","","","","","","",""
"","","","","","","","","","","","html-button-response","27","2.0.0","192700","5d75c56a52c89d0017df611c","1","15","3411","","","","","","","","","<img src= ""rock_img/I_Obsidian_08.jpg"" style=""width:8cm; height:7.39cm;""><p>What type of rock is this?</p>","4","class_response","0","test","11","Obsidian","Obsidian","08","true","5","5","",""
"","","","","","","","","","","","html-keyboard-response","28","2.0.0","193202","5d75c56a52c89d0017df611c","1","15","null","","","","","","","","","<p style='font-size: 30px;'><strong>Okay</strong></p>","null","neutral_feedback","0","test","11","","","","","","","",""
"","","","","","","","","","","","html-button-response","29","2.0.0","198162","5d75c56a52c89d0017df611c","1","15","4958","","","","","","","","","<img src= ""rock_img/I_Diorite_07.jpg"" style=""width:8cm; height:5.239999999999999cm;""><p>What type of rock is this?</p>","5","class_response","0","test","12","Pegmatite","Diorite","07","false","6","3","",""
"","","","","","","","","","","","html-keyboard-response","30","2.0.0","198678","5d75c56a52c89d0017df611c","1","15","null","","","","","","","","","<p style='font-size: 30px;'><strong>Okay</strong></p>","null","neutral_feedback","0","test","12","","","","","","","",""
"","","","","","","","","","","","html-button-response","31","2.0.0","203423","5d75c56a52c89d0017df611c","1","15","4743","","","","","","","","","<img src= ""rock_img/I_Peridotite_12.jpg"" style=""width:8cm; height:4.54cm;""><p>What type of rock is this?</p>","3","class_response","0","test","13","Gabbro","Peridotite","12","false","4","7","",""
"","","","","","","","","","","","html-keyboard-response","32","2.0.0","203929","5d75c56a52c89d0017df611c","1","15","null","","","","","","","","","<p style='font-size: 30px;'><strong>Okay</strong></p>","null","neutral_feedback","0","test","13","","","","","","","",""
"","","","","","","","","","","","html-button-response","33","2.0.0","205872","5d75c56a52c89d0017df611c","1","15","1941","","","","","","","","","<img src= ""rock_img/I_Peridotite_05.jpg"" style=""width:8cm; height:7.1499999999999995cm;""><p>What type of rock is this?</p>","7","class_response","0","test","14","Pumice","Peridotite","05","false","8","7","",""
"","","","","","","","","","","","html-keyboard-response","34","2.0.0","206388","5d75c56a52c89d0017df611c","1","15","null","","","","","","","","","<p style='font-size: 30px;'><strong>Okay</strong></p>","null","neutral_feedback","0","test","14","","","","","","","",""
"","","","","","","","","","","","html-button-response","35","2.0.0","208836","5d75c56a52c89d0017df611c","1","15","2445","","","","","","","","","<img src= ""rock_img/I_Pumice_13.jpg"" style=""width:8cm; height:8.200000000000001cm;""><p>What type of rock is this?</p>","7","class_response","0","test","15","Pumice","Pumice","13","true","8","8","",""
"","","","","","","","","","","","html-keyboard-response","36","2.0.0","209352","5d75c56a52c89d0017df611c","1","15","null","","","","","","","","","<p style='font-size: 30px;'><strong>Okay</strong></p>","null","neutral_feedback","0","test","15","","","","","","","",""
"","","","","","","","","","","","html-button-response","37","2.0.0","211285","5d75c56a52c89d0017df611c","1","15","1931","","","","","","","","","<img src= ""rock_img/I_Diorite_11.jpg"" style=""width:8cm; height:7.11cm;""><p>What type of rock is this?</p>","2","class_response","0","test","16","Diorite","Diorite","11","true","3","3","",""
"","","","","","","","","","","","html-keyboard-response","38","2.0.0","211787","5d75c56a52c89d0017df611c","1","15","null","","","","","","","","","<p style='font-size: 30px;'><strong>Okay</strong></p>","null","neutral_feedback","0","test","16","","","","","","","",""
"","","","","","","","","","","","html-button-response","39","2.0.0","214814","5d75c56a52c89d0017df611c","1","15","3025","","","","","","","","","<img src= ""rock_img/I_Pegmatite_13.jpg"" style=""width:8cm; height:4.95cm;""><p>What type of rock is this?</p>","1","class_response","0","test","17","Basalt","Pegmatite","13","false","2","6","",""
"","","","","","","","","","","","html-keyboard-response","40","2.0.0","215317","5d75c56a52c89d0017df611c","1","15","null","","","","","","","","","<p style='font-size: 30px;'><strong>Okay</strong></p>","null","neutral_feedback","0","test","17","","","","","","","",""
"","","","","","","","","","","","html-button-response","41","2.0.0","217659","5d75c56a52c89d0017df611c","1","15","2340","","","","","","","","","<img src= ""rock_img/I_Obsidian_11.jpg"" style=""width:8cm; height:6.05cm;""><p>What type of rock is this?</p>","4","class_response","0","test","18","Obsidian","Obsidian","11","true","5","5","",""
"","","","","","","","","","","","html-keyboard-response","42","2.0.0","218163","5d75c56a52c89d0017df611c","1","15","null","","","","","","","","","<p style='font-size: 30px;'><strong>Okay</strong></p>","null","neutral_feedback","0","test","18","","","","","","","",""
"","","","","","","","","","","","html-button-response","43","2.0.0","221007","5d75c56a52c89d0017df611c","1","15","2842","","","","","","","","","<img src= ""rock_img/I_Andesite_11.jpg"" style=""width:8cm; height:4.92cm;""><p>What type of rock is this?</p>","0","class_response","0","test","19","Andesite","Andesite","11","true","1","1","",""
"","","","","","","","","","","","html-keyboard-response","44","2.0.0","221511","5d75c56a52c89d0017df611c","1","15","null","","","","","","","","","<p style='font-size: 30px;'><strong>Okay</strong></p>","null","neutral_feedback","0","test","19","","","","","","","",""
"","","","","","","","","","","","html-button-response","45","2.0.0","223208","5d75c56a52c89d0017df611c","1","15","1695","","","","","","","","","<img src= ""rock_img/I_Pumice_15.jpg"" style=""width:8cm; height:7.86cm;""><p>What type of rock is this?</p>","7","class_response","0","test","20","Pumice","Pumice","15","true","8","8","",""
"","","","","","","","","","","","html-keyboard-response","46","2.0.0","223709","5d75c56a52c89d0017df611c","1","15","null","","","","","","","","","<p style='font-size: 30px;'><strong>Okay</strong></p>","null","neutral_feedback","0","test","20","","","","","","","",""
"","","","","","","","","","","","html-button-response","47","2.0.0","226667","5d75c56a52c89d0017df611c","1","15","2956","","","","","","","","","<img src= ""rock_img/I_Andesite_01.jpg"" style=""width:8cm; height:5.87cm;""><p>What type of rock is this?</p>","6","class_response","0","test","21","Peridotite","Andesite","01","false","7","1","",""
"","","","","","","","","","","","html-keyboard-response","48","2.0.0","227173","5d75c56a52c89d0017df611c","1","15","null","","","","","","","","","<p style='font-size: 30px;'><strong>Okay</strong></p>","null","neutral_feedback","0","test","21","","","","","","","",""
"","","","","","","","","","","","html-button-response","49","2.0.0","229600","5d75c56a52c89d0017df611c","1","15","2425","","","","","","","","","<img src= ""rock_img/I_Pegmatite_15.jpg"" style=""width:8cm; height:6cm;""><p>What type of rock is this?</p>","3","class_response","0","test","22","Gabbro","Pegmatite","15","false","4","6","",""
"","","","","","","","","","","","html-keyboard-response","50","2.0.0","230105","5d75c56a52c89d0017df611c","1","15","null","","","","","","","","","<p style='font-size: 30px;'><strong>Okay</strong></p>","null","neutral_feedback","0","test","22","","","","","","","",""
"","","","","","","","","","","","html-button-response","51","2.0.0","232579","5d75c56a52c89d0017df611c","1","15","2472","","","","","","","","","<img src= ""rock_img/I_Peridotite_15.jpg"" style=""width:8cm; height:6cm;""><p>What type of rock is this?</p>","6","class_response","0","test","23","Peridotite","Peridotite","15","true","7","7","",""
"","","","","","","","","","","","html-keyboard-response","52","2.0.0","233088","5d75c56a52c89d0017df611c","1","15","null","","","","","","","","","<p style='font-size: 30px;'><strong>Okay</strong></p>","null","neutral_feedback","0","test","23","","","","","","","",""
"","","","","","","","","","","","html-button-response","53","2.0.0","234831","5d75c56a52c89d0017df611c","1","15","1741","","","","","","","","","<img src= ""rock_img/I_Obsidian_16.jpg"" style=""width:8cm; height:9.3cm;""><p>What type of rock is this?</p>","4","class_response","0","test","24","Obsidian","Obsidian","16","true","5","5","",""
"","","","","","","","","","","","html-keyboard-response","54","2.0.0","235345","5d75c56a52c89d0017df611c","1","15","null","","","","","","","","","<p style='font-size: 30px;'><strong>Okay</strong></p>","null","neutral_feedback","0","test","24","","","","","","","",""
"","","","","","","","","","","","html-button-response","55","2.0.0","238160","5d75c56a52c89d0017df611c","1","15","2814","","","","","","","","","<img src= ""rock_img/I_Basalt_11.jpg"" style=""width:8cm; height:5.359999999999999cm;""><p>What type of rock is this?</p>","7","class_response","0","test","25","Pumice","Basalt","11","false","8","2","",""
"","","","","","","","","","","","html-keyboard-response","56","2.0.0","238676","5d75c56a52c89d0017df611c","1","15","null","","","","","","","","","<p style='font-size: 30px;'><strong>Okay</strong></p>","null","neutral_feedback","0","test","25","","","","","","","",""
"","","","","","","","","","","","html-button-response","57","2.0.0","240342","5d75c56a52c89d0017df611c","1","15","1663","","","","","","","","","<img src= ""rock_img/I_Gabbro_08.jpg"" style=""width:8cm; height:5.15cm;""><p>What type of rock is this?</p>","7","class_response","0","test","26","Pumice","Gabbro","08","false","8","4","",""
"","","","","","","","","","","","html-keyboard-response","58","2.0.0","240857","5d75c56a52c89d0017df611c","1","15","null","","","","","","","","","<p style='font-size: 30px;'><strong>Okay</strong></p>","null","neutral_feedback","0","test","26","","","","","","","",""
"","","","","","","","","","","","html-button-response","59","2.0.0","243308","5d75c56a52c89d0017df611c","1","15","2449","","","","","","","","","<img src= ""rock_img/I_Diorite_15.jpg"" style=""width:8cm; height:5.54cm;""><p>What type of rock is this?</p>","3","class_response","0","test","27","Gabbro","Diorite","15","false","4","3","",""
"","","","","","","","","","","","html-keyboard-response","60","2.0.0","243825","5d75c56a52c89d0017df611c","1","15","null","","","","","","","","","<p style='font-size: 30px;'><strong>Okay</strong></p>","null","neutral_feedback","0","test","27","","","","","","","",""
"","","","","","","","","","","","html-button-response","61","2.0.0","246384","5d75c56a52c89d0017df611c","1","15","2557","","","","","","","","","<img src= ""rock_img/I_Pumice_09.jpg"" style=""width:8cm; height:6.44cm;""><p>What type of rock is this?</p>","7","class_response","0","test","28","Pumice","Pumice","09","true","8","8","",""
"","","","","","","","","","","","html-keyboard-response","62","2.0.0","246887","5d75c56a52c89d0017df611c","1","15","null","","","","","","","","","<p style='font-size: 30px;'><strong>Okay</strong></p>","null","neutral_feedback","0","test","28","","","","","","","",""
"","","","","","","","","","","","html-button-response","63","2.0.0","249231","5d75c56a52c89d0017df611c","1","15","2342","","","","","","","","","<img src= ""rock_img/I_Basalt_04.jpg"" style=""width:8cm; height:7.53cm;""><p>What type of rock is this?</p>","1","class_response","0","test","29","Basalt","Basalt","04","true","2","2","",""
"","","","","","","","","","","","html-keyboard-response","64","2.0.0","249734","5d75c56a52c89d0017df611c","1","15","null","","","","","","","","","<p style='font-size: 30px;'><strong>Okay</strong></p>","null","neutral_feedback","0","test","29","","","","","","","",""
"","","","","","","","","","","","html-button-response","65","2.0.0","251512","5d75c56a52c89d0017df611c","1","15","1776","","","","","","","","","<img src= ""rock_img/I_Obsidian_14.jpg"" style=""width:8cm; height:7.64cm;""><p>What type of rock is this?</p>","4","class_response","0","test","30","Obsidian","Obsidian","14","true","5","5","",""
"","","","","","","","","","","","html-keyboard-response","66","2.0.0","252014","5d75c56a52c89d0017df611c","1","15","null","","","","","","","","","<p style='font-size: 30px;'><strong>Okay</strong></p>","null","neutral_feedback","0","test","30","","","","","","","",""
"","","","","","","","","","","","html-button-response","67","2.0.0","253713","5d75c56a52c89d0017df611c","1","15","1697","","","","","","","","","<img src= ""rock_img/I_Peridotite_16.jpg"" style=""width:8cm; height:6.989999999999999cm;""><p>What type of rock is this?</p>","6","class_response","0","test","31","Peridotite","Peridotite","16","true","7","7","",""
"","","","","","","","","","","","html-keyboard-response","68","2.0.0","254214","5d75c56a52c89d0017df611c","1","15","null","","","","","","","","","<p style='font-size: 30px;'><strong>Okay</strong></p>","null","neutral_feedback","0","test","31","","","","","","","",""
"","","","","","","","","","","","html-button-response","69","2.0.0","258142","5d75c56a52c89d0017df611c","1","15","3926","","","","","","","","","<img src= ""rock_img/I_Gabbro_01.jpg"" style=""width:8cm; height:5.21cm;""><p>What type of rock is this?</p>","5","class_response","0","test","32","Pegmatite","Gabbro","01","false","6","4","",""
"","","","","","","","","","","","html-keyboard-response","70","2.0.0","258643","5d75c56a52c89d0017df611c","1","15","null","","","","","","","","","<p style='font-size: 30px;'><strong>Okay</strong></p>","null","neutral_feedback","0","test","32","","","","","","","",""
"","","","","","","","","","","","html-button-response","71","2.0.0","260625","5d75c56a52c89d0017df611c","1","15","1980","","","","","","","","","<img src= ""rock_img/I_Peridotite_14.jpg"" style=""width:8cm; height:5.3cm;""><p>What type of rock is this?</p>","2","class_response","0","test","33","Diorite","Peridotite","14","false","3","7","",""
"","","","","","","","","","","","html-keyboard-response","72","2.0.0","261139","5d75c56a52c89d0017df611c","1","15","null","","","","","","","","","<p style='font-size: 30px;'><strong>Okay</strong></p>","null","neutral_feedback","0","test","33","","","","","","","",""
"","","","","","","","","","","","html-button-response","73","2.0.0","262719","5d75c56a52c89d0017df611c","1","15","1578","","","","","","","","","<img src= ""rock_img/I_Pumice_05.jpg"" style=""width:8cm; height:7.25cm;""><p>What type of rock is this?</p>","7","class_response","0","test","34","Pumice","Pumice","05","true","8","8","",""
"","","","","","","","","","","","html-keyboard-response","74","2.0.0","263236","5d75c56a52c89d0017df611c","1","15","null","","","","","","","","","<p style='font-size: 30px;'><strong>Okay</strong></p>","null","neutral_feedback","0","test","34","","","","","","","",""
"","","","","","","","","","","","html-button-response","75","2.0.0","264752","5d75c56a52c89d0017df611c","1","15","1514","","","","","","","","","<img src= ""rock_img/I_Obsidian_09.jpg"" style=""width:8cm; height:5cm;""><p>What type of rock is this?</p>","4","class_response","0","test","35","Obsidian","Obsidian","09","true","5","5","",""
"","","","","","","","","","","","html-keyboard-response","76","2.0.0","265253","5d75c56a52c89d0017df611c","1","15","null","","","","","","","","","<p style='font-size: 30px;'><strong>Okay</strong></p>","null","neutral_feedback","0","test","35","","","","","","","",""
"","","","","","","","","","","","html-button-response","77","2.0.0","267366","5d75c56a52c89d0017df611c","1","15","2110","","","","","","","","","<img src= ""rock_img/I_Gabbro_14.jpg"" style=""width:8cm; height:8.48cm;""><p>What type of rock is this?</p>","3","class_response","0","test","36","Gabbro","Gabbro","14","true","4","4","",""
"","","","","","","","","","","","html-keyboard-response","78","2.0.0","267867","5d75c56a52c89d0017df611c","1","15","null","","","","","","","","","<p style='font-size: 30px;'><strong>Okay</strong></p>","null","neutral_feedback","0","test","36","","","","","","","",""
"","","","","","","","","","","","html-button-response","79","2.0.0","271349","5d75c56a52c89d0017df611c","1","15","3480","","","","","","","","","<img src= ""rock_img/I_Pegmatite_06.jpg"" style=""width:8cm; height:5.17cm;""><p>What type of rock is this?</p>","3","class_response","0","test","37","Gabbro","Pegmatite","06","false","4","6","",""
"","","","","","","","","","","","html-keyboard-response","80","2.0.0","271863","5d75c56a52c89d0017df611c","1","15","null","","","","","","","","","<p style='font-size: 30px;'><strong>Okay</strong></p>","null","neutral_feedback","0","test","37","","","","","","","",""
"","","","","","","","","","","","html-button-response","81","2.0.0","274114","5d75c56a52c89d0017df611c","1","15","2250","","","","","","","","","<img src= ""rock_img/I_Gabbro_12.jpg"" style=""width:8cm; height:7.800000000000001cm;""><p>What type of rock is this?</p>","2","class_response","0","test","38","Diorite","Gabbro","12","false","3","4","",""
"","","","","","","","","","","","html-keyboard-response","82","2.0.0","274628","5d75c56a52c89d0017df611c","1","15","null","","","","","","","","","<p style='font-size: 30px;'><strong>Okay</strong></p>","null","neutral_feedback","0","test","38","","","","","","","",""
"","","","","","","","","","","","html-button-response","83","2.0.0","276794","5d75c56a52c89d0017df611c","1","15","2165","","","","","","","","","<img src= ""rock_img/I_Gabbro_05.jpg"" style=""width:8cm; height:6cm;""><p>What type of rock is this?</p>","5","class_response","0","test","39","Pegmatite","Gabbro","05","false","6","4","",""
"","","","","","","","","","","","html-keyboard-response","84","2.0.0","277311","5d75c56a52c89d0017df611c","1","15","null","","","","","","","","","<p style='font-size: 30px;'><strong>Okay</strong></p>","null","neutral_feedback","0","test","39","","","","","","","",""
"","","","","","","","","","","","html-button-response","85","2.0.0","279158","5d75c56a52c89d0017df611c","1","15","1845","","","","","","","","","<img src= ""rock_img/I_Andesite_10.jpg"" style=""width:8cm; height:4.16cm;""><p>What type of rock is this?</p>","2","class_response","0","test","40","Diorite","Andesite","10","false","3","1","",""
"","","","","","","","","","","","html-keyboard-response","86","2.0.0","279673","5d75c56a52c89d0017df611c","1","15","null","","","","","","","","","<p style='font-size: 30px;'><strong>Okay</strong></p>","null","neutral_feedback","0","test","40","","","","","","","",""
"","","","","","","","","","","","html-button-response","87","2.0.0","281374","5d75c56a52c89d0017df611c","1","15","1700","","","","","","","","","<img src= ""rock_img/I_Andesite_05.jpg"" style=""width:8cm; height:4.12cm;""><p>What type of rock is this?</p>","1","class_response","0","test","41","Basalt","Andesite","05","false","2","1","",""
"","","","","","","","","","","","html-keyboard-response","88","2.0.0","281877","5d75c56a52c89d0017df611c","1","15","null","","","","","","","","","<p style='font-size: 30px;'><strong>Okay</strong></p>","null","neutral_feedback","0","test","41","","","","","","","",""
"","","","","","","","","","","","html-button-response","89","2.0.0","284801","5d75c56a52c89d0017df611c","1","15","2922","","","","","","","","","<img src= ""rock_img/I_Diorite_12.jpg"" style=""width:8cm; height:4.88cm;""><p>What type of rock is this?</p>","3","class_response","0","test","42","Gabbro","Diorite","12","false","4","3","",""
"","","","","","","","","","","","html-keyboard-response","90","2.0.0","285316","5d75c56a52c89d0017df611c","1","15","null","","","","","","","","","<p style='font-size: 30px;'><strong>Okay</strong></p>","null","neutral_feedback","0","test","42","","","","","","","",""
"","","","","","","","","","","","html-button-response","91","2.0.0","288713","5d75c56a52c89d0017df611c","1","15","3396","","","","","","","","","<img src= ""rock_img/I_Basalt_01.jpg"" style=""width:8cm; height:7.880000000000001cm;""><p>What type of rock is this?</p>","0","class_response","0","test","43","Andesite","Basalt","01","false","1","2","",""
"","","","","","","","","","","","html-keyboard-response","92","2.0.0","289217","5d75c56a52c89d0017df611c","1","15","null","","","","","","","","","<p style='font-size: 30px;'><strong>Okay</strong></p>","null","neutral_feedback","0","test","43","","","","","","","",""
"","","","","","","","","","","","html-button-response","93","2.0.0","290939","5d75c56a52c89d0017df611c","1","15","1720","","","","","","","","","<img src= ""rock_img/I_Basalt_14.jpg"" style=""width:8cm; height:5.82cm;""><p>What type of rock is this?</p>","0","class_response","0","test","44","Andesite","Basalt","14","false","1","2","",""
"","","","","","","","","","","","html-keyboard-response","94","2.0.0","291447","5d75c56a52c89d0017df611c","1","15","null","","","","","","","","","<p style='font-size: 30px;'><strong>Okay</strong></p>","null","neutral_feedback","0","test","44","","","","","","","",""
"","","","","","","","","","","","html-button-response","95","2.0.0","293913","5d75c56a52c89d0017df611c","1","15","2464","","","","","","","","","<img src= ""rock_img/I_Diorite_10.jpg"" style=""width:8cm; height:5.949999999999999cm;""><p>What type of rock is this?</p>","3","class_response","0","test","45","Gabbro","Diorite","10","false","4","3","",""
"","","","","","","","","","","","html-keyboard-response","96","2.0.0","294426","5d75c56a52c89d0017df611c","1","15","null","","","","","","","","","<p style='font-size: 30px;'><strong>Okay</strong></p>","null","neutral_feedback","0","test","45","","","","","","","",""
"","","","","","","","","","","","html-button-response","97","2.0.0","297276","5d75c56a52c89d0017df611c","1","15","2848","","","","","","","","","<img src= ""rock_img/I_Pumice_06.jpg"" style=""width:8cm; height:6.9399999999999995cm;""><p>What type of rock is this?</p>","7","class_response","0","test","46","Pumice","Pumice","06","true","8","8","",""
"","","","","","","","","","","","html-keyboard-response","98","2.0.0","297784","5d75c56a52c89d0017df611c","1","15","null","","","","","","","","","<p style='font-size: 30px;'><strong>Okay</strong></p>","null","neutral_feedback","0","test","46","","","","","","","",""
"","","","","","","","","","","","html-button-response","99","2.0.0","300120","5d75c56a52c89d0017df611c","1","15","2335","","","","","","","","","<img src= ""rock_img/I_Basalt_09.jpg"" style=""width:8cm; height:6.2cm;""><p>What type of rock is this?</p>","1","class_response","0","test","47","Basalt","Basalt","09","true","2","2","",""
"","","","","","","","","","","","html-keyboard-response","100","2.0.0","300626","5d75c56a52c89d0017df611c","1","15","null","","","","","","","","","<p style='font-size: 30px;'><strong>Okay</strong></p>","null","neutral_feedback","0","test","47","","","","","","","",""
"","","","","","","","","","","","html-button-response","101","2.0.0","302552","5d75c56a52c89d0017df611c","1","15","1925","","","","","","","","","<img src= ""rock_img/I_Basalt_05.jpg"" style=""width:8cm; height:8.18cm;""><p>What type of rock is this?</p>","1","class_response","0","test","48","Basalt","Basalt","05","true","2","2","",""
"","","","","","","","","","","","html-keyboard-response","102","2.0.0","303058","5d75c56a52c89d0017df611c","1","15","null","","","","","","","","","<p style='font-size: 30px;'><strong>Okay</strong></p>","null","neutral_feedback","0","test","48","","","","","","","",""
"","","","","","","","","","","","instructions","103","2.0.0","355221","5d75c56a52c89d0017df611c","1","15","52145","","","","","","","","[{""page_index"":0,""viewing_time"":36245},{""page_index"":1,""viewing_time"":4992},{""page_index"":2,""viewing_time"":10908}]","","","","","","","","","","","","","",""
"","","","","","","","","","","","html-button-response","104","2.0.0","358056","5d75c56a52c89d0017df611c","1","15","2833","","","","","","","","","","0","start_train","","","","","","","","","","",""
"","","","","","","","","","","","html-button-response","105","2.0.0","368276","5d75c56a52c89d0017df611c","1","15","10218","","","","","","","","","<img src= ""rock_img/I_Obsidian_05.jpg"" style=""width:8cm; height:6.33cm;""><p>What type of rock is this?</p>","4","class_response","1","train","1","Obsidian","Obsidian","05","true","5","5","",""
"","","","","","","","","","","","html-button-response","106","2.0.0","373121","5d75c56a52c89d0017df611c","1","15","4843","","","","","","","","","<img src= rock_img/I_Obsidian_05.jpg style=""width:8cm; height:6.33cm;""><p style='font-size: 30px; color: green;'><strong>Correct!</strong></p><p style='font-size: 30px;'><strong>This rock is obsidian</strong></p>","0","corr_feedback","1","train","1","","","","","","","",""
"","","","","","","","","","","","html-button-response","107","2.0.0","378199","5d75c56a52c89d0017df611c","1","15","5076","","","","","","","","","<img src= ""rock_img/I_Pegmatite_07.jpg"" style=""width:8cm; height:6.7cm;""><p>What type of rock is this?</p>","5","class_response","1","train","2","Pegmatite","Pegmatite","07","true","6","6","",""
"","","","","","","","","","","","html-button-response","108","2.0.0","382148","5d75c56a52c89d0017df611c","1","15","3948","","","","","","","","","<img src= rock_img/I_Pegmatite_07.jpg style=""width:8cm; height:6.7cm;""><p style='font-size: 30px; color: green;'><strong>Correct!</strong></p><p style='font-size: 30px;'><strong>This rock is pegmatite</strong></p>","0","corr_feedback","1","train","2","","","","","","","",""
"","","","","","","","","","","","html-button-response","109","2.0.0","384659","5d75c56a52c89d0017df611c","1","15","2509","","","","","","","","","<img src= ""rock_img/I_Basalt_06.jpg"" style=""width:8cm; height:7.06cm;""><p>What type of rock is this?</p>","1","class_response","1","train","3","Basalt","Basalt","06","true","2","2","",""
"","","","","","","","","","","","html-button-response","110","2.0.0","388239","5d75c56a52c89d0017df611c","1","15","3578","","","","","","","","","<img src= rock_img/I_Basalt_06.jpg style=""width:8cm; height:7.06cm;""><p style='font-size: 30px; color: green;'><strong>Correct!</strong></p><p style='font-size: 30px;'><strong>This rock is basalt</strong></p>","0","corr_feedback","1","train","3","","","","","","","",""
"","","","","","","","","","","","html-button-response","111","2.0.0","390820","5d75c56a52c89d0017df611c","1","15","2579","","","","","","","","","<img src= ""rock_img/I_Obsidian_10.jpg"" style=""width:8cm; height:6.260000000000001cm;""><p>What type of rock is this?</p>","6","class_response","1","train","4","Peridotite","Obsidian","10","false","7","5","",""
"","","","","","","","","","","","html-button-response","112","2.0.0","394117","5d75c56a52c89d0017df611c","1","15","3295","","","","","","","","","<img src= rock_img/I_Obsidian_10.jpg style=""width:8cm; height:6.260000000000001cm;""><p style='font-size: 30px; color: red;'><strong>Incorrect!</strong></p><p style='font-size: 30px;'><strong>This rock is obsidian</strong></p>","0","corr_feedback","1","train","4","","","","","","","",""
"","","","","","","","","","","","html-button-response","113","2.0.0","398964","5d75c56a52c89d0017df611c","1","15","4846","","","","","","","","","<img src= ""rock_img/I_Diorite_16.jpg"" style=""width:8cm; height:6.74cm;""><p>What type of rock is this?</p>","2","class_response","1","train","5","Diorite","Diorite","16","true","3","3","",""
"","","","","","","","","","","","html-button-response","114","2.0.0","402731","5d75c56a52c89d0017df611c","1","15","3765","","","","","","","","","<img src= rock_img/I_Diorite_16.jpg style=""width:8cm; height:6.74cm;""><p style='font-size: 30px; color: green;'><strong>Correct!</strong></p><p style='font-size: 30px;'><strong>This rock is diorite</strong></p>","0","corr_feedback","1","train","5","","","","","","","",""
"","","","","","","","","","","","html-button-response","115","2.0.0","404793","5d75c56a52c89d0017df611c","1","15","2059","","","","","","","","","<img src= ""rock_img/I_Pumice_16.jpg"" style=""width:8cm; height:6.79cm;""><p>What type of rock is this?</p>","7","class_response","1","train","6","Pumice","Pumice","16","true","8","8","",""
"","","","","","","","","","","","html-button-response","116","2.0.0","408459","5d75c56a52c89d0017df611c","1","15","3664","","","","","","","","","<img src= rock_img/I_Pumice_16.jpg style=""width:8cm; height:6.79cm;""><p style='font-size: 30px; color: green;'><strong>Correct!</strong></p><p style='font-size: 30px;'><strong>This rock is pumice</strong></p>","0","corr_feedback","1","train","6","","","","","","","",""
"","","","","","","","","","","","html-button-response","117","2.0.0","414933","5d75c56a52c89d0017df611c","1","15","6473","","","","","","","","","<img src= ""rock_img/I_Gabbro_10.jpg"" style=""width:8cm; height:5.680000000000001cm;""><p>What type of rock is this?</p>","7","class_response","1","train","7","Pumice","Gabbro","10","false","8","4","",""
"","","","","","","","","","","","html-button-response","118","2.0.0","419972","5d75c56a52c89d0017df611c","1","15","5037","","","","","","","","","<img src= rock_img/I_Gabbro_10.jpg style=""width:8cm; height:5.680000000000001cm;""><p style='font-size: 30px; color: red;'><strong>Incorrect!</strong></p><p style='font-size: 30px;'><strong>This rock is gabbro</strong></p>","0","corr_feedback","1","train","7","","","","","","","",""
"","","","","","","","","","","","html-button-response","119","2.0.0","422096","5d75c56a52c89d0017df611c","1","15","2122","","","","","","","","","<img src= ""rock_img/I_Peridotite_02.jpg"" style=""width:8cm; height:5.859999999999999cm;""><p>What type of rock is this?</p>","2","class_response","1","train","8","Diorite","Peridotite","02","false","3","7","",""
"","","","","","","","","","","","html-button-response","120","2.0.0","426755","5d75c56a52c89d0017df611c","1","15","4657","","","","","","","","","<img src= rock_img/I_Peridotite_02.jpg style=""width:8cm; height:5.859999999999999cm;""><p style='font-size: 30px; color: red;'><strong>Incorrect!</strong></p><p style='font-size: 30px;'><strong>This rock is peridotite</strong></p>","0","corr_feedback","1","train","8","","","","","","","",""
"","","","","","","","","","","","html-button-response","121","2.0.0","431183","5d75c56a52c89d0017df611c","1","15","4426","","","","","","","","","<img src= ""rock_img/I_Pegmatite_05.jpg"" style=""width:8cm; height:7.300000000000001cm;""><p>What type of rock is this?</p>","1","class_response","1","train","9","Basalt","Pegmatite","05","false","2","6","",""
"","","","","","","","","","","","html-button-response","122","2.0.0","436046","5d75c56a52c89d0017df611c","1","15","4861","","","","","","","","","<img src= rock_img/I_Pegmatite_05.jpg style=""width:8cm; height:7.300000000000001cm;""><p style='font-size: 30px; color: red;'><strong>Incorrect!</strong></p><p style='font-size: 30px;'><strong>This rock is pegmatite</strong></p>","0","corr_feedback","1","train","9","","","","","","","",""
"","","","","","","","","","","","html-button-response","123","2.0.0","438310","5d75c56a52c89d0017df611c","1","15","2262","","","","","","","","","<img src= ""rock_img/I_Basalt_10.jpg"" style=""width:8cm; height:5.85cm;""><p>What type of rock is this?</p>","7","class_response","1","train","10","Pumice","Basalt","10","false","8","2","",""
"","","","","","","","","","","","html-button-response","124","2.0.0","443336","5d75c56a52c89d0017df611c","1","15","5025","","","","","","","","","<img src= rock_img/I_Basalt_10.jpg style=""width:8cm; height:5.85cm;""><p style='font-size: 30px; color: red;'><strong>Incorrect!</strong></p><p style='font-size: 30px;'><strong>This rock is basalt</strong></p>","0","corr_feedback","1","train","10","","","","","","","",""
"","","","","","","","","","","","html-button-response","125","2.0.0","445787","5d75c56a52c89d0017df611c","1","15","2449","","","","","","","","","<img src= ""rock_img/I_Pumice_08.jpg"" style=""width:8cm; height:6.67cm;""><p>What type of rock is this?</p>","7","class_response","1","train","11","Pumice","Pumice","08","true","8","8","",""
"","","","","","","","","","","","html-button-response","126","2.0.0","449386","5d75c56a52c89d0017df611c","1","15","3597","","","","","","","","","<img src= rock_img/I_Pumice_08.jpg style=""width:8cm; height:6.67cm;""><p style='font-size: 30px; color: green;'><strong>Correct!</strong></p><p style='font-size: 30px;'><strong>This rock is pumice</strong></p>","0","corr_feedback","1","train","11","","","","","","","",""
"","","","","","","","","","","","html-button-response","127","2.0.0","473648","5d75c56a52c89d0017df611c","1","15","24260","","","","","","","","","<img src= ""rock_img/I_Diorite_06.jpg"" style=""width:8cm; height:6.03cm;""><p>What type of rock is this?</p>","2","class_response","1","train","12","Diorite","Diorite","06","true","3","3","",""
"","","","","","","","","","","","html-button-response","128","2.0.0","479931","5d75c56a52c89d0017df611c","1","15","6281","","","","","","","","","<img src= rock_img/I_Diorite_06.jpg style=""width:8cm; height:6.03cm;""><p style='font-size: 30px; color: green;'><strong>Correct!</strong></p><p style='font-size: 30px;'><strong>This rock is diorite</strong></p>","0","corr_feedback","1","train","12","","","","","","","",""
"","","","","","","","","","","","html-button-response","129","2.0.0","495130","5d75c56a52c89d0017df611c","1","15","15197","","","","","","","","","<img src= ""rock_img/I_Peridotite_07.jpg"" style=""width:8cm; height:4.83cm;""><p>What type of rock is this?</p>","6","class_response","1","train","13","Peridotite","Peridotite","07","true","7","7","",""
"","","","","","","","","","","","html-button-response","130","2.0.0","500190","5d75c56a52c89d0017df611c","1","15","5059","","","","","","","","","<img src= rock_img/I_Peridotite_07.jpg style=""width:8cm; height:4.83cm;""><p style='font-size: 30px; color: green;'><strong>Correct!</strong></p><p style='font-size: 30px;'><strong>This rock is peridotite</strong></p>","0","corr_feedback","1","train","13","","","","","","","",""
"","","","","","","","","","","","html-button-response","131","2.0.0","504269","5d75c56a52c89d0017df611c","1","15","4077","","","","","","","","","<img src= ""rock_img/I_Obsidian_07.jpg"" style=""width:8cm; height:4.76cm;""><p>What type of rock is this?</p>","4","class_response","1","train","14","Obsidian","Obsidian","07","true","5","5","",""
"","","","","","","","","","","","html-button-response","132","2.0.0","507981","5d75c56a52c89d0017df611c","1","15","3710","","","","","","","","","<img src= rock_img/I_Obsidian_07.jpg style=""width:8cm; height:4.76cm;""><p style='font-size: 30px; color: green;'><strong>Correct!</strong></p><p style='font-size: 30px;'><strong>This rock is obsidian</strong></p>","0","corr_feedback","1","train","14","","","","","","","",""
"","","","","","","","","","","","html-button-response","133","2.0.0","518938","5d75c56a52c89d0017df611c","1","15","10955","","","","","","","","","<img src= ""rock_img/I_Peridotite_04.jpg"" style=""width:8cm; height:6.680000000000001cm;""><p>What type of rock is this?</p>","6","class_response","1","train","15","Peridotite","Peridotite","04","true","7","7","",""
"","","","","","","","","","","","html-button-response","134","2.0.0","526686","5d75c56a52c89d0017df611c","1","15","7746","","","","","","","","","<img src= rock_img/I_Peridotite_04.jpg style=""width:8cm; height:6.680000000000001cm;""><p style='font-size: 30px; color: green;'><strong>Correct!</strong></p><p style='font-size: 30px;'><strong>This rock is peridotite</strong></p>","0","corr_feedback","1","train","15","","","","","","","",""
"","","","","","","","","","","","html-button-response","135","2.0.0","547431","5d75c56a52c89d0017df611c","1","15","20744","","","","","","","","","<img src= ""rock_img/I_Gabbro_13.jpg"" style=""width:8cm; height:5.08cm;""><p>What type of rock is this?</p>","0","class_response","1","train","16","Andesite","Gabbro","13","false","1","4","",""
"","","","","","","","","","","","html-button-response","136","2.0.0","556848","5d75c56a52c89d0017df611c","1","15","9415","","","","","","","","","<img src= rock_img/I_Gabbro_13.jpg style=""width:8cm; height:5.08cm;""><p style='font-size: 30px; color: red;'><strong>Incorrect!</strong></p><p style='font-size: 30px;'><strong>This rock is gabbro</strong></p>","0","corr_feedback","1","train","16","","","","","","","",""
"","","","","","","","","","","","html-button-response","137","2.0.0","564118","5d75c56a52c89d0017df611c","1","15","7268","","","","","","","","","<img src= ""rock_img/I_Andesite_02.jpg"" style=""width:8cm; height:8.5cm;""><p>What type of rock is this?</p>","2","class_response","1","train","17","Diorite","Andesite","02","false","3","1","",""
"","","","","","","","","","","","html-button-response","138","2.0.0","569325","5d75c56a52c89d0017df611c","1","15","5206","","","","","","","","","<img src= rock_img/I_Andesite_02.jpg style=""width:8cm; height:8.5cm;""><p style='font-size: 30px; color: red;'><strong>Incorrect!</strong></p><p style='font-size: 30px;'><strong>This rock is andesite</strong></p>","0","corr_feedback","1","train","17","","","","","","","",""
"","","","","","","","","","","","html-button-response","139","2.0.0","571638","5d75c56a52c89d0017df611c","1","15","2312","","","","","","","","","<img src= ""rock_img/I_Pumice_10.jpg"" style=""width:8cm; height:7.609999999999999cm;""><p>What type of rock is this?</p>","7","class_response","1","train","18","Pumice","Pumice","10","true","8","8","",""
"","","","","","","","","","","","html-button-response","140","2.0.0","575324","5d75c56a52c89d0017df611c","1","15","3684","","","","","","","","","<img src= rock_img/I_Pumice_10.jpg style=""width:8cm; height:7.609999999999999cm;""><p style='font-size: 30px; color: green;'><strong>Correct!</strong></p><p style='font-size: 30px;'><strong>This rock is pumice</strong></p>","0","corr_feedback","1","train","18","","","","","","","",""
"","","","","","","","","","","","html-button-response","141","2.0.0","585866","5d75c56a52c89d0017df611c","1","15","10540","","","","","","","","","<img src= ""rock_img/I_Peridotite_10.jpg"" style=""width:8cm; height:5.390000000000001cm;""><p>What type of rock is this?</p>","6","class_response","1","train","19","Peridotite","Peridotite","10","true","7","7","",""
"","","","","","","","","","","","html-button-response","142","2.0.0","597133","5d75c56a52c89d0017df611c","1","15","11265","","","","","","","","","<img src= rock_img/I_Peridotite_10.jpg style=""width:8cm; height:5.390000000000001cm;""><p style='font-size: 30px; color: green;'><strong>Correct!</strong></p><p style='font-size: 30px;'><strong>This rock is peridotite</strong></p>","0","corr_feedback","1","train","19","","","","","","","",""
"","","","","","","","","","","","html-button-response","143","2.0.0","599416","5d75c56a52c89d0017df611c","1","15","2281","","","","","","","","","<img src= ""rock_img/I_Peridotite_08.jpg"" style=""width:8cm; height:6.7cm;""><p>What type of rock is this?</p>","6","class_response","1","train","20","Peridotite","Peridotite","08","true","7","7","",""
"","","","","","","","","","","","html-button-response","144","2.0.0","602633","5d75c56a52c89d0017df611c","1","15","3215","","","","","","","","","<img src= rock_img/I_Peridotite_08.jpg style=""width:8cm; height:6.7cm;""><p style='font-size: 30px; color: green;'><strong>Correct!</strong></p><p style='font-size: 30px;'><strong>This rock is peridotite</strong></p>","0","corr_feedback","1","train","20","","","","","","","",""
"","","","","","","","","","","","html-button-response","145","2.0.0","619402","5d75c56a52c89d0017df611c","1","15","16767","","","","","","","","","<img src= ""rock_img/I_Gabbro_11.jpg"" style=""width:8cm; height:6.2cm;""><p>What type of rock is this?</p>","3","class_response","1","train","21","Gabbro","Gabbro","11","true","4","4","",""
"","","","","","","","","","","","html-button-response","146","2.0.0","624195","5d75c56a52c89d0017df611c","1","15","4792","","","","","","","","","<img src= rock_img/I_Gabbro_11.jpg style=""width:8cm; height:6.2cm;""><p style='font-size: 30px; color: green;'><strong>Correct!</strong></p><p style='font-size: 30px;'><strong>This rock is gabbro</strong></p>","0","corr_feedback","1","train","21","","","","","","","",""
"","","","","","","","","","","","html-button-response","147","2.0.0","626858","5d75c56a52c89d0017df611c","1","15","2660","","","","","","","","","<img src= ""rock_img/I_Obsidian_04.jpg"" style=""width:8cm; height:6.930000000000001cm;""><p>What type of rock is this?</p>","4","class_response","1","train","22","Obsidian","Obsidian","04","true","5","5","",""
"","","","","","","","","","","","html-button-response","148","2.0.0","630253","5d75c56a52c89d0017df611c","1","15","3393","","","","","","","","","<img src= rock_img/I_Obsidian_04.jpg style=""width:8cm; height:6.930000000000001cm;""><p style='font-size: 30px; color: green;'><strong>Correct!</strong></p><p style='font-size: 30px;'><strong>This rock is obsidian</strong></p>","0","corr_feedback","1","train","22","","","","","","","",""
"","","","","","","","","","","","html-button-response","149","2.0.0","632941","5d75c56a52c89d0017df611c","1","15","2686","","","","","","","","","<img src= ""rock_img/I_Pumice_03.jpg"" style=""width:8cm; height:6.64cm;""><p>What type of rock is this?</p>","7","class_response","1","train","23","Pumice","Pumice","03","true","8","8","",""
"","","","","","","","","","","","html-button-response","150","2.0.0","636050","5d75c56a52c89d0017df611c","1","15","3107","","","","","","","","","<img src= rock_img/I_Pumice_03.jpg style=""width:8cm; height:6.64cm;""><p style='font-size: 30px; color: green;'><strong>Correct!</strong></p><p style='font-size: 30px;'><strong>This rock is pumice</strong></p>","0","corr_feedback","1","train","23","","","","","","","",""
"","","","","","","","","","","","html-button-response","151","2.0.0","638415","5d75c56a52c89d0017df611c","1","15","2364","","","","","","","","","<img src= ""rock_img/I_Pegmatite_03.jpg"" style=""width:8cm; height:5.239999999999999cm;""><p>What type of rock is this?</p>","6","class_response","1","train","24","Peridotite","Pegmatite","03","false","7","6","",""
"","","","","","","","","","","","html-button-response","152","2.0.0","642350","5d75c56a52c89d0017df611c","1","15","3933","","","","","","","","","<img src= rock_img/I_Pegmatite_03.jpg style=""width:8cm; height:5.239999999999999cm;""><p style='font-size: 30px; color: red;'><strong>Incorrect!</strong></p><p style='font-size: 30px;'><strong>This rock is pegmatite</strong></p>","0","corr_feedback","1","train","24","","","","","","","",""
"","","","","","","","","","","","html-button-response","153","2.0.0","656432","5d75c56a52c89d0017df611c","1","15","14080","","","","","","","","","<img src= ""rock_img/I_Basalt_16.jpg"" style=""width:8cm; height:7.659999999999999cm;""><p>What type of rock is this?</p>","1","class_response","1","train","25","Basalt","Basalt","16","true","2","2","",""
"","","","","","","","","","","","html-button-response","154","2.0.0","662163","5d75c56a52c89d0017df611c","1","15","5729","","","","","","","","","<img src= rock_img/I_Basalt_16.jpg style=""width:8cm; height:7.659999999999999cm;""><p style='font-size: 30px; color: green;'><strong>Correct!</strong></p><p style='font-size: 30px;'><strong>This rock is basalt</strong></p>","0","corr_feedback","1","train","25","","","","","","","",""
"","","","","","","","","","","","html-button-response","155","2.0.0","667108","5d75c56a52c89d0017df611c","1","15","4943","","","","","","","","","<img src= ""rock_img/I_Peridotite_06.jpg"" style=""width:8cm; height:7.53cm;""><p>What type of rock is this?</p>","5","class_response","1","train","26","Pegmatite","Peridotite","06","false","6","7","",""
"","","","","","","","","","","","html-button-response","156","2.0.0","670801","5d75c56a52c89d0017df611c","1","15","3692","","","","","","","","","<img src= rock_img/I_Peridotite_06.jpg style=""width:8cm; height:7.53cm;""><p style='font-size: 30px; color: red;'><strong>Incorrect!</strong></p><p style='font-size: 30px;'><strong>This rock is peridotite</strong></p>","0","corr_feedback","1","train","26","","","","","","","",""
"","","","","","","","","","","","html-button-response","157","2.0.0","674297","5d75c56a52c89d0017df611c","1","15","3494","","","","","","","","","<img src= ""rock_img/I_Diorite_09.jpg"" style=""width:8cm; height:5.27cm;""><p>What type of rock is this?</p>","2","class_response","1","train","27","Diorite","Diorite","09","true","3","3","",""
"","","","","","","","","","","","html-button-response","158","2.0.0","678121","5d75c56a52c89d0017df611c","1","15","3823","","","","","","","","","<img src= rock_img/I_Diorite_09.jpg style=""width:8cm; height:5.27cm;""><p style='font-size: 30px; color: green;'><strong>Correct!</strong></p><p style='font-size: 30px;'><strong>This rock is diorite</strong></p>","0","corr_feedback","1","train","27","","","","","","","",""
"","","","","","","","","","","","html-button-response","159","2.0.0","680818","5d75c56a52c89d0017df611c","1","15","2696","","","","","","","","","<img src= ""rock_img/I_Andesite_14.jpg"" style=""width:8cm; height:5.449999999999999cm;""><p>What type of rock is this?</p>","3","class_response","1","train","28","Gabbro","Andesite","14","false","4","1","",""
"","","","","","","","","","","","html-button-response","160","2.0.0","684947","5d75c56a52c89d0017df611c","1","15","4127","","","","","","","","","<img src= rock_img/I_Andesite_14.jpg style=""width:8cm; height:5.449999999999999cm;""><p style='font-size: 30px; color: red;'><strong>Incorrect!</strong></p><p style='font-size: 30px;'><strong>This rock is andesite</strong></p>","0","corr_feedback","1","train","28","","","","","","","",""
"","","","","","","","","","","","html-button-response","161","2.0.0","718292","5d75c56a52c89d0017df611c","1","15","33343","","","","","","","","","<img src= ""rock_img/I_Andesite_03.jpg"" style=""width:8cm; height:5.73cm;""><p>What type of rock is this?</p>","5","class_response","1","train","29","Pegmatite","Andesite","03","false","6","1","",""
"","","","","","","","","","","","html-button-response","162","2.0.0","727268","5d75c56a52c89d0017df611c","1","15","8974","","","","","","","","","<img src= rock_img/I_Andesite_03.jpg style=""width:8cm; height:5.73cm;""><p style='font-size: 30px; color: red;'><strong>Incorrect!</strong></p><p style='font-size: 30px;'><strong>This rock is andesite</strong></p>","0","corr_feedback","1","train","29","","","","","","","",""
"","","","","","","","","","","","html-button-response","163","2.0.0","740972","5d75c56a52c89d0017df611c","1","15","13701","","","","","","","","","<img src= ""rock_img/I_Basalt_02.jpg"" style=""width:8cm; height:6.45cm;""><p>What type of rock is this?</p>","3","class_response","1","train","30","Gabbro","Basalt","02","false","4","2","",""
"","","","","","","","","","","","html-button-response","164","2.0.0","747283","5d75c56a52c89d0017df611c","1","15","6309","","","","","","","","","<img src= rock_img/I_Basalt_02.jpg style=""width:8cm; height:6.45cm;""><p style='font-size: 30px; color: red;'><strong>Incorrect!</strong></p><p style='font-size: 30px;'><strong>This rock is basalt</strong></p>","0","corr_feedback","1","train","30","","","","","","","",""
"","","","","","","","","","","","html-button-response","165","2.0.0","752214","5d75c56a52c89d0017df611c","1","15","4930","","","","","","","","","<img src= ""rock_img/I_Gabbro_16.jpg"" style=""width:8cm; height:6.44cm;""><p>What type of rock is this?</p>","3","class_response","1","train","31","Gabbro","Gabbro","16","true","4","4","",""
"","","","","","","","","","","","html-button-response","166","2.0.0","755627","5d75c56a52c89d0017df611c","1","15","3411","","","","","","","","","<img src= rock_img/I_Gabbro_16.jpg style=""width:8cm; height:6.44cm;""><p style='font-size: 30px; color: green;'><strong>Correct!</strong></p><p style='font-size: 30px;'><strong>This rock is gabbro</strong></p>","0","corr_feedback","1","train","31","","","","","","","",""
"","","","","","","","","","","","html-button-response","167","2.0.0","757175","5d75c56a52c89d0017df611c","1","15","1546","","","","","","","","","<img src= ""rock_img/I_Obsidian_12.jpg"" style=""width:8cm; height:6.53cm;""><p>What type of rock is this?</p>","4","class_response","1","train","32","Obsidian","Obsidian","12","true","5","5","",""
"","","","","","","","","","","","html-button-response","168","2.0.0","760088","5d75c56a52c89d0017df611c","1","15","2911","","","","","","","","","<img src= rock_img/I_Obsidian_12.jpg style=""width:8cm; height:6.53cm;""><p style='font-size: 30px; color: green;'><strong>Correct!</strong></p><p style='font-size: 30px;'><strong>This rock is obsidian</strong></p>","0","corr_feedback","1","train","32","","","","","","","",""
"","","","","","","","","","","","html-button-response","169","2.0.0","761702","5d75c56a52c89d0017df611c","1","15","1611","","","","","","","","","<img src= ""rock_img/I_Pumice_04.jpg"" style=""width:8cm; height:6.819999999999999cm;""><p>What type of rock is this?</p>","7","class_response","1","train","33","Pumice","Pumice","04","true","8","8","",""
"","","","","","","","","","","","html-button-response","170","2.0.0","764652","5d75c56a52c89d0017df611c","1","15","2949","","","","","","","","","<img src= rock_img/I_Pumice_04.jpg style=""width:8cm; height:6.819999999999999cm;""><p style='font-size: 30px; color: green;'><strong>Correct!</strong></p><p style='font-size: 30px;'><strong>This rock is pumice</strong></p>","0","corr_feedback","1","train","33","","","","","","","",""
"","","","","","","","","","","","html-button-response","171","2.0.0","783183","5d75c56a52c89d0017df611c","1","15","18529","","","","","","","","","<img src= ""rock_img/I_Gabbro_15.jpg"" style=""width:8cm; height:6.29cm;""><p>What type of rock is this?</p>","3","class_response","1","train","34","Gabbro","Gabbro","15","true","4","4","",""
"","","","","","","","","","","","html-button-response","172","2.0.0","788099","5d75c56a52c89d0017df611c","1","15","4914","","","","","","","","","<img src= rock_img/I_Gabbro_15.jpg style=""width:8cm; height:6.29cm;""><p style='font-size: 30px; color: green;'><strong>Correct!</strong></p><p style='font-size: 30px;'><strong>This rock is gabbro</strong></p>","0","corr_feedback","1","train","34","","","","","","","",""
"","","","","","","","","","","","html-button-response","173","2.0.0","790945","5d75c56a52c89d0017df611c","1","15","2845","","","","","","","","","<img src= ""rock_img/I_Andesite_07.jpg"" style=""width:8cm; height:5.93cm;""><p>What type of rock is this?</p>","2","class_response","1","train","35","Diorite","Andesite","07","false","3","1","",""
"","","","","","","","","","","","html-button-response","174","2.0.0","795575","5d75c56a52c89d0017df611c","1","15","4628","","","","","","","","","<img src= rock_img/I_Andesite_07.jpg style=""width:8cm; height:5.93cm;""><p style='font-size: 30px; color: red;'><strong>Incorrect!</strong></p><p style='font-size: 30px;'><strong>This rock is andesite</strong></p>","0","corr_feedback","1","train","35","","","","","","","",""
"","","","","","","","","","","","html-button-response","175","2.0.0","800075","5d75c56a52c89d0017df611c","1","15","4498","","","","","","","","","<img src= ""rock_img/I_Basalt_12.jpg"" style=""width:8cm; height:6.010000000000001cm;""><p>What type of rock is this?</p>","5","class_response","1","train","36","Pegmatite","Basalt","12","false","6","2","",""
"","","","","","","","","","","","html-button-response","176","2.0.0","803650","5d75c56a52c89d0017df611c","1","15","3573","","","","","","","","","<img src= rock_img/I_Basalt_12.jpg style=""width:8cm; height:6.010000000000001cm;""><p style='font-size: 30px; color: red;'><strong>Incorrect!</strong></p><p style='font-size: 30px;'><strong>This rock is basalt</strong></p>","0","corr_feedback","1","train","36","","","","","","","",""
"","","","","","","","","","","","html-button-response","177","2.0.0","805979","5d75c56a52c89d0017df611c","1","15","2327","","","","","","","","","<img src= ""rock_img/I_Pegmatite_16.jpg"" style=""width:8cm; height:5.8cm;""><p>What type of rock is this?</p>","3","class_response","1","train","37","Gabbro","Pegmatite","16","false","4","6","",""
"","","","","","","","","","","","html-button-response","178","2.0.0","809579","5d75c56a52c89d0017df611c","1","15","3598","","","","","","","","","<img src= rock_img/I_Pegmatite_16.jpg style=""width:8cm; height:5.8cm;""><p style='font-size: 30px; color: red;'><strong>Incorrect!</strong></p><p style='font-size: 30px;'><strong>This rock is pegmatite</strong></p>","0","corr_feedback","1","train","37","","","","","","","",""
"","","","","","","","","","","","html-button-response","179","2.0.0","821369","5d75c56a52c89d0017df611c","1","15","11788","","","","","","","","","<img src= ""rock_img/I_Diorite_02.jpg"" style=""width:8cm; height:6.27cm;""><p>What type of rock is this?</p>","0","class_response","1","train","38","Andesite","Diorite","02","false","1","3","",""
"","","","","","","","","","","","html-button-response","180","2.0.0","826866","5d75c56a52c89d0017df611c","1","15","5495","","","","","","","","","<img src= rock_img/I_Diorite_02.jpg style=""width:8cm; height:6.27cm;""><p style='font-size: 30px; color: red;'><strong>Incorrect!</strong></p><p style='font-size: 30px;'><strong>This rock is diorite</strong></p>","0","corr_feedback","1","train","38","","","","","","","",""
"","","","","","","","","","","","html-button-response","181","2.0.0","828441","5d75c56a52c89d0017df611c","1","15","1573","","","","","","","","","<img src= ""rock_img/I_Pumice_14.jpg"" style=""width:8cm; height:6.39cm;""><p>What type of rock is this?</p>","7","class_response","1","train","39","Pumice","Pumice","14","true","8","8","",""
"","","","","","","","","","","","html-button-response","182","2.0.0","832804","5d75c56a52c89d0017df611c","1","15","4361","","","","","","","","","<img src= rock_img/I_Pumice_14.jpg style=""width:8cm; height:6.39cm;""><p style='font-size: 30px; color: green;'><strong>Correct!</strong></p><p style='font-size: 30px;'><strong>This rock is pumice</strong></p>","0","corr_feedback","1","train","39","","","","","","","",""
"","","","","","","","","","","","html-button-response","183","2.0.0","843720","5d75c56a52c89d0017df611c","1","15","10915","","","","","","","","","<img src= ""rock_img/I_Basalt_08.jpg"" style=""width:8cm; height:10.44cm;""><p>What type of rock is this?</p>","3","class_response","1","train","40","Gabbro","Basalt","08","false","4","2","",""
"","","","","","","","","","","","html-button-response","184","2.0.0","849161","5d75c56a52c89d0017df611c","1","15","5439","","","","","","","","","<img src= rock_img/I_Basalt_08.jpg style=""width:8cm; height:10.44cm;""><p style='font-size: 30px; color: red;'><strong>Incorrect!</strong></p><p style='font-size: 30px;'><strong>This rock is basalt</strong></p>","0","corr_feedback","1","train","40","","","","","","","",""
"","","","","","","","","","","","html-button-response","185","2.0.0","862652","5d75c56a52c89d0017df611c","1","15","13488","","","","","","","","","<img src= ""rock_img/I_Andesite_16.jpg"" style=""width:8cm; height:6.010000000000001cm;""><p>What type of rock is this?</p>","2","class_response","1","train","41","Diorite","Andesite","16","false","3","1","",""
"","","","","","","","","","","","html-button-response","186","2.0.0","868158","5d75c56a52c89d0017df611c","1","15","5504","","","","","","","","","<img src= rock_img/I_Andesite_16.jpg style=""width:8cm; height:6.010000000000001cm;""><p style='font-size: 30px; color: red;'><strong>Incorrect!</strong></p><p style='font-size: 30px;'><strong>This rock is andesite</strong></p>","0","corr_feedback","1","train","41","","","","","","","",""
"","","","","","","","","","","","html-button-response","187","2.0.0","878505","5d75c56a52c89d0017df611c","1","15","10345","","","","","","","","","<img src= ""rock_img/I_Diorite_13.jpg"" style=""width:8cm; height:6.29cm;""><p>What type of rock is this?</p>","3","class_response","1","train","42","Gabbro","Diorite","13","false","4","3","",""
"","","","","","","","","","","","html-button-response","188","2.0.0","889653","5d75c56a52c89d0017df611c","1","15","11146","","","","","","","","","<img src= rock_img/I_Diorite_13.jpg style=""width:8cm; height:6.29cm;""><p style='font-size: 30px; color: red;'><strong>Incorrect!</strong></p><p style='font-size: 30px;'><strong>This rock is diorite</strong></p>","0","corr_feedback","1","train","42","","","","","","","",""
"","","","","","","","","","","","html-button-response","189","2.0.0","895521","5d75c56a52c89d0017df611c","1","15","5866","","","","","","","","","<img src= ""rock_img/I_Gabbro_03.jpg"" style=""width:8cm; height:8.52cm;""><p>What type of rock is this?</p>","0","class_response","1","train","43","Andesite","Gabbro","03","false","1","4","",""
"","","","","","","","","","","","html-button-response","190","2.0.0","902278","5d75c56a52c89d0017df611c","1","15","6756","","","","","","","","","<img src= rock_img/I_Gabbro_03.jpg style=""width:8cm; height:8.52cm;""><p style='font-size: 30px; color: red;'><strong>Incorrect!</strong></p><p style='font-size: 30px;'><strong>This rock is gabbro</strong></p>","0","corr_feedback","1","train","43","","","","","","","",""
"","","","","","","","","","","","html-button-response","191","2.0.0","903864","5d75c56a52c89d0017df611c","1","15","1584","","","","","","","","","<img src= ""rock_img/I_Pegmatite_10.jpg"" style=""width:8cm; height:4.16cm;""><p>What type of rock is this?</p>","6","class_response","1","train","44","Peridotite","Pegmatite","10","false","7","6","",""
"","","","","","","","","","","","html-button-response","192","2.0.0","907689","5d75c56a52c89d0017df611c","1","15","3824","","","","","","","","","<img src= rock_img/I_Pegmatite_10.jpg style=""width:8cm; height:4.16cm;""><p style='font-size: 30px; color: red;'><strong>Incorrect!</strong></p><p style='font-size: 30px;'><strong>This rock is pegmatite</strong></p>","0","corr_feedback","1","train","44","","","","","","","",""
"","","","","","","","","","","","html-button-response","193","2.0.0","910335","5d75c56a52c89d0017df611c","1","15","2644","","","","","","","","","<img src= ""rock_img/I_Andesite_06.jpg"" style=""width:8cm; height:6.840000000000001cm;""><p>What type of rock is this?</p>","2","class_response","1","train","45","Diorite","Andesite","06","false","3","1","",""
"","","","","","","","","","","","html-button-response","194","2.0.0","913814","5d75c56a52c89d0017df611c","1","15","3478","","","","","","","","","<img src= rock_img/I_Andesite_06.jpg style=""width:8cm; height:6.840000000000001cm;""><p style='font-size: 30px; color: red;'><strong>Incorrect!</strong></p><p style='font-size: 30px;'><strong>This rock is andesite</strong></p>","0","corr_feedback","1","train","45","","","","","","","",""
"","","","","","","","","","","","html-button-response","195","2.0.0","915997","5d75c56a52c89d0017df611c","1","15","2180","","","","","","","","","<img src= ""rock_img/I_Pegmatite_08.jpg"" style=""width:8cm; height:7.68cm;""><p>What type of rock is this?</p>","5","class_response","1","train","46","Pegmatite","Pegmatite","08","true","6","6","",""
"","","","","","","","","","","","html-button-response","196","2.0.0","919431","5d75c56a52c89d0017df611c","1","15","3433","","","","","","","","","<img src= rock_img/I_Pegmatite_08.jpg style=""width:8cm; height:7.68cm;""><p style='font-size: 30px; color: green;'><strong>Correct!</strong></p><p style='font-size: 30px;'><strong>This rock is pegmatite</strong></p>","0","corr_feedback","1","train","46","","","","","","","",""
"","","","","","","","","","","","html-button-response","197","2.0.0","920917","5d75c56a52c89d0017df611c","1","15","1483","","","","","","","","","<img src= ""rock_img/I_Obsidian_02.jpg"" style=""width:8cm; height:7.51cm;""><p>What type of rock is this?</p>","4","class_response","1","train","47","Obsidian","Obsidian","02","true","5","5","",""
"","","","","","","","","","","","html-button-response","198","2.0.0","924107","5d75c56a52c89d0017df611c","1","15","3188","","","","","","","","","<img src= rock_img/I_Obsidian_02.jpg style=""width:8cm; height:7.51cm;""><p style='font-size: 30px; color: green;'><strong>Correct!</strong></p><p style='font-size: 30px;'><strong>This rock is obsidian</strong></p>","0","corr_feedback","1","train","47","","","","","","","",""
"","","","","","","","","","","","html-button-response","199","2.0.0","931100","5d75c56a52c89d0017df611c","1","15","6991","","","","","","","","","<img src= ""rock_img/I_Diorite_14.jpg"" style=""width:8cm; height:5.71cm;""><p>What type of rock is this?</p>","0","class_response","1","train","48","Andesite","Diorite","14","false","1","3","",""
"","","","","","","","","","","","html-button-response","200","2.0.0","938061","5d75c56a52c89d0017df611c","1","15","6960","","","","","","","","","<img src= rock_img/I_Diorite_14.jpg style=""width:8cm; height:5.71cm;""><p style='font-size: 30px; color: red;'><strong>Incorrect!</strong></p><p style='font-size: 30px;'><strong>This rock is diorite</strong></p>","0","corr_feedback","1","train","48","","","","","","","",""
"","","","","","","","","","","","instructions","203","2.0.0","993979","5d75c56a52c89d0017df611c","1","15","55917","","","","","","","","[{""page_index"":0,""viewing_time"":35568},{""page_index"":1,""viewing_time"":20349}]","","","","","","","","","","","","","",""
"","","","","","","","","","","","html-button-response","204","2.0.0","1006333","5d75c56a52c89d0017df611c","1","15","12352","","","","","","","","","","0","start_test","","","","","","","","","","",""
"","","","","","","","","","","","html-button-response","205","2.0.0","1017465","5d75c56a52c89d0017df611c","1","15","11131","","","","","","","","","<img src= ""rock_img/I_Andesite_01.jpg"" style=""width:8cm; height:5.87cm;""><p>What type of rock is this?</p>","3","class_response","1","test","1","Gabbro","Andesite","01","false","4","1","",""
"","","","","","","","","","","","html-keyboard-response","206","2.0.0","1017975","5d75c56a52c89d0017df611c","1","15","null","","","","","","","","","<p style='font-size: 30px;'><strong>Okay</strong></p>","null","neutral_feedback","1","test","1","","","","","","","",""
"","","","","","","","","","","","html-button-response","207","2.0.0","1040834","5d75c56a52c89d0017df611c","1","15","22857","","","","","","","","","<img src= ""rock_img/I_Pegmatite_12.jpg"" style=""width:8cm; height:5.7cm;""><p>What type of rock is this?</p>","5","class_response","1","test","2","Pegmatite","Pegmatite","12","true","6","6","",""
"","","","","","","","","","","","html-keyboard-response","208","2.0.0","1041339","5d75c56a52c89d0017df611c","1","15","null","","","","","","","","","<p style='font-size: 30px;'><strong>Okay</strong></p>","null","neutral_feedback","1","test","2","","","","","","","",""
"","","","","","","","","","","","html-button-response","209","2.0.0","1052424","5d75c56a52c89d0017df611c","1","15","11083","","","","","","","","","<img src= ""rock_img/I_Peridotite_16.jpg"" style=""width:8cm; height:6.989999999999999cm;""><p>What type of rock is this?</p>","6","class_response","1","test","3","Peridotite","Peridotite","16","true","7","7","",""
"","","","","","","","","","","","html-keyboard-response","210","2.0.0","1052932","5d75c56a52c89d0017df611c","1","15","null","","","","","","","","","<p style='font-size: 30px;'><strong>Okay</strong></p>","null","neutral_feedback","1","test","3","","","","","","","",""
"","","","","","","","","","","","html-button-response","211","2.0.0","1054640","5d75c56a52c89d0017df611c","1","15","1707","","","","","","","","","<img src= ""rock_img/I_Obsidian_16.jpg"" style=""width:8cm; height:9.3cm;""><p>What type of rock is this?</p>","4","class_response","1","test","4","Obsidian","Obsidian","16","true","5","5","",""
"","","","","","","","","","","","html-keyboard-response","212","2.0.0","1055148","5d75c56a52c89d0017df611c","1","15","null","","","","","","","","","<p style='font-size: 30px;'><strong>Okay</strong></p>","null","neutral_feedback","1","test","4","","","","","","","",""
"","","","","","","","","","","","html-button-response","213","2.0.0","1063951","5d75c56a52c89d0017df611c","1","15","8801","","","","","","","","","<img src= ""rock_img/I_Gabbro_14.jpg"" style=""width:8cm; height:8.48cm;""><p>What type of rock is this?</p>","3","class_response","1","test","5","Gabbro","Gabbro","14","true","4","4","",""
"","","","","","","","","","","","html-keyboard-response","214","2.0.0","1064463","5d75c56a52c89d0017df611c","1","15","null","","","","","","","","","<p style='font-size: 30px;'><strong>Okay</strong></p>","null","neutral_feedback","1","test","5","","","","","","","",""
"","","","","","","","","","","","html-button-response","215","2.0.0","1085079","5d75c56a52c89d0017df611c","1","15","20614","","","","","","","","","<img src= ""rock_img/I_Gabbro_12.jpg"" style=""width:8cm; height:7.800000000000001cm;""><p>What type of rock is this?</p>","0","class_response","1","test","6","Andesite","Gabbro","12","false","1","4","",""
"","","","","","","","","","","","html-keyboard-response","216","2.0.0","1085583","5d75c56a52c89d0017df611c","1","15","null","","","","","","","","","<p style='font-size: 30px;'><strong>Okay</strong></p>","null","neutral_feedback","1","test","6","","","","","","","",""
"","","","","","","","","","","","html-button-response","217","2.0.0","1093953","5d75c56a52c89d0017df611c","1","15","8368","","","","","","","","","<img src= ""rock_img/I_Pegmatite_15.jpg"" style=""width:8cm; height:6cm;""><p>What type of rock is this?</p>","5","class_response","1","test","7","Pegmatite","Pegmatite","15","true","6","6","",""
"","","","","","","","","","","","html-keyboard-response","218","2.0.0","1094457","5d75c56a52c89d0017df611c","1","15","null","","","","","","","","","<p style='font-size: 30px;'><strong>Okay</strong></p>","null","neutral_feedback","1","test","7","","","","","","","",""
"","","","","","","","","","","","html-button-response","219","2.0.0","1105394","5d75c56a52c89d0017df611c","1","15","10936","","","","","","","","","<img src= ""rock_img/I_Andesite_05.jpg"" style=""width:8cm; height:4.12cm;""><p>What type of rock is this?</p>","0","class_response","1","test","8","Andesite","Andesite","05","true","1","1","",""
"","","","","","","","","","","","html-keyboard-response","220","2.0.0","1105900","5d75c56a52c89d0017df611c","1","15","null","","","","","","","","","<p style='font-size: 30px;'><strong>Okay</strong></p>","null","neutral_feedback","1","test","8","","","","","","","",""
"","","","","","","","","","","","html-button-response","221","2.0.0","1108278","5d75c56a52c89d0017df611c","1","15","2376","","","","","","","","","<img src= ""rock_img/I_Pumice_09.jpg"" style=""width:8cm; height:6.44cm;""><p>What type of rock is this?</p>","7","class_response","1","test","9","Pumice","Pumice","09","true","8","8","",""
"","","","","","","","","","","","html-keyboard-response","222","2.0.0","1108792","5d75c56a52c89d0017df611c","1","15","null","","","","","","","","","<p style='font-size: 30px;'><strong>Okay</strong></p>","null","neutral_feedback","1","test","9","","","","","","","",""
"","","","","","","","","","","","html-button-response","223","2.0.0","1146606","5d75c56a52c89d0017df611c","1","15","37812","","","","","","","","","<img src= ""rock_img/I_Peridotite_05.jpg"" style=""width:8cm; height:7.1499999999999995cm;""><p>What type of rock is this?</p>","3","class_response","1","test","10","Gabbro","Peridotite","05","false","4","7","",""
"","","","","","","","","","","","html-keyboard-response","224","2.0.0","1147110","5d75c56a52c89d0017df611c","1","15","null","","","","","","","","","<p style='font-size: 30px;'><strong>Okay</strong></p>","null","neutral_feedback","1","test","10","","","","","","","",""
"","","","","","","","","","","","html-button-response","225","2.0.0","1156067","5d75c56a52c89d0017df611c","1","15","8956","","","","","","","","","<img src= ""rock_img/I_Gabbro_01.jpg"" style=""width:8cm; height:5.21cm;""><p>What type of rock is this?</p>","0","class_response","1","test","11","Andesite","Gabbro","01","false","1","4","",""
"","","","","","","","","","","","html-keyboard-response","226","2.0.0","1156571","5d75c56a52c89d0017df611c","1","15","null","","","","","","","","","<p style='font-size: 30px;'><strong>Okay</strong></p>","null","neutral_feedback","1","test","11","","","","","","","",""
"","","","","","","","","","","","html-button-response","227","2.0.0","1180163","5d75c56a52c89d0017df611c","1","15","23590","","","","","","","","","<img src= ""rock_img/I_Andesite_04.jpg"" style=""width:8cm; height:5.96cm;""><p>What type of rock is this?</p>","0","class_response","1","test","12","Andesite","Andesite","04","true","1","1","",""
"","","","","","","","","","","","html-keyboard-response","228","2.0.0","1180670","5d75c56a52c89d0017df611c","1","15","null","","","","","","","","","<p style='font-size: 30px;'><strong>Okay</strong></p>","null","neutral_feedback","1","test","12","","","","","","","",""
"","","","","","","","","","","","html-button-response","229","2.0.0","1197409","5d75c56a52c89d0017df611c","1","15","16737","","","","","","","","","<img src= ""rock_img/I_Basalt_11.jpg"" style=""width:8cm; height:5.359999999999999cm;""><p>What type of rock is this?</p>","6","class_response","1","test","13","Peridotite","Basalt","11","false","7","2","",""
"","","","","","","","","","","","html-keyboard-response","230","2.0.0","1197912","5d75c56a52c89d0017df611c","1","15","null","","","","","","","","","<p style='font-size: 30px;'><strong>Okay</strong></p>","null","neutral_feedback","1","test","13","","","","","","","",""
"","","","","","","","","","","","html-button-response","231","2.0.0","1199859","5d75c56a52c89d0017df611c","1","15","1945","","","","","","","","","<img src= ""rock_img/I_Pumice_02.jpg"" style=""width:8cm; height:7.3999999999999995cm;""><p>What type of rock is this?</p>","7","class_response","1","test","14","Pumice","Pumice","02","true","8","8","",""
"","","","","","","","","","","","html-keyboard-response","232","2.0.0","1200373","5d75c56a52c89d0017df611c","1","15","null","","","","","","","","","<p style='font-size: 30px;'><strong>Okay</strong></p>","null","neutral_feedback","1","test","14","","","","","","","",""
"","","","","","","","","","","","html-button-response","233","2.0.0","1202439","5d75c56a52c89d0017df611c","1","15","2065","","","","","","","","","<img src= ""rock_img/I_Peridotite_14.jpg"" style=""width:8cm; height:5.3cm;""><p>What type of rock is this?</p>","6","class_response","1","test","15","Peridotite","Peridotite","14","true","7","7","",""
"","","","","","","","","","","","html-keyboard-response","234","2.0.0","1202942","5d75c56a52c89d0017df611c","1","15","null","","","","","","","","","<p style='font-size: 30px;'><strong>Okay</strong></p>","null","neutral_feedback","1","test","15","","","","","","","",""
"","","","","","","","","","","","html-button-response","235","2.0.0","1212678","5d75c56a52c89d0017df611c","1","15","9734","","","","","","","","","<img src= ""rock_img/I_Diorite_12.jpg"" style=""width:8cm; height:4.88cm;""><p>What type of rock is this?</p>","0","class_response","1","test","16","Andesite","Diorite","12","false","1","3","",""
"","","","","","","","","","","","html-keyboard-response","236","2.0.0","1213184","5d75c56a52c89d0017df611c","1","15","null","","","","","","","","","<p style='font-size: 30px;'><strong>Okay</strong></p>","null","neutral_feedback","1","test","16","","","","","","","",""
"","","","","","","","","","","","html-button-response","237","2.0.0","1253079","5d75c56a52c89d0017df611c","1","15","39894","","","","","","","","","<img src= ""rock_img/I_Andesite_09.jpg"" style=""width:8cm; height:6cm;""><p>What type of rock is this?</p>","0","class_response","1","test","17","Andesite","Andesite","09","true","1","1","",""
"","","","","","","","","","","","html-keyboard-response","238","2.0.0","1253593","5d75c56a52c89d0017df611c","1","15","null","","","","","","","","","<p style='font-size: 30px;'><strong>Okay</strong></p>","null","neutral_feedback","1","test","17","","","","","","","",""
"","","","","","","","","","","","html-button-response","239","2.0.0","1262500","5d75c56a52c89d0017df611c","1","15","8906","","","","","","","","","<img src= ""rock_img/I_Basalt_01.jpg"" style=""width:8cm; height:7.880000000000001cm;""><p>What type of rock is this?</p>","3","class_response","1","test","18","Gabbro","Basalt","01","false","4","2","",""
"","","","","","","","","","","","html-keyboard-response","240","2.0.0","1263002","5d75c56a52c89d0017df611c","1","15","null","","","","","","","","","<p style='font-size: 30px;'><strong>Okay</strong></p>","null","neutral_feedback","1","test","18","","","","","","","",""
"","","","","","","","","","","","html-button-response","241","2.0.0","1265815","5d75c56a52c89d0017df611c","1","15","2810","","","","","","","","","<img src= ""rock_img/I_Basalt_04.jpg"" style=""width:8cm; height:7.53cm;""><p>What type of rock is this?</p>","3","class_response","1","test","19","Gabbro","Basalt","04","false","4","2","",""
"","","","","","","","","","","","html-keyboard-response","242","2.0.0","1266319","5d75c56a52c89d0017df611c","1","15","null","","","","","","","","","<p style='font-size: 30px;'><strong>Okay</strong></p>","null","neutral_feedback","1","test","19","","","","","","","",""
"","","","","","","","","","","","html-button-response","243","2.0.0","1267782","5d75c56a52c89d0017df611c","1","15","1461","","","","","","","","","<img src= ""rock_img/I_Peridotite_13.jpg"" style=""width:8cm; height:7.58cm;""><p>What type of rock is this?</p>","6","class_response","1","test","20","Peridotite","Peridotite","13","true","7","7","",""
"","","","","","","","","","","","html-keyboard-response","244","2.0.0","1268297","5d75c56a52c89d0017df611c","1","15","null","","","","","","","","","<p style='font-size: 30px;'><strong>Okay</strong></p>","null","neutral_feedback","1","test","20","","","","","","","",""
"","","","","","","","","","","","html-button-response","245","2.0.0","1270978","5d75c56a52c89d0017df611c","1","15","2679","","","","","","","","","<img src= ""rock_img/I_Pumice_15.jpg"" style=""width:8cm; height:7.86cm;""><p>What type of rock is this?</p>","7","class_response","1","test","21","Pumice","Pumice","15","true","8","8","",""
"","","","","","","","","","","","html-keyboard-response","246","2.0.0","1271494","5d75c56a52c89d0017df611c","1","15","null","","","","","","","","","<p style='font-size: 30px;'><strong>Okay</strong></p>","null","neutral_feedback","1","test","21","","","","","","","",""
"","","","","","","","","","","","html-button-response","247","2.0.0","1272974","5d75c56a52c89d0017df611c","1","15","1478","","","","","","","","","<img src= ""rock_img/I_Obsidian_11.jpg"" style=""width:8cm; height:6.05cm;""><p>What type of rock is this?</p>","4","class_response","1","test","22","Obsidian","Obsidian","11","true","5","5","",""
"","","","","","","","","","","","html-keyboard-response","248","2.0.0","1273479","5d75c56a52c89d0017df611c","1","15","null","","","","","","","","","<p style='font-size: 30px;'><strong>Okay</strong></p>","null","neutral_feedback","1","test","22","","","","","","","",""
"","","","","","","","","","","","html-button-response","249","2.0.0","1280220","5d75c56a52c89d0017df611c","1","15","6740","","","","","","","","","<img src= ""rock_img/I_Diorite_11.jpg"" style=""width:8cm; height:7.11cm;""><p>What type of rock is this?</p>","0","class_response","1","test","23","Andesite","Diorite","11","false","1","3","",""
"","","","","","","","","","","","html-keyboard-response","250","2.0.0","1280736","5d75c56a52c89d0017df611c","1","15","null","","","","","","","","","<p style='font-size: 30px;'><strong>Okay</strong></p>","null","neutral_feedback","1","test","23","","","","","","","",""
"","","","","","","","","","","","html-button-response","251","2.0.0","1287330","5d75c56a52c89d0017df611c","1","15","6592","","","","","","","","","<img src= ""rock_img/I_Pegmatite_11.jpg"" style=""width:8cm; height:8.14cm;""><p>What type of rock is this?</p>","5","class_response","1","test","24","Pegmatite","Pegmatite","11","true","6","6","",""
"","","","","","","","","","","","html-keyboard-response","252","2.0.0","1287831","5d75c56a52c89d0017df611c","1","15","null","","","","","","","","","<p style='font-size: 30px;'><strong>Okay</strong></p>","null","neutral_feedback","1","test","24","","","","","","","",""
"","","","","","","","","","","","html-button-response","253","2.0.0","1295373","5d75c56a52c89d0017df611c","1","15","7540","","","","","","","","","<img src= ""rock_img/I_Andesite_11.jpg"" style=""width:8cm; height:4.92cm;""><p>What type of rock is this?</p>","0","class_response","1","test","25","Andesite","Andesite","11","true","1","1","",""
"","","","","","","","","","","","html-keyboard-response","254","2.0.0","1295874","5d75c56a52c89d0017df611c","1","15","null","","","","","","","","","<p style='font-size: 30px;'><strong>Okay</strong></p>","null","neutral_feedback","1","test","25","","","","","","","",""
"","","","","","","","","","","","html-button-response","255","2.0.0","1301900","5d75c56a52c89d0017df611c","1","15","6024","","","","","","","","","<img src= ""rock_img/I_Peridotite_12.jpg"" style=""width:8cm; height:4.54cm;""><p>What type of rock is this?</p>","2","class_response","1","test","26","Diorite","Peridotite","12","false","3","7","",""
"","","","","","","","","","","","html-keyboard-response","256","2.0.0","1302401","5d75c56a52c89d0017df611c","1","15","null","","","","","","","","","<p style='font-size: 30px;'><strong>Okay</strong></p>","null","neutral_feedback","1","test","26","","","","","","","",""
"","","","","","","","","","","","html-button-response","257","2.0.0","1305531","5d75c56a52c89d0017df611c","1","15","3128","","","","","","","","","<img src= ""rock_img/I_Pumice_05.jpg"" style=""width:8cm; height:7.25cm;""><p>What type of rock is this?</p>","7","class_response","1","test","27","Pumice","Pumice","05","true","8","8","",""
"","","","","","","","","","","","html-keyboard-response","258","2.0.0","1306041","5d75c56a52c89d0017df611c","1","15","null","","","","","","","","","<p style='font-size: 30px;'><strong>Okay</strong></p>","null","neutral_feedback","1","test","27","","","","","","","",""
"","","","","","","","","","","","html-button-response","259","2.0.0","1312223","5d75c56a52c89d0017df611c","1","15","6180","","","","","","","","","<img src= ""rock_img/I_Diorite_15.jpg"" style=""width:8cm; height:5.54cm;""><p>What type of rock is this?</p>","3","class_response","1","test","28","Gabbro","Diorite","15","false","4","3","",""
"","","","","","","","","","","","html-keyboard-response","260","2.0.0","1312725","5d75c56a52c89d0017df611c","1","15","null","","","","","","","","","<p style='font-size: 30px;'><strong>Okay</strong></p>","null","neutral_feedback","1","test","28","","","","","","","",""
"","","","","","","","","","","","html-button-response","261","2.0.0","1318655","5d75c56a52c89d0017df611c","1","15","5928","","","","","","","","","<img src= ""rock_img/I_Pegmatite_09.jpg"" style=""width:8cm; height:4.03cm;""><p>What type of rock is this?</p>","5","class_response","1","test","29","Pegmatite","Pegmatite","09","true","6","6","",""
"","","","","","","","","","","","html-keyboard-response","262","2.0.0","1319163","5d75c56a52c89d0017df611c","1","15","null","","","","","","","","","<p style='font-size: 30px;'><strong>Okay</strong></p>","null","neutral_feedback","1","test","29","","","","","","","",""
"","","","","","","","","","","","html-button-response","263","2.0.0","1326499","5d75c56a52c89d0017df611c","1","15","7334","","","","","","","","","<img src= ""rock_img/I_Diorite_10.jpg"" style=""width:8cm; height:5.949999999999999cm;""><p>What type of rock is this?</p>","0","class_response","1","test","30","Andesite","Diorite","10","false","1","3","",""
"","","","","","","","","","","","html-keyboard-response","264","2.0.0","1327009","5d75c56a52c89d0017df611c","1","15","null","","","","","","","","","<p style='font-size: 30px;'><strong>Okay</strong></p>","null","neutral_feedback","1","test","30","","","","","","","",""
"","","","","","","","","","","","html-button-response","265","2.0.0","1328624","5d75c56a52c89d0017df611c","1","15","1613","","","","","","","","","<img src= ""rock_img/I_Obsidian_08.jpg"" style=""width:8cm; height:7.39cm;""><p>What type of rock is this?</p>","4","class_response","1","test","31","Obsidian","Obsidian","08","true","5","5","",""
"","","","","","","","","","","","html-keyboard-response","266","2.0.0","1329127","5d75c56a52c89d0017df611c","1","15","null","","","","","","","","","<p style='font-size: 30px;'><strong>Okay</strong></p>","null","neutral_feedback","1","test","31","","","","","","","",""
"","","","","","","","","","","","html-button-response","267","2.0.0","1335690","5d75c56a52c89d0017df611c","1","15","6560","","","","","","","","","<img src= ""rock_img/I_Diorite_07.jpg"" style=""width:8cm; height:5.239999999999999cm;""><p>What type of rock is this?</p>","2","class_response","1","test","32","Diorite","Diorite","07","true","3","3","",""
"","","","","","","","","","","","html-keyboard-response","268","2.0.0","1336201","5d75c56a52c89d0017df611c","1","15","null","","","","","","","","","<p style='font-size: 30px;'><strong>Okay</strong></p>","null","neutral_feedback","1","test","32","","","","","","","",""
"","","","","","","","","","","","html-button-response","269","2.0.0","1345979","5d75c56a52c89d0017df611c","1","15","9776","","","","","","","","","<img src= ""rock_img/I_Basalt_05.jpg"" style=""width:8cm; height:8.18cm;""><p>What type of rock is this?</p>","1","class_response","1","test","33","Basalt","Basalt","05","true","2","2","",""
"","","","","","","","","","","","html-keyboard-response","270","2.0.0","1346482","5d75c56a52c89d0017df611c","1","15","null","","","","","","","","","<p style='font-size: 30px;'><strong>Okay</strong></p>","null","neutral_feedback","1","test","33","","","","","","","",""
"","","","","","","","","","","","html-button-response","271","2.0.0","1353057","5d75c56a52c89d0017df611c","1","15","6573","","","","","","","","","<img src= ""rock_img/I_Pegmatite_06.jpg"" style=""width:8cm; height:5.17cm;""><p>What type of rock is this?</p>","5","class_response","1","test","34","Pegmatite","Pegmatite","06","true","6","6","",""
"","","","","","","","","","","","html-keyboard-response","272","2.0.0","1353561","5d75c56a52c89d0017df611c","1","15","null","","","","","","","","","<p style='font-size: 30px;'><strong>Okay</strong></p>","null","neutral_feedback","1","test","34","","","","","","","",""
"","","","","","","","","","","","html-button-response","273","2.0.0","1354637","5d75c56a52c89d0017df611c","1","15","1075","","","","","","","","","<img src= ""rock_img/I_Pegmatite_13.jpg"" style=""width:8cm; height:4.95cm;""><p>What type of rock is this?</p>","5","class_response","1","test","35","Pegmatite","Pegmatite","13","true","6","6","",""
"","","","","","","","","","","","html-keyboard-response","274","2.0.0","1355153","5d75c56a52c89d0017df611c","1","15","null","","","","","","","","","<p style='font-size: 30px;'><strong>Okay</strong></p>","null","neutral_feedback","1","test","35","","","","","","","",""
"","","","","","","","","","","","html-button-response","275","2.0.0","1364177","5d75c56a52c89d0017df611c","1","15","9023","","","","","","","","","<img src= ""rock_img/I_Gabbro_05.jpg"" style=""width:8cm; height:6cm;""><p>What type of rock is this?</p>","3","class_response","1","test","36","Gabbro","Gabbro","05","true","4","4","",""
"","","","","","","","","","","","html-keyboard-response","276","2.0.0","1364687","5d75c56a52c89d0017df611c","1","15","null","","","","","","","","","<p style='font-size: 30px;'><strong>Okay</strong></p>","null","neutral_feedback","1","test","36","","","","","","","",""
"","","","","","","","","","","","html-button-response","277","2.0.0","1369159","5d75c56a52c89d0017df611c","1","15","4470","","","","","","","","","<img src= ""rock_img/I_Andesite_10.jpg"" style=""width:8cm; height:4.16cm;""><p>What type of rock is this?</p>","1","class_response","1","test","37","Basalt","Andesite","10","false","2","1","",""
"","","","","","","","","","","","html-keyboard-response","278","2.0.0","1369668","5d75c56a52c89d0017df611c","1","15","null","","","","","","","","","<p style='font-size: 30px;'><strong>Okay</strong></p>","null","neutral_feedback","1","test","37","","","","","","","",""
"","","","","","","","","","","","html-button-response","279","2.0.0","1371871","5d75c56a52c89d0017df611c","1","15","2201","","","","","","","","","<img src= ""rock_img/I_Obsidian_14.jpg"" style=""width:8cm; height:7.64cm;""><p>What type of rock is this?</p>","4","class_response","1","test","38","Obsidian","Obsidian","14","true","5","5","",""
"","","","","","","","","","","","html-keyboard-response","280","2.0.0","1372387","5d75c56a52c89d0017df611c","1","15","null","","","","","","","","","<p style='font-size: 30px;'><strong>Okay</strong></p>","null","neutral_feedback","1","test","38","","","","","","","",""
"","","","","","","","","","","","html-button-response","281","2.0.0","1373537","5d75c56a52c89d0017df611c","1","15","1148","","","","","","","","","<img src= ""rock_img/I_Obsidian_06.jpg"" style=""width:8cm; height:6.8cm;""><p>What type of rock is this?</p>","4","class_response","1","test","39","Obsidian","Obsidian","06","true","5","5","",""
"","","","","","","","","","","","html-keyboard-response","282","2.0.0","1374039","5d75c56a52c89d0017df611c","1","15","null","","","","","","","","","<p style='font-size: 30px;'><strong>Okay</strong></p>","null","neutral_feedback","1","test","39","","","","","","","",""
"","","","","","","","","","","","html-button-response","283","2.0.0","1386826","5d75c56a52c89d0017df611c","1","15","12785","","","","","","","","","<img src= ""rock_img/I_Pumice_13.jpg"" style=""width:8cm; height:8.200000000000001cm;""><p>What type of rock is this?</p>","7","class_response","1","test","40","Pumice","Pumice","13","true","8","8","",""
"","","","","","","","","","","","html-keyboard-response","284","2.0.0","1387328","5d75c56a52c89d0017df611c","1","15","null","","","","","","","","","<p style='font-size: 30px;'><strong>Okay</strong></p>","null","neutral_feedback","1","test","40","","","","","","","",""
"","","","","","","","","","","","html-button-response","285","2.0.0","1389274","5d75c56a52c89d0017df611c","1","15","1944","","","","","","","","","<img src= ""rock_img/I_Peridotite_15.jpg"" style=""width:8cm; height:6cm;""><p>What type of rock is this?</p>","6","class_response","1","test","41","Peridotite","Peridotite","15","true","7","7","",""
"","","","","","","","","","","","html-keyboard-response","286","2.0.0","1389775","5d75c56a52c89d0017df611c","1","15","null","","","","","","","","","<p style='font-size: 30px;'><strong>Okay</strong></p>","null","neutral_feedback","1","test","41","","","","","","","",""
"","","","","","","","","","","","html-button-response","287","2.0.0","1396646","5d75c56a52c89d0017df611c","1","15","6869","","","","","","","","","<img src= ""rock_img/I_Gabbro_09.jpg"" style=""width:8cm; height:7.279999999999999cm;""><p>What type of rock is this?</p>","1","class_response","1","test","42","Basalt","Gabbro","09","false","2","4","",""
"","","","","","","","","","","","html-keyboard-response","288","2.0.0","1397153","5d75c56a52c89d0017df611c","1","15","null","","","","","","","","","<p style='font-size: 30px;'><strong>Okay</strong></p>","null","neutral_feedback","1","test","42","","","","","","","",""
"","","","","","","","","","","","html-button-response","289","2.0.0","1400743","5d75c56a52c89d0017df611c","1","15","3588","","","","","","","","","<img src= ""rock_img/I_Basalt_14.jpg"" style=""width:8cm; height:5.82cm;""><p>What type of rock is this?</p>","3","class_response","1","test","43","Gabbro","Basalt","14","false","4","2","",""
"","","","","","","","","","","","html-keyboard-response","290","2.0.0","1401247","5d75c56a52c89d0017df611c","1","15","null","","","","","","","","","<p style='font-size: 30px;'><strong>Okay</strong></p>","null","neutral_feedback","1","test","43","","","","","","","",""
"","","","","","","","","","","","html-button-response","291","2.0.0","1405364","5d75c56a52c89d0017df611c","1","15","4115","","","","","","","","","<img src= ""rock_img/I_Basalt_09.jpg"" style=""width:8cm; height:6.2cm;""><p>What type of rock is this?</p>","1","class_response","1","test","44","Basalt","Basalt","09","true","2","2","",""
"","","","","","","","","","","","html-keyboard-response","292","2.0.0","1405879","5d75c56a52c89d0017df611c","1","15","null","","","","","","","","","<p style='font-size: 30px;'><strong>Okay</strong></p>","null","neutral_feedback","1","test","44","","","","","","","",""
"","","","","","","","","","","","html-button-response","293","2.0.0","1410599","5d75c56a52c89d0017df611c","1","15","4718","","","","","","","","","<img src= ""rock_img/I_Diorite_08.jpg"" style=""width:8cm; height:6.37cm;""><p>What type of rock is this?</p>","0","class_response","1","test","45","Andesite","Diorite","08","false","1","3","",""
"","","","","","","","","","","","html-keyboard-response","294","2.0.0","1411106","5d75c56a52c89d0017df611c","1","15","null","","","","","","","","","<p style='font-size: 30px;'><strong>Okay</strong></p>","null","neutral_feedback","1","test","45","","","","","","","",""
"","","","","","","","","","","","html-button-response","295","2.0.0","1413017","5d75c56a52c89d0017df611c","1","15","1909","","","","","","","","","<img src= ""rock_img/I_Obsidian_09.jpg"" style=""width:8cm; height:5cm;""><p>What type of rock is this?</p>","4","class_response","1","test","46","Obsidian","Obsidian","09","true","5","5","",""
"","","","","","","","","","","","html-keyboard-response","296","2.0.0","1413522","5d75c56a52c89d0017df611c","1","15","null","","","","","","","","","<p style='font-size: 30px;'><strong>Okay</strong></p>","null","neutral_feedback","1","test","46","","","","","","","",""
"","","","","","","","","","","","html-button-response","297","2.0.0","1425154","5d75c56a52c89d0017df611c","1","15","11630","","","","","","","","","<img src= ""rock_img/I_Gabbro_08.jpg"" style=""width:8cm; height:5.15cm;""><p>What type of rock is this?</p>","1","class_response","1","test","47","Basalt","Gabbro","08","false","2","4","",""
"","","","","","","","","","","","html-keyboard-response","298","2.0.0","1425658","5d75c56a52c89d0017df611c","1","15","null","","","","","","","","","<p style='font-size: 30px;'><strong>Okay</strong></p>","null","neutral_feedback","1","test","47","","","","","","","",""
"","","","","","","","","","","","html-button-response","299","2.0.0","1428437","5d75c56a52c89d0017df611c","1","15","2777","","","","","","","","","<img src= ""rock_img/I_Pumice_06.jpg"" style=""width:8cm; height:6.9399999999999995cm;""><p>What type of rock is this?</p>","7","class_response","1","test","48","Pumice","Pumice","06","true","8","8","",""
"","","","","","","","","","","","html-keyboard-response","300","2.0.0","1428949","5d75c56a52c89d0017df611c","1","15","null","","","","","","","","","<p style='font-size: 30px;'><strong>Okay</strong></p>","null","neutral_feedback","1","test","48","","","","","","","",""
"","","","","","","","","","","","html-button-response","301","2.0.0","1485158","5d75c56a52c89d0017df611c","1","15","","","","","","","","","","","","cycle_feedback","","","","","","","","","","24372.5","31829.300000000745"
"","","","","","","","","","","","html-button-response","303","2.0.0","1487719","5d75c56a52c89d0017df611c","1","15","2559","","","","","","","","","","0","start_train","","","","","","","","","","",""
"","","","","","","","","","","","html-button-response","304","2.0.0","1489147","5d75c56a52c89d0017df611c","1","15","1427","","","","","","","","","<img src= ""rock_img/I_Obsidian_12.jpg"" style=""width:8cm; height:6.53cm;""><p>What type of rock is this?</p>","4","class_response","2","train","1","Obsidian","Obsidian","12","true","5","5","",""
