"width","height","webaudio","browser","browser_version","mobile","os","fullscreen","vsync_rate","webcam","microphone","trial_type","trial_index","plugin_version","time_elapsed","subjID","condition","stimID","rt","url","success","value","timeout","failed_images","failed_audio","failed_video","view_history","stimulus","response","trialType","cycle","phase","trial","resp","cat","token","corr","resp_num","cat_num","time_fb1","time_fb2"
"1536","695","true","chrome","130.0.0","false","Windows 10","true","60.34","true","true","browser-check","0","2.0.0","1007","6052961c99d0779f4f953050","1","8","","","","","","","","","","","","","","","","","","","","","","",""
"","","","","","","","","","","","external-html","1","2.0.0","9321","6052961c99d0779f4f953050","1","8","8207","consent_form.html","","","","","","","","","","","","","","","","","","","","",""
"","","","","","","","","","","","fullscreen","2","2.0.0","18832","6052961c99d0779f4f953050","1","8","8492","","true","","","","","","","","","","","","","","","","","","","",""
"","","","","","","","","","","","call-function","3","2.0.0","18837","6052961c99d0779f4f953050","1","8","","","","{}","","","","","","","","","","","","","","","","","","",""
"","","","","","","","","","","","preload","4","2.0.0","21013","6052961c99d0779f4f953050","1","8","","","true","","false","[]","[]","[]","","","","","","","","","","","","","","",""
"","","","","","","","","","","","instructions","5","2.0.0","66032","6052961c99d0779f4f953050","1","8","45018","","","","","","","","[{""page_index"":0,""viewing_time"":8399},{""page_index"":1,""viewing_time"":22030},{""page_index"":2,""viewing_time"":14588}]","","","","","","","","","","","","","",""
"","","","","","","","","","","","html-button-response","6","2.0.0","67608","6052961c99d0779f4f953050","1","8","1571","","","","","","","","","","0","start_test","","","","","","","","","","",""
"","","","","","","","","","","","html-button-response","7","2.0.0","72375","6052961c99d0779f4f953050","1","8","4762","","","","","","","","","<img src= ""rock_img/I_Gabbro_14.jpg"" style=""width:8cm; height:8.48cm;""><p>What type of rock is this?</p>","1","class_response","0","test","1","Basalt","Gabbro","14","false","2","4","",""
"","","","","","","","","","","","html-keyboard-response","8","2.0.0","72881","6052961c99d0779f4f953050","1","8","null","","","","","","","","","<p style='font-size: 30px;'><strong>Okay</strong></p>","null","neutral_feedback","0","test","1","","","","","","","",""
"","","","","","","","","","","","html-button-response","9","2.0.0","78820","6052961c99d0779f4f953050","1","8","5935","","","","","","","","","<img src= ""rock_img/I_Andesite_05.jpg"" style=""width:8cm; height:4.12cm;""><p>What type of rock is this?</p>","2","class_response","0","test","2","Diorite","Andesite","05","false","3","1","",""
"","","","","","","","","","","","html-keyboard-response","10","2.0.0","79334","6052961c99d0779f4f953050","1","8","null","","","","","","","","","<p style='font-size: 30px;'><strong>Okay</strong></p>","null","neutral_feedback","0","test","2","","","","","","","",""
"","","","","","","","","","","","html-button-response","11","2.0.0","85002","6052961c99d0779f4f953050","1","8","5665","","","","","","","","","<img src= ""rock_img/I_Gabbro_08.jpg"" style=""width:8cm; height:5.15cm;""><p>What type of rock is this?</p>","0","class_response","0","test","3","Andesite","Gabbro","08","false","1","4","",""
"","","","","","","","","","","","html-keyboard-response","12","2.0.0","85515","6052961c99d0779f4f953050","1","8","null","","","","","","","","","<p style='font-size: 30px;'><strong>Okay</strong></p>","null","neutral_feedback","0","test","3","","","","","","","",""
"","","","","","","","","","","","html-button-response","13","2.0.0","87984","6052961c99d0779f4f953050","1","8","2465","","","","","","","","","<img src= ""rock_img/I_Pumice_14.jpg"" style=""width:8cm; height:6.39cm;""><p>What type of rock is this?</p>","7","class_response","0","test","4","Pumice","Pumice","14","true","8","8","",""
"","","","","","","","","","","","html-keyboard-response","14","2.0.0","88485","6052961c99d0779f4f953050","1","8","null","","","","","","","","","<p style='font-size: 30px;'><strong>Okay</strong></p>","null","neutral_feedback","0","test","4","","","","","","","",""
"","","","","","","","","","","","html-button-response","15","2.0.0","95043","6052961c99d0779f4f953050","1","8","6556","","","","","","","","","<img src= ""rock_img/I_Andesite_10.jpg"" style=""width:8cm; height:4.16cm;""><p>What type of rock is this?</p>","1","class_response","0","test","5","Basalt","Andesite","10","false","2","1","",""
"","","","","","","","","","","","html-keyboard-response","16","2.0.0","95549","6052961c99d0779f4f953050","1","8","null","","","","","","","","","<p style='font-size: 30px;'><strong>Okay</strong></p>","null","neutral_feedback","0","test","5","","","","","","","",""
"","","","","","","","","","","","html-button-response","17","2.0.0","99130","6052961c99d0779f4f953050","1","8","3577","","","","","","","","","<img src= ""rock_img/I_Basalt_05.jpg"" style=""width:8cm; height:8.18cm;""><p>What type of rock is this?</p>","4","class_response","0","test","6","Obsidian","Basalt","05","false","5","2","",""
"","","","","","","","","","","","html-keyboard-response","18","2.0.0","99646","6052961c99d0779f4f953050","1","8","null","","","","","","","","","<p style='font-size: 30px;'><strong>Okay</strong></p>","null","neutral_feedback","0","test","6","","","","","","","",""
"","","","","","","","","","","","html-button-response","19","2.0.0","101270","6052961c99d0779f4f953050","1","8","1620","","","","","","","","","<img src= ""rock_img/I_Obsidian_09.jpg"" style=""width:8cm; height:5cm;""><p>What type of rock is this?</p>","4","class_response","0","test","7","Obsidian","Obsidian","09","true","5","5","",""
"","","","","","","","","","","","html-keyboard-response","20","2.0.0","101773","6052961c99d0779f4f953050","1","8","null","","","","","","","","","<p style='font-size: 30px;'><strong>Okay</strong></p>","null","neutral_feedback","0","test","7","","","","","","","",""
"","","","","","","","","","","","html-button-response","21","2.0.0","106947","6052961c99d0779f4f953050","1","8","5173","","","","","","","","","<img src= ""rock_img/I_Pegmatite_05.jpg"" style=""width:8cm; height:7.300000000000001cm;""><p>What type of rock is this?</p>","5","class_response","0","test","8","Pegmatite","Pegmatite","05","true","6","6","",""
"","","","","","","","","","","","html-keyboard-response","22","2.0.0","107454","6052961c99d0779f4f953050","1","8","null","","","","","","","","","<p style='font-size: 30px;'><strong>Okay</strong></p>","null","neutral_feedback","0","test","8","","","","","","","",""
"","","","","","","","","","","","html-button-response","23","2.0.0","114206","6052961c99d0779f4f953050","1","8","6750","","","","","","","","","<img src= ""rock_img/I_Pumice_04.jpg"" style=""width:8cm; height:6.819999999999999cm;""><p>What type of rock is this?</p>","1","class_response","0","test","9","Basalt","Pumice","04","false","2","8","",""
"","","","","","","","","","","","html-keyboard-response","24","2.0.0","114722","6052961c99d0779f4f953050","1","8","null","","","","","","","","","<p style='font-size: 30px;'><strong>Okay</strong></p>","null","neutral_feedback","0","test","9","","","","","","","",""
"","","","","","","","","","","","html-button-response","25","2.0.0","121099","6052961c99d0779f4f953050","1","8","6373","","","","","","","","","<img src= ""rock_img/I_Peridotite_10.jpg"" style=""width:8cm; height:5.390000000000001cm;""><p>What type of rock is this?</p>","6","class_response","0","test","10","Peridotite","Peridotite","10","true","7","7","",""
"","","","","","","","","","","","html-keyboard-response","26","2.0.0","121610","6052961c99d0779f4f953050","1","8","null","","","","","","","","","<p style='font-size: 30px;'><strong>Okay</strong></p>","null","neutral_feedback","0","test","10","","","","","","","",""
"","","","","","","","","","","","html-button-response","27","2.0.0","126835","6052961c99d0779f4f953050","1","8","5222","","","","","","","","","<img src= ""rock_img/I_Gabbro_03.jpg"" style=""width:8cm; height:8.52cm;""><p>What type of rock is this?</p>","2","class_response","0","test","11","Diorite","Gabbro","03","false","3","4","",""
"","","","","","","","","","","","html-keyboard-response","28","2.0.0","127345","6052961c99d0779f4f953050","1","8","null","","","","","","","","","<p style='font-size: 30px;'><strong>Okay</strong></p>","null","neutral_feedback","0","test","11","","","","","","","",""
"","","","","","","","","","","","html-button-response","29","2.0.0","130851","6052961c99d0779f4f953050","1","8","3503","","","","","","","","","<img src= ""rock_img/I_Andesite_04.jpg"" style=""width:8cm; height:5.96cm;""><p>What type of rock is this?</p>","5","class_response","0","test","12","Pegmatite","Andesite","04","false","6","1","",""
"","","","","","","","","","","","html-keyboard-response","30","2.0.0","131365","6052961c99d0779f4f953050","1","8","null","","","","","","","","","<p style='font-size: 30px;'><strong>Okay</strong></p>","null","neutral_feedback","0","test","12","","","","","","","",""
"","","","","","","","","","","","html-button-response","31","2.0.0","134206","6052961c99d0779f4f953050","1","8","2840","","","","","","","","","<img src= ""rock_img/I_Diorite_06.jpg"" style=""width:8cm; height:6.03cm;""><p>What type of rock is this?</p>","6","class_response","0","test","13","Peridotite","Diorite","06","false","7","3","",""
"","","","","","","","","","","","html-keyboard-response","32","2.0.0","134710","6052961c99d0779f4f953050","1","8","null","","","","","","","","","<p style='font-size: 30px;'><strong>Okay</strong></p>","null","neutral_feedback","0","test","13","","","","","","","",""
"","","","","","","","","","","","html-button-response","33","2.0.0","137367","6052961c99d0779f4f953050","1","8","2654","","","","","","","","","<img src= ""rock_img/I_Gabbro_01.jpg"" style=""width:8cm; height:5.21cm;""><p>What type of rock is this?</p>","5","class_response","0","test","14","Pegmatite","Gabbro","01","false","6","4","",""
"","","","","","","","","","","","html-keyboard-response","34","2.0.0","137884","6052961c99d0779f4f953050","1","8","null","","","","","","","","","<p style='font-size: 30px;'><strong>Okay</strong></p>","null","neutral_feedback","0","test","14","","","","","","","",""
"","","","","","","","","","","","html-button-response","35","2.0.0","141731","6052961c99d0779f4f953050","1","8","3844","","","","","","","","","<img src= ""rock_img/I_Pegmatite_13.jpg"" style=""width:8cm; height:4.95cm;""><p>What type of rock is this?</p>","3","class_response","0","test","15","Gabbro","Pegmatite","13","false","4","6","",""
"","","","","","","","","","","","html-keyboard-response","36","2.0.0","142243","6052961c99d0779f4f953050","1","8","null","","","","","","","","","<p style='font-size: 30px;'><strong>Okay</strong></p>","null","neutral_feedback","0","test","15","","","","","","","",""
"","","","","","","","","","","","html-button-response","37","2.0.0","147882","6052961c99d0779f4f953050","1","8","5636","","","","","","","","","<img src= ""rock_img/I_Basalt_04.jpg"" style=""width:8cm; height:7.53cm;""><p>What type of rock is this?</p>","0","class_response","0","test","16","Andesite","Basalt","04","false","1","2","",""
"","","","","","","","","","","","html-keyboard-response","38","2.0.0","148384","6052961c99d0779f4f953050","1","8","null","","","","","","","","","<p style='font-size: 30px;'><strong>Okay</strong></p>","null","neutral_feedback","0","test","16","","","","","","","",""
"","","","","","","","","","","","html-button-response","39","2.0.0","152471","6052961c99d0779f4f953050","1","8","4085","","","","","","","","","<img src= ""rock_img/I_Pumice_15.jpg"" style=""width:8cm; height:7.86cm;""><p>What type of rock is this?</p>","1","class_response","0","test","17","Basalt","Pumice","15","false","2","8","",""
"","","","","","","","","","","","html-keyboard-response","40","2.0.0","152985","6052961c99d0779f4f953050","1","8","null","","","","","","","","","<p style='font-size: 30px;'><strong>Okay</strong></p>","null","neutral_feedback","0","test","17","","","","","","","",""
"","","","","","","","","","","","html-button-response","41","2.0.0","155738","6052961c99d0779f4f953050","1","8","2750","","","","","","","","","<img src= ""rock_img/I_Obsidian_07.jpg"" style=""width:8cm; height:4.76cm;""><p>What type of rock is this?</p>","4","class_response","0","test","18","Obsidian","Obsidian","07","true","5","5","",""
"","","","","","","","","","","","html-keyboard-response","42","2.0.0","156250","6052961c99d0779f4f953050","1","8","null","","","","","","","","","<p style='font-size: 30px;'><strong>Okay</strong></p>","null","neutral_feedback","0","test","18","","","","","","","",""
"","","","","","","","","","","","html-button-response","43","2.0.0","157941","6052961c99d0779f4f953050","1","8","1688","","","","","","","","","<img src= ""rock_img/I_Diorite_11.jpg"" style=""width:8cm; height:7.11cm;""><p>What type of rock is this?</p>","6","class_response","0","test","19","Peridotite","Diorite","11","false","7","3","",""
"","","","","","","","","","","","html-keyboard-response","44","2.0.0","158456","6052961c99d0779f4f953050","1","8","null","","","","","","","","","<p style='font-size: 30px;'><strong>Okay</strong></p>","null","neutral_feedback","0","test","19","","","","","","","",""
"","","","","","","","","","","","html-button-response","45","2.0.0","159931","6052961c99d0779f4f953050","1","8","1472","","","","","","","","","<img src= ""rock_img/I_Pumice_09.jpg"" style=""width:8cm; height:6.44cm;""><p>What type of rock is this?</p>","7","class_response","0","test","20","Pumice","Pumice","09","true","8","8","",""
"","","","","","","","","","","","html-keyboard-response","46","2.0.0","160438","6052961c99d0779f4f953050","1","8","null","","","","","","","","","<p style='font-size: 30px;'><strong>Okay</strong></p>","null","neutral_feedback","0","test","20","","","","","","","",""
"","","","","","","","","","","","html-button-response","47","2.0.0","163794","6052961c99d0779f4f953050","1","8","3353","","","","","","","","","<img src= ""rock_img/I_Basalt_02.jpg"" style=""width:8cm; height:6.45cm;""><p>What type of rock is this?</p>","0","class_response","0","test","21","Andesite","Basalt","02","false","1","2","",""
"","","","","","","","","","","","html-keyboard-response","48","2.0.0","164302","6052961c99d0779f4f953050","1","8","null","","","","","","","","","<p style='font-size: 30px;'><strong>Okay</strong></p>","null","neutral_feedback","0","test","21","","","","","","","",""
"","","","","","","","","","","","html-button-response","49","2.0.0","166218","6052961c99d0779f4f953050","1","8","1913","","","","","","","","","<img src= ""rock_img/I_Andesite_07.jpg"" style=""width:8cm; height:5.93cm;""><p>What type of rock is this?</p>","6","class_response","0","test","22","Peridotite","Andesite","07","false","7","1","",""
"","","","","","","","","","","","html-keyboard-response","50","2.0.0","166733","6052961c99d0779f4f953050","1","8","null","","","","","","","","","<p style='font-size: 30px;'><strong>Okay</strong></p>","null","neutral_feedback","0","test","22","","","","","","","",""
"","","","","","","","","","","","html-button-response","51","2.0.0","171527","6052961c99d0779f4f953050","1","8","4791","","","","","","","","","<img src= ""rock_img/I_Andesite_16.jpg"" style=""width:8cm; height:6.010000000000001cm;""><p>What type of rock is this?</p>","5","class_response","0","test","23","Pegmatite","Andesite","16","false","6","1","",""
"","","","","","","","","","","","html-keyboard-response","52","2.0.0","172031","6052961c99d0779f4f953050","1","8","null","","","","","","","","","<p style='font-size: 30px;'><strong>Okay</strong></p>","null","neutral_feedback","0","test","23","","","","","","","",""
"","","","","","","","","","","","html-button-response","53","2.0.0","173524","6052961c99d0779f4f953050","1","8","1490","","","","","","","","","<img src= ""rock_img/I_Obsidian_14.jpg"" style=""width:8cm; height:7.64cm;""><p>What type of rock is this?</p>","4","class_response","0","test","24","Obsidian","Obsidian","14","true","5","5","",""
"","","","","","","","","","","","html-keyboard-response","54","2.0.0","174039","6052961c99d0779f4f953050","1","8","null","","","","","","","","","<p style='font-size: 30px;'><strong>Okay</strong></p>","null","neutral_feedback","0","test","24","","","","","","","",""
"","","","","","","","","","","","html-button-response","55","2.0.0","175581","6052961c99d0779f4f953050","1","8","1539","","","","","","","","","<img src= ""rock_img/I_Obsidian_11.jpg"" style=""width:8cm; height:6.05cm;""><p>What type of rock is this?</p>","4","class_response","0","test","25","Obsidian","Obsidian","11","true","5","5","",""
"","","","","","","","","","","","html-keyboard-response","56","2.0.0","176097","6052961c99d0779f4f953050","1","8","null","","","","","","","","","<p style='font-size: 30px;'><strong>Okay</strong></p>","null","neutral_feedback","0","test","25","","","","","","","",""
"","","","","","","","","","","","html-button-response","57","2.0.0","178144","6052961c99d0779f4f953050","1","8","2044","","","","","","","","","<img src= ""rock_img/I_Basalt_11.jpg"" style=""width:8cm; height:5.359999999999999cm;""><p>What type of rock is this?</p>","2","class_response","0","test","26","Diorite","Basalt","11","false","3","2","",""
"","","","","","","","","","","","html-keyboard-response","58","2.0.0","178650","6052961c99d0779f4f953050","1","8","null","","","","","","","","","<p style='font-size: 30px;'><strong>Okay</strong></p>","null","neutral_feedback","0","test","26","","","","","","","",""
"","","","","","","","","","","","html-button-response","59","2.0.0","181196","6052961c99d0779f4f953050","1","8","2543","","","","","","","","","<img src= ""rock_img/I_Pegmatite_06.jpg"" style=""width:8cm; height:5.17cm;""><p>What type of rock is this?</p>","3","class_response","0","test","27","Gabbro","Pegmatite","06","false","4","6","",""
"","","","","","","","","","","","html-keyboard-response","60","2.0.0","181701","6052961c99d0779f4f953050","1","8","null","","","","","","","","","<p style='font-size: 30px;'><strong>Okay</strong></p>","null","neutral_feedback","0","test","27","","","","","","","",""
"","","","","","","","","","","","html-button-response","61","2.0.0","183170","6052961c99d0779f4f953050","1","8","1466","","","","","","","","","<img src= ""rock_img/I_Pegmatite_16.jpg"" style=""width:8cm; height:5.8cm;""><p>What type of rock is this?</p>","6","class_response","0","test","28","Peridotite","Pegmatite","16","false","7","6","",""
"","","","","","","","","","","","html-keyboard-response","62","2.0.0","183678","6052961c99d0779f4f953050","1","8","null","","","","","","","","","<p style='font-size: 30px;'><strong>Okay</strong></p>","null","neutral_feedback","0","test","28","","","","","","","",""
"","","","","","","","","","","","html-button-response","63","2.0.0","189640","6052961c99d0779f4f953050","1","8","5959","","","","","","","","","<img src= ""rock_img/I_Pumice_03.jpg"" style=""width:8cm; height:6.64cm;""><p>What type of rock is this?</p>","7","class_response","0","test","29","Pumice","Pumice","03","true","8","8","",""
"","","","","","","","","","","","html-keyboard-response","64","2.0.0","190155","6052961c99d0779f4f953050","1","8","null","","","","","","","","","<p style='font-size: 30px;'><strong>Okay</strong></p>","null","neutral_feedback","0","test","29","","","","","","","",""
"","","","","","","","","","","","html-button-response","65","2.0.0","191424","6052961c99d0779f4f953050","1","8","1266","","","","","","","","","<img src= ""rock_img/I_Diorite_14.jpg"" style=""width:8cm; height:5.71cm;""><p>What type of rock is this?</p>","6","class_response","0","test","30","Peridotite","Diorite","14","false","7","3","",""
"","","","","","","","","","","","html-keyboard-response","66","2.0.0","191940","6052961c99d0779f4f953050","1","8","null","","","","","","","","","<p style='font-size: 30px;'><strong>Okay</strong></p>","null","neutral_feedback","0","test","30","","","","","","","",""
"","","","","","","","","","","","html-button-response","67","2.0.0","197117","6052961c99d0779f4f953050","1","8","5174","","","","","","","","","<img src= ""rock_img/I_Pegmatite_10.jpg"" style=""width:8cm; height:4.16cm;""><p>What type of rock is this?</p>","6","class_response","0","test","31","Peridotite","Pegmatite","10","false","7","6","",""
"","","","","","","","","","","","html-keyboard-response","68","2.0.0","197624","6052961c99d0779f4f953050","1","8","null","","","","","","","","","<p style='font-size: 30px;'><strong>Okay</strong></p>","null","neutral_feedback","0","test","31","","","","","","","",""
"","","","","","","","","","","","html-button-response","69","2.0.0","203392","6052961c99d0779f4f953050","1","8","5767","","","","","","","","","<img src= ""rock_img/I_Diorite_02.jpg"" style=""width:8cm; height:6.27cm;""><p>What type of rock is this?</p>","5","class_response","0","test","32","Pegmatite","Diorite","02","false","6","3","",""
"","","","","","","","","","","","html-keyboard-response","70","2.0.0","203894","6052961c99d0779f4f953050","1","8","null","","","","","","","","","<p style='font-size: 30px;'><strong>Okay</strong></p>","null","neutral_feedback","0","test","32","","","","","","","",""
"","","","","","","","","","","","html-button-response","71","2.0.0","206355","6052961c99d0779f4f953050","1","8","2459","","","","","","","","","<img src= ""rock_img/I_Peridotite_04.jpg"" style=""width:8cm; height:6.680000000000001cm;""><p>What type of rock is this?</p>","3","class_response","0","test","33","Gabbro","Peridotite","04","false","4","7","",""
"","","","","","","","","","","","html-keyboard-response","72","2.0.0","206868","6052961c99d0779f4f953050","1","8","null","","","","","","","","","<p style='font-size: 30px;'><strong>Okay</strong></p>","null","neutral_feedback","0","test","33","","","","","","","",""
"","","","","","","","","","","","html-button-response","73","2.0.0","208251","6052961c99d0779f4f953050","1","8","1379","","","","","","","","","<img src= ""rock_img/I_Peridotite_13.jpg"" style=""width:8cm; height:7.58cm;""><p>What type of rock is this?</p>","6","class_response","0","test","34","Peridotite","Peridotite","13","true","7","7","",""
"","","","","","","","","","","","html-keyboard-response","74","2.0.0","208762","6052961c99d0779f4f953050","1","8","null","","","","","","","","","<p style='font-size: 30px;'><strong>Okay</strong></p>","null","neutral_feedback","0","test","34","","","","","","","",""
"","","","","","","","","","","","html-button-response","75","2.0.0","213302","6052961c99d0779f4f953050","1","8","4537","","","","","","","","","<img src= ""rock_img/I_Diorite_16.jpg"" style=""width:8cm; height:6.74cm;""><p>What type of rock is this?</p>","5","class_response","0","test","35","Pegmatite","Diorite","16","false","6","3","",""
"","","","","","","","","","","","html-keyboard-response","76","2.0.0","213808","6052961c99d0779f4f953050","1","8","null","","","","","","","","","<p style='font-size: 30px;'><strong>Okay</strong></p>","null","neutral_feedback","0","test","35","","","","","","","",""
"","","","","","","","","","","","html-button-response","77","2.0.0","215396","6052961c99d0779f4f953050","1","8","1585","","","","","","","","","<img src= ""rock_img/I_Pumice_06.jpg"" style=""width:8cm; height:6.9399999999999995cm;""><p>What type of rock is this?</p>","7","class_response","0","test","36","Pumice","Pumice","06","true","8","8","",""
"","","","","","","","","","","","html-keyboard-response","78","2.0.0","215904","6052961c99d0779f4f953050","1","8","null","","","","","","","","","<p style='font-size: 30px;'><strong>Okay</strong></p>","null","neutral_feedback","0","test","36","","","","","","","",""
"","","","","","","","","","","","html-button-response","79","2.0.0","222536","6052961c99d0779f4f953050","1","8","6628","","","","","","","","","<img src= ""rock_img/I_Basalt_14.jpg"" style=""width:8cm; height:5.82cm;""><p>What type of rock is this?</p>","3","class_response","0","test","37","Gabbro","Basalt","14","false","4","2","",""
"","","","","","","","","","","","html-keyboard-response","80","2.0.0","223051","6052961c99d0779f4f953050","1","8","null","","","","","","","","","<p style='font-size: 30px;'><strong>Okay</strong></p>","null","neutral_feedback","0","test","37","","","","","","","",""
"","","","","","","","","","","","html-button-response","81","2.0.0","227377","6052961c99d0779f4f953050","1","8","4322","","","","","","","","","<img src= ""rock_img/I_Peridotite_12.jpg"" style=""width:8cm; height:4.54cm;""><p>What type of rock is this?</p>","5","class_response","0","test","38","Pegmatite","Peridotite","12","false","6","7","",""
"","","","","","","","","","","","html-keyboard-response","82","2.0.0","227889","6052961c99d0779f4f953050","1","8","null","","","","","","","","","<p style='font-size: 30px;'><strong>Okay</strong></p>","null","neutral_feedback","0","test","38","","","","","","","",""
"","","","","","","","","","","","html-button-response","83","2.0.0","229809","6052961c99d0779f4f953050","1","8","1917","","","","","","","","","<img src= ""rock_img/I_Pegmatite_11.jpg"" style=""width:8cm; height:8.14cm;""><p>What type of rock is this?</p>","4","class_response","0","test","39","Obsidian","Pegmatite","11","false","5","6","",""
"","","","","","","","","","","","html-keyboard-response","84","2.0.0","230313","6052961c99d0779f4f953050","1","8","null","","","","","","","","","<p style='font-size: 30px;'><strong>Okay</strong></p>","null","neutral_feedback","0","test","39","","","","","","","",""
"","","","","","","","","","","","html-button-response","85","2.0.0","232005","6052961c99d0779f4f953050","1","8","1689","","","","","","","","","<img src= ""rock_img/I_Peridotite_14.jpg"" style=""width:8cm; height:5.3cm;""><p>What type of rock is this?</p>","6","class_response","0","test","40","Peridotite","Peridotite","14","true","7","7","",""
"","","","","","","","","","","","html-keyboard-response","86","2.0.0","232507","6052961c99d0779f4f953050","1","8","null","","","","","","","","","<p style='font-size: 30px;'><strong>Okay</strong></p>","null","neutral_feedback","0","test","40","","","","","","","",""
"","","","","","","","","","","","html-button-response","87","2.0.0","234310","6052961c99d0779f4f953050","1","8","1799","","","","","","","","","<img src= ""rock_img/I_Gabbro_13.jpg"" style=""width:8cm; height:5.08cm;""><p>What type of rock is this?</p>","1","class_response","0","test","41","Basalt","Gabbro","13","false","2","4","",""
"","","","","","","","","","","","html-keyboard-response","88","2.0.0","234817","6052961c99d0779f4f953050","1","8","null","","","","","","","","","<p style='font-size: 30px;'><strong>Okay</strong></p>","null","neutral_feedback","0","test","41","","","","","","","",""
"","","","","","","","","","","","html-button-response","89","2.0.0","236352","6052961c99d0779f4f953050","1","8","1532","","","","","","","","","<img src= ""rock_img/I_Obsidian_06.jpg"" style=""width:8cm; height:6.8cm;""><p>What type of rock is this?</p>","4","class_response","0","test","42","Obsidian","Obsidian","06","true","5","5","",""
"","","","","","","","","","","","html-keyboard-response","90","2.0.0","236854","6052961c99d0779f4f953050","1","8","null","","","","","","","","","<p style='font-size: 30px;'><strong>Okay</strong></p>","null","neutral_feedback","0","test","42","","","","","","","",""
"","","","","","","","","","","","html-button-response","91","2.0.0","238164","6052961c99d0779f4f953050","1","8","1307","","","","","","","","","<img src= ""rock_img/I_Diorite_13.jpg"" style=""width:8cm; height:6.29cm;""><p>What type of rock is this?</p>","5","class_response","0","test","43","Pegmatite","Diorite","13","false","6","3","",""
"","","","","","","","","","","","html-keyboard-response","92","2.0.0","238676","6052961c99d0779f4f953050","1","8","null","","","","","","","","","<p style='font-size: 30px;'><strong>Okay</strong></p>","null","neutral_feedback","0","test","43","","","","","","","",""
"","","","","","","","","","","","html-button-response","93","2.0.0","240191","6052961c99d0779f4f953050","1","8","1513","","","","","","","","","<img src= ""rock_img/I_Basalt_01.jpg"" style=""width:8cm; height:7.880000000000001cm;""><p>What type of rock is this?</p>","0","class_response","0","test","44","Andesite","Basalt","01","false","1","2","",""
"","","","","","","","","","","","html-keyboard-response","94","2.0.0","240701","6052961c99d0779f4f953050","1","8","null","","","","","","","","","<p style='font-size: 30px;'><strong>Okay</strong></p>","null","neutral_feedback","0","test","44","","","","","","","",""
"","","","","","","","","","","","html-button-response","95","2.0.0","242403","6052961c99d0779f4f953050","1","8","1698","","","","","","","","","<img src= ""rock_img/I_Peridotite_16.jpg"" style=""width:8cm; height:6.989999999999999cm;""><p>What type of rock is this?</p>","6","class_response","0","test","45","Peridotite","Peridotite","16","true","7","7","",""
"","","","","","","","","","","","html-keyboard-response","96","2.0.0","242909","6052961c99d0779f4f953050","1","8","null","","","","","","","","","<p style='font-size: 30px;'><strong>Okay</strong></p>","null","neutral_feedback","0","test","45","","","","","","","",""
"","","","","","","","","","","","html-button-response","97","2.0.0","246304","6052961c99d0779f4f953050","1","8","3393","","","","","","","","","<img src= ""rock_img/I_Gabbro_16.jpg"" style=""width:8cm; height:6.44cm;""><p>What type of rock is this?</p>","0","class_response","0","test","46","Andesite","Gabbro","16","false","1","4","",""
"","","","","","","","","","","","html-keyboard-response","98","2.0.0","246810","6052961c99d0779f4f953050","1","8","null","","","","","","","","","<p style='font-size: 30px;'><strong>Okay</strong></p>","null","neutral_feedback","0","test","46","","","","","","","",""
"","","","","","","","","","","","html-button-response","99","2.0.0","249472","6052961c99d0779f4f953050","1","8","2659","","","","","","","","","<img src= ""rock_img/I_Andesite_01.jpg"" style=""width:8cm; height:5.87cm;""><p>What type of rock is this?</p>","3","class_response","0","test","47","Gabbro","Andesite","01","false","4","1","",""
"","","","","","","","","","","","html-keyboard-response","100","2.0.0","249975","6052961c99d0779f4f953050","1","8","null","","","","","","","","","<p style='font-size: 30px;'><strong>Okay</strong></p>","null","neutral_feedback","0","test","47","","","","","","","",""
"","","","","","","","","","","","html-button-response","101","2.0.0","253818","6052961c99d0779f4f953050","1","8","3841","","","","","","","","","<img src= ""rock_img/I_Obsidian_05.jpg"" style=""width:8cm; height:6.33cm;""><p>What type of rock is this?</p>","5","class_response","0","test","48","Pegmatite","Obsidian","05","false","6","5","",""
"","","","","","","","","","","","html-keyboard-response","102","2.0.0","254331","6052961c99d0779f4f953050","1","8","null","","","","","","","","","<p style='font-size: 30px;'><strong>Okay</strong></p>","null","neutral_feedback","0","test","48","","","","","","","",""
"","","","","","","","","","","","instructions","103","2.0.0","277969","6052961c99d0779f4f953050","1","8","23591","","","","","","","","[{""page_index"":0,""viewing_time"":17180},{""page_index"":1,""viewing_time"":3855},{""page_index"":2,""viewing_time"":2556}]","","","","","","","","","","","","","",""
"","","","","","","","","","","","html-button-response","104","2.0.0","279968","6052961c99d0779f4f953050","1","8","1996","","","","","","","","","","0","start_train","","","","","","","","","","",""
"","","","","","","","","","","","html-button-response","105","2.0.0","282964","6052961c99d0779f4f953050","1","8","2993","","","","","","","","","<img src= ""rock_img/I_Diorite_09.jpg"" style=""width:8cm; height:5.27cm;""><p>What type of rock is this?</p>","5","class_response","1","train","1","Pegmatite","Diorite","09","false","6","3","",""
"","","","","","","","","","","","html-button-response","106","2.0.0","285689","6052961c99d0779f4f953050","1","8","2722","","","","","","","","","<img src= rock_img/I_Diorite_09.jpg style=""width:8cm; height:5.27cm;""><p style='font-size: 30px; color: red;'><strong>Incorrect!</strong></p><p style='font-size: 30px;'><strong>This rock is diorite</strong></p>","0","corr_feedback","1","train","1","","","","","","","",""
"","","","","","","","","","","","html-button-response","107","2.0.0","287678","6052961c99d0779f4f953050","1","8","1986","","","","","","","","","<img src= ""rock_img/I_Pegmatite_08.jpg"" style=""width:8cm; height:7.68cm;""><p>What type of rock is this?</p>","4","class_response","1","train","2","Obsidian","Pegmatite","08","false","5","6","",""
"","","","","","","","","","","","html-button-response","108","2.0.0","290103","6052961c99d0779f4f953050","1","8","2422","","","","","","","","","<img src= rock_img/I_Pegmatite_08.jpg style=""width:8cm; height:7.68cm;""><p style='font-size: 30px; color: red;'><strong>Incorrect!</strong></p><p style='font-size: 30px;'><strong>This rock is pegmatite</strong></p>","0","corr_feedback","1","train","2","","","","","","","",""
"","","","","","","","","","","","html-button-response","109","2.0.0","292544","6052961c99d0779f4f953050","1","8","2438","","","","","","","","","<img src= ""rock_img/I_Gabbro_05.jpg"" style=""width:8cm; height:6cm;""><p>What type of rock is this?</p>","6","class_response","1","train","3","Peridotite","Gabbro","05","false","7","4","",""
"","","","","","","","","","","","html-button-response","110","2.0.0","294449","6052961c99d0779f4f953050","1","8","1902","","","","","","","","","<img src= rock_img/I_Gabbro_05.jpg style=""width:8cm; height:6cm;""><p style='font-size: 30px; color: red;'><strong>Incorrect!</strong></p><p style='font-size: 30px;'><strong>This rock is gabbro</strong></p>","0","corr_feedback","1","train","3","","","","","","","",""
"","","","","","","","","","","","html-button-response","111","2.0.0","300232","6052961c99d0779f4f953050","1","8","5780","","","","","","","","","<img src= ""rock_img/I_Andesite_03.jpg"" style=""width:8cm; height:5.73cm;""><p>What type of rock is this?</p>","0","class_response","1","train","4","Andesite","Andesite","03","true","1","1","",""
"","","","","","","","","","","","html-button-response","112","2.0.0","302984","6052961c99d0779f4f953050","1","8","2748","","","","","","","","","<img src= rock_img/I_Andesite_03.jpg style=""width:8cm; height:5.73cm;""><p style='font-size: 30px; color: green;'><strong>Correct!</strong></p><p style='font-size: 30px;'><strong>This rock is andesite</strong></p>","0","corr_feedback","1","train","4","","","","","","","",""
"","","","","","","","","","","","html-button-response","113","2.0.0","305792","6052961c99d0779f4f953050","1","8","2805","","","","","","","","","<img src= ""rock_img/I_Peridotite_02.jpg"" style=""width:8cm; height:5.859999999999999cm;""><p>What type of rock is this?</p>","5","class_response","1","train","5","Pegmatite","Peridotite","02","false","6","7","",""
"","","","","","","","","","","","html-button-response","114","2.0.0","307821","6052961c99d0779f4f953050","1","8","2025","","","","","","","","","<img src= rock_img/I_Peridotite_02.jpg style=""width:8cm; height:5.859999999999999cm;""><p style='font-size: 30px; color: red;'><strong>Incorrect!</strong></p><p style='font-size: 30px;'><strong>This rock is peridotite</strong></p>","0","corr_feedback","1","train","5","","","","","","","",""
"","","","","","","","","","","","html-button-response","115","2.0.0","313656","6052961c99d0779f4f953050","1","8","5832","","","","","","","","","<img src= ""rock_img/I_Pegmatite_12.jpg"" style=""width:8cm; height:5.7cm;""><p>What type of rock is this?</p>","3","class_response","1","train","6","Gabbro","Pegmatite","12","false","4","6","",""
"","","","","","","","","","","","html-button-response","116","2.0.0","315142","6052961c99d0779f4f953050","1","8","1482","","","","","","","","","<img src= rock_img/I_Pegmatite_12.jpg style=""width:8cm; height:5.7cm;""><p style='font-size: 30px; color: red;'><strong>Incorrect!</strong></p><p style='font-size: 30px;'><strong>This rock is pegmatite</strong></p>","0","corr_feedback","1","train","6","","","","","","","",""
"","","","","","","","","","","","html-button-response","117","2.0.0","317161","6052961c99d0779f4f953050","1","8","2015","","","","","","","","","<img src= ""rock_img/I_Peridotite_07.jpg"" style=""width:8cm; height:4.83cm;""><p>What type of rock is this?</p>","6","class_response","1","train","7","Peridotite","Peridotite","07","true","7","7","",""
"","","","","","","","","","","","html-button-response","118","2.0.0","318148","6052961c99d0779f4f953050","1","8","984","","","","","","","","","<img src= rock_img/I_Peridotite_07.jpg style=""width:8cm; height:4.83cm;""><p style='font-size: 30px; color: green;'><strong>Correct!</strong></p><p style='font-size: 30px;'><strong>This rock is peridotite</strong></p>","0","corr_feedback","1","train","7","","","","","","","",""
"","","","","","","","","","","","html-button-response","119","2.0.0","319632","6052961c99d0779f4f953050","1","8","1481","","","","","","","","","<img src= ""rock_img/I_Pegmatite_09.jpg"" style=""width:8cm; height:4.03cm;""><p>What type of rock is this?</p>","6","class_response","1","train","8","Peridotite","Pegmatite","09","false","7","6","",""
"","","","","","","","","","","","html-button-response","120","2.0.0","321247","6052961c99d0779f4f953050","1","8","1612","","","","","","","","","<img src= rock_img/I_Pegmatite_09.jpg style=""width:8cm; height:4.03cm;""><p style='font-size: 30px; color: red;'><strong>Incorrect!</strong></p><p style='font-size: 30px;'><strong>This rock is pegmatite</strong></p>","0","corr_feedback","1","train","8","","","","","","","",""
"","","","","","","","","","","","html-button-response","121","2.0.0","325632","6052961c99d0779f4f953050","1","8","4381","","","","","","","","","<img src= ""rock_img/I_Diorite_10.jpg"" style=""width:8cm; height:5.949999999999999cm;""><p>What type of rock is this?</p>","2","class_response","1","train","9","Diorite","Diorite","10","true","3","3","",""
"","","","","","","","","","","","html-button-response","122","2.0.0","326838","6052961c99d0779f4f953050","1","8","1204","","","","","","","","","<img src= rock_img/I_Diorite_10.jpg style=""width:8cm; height:5.949999999999999cm;""><p style='font-size: 30px; color: green;'><strong>Correct!</strong></p><p style='font-size: 30px;'><strong>This rock is diorite</strong></p>","0","corr_feedback","1","train","9","","","","","","","",""
"","","","","","","","","","","","html-button-response","123","2.0.0","328903","6052961c99d0779f4f953050","1","8","2062","","","","","","","","","<img src= ""rock_img/I_Andesite_02.jpg"" style=""width:8cm; height:8.5cm;""><p>What type of rock is this?</p>","1","class_response","1","train","10","Basalt","Andesite","02","false","2","1","",""
"","","","","","","","","","","","html-button-response","124","2.0.0","330322","6052961c99d0779f4f953050","1","8","1417","","","","","","","","","<img src= rock_img/I_Andesite_02.jpg style=""width:8cm; height:8.5cm;""><p style='font-size: 30px; color: red;'><strong>Incorrect!</strong></p><p style='font-size: 30px;'><strong>This rock is andesite</strong></p>","0","corr_feedback","1","train","10","","","","","","","",""
"","","","","","","","","","","","html-button-response","125","2.0.0","334550","6052961c99d0779f4f953050","1","8","4226","","","","","","","","","<img src= ""rock_img/I_Gabbro_10.jpg"" style=""width:8cm; height:5.680000000000001cm;""><p>What type of rock is this?</p>","1","class_response","1","train","11","Basalt","Gabbro","10","false","2","4","",""
"","","","","","","","","","","","html-button-response","126","2.0.0","335658","6052961c99d0779f4f953050","1","8","1107","","","","","","","","","<img src= rock_img/I_Gabbro_10.jpg style=""width:8cm; height:5.680000000000001cm;""><p style='font-size: 30px; color: red;'><strong>Incorrect!</strong></p><p style='font-size: 30px;'><strong>This rock is gabbro</strong></p>","0","corr_feedback","1","train","11","","","","","","","",""
"","","","","","","","","","","","html-button-response","127","2.0.0","336983","6052961c99d0779f4f953050","1","8","1322","","","","","","","","","<img src= ""rock_img/I_Peridotite_15.jpg"" style=""width:8cm; height:6cm;""><p>What type of rock is this?</p>","6","class_response","1","train","12","Peridotite","Peridotite","15","true","7","7","",""
"","","","","","","","","","","","html-button-response","128","2.0.0","338039","6052961c99d0779f4f953050","1","8","1053","","","","","","","","","<img src= rock_img/I_Peridotite_15.jpg style=""width:8cm; height:6cm;""><p style='font-size: 30px; color: green;'><strong>Correct!</strong></p><p style='font-size: 30px;'><strong>This rock is peridotite</strong></p>","0","corr_feedback","1","train","12","","","","","","","",""
"","","","","","","","","","","","html-button-response","129","2.0.0","340972","6052961c99d0779f4f953050","1","8","2929","","","","","","","","","<img src= ""rock_img/I_Peridotite_08.jpg"" style=""width:8cm; height:6.7cm;""><p>What type of rock is this?</p>","6","class_response","1","train","13","Peridotite","Peridotite","08","true","7","7","",""
"","","","","","","","","","","","html-button-response","130","2.0.0","341834","6052961c99d0779f4f953050","1","8","860","","","","","","","","","<img src= rock_img/I_Peridotite_08.jpg style=""width:8cm; height:6.7cm;""><p style='font-size: 30px; color: green;'><strong>Correct!</strong></p><p style='font-size: 30px;'><strong>This rock is peridotite</strong></p>","0","corr_feedback","1","train","13","","","","","","","",""
"","","","","","","","","","","","html-button-response","131","2.0.0","343426","6052961c99d0779f4f953050","1","8","1588","","","","","","","","","<img src= ""rock_img/I_Pumice_16.jpg"" style=""width:8cm; height:6.79cm;""><p>What type of rock is this?</p>","1","class_response","1","train","14","Basalt","Pumice","16","false","2","8","",""
"","","","","","","","","","","","html-button-response","132","2.0.0","344642","6052961c99d0779f4f953050","1","8","1214","","","","","","","","","<img src= rock_img/I_Pumice_16.jpg style=""width:8cm; height:6.79cm;""><p style='font-size: 30px; color: red;'><strong>Incorrect!</strong></p><p style='font-size: 30px;'><strong>This rock is pumice</strong></p>","0","corr_feedback","1","train","14","","","","","","","",""
"","","","","","","","","","","","html-button-response","133","2.0.0","352117","6052961c99d0779f4f953050","1","8","7472","","","","","","","","","<img src= ""rock_img/I_Pegmatite_07.jpg"" style=""width:8cm; height:6.7cm;""><p>What type of rock is this?</p>","5","class_response","1","train","15","Pegmatite","Pegmatite","07","true","6","6","",""
"","","","","","","","","","","","html-button-response","134","2.0.0","353237","6052961c99d0779f4f953050","1","8","1117","","","","","","","","","<img src= rock_img/I_Pegmatite_07.jpg style=""width:8cm; height:6.7cm;""><p style='font-size: 30px; color: green;'><strong>Correct!</strong></p><p style='font-size: 30px;'><strong>This rock is pegmatite</strong></p>","0","corr_feedback","1","train","15","","","","","","","",""
"","","","","","","","","","","","html-button-response","135","2.0.0","356825","6052961c99d0779f4f953050","1","8","3586","","","","","","","","","<img src= ""rock_img/I_Peridotite_05.jpg"" style=""width:8cm; height:7.1499999999999995cm;""><p>What type of rock is this?</p>","3","class_response","1","train","16","Gabbro","Peridotite","05","false","4","7","",""
"","","","","","","","","","","","html-button-response","136","2.0.0","357881","6052961c99d0779f4f953050","1","8","1053","","","","","","","","","<img src= rock_img/I_Peridotite_05.jpg style=""width:8cm; height:7.1499999999999995cm;""><p style='font-size: 30px; color: red;'><strong>Incorrect!</strong></p><p style='font-size: 30px;'><strong>This rock is peridotite</strong></p>","0","corr_feedback","1","train","16","","","","","","","",""
"","","","","","","","","","","","html-button-response","137","2.0.0","359280","6052961c99d0779f4f953050","1","8","1396","","","","","","","","","<img src= ""rock_img/I_Obsidian_02.jpg"" style=""width:8cm; height:7.51cm;""><p>What type of rock is this?</p>","4","class_response","1","train","17","Obsidian","Obsidian","02","true","5","5","",""
"","","","","","","","","","","","html-button-response","138","2.0.0","360283","6052961c99d0779f4f953050","1","8","1002","","","","","","","","","<img src= rock_img/I_Obsidian_02.jpg style=""width:8cm; height:7.51cm;""><p style='font-size: 30px; color: green;'><strong>Correct!</strong></p><p style='font-size: 30px;'><strong>This rock is obsidian</strong></p>","0","corr_feedback","1","train","17","","","","","","","",""
"","","","","","","","","","","","html-button-response","139","2.0.0","363108","6052961c99d0779f4f953050","1","8","2822","","","","","","","","","<img src= ""rock_img/I_Gabbro_15.jpg"" style=""width:8cm; height:6.29cm;""><p>What type of rock is this?</p>","1","class_response","1","train","18","Basalt","Gabbro","15","false","2","4","",""
"","","","","","","","","","","","html-button-response","140","2.0.0","364108","6052961c99d0779f4f953050","1","8","997","","","","","","","","","<img src= rock_img/I_Gabbro_15.jpg style=""width:8cm; height:6.29cm;""><p style='font-size: 30px; color: red;'><strong>Incorrect!</strong></p><p style='font-size: 30px;'><strong>This rock is gabbro</strong></p>","0","corr_feedback","1","train","18","","","","","","","",""
"","","","","","","","","","","","html-button-response","141","2.0.0","367478","6052961c99d0779f4f953050","1","8","3366","","","","","","","","","<img src= ""rock_img/I_Diorite_12.jpg"" style=""width:8cm; height:4.88cm;""><p>What type of rock is this?</p>","1","class_response","1","train","19","Basalt","Diorite","12","false","2","3","",""
"","","","","","","","","","","","html-button-response","142","2.0.0","368554","6052961c99d0779f4f953050","1","8","1073","","","","","","","","","<img src= rock_img/I_Diorite_12.jpg style=""width:8cm; height:4.88cm;""><p style='font-size: 30px; color: red;'><strong>Incorrect!</strong></p><p style='font-size: 30px;'><strong>This rock is diorite</strong></p>","0","corr_feedback","1","train","19","","","","","","","",""
"","","","","","","","","","","","html-button-response","143","2.0.0","369809","6052961c99d0779f4f953050","1","8","1252","","","","","","","","","<img src= ""rock_img/I_Obsidian_08.jpg"" style=""width:8cm; height:7.39cm;""><p>What type of rock is this?</p>","4","class_response","1","train","20","Obsidian","Obsidian","08","true","5","5","",""
"","","","","","","","","","","","html-button-response","144","2.0.0","370750","6052961c99d0779f4f953050","1","8","938","","","","","","","","","<img src= rock_img/I_Obsidian_08.jpg style=""width:8cm; height:7.39cm;""><p style='font-size: 30px; color: green;'><strong>Correct!</strong></p><p style='font-size: 30px;'><strong>This rock is obsidian</strong></p>","0","corr_feedback","1","train","20","","","","","","","",""
"","","","","","","","","","","","html-button-response","145","2.0.0","371867","6052961c99d0779f4f953050","1","8","1115","","","","","","","","","<img src= ""rock_img/I_Basalt_16.jpg"" style=""width:8cm; height:7.659999999999999cm;""><p>What type of rock is this?</p>","0","class_response","1","train","21","Andesite","Basalt","16","false","1","2","",""
"","","","","","","","","","","","html-button-response","146","2.0.0","373588","6052961c99d0779f4f953050","1","8","1718","","","","","","","","","<img src= rock_img/I_Basalt_16.jpg style=""width:8cm; height:7.659999999999999cm;""><p style='font-size: 30px; color: red;'><strong>Incorrect!</strong></p><p style='font-size: 30px;'><strong>This rock is basalt</strong></p>","0","corr_feedback","1","train","21","","","","","","","",""
"","","","","","","","","","","","html-button-response","147","2.0.0","375609","6052961c99d0779f4f953050","1","8","2017","","","","","","","","","<img src= ""rock_img/I_Pumice_08.jpg"" style=""width:8cm; height:6.67cm;""><p>What type of rock is this?</p>","7","class_response","1","train","22","Pumice","Pumice","08","true","8","8","",""
"","","","","","","","","","","","html-button-response","148","2.0.0","376855","6052961c99d0779f4f953050","1","8","1244","","","","","","","","","<img src= rock_img/I_Pumice_08.jpg style=""width:8cm; height:6.67cm;""><p style='font-size: 30px; color: green;'><strong>Correct!</strong></p><p style='font-size: 30px;'><strong>This rock is pumice</strong></p>","0","corr_feedback","1","train","22","","","","","","","",""
"","","","","","","","","","","","html-button-response","149","2.0.0","378485","6052961c99d0779f4f953050","1","8","1627","","","","","","","","","<img src= ""rock_img/I_Basalt_10.jpg"" style=""width:8cm; height:5.85cm;""><p>What type of rock is this?</p>","4","class_response","1","train","23","Obsidian","Basalt","10","false","5","2","",""
"","","","","","","","","","","","html-button-response","150","2.0.0","380053","6052961c99d0779f4f953050","1","8","1565","","","","","","","","","<img src= rock_img/I_Basalt_10.jpg style=""width:8cm; height:5.85cm;""><p style='font-size: 30px; color: red;'><strong>Incorrect!</strong></p><p style='font-size: 30px;'><strong>This rock is basalt</strong></p>","0","corr_feedback","1","train","23","","","","","","","",""
"","","","","","","","","","","","html-button-response","151","2.0.0","382250","6052961c99d0779f4f953050","1","8","2193","","","","","","","","","<img src= ""rock_img/I_Pumice_02.jpg"" style=""width:8cm; height:7.3999999999999995cm;""><p>What type of rock is this?</p>","7","class_response","1","train","24","Pumice","Pumice","02","true","8","8","",""
"","","","","","","","","","","","html-button-response","152","2.0.0","383236","6052961c99d0779f4f953050","1","8","983","","","","","","","","","<img src= rock_img/I_Pumice_02.jpg style=""width:8cm; height:7.3999999999999995cm;""><p style='font-size: 30px; color: green;'><strong>Correct!</strong></p><p style='font-size: 30px;'><strong>This rock is pumice</strong></p>","0","corr_feedback","1","train","24","","","","","","","",""
"","","","","","","","","","","","html-button-response","153","2.0.0","385195","6052961c99d0779f4f953050","1","8","1956","","","","","","","","","<img src= ""rock_img/I_Pumice_13.jpg"" style=""width:8cm; height:8.200000000000001cm;""><p>What type of rock is this?</p>","7","class_response","1","train","25","Pumice","Pumice","13","true","8","8","",""
"","","","","","","","","","","","html-button-response","154","2.0.0","386090","6052961c99d0779f4f953050","1","8","892","","","","","","","","","<img src= rock_img/I_Pumice_13.jpg style=""width:8cm; height:8.200000000000001cm;""><p style='font-size: 30px; color: green;'><strong>Correct!</strong></p><p style='font-size: 30px;'><strong>This rock is pumice</strong></p>","0","corr_feedback","1","train","25","","","","","","","",""
"","","","","","","","","","","","html-button-response","155","2.0.0","392227","6052961c99d0779f4f953050","1","8","6134","","","","","","","","","<img src= ""rock_img/I_Pegmatite_15.jpg"" style=""width:8cm; height:6cm;""><p>What type of rock is this?</p>","5","class_response","1","train","26","Pegmatite","Pegmatite","15","true","6","6","",""
"","","","","","","","","","","","html-button-response","156","2.0.0","395477","6052961c99d0779f4f953050","1","8","3248","","","","","","","","","<img src= rock_img/I_Pegmatite_15.jpg style=""width:8cm; height:6cm;""><p style='font-size: 30px; color: green;'><strong>Correct!</strong></p><p style='font-size: 30px;'><strong>This rock is pegmatite</strong></p>","0","corr_feedback","1","train","26","","","","","","","",""
"","","","","","","","","","","","html-button-response","157","2.0.0","407044","6052961c99d0779f4f953050","1","8","11564","","","","","","","","","<img src= ""rock_img/I_Andesite_11.jpg"" style=""width:8cm; height:4.92cm;""><p>What type of rock is this?</p>","2","class_response","1","train","27","Diorite","Andesite","11","false","3","1","",""
"","","","","","","","","","","","html-button-response","158","2.0.0","408578","6052961c99d0779f4f953050","1","8","1533","","","","","","","","","<img src= rock_img/I_Andesite_11.jpg style=""width:8cm; height:4.92cm;""><p style='font-size: 30px; color: red;'><strong>Incorrect!</strong></p><p style='font-size: 30px;'><strong>This rock is andesite</strong></p>","0","corr_feedback","1","train","27","","","","","","","",""
"","","","","","","","","","","","html-button-response","159","2.0.0","412618","6052961c99d0779f4f953050","1","8","4038","","","","","","","","","<img src= ""rock_img/I_Gabbro_09.jpg"" style=""width:8cm; height:7.279999999999999cm;""><p>What type of rock is this?</p>","0","class_response","1","train","28","Andesite","Gabbro","09","false","1","4","",""
"","","","","","","","","","","","html-button-response","160","2.0.0","413596","6052961c99d0779f4f953050","1","8","974","","","","","","","","","<img src= rock_img/I_Gabbro_09.jpg style=""width:8cm; height:7.279999999999999cm;""><p style='font-size: 30px; color: red;'><strong>Incorrect!</strong></p><p style='font-size: 30px;'><strong>This rock is gabbro</strong></p>","0","corr_feedback","1","train","28","","","","","","","",""
"","","","","","","","","","","","html-button-response","161","2.0.0","416490","6052961c99d0779f4f953050","1","8","2890","","","","","","","","","<img src= ""rock_img/I_Gabbro_12.jpg"" style=""width:8cm; height:7.800000000000001cm;""><p>What type of rock is this?</p>","3","class_response","1","train","29","Gabbro","Gabbro","12","true","4","4","",""
"","","","","","","","","","","","html-button-response","162","2.0.0","417634","6052961c99d0779f4f953050","1","8","1141","","","","","","","","","<img src= rock_img/I_Gabbro_12.jpg style=""width:8cm; height:7.800000000000001cm;""><p style='font-size: 30px; color: green;'><strong>Correct!</strong></p><p style='font-size: 30px;'><strong>This rock is gabbro</strong></p>","0","corr_feedback","1","train","29","","","","","","","",""
"","","","","","","","","","","","html-button-response","163","2.0.0","419768","6052961c99d0779f4f953050","1","8","2132","","","","","","","","","<img src= ""rock_img/I_Pumice_05.jpg"" style=""width:8cm; height:7.25cm;""><p>What type of rock is this?</p>","7","class_response","1","train","30","Pumice","Pumice","05","true","8","8","",""
"","","","","","","","","","","","html-button-response","164","2.0.0","420808","6052961c99d0779f4f953050","1","8","1037","","","","","","","","","<img src= rock_img/I_Pumice_05.jpg style=""width:8cm; height:7.25cm;""><p style='font-size: 30px; color: green;'><strong>Correct!</strong></p><p style='font-size: 30px;'><strong>This rock is pumice</strong></p>","0","corr_feedback","1","train","30","","","","","","","",""
"","","","","","","","","","","","html-button-response","165","2.0.0","422038","6052961c99d0779f4f953050","1","8","1228","","","","","","","","","<img src= ""rock_img/I_Obsidian_16.jpg"" style=""width:8cm; height:9.3cm;""><p>What type of rock is this?</p>","4","class_response","1","train","31","Obsidian","Obsidian","16","true","5","5","",""
"","","","","","","","","","","","html-button-response","166","2.0.0","423027","6052961c99d0779f4f953050","1","8","987","","","","","","","","","<img src= rock_img/I_Obsidian_16.jpg style=""width:8cm; height:9.3cm;""><p style='font-size: 30px; color: green;'><strong>Correct!</strong></p><p style='font-size: 30px;'><strong>This rock is obsidian</strong></p>","0","corr_feedback","1","train","31","","","","","","","",""
"","","","","","","","","","","","html-button-response","167","2.0.0","424542","6052961c99d0779f4f953050","1","8","1512","","","","","","","","","<img src= ""rock_img/I_Pumice_10.jpg"" style=""width:8cm; height:7.609999999999999cm;""><p>What type of rock is this?</p>","7","class_response","1","train","32","Pumice","Pumice","10","true","8","8","",""
"","","","","","","","","","","","html-button-response","168","2.0.0","425376","6052961c99d0779f4f953050","1","8","832","","","","","","","","","<img src= rock_img/I_Pumice_10.jpg style=""width:8cm; height:7.609999999999999cm;""><p style='font-size: 30px; color: green;'><strong>Correct!</strong></p><p style='font-size: 30px;'><strong>This rock is pumice</strong></p>","0","corr_feedback","1","train","32","","","","","","","",""
"","","","","","","","","","","","html-button-response","169","2.0.0","428744","6052961c99d0779f4f953050","1","8","3365","","","","","","","","","<img src= ""rock_img/I_Basalt_06.jpg"" style=""width:8cm; height:7.06cm;""><p>What type of rock is this?</p>","0","class_response","1","train","33","Andesite","Basalt","06","false","1","2","",""
"","","","","","","","","","","","html-button-response","170","2.0.0","429819","6052961c99d0779f4f953050","1","8","1072","","","","","","","","","<img src= rock_img/I_Basalt_06.jpg style=""width:8cm; height:7.06cm;""><p style='font-size: 30px; color: red;'><strong>Incorrect!</strong></p><p style='font-size: 30px;'><strong>This rock is basalt</strong></p>","0","corr_feedback","1","train","33","","","","","","","",""
"","","","","","","","","","","","html-button-response","171","2.0.0","433382","6052961c99d0779f4f953050","1","8","3561","","","","","","","","","<img src= ""rock_img/I_Andesite_14.jpg"" style=""width:8cm; height:5.449999999999999cm;""><p>What type of rock is this?</p>","3","class_response","1","train","34","Gabbro","Andesite","14","false","4","1","",""
"","","","","","","","","","","","html-button-response","172","2.0.0","434358","6052961c99d0779f4f953050","1","8","974","","","","","","","","","<img src= rock_img/I_Andesite_14.jpg style=""width:8cm; height:5.449999999999999cm;""><p style='font-size: 30px; color: red;'><strong>Incorrect!</strong></p><p style='font-size: 30px;'><strong>This rock is andesite</strong></p>","0","corr_feedback","1","train","34","","","","","","","",""
"","","","","","","","","","","","html-button-response","173","2.0.0","436201","6052961c99d0779f4f953050","1","8","1840","","","","","","","","","<img src= ""rock_img/I_Andesite_06.jpg"" style=""width:8cm; height:6.840000000000001cm;""><p>What type of rock is this?</p>","0","class_response","1","train","35","Andesite","Andesite","06","true","1","1","",""
"","","","","","","","","","","","html-button-response","174","2.0.0","437205","6052961c99d0779f4f953050","1","8","1002","","","","","","","","","<img src= rock_img/I_Andesite_06.jpg style=""width:8cm; height:6.840000000000001cm;""><p style='font-size: 30px; color: green;'><strong>Correct!</strong></p><p style='font-size: 30px;'><strong>This rock is andesite</strong></p>","0","corr_feedback","1","train","35","","","","","","","",""
"","","","","","","","","","","","html-button-response","175","2.0.0","438674","6052961c99d0779f4f953050","1","8","1466","","","","","","","","","<img src= ""rock_img/I_Gabbro_11.jpg"" style=""width:8cm; height:6.2cm;""><p>What type of rock is this?</p>","0","class_response","1","train","36","Andesite","Gabbro","11","false","1","4","",""
"","","","","","","","","","","","html-button-response","176","2.0.0","439655","6052961c99d0779f4f953050","1","8","979","","","","","","","","","<img src= rock_img/I_Gabbro_11.jpg style=""width:8cm; height:6.2cm;""><p style='font-size: 30px; color: red;'><strong>Incorrect!</strong></p><p style='font-size: 30px;'><strong>This rock is gabbro</strong></p>","0","corr_feedback","1","train","36","","","","","","","",""
"","","","","","","","","","","","html-button-response","177","2.0.0","441599","6052961c99d0779f4f953050","1","8","1940","","","","","","","","","<img src= ""rock_img/I_Pegmatite_03.jpg"" style=""width:8cm; height:5.239999999999999cm;""><p>What type of rock is this?</p>","5","class_response","1","train","37","Pegmatite","Pegmatite","03","true","6","6","",""
"","","","","","","","","","","","html-button-response","178","2.0.0","442392","6052961c99d0779f4f953050","1","8","791","","","","","","","","","<img src= rock_img/I_Pegmatite_03.jpg style=""width:8cm; height:5.239999999999999cm;""><p style='font-size: 30px; color: green;'><strong>Correct!</strong></p><p style='font-size: 30px;'><strong>This rock is pegmatite</strong></p>","0","corr_feedback","1","train","37","","","","","","","",""
"","","","","","","","","","","","html-button-response","179","2.0.0","444244","6052961c99d0779f4f953050","1","8","1848","","","","","","","","","<img src= ""rock_img/I_Peridotite_06.jpg"" style=""width:8cm; height:7.53cm;""><p>What type of rock is this?</p>","6","class_response","1","train","38","Peridotite","Peridotite","06","true","7","7","",""
"","","","","","","","","","","","html-button-response","180","2.0.0","445024","6052961c99d0779f4f953050","1","8","778","","","","","","","","","<img src= rock_img/I_Peridotite_06.jpg style=""width:8cm; height:7.53cm;""><p style='font-size: 30px; color: green;'><strong>Correct!</strong></p><p style='font-size: 30px;'><strong>This rock is peridotite</strong></p>","0","corr_feedback","1","train","38","","","","","","","",""
"","","","","","","","","","","","html-button-response","181","2.0.0","446311","6052961c99d0779f4f953050","1","8","1285","","","","","","","","","<img src= ""rock_img/I_Obsidian_10.jpg"" style=""width:8cm; height:6.260000000000001cm;""><p>What type of rock is this?</p>","4","class_response","1","train","39","Obsidian","Obsidian","10","true","5","5","",""
"","","","","","","","","","","","html-button-response","182","2.0.0","447152","6052961c99d0779f4f953050","1","8","838","","","","","","","","","<img src= rock_img/I_Obsidian_10.jpg style=""width:8cm; height:6.260000000000001cm;""><p style='font-size: 30px; color: green;'><strong>Correct!</strong></p><p style='font-size: 30px;'><strong>This rock is obsidian</strong></p>","0","corr_feedback","1","train","39","","","","","","","",""
"","","","","","","","","","","","html-button-response","183","2.0.0","452687","6052961c99d0779f4f953050","1","8","5532","","","","","","","","","<img src= ""rock_img/I_Diorite_08.jpg"" style=""width:8cm; height:6.37cm;""><p>What type of rock is this?</p>","5","class_response","1","train","40","Pegmatite","Diorite","08","false","6","3","",""
"","","","","","","","","","","","html-button-response","184","2.0.0","453979","6052961c99d0779f4f953050","1","8","1289","","","","","","","","","<img src= rock_img/I_Diorite_08.jpg style=""width:8cm; height:6.37cm;""><p style='font-size: 30px; color: red;'><strong>Incorrect!</strong></p><p style='font-size: 30px;'><strong>This rock is diorite</strong></p>","0","corr_feedback","1","train","40","","","","","","","",""
"","","","","","","","","","","","html-button-response","185","2.0.0","456035","6052961c99d0779f4f953050","1","8","2053","","","","","","","","","<img src= ""rock_img/I_Basalt_08.jpg"" style=""width:8cm; height:10.44cm;""><p>What type of rock is this?</p>","0","class_response","1","train","41","Andesite","Basalt","08","false","1","2","",""
"","","","","","","","","","","","html-button-response","186","2.0.0","457214","6052961c99d0779f4f953050","1","8","1176","","","","","","","","","<img src= rock_img/I_Basalt_08.jpg style=""width:8cm; height:10.44cm;""><p style='font-size: 30px; color: red;'><strong>Incorrect!</strong></p><p style='font-size: 30px;'><strong>This rock is basalt</strong></p>","0","corr_feedback","1","train","41","","","","","","","",""
"","","","","","","","","","","","html-button-response","187","2.0.0","462355","6052961c99d0779f4f953050","1","8","5138","","","","","","","","","<img src= ""rock_img/I_Basalt_12.jpg"" style=""width:8cm; height:6.010000000000001cm;""><p>What type of rock is this?</p>","3","class_response","1","train","42","Gabbro","Basalt","12","false","4","2","",""
"","","","","","","","","","","","html-button-response","188","2.0.0","463427","6052961c99d0779f4f953050","1","8","1070","","","","","","","","","<img src= rock_img/I_Basalt_12.jpg style=""width:8cm; height:6.010000000000001cm;""><p style='font-size: 30px; color: red;'><strong>Incorrect!</strong></p><p style='font-size: 30px;'><strong>This rock is basalt</strong></p>","0","corr_feedback","1","train","42","","","","","","","",""
"","","","","","","","","","","","html-button-response","189","2.0.0","464866","6052961c99d0779f4f953050","1","8","1436","","","","","","","","","<img src= ""rock_img/I_Obsidian_04.jpg"" style=""width:8cm; height:6.930000000000001cm;""><p>What type of rock is this?</p>","4","class_response","1","train","43","Obsidian","Obsidian","04","true","5","5","",""
"","","","","","","","","","","","html-button-response","190","2.0.0","465723","6052961c99d0779f4f953050","1","8","854","","","","","","","","","<img src= rock_img/I_Obsidian_04.jpg style=""width:8cm; height:6.930000000000001cm;""><p style='font-size: 30px; color: green;'><strong>Correct!</strong></p><p style='font-size: 30px;'><strong>This rock is obsidian</strong></p>","0","corr_feedback","1","train","43","","","","","","","",""
"","","","","","","","","","","","html-button-response","191","2.0.0","467123","6052961c99d0779f4f953050","1","8","1397","","","","","","","","","<img src= ""rock_img/I_Basalt_09.jpg"" style=""width:8cm; height:6.2cm;""><p>What type of rock is this?</p>","1","class_response","1","train","44","Basalt","Basalt","09","true","2","2","",""
"","","","","","","","","","","","html-button-response","192","2.0.0","467988","6052961c99d0779f4f953050","1","8","862","","","","","","","","","<img src= rock_img/I_Basalt_09.jpg style=""width:8cm; height:6.2cm;""><p style='font-size: 30px; color: green;'><strong>Correct!</strong></p><p style='font-size: 30px;'><strong>This rock is basalt</strong></p>","0","corr_feedback","1","train","44","","","","","","","",""
"","","","","","","","","","","","html-button-response","193","2.0.0","469213","6052961c99d0779f4f953050","1","8","1221","","","","","","","","","<img src= ""rock_img/I_Obsidian_12.jpg"" style=""width:8cm; height:6.53cm;""><p>What type of rock is this?</p>","4","class_response","1","train","45","Obsidian","Obsidian","12","true","5","5","",""
"","","","","","","","","","","","html-button-response","194","2.0.0","470077","6052961c99d0779f4f953050","1","8","861","","","","","","","","","<img src= rock_img/I_Obsidian_12.jpg style=""width:8cm; height:6.53cm;""><p style='font-size: 30px; color: green;'><strong>Correct!</strong></p><p style='font-size: 30px;'><strong>This rock is obsidian</strong></p>","0","corr_feedback","1","train","45","","","","","","","",""
"","","","","","","","","","","","html-button-response","195","2.0.0","474258","6052961c99d0779f4f953050","1","8","4179","","","","","","","","","<img src= ""rock_img/I_Diorite_15.jpg"" style=""width:8cm; height:5.54cm;""><p>What type of rock is this?</p>","5","class_response","1","train","46","Pegmatite","Diorite","15","false","6","3","",""
"","","","","","","","","","","","html-button-response","196","2.0.0","475082","6052961c99d0779f4f953050","1","8","821","","","","","","","","","<img src= rock_img/I_Diorite_15.jpg style=""width:8cm; height:5.54cm;""><p style='font-size: 30px; color: red;'><strong>Incorrect!</strong></p><p style='font-size: 30px;'><strong>This rock is diorite</strong></p>","0","corr_feedback","1","train","46","","","","","","","",""
"","","","","","","","","","","","html-button-response","197","2.0.0","477070","6052961c99d0779f4f953050","1","8","1985","","","","","","","","","<img src= ""rock_img/I_Diorite_07.jpg"" style=""width:8cm; height:5.239999999999999cm;""><p>What type of rock is this?</p>","2","class_response","1","train","47","Diorite","Diorite","07","true","3","3","",""
"","","","","","","","","","","","html-button-response","198","2.0.0","477971","6052961c99d0779f4f953050","1","8","898","","","","","","","","","<img src= rock_img/I_Diorite_07.jpg style=""width:8cm; height:5.239999999999999cm;""><p style='font-size: 30px; color: green;'><strong>Correct!</strong></p><p style='font-size: 30px;'><strong>This rock is diorite</strong></p>","0","corr_feedback","1","train","47","","","","","","","",""
"","","","","","","","","","","","html-button-response","199","2.0.0","480611","6052961c99d0779f4f953050","1","8","2637","","","","","","","","","<img src= ""rock_img/I_Andesite_09.jpg"" style=""width:8cm; height:6cm;""><p>What type of rock is this?</p>","3","class_response","1","train","48","Gabbro","Andesite","09","false","4","1","",""
"","","","","","","","","","","","html-button-response","200","2.0.0","481521","6052961c99d0779f4f953050","1","8","907","","","","","","","","","<img src= rock_img/I_Andesite_09.jpg style=""width:8cm; height:6cm;""><p style='font-size: 30px; color: red;'><strong>Incorrect!</strong></p><p style='font-size: 30px;'><strong>This rock is andesite</strong></p>","0","corr_feedback","1","train","48","","","","","","","",""
"","","","","","","","","","","","instructions","203","2.0.0","495210","6052961c99d0779f4f953050","1","8","13685","","","","","","","","[{""page_index"":0,""viewing_time"":3715},{""page_index"":1,""viewing_time"":9970}]","","","","","","","","","","","","","",""
"","","","","","","","","","","","html-button-response","204","2.0.0","497651","6052961c99d0779f4f953050","1","8","2439","","","","","","","","","","0","start_test","","","","","","","","","","",""
"","","","","","","","","","","","html-button-response","205","2.0.0","503458","6052961c99d0779f4f953050","1","8","5804","","","","","","","","","<img src= ""rock_img/I_Pegmatite_05.jpg"" style=""width:8cm; height:7.300000000000001cm;""><p>What type of rock is this?</p>","5","class_response","1","test","1","Pegmatite","Pegmatite","05","true","6","6","",""
"","","","","","","","","","","","html-keyboard-response","206","2.0.0","503967","6052961c99d0779f4f953050","1","8","null","","","","","","","","","<p style='font-size: 30px;'><strong>Okay</strong></p>","null","neutral_feedback","1","test","1","","","","","","","",""
"","","","","","","","","","","","html-button-response","207","2.0.0","506970","6052961c99d0779f4f953050","1","8","3000","","","","","","","","","<img src= ""rock_img/I_Pegmatite_11.jpg"" style=""width:8cm; height:8.14cm;""><p>What type of rock is this?</p>","5","class_response","1","test","2","Pegmatite","Pegmatite","11","true","6","6","",""
"","","","","","","","","","","","html-keyboard-response","208","2.0.0","507485","6052961c99d0779f4f953050","1","8","null","","","","","","","","","<p style='font-size: 30px;'><strong>Okay</strong></p>","null","neutral_feedback","1","test","2","","","","","","","",""
"","","","","","","","","","","","html-button-response","209","2.0.0","509869","6052961c99d0779f4f953050","1","8","2382","","","","","","","","","<img src= ""rock_img/I_Pumice_14.jpg"" style=""width:8cm; height:6.39cm;""><p>What type of rock is this?</p>","7","class_response","1","test","3","Pumice","Pumice","14","true","8","8","",""
"","","","","","","","","","","","html-keyboard-response","210","2.0.0","510376","6052961c99d0779f4f953050","1","8","null","","","","","","","","","<p style='font-size: 30px;'><strong>Okay</strong></p>","null","neutral_feedback","1","test","3","","","","","","","",""
"","","","","","","","","","","","html-button-response","211","2.0.0","512234","6052961c99d0779f4f953050","1","8","1856","","","","","","","","","<img src= ""rock_img/I_Pumice_09.jpg"" style=""width:8cm; height:6.44cm;""><p>What type of rock is this?</p>","7","class_response","1","test","4","Pumice","Pumice","09","true","8","8","",""
"","","","","","","","","","","","html-keyboard-response","212","2.0.0","512748","6052961c99d0779f4f953050","1","8","null","","","","","","","","","<p style='font-size: 30px;'><strong>Okay</strong></p>","null","neutral_feedback","1","test","4","","","","","","","",""
"","","","","","","","","","","","html-button-response","213","2.0.0","514608","6052961c99d0779f4f953050","1","8","1857","","","","","","","","","<img src= ""rock_img/I_Peridotite_14.jpg"" style=""width:8cm; height:5.3cm;""><p>What type of rock is this?</p>","6","class_response","1","test","5","Peridotite","Peridotite","14","true","7","7","",""
"","","","","","","","","","","","html-keyboard-response","214","2.0.0","515112","6052961c99d0779f4f953050","1","8","null","","","","","","","","","<p style='font-size: 30px;'><strong>Okay</strong></p>","null","neutral_feedback","1","test","5","","","","","","","",""
"","","","","","","","","","","","html-button-response","215","2.0.0","519901","6052961c99d0779f4f953050","1","8","4785","","","","","","","","","<img src= ""rock_img/I_Basalt_02.jpg"" style=""width:8cm; height:6.45cm;""><p>What type of rock is this?</p>","0","class_response","1","test","6","Andesite","Basalt","02","false","1","2","",""
"","","","","","","","","","","","html-keyboard-response","216","2.0.0","520403","6052961c99d0779f4f953050","1","8","null","","","","","","","","","<p style='font-size: 30px;'><strong>Okay</strong></p>","null","neutral_feedback","1","test","6","","","","","","","",""
"","","","","","","","","","","","html-button-response","217","2.0.0","521691","6052961c99d0779f4f953050","1","8","1285","","","","","","","","","<img src= ""rock_img/I_Obsidian_09.jpg"" style=""width:8cm; height:5cm;""><p>What type of rock is this?</p>","4","class_response","1","test","7","Obsidian","Obsidian","09","true","5","5","",""
"","","","","","","","","","","","html-keyboard-response","218","2.0.0","522206","6052961c99d0779f4f953050","1","8","null","","","","","","","","","<p style='font-size: 30px;'><strong>Okay</strong></p>","null","neutral_feedback","1","test","7","","","","","","","",""
"","","","","","","","","","","","html-button-response","219","2.0.0","526353","6052961c99d0779f4f953050","1","8","4144","","","","","","","","","<img src= ""rock_img/I_Peridotite_12.jpg"" style=""width:8cm; height:4.54cm;""><p>What type of rock is this?</p>","6","class_response","1","test","8","Peridotite","Peridotite","12","true","7","7","",""
"","","","","","","","","","","","html-keyboard-response","220","2.0.0","526861","6052961c99d0779f4f953050","1","8","null","","","","","","","","","<p style='font-size: 30px;'><strong>Okay</strong></p>","null","neutral_feedback","1","test","8","","","","","","","",""
"","","","","","","","","","","","html-button-response","221","2.0.0","529552","6052961c99d0779f4f953050","1","8","2688","","","","","","","","","<img src= ""rock_img/I_Diorite_11.jpg"" style=""width:8cm; height:7.11cm;""><p>What type of rock is this?</p>","2","class_response","1","test","9","Diorite","Diorite","11","true","3","3","",""
"","","","","","","","","","","","html-keyboard-response","222","2.0.0","530055","6052961c99d0779f4f953050","1","8","null","","","","","","","","","<p style='font-size: 30px;'><strong>Okay</strong></p>","null","neutral_feedback","1","test","9","","","","","","","",""
"","","","","","","","","","","","html-button-response","223","2.0.0","531340","6052961c99d0779f4f953050","1","8","1282","","","","","","","","","<img src= ""rock_img/I_Obsidian_11.jpg"" style=""width:8cm; height:6.05cm;""><p>What type of rock is this?</p>","4","class_response","1","test","10","Obsidian","Obsidian","11","true","5","5","",""
"","","","","","","","","","","","html-keyboard-response","224","2.0.0","531846","6052961c99d0779f4f953050","1","8","null","","","","","","","","","<p style='font-size: 30px;'><strong>Okay</strong></p>","null","neutral_feedback","1","test","10","","","","","","","",""
"","","","","","","","","","","","html-button-response","225","2.0.0","538310","6052961c99d0779f4f953050","1","8","6461","","","","","","","","","<img src= ""rock_img/I_Pegmatite_06.jpg"" style=""width:8cm; height:5.17cm;""><p>What type of rock is this?</p>","5","class_response","1","test","11","Pegmatite","Pegmatite","06","true","6","6","",""
"","","","","","","","","","","","html-keyboard-response","226","2.0.0","538824","6052961c99d0779f4f953050","1","8","null","","","","","","","","","<p style='font-size: 30px;'><strong>Okay</strong></p>","null","neutral_feedback","1","test","11","","","","","","","",""
"","","","","","","","","","","","html-button-response","227","2.0.0","540060","6052961c99d0779f4f953050","1","8","1233","","","","","","","","","<img src= ""rock_img/I_Obsidian_14.jpg"" style=""width:8cm; height:7.64cm;""><p>What type of rock is this?</p>","4","class_response","1","test","12","Obsidian","Obsidian","14","true","5","5","",""
"","","","","","","","","","","","html-keyboard-response","228","2.0.0","540567","6052961c99d0779f4f953050","1","8","null","","","","","","","","","<p style='font-size: 30px;'><strong>Okay</strong></p>","null","neutral_feedback","1","test","12","","","","","","","",""
"","","","","","","","","","","","html-button-response","229","2.0.0","542088","6052961c99d0779f4f953050","1","8","1519","","","","","","","","","<img src= ""rock_img/I_Basalt_14.jpg"" style=""width:8cm; height:5.82cm;""><p>What type of rock is this?</p>","1","class_response","1","test","13","Basalt","Basalt","14","true","2","2","",""
"","","","","","","","","","","","html-keyboard-response","230","2.0.0","542604","6052961c99d0779f4f953050","1","8","null","","","","","","","","","<p style='font-size: 30px;'><strong>Okay</strong></p>","null","neutral_feedback","1","test","13","","","","","","","",""
"","","","","","","","","","","","html-button-response","231","2.0.0","544301","6052961c99d0779f4f953050","1","8","1694","","","","","","","","","<img src= ""rock_img/I_Gabbro_13.jpg"" style=""width:8cm; height:5.08cm;""><p>What type of rock is this?</p>","1","class_response","1","test","14","Basalt","Gabbro","13","false","2","4","",""
"","","","","","","","","","","","html-keyboard-response","232","2.0.0","544812","6052961c99d0779f4f953050","1","8","null","","","","","","","","","<p style='font-size: 30px;'><strong>Okay</strong></p>","null","neutral_feedback","1","test","14","","","","","","","",""
"","","","","","","","","","","","html-button-response","233","2.0.0","546366","6052961c99d0779f4f953050","1","8","1551","","","","","","","","","<img src= ""rock_img/I_Gabbro_16.jpg"" style=""width:8cm; height:6.44cm;""><p>What type of rock is this?</p>","1","class_response","1","test","15","Basalt","Gabbro","16","false","2","4","",""
"","","","","","","","","","","","html-keyboard-response","234","2.0.0","546883","6052961c99d0779f4f953050","1","8","null","","","","","","","","","<p style='font-size: 30px;'><strong>Okay</strong></p>","null","neutral_feedback","1","test","15","","","","","","","",""
"","","","","","","","","","","","html-button-response","235","2.0.0","551042","6052961c99d0779f4f953050","1","8","4156","","","","","","","","","<img src= ""rock_img/I_Diorite_06.jpg"" style=""width:8cm; height:6.03cm;""><p>What type of rock is this?</p>","2","class_response","1","test","16","Diorite","Diorite","06","true","3","3","",""
"","","","","","","","","","","","html-keyboard-response","236","2.0.0","551559","6052961c99d0779f4f953050","1","8","null","","","","","","","","","<p style='font-size: 30px;'><strong>Okay</strong></p>","null","neutral_feedback","1","test","16","","","","","","","",""
"","","","","","","","","","","","html-button-response","237","2.0.0","556752","6052961c99d0779f4f953050","1","8","5191","","","","","","","","","<img src= ""rock_img/I_Pegmatite_13.jpg"" style=""width:8cm; height:4.95cm;""><p>What type of rock is this?</p>","5","class_response","1","test","17","Pegmatite","Pegmatite","13","true","6","6","",""
"","","","","","","","","","","","html-keyboard-response","238","2.0.0","557266","6052961c99d0779f4f953050","1","8","null","","","","","","","","","<p style='font-size: 30px;'><strong>Okay</strong></p>","null","neutral_feedback","1","test","17","","","","","","","",""
"","","","","","","","","","","","html-button-response","239","2.0.0","558471","6052961c99d0779f4f953050","1","8","1202","","","","","","","","","<img src= ""rock_img/I_Peridotite_13.jpg"" style=""width:8cm; height:7.58cm;""><p>What type of rock is this?</p>","6","class_response","1","test","18","Peridotite","Peridotite","13","true","7","7","",""
"","","","","","","","","","","","html-keyboard-response","240","2.0.0","558978","6052961c99d0779f4f953050","1","8","null","","","","","","","","","<p style='font-size: 30px;'><strong>Okay</strong></p>","null","neutral_feedback","1","test","18","","","","","","","",""
"","","","","","","","","","","","html-button-response","241","2.0.0","562536","6052961c99d0779f4f953050","1","8","3555","","","","","","","","","<img src= ""rock_img/I_Diorite_13.jpg"" style=""width:8cm; height:6.29cm;""><p>What type of rock is this?</p>","2","class_response","1","test","19","Diorite","Diorite","13","true","3","3","",""
"","","","","","","","","","","","html-keyboard-response","242","2.0.0","563045","6052961c99d0779f4f953050","1","8","null","","","","","","","","","<p style='font-size: 30px;'><strong>Okay</strong></p>","null","neutral_feedback","1","test","19","","","","","","","",""
"","","","","","","","","","","","html-button-response","243","2.0.0","569909","6052961c99d0779f4f953050","1","8","6862","","","","","","","","","<img src= ""rock_img/I_Peridotite_04.jpg"" style=""width:8cm; height:6.680000000000001cm;""><p>What type of rock is this?</p>","2","class_response","1","test","20","Diorite","Peridotite","04","false","3","7","",""
"","","","","","","","","","","","html-keyboard-response","244","2.0.0","570414","6052961c99d0779f4f953050","1","8","null","","","","","","","","","<p style='font-size: 30px;'><strong>Okay</strong></p>","null","neutral_feedback","1","test","20","","","","","","","",""
"","","","","","","","","","","","html-button-response","245","2.0.0","573240","6052961c99d0779f4f953050","1","8","2822","","","","","","","","","<img src= ""rock_img/I_Andesite_10.jpg"" style=""width:8cm; height:4.16cm;""><p>What type of rock is this?</p>","3","class_response","1","test","21","Gabbro","Andesite","10","false","4","1","",""
"","","","","","","","","","","","html-keyboard-response","246","2.0.0","573756","6052961c99d0779f4f953050","1","8","null","","","","","","","","","<p style='font-size: 30px;'><strong>Okay</strong></p>","null","neutral_feedback","1","test","21","","","","","","","",""
"","","","","","","","","","","","html-button-response","247","2.0.0","577306","6052961c99d0779f4f953050","1","8","3548","","","","","","","","","<img src= ""rock_img/I_Pumice_03.jpg"" style=""width:8cm; height:6.64cm;""><p>What type of rock is this?</p>","7","class_response","1","test","22","Pumice","Pumice","03","true","8","8","",""
"","","","","","","","","","","","html-keyboard-response","248","2.0.0","577820","6052961c99d0779f4f953050","1","8","null","","","","","","","","","<p style='font-size: 30px;'><strong>Okay</strong></p>","null","neutral_feedback","1","test","22","","","","","","","",""
"","","","","","","","","","","","html-button-response","249","2.0.0","583034","6052961c99d0779f4f953050","1","8","5211","","","","","","","","","<img src= ""rock_img/I_Diorite_14.jpg"" style=""width:8cm; height:5.71cm;""><p>What type of rock is this?</p>","5","class_response","1","test","23","Pegmatite","Diorite","14","false","6","3","",""
"","","","","","","","","","","","html-keyboard-response","250","2.0.0","583541","6052961c99d0779f4f953050","1","8","null","","","","","","","","","<p style='font-size: 30px;'><strong>Okay</strong></p>","null","neutral_feedback","1","test","23","","","","","","","",""
"","","","","","","","","","","","html-button-response","251","2.0.0","587149","6052961c99d0779f4f953050","1","8","3605","","","","","","","","","<img src= ""rock_img/I_Andesite_07.jpg"" style=""width:8cm; height:5.93cm;""><p>What type of rock is this?</p>","2","class_response","1","test","24","Diorite","Andesite","07","false","3","1","",""
"","","","","","","","","","","","html-keyboard-response","252","2.0.0","587651","6052961c99d0779f4f953050","1","8","null","","","","","","","","","<p style='font-size: 30px;'><strong>Okay</strong></p>","null","neutral_feedback","1","test","24","","","","","","","",""
"","","","","","","","","","","","html-button-response","253","2.0.0","594218","6052961c99d0779f4f953050","1","8","6564","","","","","","","","","<img src= ""rock_img/I_Gabbro_14.jpg"" style=""width:8cm; height:8.48cm;""><p>What type of rock is this?</p>","3","class_response","1","test","25","Gabbro","Gabbro","14","true","4","4","",""
"","","","","","","","","","","","html-keyboard-response","254","2.0.0","594720","6052961c99d0779f4f953050","1","8","null","","","","","","","","","<p style='font-size: 30px;'><strong>Okay</strong></p>","null","neutral_feedback","1","test","25","","","","","","","",""
"","","","","","","","","","","","html-button-response","255","2.0.0","597945","6052961c99d0779f4f953050","1","8","3223","","","","","","","","","<img src= ""rock_img/I_Basalt_05.jpg"" style=""width:8cm; height:8.18cm;""><p>What type of rock is this?</p>","0","class_response","1","test","26","Andesite","Basalt","05","false","1","2","",""
"","","","","","","","","","","","html-keyboard-response","256","2.0.0","598461","6052961c99d0779f4f953050","1","8","null","","","","","","","","","<p style='font-size: 30px;'><strong>Okay</strong></p>","null","neutral_feedback","1","test","26","","","","","","","",""
"","","","","","","","","","","","html-button-response","257","2.0.0","599674","6052961c99d0779f4f953050","1","8","1210","","","","","","","","","<img src= ""rock_img/I_Andesite_04.jpg"" style=""width:8cm; height:5.96cm;""><p>What type of rock is this?</p>","3","class_response","1","test","27","Gabbro","Andesite","04","false","4","1","",""
"","","","","","","","","","","","html-keyboard-response","258","2.0.0","600177","6052961c99d0779f4f953050","1","8","null","","","","","","","","","<p style='font-size: 30px;'><strong>Okay</strong></p>","null","neutral_feedback","1","test","27","","","","","","","",""
"","","","","","","","","","","","html-button-response","259","2.0.0","601306","6052961c99d0779f4f953050","1","8","1126","","","","","","","","","<img src= ""rock_img/I_Andesite_16.jpg"" style=""width:8cm; height:6.010000000000001cm;""><p>What type of rock is this?</p>","3","class_response","1","test","28","Gabbro","Andesite","16","false","4","1","",""
"","","","","","","","","","","","html-keyboard-response","260","2.0.0","601813","6052961c99d0779f4f953050","1","8","null","","","","","","","","","<p style='font-size: 30px;'><strong>Okay</strong></p>","null","neutral_feedback","1","test","28","","","","","","","",""
"","","","","","","","","","","","html-button-response","261","2.0.0","603739","6052961c99d0779f4f953050","1","8","1923","","","","","","","","","<img src= ""rock_img/I_Pegmatite_16.jpg"" style=""width:8cm; height:5.8cm;""><p>What type of rock is this?</p>","5","class_response","1","test","29","Pegmatite","Pegmatite","16","true","6","6","",""
"","","","","","","","","","","","html-keyboard-response","262","2.0.0","604241","6052961c99d0779f4f953050","1","8","null","","","","","","","","","<p style='font-size: 30px;'><strong>Okay</strong></p>","null","neutral_feedback","1","test","29","","","","","","","",""
"","","","","","","","","","","","html-button-response","263","2.0.0","605735","6052961c99d0779f4f953050","1","8","1492","","","","","","","","","<img src= ""rock_img/I_Pumice_04.jpg"" style=""width:8cm; height:6.819999999999999cm;""><p>What type of rock is this?</p>","7","class_response","1","test","30","Pumice","Pumice","04","true","8","8","",""
"","","","","","","","","","","","html-keyboard-response","264","2.0.0","606252","6052961c99d0779f4f953050","1","8","null","","","","","","","","","<p style='font-size: 30px;'><strong>Okay</strong></p>","null","neutral_feedback","1","test","30","","","","","","","",""
"","","","","","","","","","","","html-button-response","265","2.0.0","608583","6052961c99d0779f4f953050","1","8","2329","","","","","","","","","<img src= ""rock_img/I_Andesite_05.jpg"" style=""width:8cm; height:4.12cm;""><p>What type of rock is this?</p>","3","class_response","1","test","31","Gabbro","Andesite","05","false","4","1","",""
"","","","","","","","","","","","html-keyboard-response","266","2.0.0","609098","6052961c99d0779f4f953050","1","8","null","","","","","","","","","<p style='font-size: 30px;'><strong>Okay</strong></p>","null","neutral_feedback","1","test","31","","","","","","","",""
"","","","","","","","","","","","html-button-response","267","2.0.0","615345","6052961c99d0779f4f953050","1","8","6243","","","","","","","","","<img src= ""rock_img/I_Peridotite_16.jpg"" style=""width:8cm; height:6.989999999999999cm;""><p>What type of rock is this?</p>","6","class_response","1","test","32","Peridotite","Peridotite","16","true","7","7","",""
"","","","","","","","","","","","html-keyboard-response","268","2.0.0","615855","6052961c99d0779f4f953050","1","8","null","","","","","","","","","<p style='font-size: 30px;'><strong>Okay</strong></p>","null","neutral_feedback","1","test","32","","","","","","","",""
"","","","","","","","","","","","html-button-response","269","2.0.0","624743","6052961c99d0779f4f953050","1","8","8886","","","","","","","","","<img src= ""rock_img/I_Pumice_15.jpg"" style=""width:8cm; height:7.86cm;""><p>What type of rock is this?</p>","3","class_response","1","test","33","Gabbro","Pumice","15","false","4","8","",""
"","","","","","","","","","","","html-keyboard-response","270","2.0.0","625256","6052961c99d0779f4f953050","1","8","null","","","","","","","","","<p style='font-size: 30px;'><strong>Okay</strong></p>","null","neutral_feedback","1","test","33","","","","","","","",""
"","","","","","","","","","","","html-button-response","271","2.0.0","628048","6052961c99d0779f4f953050","1","8","2789","","","","","","","","","<img src= ""rock_img/I_Peridotite_10.jpg"" style=""width:8cm; height:5.390000000000001cm;""><p>What type of rock is this?</p>","6","class_response","1","test","34","Peridotite","Peridotite","10","true","7","7","",""
"","","","","","","","","","","","html-keyboard-response","272","2.0.0","628555","6052961c99d0779f4f953050","1","8","null","","","","","","","","","<p style='font-size: 30px;'><strong>Okay</strong></p>","null","neutral_feedback","1","test","34","","","","","","","",""
"","","","","","","","","","","","html-button-response","273","2.0.0","633803","6052961c99d0779f4f953050","1","8","5245","","","","","","","","","<img src= ""rock_img/I_Andesite_01.jpg"" style=""width:8cm; height:5.87cm;""><p>What type of rock is this?</p>","3","class_response","1","test","35","Gabbro","Andesite","01","false","4","1","",""
"","","","","","","","","","","","html-keyboard-response","274","2.0.0","634310","6052961c99d0779f4f953050","1","8","null","","","","","","","","","<p style='font-size: 30px;'><strong>Okay</strong></p>","null","neutral_feedback","1","test","35","","","","","","","",""
"","","","","","","","","","","","html-button-response","275","2.0.0","636596","6052961c99d0779f4f953050","1","8","2282","","","","","","","","","<img src= ""rock_img/I_Basalt_11.jpg"" style=""width:8cm; height:5.359999999999999cm;""><p>What type of rock is this?</p>","3","class_response","1","test","36","Gabbro","Basalt","11","false","4","2","",""
"","","","","","","","","","","","html-keyboard-response","276","2.0.0","637108","6052961c99d0779f4f953050","1","8","null","","","","","","","","","<p style='font-size: 30px;'><strong>Okay</strong></p>","null","neutral_feedback","1","test","36","","","","","","","",""
"","","","","","","","","","","","html-button-response","277","2.0.0","638905","6052961c99d0779f4f953050","1","8","1793","","","","","","","","","<img src= ""rock_img/I_Obsidian_05.jpg"" style=""width:8cm; height:6.33cm;""><p>What type of rock is this?</p>","5","class_response","1","test","37","Pegmatite","Obsidian","05","false","6","5","",""
"","","","","","","","","","","","html-keyboard-response","278","2.0.0","639408","6052961c99d0779f4f953050","1","8","null","","","","","","","","","<p style='font-size: 30px;'><strong>Okay</strong></p>","null","neutral_feedback","1","test","37","","","","","","","",""
"","","","","","","","","","","","html-button-response","279","2.0.0","641788","6052961c99d0779f4f953050","1","8","2378","","","","","","","","","<img src= ""rock_img/I_Basalt_04.jpg"" style=""width:8cm; height:7.53cm;""><p>What type of rock is this?</p>","0","class_response","1","test","38","Andesite","Basalt","04","false","1","2","",""
"","","","","","","","","","","","html-keyboard-response","280","2.0.0","642294","6052961c99d0779f4f953050","1","8","null","","","","","","","","","<p style='font-size: 30px;'><strong>Okay</strong></p>","null","neutral_feedback","1","test","38","","","","","","","",""
"","","","","","","","","","","","html-button-response","281","2.0.0","643541","6052961c99d0779f4f953050","1","8","1244","","","","","","","","","<img src= ""rock_img/I_Pegmatite_10.jpg"" style=""width:8cm; height:4.16cm;""><p>What type of rock is this?</p>","6","class_response","1","test","39","Peridotite","Pegmatite","10","false","7","6","",""
"","","","","","","","","","","","html-keyboard-response","282","2.0.0","644052","6052961c99d0779f4f953050","1","8","null","","","","","","","","","<p style='font-size: 30px;'><strong>Okay</strong></p>","null","neutral_feedback","1","test","39","","","","","","","",""
"","","","","","","","","","","","html-button-response","283","2.0.0","650093","6052961c99d0779f4f953050","1","8","6038","","","","","","","","","<img src= ""rock_img/I_Gabbro_01.jpg"" style=""width:8cm; height:5.21cm;""><p>What type of rock is this?</p>","2","class_response","1","test","40","Diorite","Gabbro","01","false","3","4","",""
"","","","","","","","","","","","html-keyboard-response","284","2.0.0","650598","6052961c99d0779f4f953050","1","8","null","","","","","","","","","<p style='font-size: 30px;'><strong>Okay</strong></p>","null","neutral_feedback","1","test","40","","","","","","","",""
"","","","","","","","","","","","html-button-response","285","2.0.0","652542","6052961c99d0779f4f953050","1","8","1941","","","","","","","","","<img src= ""rock_img/I_Diorite_02.jpg"" style=""width:8cm; height:6.27cm;""><p>What type of rock is this?</p>","5","class_response","1","test","41","Pegmatite","Diorite","02","false","6","3","",""
"","","","","","","","","","","","html-keyboard-response","286","2.0.0","653046","6052961c99d0779f4f953050","1","8","null","","","","","","","","","<p style='font-size: 30px;'><strong>Okay</strong></p>","null","neutral_feedback","1","test","41","","","","","","","",""
"","","","","","","","","","","","html-button-response","287","2.0.0","655158","6052961c99d0779f4f953050","1","8","2109","","","","","","","","","<img src= ""rock_img/I_Obsidian_07.jpg"" style=""width:8cm; height:4.76cm;""><p>What type of rock is this?</p>","4","class_response","1","test","42","Obsidian","Obsidian","07","true","5","5","",""
"","","","","","","","","","","","html-keyboard-response","288","2.0.0","655671","6052961c99d0779f4f953050","1","8","null","","","","","","","","","<p style='font-size: 30px;'><strong>Okay</strong></p>","null","neutral_feedback","1","test","42","","","","","","","",""
"","","","","","","","","","","","html-button-response","289","2.0.0","657100","6052961c99d0779f4f953050","1","8","1427","","","","","","","","","<img src= ""rock_img/I_Obsidian_06.jpg"" style=""width:8cm; height:6.8cm;""><p>What type of rock is this?</p>","4","class_response","1","test","43","Obsidian","Obsidian","06","true","5","5","",""
"","","","","","","","","","","","html-keyboard-response","290","2.0.0","657606","6052961c99d0779f4f953050","1","8","null","","","","","","","","","<p style='font-size: 30px;'><strong>Okay</strong></p>","null","neutral_feedback","1","test","43","","","","","","","",""
"","","","","","","","","","","","html-button-response","291","2.0.0","659986","6052961c99d0779f4f953050","1","8","2377","","","","","","","","","<img src= ""rock_img/I_Diorite_16.jpg"" style=""width:8cm; height:6.74cm;""><p>What type of rock is this?</p>","5","class_response","1","test","44","Pegmatite","Diorite","16","false","6","3","",""
"","","","","","","","","","","","html-keyboard-response","292","2.0.0","660499","6052961c99d0779f4f953050","1","8","null","","","","","","","","","<p style='font-size: 30px;'><strong>Okay</strong></p>","null","neutral_feedback","1","test","44","","","","","","","",""
"","","","","","","","","","","","html-button-response","293","2.0.0","664117","6052961c99d0779f4f953050","1","8","3616","","","","","","","","","<img src= ""rock_img/I_Basalt_01.jpg"" style=""width:8cm; height:7.880000000000001cm;""><p>What type of rock is this?</p>","3","class_response","1","test","45","Gabbro","Basalt","01","false","4","2","",""
"","","","","","","","","","","","html-keyboard-response","294","2.0.0","664634","6052961c99d0779f4f953050","1","8","null","","","","","","","","","<p style='font-size: 30px;'><strong>Okay</strong></p>","null","neutral_feedback","1","test","45","","","","","","","",""
"","","","","","","","","","","","html-button-response","295","2.0.0","665885","6052961c99d0779f4f953050","1","8","1248","","","","","","","","","<img src= ""rock_img/I_Gabbro_08.jpg"" style=""width:8cm; height:5.15cm;""><p>What type of rock is this?</p>","3","class_response","1","test","46","Gabbro","Gabbro","08","true","4","4","",""
"","","","","","","","","","","","html-keyboard-response","296","2.0.0","666389","6052961c99d0779f4f953050","1","8","null","","","","","","","","","<p style='font-size: 30px;'><strong>Okay</strong></p>","null","neutral_feedback","1","test","46","","","","","","","",""
"","","","","","","","","","","","html-button-response","297","2.0.0","667661","6052961c99d0779f4f953050","1","8","1269","","","","","","","","","<img src= ""rock_img/I_Pumice_06.jpg"" style=""width:8cm; height:6.9399999999999995cm;""><p>What type of rock is this?</p>","7","class_response","1","test","47","Pumice","Pumice","06","true","8","8","",""
"","","","","","","","","","","","html-keyboard-response","298","2.0.0","668166","6052961c99d0779f4f953050","1","8","null","","","","","","","","","<p style='font-size: 30px;'><strong>Okay</strong></p>","null","neutral_feedback","1","test","47","","","","","","","",""
"","","","","","","","","","","","html-button-response","299","2.0.0","672909","6052961c99d0779f4f953050","1","8","4740","","","","","","","","","<img src= ""rock_img/I_Gabbro_03.jpg"" style=""width:8cm; height:8.52cm;""><p>What type of rock is this?</p>","2","class_response","1","test","48","Diorite","Gabbro","03","false","3","4","",""
"","","","","","","","","","","","html-keyboard-response","300","2.0.0","673417","6052961c99d0779f4f953050","1","8","null","","","","","","","","","<p style='font-size: 30px;'><strong>Okay</strong></p>","null","neutral_feedback","1","test","48","","","","","","","",""
"","","","","","","","","","","","html-button-response","301","2.0.0","704276","6052961c99d0779f4f953050","1","8","","","","","","","","","","","","cycle_feedback","","","","","","","","","","13936.799999952316","16912.399999976158"
"","","","","","","","","","","","html-button-response","303","2.0.0","710004","6052961c99d0779f4f953050","1","8","5724","","","","","","","","","","0","start_train","","","","","","","","","","",""
"","","","","","","","","","","","html-button-response","304","2.0.0","714412","6052961c99d0779f4f953050","1","8","4405","","","","","","","","","<img src= ""rock_img/I_Basalt_09.jpg"" style=""width:8cm; height:6.2cm;""><p>What type of rock is this?</p>","0","class_response","2","train","1","Andesite","Basalt","09","false","1","2","",""
"","","","","","","","","","","","html-button-response","305","2.0.0","721403","6052961c99d0779f4f953050","1","8","6988","","","","","","","","","<img src= rock_img/I_Basalt_09.jpg style=""width:8cm; height:6.2cm;""><p style='font-size: 30px; color: red;'><strong>Incorrect!</strong></p><p style='font-size: 30px;'><strong>This rock is basalt</strong></p>","0","corr_feedback","2","train","1","","","","","","","",""
