"width","height","webaudio","browser","browser_version","mobile","os","fullscreen","vsync_rate","webcam","microphone","trial_type","trial_index","plugin_version","time_elapsed","subjID","condition","stimID","rt","url","success","value","timeout","failed_images","failed_audio","failed_video","view_history","stimulus","response","trialType","cycle","phase","trial","resp","cat","token","corr","resp_num","cat_num","time_fb1","time_fb2"
"1366","641","true","chrome","130.0.0","false","Windows 10","true","60.37","false","true","browser-check","0","2.0.0","1009","614f571879ee135c5a579e08","1","26","","","","","","","","","","","","","","","","","","","","","","",""
"","","","","","","","","","","","external-html","1","2.0.0","51295","614f571879ee135c5a579e08","1","26","50223","consent_form.html","","","","","","","","","","","","","","","","","","","","",""
"","","","","","","","","","","","fullscreen","2","2.0.0","54932","614f571879ee135c5a579e08","1","26","2631","","true","","","","","","","","","","","","","","","","","","","",""
"","","","","","","","","","","","call-function","3","2.0.0","54934","614f571879ee135c5a579e08","1","26","","","","{}","","","","","","","","","","","","","","","","","","",""
"","","","","","","","","","","","preload","4","2.0.0","56002","614f571879ee135c5a579e08","1","26","","","true","","false","[]","[]","[]","","","","","","","","","","","","","","",""
"","","","","","","","","","","","instructions","5","2.0.0","101210","614f571879ee135c5a579e08","1","26","45207","","","","","","","","[{""page_index"":0,""viewing_time"":11071},{""page_index"":1,""viewing_time"":21385},{""page_index"":2,""viewing_time"":12751}]","","","","","","","","","","","","","",""
"","","","","","","","","","","","html-button-response","6","2.0.0","104804","614f571879ee135c5a579e08","1","26","3593","","","","","","","","","","0","start_test","","","","","","","","","","",""
"","","","","","","","","","","","html-button-response","7","2.0.0","110788","614f571879ee135c5a579e08","1","26","5982","","","","","","","","","<img src= ""rock_img/I_Pumice_09.jpg"" style=""width:8cm; height:6.44cm;""><p>What type of rock is this?</p>","5","class_response","0","test","1","Pegmatite","Pumice","09","false","6","8","",""
"","","","","","","","","","","","html-keyboard-response","8","2.0.0","111301","614f571879ee135c5a579e08","1","26","null","","","","","","","","","<p style='font-size: 30px;'><strong>Okay</strong></p>","null","neutral_feedback","0","test","1","","","","","","","",""
"","","","","","","","","","","","html-button-response","9","2.0.0","117454","614f571879ee135c5a579e08","1","26","6151","","","","","","","","","<img src= ""rock_img/I_Andesite_06.jpg"" style=""width:8cm; height:6.840000000000001cm;""><p>What type of rock is this?</p>","2","class_response","0","test","2","Diorite","Andesite","06","false","3","1","",""
"","","","","","","","","","","","html-keyboard-response","10","2.0.0","117962","614f571879ee135c5a579e08","1","26","null","","","","","","","","","<p style='font-size: 30px;'><strong>Okay</strong></p>","null","neutral_feedback","0","test","2","","","","","","","",""
"","","","","","","","","","","","html-button-response","11","2.0.0","122430","614f571879ee135c5a579e08","1","26","4466","","","","","","","","","<img src= ""rock_img/I_Peridotite_06.jpg"" style=""width:8cm; height:7.53cm;""><p>What type of rock is this?</p>","3","class_response","0","test","3","Gabbro","Peridotite","06","false","4","7","",""
"","","","","","","","","","","","html-keyboard-response","12","2.0.0","122932","614f571879ee135c5a579e08","1","26","null","","","","","","","","","<p style='font-size: 30px;'><strong>Okay</strong></p>","null","neutral_feedback","0","test","3","","","","","","","",""
"","","","","","","","","","","","html-button-response","13","2.0.0","127933","614f571879ee135c5a579e08","1","26","5000","","","","","","","","","<img src= ""rock_img/I_Diorite_14.jpg"" style=""width:8cm; height:5.71cm;""><p>What type of rock is this?</p>","6","class_response","0","test","4","Peridotite","Diorite","14","false","7","3","",""
"","","","","","","","","","","","html-keyboard-response","14","2.0.0","128435","614f571879ee135c5a579e08","1","26","null","","","","","","","","","<p style='font-size: 30px;'><strong>Okay</strong></p>","null","neutral_feedback","0","test","4","","","","","","","",""
"","","","","","","","","","","","html-button-response","15","2.0.0","131091","614f571879ee135c5a579e08","1","26","2655","","","","","","","","","<img src= ""rock_img/I_Obsidian_04.jpg"" style=""width:8cm; height:6.930000000000001cm;""><p>What type of rock is this?</p>","4","class_response","0","test","5","Obsidian","Obsidian","04","true","5","5","",""
"","","","","","","","","","","","html-keyboard-response","16","2.0.0","131597","614f571879ee135c5a579e08","1","26","null","","","","","","","","","<p style='font-size: 30px;'><strong>Okay</strong></p>","null","neutral_feedback","0","test","5","","","","","","","",""
"","","","","","","","","","","","html-button-response","17","2.0.0","138041","614f571879ee135c5a579e08","1","26","6443","","","","","","","","","<img src= ""rock_img/I_Pumice_03.jpg"" style=""width:8cm; height:6.64cm;""><p>What type of rock is this?</p>","3","class_response","0","test","6","Gabbro","Pumice","03","false","4","8","",""
"","","","","","","","","","","","html-keyboard-response","18","2.0.0","138543","614f571879ee135c5a579e08","1","26","null","","","","","","","","","<p style='font-size: 30px;'><strong>Okay</strong></p>","null","neutral_feedback","0","test","6","","","","","","","",""
"","","","","","","","","","","","html-button-response","19","2.0.0","142496","614f571879ee135c5a579e08","1","26","3952","","","","","","","","","<img src= ""rock_img/I_Andesite_11.jpg"" style=""width:8cm; height:4.92cm;""><p>What type of rock is this?</p>","1","class_response","0","test","7","Basalt","Andesite","11","false","2","1","",""
"","","","","","","","","","","","html-keyboard-response","20","2.0.0","142999","614f571879ee135c5a579e08","1","26","null","","","","","","","","","<p style='font-size: 30px;'><strong>Okay</strong></p>","null","neutral_feedback","0","test","7","","","","","","","",""
"","","","","","","","","","","","html-button-response","21","2.0.0","146336","614f571879ee135c5a579e08","1","26","3335","","","","","","","","","<img src= ""rock_img/I_Pegmatite_09.jpg"" style=""width:8cm; height:4.03cm;""><p>What type of rock is this?</p>","2","class_response","0","test","8","Diorite","Pegmatite","09","false","3","6","",""
"","","","","","","","","","","","html-keyboard-response","22","2.0.0","146845","614f571879ee135c5a579e08","1","26","null","","","","","","","","","<p style='font-size: 30px;'><strong>Okay</strong></p>","null","neutral_feedback","0","test","8","","","","","","","",""
"","","","","","","","","","","","html-button-response","23","2.0.0","151407","614f571879ee135c5a579e08","1","26","4560","","","","","","","","","<img src= ""rock_img/I_Diorite_09.jpg"" style=""width:8cm; height:5.27cm;""><p>What type of rock is this?</p>","6","class_response","0","test","9","Peridotite","Diorite","09","false","7","3","",""
"","","","","","","","","","","","html-keyboard-response","24","2.0.0","151908","614f571879ee135c5a579e08","1","26","null","","","","","","","","","<p style='font-size: 30px;'><strong>Okay</strong></p>","null","neutral_feedback","0","test","9","","","","","","","",""
"","","","","","","","","","","","html-button-response","25","2.0.0","154519","614f571879ee135c5a579e08","1","26","2610","","","","","","","","","<img src= ""rock_img/I_Gabbro_09.jpg"" style=""width:8cm; height:7.279999999999999cm;""><p>What type of rock is this?</p>","5","class_response","0","test","10","Pegmatite","Gabbro","09","false","6","4","",""
"","","","","","","","","","","","html-keyboard-response","26","2.0.0","155023","614f571879ee135c5a579e08","1","26","null","","","","","","","","","<p style='font-size: 30px;'><strong>Okay</strong></p>","null","neutral_feedback","0","test","10","","","","","","","",""
"","","","","","","","","","","","html-button-response","27","2.0.0","157166","614f571879ee135c5a579e08","1","26","2141","","","","","","","","","<img src= ""rock_img/I_Basalt_06.jpg"" style=""width:8cm; height:7.06cm;""><p>What type of rock is this?</p>","5","class_response","0","test","11","Pegmatite","Basalt","06","false","6","2","",""
"","","","","","","","","","","","html-keyboard-response","28","2.0.0","157667","614f571879ee135c5a579e08","1","26","null","","","","","","","","","<p style='font-size: 30px;'><strong>Okay</strong></p>","null","neutral_feedback","0","test","11","","","","","","","",""
"","","","","","","","","","","","html-button-response","29","2.0.0","162359","614f571879ee135c5a579e08","1","26","4691","","","","","","","","","<img src= ""rock_img/I_Peridotite_13.jpg"" style=""width:8cm; height:7.58cm;""><p>What type of rock is this?</p>","7","class_response","0","test","12","Pumice","Peridotite","13","false","8","7","",""
"","","","","","","","","","","","html-keyboard-response","30","2.0.0","162860","614f571879ee135c5a579e08","1","26","null","","","","","","","","","<p style='font-size: 30px;'><strong>Okay</strong></p>","null","neutral_feedback","0","test","12","","","","","","","",""
"","","","","","","","","","","","html-button-response","31","2.0.0","165611","614f571879ee135c5a579e08","1","26","2749","","","","","","","","","<img src= ""rock_img/I_Gabbro_10.jpg"" style=""width:8cm; height:5.680000000000001cm;""><p>What type of rock is this?</p>","5","class_response","0","test","13","Pegmatite","Gabbro","10","false","6","4","",""
"","","","","","","","","","","","html-keyboard-response","32","2.0.0","166116","614f571879ee135c5a579e08","1","26","null","","","","","","","","","<p style='font-size: 30px;'><strong>Okay</strong></p>","null","neutral_feedback","0","test","13","","","","","","","",""
"","","","","","","","","","","","html-button-response","33","2.0.0","173858","614f571879ee135c5a579e08","1","26","7740","","","","","","","","","<img src= ""rock_img/I_Gabbro_03.jpg"" style=""width:8cm; height:8.52cm;""><p>What type of rock is this?</p>","1","class_response","0","test","14","Basalt","Gabbro","03","false","2","4","",""
"","","","","","","","","","","","html-keyboard-response","34","2.0.0","174361","614f571879ee135c5a579e08","1","26","null","","","","","","","","","<p style='font-size: 30px;'><strong>Okay</strong></p>","null","neutral_feedback","0","test","14","","","","","","","",""
"","","","","","","","","","","","html-button-response","35","2.0.0","176367","614f571879ee135c5a579e08","1","26","2005","","","","","","","","","<img src= ""rock_img/I_Obsidian_08.jpg"" style=""width:8cm; height:7.39cm;""><p>What type of rock is this?</p>","4","class_response","0","test","15","Obsidian","Obsidian","08","true","5","5","",""
"","","","","","","","","","","","html-keyboard-response","36","2.0.0","176870","614f571879ee135c5a579e08","1","26","null","","","","","","","","","<p style='font-size: 30px;'><strong>Okay</strong></p>","null","neutral_feedback","0","test","15","","","","","","","",""
"","","","","","","","","","","","html-button-response","37","2.0.0","181336","614f571879ee135c5a579e08","1","26","4465","","","","","","","","","<img src= ""rock_img/I_Pegmatite_06.jpg"" style=""width:8cm; height:5.17cm;""><p>What type of rock is this?</p>","3","class_response","0","test","16","Gabbro","Pegmatite","06","false","4","6","",""
"","","","","","","","","","","","html-keyboard-response","38","2.0.0","181838","614f571879ee135c5a579e08","1","26","null","","","","","","","","","<p style='font-size: 30px;'><strong>Okay</strong></p>","null","neutral_feedback","0","test","16","","","","","","","",""
"","","","","","","","","","","","html-button-response","39","2.0.0","184378","614f571879ee135c5a579e08","1","26","2538","","","","","","","","","<img src= ""rock_img/I_Obsidian_07.jpg"" style=""width:8cm; height:4.76cm;""><p>What type of rock is this?</p>","0","class_response","0","test","17","Andesite","Obsidian","07","false","1","5","",""
"","","","","","","","","","","","html-keyboard-response","40","2.0.0","184882","614f571879ee135c5a579e08","1","26","null","","","","","","","","","<p style='font-size: 30px;'><strong>Okay</strong></p>","null","neutral_feedback","0","test","17","","","","","","","",""
"","","","","","","","","","","","html-button-response","41","2.0.0","187825","614f571879ee135c5a579e08","1","26","2942","","","","","","","","","<img src= ""rock_img/I_Gabbro_14.jpg"" style=""width:8cm; height:8.48cm;""><p>What type of rock is this?</p>","7","class_response","0","test","18","Pumice","Gabbro","14","false","8","4","",""
"","","","","","","","","","","","html-keyboard-response","42","2.0.0","188327","614f571879ee135c5a579e08","1","26","null","","","","","","","","","<p style='font-size: 30px;'><strong>Okay</strong></p>","null","neutral_feedback","0","test","18","","","","","","","",""
"","","","","","","","","","","","html-button-response","43","2.0.0","192461","614f571879ee135c5a579e08","1","26","4133","","","","","","","","","<img src= ""rock_img/I_Pegmatite_15.jpg"" style=""width:8cm; height:6cm;""><p>What type of rock is this?</p>","6","class_response","0","test","19","Peridotite","Pegmatite","15","false","7","6","",""
"","","","","","","","","","","","html-keyboard-response","44","2.0.0","192968","614f571879ee135c5a579e08","1","26","null","","","","","","","","","<p style='font-size: 30px;'><strong>Okay</strong></p>","null","neutral_feedback","0","test","19","","","","","","","",""
"","","","","","","","","","","","html-button-response","45","2.0.0","195761","614f571879ee135c5a579e08","1","26","2792","","","","","","","","","<img src= ""rock_img/I_Peridotite_05.jpg"" style=""width:8cm; height:7.1499999999999995cm;""><p>What type of rock is this?</p>","1","class_response","0","test","20","Basalt","Peridotite","05","false","2","7","",""
"","","","","","","","","","","","html-keyboard-response","46","2.0.0","196268","614f571879ee135c5a579e08","1","26","null","","","","","","","","","<p style='font-size: 30px;'><strong>Okay</strong></p>","null","neutral_feedback","0","test","20","","","","","","","",""
"","","","","","","","","","","","html-button-response","47","2.0.0","198234","614f571879ee135c5a579e08","1","26","1965","","","","","","","","","<img src= ""rock_img/I_Pegmatite_12.jpg"" style=""width:8cm; height:5.7cm;""><p>What type of rock is this?</p>","6","class_response","0","test","21","Peridotite","Pegmatite","12","false","7","6","",""
"","","","","","","","","","","","html-keyboard-response","48","2.0.0","198738","614f571879ee135c5a579e08","1","26","null","","","","","","","","","<p style='font-size: 30px;'><strong>Okay</strong></p>","null","neutral_feedback","0","test","21","","","","","","","",""
"","","","","","","","","","","","html-button-response","49","2.0.0","201378","614f571879ee135c5a579e08","1","26","2639","","","","","","","","","<img src= ""rock_img/I_Andesite_14.jpg"" style=""width:8cm; height:5.449999999999999cm;""><p>What type of rock is this?</p>","2","class_response","0","test","22","Diorite","Andesite","14","false","3","1","",""
"","","","","","","","","","","","html-keyboard-response","50","2.0.0","201894","614f571879ee135c5a579e08","1","26","null","","","","","","","","","<p style='font-size: 30px;'><strong>Okay</strong></p>","null","neutral_feedback","0","test","22","","","","","","","",""
"","","","","","","","","","","","html-button-response","51","2.0.0","205100","614f571879ee135c5a579e08","1","26","3205","","","","","","","","","<img src= ""rock_img/I_Diorite_16.jpg"" style=""width:8cm; height:6.74cm;""><p>What type of rock is this?</p>","5","class_response","0","test","23","Pegmatite","Diorite","16","false","6","3","",""
"","","","","","","","","","","","html-keyboard-response","52","2.0.0","205604","614f571879ee135c5a579e08","1","26","null","","","","","","","","","<p style='font-size: 30px;'><strong>Okay</strong></p>","null","neutral_feedback","0","test","23","","","","","","","",""
"","","","","","","","","","","","html-button-response","53","2.0.0","210704","614f571879ee135c5a579e08","1","26","5098","","","","","","","","","<img src= ""rock_img/I_Pumice_10.jpg"" style=""width:8cm; height:7.609999999999999cm;""><p>What type of rock is this?</p>","1","class_response","0","test","24","Basalt","Pumice","10","false","2","8","",""
"","","","","","","","","","","","html-keyboard-response","54","2.0.0","211206","614f571879ee135c5a579e08","1","26","null","","","","","","","","","<p style='font-size: 30px;'><strong>Okay</strong></p>","null","neutral_feedback","0","test","24","","","","","","","",""
"","","","","","","","","","","","html-button-response","55","2.0.0","214281","614f571879ee135c5a579e08","1","26","3074","","","","","","","","","<img src= ""rock_img/I_Andesite_03.jpg"" style=""width:8cm; height:5.73cm;""><p>What type of rock is this?</p>","5","class_response","0","test","25","Pegmatite","Andesite","03","false","6","1","",""
"","","","","","","","","","","","html-keyboard-response","56","2.0.0","214796","614f571879ee135c5a579e08","1","26","null","","","","","","","","","<p style='font-size: 30px;'><strong>Okay</strong></p>","null","neutral_feedback","0","test","25","","","","","","","",""
"","","","","","","","","","","","html-button-response","57","2.0.0","216813","614f571879ee135c5a579e08","1","26","2017","","","","","","","","","<img src= ""rock_img/I_Pumice_14.jpg"" style=""width:8cm; height:6.39cm;""><p>What type of rock is this?</p>","3","class_response","0","test","26","Gabbro","Pumice","14","false","4","8","",""
"","","","","","","","","","","","html-keyboard-response","58","2.0.0","217320","614f571879ee135c5a579e08","1","26","null","","","","","","","","","<p style='font-size: 30px;'><strong>Okay</strong></p>","null","neutral_feedback","0","test","26","","","","","","","",""
"","","","","","","","","","","","html-button-response","59","2.0.0","223544","614f571879ee135c5a579e08","1","26","6222","","","","","","","","","<img src= ""rock_img/I_Pegmatite_05.jpg"" style=""width:8cm; height:7.300000000000001cm;""><p>What type of rock is this?</p>","7","class_response","0","test","27","Pumice","Pegmatite","05","false","8","6","",""
"","","","","","","","","","","","html-keyboard-response","60","2.0.0","224051","614f571879ee135c5a579e08","1","26","null","","","","","","","","","<p style='font-size: 30px;'><strong>Okay</strong></p>","null","neutral_feedback","0","test","27","","","","","","","",""
"","","","","","","","","","","","html-button-response","61","2.0.0","225933","614f571879ee135c5a579e08","1","26","1880","","","","","","","","","<img src= ""rock_img/I_Basalt_01.jpg"" style=""width:8cm; height:7.880000000000001cm;""><p>What type of rock is this?</p>","5","class_response","0","test","28","Pegmatite","Basalt","01","false","6","2","",""
"","","","","","","","","","","","html-keyboard-response","62","2.0.0","226436","614f571879ee135c5a579e08","1","26","null","","","","","","","","","<p style='font-size: 30px;'><strong>Okay</strong></p>","null","neutral_feedback","0","test","28","","","","","","","",""
"","","","","","","","","","","","html-button-response","63","2.0.0","228936","614f571879ee135c5a579e08","1","26","2499","","","","","","","","","<img src= ""rock_img/I_Peridotite_15.jpg"" style=""width:8cm; height:6cm;""><p>What type of rock is this?</p>","2","class_response","0","test","29","Diorite","Peridotite","15","false","3","7","",""
"","","","","","","","","","","","html-keyboard-response","64","2.0.0","229444","614f571879ee135c5a579e08","1","26","null","","","","","","","","","<p style='font-size: 30px;'><strong>Okay</strong></p>","null","neutral_feedback","0","test","29","","","","","","","",""
"","","","","","","","","","","","html-button-response","65","2.0.0","231607","614f571879ee135c5a579e08","1","26","2162","","","","","","","","","<img src= ""rock_img/I_Obsidian_12.jpg"" style=""width:8cm; height:6.53cm;""><p>What type of rock is this?</p>","4","class_response","0","test","30","Obsidian","Obsidian","12","true","5","5","",""
"","","","","","","","","","","","html-keyboard-response","66","2.0.0","232118","614f571879ee135c5a579e08","1","26","null","","","","","","","","","<p style='font-size: 30px;'><strong>Okay</strong></p>","null","neutral_feedback","0","test","30","","","","","","","",""
"","","","","","","","","","","","html-button-response","67","2.0.0","236810","614f571879ee135c5a579e08","1","26","4691","","","","","","","","","<img src= ""rock_img/I_Basalt_11.jpg"" style=""width:8cm; height:5.359999999999999cm;""><p>What type of rock is this?</p>","5","class_response","0","test","31","Pegmatite","Basalt","11","false","6","2","",""
"","","","","","","","","","","","html-keyboard-response","68","2.0.0","237312","614f571879ee135c5a579e08","1","26","null","","","","","","","","","<p style='font-size: 30px;'><strong>Okay</strong></p>","null","neutral_feedback","0","test","31","","","","","","","",""
"","","","","","","","","","","","html-button-response","69","2.0.0","242471","614f571879ee135c5a579e08","1","26","5157","","","","","","","","","<img src= ""rock_img/I_Diorite_02.jpg"" style=""width:8cm; height:6.27cm;""><p>What type of rock is this?</p>","1","class_response","0","test","32","Basalt","Diorite","02","false","2","3","",""
"","","","","","","","","","","","html-keyboard-response","70","2.0.0","242986","614f571879ee135c5a579e08","1","26","null","","","","","","","","","<p style='font-size: 30px;'><strong>Okay</strong></p>","null","neutral_feedback","0","test","32","","","","","","","",""
"","","","","","","","","","","","html-button-response","71","2.0.0","245550","614f571879ee135c5a579e08","1","26","2562","","","","","","","","","<img src= ""rock_img/I_Pumice_02.jpg"" style=""width:8cm; height:7.3999999999999995cm;""><p>What type of rock is this?</p>","3","class_response","0","test","33","Gabbro","Pumice","02","false","4","8","",""
"","","","","","","","","","","","html-keyboard-response","72","2.0.0","246057","614f571879ee135c5a579e08","1","26","null","","","","","","","","","<p style='font-size: 30px;'><strong>Okay</strong></p>","null","neutral_feedback","0","test","33","","","","","","","",""
"","","","","","","","","","","","html-button-response","73","2.0.0","253091","614f571879ee135c5a579e08","1","26","7032","","","","","","","","","<img src= ""rock_img/I_Peridotite_02.jpg"" style=""width:8cm; height:5.859999999999999cm;""><p>What type of rock is this?</p>","6","class_response","0","test","34","Peridotite","Peridotite","02","true","7","7","",""
"","","","","","","","","","","","html-keyboard-response","74","2.0.0","253597","614f571879ee135c5a579e08","1","26","null","","","","","","","","","<p style='font-size: 30px;'><strong>Okay</strong></p>","null","neutral_feedback","0","test","34","","","","","","","",""
"","","","","","","","","","","","html-button-response","75","2.0.0","255706","614f571879ee135c5a579e08","1","26","2107","","","","","","","","","<img src= ""rock_img/I_Gabbro_11.jpg"" style=""width:8cm; height:6.2cm;""><p>What type of rock is this?</p>","5","class_response","0","test","35","Pegmatite","Gabbro","11","false","6","4","",""
"","","","","","","","","","","","html-keyboard-response","76","2.0.0","256210","614f571879ee135c5a579e08","1","26","null","","","","","","","","","<p style='font-size: 30px;'><strong>Okay</strong></p>","null","neutral_feedback","0","test","35","","","","","","","",""
"","","","","","","","","","","","html-button-response","77","2.0.0","261623","614f571879ee135c5a579e08","1","26","5412","","","","","","","","","<img src= ""rock_img/I_Pegmatite_03.jpg"" style=""width:8cm; height:5.239999999999999cm;""><p>What type of rock is this?</p>","1","class_response","0","test","36","Basalt","Pegmatite","03","false","2","6","",""
"","","","","","","","","","","","html-keyboard-response","78","2.0.0","262130","614f571879ee135c5a579e08","1","26","null","","","","","","","","","<p style='font-size: 30px;'><strong>Okay</strong></p>","null","neutral_feedback","0","test","36","","","","","","","",""
"","","","","","","","","","","","html-button-response","79","2.0.0","264511","614f571879ee135c5a579e08","1","26","2379","","","","","","","","","<img src= ""rock_img/I_Basalt_16.jpg"" style=""width:8cm; height:7.659999999999999cm;""><p>What type of rock is this?</p>","5","class_response","0","test","37","Pegmatite","Basalt","16","false","6","2","",""
"","","","","","","","","","","","html-keyboard-response","80","2.0.0","265015","614f571879ee135c5a579e08","1","26","null","","","","","","","","","<p style='font-size: 30px;'><strong>Okay</strong></p>","null","neutral_feedback","0","test","37","","","","","","","",""
"","","","","","","","","","","","html-button-response","81","2.0.0","267974","614f571879ee135c5a579e08","1","26","2957","","","","","","","","","<img src= ""rock_img/I_Basalt_08.jpg"" style=""width:8cm; height:10.44cm;""><p>What type of rock is this?</p>","5","class_response","0","test","38","Pegmatite","Basalt","08","false","6","2","",""
"","","","","","","","","","","","html-keyboard-response","82","2.0.0","268480","614f571879ee135c5a579e08","1","26","null","","","","","","","","","<p style='font-size: 30px;'><strong>Okay</strong></p>","null","neutral_feedback","0","test","38","","","","","","","",""
"","","","","","","","","","","","html-button-response","83","2.0.0","270478","614f571879ee135c5a579e08","1","26","1996","","","","","","","","","<img src= ""rock_img/I_Gabbro_05.jpg"" style=""width:8cm; height:6cm;""><p>What type of rock is this?</p>","2","class_response","0","test","39","Diorite","Gabbro","05","false","3","4","",""
"","","","","","","","","","","","html-keyboard-response","84","2.0.0","270983","614f571879ee135c5a579e08","1","26","null","","","","","","","","","<p style='font-size: 30px;'><strong>Okay</strong></p>","null","neutral_feedback","0","test","39","","","","","","","",""
"","","","","","","","","","","","html-button-response","85","2.0.0","273769","614f571879ee135c5a579e08","1","26","2785","","","","","","","","","<img src= ""rock_img/I_Pumice_04.jpg"" style=""width:8cm; height:6.819999999999999cm;""><p>What type of rock is this?</p>","3","class_response","0","test","40","Gabbro","Pumice","04","false","4","8","",""
"","","","","","","","","","","","html-keyboard-response","86","2.0.0","274276","614f571879ee135c5a579e08","1","26","null","","","","","","","","","<p style='font-size: 30px;'><strong>Okay</strong></p>","null","neutral_feedback","0","test","40","","","","","","","",""
"","","","","","","","","","","","html-button-response","87","2.0.0","276006","614f571879ee135c5a579e08","1","26","1728","","","","","","","","","<img src= ""rock_img/I_Obsidian_02.jpg"" style=""width:8cm; height:7.51cm;""><p>What type of rock is this?</p>","4","class_response","0","test","41","Obsidian","Obsidian","02","true","5","5","",""
"","","","","","","","","","","","html-keyboard-response","88","2.0.0","276507","614f571879ee135c5a579e08","1","26","null","","","","","","","","","<p style='font-size: 30px;'><strong>Okay</strong></p>","null","neutral_feedback","0","test","41","","","","","","","",""
"","","","","","","","","","","","html-button-response","89","2.0.0","278745","614f571879ee135c5a579e08","1","26","2238","","","","","","","","","<img src= ""rock_img/I_Obsidian_06.jpg"" style=""width:8cm; height:6.8cm;""><p>What type of rock is this?</p>","4","class_response","0","test","42","Obsidian","Obsidian","06","true","5","5","",""
"","","","","","","","","","","","html-keyboard-response","90","2.0.0","279246","614f571879ee135c5a579e08","1","26","null","","","","","","","","","<p style='font-size: 30px;'><strong>Okay</strong></p>","null","neutral_feedback","0","test","42","","","","","","","",""
"","","","","","","","","","","","html-button-response","91","2.0.0","282866","614f571879ee135c5a579e08","1","26","3619","","","","","","","","","<img src= ""rock_img/I_Diorite_10.jpg"" style=""width:8cm; height:5.949999999999999cm;""><p>What type of rock is this?</p>","2","class_response","0","test","43","Diorite","Diorite","10","true","3","3","",""
"","","","","","","","","","","","html-keyboard-response","92","2.0.0","283372","614f571879ee135c5a579e08","1","26","null","","","","","","","","","<p style='font-size: 30px;'><strong>Okay</strong></p>","null","neutral_feedback","0","test","43","","","","","","","",""
"","","","","","","","","","","","html-button-response","93","2.0.0","285673","614f571879ee135c5a579e08","1","26","2300","","","","","","","","","<img src= ""rock_img/I_Andesite_01.jpg"" style=""width:8cm; height:5.87cm;""><p>What type of rock is this?</p>","5","class_response","0","test","44","Pegmatite","Andesite","01","false","6","1","",""
"","","","","","","","","","","","html-keyboard-response","94","2.0.0","286176","614f571879ee135c5a579e08","1","26","null","","","","","","","","","<p style='font-size: 30px;'><strong>Okay</strong></p>","null","neutral_feedback","0","test","44","","","","","","","",""
"","","","","","","","","","","","html-button-response","95","2.0.0","288497","614f571879ee135c5a579e08","1","26","2320","","","","","","","","","<img src= ""rock_img/I_Basalt_09.jpg"" style=""width:8cm; height:6.2cm;""><p>What type of rock is this?</p>","5","class_response","0","test","45","Pegmatite","Basalt","09","false","6","2","",""
"","","","","","","","","","","","html-keyboard-response","96","2.0.0","289001","614f571879ee135c5a579e08","1","26","null","","","","","","","","","<p style='font-size: 30px;'><strong>Okay</strong></p>","null","neutral_feedback","0","test","45","","","","","","","",""
"","","","","","","","","","","","html-button-response","97","2.0.0","292050","614f571879ee135c5a579e08","1","26","3049","","","","","","","","","<img src= ""rock_img/I_Andesite_09.jpg"" style=""width:8cm; height:6cm;""><p>What type of rock is this?</p>","1","class_response","0","test","46","Basalt","Andesite","09","false","2","1","",""
"","","","","","","","","","","","html-keyboard-response","98","2.0.0","292555","614f571879ee135c5a579e08","1","26","null","","","","","","","","","<p style='font-size: 30px;'><strong>Okay</strong></p>","null","neutral_feedback","0","test","46","","","","","","","",""
"","","","","","","","","","","","html-button-response","99","2.0.0","296572","614f571879ee135c5a579e08","1","26","4015","","","","","","","","","<img src= ""rock_img/I_Peridotite_14.jpg"" style=""width:8cm; height:5.3cm;""><p>What type of rock is this?</p>","2","class_response","0","test","47","Diorite","Peridotite","14","false","3","7","",""
"","","","","","","","","","","","html-keyboard-response","100","2.0.0","297075","614f571879ee135c5a579e08","1","26","null","","","","","","","","","<p style='font-size: 30px;'><strong>Okay</strong></p>","null","neutral_feedback","0","test","47","","","","","","","",""
"","","","","","","","","","","","html-button-response","101","2.0.0","300189","614f571879ee135c5a579e08","1","26","3113","","","","","","","","","<img src= ""rock_img/I_Diorite_06.jpg"" style=""width:8cm; height:6.03cm;""><p>What type of rock is this?</p>","6","class_response","0","test","48","Peridotite","Diorite","06","false","7","3","",""
"","","","","","","","","","","","html-keyboard-response","102","2.0.0","300699","614f571879ee135c5a579e08","1","26","null","","","","","","","","","<p style='font-size: 30px;'><strong>Okay</strong></p>","null","neutral_feedback","0","test","48","","","","","","","",""
"","","","","","","","","","","","instructions","103","2.0.0","402651","614f571879ee135c5a579e08","1","26","101932","","","","","","","","[{""page_index"":0,""viewing_time"":85568},{""page_index"":1,""viewing_time"":6699},{""page_index"":2,""viewing_time"":9665}]","","","","","","","","","","","","","",""
"","","","","","","","","","","","html-button-response","104","2.0.0","405647","614f571879ee135c5a579e08","1","26","2996","","","","","","","","","","0","start_train","","","","","","","","","","",""
"","","","","","","","","","","","html-button-response","105","2.0.0","408636","614f571879ee135c5a579e08","1","26","2987","","","","","","","","","<img src= ""rock_img/I_Diorite_07.jpg"" style=""width:8cm; height:5.239999999999999cm;""><p>What type of rock is this?</p>","1","class_response","1","train","1","Basalt","Diorite","07","false","2","3","",""
"","","","","","","","","","","","html-button-response","106","2.0.0","424169","614f571879ee135c5a579e08","1","26","15531","","","","","","","","","<img src= rock_img/I_Diorite_07.jpg style=""width:8cm; height:5.239999999999999cm;""><p style='font-size: 30px; color: red;'><strong>Incorrect!</strong></p><p style='font-size: 30px;'><strong>This rock is diorite</strong></p>","0","corr_feedback","1","train","1","","","","","","","",""
"","","","","","","","","","","","html-button-response","107","2.0.0","426738","614f571879ee135c5a579e08","1","26","2568","","","","","","","","","<img src= ""rock_img/I_Pegmatite_10.jpg"" style=""width:8cm; height:4.16cm;""><p>What type of rock is this?</p>","1","class_response","1","train","2","Basalt","Pegmatite","10","false","2","6","",""
"","","","","","","","","","","","html-button-response","108","2.0.0","433171","614f571879ee135c5a579e08","1","26","6432","","","","","","","","","<img src= rock_img/I_Pegmatite_10.jpg style=""width:8cm; height:4.16cm;""><p style='font-size: 30px; color: red;'><strong>Incorrect!</strong></p><p style='font-size: 30px;'><strong>This rock is pegmatite</strong></p>","0","corr_feedback","1","train","2","","","","","","","",""
"","","","","","","","","","","","html-button-response","109","2.0.0","435674","614f571879ee135c5a579e08","1","26","2501","","","","","","","","","<img src= ""rock_img/I_Diorite_15.jpg"" style=""width:8cm; height:5.54cm;""><p>What type of rock is this?</p>","3","class_response","1","train","3","Gabbro","Diorite","15","false","4","3","",""
"","","","","","","","","","","","html-button-response","110","2.0.0","441942","614f571879ee135c5a579e08","1","26","6267","","","","","","","","","<img src= rock_img/I_Diorite_15.jpg style=""width:8cm; height:5.54cm;""><p style='font-size: 30px; color: red;'><strong>Incorrect!</strong></p><p style='font-size: 30px;'><strong>This rock is diorite</strong></p>","0","corr_feedback","1","train","3","","","","","","","",""
"","","","","","","","","","","","html-button-response","111","2.0.0","444287","614f571879ee135c5a579e08","1","26","2344","","","","","","","","","<img src= ""rock_img/I_Peridotite_07.jpg"" style=""width:8cm; height:4.83cm;""><p>What type of rock is this?</p>","6","class_response","1","train","4","Peridotite","Peridotite","07","true","7","7","",""
"","","","","","","","","","","","html-button-response","112","2.0.0","451949","614f571879ee135c5a579e08","1","26","7662","","","","","","","","","<img src= rock_img/I_Peridotite_07.jpg style=""width:8cm; height:4.83cm;""><p style='font-size: 30px; color: green;'><strong>Correct!</strong></p><p style='font-size: 30px;'><strong>This rock is peridotite</strong></p>","0","corr_feedback","1","train","4","","","","","","","",""
"","","","","","","","","","","","html-button-response","113","2.0.0","456137","614f571879ee135c5a579e08","1","26","4186","","","","","","","","","<img src= ""rock_img/I_Andesite_07.jpg"" style=""width:8cm; height:5.93cm;""><p>What type of rock is this?</p>","7","class_response","1","train","5","Pumice","Andesite","07","false","8","1","",""
"","","","","","","","","","","","html-button-response","114","2.0.0","462450","614f571879ee135c5a579e08","1","26","6312","","","","","","","","","<img src= rock_img/I_Andesite_07.jpg style=""width:8cm; height:5.93cm;""><p style='font-size: 30px; color: red;'><strong>Incorrect!</strong></p><p style='font-size: 30px;'><strong>This rock is andesite</strong></p>","0","corr_feedback","1","train","5","","","","","","","",""
"","","","","","","","","","","","html-button-response","115","2.0.0","464738","614f571879ee135c5a579e08","1","26","2287","","","","","","","","","<img src= ""rock_img/I_Basalt_05.jpg"" style=""width:8cm; height:8.18cm;""><p>What type of rock is this?</p>","5","class_response","1","train","6","Pegmatite","Basalt","05","false","6","2","",""
"","","","","","","","","","","","html-button-response","116","2.0.0","470997","614f571879ee135c5a579e08","1","26","6257","","","","","","","","","<img src= rock_img/I_Basalt_05.jpg style=""width:8cm; height:8.18cm;""><p style='font-size: 30px; color: red;'><strong>Incorrect!</strong></p><p style='font-size: 30px;'><strong>This rock is basalt</strong></p>","0","corr_feedback","1","train","6","","","","","","","",""
"","","","","","","","","","","","html-button-response","117","2.0.0","473351","614f571879ee135c5a579e08","1","26","2353","","","","","","","","","<img src= ""rock_img/I_Pegmatite_13.jpg"" style=""width:8cm; height:4.95cm;""><p>What type of rock is this?</p>","2","class_response","1","train","7","Diorite","Pegmatite","13","false","3","6","",""
"","","","","","","","","","","","html-button-response","118","2.0.0","479274","614f571879ee135c5a579e08","1","26","5921","","","","","","","","","<img src= rock_img/I_Pegmatite_13.jpg style=""width:8cm; height:4.95cm;""><p style='font-size: 30px; color: red;'><strong>Incorrect!</strong></p><p style='font-size: 30px;'><strong>This rock is pegmatite</strong></p>","0","corr_feedback","1","train","7","","","","","","","",""
"","","","","","","","","","","","html-button-response","119","2.0.0","482832","614f571879ee135c5a579e08","1","26","3558","","","","","","","","","<img src= ""rock_img/I_Gabbro_13.jpg"" style=""width:8cm; height:5.08cm;""><p>What type of rock is this?</p>","7","class_response","1","train","8","Pumice","Gabbro","13","false","8","4","",""
"","","","","","","","","","","","html-button-response","120","2.0.0","489974","614f571879ee135c5a579e08","1","26","7141","","","","","","","","","<img src= rock_img/I_Gabbro_13.jpg style=""width:8cm; height:5.08cm;""><p style='font-size: 30px; color: red;'><strong>Incorrect!</strong></p><p style='font-size: 30px;'><strong>This rock is gabbro</strong></p>","0","corr_feedback","1","train","8","","","","","","","",""
"","","","","","","","","","","","html-button-response","121","2.0.0","493439","614f571879ee135c5a579e08","1","26","3464","","","","","","","","","<img src= ""rock_img/I_Andesite_04.jpg"" style=""width:8cm; height:5.96cm;""><p>What type of rock is this?</p>","3","class_response","1","train","9","Gabbro","Andesite","04","false","4","1","",""
"","","","","","","","","","","","html-button-response","122","2.0.0","499466","614f571879ee135c5a579e08","1","26","6026","","","","","","","","","<img src= rock_img/I_Andesite_04.jpg style=""width:8cm; height:5.96cm;""><p style='font-size: 30px; color: red;'><strong>Incorrect!</strong></p><p style='font-size: 30px;'><strong>This rock is andesite</strong></p>","0","corr_feedback","1","train","9","","","","","","","",""
"","","","","","","","","","","","html-button-response","123","2.0.0","504174","614f571879ee135c5a579e08","1","26","4707","","","","","","","","","<img src= ""rock_img/I_Andesite_05.jpg"" style=""width:8cm; height:4.12cm;""><p>What type of rock is this?</p>","5","class_response","1","train","10","Pegmatite","Andesite","05","false","6","1","",""
"","","","","","","","","","","","html-button-response","124","2.0.0","508469","614f571879ee135c5a579e08","1","26","4294","","","","","","","","","<img src= rock_img/I_Andesite_05.jpg style=""width:8cm; height:4.12cm;""><p style='font-size: 30px; color: red;'><strong>Incorrect!</strong></p><p style='font-size: 30px;'><strong>This rock is andesite</strong></p>","0","corr_feedback","1","train","10","","","","","","","",""
"","","","","","","","","","","","html-button-response","125","2.0.0","509911","614f571879ee135c5a579e08","1","26","1441","","","","","","","","","<img src= ""rock_img/I_Obsidian_16.jpg"" style=""width:8cm; height:9.3cm;""><p>What type of rock is this?</p>","4","class_response","1","train","11","Obsidian","Obsidian","16","true","5","5","",""
"","","","","","","","","","","","html-button-response","126","2.0.0","512905","614f571879ee135c5a579e08","1","26","2992","","","","","","","","","<img src= rock_img/I_Obsidian_16.jpg style=""width:8cm; height:9.3cm;""><p style='font-size: 30px; color: green;'><strong>Correct!</strong></p><p style='font-size: 30px;'><strong>This rock is obsidian</strong></p>","0","corr_feedback","1","train","11","","","","","","","",""
"","","","","","","","","","","","html-button-response","127","2.0.0","515903","614f571879ee135c5a579e08","1","26","2996","","","","","","","","","<img src= ""rock_img/I_Gabbro_15.jpg"" style=""width:8cm; height:6.29cm;""><p>What type of rock is this?</p>","2","class_response","1","train","12","Diorite","Gabbro","15","false","3","4","",""
"","","","","","","","","","","","html-button-response","128","2.0.0","520950","614f571879ee135c5a579e08","1","26","5046","","","","","","","","","<img src= rock_img/I_Gabbro_15.jpg style=""width:8cm; height:6.29cm;""><p style='font-size: 30px; color: red;'><strong>Incorrect!</strong></p><p style='font-size: 30px;'><strong>This rock is gabbro</strong></p>","0","corr_feedback","1","train","12","","","","","","","",""
"","","","","","","","","","","","html-button-response","129","2.0.0","525620","614f571879ee135c5a579e08","1","26","4669","","","","","","","","","<img src= ""rock_img/I_Pumice_08.jpg"" style=""width:8cm; height:6.67cm;""><p>What type of rock is this?</p>","1","class_response","1","train","13","Basalt","Pumice","08","false","2","8","",""
"","","","","","","","","","","","html-button-response","130","2.0.0","529037","614f571879ee135c5a579e08","1","26","3415","","","","","","","","","<img src= rock_img/I_Pumice_08.jpg style=""width:8cm; height:6.67cm;""><p style='font-size: 30px; color: red;'><strong>Incorrect!</strong></p><p style='font-size: 30px;'><strong>This rock is pumice</strong></p>","0","corr_feedback","1","train","13","","","","","","","",""
"","","","","","","","","","","","html-button-response","131","2.0.0","531171","614f571879ee135c5a579e08","1","26","2134","","","","","","","","","<img src= ""rock_img/I_Gabbro_01.jpg"" style=""width:8cm; height:5.21cm;""><p>What type of rock is this?</p>","2","class_response","1","train","14","Diorite","Gabbro","01","false","3","4","",""
"","","","","","","","","","","","html-button-response","132","2.0.0","534421","614f571879ee135c5a579e08","1","26","3249","","","","","","","","","<img src= rock_img/I_Gabbro_01.jpg style=""width:8cm; height:5.21cm;""><p style='font-size: 30px; color: red;'><strong>Incorrect!</strong></p><p style='font-size: 30px;'><strong>This rock is gabbro</strong></p>","0","corr_feedback","1","train","14","","","","","","","",""
"","","","","","","","","","","","html-button-response","133","2.0.0","536041","614f571879ee135c5a579e08","1","26","1618","","","","","","","","","<img src= ""rock_img/I_Obsidian_14.jpg"" style=""width:8cm; height:7.64cm;""><p>What type of rock is this?</p>","4","class_response","1","train","15","Obsidian","Obsidian","14","true","5","5","",""
"","","","","","","","","","","","html-button-response","134","2.0.0","538853","614f571879ee135c5a579e08","1","26","2812","","","","","","","","","<img src= rock_img/I_Obsidian_14.jpg style=""width:8cm; height:7.64cm;""><p style='font-size: 30px; color: green;'><strong>Correct!</strong></p><p style='font-size: 30px;'><strong>This rock is obsidian</strong></p>","0","corr_feedback","1","train","15","","","","","","","",""
"","","","","","","","","","","","html-button-response","135","2.0.0","540952","614f571879ee135c5a579e08","1","26","2097","","","","","","","","","<img src= ""rock_img/I_Obsidian_05.jpg"" style=""width:8cm; height:6.33cm;""><p>What type of rock is this?</p>","4","class_response","1","train","16","Obsidian","Obsidian","05","true","5","5","",""
"","","","","","","","","","","","html-button-response","136","2.0.0","542262","614f571879ee135c5a579e08","1","26","1309","","","","","","","","","<img src= rock_img/I_Obsidian_05.jpg style=""width:8cm; height:6.33cm;""><p style='font-size: 30px; color: green;'><strong>Correct!</strong></p><p style='font-size: 30px;'><strong>This rock is obsidian</strong></p>","0","corr_feedback","1","train","16","","","","","","","",""
"","","","","","","","","","","","html-button-response","137","2.0.0","546077","614f571879ee135c5a579e08","1","26","3814","","","","","","","","","<img src= ""rock_img/I_Pumice_05.jpg"" style=""width:8cm; height:7.25cm;""><p>What type of rock is this?</p>","7","class_response","1","train","17","Pumice","Pumice","05","true","8","8","",""
"","","","","","","","","","","","html-button-response","138","2.0.0","547362","614f571879ee135c5a579e08","1","26","1285","","","","","","","","","<img src= rock_img/I_Pumice_05.jpg style=""width:8cm; height:7.25cm;""><p style='font-size: 30px; color: green;'><strong>Correct!</strong></p><p style='font-size: 30px;'><strong>This rock is pumice</strong></p>","0","corr_feedback","1","train","17","","","","","","","",""
"","","","","","","","","","","","html-button-response","139","2.0.0","553166","614f571879ee135c5a579e08","1","26","5802","","","","","","","","","<img src= ""rock_img/I_Basalt_04.jpg"" style=""width:8cm; height:7.53cm;""><p>What type of rock is this?</p>","6","class_response","1","train","18","Peridotite","Basalt","04","false","7","2","",""
"","","","","","","","","","","","html-button-response","140","2.0.0","554814","614f571879ee135c5a579e08","1","26","1647","","","","","","","","","<img src= rock_img/I_Basalt_04.jpg style=""width:8cm; height:7.53cm;""><p style='font-size: 30px; color: red;'><strong>Incorrect!</strong></p><p style='font-size: 30px;'><strong>This rock is basalt</strong></p>","0","corr_feedback","1","train","18","","","","","","","",""
"","","","","","","","","","","","html-button-response","141","2.0.0","562840","614f571879ee135c5a579e08","1","26","8026","","","","","","","","","<img src= ""rock_img/I_Pegmatite_07.jpg"" style=""width:8cm; height:6.7cm;""><p>What type of rock is this?</p>","7","class_response","1","train","19","Pumice","Pegmatite","07","false","8","6","",""
"","","","","","","","","","","","html-button-response","142","2.0.0","564823","614f571879ee135c5a579e08","1","26","1981","","","","","","","","","<img src= rock_img/I_Pegmatite_07.jpg style=""width:8cm; height:6.7cm;""><p style='font-size: 30px; color: red;'><strong>Incorrect!</strong></p><p style='font-size: 30px;'><strong>This rock is pegmatite</strong></p>","0","corr_feedback","1","train","19","","","","","","","",""
"","","","","","","","","","","","html-button-response","143","2.0.0","569002","614f571879ee135c5a579e08","1","26","4178","","","","","","","","","<img src= ""rock_img/I_Peridotite_08.jpg"" style=""width:8cm; height:6.7cm;""><p>What type of rock is this?</p>","6","class_response","1","train","20","Peridotite","Peridotite","08","true","7","7","",""
"","","","","","","","","","","","html-button-response","144","2.0.0","570034","614f571879ee135c5a579e08","1","26","1031","","","","","","","","","<img src= rock_img/I_Peridotite_08.jpg style=""width:8cm; height:6.7cm;""><p style='font-size: 30px; color: green;'><strong>Correct!</strong></p><p style='font-size: 30px;'><strong>This rock is peridotite</strong></p>","0","corr_feedback","1","train","20","","","","","","","",""
"","","","","","","","","","","","html-button-response","145","2.0.0","574216","614f571879ee135c5a579e08","1","26","4180","","","","","","","","","<img src= ""rock_img/I_Basalt_12.jpg"" style=""width:8cm; height:6.010000000000001cm;""><p>What type of rock is this?</p>","6","class_response","1","train","21","Peridotite","Basalt","12","false","7","2","",""
"","","","","","","","","","","","html-button-response","146","2.0.0","575645","614f571879ee135c5a579e08","1","26","1429","","","","","","","","","<img src= rock_img/I_Basalt_12.jpg style=""width:8cm; height:6.010000000000001cm;""><p style='font-size: 30px; color: red;'><strong>Incorrect!</strong></p><p style='font-size: 30px;'><strong>This rock is basalt</strong></p>","0","corr_feedback","1","train","21","","","","","","","",""
"","","","","","","","","","","","html-button-response","147","2.0.0","578498","614f571879ee135c5a579e08","1","26","2851","","","","","","","","","<img src= ""rock_img/I_Andesite_02.jpg"" style=""width:8cm; height:8.5cm;""><p>What type of rock is this?</p>","2","class_response","1","train","22","Diorite","Andesite","02","false","3","1","",""
"","","","","","","","","","","","html-button-response","148","2.0.0","580404","614f571879ee135c5a579e08","1","26","1906","","","","","","","","","<img src= rock_img/I_Andesite_02.jpg style=""width:8cm; height:8.5cm;""><p style='font-size: 30px; color: red;'><strong>Incorrect!</strong></p><p style='font-size: 30px;'><strong>This rock is andesite</strong></p>","0","corr_feedback","1","train","22","","","","","","","",""
"","","","","","","","","","","","html-button-response","149","2.0.0","587479","614f571879ee135c5a579e08","1","26","7073","","","","","","","","","<img src= ""rock_img/I_Pegmatite_08.jpg"" style=""width:8cm; height:7.68cm;""><p>What type of rock is this?</p>","1","class_response","1","train","23","Basalt","Pegmatite","08","false","2","6","",""
"","","","","","","","","","","","html-button-response","150","2.0.0","588705","614f571879ee135c5a579e08","1","26","1225","","","","","","","","","<img src= rock_img/I_Pegmatite_08.jpg style=""width:8cm; height:7.68cm;""><p style='font-size: 30px; color: red;'><strong>Incorrect!</strong></p><p style='font-size: 30px;'><strong>This rock is pegmatite</strong></p>","0","corr_feedback","1","train","23","","","","","","","",""
"","","","","","","","","","","","html-button-response","151","2.0.0","593943","614f571879ee135c5a579e08","1","26","5236","","","","","","","","","<img src= ""rock_img/I_Peridotite_04.jpg"" style=""width:8cm; height:6.680000000000001cm;""><p>What type of rock is this?</p>","0","class_response","1","train","24","Andesite","Peridotite","04","false","1","7","",""
"","","","","","","","","","","","html-button-response","152","2.0.0","595155","614f571879ee135c5a579e08","1","26","1211","","","","","","","","","<img src= rock_img/I_Peridotite_04.jpg style=""width:8cm; height:6.680000000000001cm;""><p style='font-size: 30px; color: red;'><strong>Incorrect!</strong></p><p style='font-size: 30px;'><strong>This rock is peridotite</strong></p>","0","corr_feedback","1","train","24","","","","","","","",""
"","","","","","","","","","","","html-button-response","153","2.0.0","596463","614f571879ee135c5a579e08","1","26","1307","","","","","","","","","<img src= ""rock_img/I_Obsidian_10.jpg"" style=""width:8cm; height:6.260000000000001cm;""><p>What type of rock is this?</p>","4","class_response","1","train","25","Obsidian","Obsidian","10","true","5","5","",""
"","","","","","","","","","","","html-button-response","154","2.0.0","597242","614f571879ee135c5a579e08","1","26","778","","","","","","","","","<img src= rock_img/I_Obsidian_10.jpg style=""width:8cm; height:6.260000000000001cm;""><p style='font-size: 30px; color: green;'><strong>Correct!</strong></p><p style='font-size: 30px;'><strong>This rock is obsidian</strong></p>","0","corr_feedback","1","train","25","","","","","","","",""
"","","","","","","","","","","","html-button-response","155","2.0.0","604562","614f571879ee135c5a579e08","1","26","7318","","","","","","","","","<img src= ""rock_img/I_Gabbro_16.jpg"" style=""width:8cm; height:6.44cm;""><p>What type of rock is this?</p>","6","class_response","1","train","26","Peridotite","Gabbro","16","false","7","4","",""
"","","","","","","","","","","","html-button-response","156","2.0.0","605593","614f571879ee135c5a579e08","1","26","1031","","","","","","","","","<img src= rock_img/I_Gabbro_16.jpg style=""width:8cm; height:6.44cm;""><p style='font-size: 30px; color: red;'><strong>Incorrect!</strong></p><p style='font-size: 30px;'><strong>This rock is gabbro</strong></p>","0","corr_feedback","1","train","26","","","","","","","",""
"","","","","","","","","","","","html-button-response","157","2.0.0","607035","614f571879ee135c5a579e08","1","26","1440","","","","","","","","","<img src= ""rock_img/I_Basalt_10.jpg"" style=""width:8cm; height:5.85cm;""><p>What type of rock is this?</p>","4","class_response","1","train","27","Obsidian","Basalt","10","false","5","2","",""
"","","","","","","","","","","","html-button-response","158","2.0.0","608015","614f571879ee135c5a579e08","1","26","979","","","","","","","","","<img src= rock_img/I_Basalt_10.jpg style=""width:8cm; height:5.85cm;""><p style='font-size: 30px; color: red;'><strong>Incorrect!</strong></p><p style='font-size: 30px;'><strong>This rock is basalt</strong></p>","0","corr_feedback","1","train","27","","","","","","","",""
"","","","","","","","","","","","html-button-response","159","2.0.0","610579","614f571879ee135c5a579e08","1","26","2563","","","","","","","","","<img src= ""rock_img/I_Andesite_16.jpg"" style=""width:8cm; height:6.010000000000001cm;""><p>What type of rock is this?</p>","0","class_response","1","train","28","Andesite","Andesite","16","true","1","1","",""
"","","","","","","","","","","","html-button-response","160","2.0.0","611635","614f571879ee135c5a579e08","1","26","1055","","","","","","","","","<img src= rock_img/I_Andesite_16.jpg style=""width:8cm; height:6.010000000000001cm;""><p style='font-size: 30px; color: green;'><strong>Correct!</strong></p><p style='font-size: 30px;'><strong>This rock is andesite</strong></p>","0","corr_feedback","1","train","28","","","","","","","",""
"","","","","","","","","","","","html-button-response","161","2.0.0","613351","614f571879ee135c5a579e08","1","26","1714","","","","","","","","","<img src= ""rock_img/I_Peridotite_10.jpg"" style=""width:8cm; height:5.390000000000001cm;""><p>What type of rock is this?</p>","0","class_response","1","train","29","Andesite","Peridotite","10","false","1","7","",""
"","","","","","","","","","","","html-button-response","162","2.0.0","614227","614f571879ee135c5a579e08","1","26","875","","","","","","","","","<img src= rock_img/I_Peridotite_10.jpg style=""width:8cm; height:5.390000000000001cm;""><p style='font-size: 30px; color: red;'><strong>Incorrect!</strong></p><p style='font-size: 30px;'><strong>This rock is peridotite</strong></p>","0","corr_feedback","1","train","29","","","","","","","",""
"","","","","","","","","","","","html-button-response","163","2.0.0","615505","614f571879ee135c5a579e08","1","26","1277","","","","","","","","","<img src= ""rock_img/I_Obsidian_09.jpg"" style=""width:8cm; height:5cm;""><p>What type of rock is this?</p>","4","class_response","1","train","30","Obsidian","Obsidian","09","true","5","5","",""
"","","","","","","","","","","","html-button-response","164","2.0.0","616293","614f571879ee135c5a579e08","1","26","787","","","","","","","","","<img src= rock_img/I_Obsidian_09.jpg style=""width:8cm; height:5cm;""><p style='font-size: 30px; color: green;'><strong>Correct!</strong></p><p style='font-size: 30px;'><strong>This rock is obsidian</strong></p>","0","corr_feedback","1","train","30","","","","","","","",""
"","","","","","","","","","","","html-button-response","165","2.0.0","619972","614f571879ee135c5a579e08","1","26","3678","","","","","","","","","<img src= ""rock_img/I_Peridotite_16.jpg"" style=""width:8cm; height:6.989999999999999cm;""><p>What type of rock is this?</p>","5","class_response","1","train","31","Pegmatite","Peridotite","16","false","6","7","",""
"","","","","","","","","","","","html-button-response","166","2.0.0","620899","614f571879ee135c5a579e08","1","26","927","","","","","","","","","<img src= rock_img/I_Peridotite_16.jpg style=""width:8cm; height:6.989999999999999cm;""><p style='font-size: 30px; color: red;'><strong>Incorrect!</strong></p><p style='font-size: 30px;'><strong>This rock is peridotite</strong></p>","0","corr_feedback","1","train","31","","","","","","","",""
"","","","","","","","","","","","html-button-response","167","2.0.0","624911","614f571879ee135c5a579e08","1","26","4011","","","","","","","","","<img src= ""rock_img/I_Gabbro_08.jpg"" style=""width:8cm; height:5.15cm;""><p>What type of rock is this?</p>","0","class_response","1","train","32","Andesite","Gabbro","08","false","1","4","",""
"","","","","","","","","","","","html-button-response","168","2.0.0","625758","614f571879ee135c5a579e08","1","26","846","","","","","","","","","<img src= rock_img/I_Gabbro_08.jpg style=""width:8cm; height:5.15cm;""><p style='font-size: 30px; color: red;'><strong>Incorrect!</strong></p><p style='font-size: 30px;'><strong>This rock is gabbro</strong></p>","0","corr_feedback","1","train","32","","","","","","","",""
"","","","","","","","","","","","html-button-response","169","2.0.0","630106","614f571879ee135c5a579e08","1","26","4346","","","","","","","","","<img src= ""rock_img/I_Pumice_13.jpg"" style=""width:8cm; height:8.200000000000001cm;""><p>What type of rock is this?</p>","6","class_response","1","train","33","Peridotite","Pumice","13","false","7","8","",""
"","","","","","","","","","","","html-button-response","170","2.0.0","631160","614f571879ee135c5a579e08","1","26","1053","","","","","","","","","<img src= rock_img/I_Pumice_13.jpg style=""width:8cm; height:8.200000000000001cm;""><p style='font-size: 30px; color: red;'><strong>Incorrect!</strong></p><p style='font-size: 30px;'><strong>This rock is pumice</strong></p>","0","corr_feedback","1","train","33","","","","","","","",""
"","","","","","","","","","","","html-button-response","171","2.0.0","640247","614f571879ee135c5a579e08","1","26","9086","","","","","","","","","<img src= ""rock_img/I_Andesite_10.jpg"" style=""width:8cm; height:4.16cm;""><p>What type of rock is this?</p>","6","class_response","1","train","34","Peridotite","Andesite","10","false","7","1","",""
"","","","","","","","","","","","html-button-response","172","2.0.0","641196","614f571879ee135c5a579e08","1","26","948","","","","","","","","","<img src= rock_img/I_Andesite_10.jpg style=""width:8cm; height:4.16cm;""><p style='font-size: 30px; color: red;'><strong>Incorrect!</strong></p><p style='font-size: 30px;'><strong>This rock is andesite</strong></p>","0","corr_feedback","1","train","34","","","","","","","",""
"","","","","","","","","","","","html-button-response","173","2.0.0","644963","614f571879ee135c5a579e08","1","26","3765","","","","","","","","","<img src= ""rock_img/I_Basalt_14.jpg"" style=""width:8cm; height:5.82cm;""><p>What type of rock is this?</p>","3","class_response","1","train","35","Gabbro","Basalt","14","false","4","2","",""
"","","","","","","","","","","","html-button-response","174","2.0.0","645872","614f571879ee135c5a579e08","1","26","908","","","","","","","","","<img src= rock_img/I_Basalt_14.jpg style=""width:8cm; height:5.82cm;""><p style='font-size: 30px; color: red;'><strong>Incorrect!</strong></p><p style='font-size: 30px;'><strong>This rock is basalt</strong></p>","0","corr_feedback","1","train","35","","","","","","","",""
"","","","","","","","","","","","html-button-response","175","2.0.0","649828","614f571879ee135c5a579e08","1","26","3955","","","","","","","","","<img src= ""rock_img/I_Basalt_02.jpg"" style=""width:8cm; height:6.45cm;""><p>What type of rock is this?</p>","1","class_response","1","train","36","Basalt","Basalt","02","true","2","2","",""
"","","","","","","","","","","","html-button-response","176","2.0.0","650839","614f571879ee135c5a579e08","1","26","1010","","","","","","","","","<img src= rock_img/I_Basalt_02.jpg style=""width:8cm; height:6.45cm;""><p style='font-size: 30px; color: green;'><strong>Correct!</strong></p><p style='font-size: 30px;'><strong>This rock is basalt</strong></p>","0","corr_feedback","1","train","36","","","","","","","",""
"","","","","","","","","","","","html-button-response","177","2.0.0","655759","614f571879ee135c5a579e08","1","26","4919","","","","","","","","","<img src= ""rock_img/I_Diorite_11.jpg"" style=""width:8cm; height:7.11cm;""><p>What type of rock is this?</p>","7","class_response","1","train","37","Pumice","Diorite","11","false","8","3","",""
"","","","","","","","","","","","html-button-response","178","2.0.0","656857","614f571879ee135c5a579e08","1","26","1097","","","","","","","","","<img src= rock_img/I_Diorite_11.jpg style=""width:8cm; height:7.11cm;""><p style='font-size: 30px; color: red;'><strong>Incorrect!</strong></p><p style='font-size: 30px;'><strong>This rock is diorite</strong></p>","0","corr_feedback","1","train","37","","","","","","","",""
"","","","","","","","","","","","html-button-response","179","2.0.0","658068","614f571879ee135c5a579e08","1","26","1210","","","","","","","","","<img src= ""rock_img/I_Obsidian_11.jpg"" style=""width:8cm; height:6.05cm;""><p>What type of rock is this?</p>","4","class_response","1","train","38","Obsidian","Obsidian","11","true","5","5","",""
"","","","","","","","","","","","html-button-response","180","2.0.0","658922","614f571879ee135c5a579e08","1","26","854","","","","","","","","","<img src= rock_img/I_Obsidian_11.jpg style=""width:8cm; height:6.05cm;""><p style='font-size: 30px; color: green;'><strong>Correct!</strong></p><p style='font-size: 30px;'><strong>This rock is obsidian</strong></p>","0","corr_feedback","1","train","38","","","","","","","",""
"","","","","","","","","","","","html-button-response","181","2.0.0","661597","614f571879ee135c5a579e08","1","26","2673","","","","","","","","","<img src= ""rock_img/I_Pegmatite_11.jpg"" style=""width:8cm; height:8.14cm;""><p>What type of rock is this?</p>","5","class_response","1","train","39","Pegmatite","Pegmatite","11","true","6","6","",""
"","","","","","","","","","","","html-button-response","182","2.0.0","662281","614f571879ee135c5a579e08","1","26","683","","","","","","","","","<img src= rock_img/I_Pegmatite_11.jpg style=""width:8cm; height:8.14cm;""><p style='font-size: 30px; color: green;'><strong>Correct!</strong></p><p style='font-size: 30px;'><strong>This rock is pegmatite</strong></p>","0","corr_feedback","1","train","39","","","","","","","",""
"","","","","","","","","","","","html-button-response","183","2.0.0","666514","614f571879ee135c5a579e08","1","26","4232","","","","","","","","","<img src= ""rock_img/I_Pumice_16.jpg"" style=""width:8cm; height:6.79cm;""><p>What type of rock is this?</p>","7","class_response","1","train","40","Pumice","Pumice","16","true","8","8","",""
"","","","","","","","","","","","html-button-response","184","2.0.0","667302","614f571879ee135c5a579e08","1","26","786","","","","","","","","","<img src= rock_img/I_Pumice_16.jpg style=""width:8cm; height:6.79cm;""><p style='font-size: 30px; color: green;'><strong>Correct!</strong></p><p style='font-size: 30px;'><strong>This rock is pumice</strong></p>","0","corr_feedback","1","train","40","","","","","","","",""
"","","","","","","","","","","","html-button-response","185","2.0.0","669768","614f571879ee135c5a579e08","1","26","2465","","","","","","","","","<img src= ""rock_img/I_Diorite_13.jpg"" style=""width:8cm; height:6.29cm;""><p>What type of rock is this?</p>","2","class_response","1","train","41","Diorite","Diorite","13","true","3","3","",""
"","","","","","","","","","","","html-button-response","186","2.0.0","670544","614f571879ee135c5a579e08","1","26","774","","","","","","","","","<img src= rock_img/I_Diorite_13.jpg style=""width:8cm; height:6.29cm;""><p style='font-size: 30px; color: green;'><strong>Correct!</strong></p><p style='font-size: 30px;'><strong>This rock is diorite</strong></p>","0","corr_feedback","1","train","41","","","","","","","",""
"","","","","","","","","","","","html-button-response","187","2.0.0","675867","614f571879ee135c5a579e08","1","26","5322","","","","","","","","","<img src= ""rock_img/I_Pumice_15.jpg"" style=""width:8cm; height:7.86cm;""><p>What type of rock is this?</p>","7","class_response","1","train","42","Pumice","Pumice","15","true","8","8","",""
"","","","","","","","","","","","html-button-response","188","2.0.0","676685","614f571879ee135c5a579e08","1","26","817","","","","","","","","","<img src= rock_img/I_Pumice_15.jpg style=""width:8cm; height:7.86cm;""><p style='font-size: 30px; color: green;'><strong>Correct!</strong></p><p style='font-size: 30px;'><strong>This rock is pumice</strong></p>","0","corr_feedback","1","train","42","","","","","","","",""
"","","","","","","","","","","","html-button-response","189","2.0.0","677948","614f571879ee135c5a579e08","1","26","1262","","","","","","","","","<img src= ""rock_img/I_Pumice_06.jpg"" style=""width:8cm; height:6.9399999999999995cm;""><p>What type of rock is this?</p>","7","class_response","1","train","43","Pumice","Pumice","06","true","8","8","",""
"","","","","","","","","","","","html-button-response","190","2.0.0","678667","614f571879ee135c5a579e08","1","26","718","","","","","","","","","<img src= rock_img/I_Pumice_06.jpg style=""width:8cm; height:6.9399999999999995cm;""><p style='font-size: 30px; color: green;'><strong>Correct!</strong></p><p style='font-size: 30px;'><strong>This rock is pumice</strong></p>","0","corr_feedback","1","train","43","","","","","","","",""
"","","","","","","","","","","","html-button-response","191","2.0.0","680488","614f571879ee135c5a579e08","1","26","1819","","","","","","","","","<img src= ""rock_img/I_Diorite_08.jpg"" style=""width:8cm; height:6.37cm;""><p>What type of rock is this?</p>","2","class_response","1","train","44","Diorite","Diorite","08","true","3","3","",""
"","","","","","","","","","","","html-button-response","192","2.0.0","681194","614f571879ee135c5a579e08","1","26","705","","","","","","","","","<img src= rock_img/I_Diorite_08.jpg style=""width:8cm; height:6.37cm;""><p style='font-size: 30px; color: green;'><strong>Correct!</strong></p><p style='font-size: 30px;'><strong>This rock is diorite</strong></p>","0","corr_feedback","1","train","44","","","","","","","",""
"","","","","","","","","","","","html-button-response","193","2.0.0","683757","614f571879ee135c5a579e08","1","26","2562","","","","","","","","","<img src= ""rock_img/I_Peridotite_12.jpg"" style=""width:8cm; height:4.54cm;""><p>What type of rock is this?</p>","1","class_response","1","train","45","Basalt","Peridotite","12","false","2","7","",""
"","","","","","","","","","","","html-button-response","194","2.0.0","685221","614f571879ee135c5a579e08","1","26","1463","","","","","","","","","<img src= rock_img/I_Peridotite_12.jpg style=""width:8cm; height:4.54cm;""><p style='font-size: 30px; color: red;'><strong>Incorrect!</strong></p><p style='font-size: 30px;'><strong>This rock is peridotite</strong></p>","0","corr_feedback","1","train","45","","","","","","","",""
"","","","","","","","","","","","html-button-response","195","2.0.0","689033","614f571879ee135c5a579e08","1","26","3812","","","","","","","","","<img src= ""rock_img/I_Pegmatite_16.jpg"" style=""width:8cm; height:5.8cm;""><p>What type of rock is this?</p>","7","class_response","1","train","46","Pumice","Pegmatite","16","false","8","6","",""
"","","","","","","","","","","","html-button-response","196","2.0.0","689937","614f571879ee135c5a579e08","1","26","903","","","","","","","","","<img src= rock_img/I_Pegmatite_16.jpg style=""width:8cm; height:5.8cm;""><p style='font-size: 30px; color: red;'><strong>Incorrect!</strong></p><p style='font-size: 30px;'><strong>This rock is pegmatite</strong></p>","0","corr_feedback","1","train","46","","","","","","","",""
"","","","","","","","","","","","html-button-response","197","2.0.0","695628","614f571879ee135c5a579e08","1","26","5690","","","","","","","","","<img src= ""rock_img/I_Gabbro_12.jpg"" style=""width:8cm; height:7.800000000000001cm;""><p>What type of rock is this?</p>","5","class_response","1","train","47","Pegmatite","Gabbro","12","false","6","4","",""
"","","","","","","","","","","","html-button-response","198","2.0.0","696489","614f571879ee135c5a579e08","1","26","860","","","","","","","","","<img src= rock_img/I_Gabbro_12.jpg style=""width:8cm; height:7.800000000000001cm;""><p style='font-size: 30px; color: red;'><strong>Incorrect!</strong></p><p style='font-size: 30px;'><strong>This rock is gabbro</strong></p>","0","corr_feedback","1","train","47","","","","","","","",""
"","","","","","","","","","","","html-button-response","199","2.0.0","699818","614f571879ee135c5a579e08","1","26","3327","","","","","","","","","<img src= ""rock_img/I_Diorite_12.jpg"" style=""width:8cm; height:4.88cm;""><p>What type of rock is this?</p>","2","class_response","1","train","48","Diorite","Diorite","12","true","3","3","",""
"","","","","","","","","","","","html-button-response","200","2.0.0","700508","614f571879ee135c5a579e08","1","26","690","","","","","","","","","<img src= rock_img/I_Diorite_12.jpg style=""width:8cm; height:4.88cm;""><p style='font-size: 30px; color: green;'><strong>Correct!</strong></p><p style='font-size: 30px;'><strong>This rock is diorite</strong></p>","0","corr_feedback","1","train","48","","","","","","","",""
"","","","","","","","","","","","instructions","203","2.0.0","727296","614f571879ee135c5a579e08","1","26","26786","","","","","","","","[{""page_index"":0,""viewing_time"":9586},{""page_index"":1,""viewing_time"":17200}]","","","","","","","","","","","","","",""
"","","","","","","","","","","","html-button-response","204","2.0.0","730067","614f571879ee135c5a579e08","1","26","2770","","","","","","","","","","0","start_test","","","","","","","","","","",""
"","","","","","","","","","","","html-button-response","205","2.0.0","739805","614f571879ee135c5a579e08","1","26","9737","","","","","","","","","<img src= ""rock_img/I_Basalt_09.jpg"" style=""width:8cm; height:6.2cm;""><p>What type of rock is this?</p>","3","class_response","1","test","1","Gabbro","Basalt","09","false","4","2","",""
"","","","","","","","","","","","html-keyboard-response","206","2.0.0","740307","614f571879ee135c5a579e08","1","26","null","","","","","","","","","<p style='font-size: 30px;'><strong>Okay</strong></p>","null","neutral_feedback","1","test","1","","","","","","","",""
"","","","","","","","","","","","html-button-response","207","2.0.0","743373","614f571879ee135c5a579e08","1","26","3064","","","","","","","","","<img src= ""rock_img/I_Basalt_08.jpg"" style=""width:8cm; height:10.44cm;""><p>What type of rock is this?</p>","3","class_response","1","test","2","Gabbro","Basalt","08","false","4","2","",""
"","","","","","","","","","","","html-keyboard-response","208","2.0.0","743886","614f571879ee135c5a579e08","1","26","null","","","","","","","","","<p style='font-size: 30px;'><strong>Okay</strong></p>","null","neutral_feedback","1","test","2","","","","","","","",""
"","","","","","","","","","","","html-button-response","209","2.0.0","747897","614f571879ee135c5a579e08","1","26","4010","","","","","","","","","<img src= ""rock_img/I_Pumice_09.jpg"" style=""width:8cm; height:6.44cm;""><p>What type of rock is this?</p>","2","class_response","1","test","3","Diorite","Pumice","09","false","3","8","",""
"","","","","","","","","","","","html-keyboard-response","210","2.0.0","748401","614f571879ee135c5a579e08","1","26","null","","","","","","","","","<p style='font-size: 30px;'><strong>Okay</strong></p>","null","neutral_feedback","1","test","3","","","","","","","",""
"","","","","","","","","","","","html-button-response","211","2.0.0","751567","614f571879ee135c5a579e08","1","26","3164","","","","","","","","","<img src= ""rock_img/I_Andesite_11.jpg"" style=""width:8cm; height:4.92cm;""><p>What type of rock is this?</p>","5","class_response","1","test","4","Pegmatite","Andesite","11","false","6","1","",""
"","","","","","","","","","","","html-keyboard-response","212","2.0.0","752073","614f571879ee135c5a579e08","1","26","null","","","","","","","","","<p style='font-size: 30px;'><strong>Okay</strong></p>","null","neutral_feedback","1","test","4","","","","","","","",""
"","","","","","","","","","","","html-button-response","213","2.0.0","754107","614f571879ee135c5a579e08","1","26","2033","","","","","","","","","<img src= ""rock_img/I_Diorite_16.jpg"" style=""width:8cm; height:6.74cm;""><p>What type of rock is this?</p>","2","class_response","1","test","5","Diorite","Diorite","16","true","3","3","",""
"","","","","","","","","","","","html-keyboard-response","214","2.0.0","754618","614f571879ee135c5a579e08","1","26","null","","","","","","","","","<p style='font-size: 30px;'><strong>Okay</strong></p>","null","neutral_feedback","1","test","5","","","","","","","",""
"","","","","","","","","","","","html-button-response","215","2.0.0","760839","614f571879ee135c5a579e08","1","26","6220","","","","","","","","","<img src= ""rock_img/I_Andesite_01.jpg"" style=""width:8cm; height:5.87cm;""><p>What type of rock is this?</p>","6","class_response","1","test","6","Peridotite","Andesite","01","false","7","1","",""
"","","","","","","","","","","","html-keyboard-response","216","2.0.0","761348","614f571879ee135c5a579e08","1","26","null","","","","","","","","","<p style='font-size: 30px;'><strong>Okay</strong></p>","null","neutral_feedback","1","test","6","","","","","","","",""
"","","","","","","","","","","","html-button-response","217","2.0.0","762777","614f571879ee135c5a579e08","1","26","1427","","","","","","","","","<img src= ""rock_img/I_Peridotite_15.jpg"" style=""width:8cm; height:6cm;""><p>What type of rock is this?</p>","2","class_response","1","test","7","Diorite","Peridotite","15","false","3","7","",""
"","","","","","","","","","","","html-keyboard-response","218","2.0.0","763285","614f571879ee135c5a579e08","1","26","null","","","","","","","","","<p style='font-size: 30px;'><strong>Okay</strong></p>","null","neutral_feedback","1","test","7","","","","","","","",""
"","","","","","","","","","","","html-button-response","219","2.0.0","791282","614f571879ee135c5a579e08","1","26","27995","","","","","","","","","<img src= ""rock_img/I_Andesite_06.jpg"" style=""width:8cm; height:6.840000000000001cm;""><p>What type of rock is this?</p>","3","class_response","1","test","8","Gabbro","Andesite","06","false","4","1","",""
"","","","","","","","","","","","html-keyboard-response","220","2.0.0","791783","614f571879ee135c5a579e08","1","26","null","","","","","","","","","<p style='font-size: 30px;'><strong>Okay</strong></p>","null","neutral_feedback","1","test","8","","","","","","","",""
"","","","","","","","","","","","html-button-response","221","2.0.0","802418","614f571879ee135c5a579e08","1","26","10634","","","","","","","","","<img src= ""rock_img/I_Andesite_03.jpg"" style=""width:8cm; height:5.73cm;""><p>What type of rock is this?</p>","0","class_response","1","test","9","Andesite","Andesite","03","true","1","1","",""
"","","","","","","","","","","","html-keyboard-response","222","2.0.0","802919","614f571879ee135c5a579e08","1","26","null","","","","","","","","","<p style='font-size: 30px;'><strong>Okay</strong></p>","null","neutral_feedback","1","test","9","","","","","","","",""
"","","","","","","","","","","","html-button-response","223","2.0.0","823804","614f571879ee135c5a579e08","1","26","20883","","","","","","","","","<img src= ""rock_img/I_Gabbro_11.jpg"" style=""width:8cm; height:6.2cm;""><p>What type of rock is this?</p>","3","class_response","1","test","10","Gabbro","Gabbro","11","true","4","4","",""
"","","","","","","","","","","","html-keyboard-response","224","2.0.0","824305","614f571879ee135c5a579e08","1","26","null","","","","","","","","","<p style='font-size: 30px;'><strong>Okay</strong></p>","null","neutral_feedback","1","test","10","","","","","","","",""
"","","","","","","","","","","","html-button-response","225","2.0.0","842156","614f571879ee135c5a579e08","1","26","17849","","","","","","","","","<img src= ""rock_img/I_Pumice_14.jpg"" style=""width:8cm; height:6.39cm;""><p>What type of rock is this?</p>","7","class_response","1","test","11","Pumice","Pumice","14","true","8","8","",""
"","","","","","","","","","","","html-keyboard-response","226","2.0.0","842671","614f571879ee135c5a579e08","1","26","null","","","","","","","","","<p style='font-size: 30px;'><strong>Okay</strong></p>","null","neutral_feedback","1","test","11","","","","","","","",""
"","","","","","","","","","","","html-button-response","227","2.0.0","853566","614f571879ee135c5a579e08","1","26","10894","","","","","","","","","<img src= ""rock_img/I_Gabbro_10.jpg"" style=""width:8cm; height:5.680000000000001cm;""><p>What type of rock is this?</p>","1","class_response","1","test","12","Basalt","Gabbro","10","false","2","4","",""
"","","","","","","","","","","","html-keyboard-response","228","2.0.0","854068","614f571879ee135c5a579e08","1","26","null","","","","","","","","","<p style='font-size: 30px;'><strong>Okay</strong></p>","null","neutral_feedback","1","test","12","","","","","","","",""
"","","","","","","","","","","","html-button-response","229","2.0.0","855716","614f571879ee135c5a579e08","1","26","1646","","","","","","","","","<img src= ""rock_img/I_Obsidian_06.jpg"" style=""width:8cm; height:6.8cm;""><p>What type of rock is this?</p>","4","class_response","1","test","13","Obsidian","Obsidian","06","true","5","5","",""
"","","","","","","","","","","","html-keyboard-response","230","2.0.0","856217","614f571879ee135c5a579e08","1","26","null","","","","","","","","","<p style='font-size: 30px;'><strong>Okay</strong></p>","null","neutral_feedback","1","test","13","","","","","","","",""
"","","","","","","","","","","","html-button-response","231","2.0.0","863583","614f571879ee135c5a579e08","1","26","7365","","","","","","","","","<img src= ""rock_img/I_Peridotite_13.jpg"" style=""width:8cm; height:7.58cm;""><p>What type of rock is this?</p>","0","class_response","1","test","14","Andesite","Peridotite","13","false","1","7","",""
"","","","","","","","","","","","html-keyboard-response","232","2.0.0","864086","614f571879ee135c5a579e08","1","26","null","","","","","","","","","<p style='font-size: 30px;'><strong>Okay</strong></p>","null","neutral_feedback","1","test","14","","","","","","","",""
"","","","","","","","","","","","html-button-response","233","2.0.0","878867","614f571879ee135c5a579e08","1","26","14780","","","","","","","","","<img src= ""rock_img/I_Peridotite_14.jpg"" style=""width:8cm; height:5.3cm;""><p>What type of rock is this?</p>","5","class_response","1","test","15","Pegmatite","Peridotite","14","false","6","7","",""
"","","","","","","","","","","","html-keyboard-response","234","2.0.0","879369","614f571879ee135c5a579e08","1","26","null","","","","","","","","","<p style='font-size: 30px;'><strong>Okay</strong></p>","null","neutral_feedback","1","test","15","","","","","","","",""
"","","","","","","","","","","","html-button-response","235","2.0.0","884931","614f571879ee135c5a579e08","1","26","5562","","","","","","","","","<img src= ""rock_img/I_Peridotite_05.jpg"" style=""width:8cm; height:7.1499999999999995cm;""><p>What type of rock is this?</p>","2","class_response","1","test","16","Diorite","Peridotite","05","false","3","7","",""
"","","","","","","","","","","","html-keyboard-response","236","2.0.0","885436","614f571879ee135c5a579e08","1","26","null","","","","","","","","","<p style='font-size: 30px;'><strong>Okay</strong></p>","null","neutral_feedback","1","test","16","","","","","","","",""
"","","","","","","","","","","","html-button-response","237","2.0.0","893034","614f571879ee135c5a579e08","1","26","7597","","","","","","","","","<img src= ""rock_img/I_Diorite_09.jpg"" style=""width:8cm; height:5.27cm;""><p>What type of rock is this?</p>","2","class_response","1","test","17","Diorite","Diorite","09","true","3","3","",""
"","","","","","","","","","","","html-keyboard-response","238","2.0.0","893536","614f571879ee135c5a579e08","1","26","null","","","","","","","","","<p style='font-size: 30px;'><strong>Okay</strong></p>","null","neutral_feedback","1","test","17","","","","","","","",""
"","","","","","","","","","","","html-button-response","239","2.0.0","900388","614f571879ee135c5a579e08","1","26","6851","","","","","","","","","<img src= ""rock_img/I_Pegmatite_06.jpg"" style=""width:8cm; height:5.17cm;""><p>What type of rock is this?</p>","5","class_response","1","test","18","Pegmatite","Pegmatite","06","true","6","6","",""
"","","","","","","","","","","","html-keyboard-response","240","2.0.0","900892","614f571879ee135c5a579e08","1","26","null","","","","","","","","","<p style='font-size: 30px;'><strong>Okay</strong></p>","null","neutral_feedback","1","test","18","","","","","","","",""
"","","","","","","","","","","","html-button-response","241","2.0.0","903820","614f571879ee135c5a579e08","1","26","2926","","","","","","","","","<img src= ""rock_img/I_Pegmatite_15.jpg"" style=""width:8cm; height:6cm;""><p>What type of rock is this?</p>","5","class_response","1","test","19","Pegmatite","Pegmatite","15","true","6","6","",""
"","","","","","","","","","","","html-keyboard-response","242","2.0.0","904323","614f571879ee135c5a579e08","1","26","null","","","","","","","","","<p style='font-size: 30px;'><strong>Okay</strong></p>","null","neutral_feedback","1","test","19","","","","","","","",""
"","","","","","","","","","","","html-button-response","243","2.0.0","915350","614f571879ee135c5a579e08","1","26","11026","","","","","","","","","<img src= ""rock_img/I_Pumice_03.jpg"" style=""width:8cm; height:6.64cm;""><p>What type of rock is this?</p>","7","class_response","1","test","20","Pumice","Pumice","03","true","8","8","",""
"","","","","","","","","","","","html-keyboard-response","244","2.0.0","915852","614f571879ee135c5a579e08","1","26","null","","","","","","","","","<p style='font-size: 30px;'><strong>Okay</strong></p>","null","neutral_feedback","1","test","20","","","","","","","",""
"","","","","","","","","","","","html-button-response","245","2.0.0","927269","614f571879ee135c5a579e08","1","26","11416","","","","","","","","","<img src= ""rock_img/I_Basalt_06.jpg"" style=""width:8cm; height:7.06cm;""><p>What type of rock is this?</p>","1","class_response","1","test","21","Basalt","Basalt","06","true","2","2","",""
"","","","","","","","","","","","html-keyboard-response","246","2.0.0","927772","614f571879ee135c5a579e08","1","26","null","","","","","","","","","<p style='font-size: 30px;'><strong>Okay</strong></p>","null","neutral_feedback","1","test","21","","","","","","","",""
"","","","","","","","","","","","html-button-response","247","2.0.0","929156","614f571879ee135c5a579e08","1","26","1382","","","","","","","","","<img src= ""rock_img/I_Obsidian_12.jpg"" style=""width:8cm; height:6.53cm;""><p>What type of rock is this?</p>","4","class_response","1","test","22","Obsidian","Obsidian","12","true","5","5","",""
"","","","","","","","","","","","html-keyboard-response","248","2.0.0","929658","614f571879ee135c5a579e08","1","26","null","","","","","","","","","<p style='font-size: 30px;'><strong>Okay</strong></p>","null","neutral_feedback","1","test","22","","","","","","","",""
"","","","","","","","","","","","html-button-response","249","2.0.0","936002","614f571879ee135c5a579e08","1","26","6343","","","","","","","","","<img src= ""rock_img/I_Pumice_04.jpg"" style=""width:8cm; height:6.819999999999999cm;""><p>What type of rock is this?</p>","7","class_response","1","test","23","Pumice","Pumice","04","true","8","8","",""
"","","","","","","","","","","","html-keyboard-response","250","2.0.0","936506","614f571879ee135c5a579e08","1","26","null","","","","","","","","","<p style='font-size: 30px;'><strong>Okay</strong></p>","null","neutral_feedback","1","test","23","","","","","","","",""
"","","","","","","","","","","","html-button-response","251","2.0.0","938725","614f571879ee135c5a579e08","1","26","2218","","","","","","","","","<img src= ""rock_img/I_Andesite_14.jpg"" style=""width:8cm; height:5.449999999999999cm;""><p>What type of rock is this?</p>","2","class_response","1","test","24","Diorite","Andesite","14","false","3","1","",""
"","","","","","","","","","","","html-keyboard-response","252","2.0.0","939231","614f571879ee135c5a579e08","1","26","null","","","","","","","","","<p style='font-size: 30px;'><strong>Okay</strong></p>","null","neutral_feedback","1","test","24","","","","","","","",""
"","","","","","","","","","","","html-button-response","253","2.0.0","941233","614f571879ee135c5a579e08","1","26","2000","","","","","","","","","<img src= ""rock_img/I_Pegmatite_05.jpg"" style=""width:8cm; height:7.300000000000001cm;""><p>What type of rock is this?</p>","5","class_response","1","test","25","Pegmatite","Pegmatite","05","true","6","6","",""
"","","","","","","","","","","","html-keyboard-response","254","2.0.0","941734","614f571879ee135c5a579e08","1","26","null","","","","","","","","","<p style='font-size: 30px;'><strong>Okay</strong></p>","null","neutral_feedback","1","test","25","","","","","","","",""
"","","","","","","","","","","","html-button-response","255","2.0.0","948336","614f571879ee135c5a579e08","1","26","6601","","","","","","","","","<img src= ""rock_img/I_Pumice_10.jpg"" style=""width:8cm; height:7.609999999999999cm;""><p>What type of rock is this?</p>","7","class_response","1","test","26","Pumice","Pumice","10","true","8","8","",""
"","","","","","","","","","","","html-keyboard-response","256","2.0.0","948839","614f571879ee135c5a579e08","1","26","null","","","","","","","","","<p style='font-size: 30px;'><strong>Okay</strong></p>","null","neutral_feedback","1","test","26","","","","","","","",""
"","","","","","","","","","","","html-button-response","257","2.0.0","967757","614f571879ee135c5a579e08","1","26","18916","","","","","","","","","<img src= ""rock_img/I_Andesite_09.jpg"" style=""width:8cm; height:6cm;""><p>What type of rock is this?</p>","3","class_response","1","test","27","Gabbro","Andesite","09","false","4","1","",""
"","","","","","","","","","","","html-keyboard-response","258","2.0.0","968264","614f571879ee135c5a579e08","1","26","null","","","","","","","","","<p style='font-size: 30px;'><strong>Okay</strong></p>","null","neutral_feedback","1","test","27","","","","","","","",""
"","","","","","","","","","","","html-button-response","259","2.0.0","971674","614f571879ee135c5a579e08","1","26","3408","","","","","","","","","<img src= ""rock_img/I_Gabbro_03.jpg"" style=""width:8cm; height:8.52cm;""><p>What type of rock is this?</p>","2","class_response","1","test","28","Diorite","Gabbro","03","false","3","4","",""
"","","","","","","","","","","","html-keyboard-response","260","2.0.0","972182","614f571879ee135c5a579e08","1","26","null","","","","","","","","","<p style='font-size: 30px;'><strong>Okay</strong></p>","null","neutral_feedback","1","test","28","","","","","","","",""
"","","","","","","","","","","","html-button-response","261","2.0.0","975181","614f571879ee135c5a579e08","1","26","2998","","","","","","","","","<img src= ""rock_img/I_Pumice_02.jpg"" style=""width:8cm; height:7.3999999999999995cm;""><p>What type of rock is this?</p>","7","class_response","1","test","29","Pumice","Pumice","02","true","8","8","",""
"","","","","","","","","","","","html-keyboard-response","262","2.0.0","975687","614f571879ee135c5a579e08","1","26","null","","","","","","","","","<p style='font-size: 30px;'><strong>Okay</strong></p>","null","neutral_feedback","1","test","29","","","","","","","",""
"","","","","","","","","","","","html-button-response","263","2.0.0","985430","614f571879ee135c5a579e08","1","26","9741","","","","","","","","","<img src= ""rock_img/I_Diorite_02.jpg"" style=""width:8cm; height:6.27cm;""><p>What type of rock is this?</p>","0","class_response","1","test","30","Andesite","Diorite","02","false","1","3","",""
"","","","","","","","","","","","html-keyboard-response","264","2.0.0","985933","614f571879ee135c5a579e08","1","26","null","","","","","","","","","<p style='font-size: 30px;'><strong>Okay</strong></p>","null","neutral_feedback","1","test","30","","","","","","","",""
"","","","","","","","","","","","html-button-response","265","2.0.0","1006799","614f571879ee135c5a579e08","1","26","20864","","","","","","","","","<img src= ""rock_img/I_Diorite_06.jpg"" style=""width:8cm; height:6.03cm;""><p>What type of rock is this?</p>","2","class_response","1","test","31","Diorite","Diorite","06","true","3","3","",""
"","","","","","","","","","","","html-keyboard-response","266","2.0.0","1007300","614f571879ee135c5a579e08","1","26","null","","","","","","","","","<p style='font-size: 30px;'><strong>Okay</strong></p>","null","neutral_feedback","1","test","31","","","","","","","",""
"","","","","","","","","","","","html-button-response","267","2.0.0","1009425","614f571879ee135c5a579e08","1","26","2124","","","","","","","","","<img src= ""rock_img/I_Pegmatite_03.jpg"" style=""width:8cm; height:5.239999999999999cm;""><p>What type of rock is this?</p>","5","class_response","1","test","32","Pegmatite","Pegmatite","03","true","6","6","",""
"","","","","","","","","","","","html-keyboard-response","268","2.0.0","1009930","614f571879ee135c5a579e08","1","26","null","","","","","","","","","<p style='font-size: 30px;'><strong>Okay</strong></p>","null","neutral_feedback","1","test","32","","","","","","","",""
"","","","","","","","","","","","html-button-response","269","2.0.0","1012555","614f571879ee135c5a579e08","1","26","2624","","","","","","","","","<img src= ""rock_img/I_Diorite_14.jpg"" style=""width:8cm; height:5.71cm;""><p>What type of rock is this?</p>","2","class_response","1","test","33","Diorite","Diorite","14","true","3","3","",""
"","","","","","","","","","","","html-keyboard-response","270","2.0.0","1013058","614f571879ee135c5a579e08","1","26","null","","","","","","","","","<p style='font-size: 30px;'><strong>Okay</strong></p>","null","neutral_feedback","1","test","33","","","","","","","",""
"","","","","","","","","","","","html-button-response","271","2.0.0","1020770","614f571879ee135c5a579e08","1","26","7710","","","","","","","","","<img src= ""rock_img/I_Basalt_11.jpg"" style=""width:8cm; height:5.359999999999999cm;""><p>What type of rock is this?</p>","1","class_response","1","test","34","Basalt","Basalt","11","true","2","2","",""
"","","","","","","","","","","","html-keyboard-response","272","2.0.0","1021275","614f571879ee135c5a579e08","1","26","null","","","","","","","","","<p style='font-size: 30px;'><strong>Okay</strong></p>","null","neutral_feedback","1","test","34","","","","","","","",""
"","","","","","","","","","","","html-button-response","273","2.0.0","1025852","614f571879ee135c5a579e08","1","26","4575","","","","","","","","","<img src= ""rock_img/I_Gabbro_05.jpg"" style=""width:8cm; height:6cm;""><p>What type of rock is this?</p>","2","class_response","1","test","35","Diorite","Gabbro","05","false","3","4","",""
"","","","","","","","","","","","html-keyboard-response","274","2.0.0","1026352","614f571879ee135c5a579e08","1","26","null","","","","","","","","","<p style='font-size: 30px;'><strong>Okay</strong></p>","null","neutral_feedback","1","test","35","","","","","","","",""
"","","","","","","","","","","","html-button-response","275","2.0.0","1031322","614f571879ee135c5a579e08","1","26","4969","","","","","","","","","<img src= ""rock_img/I_Gabbro_09.jpg"" style=""width:8cm; height:7.279999999999999cm;""><p>What type of rock is this?</p>","1","class_response","1","test","36","Basalt","Gabbro","09","false","2","4","",""
"","","","","","","","","","","","html-keyboard-response","276","2.0.0","1031824","614f571879ee135c5a579e08","1","26","null","","","","","","","","","<p style='font-size: 30px;'><strong>Okay</strong></p>","null","neutral_feedback","1","test","36","","","","","","","",""
"","","","","","","","","","","","html-button-response","277","2.0.0","1033466","614f571879ee135c5a579e08","1","26","1641","","","","","","","","","<img src= ""rock_img/I_Pegmatite_09.jpg"" style=""width:8cm; height:4.03cm;""><p>What type of rock is this?</p>","5","class_response","1","test","37","Pegmatite","Pegmatite","09","true","6","6","",""
"","","","","","","","","","","","html-keyboard-response","278","2.0.0","1033967","614f571879ee135c5a579e08","1","26","null","","","","","","","","","<p style='font-size: 30px;'><strong>Okay</strong></p>","null","neutral_feedback","1","test","37","","","","","","","",""
"","","","","","","","","","","","html-button-response","279","2.0.0","1036305","614f571879ee135c5a579e08","1","26","2338","","","","","","","","","<img src= ""rock_img/I_Diorite_10.jpg"" style=""width:8cm; height:5.949999999999999cm;""><p>What type of rock is this?</p>","2","class_response","1","test","38","Diorite","Diorite","10","true","3","3","",""
"","","","","","","","","","","","html-keyboard-response","280","2.0.0","1036807","614f571879ee135c5a579e08","1","26","null","","","","","","","","","<p style='font-size: 30px;'><strong>Okay</strong></p>","null","neutral_feedback","1","test","38","","","","","","","",""
"","","","","","","","","","","","html-button-response","281","2.0.0","1038209","614f571879ee135c5a579e08","1","26","1401","","","","","","","","","<img src= ""rock_img/I_Obsidian_02.jpg"" style=""width:8cm; height:7.51cm;""><p>What type of rock is this?</p>","4","class_response","1","test","39","Obsidian","Obsidian","02","true","5","5","",""
"","","","","","","","","","","","html-keyboard-response","282","2.0.0","1038713","614f571879ee135c5a579e08","1","26","null","","","","","","","","","<p style='font-size: 30px;'><strong>Okay</strong></p>","null","neutral_feedback","1","test","39","","","","","","","",""
"","","","","","","","","","","","html-button-response","283","2.0.0","1041110","614f571879ee135c5a579e08","1","26","2395","","","","","","","","","<img src= ""rock_img/I_Peridotite_02.jpg"" style=""width:8cm; height:5.859999999999999cm;""><p>What type of rock is this?</p>","2","class_response","1","test","40","Diorite","Peridotite","02","false","3","7","",""
"","","","","","","","","","","","html-keyboard-response","284","2.0.0","1041612","614f571879ee135c5a579e08","1","26","null","","","","","","","","","<p style='font-size: 30px;'><strong>Okay</strong></p>","null","neutral_feedback","1","test","40","","","","","","","",""
"","","","","","","","","","","","html-button-response","285","2.0.0","1046850","614f571879ee135c5a579e08","1","26","5236","","","","","","","","","<img src= ""rock_img/I_Peridotite_06.jpg"" style=""width:8cm; height:7.53cm;""><p>What type of rock is this?</p>","5","class_response","1","test","41","Pegmatite","Peridotite","06","false","6","7","",""
"","","","","","","","","","","","html-keyboard-response","286","2.0.0","1047355","614f571879ee135c5a579e08","1","26","null","","","","","","","","","<p style='font-size: 30px;'><strong>Okay</strong></p>","null","neutral_feedback","1","test","41","","","","","","","",""
"","","","","","","","","","","","html-button-response","287","2.0.0","1048888","614f571879ee135c5a579e08","1","26","1532","","","","","","","","","<img src= ""rock_img/I_Obsidian_07.jpg"" style=""width:8cm; height:4.76cm;""><p>What type of rock is this?</p>","4","class_response","1","test","42","Obsidian","Obsidian","07","true","5","5","",""
"","","","","","","","","","","","html-keyboard-response","288","2.0.0","1049390","614f571879ee135c5a579e08","1","26","null","","","","","","","","","<p style='font-size: 30px;'><strong>Okay</strong></p>","null","neutral_feedback","1","test","42","","","","","","","",""
"","","","","","","","","","","","html-button-response","289","2.0.0","1057834","614f571879ee135c5a579e08","1","26","8443","","","","","","","","","<img src= ""rock_img/I_Basalt_16.jpg"" style=""width:8cm; height:7.659999999999999cm;""><p>What type of rock is this?</p>","1","class_response","1","test","43","Basalt","Basalt","16","true","2","2","",""
"","","","","","","","","","","","html-keyboard-response","290","2.0.0","1058339","614f571879ee135c5a579e08","1","26","null","","","","","","","","","<p style='font-size: 30px;'><strong>Okay</strong></p>","null","neutral_feedback","1","test","43","","","","","","","",""
"","","","","","","","","","","","html-button-response","291","2.0.0","1062057","614f571879ee135c5a579e08","1","26","3717","","","","","","","","","<img src= ""rock_img/I_Pegmatite_12.jpg"" style=""width:8cm; height:5.7cm;""><p>What type of rock is this?</p>","5","class_response","1","test","44","Pegmatite","Pegmatite","12","true","6","6","",""
"","","","","","","","","","","","html-keyboard-response","292","2.0.0","1062563","614f571879ee135c5a579e08","1","26","null","","","","","","","","","<p style='font-size: 30px;'><strong>Okay</strong></p>","null","neutral_feedback","1","test","44","","","","","","","",""
"","","","","","","","","","","","html-button-response","293","2.0.0","1071665","614f571879ee135c5a579e08","1","26","9101","","","","","","","","","<img src= ""rock_img/I_Gabbro_14.jpg"" style=""width:8cm; height:8.48cm;""><p>What type of rock is this?</p>","3","class_response","1","test","45","Gabbro","Gabbro","14","true","4","4","",""
"","","","","","","","","","","","html-keyboard-response","294","2.0.0","1072167","614f571879ee135c5a579e08","1","26","null","","","","","","","","","<p style='font-size: 30px;'><strong>Okay</strong></p>","null","neutral_feedback","1","test","45","","","","","","","",""
"","","","","","","","","","","","html-button-response","295","2.0.0","1074024","614f571879ee135c5a579e08","1","26","1856","","","","","","","","","<img src= ""rock_img/I_Obsidian_08.jpg"" style=""width:8cm; height:7.39cm;""><p>What type of rock is this?</p>","4","class_response","1","test","46","Obsidian","Obsidian","08","true","5","5","",""
"","","","","","","","","","","","html-keyboard-response","296","2.0.0","1074532","614f571879ee135c5a579e08","1","26","null","","","","","","","","","<p style='font-size: 30px;'><strong>Okay</strong></p>","null","neutral_feedback","1","test","46","","","","","","","",""
"","","","","","","","","","","","html-button-response","297","2.0.0","1084147","614f571879ee135c5a579e08","1","26","9613","","","","","","","","","<img src= ""rock_img/I_Basalt_01.jpg"" style=""width:8cm; height:7.880000000000001cm;""><p>What type of rock is this?</p>","6","class_response","1","test","47","Peridotite","Basalt","01","false","7","2","",""
"","","","","","","","","","","","html-keyboard-response","298","2.0.0","1084650","614f571879ee135c5a579e08","1","26","null","","","","","","","","","<p style='font-size: 30px;'><strong>Okay</strong></p>","null","neutral_feedback","1","test","47","","","","","","","",""
"","","","","","","","","","","","html-button-response","299","2.0.0","1086392","614f571879ee135c5a579e08","1","26","1740","","","","","","","","","<img src= ""rock_img/I_Obsidian_04.jpg"" style=""width:8cm; height:6.930000000000001cm;""><p>What type of rock is this?</p>","4","class_response","1","test","48","Obsidian","Obsidian","04","true","5","5","",""
"","","","","","","","","","","","html-keyboard-response","300","2.0.0","1086894","614f571879ee135c5a579e08","1","26","null","","","","","","","","","<p style='font-size: 30px;'><strong>Okay</strong></p>","null","neutral_feedback","1","test","48","","","","","","","",""
"","","","","","","","","","","","html-button-response","301","2.0.0","1132641","614f571879ee135c5a579e08","1","26","","","","","","","","","","","","cycle_feedback","","","","","","","","","","17424.600000023842","28318.5"
"","","","","","","","","","","","html-button-response","303","2.0.0","1158471","614f571879ee135c5a579e08","1","26","25828","","","","","","","","","","0","start_train","","","","","","","","","","",""
"","","","","","","","","","","","html-button-response","304","2.0.0","1174046","614f571879ee135c5a579e08","1","26","15574","","","","","","","","","<img src= ""rock_img/I_Gabbro_15.jpg"" style=""width:8cm; height:6.29cm;""><p>What type of rock is this?</p>","2","class_response","2","train","1","Diorite","Gabbro","15","false","3","4","",""
