"width","height","webaudio","browser","browser_version","mobile","os","fullscreen","vsync_rate","webcam","microphone","trial_type","trial_index","plugin_version","time_elapsed","subjID","condition","stimID","rt","url","success","value","timeout","failed_images","failed_audio","failed_video","view_history","stimulus","response","trialType","cycle","phase","trial","resp","cat","token","corr","resp_num","cat_num","time_fb1","time_fb2"
"1920","953","true","chrome","131.0.0","false","Windows 10","true","60.72","false","false","browser-check","0","2.0.0","1007","5fd0261b85dd3e087609bee6","1","22","","","","","","","","","","","","","","","","","","","","","","",""
"","","","","","","","","","","","external-html","1","2.0.0","4797","5fd0261b85dd3e087609bee6","1","22","3698","consent_form.html","","","","","","","","","","","","","","","","","","","","",""
"","","","","","","","","","","","fullscreen","2","2.0.0","7417","5fd0261b85dd3e087609bee6","1","22","1617","","true","","","","","","","","","","","","","","","","","","","",""
"","","","","","","","","","","","call-function","3","2.0.0","7419","5fd0261b85dd3e087609bee6","1","22","","","","{}","","","","","","","","","","","","","","","","","","",""
"","","","","","","","","","","","preload","4","2.0.0","11329","5fd0261b85dd3e087609bee6","1","22","","","true","","false","[]","[]","[]","","","","","","","","","","","","","","",""
"","","","","","","","","","","","instructions","5","2.0.0","33935","5fd0261b85dd3e087609bee6","1","22","22604","","","","","","","","[{""page_index"":0,""viewing_time"":4932},{""page_index"":1,""viewing_time"":9916},{""page_index"":2,""viewing_time"":7756}]","","","","","","","","","","","","","",""
"","","","","","","","","","","","html-button-response","6","2.0.0","35837","5fd0261b85dd3e087609bee6","1","22","1900","","","","","","","","","","0","start_test","","","","","","","","","","",""
"","","","","","","","","","","","html-button-response","7","2.0.0","38953","5fd0261b85dd3e087609bee6","1","22","3115","","","","","","","","","<img src= ""rock_img/I_Peridotite_12.jpg"" style=""width:8cm; height:4.54cm;""><p>What type of rock is this?</p>","6","class_response","0","test","1","Peridotite","Peridotite","12","true","7","7","",""
"","","","","","","","","","","","html-keyboard-response","8","2.0.0","39456","5fd0261b85dd3e087609bee6","1","22","null","","","","","","","","","<p style='font-size: 30px;'><strong>Okay</strong></p>","null","neutral_feedback","0","test","1","","","","","","","",""
"","","","","","","","","","","","html-button-response","9","2.0.0","40381","5fd0261b85dd3e087609bee6","1","22","924","","","","","","","","","<img src= ""rock_img/I_Peridotite_07.jpg"" style=""width:8cm; height:4.83cm;""><p>What type of rock is this?</p>","1","class_response","0","test","2","Basalt","Peridotite","07","false","2","7","",""
"","","","","","","","","","","","html-keyboard-response","10","2.0.0","40883","5fd0261b85dd3e087609bee6","1","22","null","","","","","","","","","<p style='font-size: 30px;'><strong>Okay</strong></p>","null","neutral_feedback","0","test","2","","","","","","","",""
"","","","","","","","","","","","html-button-response","11","2.0.0","42817","5fd0261b85dd3e087609bee6","1","22","1932","","","","","","","","","<img src= ""rock_img/I_Pumice_08.jpg"" style=""width:8cm; height:6.67cm;""><p>What type of rock is this?</p>","4","class_response","0","test","3","Obsidian","Pumice","08","false","5","8","",""
"","","","","","","","","","","","html-keyboard-response","12","2.0.0","43323","5fd0261b85dd3e087609bee6","1","22","null","","","","","","","","","<p style='font-size: 30px;'><strong>Okay</strong></p>","null","neutral_feedback","0","test","3","","","","","","","",""
"","","","","","","","","","","","html-button-response","13","2.0.0","44573","5fd0261b85dd3e087609bee6","1","22","1248","","","","","","","","","<img src= ""rock_img/I_Peridotite_16.jpg"" style=""width:8cm; height:6.989999999999999cm;""><p>What type of rock is this?</p>","7","class_response","0","test","4","Pumice","Peridotite","16","false","8","7","",""
"","","","","","","","","","","","html-keyboard-response","14","2.0.0","45077","5fd0261b85dd3e087609bee6","1","22","null","","","","","","","","","<p style='font-size: 30px;'><strong>Okay</strong></p>","null","neutral_feedback","0","test","4","","","","","","","",""
"","","","","","","","","","","","html-button-response","15","2.0.0","45945","5fd0261b85dd3e087609bee6","1","22","867","","","","","","","","","<img src= ""rock_img/I_Gabbro_09.jpg"" style=""width:8cm; height:7.279999999999999cm;""><p>What type of rock is this?</p>","0","class_response","0","test","5","Andesite","Gabbro","09","false","1","4","",""
"","","","","","","","","","","","html-keyboard-response","16","2.0.0","46459","5fd0261b85dd3e087609bee6","1","22","null","","","","","","","","","<p style='font-size: 30px;'><strong>Okay</strong></p>","null","neutral_feedback","0","test","5","","","","","","","",""
"","","","","","","","","","","","html-button-response","17","2.0.0","47749","5fd0261b85dd3e087609bee6","1","22","1288","","","","","","","","","<img src= ""rock_img/I_Gabbro_05.jpg"" style=""width:8cm; height:6cm;""><p>What type of rock is this?</p>","5","class_response","0","test","6","Pegmatite","Gabbro","05","false","6","4","",""
"","","","","","","","","","","","html-keyboard-response","18","2.0.0","48250","5fd0261b85dd3e087609bee6","1","22","null","","","","","","","","","<p style='font-size: 30px;'><strong>Okay</strong></p>","null","neutral_feedback","0","test","6","","","","","","","",""
"","","","","","","","","","","","html-button-response","19","2.0.0","49323","5fd0261b85dd3e087609bee6","1","22","1071","","","","","","","","","<img src= ""rock_img/I_Pegmatite_06.jpg"" style=""width:8cm; height:5.17cm;""><p>What type of rock is this?</p>","1","class_response","0","test","7","Basalt","Pegmatite","06","false","2","6","",""
"","","","","","","","","","","","html-keyboard-response","20","2.0.0","49824","5fd0261b85dd3e087609bee6","1","22","null","","","","","","","","","<p style='font-size: 30px;'><strong>Okay</strong></p>","null","neutral_feedback","0","test","7","","","","","","","",""
"","","","","","","","","","","","html-button-response","21","2.0.0","50923","5fd0261b85dd3e087609bee6","1","22","1098","","","","","","","","","<img src= ""rock_img/I_Peridotite_13.jpg"" style=""width:8cm; height:7.58cm;""><p>What type of rock is this?</p>","2","class_response","0","test","8","Diorite","Peridotite","13","false","3","7","",""
"","","","","","","","","","","","html-keyboard-response","22","2.0.0","51428","5fd0261b85dd3e087609bee6","1","22","null","","","","","","","","","<p style='font-size: 30px;'><strong>Okay</strong></p>","null","neutral_feedback","0","test","8","","","","","","","",""
"","","","","","","","","","","","html-button-response","23","2.0.0","52189","5fd0261b85dd3e087609bee6","1","22","760","","","","","","","","","<img src= ""rock_img/I_Diorite_11.jpg"" style=""width:8cm; height:7.11cm;""><p>What type of rock is this?</p>","1","class_response","0","test","9","Basalt","Diorite","11","false","2","3","",""
"","","","","","","","","","","","html-keyboard-response","24","2.0.0","52700","5fd0261b85dd3e087609bee6","1","22","null","","","","","","","","","<p style='font-size: 30px;'><strong>Okay</strong></p>","null","neutral_feedback","0","test","9","","","","","","","",""
"","","","","","","","","","","","html-button-response","25","2.0.0","53611","5fd0261b85dd3e087609bee6","1","22","910","","","","","","","","","<img src= ""rock_img/I_Basalt_16.jpg"" style=""width:8cm; height:7.659999999999999cm;""><p>What type of rock is this?</p>","2","class_response","0","test","10","Diorite","Basalt","16","false","3","2","",""
"","","","","","","","","","","","html-keyboard-response","26","2.0.0","54125","5fd0261b85dd3e087609bee6","1","22","null","","","","","","","","","<p style='font-size: 30px;'><strong>Okay</strong></p>","null","neutral_feedback","0","test","10","","","","","","","",""
"","","","","","","","","","","","html-button-response","27","2.0.0","55099","5fd0261b85dd3e087609bee6","1","22","972","","","","","","","","","<img src= ""rock_img/I_Pegmatite_11.jpg"" style=""width:8cm; height:8.14cm;""><p>What type of rock is this?</p>","0","class_response","0","test","11","Andesite","Pegmatite","11","false","1","6","",""
"","","","","","","","","","","","html-keyboard-response","28","2.0.0","55611","5fd0261b85dd3e087609bee6","1","22","null","","","","","","","","","<p style='font-size: 30px;'><strong>Okay</strong></p>","null","neutral_feedback","0","test","11","","","","","","","",""
"","","","","","","","","","","","html-button-response","29","2.0.0","56565","5fd0261b85dd3e087609bee6","1","22","952","","","","","","","","","<img src= ""rock_img/I_Diorite_08.jpg"" style=""width:8cm; height:6.37cm;""><p>What type of rock is this?</p>","7","class_response","0","test","12","Pumice","Diorite","08","false","8","3","",""
"","","","","","","","","","","","html-keyboard-response","30","2.0.0","57066","5fd0261b85dd3e087609bee6","1","22","null","","","","","","","","","<p style='font-size: 30px;'><strong>Okay</strong></p>","null","neutral_feedback","0","test","12","","","","","","","",""
"","","","","","","","","","","","html-button-response","31","2.0.0","57893","5fd0261b85dd3e087609bee6","1","22","826","","","","","","","","","<img src= ""rock_img/I_Basalt_08.jpg"" style=""width:8cm; height:10.44cm;""><p>What type of rock is this?</p>","2","class_response","0","test","13","Diorite","Basalt","08","false","3","2","",""
"","","","","","","","","","","","html-keyboard-response","32","2.0.0","58396","5fd0261b85dd3e087609bee6","1","22","null","","","","","","","","","<p style='font-size: 30px;'><strong>Okay</strong></p>","null","neutral_feedback","0","test","13","","","","","","","",""
"","","","","","","","","","","","html-button-response","33","2.0.0","59219","5fd0261b85dd3e087609bee6","1","22","821","","","","","","","","","<img src= ""rock_img/I_Basalt_10.jpg"" style=""width:8cm; height:5.85cm;""><p>What type of rock is this?</p>","5","class_response","0","test","14","Pegmatite","Basalt","10","false","6","2","",""
"","","","","","","","","","","","html-keyboard-response","34","2.0.0","59722","5fd0261b85dd3e087609bee6","1","22","null","","","","","","","","","<p style='font-size: 30px;'><strong>Okay</strong></p>","null","neutral_feedback","0","test","14","","","","","","","",""
"","","","","","","","","","","","html-button-response","35","2.0.0","60289","5fd0261b85dd3e087609bee6","1","22","565","","","","","","","","","<img src= ""rock_img/I_Andesite_16.jpg"" style=""width:8cm; height:6.010000000000001cm;""><p>What type of rock is this?</p>","1","class_response","0","test","15","Basalt","Andesite","16","false","2","1","",""
"","","","","","","","","","","","html-keyboard-response","36","2.0.0","60802","5fd0261b85dd3e087609bee6","1","22","null","","","","","","","","","<p style='font-size: 30px;'><strong>Okay</strong></p>","null","neutral_feedback","0","test","15","","","","","","","",""
"","","","","","","","","","","","html-button-response","37","2.0.0","61479","5fd0261b85dd3e087609bee6","1","22","675","","","","","","","","","<img src= ""rock_img/I_Gabbro_16.jpg"" style=""width:8cm; height:6.44cm;""><p>What type of rock is this?</p>","2","class_response","0","test","16","Diorite","Gabbro","16","false","3","4","",""
"","","","","","","","","","","","html-keyboard-response","38","2.0.0","61992","5fd0261b85dd3e087609bee6","1","22","null","","","","","","","","","<p style='font-size: 30px;'><strong>Okay</strong></p>","null","neutral_feedback","0","test","16","","","","","","","",""
"","","","","","","","","","","","html-button-response","39","2.0.0","62770","5fd0261b85dd3e087609bee6","1","22","777","","","","","","","","","<img src= ""rock_img/I_Obsidian_11.jpg"" style=""width:8cm; height:6.05cm;""><p>What type of rock is this?</p>","6","class_response","0","test","17","Peridotite","Obsidian","11","false","7","5","",""
"","","","","","","","","","","","html-keyboard-response","40","2.0.0","63272","5fd0261b85dd3e087609bee6","1","22","null","","","","","","","","","<p style='font-size: 30px;'><strong>Okay</strong></p>","null","neutral_feedback","0","test","17","","","","","","","",""
"","","","","","","","","","","","html-button-response","41","2.0.0","64243","5fd0261b85dd3e087609bee6","1","22","970","","","","","","","","","<img src= ""rock_img/I_Pegmatite_10.jpg"" style=""width:8cm; height:4.16cm;""><p>What type of rock is this?</p>","3","class_response","0","test","18","Gabbro","Pegmatite","10","false","4","6","",""
"","","","","","","","","","","","html-keyboard-response","42","2.0.0","64747","5fd0261b85dd3e087609bee6","1","22","null","","","","","","","","","<p style='font-size: 30px;'><strong>Okay</strong></p>","null","neutral_feedback","0","test","18","","","","","","","",""
"","","","","","","","","","","","html-button-response","43","2.0.0","65519","5fd0261b85dd3e087609bee6","1","22","770","","","","","","","","","<img src= ""rock_img/I_Andesite_14.jpg"" style=""width:8cm; height:5.449999999999999cm;""><p>What type of rock is this?</p>","2","class_response","0","test","19","Diorite","Andesite","14","false","3","1","",""
"","","","","","","","","","","","html-keyboard-response","44","2.0.0","66019","5fd0261b85dd3e087609bee6","1","22","null","","","","","","","","","<p style='font-size: 30px;'><strong>Okay</strong></p>","null","neutral_feedback","0","test","19","","","","","","","",""
"","","","","","","","","","","","html-button-response","45","2.0.0","66735","5fd0261b85dd3e087609bee6","1","22","715","","","","","","","","","<img src= ""rock_img/I_Diorite_15.jpg"" style=""width:8cm; height:5.54cm;""><p>What type of rock is this?</p>","1","class_response","0","test","20","Basalt","Diorite","15","false","2","3","",""
"","","","","","","","","","","","html-keyboard-response","46","2.0.0","67241","5fd0261b85dd3e087609bee6","1","22","null","","","","","","","","","<p style='font-size: 30px;'><strong>Okay</strong></p>","null","neutral_feedback","0","test","20","","","","","","","",""
"","","","","","","","","","","","html-button-response","47","2.0.0","68247","5fd0261b85dd3e087609bee6","1","22","1004","","","","","","","","","<img src= ""rock_img/I_Gabbro_03.jpg"" style=""width:8cm; height:8.52cm;""><p>What type of rock is this?</p>","5","class_response","0","test","21","Pegmatite","Gabbro","03","false","6","4","",""
"","","","","","","","","","","","html-keyboard-response","48","2.0.0","68751","5fd0261b85dd3e087609bee6","1","22","null","","","","","","","","","<p style='font-size: 30px;'><strong>Okay</strong></p>","null","neutral_feedback","0","test","21","","","","","","","",""
"","","","","","","","","","","","html-button-response","49","2.0.0","69377","5fd0261b85dd3e087609bee6","1","22","625","","","","","","","","","<img src= ""rock_img/I_Obsidian_14.jpg"" style=""width:8cm; height:7.64cm;""><p>What type of rock is this?</p>","6","class_response","0","test","22","Peridotite","Obsidian","14","false","7","5","",""
"","","","","","","","","","","","html-keyboard-response","50","2.0.0","69880","5fd0261b85dd3e087609bee6","1","22","null","","","","","","","","","<p style='font-size: 30px;'><strong>Okay</strong></p>","null","neutral_feedback","0","test","22","","","","","","","",""
"","","","","","","","","","","","html-button-response","51","2.0.0","70925","5fd0261b85dd3e087609bee6","1","22","1043","","","","","","","","","<img src= ""rock_img/I_Pumice_15.jpg"" style=""width:8cm; height:7.86cm;""><p>What type of rock is this?</p>","2","class_response","0","test","23","Diorite","Pumice","15","false","3","8","",""
"","","","","","","","","","","","html-keyboard-response","52","2.0.0","71430","5fd0261b85dd3e087609bee6","1","22","null","","","","","","","","","<p style='font-size: 30px;'><strong>Okay</strong></p>","null","neutral_feedback","0","test","23","","","","","","","",""
"","","","","","","","","","","","html-button-response","53","2.0.0","72353","5fd0261b85dd3e087609bee6","1","22","921","","","","","","","","","<img src= ""rock_img/I_Basalt_04.jpg"" style=""width:8cm; height:7.53cm;""><p>What type of rock is this?</p>","4","class_response","0","test","24","Obsidian","Basalt","04","false","5","2","",""
"","","","","","","","","","","","html-keyboard-response","54","2.0.0","72865","5fd0261b85dd3e087609bee6","1","22","null","","","","","","","","","<p style='font-size: 30px;'><strong>Okay</strong></p>","null","neutral_feedback","0","test","24","","","","","","","",""
"","","","","","","","","","","","html-button-response","55","2.0.0","73357","5fd0261b85dd3e087609bee6","1","22","491","","","","","","","","","<img src= ""rock_img/I_Pumice_05.jpg"" style=""width:8cm; height:7.25cm;""><p>What type of rock is this?</p>","0","class_response","0","test","25","Andesite","Pumice","05","false","1","8","",""
"","","","","","","","","","","","html-keyboard-response","56","2.0.0","73869","5fd0261b85dd3e087609bee6","1","22","null","","","","","","","","","<p style='font-size: 30px;'><strong>Okay</strong></p>","null","neutral_feedback","0","test","25","","","","","","","",""
"","","","","","","","","","","","html-button-response","57","2.0.0","74265","5fd0261b85dd3e087609bee6","1","22","395","","","","","","","","","<img src= ""rock_img/I_Pumice_02.jpg"" style=""width:8cm; height:7.3999999999999995cm;""><p>What type of rock is this?</p>","0","class_response","0","test","26","Andesite","Pumice","02","false","1","8","",""
"","","","","","","","","","","","html-keyboard-response","58","2.0.0","74766","5fd0261b85dd3e087609bee6","1","22","null","","","","","","","","","<p style='font-size: 30px;'><strong>Okay</strong></p>","null","neutral_feedback","0","test","26","","","","","","","",""
"","","","","","","","","","","","html-button-response","59","2.0.0","75721","5fd0261b85dd3e087609bee6","1","22","953","","","","","","","","","<img src= ""rock_img/I_Pegmatite_16.jpg"" style=""width:8cm; height:5.8cm;""><p>What type of rock is this?</p>","1","class_response","0","test","27","Basalt","Pegmatite","16","false","2","6","",""
"","","","","","","","","","","","html-keyboard-response","60","2.0.0","76235","5fd0261b85dd3e087609bee6","1","22","null","","","","","","","","","<p style='font-size: 30px;'><strong>Okay</strong></p>","null","neutral_feedback","0","test","27","","","","","","","",""
"","","","","","","","","","","","html-button-response","61","2.0.0","76833","5fd0261b85dd3e087609bee6","1","22","597","","","","","","","","","<img src= ""rock_img/I_Gabbro_11.jpg"" style=""width:8cm; height:6.2cm;""><p>What type of rock is this?</p>","5","class_response","0","test","28","Pegmatite","Gabbro","11","false","6","4","",""
"","","","","","","","","","","","html-keyboard-response","62","2.0.0","77347","5fd0261b85dd3e087609bee6","1","22","null","","","","","","","","","<p style='font-size: 30px;'><strong>Okay</strong></p>","null","neutral_feedback","0","test","28","","","","","","","",""
"","","","","","","","","","","","html-button-response","63","2.0.0","77893","5fd0261b85dd3e087609bee6","1","22","544","","","","","","","","","<img src= ""rock_img/I_Basalt_06.jpg"" style=""width:8cm; height:7.06cm;""><p>What type of rock is this?</p>","2","class_response","0","test","29","Diorite","Basalt","06","false","3","2","",""
"","","","","","","","","","","","html-keyboard-response","64","2.0.0","78395","5fd0261b85dd3e087609bee6","1","22","null","","","","","","","","","<p style='font-size: 30px;'><strong>Okay</strong></p>","null","neutral_feedback","0","test","29","","","","","","","",""
"","","","","","","","","","","","html-button-response","65","2.0.0","78811","5fd0261b85dd3e087609bee6","1","22","415","","","","","","","","","<img src= ""rock_img/I_Obsidian_02.jpg"" style=""width:8cm; height:7.51cm;""><p>What type of rock is this?</p>","3","class_response","0","test","30","Gabbro","Obsidian","02","false","4","5","",""
"","","","","","","","","","","","html-keyboard-response","66","2.0.0","79312","5fd0261b85dd3e087609bee6","1","22","null","","","","","","","","","<p style='font-size: 30px;'><strong>Okay</strong></p>","null","neutral_feedback","0","test","30","","","","","","","",""
"","","","","","","","","","","","html-button-response","67","2.0.0","79776","5fd0261b85dd3e087609bee6","1","22","463","","","","","","","","","<img src= ""rock_img/I_Peridotite_02.jpg"" style=""width:8cm; height:5.859999999999999cm;""><p>What type of rock is this?</p>","6","class_response","0","test","31","Peridotite","Peridotite","02","true","7","7","",""
"","","","","","","","","","","","html-keyboard-response","68","2.0.0","80277","5fd0261b85dd3e087609bee6","1","22","null","","","","","","","","","<p style='font-size: 30px;'><strong>Okay</strong></p>","null","neutral_feedback","0","test","31","","","","","","","",""
"","","","","","","","","","","","html-button-response","69","2.0.0","81123","5fd0261b85dd3e087609bee6","1","22","845","","","","","","","","","<img src= ""rock_img/I_Diorite_16.jpg"" style=""width:8cm; height:6.74cm;""><p>What type of rock is this?</p>","5","class_response","0","test","32","Pegmatite","Diorite","16","false","6","3","",""
"","","","","","","","","","","","html-keyboard-response","70","2.0.0","81636","5fd0261b85dd3e087609bee6","1","22","null","","","","","","","","","<p style='font-size: 30px;'><strong>Okay</strong></p>","null","neutral_feedback","0","test","32","","","","","","","",""
"","","","","","","","","","","","html-button-response","71","2.0.0","82101","5fd0261b85dd3e087609bee6","1","22","464","","","","","","","","","<img src= ""rock_img/I_Obsidian_12.jpg"" style=""width:8cm; height:6.53cm;""><p>What type of rock is this?</p>","1","class_response","0","test","33","Basalt","Obsidian","12","false","2","5","",""
"","","","","","","","","","","","html-keyboard-response","72","2.0.0","82610","5fd0261b85dd3e087609bee6","1","22","null","","","","","","","","","<p style='font-size: 30px;'><strong>Okay</strong></p>","null","neutral_feedback","0","test","33","","","","","","","",""
"","","","","","","","","","","","html-button-response","73","2.0.0","84179","5fd0261b85dd3e087609bee6","1","22","1568","","","","","","","","","<img src= ""rock_img/I_Andesite_04.jpg"" style=""width:8cm; height:5.96cm;""><p>What type of rock is this?</p>","0","class_response","0","test","34","Andesite","Andesite","04","true","1","1","",""
"","","","","","","","","","","","html-keyboard-response","74","2.0.0","84687","5fd0261b85dd3e087609bee6","1","22","null","","","","","","","","","<p style='font-size: 30px;'><strong>Okay</strong></p>","null","neutral_feedback","0","test","34","","","","","","","",""
"","","","","","","","","","","","html-button-response","75","2.0.0","85838","5fd0261b85dd3e087609bee6","1","22","1149","","","","","","","","","<img src= ""rock_img/I_Andesite_02.jpg"" style=""width:8cm; height:8.5cm;""><p>What type of rock is this?</p>","2","class_response","0","test","35","Diorite","Andesite","02","false","3","1","",""
"","","","","","","","","","","","html-keyboard-response","76","2.0.0","86354","5fd0261b85dd3e087609bee6","1","22","null","","","","","","","","","<p style='font-size: 30px;'><strong>Okay</strong></p>","null","neutral_feedback","0","test","35","","","","","","","",""
"","","","","","","","","","","","html-button-response","77","2.0.0","87372","5fd0261b85dd3e087609bee6","1","22","1016","","","","","","","","","<img src= ""rock_img/I_Basalt_05.jpg"" style=""width:8cm; height:8.18cm;""><p>What type of rock is this?</p>","5","class_response","0","test","36","Pegmatite","Basalt","05","false","6","2","",""
"","","","","","","","","","","","html-keyboard-response","78","2.0.0","87873","5fd0261b85dd3e087609bee6","1","22","null","","","","","","","","","<p style='font-size: 30px;'><strong>Okay</strong></p>","null","neutral_feedback","0","test","36","","","","","","","",""
"","","","","","","","","","","","html-button-response","79","2.0.0","88639","5fd0261b85dd3e087609bee6","1","22","766","","","","","","","","","<img src= ""rock_img/I_Pegmatite_13.jpg"" style=""width:8cm; height:4.95cm;""><p>What type of rock is this?</p>","6","class_response","0","test","37","Peridotite","Pegmatite","13","false","7","6","",""
"","","","","","","","","","","","html-keyboard-response","80","2.0.0","89141","5fd0261b85dd3e087609bee6","1","22","null","","","","","","","","","<p style='font-size: 30px;'><strong>Okay</strong></p>","null","neutral_feedback","0","test","37","","","","","","","",""
"","","","","","","","","","","","html-button-response","81","2.0.0","89759","5fd0261b85dd3e087609bee6","1","22","617","","","","","","","","","<img src= ""rock_img/I_Peridotite_08.jpg"" style=""width:8cm; height:6.7cm;""><p>What type of rock is this?</p>","1","class_response","0","test","38","Basalt","Peridotite","08","false","2","7","",""
"","","","","","","","","","","","html-keyboard-response","82","2.0.0","90261","5fd0261b85dd3e087609bee6","1","22","null","","","","","","","","","<p style='font-size: 30px;'><strong>Okay</strong></p>","null","neutral_feedback","0","test","38","","","","","","","",""
"","","","","","","","","","","","html-button-response","83","2.0.0","90595","5fd0261b85dd3e087609bee6","1","22","333","","","","","","","","","<img src= ""rock_img/I_Gabbro_15.jpg"" style=""width:8cm; height:6.29cm;""><p>What type of rock is this?</p>","2","class_response","0","test","39","Diorite","Gabbro","15","false","3","4","",""
"","","","","","","","","","","","html-keyboard-response","84","2.0.0","91096","5fd0261b85dd3e087609bee6","1","22","null","","","","","","","","","<p style='font-size: 30px;'><strong>Okay</strong></p>","null","neutral_feedback","0","test","39","","","","","","","",""
"","","","","","","","","","","","html-button-response","85","2.0.0","91675","5fd0261b85dd3e087609bee6","1","22","578","","","","","","","","","<img src= ""rock_img/I_Pumice_09.jpg"" style=""width:8cm; height:6.44cm;""><p>What type of rock is this?</p>","6","class_response","0","test","40","Peridotite","Pumice","09","false","7","8","",""
"","","","","","","","","","","","html-keyboard-response","86","2.0.0","92179","5fd0261b85dd3e087609bee6","1","22","null","","","","","","","","","<p style='font-size: 30px;'><strong>Okay</strong></p>","null","neutral_feedback","0","test","40","","","","","","","",""
"","","","","","","","","","","","html-button-response","87","2.0.0","92584","5fd0261b85dd3e087609bee6","1","22","404","","","","","","","","","<img src= ""rock_img/I_Andesite_06.jpg"" style=""width:8cm; height:6.840000000000001cm;""><p>What type of rock is this?</p>","5","class_response","0","test","41","Pegmatite","Andesite","06","false","6","1","",""
"","","","","","","","","","","","html-keyboard-response","88","2.0.0","93085","5fd0261b85dd3e087609bee6","1","22","null","","","","","","","","","<p style='font-size: 30px;'><strong>Okay</strong></p>","null","neutral_feedback","0","test","41","","","","","","","",""
"","","","","","","","","","","","html-button-response","89","2.0.0","93573","5fd0261b85dd3e087609bee6","1","22","488","","","","","","","","","<img src= ""rock_img/I_Obsidian_07.jpg"" style=""width:8cm; height:4.76cm;""><p>What type of rock is this?</p>","5","class_response","0","test","42","Pegmatite","Obsidian","07","false","6","5","",""
"","","","","","","","","","","","html-keyboard-response","90","2.0.0","94083","5fd0261b85dd3e087609bee6","1","22","null","","","","","","","","","<p style='font-size: 30px;'><strong>Okay</strong></p>","null","neutral_feedback","0","test","42","","","","","","","",""
"","","","","","","","","","","","html-button-response","91","2.0.0","94621","5fd0261b85dd3e087609bee6","1","22","537","","","","","","","","","<img src= ""rock_img/I_Diorite_14.jpg"" style=""width:8cm; height:5.71cm;""><p>What type of rock is this?</p>","1","class_response","0","test","43","Basalt","Diorite","14","false","2","3","",""
"","","","","","","","","","","","html-keyboard-response","92","2.0.0","95130","5fd0261b85dd3e087609bee6","1","22","null","","","","","","","","","<p style='font-size: 30px;'><strong>Okay</strong></p>","null","neutral_feedback","0","test","43","","","","","","","",""
"","","","","","","","","","","","html-button-response","93","2.0.0","99377","5fd0261b85dd3e087609bee6","1","22","4245","","","","","","","","","<img src= ""rock_img/I_Pumice_04.jpg"" style=""width:8cm; height:6.819999999999999cm;""><p>What type of rock is this?</p>","2","class_response","0","test","44","Diorite","Pumice","04","false","3","8","",""
"","","","","","","","","","","","html-keyboard-response","94","2.0.0","99880","5fd0261b85dd3e087609bee6","1","22","null","","","","","","","","","<p style='font-size: 30px;'><strong>Okay</strong></p>","null","neutral_feedback","0","test","44","","","","","","","",""
"","","","","","","","","","","","html-button-response","95","2.0.0","101032","5fd0261b85dd3e087609bee6","1","22","1151","","","","","","","","","<img src= ""rock_img/I_Diorite_12.jpg"" style=""width:8cm; height:4.88cm;""><p>What type of rock is this?</p>","3","class_response","0","test","45","Gabbro","Diorite","12","false","4","3","",""
"","","","","","","","","","","","html-keyboard-response","96","2.0.0","101533","5fd0261b85dd3e087609bee6","1","22","null","","","","","","","","","<p style='font-size: 30px;'><strong>Okay</strong></p>","null","neutral_feedback","0","test","45","","","","","","","",""
"","","","","","","","","","","","html-button-response","97","2.0.0","102303","5fd0261b85dd3e087609bee6","1","22","770","","","","","","","","","<img src= ""rock_img/I_Obsidian_10.jpg"" style=""width:8cm; height:6.260000000000001cm;""><p>What type of rock is this?</p>","2","class_response","0","test","46","Diorite","Obsidian","10","false","3","5","",""
"","","","","","","","","","","","html-keyboard-response","98","2.0.0","102804","5fd0261b85dd3e087609bee6","1","22","null","","","","","","","","","<p style='font-size: 30px;'><strong>Okay</strong></p>","null","neutral_feedback","0","test","46","","","","","","","",""
"","","","","","","","","","","","html-button-response","99","2.0.0","103115","5fd0261b85dd3e087609bee6","1","22","311","","","","","","","","","<img src= ""rock_img/I_Andesite_03.jpg"" style=""width:8cm; height:5.73cm;""><p>What type of rock is this?</p>","6","class_response","0","test","47","Peridotite","Andesite","03","false","7","1","",""
"","","","","","","","","","","","html-keyboard-response","100","2.0.0","103617","5fd0261b85dd3e087609bee6","1","22","null","","","","","","","","","<p style='font-size: 30px;'><strong>Okay</strong></p>","null","neutral_feedback","0","test","47","","","","","","","",""
"","","","","","","","","","","","html-button-response","101","2.0.0","104371","5fd0261b85dd3e087609bee6","1","22","753","","","","","","","","","<img src= ""rock_img/I_Pegmatite_03.jpg"" style=""width:8cm; height:5.239999999999999cm;""><p>What type of rock is this?</p>","2","class_response","0","test","48","Diorite","Pegmatite","03","false","3","6","",""
"","","","","","","","","","","","html-keyboard-response","102","2.0.0","104873","5fd0261b85dd3e087609bee6","1","22","null","","","","","","","","","<p style='font-size: 30px;'><strong>Okay</strong></p>","null","neutral_feedback","0","test","48","","","","","","","",""
"","","","","","","","","","","","instructions","103","2.0.0","123093","5fd0261b85dd3e087609bee6","1","22","18201","","","","","","","","[{""page_index"":0,""viewing_time"":5359},{""page_index"":1,""viewing_time"":10899},{""page_index"":2,""viewing_time"":1942}]","","","","","","","","","","","","","",""
"","","","","","","","","","","","html-button-response","104","2.0.0","124499","5fd0261b85dd3e087609bee6","1","22","1405","","","","","","","","","","0","start_train","","","","","","","","","","",""
"","","","","","","","","","","","html-button-response","105","2.0.0","127959","5fd0261b85dd3e087609bee6","1","22","3459","","","","","","","","","<img src= ""rock_img/I_Basalt_12.jpg"" style=""width:8cm; height:6.010000000000001cm;""><p>What type of rock is this?</p>","5","class_response","1","train","1","Pegmatite","Basalt","12","false","6","2","",""
"","","","","","","","","","","","html-button-response","106","2.0.0","130523","5fd0261b85dd3e087609bee6","1","22","2563","","","","","","","","","<img src= rock_img/I_Basalt_12.jpg style=""width:8cm; height:6.010000000000001cm;""><p style='font-size: 30px; color: red;'><strong>Incorrect!</strong></p><p style='font-size: 30px;'><strong>This rock is basalt</strong></p>","0","corr_feedback","1","train","1","","","","","","","",""
"","","","","","","","","","","","html-button-response","107","2.0.0","143138","5fd0261b85dd3e087609bee6","1","22","12613","","","","","","","","","<img src= ""rock_img/I_Diorite_09.jpg"" style=""width:8cm; height:5.27cm;""><p>What type of rock is this?</p>","0","class_response","1","train","2","Andesite","Diorite","09","false","1","3","",""
"","","","","","","","","","","","html-button-response","108","2.0.0","145574","5fd0261b85dd3e087609bee6","1","22","2435","","","","","","","","","<img src= rock_img/I_Diorite_09.jpg style=""width:8cm; height:5.27cm;""><p style='font-size: 30px; color: red;'><strong>Incorrect!</strong></p><p style='font-size: 30px;'><strong>This rock is diorite</strong></p>","0","corr_feedback","1","train","2","","","","","","","",""
"","","","","","","","","","","","html-button-response","109","2.0.0","149214","5fd0261b85dd3e087609bee6","1","22","3638","","","","","","","","","<img src= ""rock_img/I_Obsidian_05.jpg"" style=""width:8cm; height:6.33cm;""><p>What type of rock is this?</p>","4","class_response","1","train","3","Obsidian","Obsidian","05","true","5","5","",""
"","","","","","","","","","","","html-button-response","110","2.0.0","150580","5fd0261b85dd3e087609bee6","1","22","1364","","","","","","","","","<img src= rock_img/I_Obsidian_05.jpg style=""width:8cm; height:6.33cm;""><p style='font-size: 30px; color: green;'><strong>Correct!</strong></p><p style='font-size: 30px;'><strong>This rock is obsidian</strong></p>","0","corr_feedback","1","train","3","","","","","","","",""
"","","","","","","","","","","","html-button-response","111","2.0.0","157214","5fd0261b85dd3e087609bee6","1","22","6633","","","","","","","","","<img src= ""rock_img/I_Pegmatite_15.jpg"" style=""width:8cm; height:6cm;""><p>What type of rock is this?</p>","7","class_response","1","train","4","Pumice","Pegmatite","15","false","8","6","",""
"","","","","","","","","","","","html-button-response","112","2.0.0","159822","5fd0261b85dd3e087609bee6","1","22","2607","","","","","","","","","<img src= rock_img/I_Pegmatite_15.jpg style=""width:8cm; height:6cm;""><p style='font-size: 30px; color: red;'><strong>Incorrect!</strong></p><p style='font-size: 30px;'><strong>This rock is pegmatite</strong></p>","0","corr_feedback","1","train","4","","","","","","","",""
"","","","","","","","","","","","html-button-response","113","2.0.0","163427","5fd0261b85dd3e087609bee6","1","22","3604","","","","","","","","","<img src= ""rock_img/I_Diorite_13.jpg"" style=""width:8cm; height:6.29cm;""><p>What type of rock is this?</p>","0","class_response","1","train","5","Andesite","Diorite","13","false","1","3","",""
"","","","","","","","","","","","html-button-response","114","2.0.0","164846","5fd0261b85dd3e087609bee6","1","22","1418","","","","","","","","","<img src= rock_img/I_Diorite_13.jpg style=""width:8cm; height:6.29cm;""><p style='font-size: 30px; color: red;'><strong>Incorrect!</strong></p><p style='font-size: 30px;'><strong>This rock is diorite</strong></p>","0","corr_feedback","1","train","5","","","","","","","",""
"","","","","","","","","","","","html-button-response","115","2.0.0","175724","5fd0261b85dd3e087609bee6","1","22","10877","","","","","","","","","<img src= ""rock_img/I_Pegmatite_07.jpg"" style=""width:8cm; height:6.7cm;""><p>What type of rock is this?</p>","6","class_response","1","train","6","Peridotite","Pegmatite","07","false","7","6","",""
"","","","","","","","","","","","html-button-response","116","2.0.0","176592","5fd0261b85dd3e087609bee6","1","22","867","","","","","","","","","<img src= rock_img/I_Pegmatite_07.jpg style=""width:8cm; height:6.7cm;""><p style='font-size: 30px; color: red;'><strong>Incorrect!</strong></p><p style='font-size: 30px;'><strong>This rock is pegmatite</strong></p>","0","corr_feedback","1","train","6","","","","","","","",""
"","","","","","","","","","","","html-button-response","117","2.0.0","181674","5fd0261b85dd3e087609bee6","1","22","5081","","","","","","","","","<img src= ""rock_img/I_Pumice_14.jpg"" style=""width:8cm; height:6.39cm;""><p>What type of rock is this?</p>","0","class_response","1","train","7","Andesite","Pumice","14","false","1","8","",""
"","","","","","","","","","","","html-button-response","118","2.0.0","182870","5fd0261b85dd3e087609bee6","1","22","1195","","","","","","","","","<img src= rock_img/I_Pumice_14.jpg style=""width:8cm; height:6.39cm;""><p style='font-size: 30px; color: red;'><strong>Incorrect!</strong></p><p style='font-size: 30px;'><strong>This rock is pumice</strong></p>","0","corr_feedback","1","train","7","","","","","","","",""
"","","","","","","","","","","","html-button-response","119","2.0.0","188800","5fd0261b85dd3e087609bee6","1","22","5929","","","","","","","","","<img src= ""rock_img/I_Gabbro_14.jpg"" style=""width:8cm; height:8.48cm;""><p>What type of rock is this?</p>","6","class_response","1","train","8","Peridotite","Gabbro","14","false","7","4","",""
"","","","","","","","","","","","html-button-response","120","2.0.0","189728","5fd0261b85dd3e087609bee6","1","22","927","","","","","","","","","<img src= rock_img/I_Gabbro_14.jpg style=""width:8cm; height:8.48cm;""><p style='font-size: 30px; color: red;'><strong>Incorrect!</strong></p><p style='font-size: 30px;'><strong>This rock is gabbro</strong></p>","0","corr_feedback","1","train","8","","","","","","","",""
"","","","","","","","","","","","html-button-response","121","2.0.0","197866","5fd0261b85dd3e087609bee6","1","22","8137","","","","","","","","","<img src= ""rock_img/I_Obsidian_04.jpg"" style=""width:8cm; height:6.930000000000001cm;""><p>What type of rock is this?</p>","4","class_response","1","train","9","Obsidian","Obsidian","04","true","5","5","",""
"","","","","","","","","","","","html-button-response","122","2.0.0","198931","5fd0261b85dd3e087609bee6","1","22","1063","","","","","","","","","<img src= rock_img/I_Obsidian_04.jpg style=""width:8cm; height:6.930000000000001cm;""><p style='font-size: 30px; color: green;'><strong>Correct!</strong></p><p style='font-size: 30px;'><strong>This rock is obsidian</strong></p>","0","corr_feedback","1","train","9","","","","","","","",""
"","","","","","","","","","","","html-button-response","123","2.0.0","204393","5fd0261b85dd3e087609bee6","1","22","5461","","","","","","","","","<img src= ""rock_img/I_Pegmatite_08.jpg"" style=""width:8cm; height:7.68cm;""><p>What type of rock is this?</p>","3","class_response","1","train","10","Gabbro","Pegmatite","08","false","4","6","",""
"","","","","","","","","","","","html-button-response","124","2.0.0","205313","5fd0261b85dd3e087609bee6","1","22","919","","","","","","","","","<img src= rock_img/I_Pegmatite_08.jpg style=""width:8cm; height:7.68cm;""><p style='font-size: 30px; color: red;'><strong>Incorrect!</strong></p><p style='font-size: 30px;'><strong>This rock is pegmatite</strong></p>","0","corr_feedback","1","train","10","","","","","","","",""
"","","","","","","","","","","","html-button-response","125","2.0.0","207474","5fd0261b85dd3e087609bee6","1","22","2160","","","","","","","","","<img src= ""rock_img/I_Diorite_06.jpg"" style=""width:8cm; height:6.03cm;""><p>What type of rock is this?</p>","2","class_response","1","train","11","Diorite","Diorite","06","true","3","3","",""
"","","","","","","","","","","","html-button-response","126","2.0.0","208288","5fd0261b85dd3e087609bee6","1","22","813","","","","","","","","","<img src= rock_img/I_Diorite_06.jpg style=""width:8cm; height:6.03cm;""><p style='font-size: 30px; color: green;'><strong>Correct!</strong></p><p style='font-size: 30px;'><strong>This rock is diorite</strong></p>","0","corr_feedback","1","train","11","","","","","","","",""
"","","","","","","","","","","","html-button-response","127","2.0.0","212033","5fd0261b85dd3e087609bee6","1","22","3743","","","","","","","","","<img src= ""rock_img/I_Pumice_16.jpg"" style=""width:8cm; height:6.79cm;""><p>What type of rock is this?</p>","6","class_response","1","train","12","Peridotite","Pumice","16","false","7","8","",""
"","","","","","","","","","","","html-button-response","128","2.0.0","212900","5fd0261b85dd3e087609bee6","1","22","867","","","","","","","","","<img src= rock_img/I_Pumice_16.jpg style=""width:8cm; height:6.79cm;""><p style='font-size: 30px; color: red;'><strong>Incorrect!</strong></p><p style='font-size: 30px;'><strong>This rock is pumice</strong></p>","0","corr_feedback","1","train","12","","","","","","","",""
"","","","","","","","","","","","html-button-response","129","2.0.0","215376","5fd0261b85dd3e087609bee6","1","22","2475","","","","","","","","","<img src= ""rock_img/I_Pegmatite_05.jpg"" style=""width:8cm; height:7.300000000000001cm;""><p>What type of rock is this?</p>","4","class_response","1","train","13","Obsidian","Pegmatite","05","false","5","6","",""
"","","","","","","","","","","","html-button-response","130","2.0.0","216284","5fd0261b85dd3e087609bee6","1","22","907","","","","","","","","","<img src= rock_img/I_Pegmatite_05.jpg style=""width:8cm; height:7.300000000000001cm;""><p style='font-size: 30px; color: red;'><strong>Incorrect!</strong></p><p style='font-size: 30px;'><strong>This rock is pegmatite</strong></p>","0","corr_feedback","1","train","13","","","","","","","",""
"","","","","","","","","","","","html-button-response","131","2.0.0","219709","5fd0261b85dd3e087609bee6","1","22","3423","","","","","","","","","<img src= ""rock_img/I_Pumice_06.jpg"" style=""width:8cm; height:6.9399999999999995cm;""><p>What type of rock is this?</p>","5","class_response","1","train","14","Pegmatite","Pumice","06","false","6","8","",""
"","","","","","","","","","","","html-button-response","132","2.0.0","220470","5fd0261b85dd3e087609bee6","1","22","760","","","","","","","","","<img src= rock_img/I_Pumice_06.jpg style=""width:8cm; height:6.9399999999999995cm;""><p style='font-size: 30px; color: red;'><strong>Incorrect!</strong></p><p style='font-size: 30px;'><strong>This rock is pumice</strong></p>","0","corr_feedback","1","train","14","","","","","","","",""
"","","","","","","","","","","","html-button-response","133","2.0.0","226668","5fd0261b85dd3e087609bee6","1","22","6197","","","","","","","","","<img src= ""rock_img/I_Gabbro_10.jpg"" style=""width:8cm; height:5.680000000000001cm;""><p>What type of rock is this?</p>","1","class_response","1","train","15","Basalt","Gabbro","10","false","2","4","",""
"","","","","","","","","","","","html-button-response","134","2.0.0","227576","5fd0261b85dd3e087609bee6","1","22","907","","","","","","","","","<img src= rock_img/I_Gabbro_10.jpg style=""width:8cm; height:5.680000000000001cm;""><p style='font-size: 30px; color: red;'><strong>Incorrect!</strong></p><p style='font-size: 30px;'><strong>This rock is gabbro</strong></p>","0","corr_feedback","1","train","15","","","","","","","",""
"","","","","","","","","","","","html-button-response","135","2.0.0","229984","5fd0261b85dd3e087609bee6","1","22","2407","","","","","","","","","<img src= ""rock_img/I_Andesite_10.jpg"" style=""width:8cm; height:4.16cm;""><p>What type of rock is this?</p>","1","class_response","1","train","16","Basalt","Andesite","10","false","2","1","",""
"","","","","","","","","","","","html-button-response","136","2.0.0","230604","5fd0261b85dd3e087609bee6","1","22","619","","","","","","","","","<img src= rock_img/I_Andesite_10.jpg style=""width:8cm; height:4.16cm;""><p style='font-size: 30px; color: red;'><strong>Incorrect!</strong></p><p style='font-size: 30px;'><strong>This rock is andesite</strong></p>","0","corr_feedback","1","train","16","","","","","","","",""
"","","","","","","","","","","","html-button-response","137","2.0.0","232118","5fd0261b85dd3e087609bee6","1","22","1513","","","","","","","","","<img src= ""rock_img/I_Pegmatite_12.jpg"" style=""width:8cm; height:5.7cm;""><p>What type of rock is this?</p>","2","class_response","1","train","17","Diorite","Pegmatite","12","false","3","6","",""
"","","","","","","","","","","","html-button-response","138","2.0.0","232784","5fd0261b85dd3e087609bee6","1","22","665","","","","","","","","","<img src= rock_img/I_Pegmatite_12.jpg style=""width:8cm; height:5.7cm;""><p style='font-size: 30px; color: red;'><strong>Incorrect!</strong></p><p style='font-size: 30px;'><strong>This rock is pegmatite</strong></p>","0","corr_feedback","1","train","17","","","","","","","",""
"","","","","","","","","","","","html-button-response","139","2.0.0","235750","5fd0261b85dd3e087609bee6","1","22","2965","","","","","","","","","<img src= ""rock_img/I_Andesite_05.jpg"" style=""width:8cm; height:4.12cm;""><p>What type of rock is this?</p>","0","class_response","1","train","18","Andesite","Andesite","05","true","1","1","",""
"","","","","","","","","","","","html-button-response","140","2.0.0","236708","5fd0261b85dd3e087609bee6","1","22","957","","","","","","","","","<img src= rock_img/I_Andesite_05.jpg style=""width:8cm; height:4.12cm;""><p style='font-size: 30px; color: green;'><strong>Correct!</strong></p><p style='font-size: 30px;'><strong>This rock is andesite</strong></p>","0","corr_feedback","1","train","18","","","","","","","",""
"","","","","","","","","","","","html-button-response","141","2.0.0","244994","5fd0261b85dd3e087609bee6","1","22","8285","","","","","","","","","<img src= ""rock_img/I_Basalt_02.jpg"" style=""width:8cm; height:6.45cm;""><p>What type of rock is this?</p>","5","class_response","1","train","19","Pegmatite","Basalt","02","false","6","2","",""
"","","","","","","","","","","","html-button-response","142","2.0.0","245793","5fd0261b85dd3e087609bee6","1","22","797","","","","","","","","","<img src= rock_img/I_Basalt_02.jpg style=""width:8cm; height:6.45cm;""><p style='font-size: 30px; color: red;'><strong>Incorrect!</strong></p><p style='font-size: 30px;'><strong>This rock is basalt</strong></p>","0","corr_feedback","1","train","19","","","","","","","",""
"","","","","","","","","","","","html-button-response","143","2.0.0","248855","5fd0261b85dd3e087609bee6","1","22","3061","","","","","","","","","<img src= ""rock_img/I_Peridotite_15.jpg"" style=""width:8cm; height:6cm;""><p>What type of rock is this?</p>","7","class_response","1","train","20","Pumice","Peridotite","15","false","8","7","",""
"","","","","","","","","","","","html-button-response","144","2.0.0","249730","5fd0261b85dd3e087609bee6","1","22","875","","","","","","","","","<img src= rock_img/I_Peridotite_15.jpg style=""width:8cm; height:6cm;""><p style='font-size: 30px; color: red;'><strong>Incorrect!</strong></p><p style='font-size: 30px;'><strong>This rock is peridotite</strong></p>","0","corr_feedback","1","train","20","","","","","","","",""
"","","","","","","","","","","","html-button-response","145","2.0.0","251214","5fd0261b85dd3e087609bee6","1","22","1483","","","","","","","","","<img src= ""rock_img/I_Obsidian_06.jpg"" style=""width:8cm; height:6.8cm;""><p>What type of rock is this?</p>","4","class_response","1","train","21","Obsidian","Obsidian","06","true","5","5","",""
"","","","","","","","","","","","html-button-response","146","2.0.0","251814","5fd0261b85dd3e087609bee6","1","22","599","","","","","","","","","<img src= rock_img/I_Obsidian_06.jpg style=""width:8cm; height:6.8cm;""><p style='font-size: 30px; color: green;'><strong>Correct!</strong></p><p style='font-size: 30px;'><strong>This rock is obsidian</strong></p>","0","corr_feedback","1","train","21","","","","","","","",""
"","","","","","","","","","","","html-button-response","147","2.0.0","254002","5fd0261b85dd3e087609bee6","1","22","2187","","","","","","","","","<img src= ""rock_img/I_Andesite_11.jpg"" style=""width:8cm; height:4.92cm;""><p>What type of rock is this?</p>","2","class_response","1","train","22","Diorite","Andesite","11","false","3","1","",""
"","","","","","","","","","","","html-button-response","148","2.0.0","254770","5fd0261b85dd3e087609bee6","1","22","767","","","","","","","","","<img src= rock_img/I_Andesite_11.jpg style=""width:8cm; height:4.92cm;""><p style='font-size: 30px; color: red;'><strong>Incorrect!</strong></p><p style='font-size: 30px;'><strong>This rock is andesite</strong></p>","0","corr_feedback","1","train","22","","","","","","","",""
"","","","","","","","","","","","html-button-response","149","2.0.0","257615","5fd0261b85dd3e087609bee6","1","22","2843","","","","","","","","","<img src= ""rock_img/I_Basalt_11.jpg"" style=""width:8cm; height:5.359999999999999cm;""><p>What type of rock is this?</p>","1","class_response","1","train","23","Basalt","Basalt","11","true","2","2","",""
"","","","","","","","","","","","html-button-response","150","2.0.0","258305","5fd0261b85dd3e087609bee6","1","22","689","","","","","","","","","<img src= rock_img/I_Basalt_11.jpg style=""width:8cm; height:5.359999999999999cm;""><p style='font-size: 30px; color: green;'><strong>Correct!</strong></p><p style='font-size: 30px;'><strong>This rock is basalt</strong></p>","0","corr_feedback","1","train","23","","","","","","","",""
"","","","","","","","","","","","html-button-response","151","2.0.0","259455","5fd0261b85dd3e087609bee6","1","22","1149","","","","","","","","","<img src= ""rock_img/I_Obsidian_08.jpg"" style=""width:8cm; height:7.39cm;""><p>What type of rock is this?</p>","4","class_response","1","train","24","Obsidian","Obsidian","08","true","5","5","",""
"","","","","","","","","","","","html-button-response","152","2.0.0","260110","5fd0261b85dd3e087609bee6","1","22","655","","","","","","","","","<img src= rock_img/I_Obsidian_08.jpg style=""width:8cm; height:7.39cm;""><p style='font-size: 30px; color: green;'><strong>Correct!</strong></p><p style='font-size: 30px;'><strong>This rock is obsidian</strong></p>","0","corr_feedback","1","train","24","","","","","","","",""
"","","","","","","","","","","","html-button-response","153","2.0.0","263531","5fd0261b85dd3e087609bee6","1","22","3420","","","","","","","","","<img src= ""rock_img/I_Pumice_13.jpg"" style=""width:8cm; height:8.200000000000001cm;""><p>What type of rock is this?</p>","7","class_response","1","train","25","Pumice","Pumice","13","true","8","8","",""
"","","","","","","","","","","","html-button-response","154","2.0.0","264267","5fd0261b85dd3e087609bee6","1","22","735","","","","","","","","","<img src= rock_img/I_Pumice_13.jpg style=""width:8cm; height:8.200000000000001cm;""><p style='font-size: 30px; color: green;'><strong>Correct!</strong></p><p style='font-size: 30px;'><strong>This rock is pumice</strong></p>","0","corr_feedback","1","train","25","","","","","","","",""
"","","","","","","","","","","","html-button-response","155","2.0.0","266845","5fd0261b85dd3e087609bee6","1","22","2577","","","","","","","","","<img src= ""rock_img/I_Gabbro_13.jpg"" style=""width:8cm; height:5.08cm;""><p>What type of rock is this?</p>","5","class_response","1","train","26","Pegmatite","Gabbro","13","false","6","4","",""
"","","","","","","","","","","","html-button-response","156","2.0.0","267713","5fd0261b85dd3e087609bee6","1","22","867","","","","","","","","","<img src= rock_img/I_Gabbro_13.jpg style=""width:8cm; height:5.08cm;""><p style='font-size: 30px; color: red;'><strong>Incorrect!</strong></p><p style='font-size: 30px;'><strong>This rock is gabbro</strong></p>","0","corr_feedback","1","train","26","","","","","","","",""
"","","","","","","","","","","","html-button-response","157","2.0.0","276963","5fd0261b85dd3e087609bee6","1","22","9249","","","","","","","","","<img src= ""rock_img/I_Basalt_14.jpg"" style=""width:8cm; height:5.82cm;""><p>What type of rock is this?</p>","1","class_response","1","train","27","Basalt","Basalt","14","true","2","2","",""
"","","","","","","","","","","","html-button-response","158","2.0.0","277745","5fd0261b85dd3e087609bee6","1","22","781","","","","","","","","","<img src= rock_img/I_Basalt_14.jpg style=""width:8cm; height:5.82cm;""><p style='font-size: 30px; color: green;'><strong>Correct!</strong></p><p style='font-size: 30px;'><strong>This rock is basalt</strong></p>","0","corr_feedback","1","train","27","","","","","","","",""
"","","","","","","","","","","","html-button-response","159","2.0.0","279601","5fd0261b85dd3e087609bee6","1","22","1855","","","","","","","","","<img src= ""rock_img/I_Peridotite_14.jpg"" style=""width:8cm; height:5.3cm;""><p>What type of rock is this?</p>","2","class_response","1","train","28","Diorite","Peridotite","14","false","3","7","",""
"","","","","","","","","","","","html-button-response","160","2.0.0","280457","5fd0261b85dd3e087609bee6","1","22","855","","","","","","","","","<img src= rock_img/I_Peridotite_14.jpg style=""width:8cm; height:5.3cm;""><p style='font-size: 30px; color: red;'><strong>Incorrect!</strong></p><p style='font-size: 30px;'><strong>This rock is peridotite</strong></p>","0","corr_feedback","1","train","28","","","","","","","",""
"","","","","","","","","","","","html-button-response","161","2.0.0","285889","5fd0261b85dd3e087609bee6","1","22","5431","","","","","","","","","<img src= ""rock_img/I_Obsidian_09.jpg"" style=""width:8cm; height:5cm;""><p>What type of rock is this?</p>","4","class_response","1","train","29","Obsidian","Obsidian","09","true","5","5","",""
"","","","","","","","","","","","html-button-response","162","2.0.0","286985","5fd0261b85dd3e087609bee6","1","22","1095","","","","","","","","","<img src= rock_img/I_Obsidian_09.jpg style=""width:8cm; height:5cm;""><p style='font-size: 30px; color: green;'><strong>Correct!</strong></p><p style='font-size: 30px;'><strong>This rock is obsidian</strong></p>","0","corr_feedback","1","train","29","","","","","","","",""
"","","","","","","","","","","","html-button-response","163","2.0.0","288321","5fd0261b85dd3e087609bee6","1","22","1335","","","","","","","","","<img src= ""rock_img/I_Peridotite_10.jpg"" style=""width:8cm; height:5.390000000000001cm;""><p>What type of rock is this?</p>","2","class_response","1","train","30","Diorite","Peridotite","10","false","3","7","",""
"","","","","","","","","","","","html-button-response","164","2.0.0","288821","5fd0261b85dd3e087609bee6","1","22","499","","","","","","","","","<img src= rock_img/I_Peridotite_10.jpg style=""width:8cm; height:5.390000000000001cm;""><p style='font-size: 30px; color: red;'><strong>Incorrect!</strong></p><p style='font-size: 30px;'><strong>This rock is peridotite</strong></p>","0","corr_feedback","1","train","30","","","","","","","",""
"","","","","","","","","","","","html-button-response","165","2.0.0","291121","5fd0261b85dd3e087609bee6","1","22","2299","","","","","","","","","<img src= ""rock_img/I_Andesite_07.jpg"" style=""width:8cm; height:5.93cm;""><p>What type of rock is this?</p>","5","class_response","1","train","31","Pegmatite","Andesite","07","false","6","1","",""
"","","","","","","","","","","","html-button-response","166","2.0.0","291701","5fd0261b85dd3e087609bee6","1","22","579","","","","","","","","","<img src= rock_img/I_Andesite_07.jpg style=""width:8cm; height:5.93cm;""><p style='font-size: 30px; color: red;'><strong>Incorrect!</strong></p><p style='font-size: 30px;'><strong>This rock is andesite</strong></p>","0","corr_feedback","1","train","31","","","","","","","",""
"","","","","","","","","","","","html-button-response","167","2.0.0","294653","5fd0261b85dd3e087609bee6","1","22","2950","","","","","","","","","<img src= ""rock_img/I_Peridotite_05.jpg"" style=""width:8cm; height:7.1499999999999995cm;""><p>What type of rock is this?</p>","5","class_response","1","train","32","Pegmatite","Peridotite","05","false","6","7","",""
"","","","","","","","","","","","html-button-response","168","2.0.0","295435","5fd0261b85dd3e087609bee6","1","22","781","","","","","","","","","<img src= rock_img/I_Peridotite_05.jpg style=""width:8cm; height:7.1499999999999995cm;""><p style='font-size: 30px; color: red;'><strong>Incorrect!</strong></p><p style='font-size: 30px;'><strong>This rock is peridotite</strong></p>","0","corr_feedback","1","train","32","","","","","","","",""
"","","","","","","","","","","","html-button-response","169","2.0.0","296633","5fd0261b85dd3e087609bee6","1","22","1197","","","","","","","","","<img src= ""rock_img/I_Basalt_09.jpg"" style=""width:8cm; height:6.2cm;""><p>What type of rock is this?</p>","1","class_response","1","train","33","Basalt","Basalt","09","true","2","2","",""
"","","","","","","","","","","","html-button-response","170","2.0.0","297111","5fd0261b85dd3e087609bee6","1","22","477","","","","","","","","","<img src= rock_img/I_Basalt_09.jpg style=""width:8cm; height:6.2cm;""><p style='font-size: 30px; color: green;'><strong>Correct!</strong></p><p style='font-size: 30px;'><strong>This rock is basalt</strong></p>","0","corr_feedback","1","train","33","","","","","","","",""
"","","","","","","","","","","","html-button-response","171","2.0.0","298207","5fd0261b85dd3e087609bee6","1","22","1095","","","","","","","","","<img src= ""rock_img/I_Obsidian_16.jpg"" style=""width:8cm; height:9.3cm;""><p>What type of rock is this?</p>","4","class_response","1","train","34","Obsidian","Obsidian","16","true","5","5","",""
"","","","","","","","","","","","html-button-response","172","2.0.0","298913","5fd0261b85dd3e087609bee6","1","22","705","","","","","","","","","<img src= rock_img/I_Obsidian_16.jpg style=""width:8cm; height:9.3cm;""><p style='font-size: 30px; color: green;'><strong>Correct!</strong></p><p style='font-size: 30px;'><strong>This rock is obsidian</strong></p>","0","corr_feedback","1","train","34","","","","","","","",""
"","","","","","","","","","","","html-button-response","173","2.0.0","300361","5fd0261b85dd3e087609bee6","1","22","1447","","","","","","","","","<img src= ""rock_img/I_Peridotite_04.jpg"" style=""width:8cm; height:6.680000000000001cm;""><p>What type of rock is this?</p>","2","class_response","1","train","35","Diorite","Peridotite","04","false","3","7","",""
"","","","","","","","","","","","html-button-response","174","2.0.0","301067","5fd0261b85dd3e087609bee6","1","22","704","","","","","","","","","<img src= rock_img/I_Peridotite_04.jpg style=""width:8cm; height:6.680000000000001cm;""><p style='font-size: 30px; color: red;'><strong>Incorrect!</strong></p><p style='font-size: 30px;'><strong>This rock is peridotite</strong></p>","0","corr_feedback","1","train","35","","","","","","","",""
"","","","","","","","","","","","html-button-response","175","2.0.0","303779","5fd0261b85dd3e087609bee6","1","22","2711","","","","","","","","","<img src= ""rock_img/I_Gabbro_01.jpg"" style=""width:8cm; height:5.21cm;""><p>What type of rock is this?</p>","5","class_response","1","train","36","Pegmatite","Gabbro","01","false","6","4","",""
"","","","","","","","","","","","html-button-response","176","2.0.0","304501","5fd0261b85dd3e087609bee6","1","22","721","","","","","","","","","<img src= rock_img/I_Gabbro_01.jpg style=""width:8cm; height:5.21cm;""><p style='font-size: 30px; color: red;'><strong>Incorrect!</strong></p><p style='font-size: 30px;'><strong>This rock is gabbro</strong></p>","0","corr_feedback","1","train","36","","","","","","","",""
"","","","","","","","","","","","html-button-response","177","2.0.0","306261","5fd0261b85dd3e087609bee6","1","22","1759","","","","","","","","","<img src= ""rock_img/I_Pumice_10.jpg"" style=""width:8cm; height:7.609999999999999cm;""><p>What type of rock is this?</p>","1","class_response","1","train","37","Basalt","Pumice","10","false","2","8","",""
"","","","","","","","","","","","html-button-response","178","2.0.0","306820","5fd0261b85dd3e087609bee6","1","22","558","","","","","","","","","<img src= rock_img/I_Pumice_10.jpg style=""width:8cm; height:7.609999999999999cm;""><p style='font-size: 30px; color: red;'><strong>Incorrect!</strong></p><p style='font-size: 30px;'><strong>This rock is pumice</strong></p>","0","corr_feedback","1","train","37","","","","","","","",""
"","","","","","","","","","","","html-button-response","179","2.0.0","308975","5fd0261b85dd3e087609bee6","1","22","2153","","","","","","","","","<img src= ""rock_img/I_Diorite_07.jpg"" style=""width:8cm; height:5.239999999999999cm;""><p>What type of rock is this?</p>","4","class_response","1","train","38","Obsidian","Diorite","07","false","5","3","",""
"","","","","","","","","","","","html-button-response","180","2.0.0","309837","5fd0261b85dd3e087609bee6","1","22","861","","","","","","","","","<img src= rock_img/I_Diorite_07.jpg style=""width:8cm; height:5.239999999999999cm;""><p style='font-size: 30px; color: red;'><strong>Incorrect!</strong></p><p style='font-size: 30px;'><strong>This rock is diorite</strong></p>","0","corr_feedback","1","train","38","","","","","","","",""
"","","","","","","","","","","","html-button-response","181","2.0.0","311547","5fd0261b85dd3e087609bee6","1","22","1709","","","","","","","","","<img src= ""rock_img/I_Diorite_02.jpg"" style=""width:8cm; height:6.27cm;""><p>What type of rock is this?</p>","4","class_response","1","train","39","Obsidian","Diorite","02","false","5","3","",""
"","","","","","","","","","","","html-button-response","182","2.0.0","312399","5fd0261b85dd3e087609bee6","1","22","851","","","","","","","","","<img src= rock_img/I_Diorite_02.jpg style=""width:8cm; height:6.27cm;""><p style='font-size: 30px; color: red;'><strong>Incorrect!</strong></p><p style='font-size: 30px;'><strong>This rock is diorite</strong></p>","0","corr_feedback","1","train","39","","","","","","","",""
"","","","","","","","","","","","html-button-response","183","2.0.0","314569","5fd0261b85dd3e087609bee6","1","22","2169","","","","","","","","","<img src= ""rock_img/I_Gabbro_08.jpg"" style=""width:8cm; height:5.15cm;""><p>What type of rock is this?</p>","0","class_response","1","train","40","Andesite","Gabbro","08","false","1","4","",""
"","","","","","","","","","","","html-button-response","184","2.0.0","315325","5fd0261b85dd3e087609bee6","1","22","755","","","","","","","","","<img src= rock_img/I_Gabbro_08.jpg style=""width:8cm; height:5.15cm;""><p style='font-size: 30px; color: red;'><strong>Incorrect!</strong></p><p style='font-size: 30px;'><strong>This rock is gabbro</strong></p>","0","corr_feedback","1","train","40","","","","","","","",""
"","","","","","","","","","","","html-button-response","185","2.0.0","317208","5fd0261b85dd3e087609bee6","1","22","1881","","","","","","","","","<img src= ""rock_img/I_Diorite_10.jpg"" style=""width:8cm; height:5.949999999999999cm;""><p>What type of rock is this?</p>","3","class_response","1","train","41","Gabbro","Diorite","10","false","4","3","",""
"","","","","","","","","","","","html-button-response","186","2.0.0","318073","5fd0261b85dd3e087609bee6","1","22","864","","","","","","","","","<img src= rock_img/I_Diorite_10.jpg style=""width:8cm; height:5.949999999999999cm;""><p style='font-size: 30px; color: red;'><strong>Incorrect!</strong></p><p style='font-size: 30px;'><strong>This rock is diorite</strong></p>","0","corr_feedback","1","train","41","","","","","","","",""
"","","","","","","","","","","","html-button-response","187","2.0.0","319591","5fd0261b85dd3e087609bee6","1","22","1517","","","","","","","","","<img src= ""rock_img/I_Pumice_03.jpg"" style=""width:8cm; height:6.64cm;""><p>What type of rock is this?</p>","1","class_response","1","train","42","Basalt","Pumice","03","false","2","8","",""
"","","","","","","","","","","","html-button-response","188","2.0.0","320217","5fd0261b85dd3e087609bee6","1","22","625","","","","","","","","","<img src= rock_img/I_Pumice_03.jpg style=""width:8cm; height:6.64cm;""><p style='font-size: 30px; color: red;'><strong>Incorrect!</strong></p><p style='font-size: 30px;'><strong>This rock is pumice</strong></p>","0","corr_feedback","1","train","42","","","","","","","",""
"","","","","","","","","","","","html-button-response","189","2.0.0","323123","5fd0261b85dd3e087609bee6","1","22","2905","","","","","","","","","<img src= ""rock_img/I_Gabbro_12.jpg"" style=""width:8cm; height:7.800000000000001cm;""><p>What type of rock is this?</p>","0","class_response","1","train","43","Andesite","Gabbro","12","false","1","4","",""
"","","","","","","","","","","","html-button-response","190","2.0.0","323970","5fd0261b85dd3e087609bee6","1","22","846","","","","","","","","","<img src= rock_img/I_Gabbro_12.jpg style=""width:8cm; height:7.800000000000001cm;""><p style='font-size: 30px; color: red;'><strong>Incorrect!</strong></p><p style='font-size: 30px;'><strong>This rock is gabbro</strong></p>","0","corr_feedback","1","train","43","","","","","","","",""
"","","","","","","","","","","","html-button-response","191","2.0.0","326003","5fd0261b85dd3e087609bee6","1","22","2033","","","","","","","","","<img src= ""rock_img/I_Basalt_01.jpg"" style=""width:8cm; height:7.880000000000001cm;""><p>What type of rock is this?</p>","0","class_response","1","train","44","Andesite","Basalt","01","false","1","2","",""
"","","","","","","","","","","","html-button-response","192","2.0.0","326997","5fd0261b85dd3e087609bee6","1","22","993","","","","","","","","","<img src= rock_img/I_Basalt_01.jpg style=""width:8cm; height:7.880000000000001cm;""><p style='font-size: 30px; color: red;'><strong>Incorrect!</strong></p><p style='font-size: 30px;'><strong>This rock is basalt</strong></p>","0","corr_feedback","1","train","44","","","","","","","",""
"","","","","","","","","","","","html-button-response","193","2.0.0","328469","5fd0261b85dd3e087609bee6","1","22","1471","","","","","","","","","<img src= ""rock_img/I_Andesite_09.jpg"" style=""width:8cm; height:6cm;""><p>What type of rock is this?</p>","1","class_response","1","train","45","Basalt","Andesite","09","false","2","1","",""
"","","","","","","","","","","","html-button-response","194","2.0.0","329328","5fd0261b85dd3e087609bee6","1","22","857","","","","","","","","","<img src= rock_img/I_Andesite_09.jpg style=""width:8cm; height:6cm;""><p style='font-size: 30px; color: red;'><strong>Incorrect!</strong></p><p style='font-size: 30px;'><strong>This rock is andesite</strong></p>","0","corr_feedback","1","train","45","","","","","","","",""
"","","","","","","","","","","","html-button-response","195","2.0.0","331426","5fd0261b85dd3e087609bee6","1","22","2097","","","","","","","","","<img src= ""rock_img/I_Pegmatite_09.jpg"" style=""width:8cm; height:4.03cm;""><p>What type of rock is this?</p>","2","class_response","1","train","46","Diorite","Pegmatite","09","false","3","6","",""
"","","","","","","","","","","","html-button-response","196","2.0.0","332211","5fd0261b85dd3e087609bee6","1","22","785","","","","","","","","","<img src= rock_img/I_Pegmatite_09.jpg style=""width:8cm; height:4.03cm;""><p style='font-size: 30px; color: red;'><strong>Incorrect!</strong></p><p style='font-size: 30px;'><strong>This rock is pegmatite</strong></p>","0","corr_feedback","1","train","46","","","","","","","",""
"","","","","","","","","","","","html-button-response","197","2.0.0","335510","5fd0261b85dd3e087609bee6","1","22","3297","","","","","","","","","<img src= ""rock_img/I_Peridotite_06.jpg"" style=""width:8cm; height:7.53cm;""><p>What type of rock is this?</p>","6","class_response","1","train","47","Peridotite","Peridotite","06","true","7","7","",""
"","","","","","","","","","","","html-button-response","198","2.0.0","336373","5fd0261b85dd3e087609bee6","1","22","862","","","","","","","","","<img src= rock_img/I_Peridotite_06.jpg style=""width:8cm; height:7.53cm;""><p style='font-size: 30px; color: green;'><strong>Correct!</strong></p><p style='font-size: 30px;'><strong>This rock is peridotite</strong></p>","0","corr_feedback","1","train","47","","","","","","","",""
"","","","","","","","","","","","html-button-response","199","2.0.0","340815","5fd0261b85dd3e087609bee6","1","22","4441","","","","","","","","","<img src= ""rock_img/I_Andesite_01.jpg"" style=""width:8cm; height:5.87cm;""><p>What type of rock is this?</p>","3","class_response","1","train","48","Gabbro","Andesite","01","false","4","1","",""
"","","","","","","","","","","","html-button-response","200","2.0.0","341663","5fd0261b85dd3e087609bee6","1","22","847","","","","","","","","","<img src= rock_img/I_Andesite_01.jpg style=""width:8cm; height:5.87cm;""><p style='font-size: 30px; color: red;'><strong>Incorrect!</strong></p><p style='font-size: 30px;'><strong>This rock is andesite</strong></p>","0","corr_feedback","1","train","48","","","","","","","",""
"","","","","","","","","","","","instructions","203","2.0.0","388254","5fd0261b85dd3e087609bee6","1","22","46589","","","","","","","","[{""page_index"":0,""viewing_time"":11721},{""page_index"":1,""viewing_time"":34868}]","","","","","","","","","","","","","",""
"","","","","","","","","","","","html-button-response","204","2.0.0","389464","5fd0261b85dd3e087609bee6","1","22","1209","","","","","","","","","","0","start_test","","","","","","","","","","",""
"","","","","","","","","","","","html-button-response","205","2.0.0","390847","5fd0261b85dd3e087609bee6","1","22","1383","","","","","","","","","<img src= ""rock_img/I_Gabbro_16.jpg"" style=""width:8cm; height:6.44cm;""><p>What type of rock is this?</p>","5","class_response","1","test","1","Pegmatite","Gabbro","16","false","6","4","",""
"","","","","","","","","","","","html-keyboard-response","206","2.0.0","391348","5fd0261b85dd3e087609bee6","1","22","null","","","","","","","","","<p style='font-size: 30px;'><strong>Okay</strong></p>","null","neutral_feedback","1","test","1","","","","","","","",""
"","","","","","","","","","","","html-button-response","207","2.0.0","392168","5fd0261b85dd3e087609bee6","1","22","818","","","","","","","","","<img src= ""rock_img/I_Pumice_05.jpg"" style=""width:8cm; height:7.25cm;""><p>What type of rock is this?</p>","2","class_response","1","test","2","Diorite","Pumice","05","false","3","8","",""
"","","","","","","","","","","","html-keyboard-response","208","2.0.0","392679","5fd0261b85dd3e087609bee6","1","22","null","","","","","","","","","<p style='font-size: 30px;'><strong>Okay</strong></p>","null","neutral_feedback","1","test","2","","","","","","","",""
"","","","","","","","","","","","html-button-response","209","2.0.0","393016","5fd0261b85dd3e087609bee6","1","22","335","","","","","","","","","<img src= ""rock_img/I_Diorite_16.jpg"" style=""width:8cm; height:6.74cm;""><p>What type of rock is this?</p>","1","class_response","1","test","3","Basalt","Diorite","16","false","2","3","",""
"","","","","","","","","","","","html-keyboard-response","210","2.0.0","393528","5fd0261b85dd3e087609bee6","1","22","null","","","","","","","","","<p style='font-size: 30px;'><strong>Okay</strong></p>","null","neutral_feedback","1","test","3","","","","","","","",""
"","","","","","","","","","","","html-button-response","211","2.0.0","404604","5fd0261b85dd3e087609bee6","1","22","11075","","","","","","","","","<img src= ""rock_img/I_Obsidian_11.jpg"" style=""width:8cm; height:6.05cm;""><p>What type of rock is this?</p>","4","class_response","1","test","4","Obsidian","Obsidian","11","true","5","5","",""
"","","","","","","","","","","","html-keyboard-response","212","2.0.0","405105","5fd0261b85dd3e087609bee6","1","22","null","","","","","","","","","<p style='font-size: 30px;'><strong>Okay</strong></p>","null","neutral_feedback","1","test","4","","","","","","","",""
"","","","","","","","","","","","html-button-response","213","2.0.0","407918","5fd0261b85dd3e087609bee6","1","22","2811","","","","","","","","","<img src= ""rock_img/I_Pumice_08.jpg"" style=""width:8cm; height:6.67cm;""><p>What type of rock is this?</p>","7","class_response","1","test","5","Pumice","Pumice","08","true","8","8","",""
"","","","","","","","","","","","html-keyboard-response","214","2.0.0","408426","5fd0261b85dd3e087609bee6","1","22","null","","","","","","","","","<p style='font-size: 30px;'><strong>Okay</strong></p>","null","neutral_feedback","1","test","5","","","","","","","",""
"","","","","","","","","","","","html-button-response","215","2.0.0","409476","5fd0261b85dd3e087609bee6","1","22","1049","","","","","","","","","<img src= ""rock_img/I_Obsidian_12.jpg"" style=""width:8cm; height:6.53cm;""><p>What type of rock is this?</p>","4","class_response","1","test","6","Obsidian","Obsidian","12","true","5","5","",""
"","","","","","","","","","","","html-keyboard-response","216","2.0.0","409988","5fd0261b85dd3e087609bee6","1","22","null","","","","","","","","","<p style='font-size: 30px;'><strong>Okay</strong></p>","null","neutral_feedback","1","test","6","","","","","","","",""
"","","","","","","","","","","","html-button-response","217","2.0.0","410788","5fd0261b85dd3e087609bee6","1","22","799","","","","","","","","","<img src= ""rock_img/I_Pumice_09.jpg"" style=""width:8cm; height:6.44cm;""><p>What type of rock is this?</p>","1","class_response","1","test","7","Basalt","Pumice","09","false","2","8","",""
"","","","","","","","","","","","html-keyboard-response","218","2.0.0","411289","5fd0261b85dd3e087609bee6","1","22","null","","","","","","","","","<p style='font-size: 30px;'><strong>Okay</strong></p>","null","neutral_feedback","1","test","7","","","","","","","",""
"","","","","","","","","","","","html-button-response","219","2.0.0","411856","5fd0261b85dd3e087609bee6","1","22","565","","","","","","","","","<img src= ""rock_img/I_Peridotite_07.jpg"" style=""width:8cm; height:4.83cm;""><p>What type of rock is this?</p>","6","class_response","1","test","8","Peridotite","Peridotite","07","true","7","7","",""
"","","","","","","","","","","","html-keyboard-response","220","2.0.0","412357","5fd0261b85dd3e087609bee6","1","22","null","","","","","","","","","<p style='font-size: 30px;'><strong>Okay</strong></p>","null","neutral_feedback","1","test","8","","","","","","","",""
"","","","","","","","","","","","html-button-response","221","2.0.0","413078","5fd0261b85dd3e087609bee6","1","22","720","","","","","","","","","<img src= ""rock_img/I_Diorite_11.jpg"" style=""width:8cm; height:7.11cm;""><p>What type of rock is this?</p>","2","class_response","1","test","9","Diorite","Diorite","11","true","3","3","",""
"","","","","","","","","","","","html-keyboard-response","222","2.0.0","413580","5fd0261b85dd3e087609bee6","1","22","null","","","","","","","","","<p style='font-size: 30px;'><strong>Okay</strong></p>","null","neutral_feedback","1","test","9","","","","","","","",""
"","","","","","","","","","","","html-button-response","223","2.0.0","413890","5fd0261b85dd3e087609bee6","1","22","309","","","","","","","","","<img src= ""rock_img/I_Basalt_04.jpg"" style=""width:8cm; height:7.53cm;""><p>What type of rock is this?</p>","6","class_response","1","test","10","Peridotite","Basalt","04","false","7","2","",""
"","","","","","","","","","","","html-keyboard-response","224","2.0.0","414390","5fd0261b85dd3e087609bee6","1","22","null","","","","","","","","","<p style='font-size: 30px;'><strong>Okay</strong></p>","null","neutral_feedback","1","test","10","","","","","","","",""
"","","","","","","","","","","","html-button-response","225","2.0.0","415302","5fd0261b85dd3e087609bee6","1","22","911","","","","","","","","","<img src= ""rock_img/I_Basalt_08.jpg"" style=""width:8cm; height:10.44cm;""><p>What type of rock is this?</p>","1","class_response","1","test","11","Basalt","Basalt","08","true","2","2","",""
"","","","","","","","","","","","html-keyboard-response","226","2.0.0","415805","5fd0261b85dd3e087609bee6","1","22","null","","","","","","","","","<p style='font-size: 30px;'><strong>Okay</strong></p>","null","neutral_feedback","1","test","11","","","","","","","",""
"","","","","","","","","","","","html-button-response","227","2.0.0","415972","5fd0261b85dd3e087609bee6","1","22","165","","","","","","","","","<img src= ""rock_img/I_Gabbro_09.jpg"" style=""width:8cm; height:7.279999999999999cm;""><p>What type of rock is this?</p>","6","class_response","1","test","12","Peridotite","Gabbro","09","false","7","4","",""
"","","","","","","","","","","","html-keyboard-response","228","2.0.0","416485","5fd0261b85dd3e087609bee6","1","22","null","","","","","","","","","<p style='font-size: 30px;'><strong>Okay</strong></p>","null","neutral_feedback","1","test","12","","","","","","","",""
"","","","","","","","","","","","html-button-response","229","2.0.0","416810","5fd0261b85dd3e087609bee6","1","22","324","","","","","","","","","<img src= ""rock_img/I_Obsidian_02.jpg"" style=""width:8cm; height:7.51cm;""><p>What type of rock is this?</p>","6","class_response","1","test","13","Peridotite","Obsidian","02","false","7","5","",""
"","","","","","","","","","","","html-keyboard-response","230","2.0.0","417319","5fd0261b85dd3e087609bee6","1","22","null","","","","","","","","","<p style='font-size: 30px;'><strong>Okay</strong></p>","null","neutral_feedback","1","test","13","","","","","","","",""
"","","","","","","","","","","","html-button-response","231","2.0.0","418430","5fd0261b85dd3e087609bee6","1","22","1110","","","","","","","","","<img src= ""rock_img/I_Peridotite_13.jpg"" style=""width:8cm; height:7.58cm;""><p>What type of rock is this?</p>","4","class_response","1","test","14","Obsidian","Peridotite","13","false","5","7","",""
"","","","","","","","","","","","html-keyboard-response","232","2.0.0","418944","5fd0261b85dd3e087609bee6","1","22","null","","","","","","","","","<p style='font-size: 30px;'><strong>Okay</strong></p>","null","neutral_feedback","1","test","14","","","","","","","",""
"","","","","","","","","","","","html-button-response","233","2.0.0","419715","5fd0261b85dd3e087609bee6","1","22","770","","","","","","","","","<img src= ""rock_img/I_Pegmatite_03.jpg"" style=""width:8cm; height:5.239999999999999cm;""><p>What type of rock is this?</p>","5","class_response","1","test","15","Pegmatite","Pegmatite","03","true","6","6","",""
"","","","","","","","","","","","html-keyboard-response","234","2.0.0","420230","5fd0261b85dd3e087609bee6","1","22","null","","","","","","","","","<p style='font-size: 30px;'><strong>Okay</strong></p>","null","neutral_feedback","1","test","15","","","","","","","",""
"","","","","","","","","","","","html-button-response","235","2.0.0","421905","5fd0261b85dd3e087609bee6","1","22","1674","","","","","","","","","<img src= ""rock_img/I_Andesite_04.jpg"" style=""width:8cm; height:5.96cm;""><p>What type of rock is this?</p>","2","class_response","1","test","16","Diorite","Andesite","04","false","3","1","",""
"","","","","","","","","","","","html-keyboard-response","236","2.0.0","422406","5fd0261b85dd3e087609bee6","1","22","null","","","","","","","","","<p style='font-size: 30px;'><strong>Okay</strong></p>","null","neutral_feedback","1","test","16","","","","","","","",""
"","","","","","","","","","","","html-button-response","237","2.0.0","422980","5fd0261b85dd3e087609bee6","1","22","573","","","","","","","","","<img src= ""rock_img/I_Andesite_14.jpg"" style=""width:8cm; height:5.449999999999999cm;""><p>What type of rock is this?</p>","3","class_response","1","test","17","Gabbro","Andesite","14","false","4","1","",""
"","","","","","","","","","","","html-keyboard-response","238","2.0.0","423484","5fd0261b85dd3e087609bee6","1","22","null","","","","","","","","","<p style='font-size: 30px;'><strong>Okay</strong></p>","null","neutral_feedback","1","test","17","","","","","","","",""
"","","","","","","","","","","","html-button-response","239","2.0.0","424344","5fd0261b85dd3e087609bee6","1","22","859","","","","","","","","","<img src= ""rock_img/I_Pegmatite_16.jpg"" style=""width:8cm; height:5.8cm;""><p>What type of rock is this?</p>","7","class_response","1","test","18","Pumice","Pegmatite","16","false","8","6","",""
"","","","","","","","","","","","html-keyboard-response","240","2.0.0","424846","5fd0261b85dd3e087609bee6","1","22","null","","","","","","","","","<p style='font-size: 30px;'><strong>Okay</strong></p>","null","neutral_feedback","1","test","18","","","","","","","",""
"","","","","","","","","","","","html-button-response","241","2.0.0","425438","5fd0261b85dd3e087609bee6","1","22","591","","","","","","","","","<img src= ""rock_img/I_Diorite_08.jpg"" style=""width:8cm; height:6.37cm;""><p>What type of rock is this?</p>","7","class_response","1","test","19","Pumice","Diorite","08","false","8","3","",""
"","","","","","","","","","","","html-keyboard-response","242","2.0.0","425939","5fd0261b85dd3e087609bee6","1","22","null","","","","","","","","","<p style='font-size: 30px;'><strong>Okay</strong></p>","null","neutral_feedback","1","test","19","","","","","","","",""
"","","","","","","","","","","","html-button-response","243","2.0.0","426688","5fd0261b85dd3e087609bee6","1","22","747","","","","","","","","","<img src= ""rock_img/I_Andesite_16.jpg"" style=""width:8cm; height:6.010000000000001cm;""><p>What type of rock is this?</p>","2","class_response","1","test","20","Diorite","Andesite","16","false","3","1","",""
"","","","","","","","","","","","html-keyboard-response","244","2.0.0","427188","5fd0261b85dd3e087609bee6","1","22","null","","","","","","","","","<p style='font-size: 30px;'><strong>Okay</strong></p>","null","neutral_feedback","1","test","20","","","","","","","",""
"","","","","","","","","","","","html-button-response","245","2.0.0","427652","5fd0261b85dd3e087609bee6","1","22","463","","","","","","","","","<img src= ""rock_img/I_Peridotite_12.jpg"" style=""width:8cm; height:4.54cm;""><p>What type of rock is this?</p>","7","class_response","1","test","21","Pumice","Peridotite","12","false","8","7","",""
"","","","","","","","","","","","html-keyboard-response","246","2.0.0","428152","5fd0261b85dd3e087609bee6","1","22","null","","","","","","","","","<p style='font-size: 30px;'><strong>Okay</strong></p>","null","neutral_feedback","1","test","21","","","","","","","",""
"","","","","","","","","","","","html-button-response","247","2.0.0","429210","5fd0261b85dd3e087609bee6","1","22","1056","","","","","","","","","<img src= ""rock_img/I_Basalt_16.jpg"" style=""width:8cm; height:7.659999999999999cm;""><p>What type of rock is this?</p>","3","class_response","1","test","22","Gabbro","Basalt","16","false","4","2","",""
"","","","","","","","","","","","html-keyboard-response","248","2.0.0","429711","5fd0261b85dd3e087609bee6","1","22","null","","","","","","","","","<p style='font-size: 30px;'><strong>Okay</strong></p>","null","neutral_feedback","1","test","22","","","","","","","",""
"","","","","","","","","","","","html-button-response","249","2.0.0","430905","5fd0261b85dd3e087609bee6","1","22","1194","","","","","","","","","<img src= ""rock_img/I_Peridotite_02.jpg"" style=""width:8cm; height:5.859999999999999cm;""><p>What type of rock is this?</p>","1","class_response","1","test","23","Basalt","Peridotite","02","false","2","7","",""
"","","","","","","","","","","","html-keyboard-response","250","2.0.0","431410","5fd0261b85dd3e087609bee6","1","22","null","","","","","","","","","<p style='font-size: 30px;'><strong>Okay</strong></p>","null","neutral_feedback","1","test","23","","","","","","","",""
"","","","","","","","","","","","html-button-response","251","2.0.0","432308","5fd0261b85dd3e087609bee6","1","22","896","","","","","","","","","<img src= ""rock_img/I_Andesite_03.jpg"" style=""width:8cm; height:5.73cm;""><p>What type of rock is this?</p>","2","class_response","1","test","24","Diorite","Andesite","03","false","3","1","",""
"","","","","","","","","","","","html-keyboard-response","252","2.0.0","432820","5fd0261b85dd3e087609bee6","1","22","null","","","","","","","","","<p style='font-size: 30px;'><strong>Okay</strong></p>","null","neutral_feedback","1","test","24","","","","","","","",""
"","","","","","","","","","","","html-button-response","253","2.0.0","438475","5fd0261b85dd3e087609bee6","1","22","5654","","","","","","","","","<img src= ""rock_img/I_Pumice_04.jpg"" style=""width:8cm; height:6.819999999999999cm;""><p>What type of rock is this?</p>","3","class_response","1","test","25","Gabbro","Pumice","04","false","4","8","",""
"","","","","","","","","","","","html-keyboard-response","254","2.0.0","438986","5fd0261b85dd3e087609bee6","1","22","null","","","","","","","","","<p style='font-size: 30px;'><strong>Okay</strong></p>","null","neutral_feedback","1","test","25","","","","","","","",""
"","","","","","","","","","","","html-button-response","255","2.0.0","440836","5fd0261b85dd3e087609bee6","1","22","1848","","","","","","","","","<img src= ""rock_img/I_Basalt_10.jpg"" style=""width:8cm; height:5.85cm;""><p>What type of rock is this?</p>","4","class_response","1","test","26","Obsidian","Basalt","10","false","5","2","",""
"","","","","","","","","","","","html-keyboard-response","256","2.0.0","441351","5fd0261b85dd3e087609bee6","1","22","null","","","","","","","","","<p style='font-size: 30px;'><strong>Okay</strong></p>","null","neutral_feedback","1","test","26","","","","","","","",""
"","","","","","","","","","","","html-button-response","257","2.0.0","442318","5fd0261b85dd3e087609bee6","1","22","965","","","","","","","","","<img src= ""rock_img/I_Obsidian_14.jpg"" style=""width:8cm; height:7.64cm;""><p>What type of rock is this?</p>","4","class_response","1","test","27","Obsidian","Obsidian","14","true","5","5","",""
"","","","","","","","","","","","html-keyboard-response","258","2.0.0","442819","5fd0261b85dd3e087609bee6","1","22","null","","","","","","","","","<p style='font-size: 30px;'><strong>Okay</strong></p>","null","neutral_feedback","1","test","27","","","","","","","",""
"","","","","","","","","","","","html-button-response","259","2.0.0","447392","5fd0261b85dd3e087609bee6","1","22","4571","","","","","","","","","<img src= ""rock_img/I_Andesite_06.jpg"" style=""width:8cm; height:6.840000000000001cm;""><p>What type of rock is this?</p>","0","class_response","1","test","28","Andesite","Andesite","06","true","1","1","",""
"","","","","","","","","","","","html-keyboard-response","260","2.0.0","447902","5fd0261b85dd3e087609bee6","1","22","null","","","","","","","","","<p style='font-size: 30px;'><strong>Okay</strong></p>","null","neutral_feedback","1","test","28","","","","","","","",""
"","","","","","","","","","","","html-button-response","261","2.0.0","454077","5fd0261b85dd3e087609bee6","1","22","6174","","","","","","","","","<img src= ""rock_img/I_Pegmatite_06.jpg"" style=""width:8cm; height:5.17cm;""><p>What type of rock is this?</p>","7","class_response","1","test","29","Pumice","Pegmatite","06","false","8","6","",""
"","","","","","","","","","","","html-keyboard-response","262","2.0.0","454578","5fd0261b85dd3e087609bee6","1","22","null","","","","","","","","","<p style='font-size: 30px;'><strong>Okay</strong></p>","null","neutral_feedback","1","test","29","","","","","","","",""
"","","","","","","","","","","","html-button-response","263","2.0.0","465027","5fd0261b85dd3e087609bee6","1","22","10448","","","","","","","","","<img src= ""rock_img/I_Gabbro_05.jpg"" style=""width:8cm; height:6cm;""><p>What type of rock is this?</p>","7","class_response","1","test","30","Pumice","Gabbro","05","false","8","4","",""
"","","","","","","","","","","","html-keyboard-response","264","2.0.0","465533","5fd0261b85dd3e087609bee6","1","22","null","","","","","","","","","<p style='font-size: 30px;'><strong>Okay</strong></p>","null","neutral_feedback","1","test","30","","","","","","","",""
"","","","","","","","","","","","html-button-response","265","2.0.0","466720","5fd0261b85dd3e087609bee6","1","22","1185","","","","","","","","","<img src= ""rock_img/I_Pegmatite_13.jpg"" style=""width:8cm; height:4.95cm;""><p>What type of rock is this?</p>","7","class_response","1","test","31","Pumice","Pegmatite","13","false","8","6","",""
"","","","","","","","","","","","html-keyboard-response","266","2.0.0","467232","5fd0261b85dd3e087609bee6","1","22","null","","","","","","","","","<p style='font-size: 30px;'><strong>Okay</strong></p>","null","neutral_feedback","1","test","31","","","","","","","",""
"","","","","","","","","","","","html-button-response","267","2.0.0","473988","5fd0261b85dd3e087609bee6","1","22","6755","","","","","","","","","<img src= ""rock_img/I_Peridotite_16.jpg"" style=""width:8cm; height:6.989999999999999cm;""><p>What type of rock is this?</p>","3","class_response","1","test","32","Gabbro","Peridotite","16","false","4","7","",""
"","","","","","","","","","","","html-keyboard-response","268","2.0.0","474504","5fd0261b85dd3e087609bee6","1","22","null","","","","","","","","","<p style='font-size: 30px;'><strong>Okay</strong></p>","null","neutral_feedback","1","test","32","","","","","","","",""
"","","","","","","","","","","","html-button-response","269","2.0.0","476314","5fd0261b85dd3e087609bee6","1","22","1809","","","","","","","","","<img src= ""rock_img/I_Pumice_15.jpg"" style=""width:8cm; height:7.86cm;""><p>What type of rock is this?</p>","1","class_response","1","test","33","Basalt","Pumice","15","false","2","8","",""
"","","","","","","","","","","","html-keyboard-response","270","2.0.0","476821","5fd0261b85dd3e087609bee6","1","22","null","","","","","","","","","<p style='font-size: 30px;'><strong>Okay</strong></p>","null","neutral_feedback","1","test","33","","","","","","","",""
"","","","","","","","","","","","html-button-response","271","2.0.0","477515","5fd0261b85dd3e087609bee6","1","22","692","","","","","","","","","<img src= ""rock_img/I_Gabbro_11.jpg"" style=""width:8cm; height:6.2cm;""><p>What type of rock is this?</p>","6","class_response","1","test","34","Peridotite","Gabbro","11","false","7","4","",""
"","","","","","","","","","","","html-keyboard-response","272","2.0.0","478017","5fd0261b85dd3e087609bee6","1","22","null","","","","","","","","","<p style='font-size: 30px;'><strong>Okay</strong></p>","null","neutral_feedback","1","test","34","","","","","","","",""
"","","","","","","","","","","","html-button-response","273","2.0.0","483022","5fd0261b85dd3e087609bee6","1","22","5004","","","","","","","","","<img src= ""rock_img/I_Diorite_14.jpg"" style=""width:8cm; height:5.71cm;""><p>What type of rock is this?</p>","7","class_response","1","test","35","Pumice","Diorite","14","false","8","3","",""
"","","","","","","","","","","","html-keyboard-response","274","2.0.0","483524","5fd0261b85dd3e087609bee6","1","22","null","","","","","","","","","<p style='font-size: 30px;'><strong>Okay</strong></p>","null","neutral_feedback","1","test","35","","","","","","","",""
"","","","","","","","","","","","html-button-response","275","2.0.0","486598","5fd0261b85dd3e087609bee6","1","22","3074","","","","","","","","","<img src= ""rock_img/I_Pumice_02.jpg"" style=""width:8cm; height:7.3999999999999995cm;""><p>What type of rock is this?</p>","5","class_response","1","test","36","Pegmatite","Pumice","02","false","6","8","",""
"","","","","","","","","","","","html-keyboard-response","276","2.0.0","487108","5fd0261b85dd3e087609bee6","1","22","null","","","","","","","","","<p style='font-size: 30px;'><strong>Okay</strong></p>","null","neutral_feedback","1","test","36","","","","","","","",""
"","","","","","","","","","","","html-button-response","277","2.0.0","488394","5fd0261b85dd3e087609bee6","1","22","1285","","","","","","","","","<img src= ""rock_img/I_Diorite_12.jpg"" style=""width:8cm; height:4.88cm;""><p>What type of rock is this?</p>","1","class_response","1","test","37","Basalt","Diorite","12","false","2","3","",""
"","","","","","","","","","","","html-keyboard-response","278","2.0.0","488896","5fd0261b85dd3e087609bee6","1","22","null","","","","","","","","","<p style='font-size: 30px;'><strong>Okay</strong></p>","null","neutral_feedback","1","test","37","","","","","","","",""
"","","","","","","","","","","","html-button-response","279","2.0.0","490966","5fd0261b85dd3e087609bee6","1","22","2069","","","","","","","","","<img src= ""rock_img/I_Gabbro_03.jpg"" style=""width:8cm; height:8.52cm;""><p>What type of rock is this?</p>","0","class_response","1","test","38","Andesite","Gabbro","03","false","1","4","",""
"","","","","","","","","","","","html-keyboard-response","280","2.0.0","491474","5fd0261b85dd3e087609bee6","1","22","null","","","","","","","","","<p style='font-size: 30px;'><strong>Okay</strong></p>","null","neutral_feedback","1","test","38","","","","","","","",""
"","","","","","","","","","","","html-button-response","281","2.0.0","494078","5fd0261b85dd3e087609bee6","1","22","2603","","","","","","","","","<img src= ""rock_img/I_Diorite_15.jpg"" style=""width:8cm; height:5.54cm;""><p>What type of rock is this?</p>","6","class_response","1","test","39","Peridotite","Diorite","15","false","7","3","",""
"","","","","","","","","","","","html-keyboard-response","282","2.0.0","494591","5fd0261b85dd3e087609bee6","1","22","null","","","","","","","","","<p style='font-size: 30px;'><strong>Okay</strong></p>","null","neutral_feedback","1","test","39","","","","","","","",""
"","","","","","","","","","","","html-button-response","283","2.0.0","499868","5fd0261b85dd3e087609bee6","1","22","5276","","","","","","","","","<img src= ""rock_img/I_Obsidian_07.jpg"" style=""width:8cm; height:4.76cm;""><p>What type of rock is this?</p>","3","class_response","1","test","40","Gabbro","Obsidian","07","false","4","5","",""
"","","","","","","","","","","","html-keyboard-response","284","2.0.0","500372","5fd0261b85dd3e087609bee6","1","22","null","","","","","","","","","<p style='font-size: 30px;'><strong>Okay</strong></p>","null","neutral_feedback","1","test","40","","","","","","","",""
"","","","","","","","","","","","html-button-response","285","2.0.0","502904","5fd0261b85dd3e087609bee6","1","22","2531","","","","","","","","","<img src= ""rock_img/I_Andesite_02.jpg"" style=""width:8cm; height:8.5cm;""><p>What type of rock is this?</p>","2","class_response","1","test","41","Diorite","Andesite","02","false","3","1","",""
"","","","","","","","","","","","html-keyboard-response","286","2.0.0","503408","5fd0261b85dd3e087609bee6","1","22","null","","","","","","","","","<p style='font-size: 30px;'><strong>Okay</strong></p>","null","neutral_feedback","1","test","41","","","","","","","",""
"","","","","","","","","","","","html-button-response","287","2.0.0","509659","5fd0261b85dd3e087609bee6","1","22","6249","","","","","","","","","<img src= ""rock_img/I_Basalt_05.jpg"" style=""width:8cm; height:8.18cm;""><p>What type of rock is this?</p>","1","class_response","1","test","42","Basalt","Basalt","05","true","2","2","",""
"","","","","","","","","","","","html-keyboard-response","288","2.0.0","510173","5fd0261b85dd3e087609bee6","1","22","null","","","","","","","","","<p style='font-size: 30px;'><strong>Okay</strong></p>","null","neutral_feedback","1","test","42","","","","","","","",""
"","","","","","","","","","","","html-button-response","289","2.0.0","511917","5fd0261b85dd3e087609bee6","1","22","1743","","","","","","","","","<img src= ""rock_img/I_Basalt_06.jpg"" style=""width:8cm; height:7.06cm;""><p>What type of rock is this?</p>","4","class_response","1","test","43","Obsidian","Basalt","06","false","5","2","",""
"","","","","","","","","","","","html-keyboard-response","290","2.0.0","512418","5fd0261b85dd3e087609bee6","1","22","null","","","","","","","","","<p style='font-size: 30px;'><strong>Okay</strong></p>","null","neutral_feedback","1","test","43","","","","","","","",""
"","","","","","","","","","","","html-button-response","291","2.0.0","514157","5fd0261b85dd3e087609bee6","1","22","1737","","","","","","","","","<img src= ""rock_img/I_Pegmatite_11.jpg"" style=""width:8cm; height:8.14cm;""><p>What type of rock is this?</p>","4","class_response","1","test","44","Obsidian","Pegmatite","11","false","5","6","",""
"","","","","","","","","","","","html-keyboard-response","292","2.0.0","514667","5fd0261b85dd3e087609bee6","1","22","null","","","","","","","","","<p style='font-size: 30px;'><strong>Okay</strong></p>","null","neutral_feedback","1","test","44","","","","","","","",""
"","","","","","","","","","","","html-button-response","293","2.0.0","520104","5fd0261b85dd3e087609bee6","1","22","5437","","","","","","","","","<img src= ""rock_img/I_Gabbro_15.jpg"" style=""width:8cm; height:6.29cm;""><p>What type of rock is this?</p>","3","class_response","1","test","45","Gabbro","Gabbro","15","true","4","4","",""
"","","","","","","","","","","","html-keyboard-response","294","2.0.0","520614","5fd0261b85dd3e087609bee6","1","22","null","","","","","","","","","<p style='font-size: 30px;'><strong>Okay</strong></p>","null","neutral_feedback","1","test","45","","","","","","","",""
"","","","","","","","","","","","html-button-response","295","2.0.0","522263","5fd0261b85dd3e087609bee6","1","22","1648","","","","","","","","","<img src= ""rock_img/I_Peridotite_08.jpg"" style=""width:8cm; height:6.7cm;""><p>What type of rock is this?</p>","5","class_response","1","test","46","Pegmatite","Peridotite","08","false","6","7","",""
"","","","","","","","","","","","html-keyboard-response","296","2.0.0","522764","5fd0261b85dd3e087609bee6","1","22","null","","","","","","","","","<p style='font-size: 30px;'><strong>Okay</strong></p>","null","neutral_feedback","1","test","46","","","","","","","",""
"","","","","","","","","","","","html-button-response","297","2.0.0","524467","5fd0261b85dd3e087609bee6","1","22","1702","","","","","","","","","<img src= ""rock_img/I_Pegmatite_10.jpg"" style=""width:8cm; height:4.16cm;""><p>What type of rock is this?</p>","6","class_response","1","test","47","Peridotite","Pegmatite","10","false","7","6","",""
"","","","","","","","","","","","html-keyboard-response","298","2.0.0","524978","5fd0261b85dd3e087609bee6","1","22","null","","","","","","","","","<p style='font-size: 30px;'><strong>Okay</strong></p>","null","neutral_feedback","1","test","47","","","","","","","",""
"","","","","","","","","","","","html-button-response","299","2.0.0","526217","5fd0261b85dd3e087609bee6","1","22","1237","","","","","","","","","<img src= ""rock_img/I_Obsidian_10.jpg"" style=""width:8cm; height:6.260000000000001cm;""><p>What type of rock is this?</p>","4","class_response","1","test","48","Obsidian","Obsidian","10","true","5","5","",""
"","","","","","","","","","","","html-keyboard-response","300","2.0.0","526718","5fd0261b85dd3e087609bee6","1","22","null","","","","","","","","","<p style='font-size: 30px;'><strong>Okay</strong></p>","null","neutral_feedback","1","test","48","","","","","","","",""
"","","","","","","","","","","","html-button-response","301","2.0.0","711526","5fd0261b85dd3e087609bee6","1","22","","","","","","","","","","","","cycle_feedback","","","","","","","","","","178424.09999999404","6377.800000011921"
"","","","","","","","","","","","html-button-response","303","2.0.0","712429","5fd0261b85dd3e087609bee6","1","22","901","","","","","","","","","","0","start_train","","","","","","","","","","",""
"","","","","","","","","","","","html-button-response","304","2.0.0","713578","5fd0261b85dd3e087609bee6","1","22","1148","","","","","","","","","<img src= ""rock_img/I_Obsidian_08.jpg"" style=""width:8cm; height:7.39cm;""><p>What type of rock is this?</p>","4","class_response","2","train","1","Obsidian","Obsidian","08","true","5","5","",""
