"width","height","webaudio","browser","browser_version","mobile","os","fullscreen","vsync_rate","webcam","microphone","trial_type","trial_index","plugin_version","time_elapsed","subjID","condition","stimID","rt","url","success","value","timeout","failed_images","failed_audio","failed_video","view_history","stimulus","response","trialType","cycle","phase","trial","resp","cat","token","corr","resp_num","cat_num","time_fb1","time_fb2"
"1536","738","true","chrome","131.0.0","false","Windows 10","true","60.66","true","true","browser-check","0","2.0.0","5094","66495b83f9f5ed828568503f","1","29","","","","","","","","","","","","","","","","","","","","","","",""
"","","","","","","","","","","","external-html","1","2.0.0","172725","66495b83f9f5ed828568503f","1","29","167299","consent_form.html","","","","","","","","","","","","","","","","","","","","",""
"","","","","","","","","","","","fullscreen","2","2.0.0","190843","66495b83f9f5ed828568503f","1","29","17102","","true","","","","","","","","","","","","","","","","","","","",""
"","","","","","","","","","","","call-function","3","2.0.0","190845","66495b83f9f5ed828568503f","1","29","","","","{}","","","","","","","","","","","","","","","","","","",""
"","","","","","","","","","","","preload","4","2.0.0","209800","66495b83f9f5ed828568503f","1","29","","","true","","false","[]","[]","[]","","","","","","","","","","","","","","",""
"","","","","","","","","","","","instructions","5","2.0.0","256342","66495b83f9f5ed828568503f","1","29","46541","","","","","","","","[{""page_index"":0,""viewing_time"":13664},{""page_index"":1,""viewing_time"":18396},{""page_index"":2,""viewing_time"":14480}]","","","","","","","","","","","","","",""
"","","","","","","","","","","","html-button-response","6","2.0.0","258008","66495b83f9f5ed828568503f","1","29","1663","","","","","","","","","","0","start_test","","","","","","","","","","",""
"","","","","","","","","","","","html-button-response","7","2.0.0","262922","66495b83f9f5ed828568503f","1","29","4911","","","","","","","","","<img src= ""rock_img/I_Diorite_02.jpg"" style=""width:8cm; height:6.27cm;""><p>What type of rock is this?</p>","1","class_response","0","test","1","Basalt","Diorite","02","false","2","3","",""
"","","","","","","","","","","","html-keyboard-response","8","2.0.0","263437","66495b83f9f5ed828568503f","1","29","null","","","","","","","","","<p style='font-size: 30px;'><strong>Okay</strong></p>","null","neutral_feedback","0","test","1","","","","","","","",""
"","","","","","","","","","","","html-button-response","9","2.0.0","265798","66495b83f9f5ed828568503f","1","29","2359","","","","","","","","","<img src= ""rock_img/I_Peridotite_10.jpg"" style=""width:8cm; height:5.390000000000001cm;""><p>What type of rock is this?</p>","3","class_response","0","test","2","Gabbro","Peridotite","10","false","4","7","",""
"","","","","","","","","","","","html-keyboard-response","10","2.0.0","266300","66495b83f9f5ed828568503f","1","29","null","","","","","","","","","<p style='font-size: 30px;'><strong>Okay</strong></p>","null","neutral_feedback","0","test","2","","","","","","","",""
"","","","","","","","","","","","html-button-response","11","2.0.0","268564","66495b83f9f5ed828568503f","1","29","2261","","","","","","","","","<img src= ""rock_img/I_Gabbro_11.jpg"" style=""width:8cm; height:6.2cm;""><p>What type of rock is this?</p>","2","class_response","0","test","3","Diorite","Gabbro","11","false","3","4","",""
"","","","","","","","","","","","html-keyboard-response","12","2.0.0","269079","66495b83f9f5ed828568503f","1","29","null","","","","","","","","","<p style='font-size: 30px;'><strong>Okay</strong></p>","null","neutral_feedback","0","test","3","","","","","","","",""
"","","","","","","","","","","","html-button-response","13","2.0.0","270202","66495b83f9f5ed828568503f","1","29","1121","","","","","","","","","<img src= ""rock_img/I_Andesite_11.jpg"" style=""width:8cm; height:4.92cm;""><p>What type of rock is this?</p>","6","class_response","0","test","4","Peridotite","Andesite","11","false","7","1","",""
"","","","","","","","","","","","html-keyboard-response","14","2.0.0","270707","66495b83f9f5ed828568503f","1","29","null","","","","","","","","","<p style='font-size: 30px;'><strong>Okay</strong></p>","null","neutral_feedback","0","test","4","","","","","","","",""
"","","","","","","","","","","","html-button-response","15","2.0.0","272048","66495b83f9f5ed828568503f","1","29","1339","","","","","","","","","<img src= ""rock_img/I_Andesite_03.jpg"" style=""width:8cm; height:5.73cm;""><p>What type of rock is this?</p>","5","class_response","0","test","5","Pegmatite","Andesite","03","false","6","1","",""
"","","","","","","","","","","","html-keyboard-response","16","2.0.0","272563","66495b83f9f5ed828568503f","1","29","null","","","","","","","","","<p style='font-size: 30px;'><strong>Okay</strong></p>","null","neutral_feedback","0","test","5","","","","","","","",""
"","","","","","","","","","","","html-button-response","17","2.0.0","273800","66495b83f9f5ed828568503f","1","29","1235","","","","","","","","","<img src= ""rock_img/I_Diorite_13.jpg"" style=""width:8cm; height:6.29cm;""><p>What type of rock is this?</p>","5","class_response","0","test","6","Pegmatite","Diorite","13","false","6","3","",""
"","","","","","","","","","","","html-keyboard-response","18","2.0.0","274308","66495b83f9f5ed828568503f","1","29","null","","","","","","","","","<p style='font-size: 30px;'><strong>Okay</strong></p>","null","neutral_feedback","0","test","6","","","","","","","",""
"","","","","","","","","","","","html-button-response","19","2.0.0","275322","66495b83f9f5ed828568503f","1","29","1012","","","","","","","","","<img src= ""rock_img/I_Basalt_06.jpg"" style=""width:8cm; height:7.06cm;""><p>What type of rock is this?</p>","1","class_response","0","test","7","Basalt","Basalt","06","true","2","2","",""
"","","","","","","","","","","","html-keyboard-response","20","2.0.0","275823","66495b83f9f5ed828568503f","1","29","null","","","","","","","","","<p style='font-size: 30px;'><strong>Okay</strong></p>","null","neutral_feedback","0","test","7","","","","","","","",""
"","","","","","","","","","","","html-button-response","21","2.0.0","276942","66495b83f9f5ed828568503f","1","29","1117","","","","","","","","","<img src= ""rock_img/I_Peridotite_15.jpg"" style=""width:8cm; height:6cm;""><p>What type of rock is this?</p>","0","class_response","0","test","8","Andesite","Peridotite","15","false","1","7","",""
"","","","","","","","","","","","html-keyboard-response","22","2.0.0","277444","66495b83f9f5ed828568503f","1","29","null","","","","","","","","","<p style='font-size: 30px;'><strong>Okay</strong></p>","null","neutral_feedback","0","test","8","","","","","","","",""
"","","","","","","","","","","","html-button-response","23","2.0.0","278665","66495b83f9f5ed828568503f","1","29","1219","","","","","","","","","<img src= ""rock_img/I_Basalt_09.jpg"" style=""width:8cm; height:6.2cm;""><p>What type of rock is this?</p>","3","class_response","0","test","9","Gabbro","Basalt","09","false","4","2","",""
"","","","","","","","","","","","html-keyboard-response","24","2.0.0","279167","66495b83f9f5ed828568503f","1","29","null","","","","","","","","","<p style='font-size: 30px;'><strong>Okay</strong></p>","null","neutral_feedback","0","test","9","","","","","","","",""
"","","","","","","","","","","","html-button-response","25","2.0.0","280108","66495b83f9f5ed828568503f","1","29","939","","","","","","","","","<img src= ""rock_img/I_Basalt_05.jpg"" style=""width:8cm; height:8.18cm;""><p>What type of rock is this?</p>","6","class_response","0","test","10","Peridotite","Basalt","05","false","7","2","",""
"","","","","","","","","","","","html-keyboard-response","26","2.0.0","280613","66495b83f9f5ed828568503f","1","29","null","","","","","","","","","<p style='font-size: 30px;'><strong>Okay</strong></p>","null","neutral_feedback","0","test","10","","","","","","","",""
"","","","","","","","","","","","html-button-response","27","2.0.0","281508","66495b83f9f5ed828568503f","1","29","893","","","","","","","","","<img src= ""rock_img/I_Basalt_12.jpg"" style=""width:8cm; height:6.010000000000001cm;""><p>What type of rock is this?</p>","5","class_response","0","test","11","Pegmatite","Basalt","12","false","6","2","",""
"","","","","","","","","","","","html-keyboard-response","28","2.0.0","282020","66495b83f9f5ed828568503f","1","29","null","","","","","","","","","<p style='font-size: 30px;'><strong>Okay</strong></p>","null","neutral_feedback","0","test","11","","","","","","","",""
"","","","","","","","","","","","html-button-response","29","2.0.0","283412","66495b83f9f5ed828568503f","1","29","1390","","","","","","","","","<img src= ""rock_img/I_Gabbro_16.jpg"" style=""width:8cm; height:6.44cm;""><p>What type of rock is this?</p>","4","class_response","0","test","12","Obsidian","Gabbro","16","false","5","4","",""
"","","","","","","","","","","","html-keyboard-response","30","2.0.0","283915","66495b83f9f5ed828568503f","1","29","null","","","","","","","","","<p style='font-size: 30px;'><strong>Okay</strong></p>","null","neutral_feedback","0","test","12","","","","","","","",""
"","","","","","","","","","","","html-button-response","31","2.0.0","284616","66495b83f9f5ed828568503f","1","29","700","","","","","","","","","<img src= ""rock_img/I_Diorite_07.jpg"" style=""width:8cm; height:5.239999999999999cm;""><p>What type of rock is this?</p>","1","class_response","0","test","13","Basalt","Diorite","07","false","2","3","",""
"","","","","","","","","","","","html-keyboard-response","32","2.0.0","285125","66495b83f9f5ed828568503f","1","29","null","","","","","","","","","<p style='font-size: 30px;'><strong>Okay</strong></p>","null","neutral_feedback","0","test","13","","","","","","","",""
"","","","","","","","","","","","html-button-response","33","2.0.0","285832","66495b83f9f5ed828568503f","1","29","705","","","","","","","","","<img src= ""rock_img/I_Pumice_13.jpg"" style=""width:8cm; height:8.200000000000001cm;""><p>What type of rock is this?</p>","2","class_response","0","test","14","Diorite","Pumice","13","false","3","8","",""
"","","","","","","","","","","","html-keyboard-response","34","2.0.0","286334","66495b83f9f5ed828568503f","1","29","null","","","","","","","","","<p style='font-size: 30px;'><strong>Okay</strong></p>","null","neutral_feedback","0","test","14","","","","","","","",""
"","","","","","","","","","","","html-button-response","35","2.0.0","286804","66495b83f9f5ed828568503f","1","29","469","","","","","","","","","<img src= ""rock_img/I_Andesite_14.jpg"" style=""width:8cm; height:5.449999999999999cm;""><p>What type of rock is this?</p>","6","class_response","0","test","15","Peridotite","Andesite","14","false","7","1","",""
"","","","","","","","","","","","html-keyboard-response","36","2.0.0","287307","66495b83f9f5ed828568503f","1","29","null","","","","","","","","","<p style='font-size: 30px;'><strong>Okay</strong></p>","null","neutral_feedback","0","test","15","","","","","","","",""
"","","","","","","","","","","","html-button-response","37","2.0.0","287864","66495b83f9f5ed828568503f","1","29","555","","","","","","","","","<img src= ""rock_img/I_Obsidian_08.jpg"" style=""width:8cm; height:7.39cm;""><p>What type of rock is this?</p>","3","class_response","0","test","16","Gabbro","Obsidian","08","false","4","5","",""
"","","","","","","","","","","","html-keyboard-response","38","2.0.0","288365","66495b83f9f5ed828568503f","1","29","null","","","","","","","","","<p style='font-size: 30px;'><strong>Okay</strong></p>","null","neutral_feedback","0","test","16","","","","","","","",""
"","","","","","","","","","","","html-button-response","39","2.0.0","288880","66495b83f9f5ed828568503f","1","29","513","","","","","","","","","<img src= ""rock_img/I_Pumice_14.jpg"" style=""width:8cm; height:6.39cm;""><p>What type of rock is this?</p>","2","class_response","0","test","17","Diorite","Pumice","14","false","3","8","",""
"","","","","","","","","","","","html-keyboard-response","40","2.0.0","289381","66495b83f9f5ed828568503f","1","29","null","","","","","","","","","<p style='font-size: 30px;'><strong>Okay</strong></p>","null","neutral_feedback","0","test","17","","","","","","","",""
"","","","","","","","","","","","html-button-response","41","2.0.0","290348","66495b83f9f5ed828568503f","1","29","965","","","","","","","","","<img src= ""rock_img/I_Obsidian_12.jpg"" style=""width:8cm; height:6.53cm;""><p>What type of rock is this?</p>","5","class_response","0","test","18","Pegmatite","Obsidian","12","false","6","5","",""
"","","","","","","","","","","","html-keyboard-response","42","2.0.0","290853","66495b83f9f5ed828568503f","1","29","null","","","","","","","","","<p style='font-size: 30px;'><strong>Okay</strong></p>","null","neutral_feedback","0","test","18","","","","","","","",""
"","","","","","","","","","","","html-button-response","43","2.0.0","292160","66495b83f9f5ed828568503f","1","29","1306","","","","","","","","","<img src= ""rock_img/I_Pumice_10.jpg"" style=""width:8cm; height:7.609999999999999cm;""><p>What type of rock is this?</p>","5","class_response","0","test","19","Pegmatite","Pumice","10","false","6","8","",""
"","","","","","","","","","","","html-keyboard-response","44","2.0.0","292669","66495b83f9f5ed828568503f","1","29","null","","","","","","","","","<p style='font-size: 30px;'><strong>Okay</strong></p>","null","neutral_feedback","0","test","19","","","","","","","",""
"","","","","","","","","","","","html-button-response","45","2.0.0","293588","66495b83f9f5ed828568503f","1","29","917","","","","","","","","","<img src= ""rock_img/I_Basalt_16.jpg"" style=""width:8cm; height:7.659999999999999cm;""><p>What type of rock is this?</p>","6","class_response","0","test","20","Peridotite","Basalt","16","false","7","2","",""
"","","","","","","","","","","","html-keyboard-response","46","2.0.0","294103","66495b83f9f5ed828568503f","1","29","null","","","","","","","","","<p style='font-size: 30px;'><strong>Okay</strong></p>","null","neutral_feedback","0","test","20","","","","","","","",""
"","","","","","","","","","","","html-button-response","47","2.0.0","294648","66495b83f9f5ed828568503f","1","29","543","","","","","","","","","<img src= ""rock_img/I_Gabbro_14.jpg"" style=""width:8cm; height:8.48cm;""><p>What type of rock is this?</p>","6","class_response","0","test","21","Peridotite","Gabbro","14","false","7","4","",""
"","","","","","","","","","","","html-keyboard-response","48","2.0.0","295154","66495b83f9f5ed828568503f","1","29","null","","","","","","","","","<p style='font-size: 30px;'><strong>Okay</strong></p>","null","neutral_feedback","0","test","21","","","","","","","",""
"","","","","","","","","","","","html-button-response","49","2.0.0","296300","66495b83f9f5ed828568503f","1","29","1144","","","","","","","","","<img src= ""rock_img/I_Peridotite_02.jpg"" style=""width:8cm; height:5.859999999999999cm;""><p>What type of rock is this?</p>","2","class_response","0","test","22","Diorite","Peridotite","02","false","3","7","",""
"","","","","","","","","","","","html-keyboard-response","50","2.0.0","296814","66495b83f9f5ed828568503f","1","29","null","","","","","","","","","<p style='font-size: 30px;'><strong>Okay</strong></p>","null","neutral_feedback","0","test","22","","","","","","","",""
"","","","","","","","","","","","html-button-response","51","2.0.0","297536","66495b83f9f5ed828568503f","1","29","719","","","","","","","","","<img src= ""rock_img/I_Diorite_11.jpg"" style=""width:8cm; height:7.11cm;""><p>What type of rock is this?</p>","1","class_response","0","test","23","Basalt","Diorite","11","false","2","3","",""
"","","","","","","","","","","","html-keyboard-response","52","2.0.0","298047","66495b83f9f5ed828568503f","1","29","null","","","","","","","","","<p style='font-size: 30px;'><strong>Okay</strong></p>","null","neutral_feedback","0","test","23","","","","","","","",""
"","","","","","","","","","","","html-button-response","53","2.0.0","298914","66495b83f9f5ed828568503f","1","29","864","","","","","","","","","<img src= ""rock_img/I_Pegmatite_08.jpg"" style=""width:8cm; height:7.68cm;""><p>What type of rock is this?</p>","0","class_response","0","test","24","Andesite","Pegmatite","08","false","1","6","",""
"","","","","","","","","","","","html-keyboard-response","54","2.0.0","299421","66495b83f9f5ed828568503f","1","29","null","","","","","","","","","<p style='font-size: 30px;'><strong>Okay</strong></p>","null","neutral_feedback","0","test","24","","","","","","","",""
"","","","","","","","","","","","html-button-response","55","2.0.0","300142","66495b83f9f5ed828568503f","1","29","719","","","","","","","","","<img src= ""rock_img/I_Pegmatite_07.jpg"" style=""width:8cm; height:6.7cm;""><p>What type of rock is this?</p>","4","class_response","0","test","25","Obsidian","Pegmatite","07","false","5","6","",""
"","","","","","","","","","","","html-keyboard-response","56","2.0.0","300652","66495b83f9f5ed828568503f","1","29","null","","","","","","","","","<p style='font-size: 30px;'><strong>Okay</strong></p>","null","neutral_feedback","0","test","25","","","","","","","",""
"","","","","","","","","","","","html-button-response","57","2.0.0","301578","66495b83f9f5ed828568503f","1","29","924","","","","","","","","","<img src= ""rock_img/I_Pumice_06.jpg"" style=""width:8cm; height:6.9399999999999995cm;""><p>What type of rock is this?</p>","5","class_response","0","test","26","Pegmatite","Pumice","06","false","6","8","",""
"","","","","","","","","","","","html-keyboard-response","58","2.0.0","302092","66495b83f9f5ed828568503f","1","29","null","","","","","","","","","<p style='font-size: 30px;'><strong>Okay</strong></p>","null","neutral_feedback","0","test","26","","","","","","","",""
"","","","","","","","","","","","html-button-response","59","2.0.0","302784","66495b83f9f5ed828568503f","1","29","690","","","","","","","","","<img src= ""rock_img/I_Pumice_02.jpg"" style=""width:8cm; height:7.3999999999999995cm;""><p>What type of rock is this?</p>","6","class_response","0","test","27","Peridotite","Pumice","02","false","7","8","",""
"","","","","","","","","","","","html-keyboard-response","60","2.0.0","303295","66495b83f9f5ed828568503f","1","29","null","","","","","","","","","<p style='font-size: 30px;'><strong>Okay</strong></p>","null","neutral_feedback","0","test","27","","","","","","","",""
"","","","","","","","","","","","html-button-response","61","2.0.0","304148","66495b83f9f5ed828568503f","1","29","851","","","","","","","","","<img src= ""rock_img/I_Diorite_15.jpg"" style=""width:8cm; height:5.54cm;""><p>What type of rock is this?</p>","7","class_response","0","test","28","Pumice","Diorite","15","false","8","3","",""
"","","","","","","","","","","","html-keyboard-response","62","2.0.0","304651","66495b83f9f5ed828568503f","1","29","null","","","","","","","","","<p style='font-size: 30px;'><strong>Okay</strong></p>","null","neutral_feedback","0","test","28","","","","","","","",""
"","","","","","","","","","","","html-button-response","63","2.0.0","305668","66495b83f9f5ed828568503f","1","29","1015","","","","","","","","","<img src= ""rock_img/I_Andesite_06.jpg"" style=""width:8cm; height:6.840000000000001cm;""><p>What type of rock is this?</p>","5","class_response","0","test","29","Pegmatite","Andesite","06","false","6","1","",""
"","","","","","","","","","","","html-keyboard-response","64","2.0.0","306170","66495b83f9f5ed828568503f","1","29","null","","","","","","","","","<p style='font-size: 30px;'><strong>Okay</strong></p>","null","neutral_feedback","0","test","29","","","","","","","",""
"","","","","","","","","","","","html-button-response","65","2.0.0","306806","66495b83f9f5ed828568503f","1","29","634","","","","","","","","","<img src= ""rock_img/I_Obsidian_10.jpg"" style=""width:8cm; height:6.260000000000001cm;""><p>What type of rock is this?</p>","4","class_response","0","test","30","Obsidian","Obsidian","10","true","5","5","",""
"","","","","","","","","","","","html-keyboard-response","66","2.0.0","307323","66495b83f9f5ed828568503f","1","29","null","","","","","","","","","<p style='font-size: 30px;'><strong>Okay</strong></p>","null","neutral_feedback","0","test","30","","","","","","","",""
"","","","","","","","","","","","html-button-response","67","2.0.0","308135","66495b83f9f5ed828568503f","1","29","811","","","","","","","","","<img src= ""rock_img/I_Pegmatite_09.jpg"" style=""width:8cm; height:4.03cm;""><p>What type of rock is this?</p>","0","class_response","0","test","31","Andesite","Pegmatite","09","false","1","6","",""
"","","","","","","","","","","","html-keyboard-response","68","2.0.0","308637","66495b83f9f5ed828568503f","1","29","null","","","","","","","","","<p style='font-size: 30px;'><strong>Okay</strong></p>","null","neutral_feedback","0","test","31","","","","","","","",""
"","","","","","","","","","","","html-button-response","69","2.0.0","309074","66495b83f9f5ed828568503f","1","29","435","","","","","","","","","<img src= ""rock_img/I_Pegmatite_03.jpg"" style=""width:8cm; height:5.239999999999999cm;""><p>What type of rock is this?</p>","1","class_response","0","test","32","Basalt","Pegmatite","03","false","2","6","",""
"","","","","","","","","","","","html-keyboard-response","70","2.0.0","309577","66495b83f9f5ed828568503f","1","29","null","","","","","","","","","<p style='font-size: 30px;'><strong>Okay</strong></p>","null","neutral_feedback","0","test","32","","","","","","","",""
"","","","","","","","","","","","html-button-response","71","2.0.0","310430","66495b83f9f5ed828568503f","1","29","851","","","","","","","","","<img src= ""rock_img/I_Peridotite_13.jpg"" style=""width:8cm; height:7.58cm;""><p>What type of rock is this?</p>","2","class_response","0","test","33","Diorite","Peridotite","13","false","3","7","",""
"","","","","","","","","","","","html-keyboard-response","72","2.0.0","310933","66495b83f9f5ed828568503f","1","29","null","","","","","","","","","<p style='font-size: 30px;'><strong>Okay</strong></p>","null","neutral_feedback","0","test","33","","","","","","","",""
"","","","","","","","","","","","html-button-response","73","2.0.0","311772","66495b83f9f5ed828568503f","1","29","838","","","","","","","","","<img src= ""rock_img/I_Obsidian_16.jpg"" style=""width:8cm; height:9.3cm;""><p>What type of rock is this?</p>","1","class_response","0","test","34","Basalt","Obsidian","16","false","2","5","",""
"","","","","","","","","","","","html-keyboard-response","74","2.0.0","312276","66495b83f9f5ed828568503f","1","29","null","","","","","","","","","<p style='font-size: 30px;'><strong>Okay</strong></p>","null","neutral_feedback","0","test","34","","","","","","","",""
"","","","","","","","","","","","html-button-response","75","2.0.0","313196","66495b83f9f5ed828568503f","1","29","919","","","","","","","","","<img src= ""rock_img/I_Gabbro_03.jpg"" style=""width:8cm; height:8.52cm;""><p>What type of rock is this?</p>","3","class_response","0","test","35","Gabbro","Gabbro","03","true","4","4","",""
"","","","","","","","","","","","html-keyboard-response","76","2.0.0","313699","66495b83f9f5ed828568503f","1","29","null","","","","","","","","","<p style='font-size: 30px;'><strong>Okay</strong></p>","null","neutral_feedback","0","test","35","","","","","","","",""
"","","","","","","","","","","","html-button-response","77","2.0.0","314257","66495b83f9f5ed828568503f","1","29","556","","","","","","","","","<img src= ""rock_img/I_Peridotite_06.jpg"" style=""width:8cm; height:7.53cm;""><p>What type of rock is this?</p>","6","class_response","0","test","36","Peridotite","Peridotite","06","true","7","7","",""
"","","","","","","","","","","","html-keyboard-response","78","2.0.0","314759","66495b83f9f5ed828568503f","1","29","null","","","","","","","","","<p style='font-size: 30px;'><strong>Okay</strong></p>","null","neutral_feedback","0","test","36","","","","","","","",""
"","","","","","","","","","","","html-button-response","79","2.0.0","315384","66495b83f9f5ed828568503f","1","29","624","","","","","","","","","<img src= ""rock_img/I_Gabbro_05.jpg"" style=""width:8cm; height:6cm;""><p>What type of rock is this?</p>","5","class_response","0","test","37","Pegmatite","Gabbro","05","false","6","4","",""
"","","","","","","","","","","","html-keyboard-response","80","2.0.0","315886","66495b83f9f5ed828568503f","1","29","null","","","","","","","","","<p style='font-size: 30px;'><strong>Okay</strong></p>","null","neutral_feedback","0","test","37","","","","","","","",""
"","","","","","","","","","","","html-button-response","81","2.0.0","316722","66495b83f9f5ed828568503f","1","29","834","","","","","","","","","<img src= ""rock_img/I_Gabbro_09.jpg"" style=""width:8cm; height:7.279999999999999cm;""><p>What type of rock is this?</p>","4","class_response","0","test","38","Obsidian","Gabbro","09","false","5","4","",""
"","","","","","","","","","","","html-keyboard-response","82","2.0.0","317232","66495b83f9f5ed828568503f","1","29","null","","","","","","","","","<p style='font-size: 30px;'><strong>Okay</strong></p>","null","neutral_feedback","0","test","38","","","","","","","",""
"","","","","","","","","","","","html-button-response","83","2.0.0","317856","66495b83f9f5ed828568503f","1","29","622","","","","","","","","","<img src= ""rock_img/I_Pumice_16.jpg"" style=""width:8cm; height:6.79cm;""><p>What type of rock is this?</p>","0","class_response","0","test","39","Andesite","Pumice","16","false","1","8","",""
"","","","","","","","","","","","html-keyboard-response","84","2.0.0","318358","66495b83f9f5ed828568503f","1","29","null","","","","","","","","","<p style='font-size: 30px;'><strong>Okay</strong></p>","null","neutral_feedback","0","test","39","","","","","","","",""
"","","","","","","","","","","","html-button-response","85","2.0.0","318888","66495b83f9f5ed828568503f","1","29","529","","","","","","","","","<img src= ""rock_img/I_Peridotite_04.jpg"" style=""width:8cm; height:6.680000000000001cm;""><p>What type of rock is this?</p>","2","class_response","0","test","40","Diorite","Peridotite","04","false","3","7","",""
"","","","","","","","","","","","html-keyboard-response","86","2.0.0","319390","66495b83f9f5ed828568503f","1","29","null","","","","","","","","","<p style='font-size: 30px;'><strong>Okay</strong></p>","null","neutral_feedback","0","test","40","","","","","","","",""
"","","","","","","","","","","","html-button-response","87","2.0.0","320274","66495b83f9f5ed828568503f","1","29","882","","","","","","","","","<img src= ""rock_img/I_Pegmatite_16.jpg"" style=""width:8cm; height:5.8cm;""><p>What type of rock is this?</p>","3","class_response","0","test","41","Gabbro","Pegmatite","16","false","4","6","",""
"","","","","","","","","","","","html-keyboard-response","88","2.0.0","320776","66495b83f9f5ed828568503f","1","29","null","","","","","","","","","<p style='font-size: 30px;'><strong>Okay</strong></p>","null","neutral_feedback","0","test","41","","","","","","","",""
"","","","","","","","","","","","html-button-response","89","2.0.0","321281","66495b83f9f5ed828568503f","1","29","504","","","","","","","","","<img src= ""rock_img/I_Obsidian_04.jpg"" style=""width:8cm; height:6.930000000000001cm;""><p>What type of rock is this?</p>","6","class_response","0","test","42","Peridotite","Obsidian","04","false","7","5","",""
"","","","","","","","","","","","html-keyboard-response","90","2.0.0","321782","66495b83f9f5ed828568503f","1","29","null","","","","","","","","","<p style='font-size: 30px;'><strong>Okay</strong></p>","null","neutral_feedback","0","test","42","","","","","","","",""
"","","","","","","","","","","","html-button-response","91","2.0.0","322694","66495b83f9f5ed828568503f","1","29","910","","","","","","","","","<img src= ""rock_img/I_Basalt_08.jpg"" style=""width:8cm; height:10.44cm;""><p>What type of rock is this?</p>","1","class_response","0","test","43","Basalt","Basalt","08","true","2","2","",""
"","","","","","","","","","","","html-keyboard-response","92","2.0.0","323196","66495b83f9f5ed828568503f","1","29","null","","","","","","","","","<p style='font-size: 30px;'><strong>Okay</strong></p>","null","neutral_feedback","0","test","43","","","","","","","",""
"","","","","","","","","","","","html-button-response","93","2.0.0","324114","66495b83f9f5ed828568503f","1","29","916","","","","","","","","","<img src= ""rock_img/I_Obsidian_05.jpg"" style=""width:8cm; height:6.33cm;""><p>What type of rock is this?</p>","4","class_response","0","test","44","Obsidian","Obsidian","05","true","5","5","",""
"","","","","","","","","","","","html-keyboard-response","94","2.0.0","324616","66495b83f9f5ed828568503f","1","29","null","","","","","","","","","<p style='font-size: 30px;'><strong>Okay</strong></p>","null","neutral_feedback","0","test","44","","","","","","","",""
"","","","","","","","","","","","html-button-response","95","2.0.0","325273","66495b83f9f5ed828568503f","1","29","656","","","","","","","","","<img src= ""rock_img/I_Andesite_16.jpg"" style=""width:8cm; height:6.010000000000001cm;""><p>What type of rock is this?</p>","7","class_response","0","test","45","Pumice","Andesite","16","false","8","1","",""
"","","","","","","","","","","","html-keyboard-response","96","2.0.0","325774","66495b83f9f5ed828568503f","1","29","null","","","","","","","","","<p style='font-size: 30px;'><strong>Okay</strong></p>","null","neutral_feedback","0","test","45","","","","","","","",""
"","","","","","","","","","","","html-button-response","97","2.0.0","326317","66495b83f9f5ed828568503f","1","29","541","","","","","","","","","<img src= ""rock_img/I_Pegmatite_13.jpg"" style=""width:8cm; height:4.95cm;""><p>What type of rock is this?</p>","2","class_response","0","test","46","Diorite","Pegmatite","13","false","3","6","",""
"","","","","","","","","","","","html-keyboard-response","98","2.0.0","326820","66495b83f9f5ed828568503f","1","29","null","","","","","","","","","<p style='font-size: 30px;'><strong>Okay</strong></p>","null","neutral_feedback","0","test","46","","","","","","","",""
"","","","","","","","","","","","html-button-response","99","2.0.0","327319","66495b83f9f5ed828568503f","1","29","497","","","","","","","","","<img src= ""rock_img/I_Diorite_12.jpg"" style=""width:8cm; height:4.88cm;""><p>What type of rock is this?</p>","1","class_response","0","test","47","Basalt","Diorite","12","false","2","3","",""
"","","","","","","","","","","","html-keyboard-response","100","2.0.0","327824","66495b83f9f5ed828568503f","1","29","null","","","","","","","","","<p style='font-size: 30px;'><strong>Okay</strong></p>","null","neutral_feedback","0","test","47","","","","","","","",""
"","","","","","","","","","","","html-button-response","101","2.0.0","328238","66495b83f9f5ed828568503f","1","29","411","","","","","","","","","<img src= ""rock_img/I_Andesite_09.jpg"" style=""width:8cm; height:6cm;""><p>What type of rock is this?</p>","0","class_response","0","test","48","Andesite","Andesite","09","true","1","1","",""
"","","","","","","","","","","","html-keyboard-response","102","2.0.0","328739","66495b83f9f5ed828568503f","1","29","null","","","","","","","","","<p style='font-size: 30px;'><strong>Okay</strong></p>","null","neutral_feedback","0","test","48","","","","","","","",""
"","","","","","","","","","","","instructions","103","2.0.0","355490","66495b83f9f5ed828568503f","1","29","26729","","","","","","","","[{""page_index"":0,""viewing_time"":16877},{""page_index"":1,""viewing_time"":6412},{""page_index"":2,""viewing_time"":3440}]","","","","","","","","","","","","","",""
"","","","","","","","","","","","html-button-response","104","2.0.0","358581","66495b83f9f5ed828568503f","1","29","3090","","","","","","","","","","0","start_train","","","","","","","","","","",""
"","","","","","","","","","","","html-button-response","105","2.0.0","363342","66495b83f9f5ed828568503f","1","29","4758","","","","","","","","","<img src= ""rock_img/I_Basalt_10.jpg"" style=""width:8cm; height:5.85cm;""><p>What type of rock is this?</p>","2","class_response","1","train","1","Diorite","Basalt","10","false","3","2","",""
"","","","","","","","","","","","html-button-response","106","2.0.0","380748","66495b83f9f5ed828568503f","1","29","17403","","","","","","","","","<img src= rock_img/I_Basalt_10.jpg style=""width:8cm; height:5.85cm;""><p style='font-size: 30px; color: red;'><strong>Incorrect!</strong></p><p style='font-size: 30px;'><strong>This rock is basalt</strong></p>","0","corr_feedback","1","train","1","","","","","","","",""
"","","","","","","","","","","","html-button-response","107","2.0.0","382024","66495b83f9f5ed828568503f","1","29","1274","","","","","","","","","<img src= ""rock_img/I_Pegmatite_10.jpg"" style=""width:8cm; height:4.16cm;""><p>What type of rock is this?</p>","2","class_response","1","train","2","Diorite","Pegmatite","10","false","3","6","",""
"","","","","","","","","","","","html-button-response","108","2.0.0","385672","66495b83f9f5ed828568503f","1","29","3646","","","","","","","","","<img src= rock_img/I_Pegmatite_10.jpg style=""width:8cm; height:4.16cm;""><p style='font-size: 30px; color: red;'><strong>Incorrect!</strong></p><p style='font-size: 30px;'><strong>This rock is pegmatite</strong></p>","0","corr_feedback","1","train","2","","","","","","","",""
"","","","","","","","","","","","html-button-response","109","2.0.0","386872","66495b83f9f5ed828568503f","1","29","1198","","","","","","","","","<img src= ""rock_img/I_Obsidian_14.jpg"" style=""width:8cm; height:7.64cm;""><p>What type of rock is this?</p>","3","class_response","1","train","3","Gabbro","Obsidian","14","false","4","5","",""
"","","","","","","","","","","","html-button-response","110","2.0.0","390459","66495b83f9f5ed828568503f","1","29","3586","","","","","","","","","<img src= rock_img/I_Obsidian_14.jpg style=""width:8cm; height:7.64cm;""><p style='font-size: 30px; color: red;'><strong>Incorrect!</strong></p><p style='font-size: 30px;'><strong>This rock is obsidian</strong></p>","0","corr_feedback","1","train","3","","","","","","","",""
"","","","","","","","","","","","html-button-response","111","2.0.0","391926","66495b83f9f5ed828568503f","1","29","1465","","","","","","","","","<img src= ""rock_img/I_Andesite_01.jpg"" style=""width:8cm; height:5.87cm;""><p>What type of rock is this?</p>","0","class_response","1","train","4","Andesite","Andesite","01","true","1","1","",""
"","","","","","","","","","","","html-button-response","112","2.0.0","395171","66495b83f9f5ed828568503f","1","29","3243","","","","","","","","","<img src= rock_img/I_Andesite_01.jpg style=""width:8cm; height:5.87cm;""><p style='font-size: 30px; color: green;'><strong>Correct!</strong></p><p style='font-size: 30px;'><strong>This rock is andesite</strong></p>","0","corr_feedback","1","train","4","","","","","","","",""
"","","","","","","","","","","","html-button-response","113","2.0.0","397702","66495b83f9f5ed828568503f","1","29","2530","","","","","","","","","<img src= ""rock_img/I_Peridotite_08.jpg"" style=""width:8cm; height:6.7cm;""><p>What type of rock is this?</p>","2","class_response","1","train","5","Diorite","Peridotite","08","false","3","7","",""
"","","","","","","","","","","","html-button-response","114","2.0.0","400572","66495b83f9f5ed828568503f","1","29","2868","","","","","","","","","<img src= rock_img/I_Peridotite_08.jpg style=""width:8cm; height:6.7cm;""><p style='font-size: 30px; color: red;'><strong>Incorrect!</strong></p><p style='font-size: 30px;'><strong>This rock is peridotite</strong></p>","0","corr_feedback","1","train","5","","","","","","","",""
"","","","","","","","","","","","html-button-response","115","2.0.0","401634","66495b83f9f5ed828568503f","1","29","1060","","","","","","","","","<img src= ""rock_img/I_Diorite_08.jpg"" style=""width:8cm; height:6.37cm;""><p>What type of rock is this?</p>","7","class_response","1","train","6","Pumice","Diorite","08","false","8","3","",""
"","","","","","","","","","","","html-button-response","116","2.0.0","404010","66495b83f9f5ed828568503f","1","29","2374","","","","","","","","","<img src= rock_img/I_Diorite_08.jpg style=""width:8cm; height:6.37cm;""><p style='font-size: 30px; color: red;'><strong>Incorrect!</strong></p><p style='font-size: 30px;'><strong>This rock is diorite</strong></p>","0","corr_feedback","1","train","6","","","","","","","",""
"","","","","","","","","","","","html-button-response","117","2.0.0","404996","66495b83f9f5ed828568503f","1","29","984","","","","","","","","","<img src= ""rock_img/I_Gabbro_01.jpg"" style=""width:8cm; height:5.21cm;""><p>What type of rock is this?</p>","3","class_response","1","train","7","Gabbro","Gabbro","01","true","4","4","",""
"","","","","","","","","","","","html-button-response","118","2.0.0","407965","66495b83f9f5ed828568503f","1","29","2968","","","","","","","","","<img src= rock_img/I_Gabbro_01.jpg style=""width:8cm; height:5.21cm;""><p style='font-size: 30px; color: green;'><strong>Correct!</strong></p><p style='font-size: 30px;'><strong>This rock is gabbro</strong></p>","0","corr_feedback","1","train","7","","","","","","","",""
"","","","","","","","","","","","html-button-response","119","2.0.0","408724","66495b83f9f5ed828568503f","1","29","757","","","","","","","","","<img src= ""rock_img/I_Basalt_14.jpg"" style=""width:8cm; height:5.82cm;""><p>What type of rock is this?</p>","5","class_response","1","train","8","Pegmatite","Basalt","14","false","6","2","",""
"","","","","","","","","","","","html-button-response","120","2.0.0","412872","66495b83f9f5ed828568503f","1","29","4146","","","","","","","","","<img src= rock_img/I_Basalt_14.jpg style=""width:8cm; height:5.82cm;""><p style='font-size: 30px; color: red;'><strong>Incorrect!</strong></p><p style='font-size: 30px;'><strong>This rock is basalt</strong></p>","0","corr_feedback","1","train","8","","","","","","","",""
"","","","","","","","","","","","html-button-response","121","2.0.0","414016","66495b83f9f5ed828568503f","1","29","1143","","","","","","","","","<img src= ""rock_img/I_Pumice_08.jpg"" style=""width:8cm; height:6.67cm;""><p>What type of rock is this?</p>","0","class_response","1","train","9","Andesite","Pumice","08","false","1","8","",""
"","","","","","","","","","","","html-button-response","122","2.0.0","416134","66495b83f9f5ed828568503f","1","29","2116","","","","","","","","","<img src= rock_img/I_Pumice_08.jpg style=""width:8cm; height:6.67cm;""><p style='font-size: 30px; color: red;'><strong>Incorrect!</strong></p><p style='font-size: 30px;'><strong>This rock is pumice</strong></p>","0","corr_feedback","1","train","9","","","","","","","",""
"","","","","","","","","","","","html-button-response","123","2.0.0","417022","66495b83f9f5ed828568503f","1","29","886","","","","","","","","","<img src= ""rock_img/I_Gabbro_15.jpg"" style=""width:8cm; height:6.29cm;""><p>What type of rock is this?</p>","4","class_response","1","train","10","Obsidian","Gabbro","15","false","5","4","",""
"","","","","","","","","","","","html-button-response","124","2.0.0","419495","66495b83f9f5ed828568503f","1","29","2472","","","","","","","","","<img src= rock_img/I_Gabbro_15.jpg style=""width:8cm; height:6.29cm;""><p style='font-size: 30px; color: red;'><strong>Incorrect!</strong></p><p style='font-size: 30px;'><strong>This rock is gabbro</strong></p>","0","corr_feedback","1","train","10","","","","","","","",""
"","","","","","","","","","","","html-button-response","125","2.0.0","420426","66495b83f9f5ed828568503f","1","29","928","","","","","","","","","<img src= ""rock_img/I_Andesite_07.jpg"" style=""width:8cm; height:5.93cm;""><p>What type of rock is this?</p>","3","class_response","1","train","11","Gabbro","Andesite","07","false","4","1","",""
"","","","","","","","","","","","html-button-response","126","2.0.0","422504","66495b83f9f5ed828568503f","1","29","2076","","","","","","","","","<img src= rock_img/I_Andesite_07.jpg style=""width:8cm; height:5.93cm;""><p style='font-size: 30px; color: red;'><strong>Incorrect!</strong></p><p style='font-size: 30px;'><strong>This rock is andesite</strong></p>","0","corr_feedback","1","train","11","","","","","","","",""
"","","","","","","","","","","","html-button-response","127","2.0.0","423506","66495b83f9f5ed828568503f","1","29","999","","","","","","","","","<img src= ""rock_img/I_Pumice_15.jpg"" style=""width:8cm; height:7.86cm;""><p>What type of rock is this?</p>","5","class_response","1","train","12","Pegmatite","Pumice","15","false","6","8","",""
"","","","","","","","","","","","html-button-response","128","2.0.0","425767","66495b83f9f5ed828568503f","1","29","2260","","","","","","","","","<img src= rock_img/I_Pumice_15.jpg style=""width:8cm; height:7.86cm;""><p style='font-size: 30px; color: red;'><strong>Incorrect!</strong></p><p style='font-size: 30px;'><strong>This rock is pumice</strong></p>","0","corr_feedback","1","train","12","","","","","","","",""
"","","","","","","","","","","","html-button-response","129","2.0.0","426510","66495b83f9f5ed828568503f","1","29","740","","","","","","","","","<img src= ""rock_img/I_Diorite_16.jpg"" style=""width:8cm; height:6.74cm;""><p>What type of rock is this?</p>","2","class_response","1","train","13","Diorite","Diorite","16","true","3","3","",""
"","","","","","","","","","","","html-button-response","130","2.0.0","430175","66495b83f9f5ed828568503f","1","29","3664","","","","","","","","","<img src= rock_img/I_Diorite_16.jpg style=""width:8cm; height:6.74cm;""><p style='font-size: 30px; color: green;'><strong>Correct!</strong></p><p style='font-size: 30px;'><strong>This rock is diorite</strong></p>","0","corr_feedback","1","train","13","","","","","","","",""
"","","","","","","","","","","","html-button-response","131","2.0.0","432164","66495b83f9f5ed828568503f","1","29","1986","","","","","","","","","<img src= ""rock_img/I_Pumice_04.jpg"" style=""width:8cm; height:6.819999999999999cm;""><p>What type of rock is this?</p>","3","class_response","1","train","14","Gabbro","Pumice","04","false","4","8","",""
"","","","","","","","","","","","html-button-response","132","2.0.0","434170","66495b83f9f5ed828568503f","1","29","2004","","","","","","","","","<img src= rock_img/I_Pumice_04.jpg style=""width:8cm; height:6.819999999999999cm;""><p style='font-size: 30px; color: red;'><strong>Incorrect!</strong></p><p style='font-size: 30px;'><strong>This rock is pumice</strong></p>","0","corr_feedback","1","train","14","","","","","","","",""
"","","","","","","","","","","","html-button-response","133","2.0.0","435435","66495b83f9f5ed828568503f","1","29","1264","","","","","","","","","<img src= ""rock_img/I_Basalt_01.jpg"" style=""width:8cm; height:7.880000000000001cm;""><p>What type of rock is this?</p>","1","class_response","1","train","15","Basalt","Basalt","01","true","2","2","",""
"","","","","","","","","","","","html-button-response","134","2.0.0","438881","66495b83f9f5ed828568503f","1","29","3444","","","","","","","","","<img src= rock_img/I_Basalt_01.jpg style=""width:8cm; height:7.880000000000001cm;""><p style='font-size: 30px; color: green;'><strong>Correct!</strong></p><p style='font-size: 30px;'><strong>This rock is basalt</strong></p>","0","corr_feedback","1","train","15","","","","","","","",""
"","","","","","","","","","","","html-button-response","135","2.0.0","440071","66495b83f9f5ed828568503f","1","29","1188","","","","","","","","","<img src= ""rock_img/I_Diorite_06.jpg"" style=""width:8cm; height:6.03cm;""><p>What type of rock is this?</p>","0","class_response","1","train","16","Andesite","Diorite","06","false","1","3","",""
"","","","","","","","","","","","html-button-response","136","2.0.0","443561","66495b83f9f5ed828568503f","1","29","3488","","","","","","","","","<img src= rock_img/I_Diorite_06.jpg style=""width:8cm; height:6.03cm;""><p style='font-size: 30px; color: red;'><strong>Incorrect!</strong></p><p style='font-size: 30px;'><strong>This rock is diorite</strong></p>","0","corr_feedback","1","train","16","","","","","","","",""
"","","","","","","","","","","","html-button-response","137","2.0.0","444822","66495b83f9f5ed828568503f","1","29","1259","","","","","","","","","<img src= ""rock_img/I_Andesite_10.jpg"" style=""width:8cm; height:4.16cm;""><p>What type of rock is this?</p>","6","class_response","1","train","17","Peridotite","Andesite","10","false","7","1","",""
"","","","","","","","","","","","html-button-response","138","2.0.0","446624","66495b83f9f5ed828568503f","1","29","1800","","","","","","","","","<img src= rock_img/I_Andesite_10.jpg style=""width:8cm; height:4.16cm;""><p style='font-size: 30px; color: red;'><strong>Incorrect!</strong></p><p style='font-size: 30px;'><strong>This rock is andesite</strong></p>","0","corr_feedback","1","train","17","","","","","","","",""
"","","","","","","","","","","","html-button-response","139","2.0.0","448982","66495b83f9f5ed828568503f","1","29","2356","","","","","","","","","<img src= ""rock_img/I_Basalt_02.jpg"" style=""width:8cm; height:6.45cm;""><p>What type of rock is this?</p>","7","class_response","1","train","18","Pumice","Basalt","02","false","8","2","",""
"","","","","","","","","","","","html-button-response","140","2.0.0","450985","66495b83f9f5ed828568503f","1","29","2002","","","","","","","","","<img src= rock_img/I_Basalt_02.jpg style=""width:8cm; height:6.45cm;""><p style='font-size: 30px; color: red;'><strong>Incorrect!</strong></p><p style='font-size: 30px;'><strong>This rock is basalt</strong></p>","0","corr_feedback","1","train","18","","","","","","","",""
"","","","","","","","","","","","html-button-response","141","2.0.0","452035","66495b83f9f5ed828568503f","1","29","1048","","","","","","","","","<img src= ""rock_img/I_Andesite_05.jpg"" style=""width:8cm; height:4.12cm;""><p>What type of rock is this?</p>","1","class_response","1","train","19","Basalt","Andesite","05","false","2","1","",""
"","","","","","","","","","","","html-button-response","142","2.0.0","453921","66495b83f9f5ed828568503f","1","29","1884","","","","","","","","","<img src= rock_img/I_Andesite_05.jpg style=""width:8cm; height:4.12cm;""><p style='font-size: 30px; color: red;'><strong>Incorrect!</strong></p><p style='font-size: 30px;'><strong>This rock is andesite</strong></p>","0","corr_feedback","1","train","19","","","","","","","",""
"","","","","","","","","","","","html-button-response","143","2.0.0","455222","66495b83f9f5ed828568503f","1","29","1299","","","","","","","","","<img src= ""rock_img/I_Basalt_11.jpg"" style=""width:8cm; height:5.359999999999999cm;""><p>What type of rock is this?</p>","2","class_response","1","train","20","Diorite","Basalt","11","false","3","2","",""
"","","","","","","","","","","","html-button-response","144","2.0.0","457064","66495b83f9f5ed828568503f","1","29","1840","","","","","","","","","<img src= rock_img/I_Basalt_11.jpg style=""width:8cm; height:5.359999999999999cm;""><p style='font-size: 30px; color: red;'><strong>Incorrect!</strong></p><p style='font-size: 30px;'><strong>This rock is basalt</strong></p>","0","corr_feedback","1","train","20","","","","","","","",""
"","","","","","","","","","","","html-button-response","145","2.0.0","457940","66495b83f9f5ed828568503f","1","29","874","","","","","","","","","<img src= ""rock_img/I_Diorite_10.jpg"" style=""width:8cm; height:5.949999999999999cm;""><p>What type of rock is this?</p>","0","class_response","1","train","21","Andesite","Diorite","10","false","1","3","",""
"","","","","","","","","","","","html-button-response","146","2.0.0","460411","66495b83f9f5ed828568503f","1","29","2470","","","","","","","","","<img src= rock_img/I_Diorite_10.jpg style=""width:8cm; height:5.949999999999999cm;""><p style='font-size: 30px; color: red;'><strong>Incorrect!</strong></p><p style='font-size: 30px;'><strong>This rock is diorite</strong></p>","0","corr_feedback","1","train","21","","","","","","","",""
"","","","","","","","","","","","html-button-response","147","2.0.0","461463","66495b83f9f5ed828568503f","1","29","1050","","","","","","","","","<img src= ""rock_img/I_Peridotite_14.jpg"" style=""width:8cm; height:5.3cm;""><p>What type of rock is this?</p>","3","class_response","1","train","22","Gabbro","Peridotite","14","false","4","7","",""
"","","","","","","","","","","","html-button-response","148","2.0.0","463157","66495b83f9f5ed828568503f","1","29","1692","","","","","","","","","<img src= rock_img/I_Peridotite_14.jpg style=""width:8cm; height:5.3cm;""><p style='font-size: 30px; color: red;'><strong>Incorrect!</strong></p><p style='font-size: 30px;'><strong>This rock is peridotite</strong></p>","0","corr_feedback","1","train","22","","","","","","","",""
"","","","","","","","","","","","html-button-response","149","2.0.0","464769","66495b83f9f5ed828568503f","1","29","1610","","","","","","","","","<img src= ""rock_img/I_Obsidian_11.jpg"" style=""width:8cm; height:6.05cm;""><p>What type of rock is this?</p>","0","class_response","1","train","23","Andesite","Obsidian","11","false","1","5","",""
"","","","","","","","","","","","html-button-response","150","2.0.0","466693","66495b83f9f5ed828568503f","1","29","1922","","","","","","","","","<img src= rock_img/I_Obsidian_11.jpg style=""width:8cm; height:6.05cm;""><p style='font-size: 30px; color: red;'><strong>Incorrect!</strong></p><p style='font-size: 30px;'><strong>This rock is obsidian</strong></p>","0","corr_feedback","1","train","23","","","","","","","",""
"","","","","","","","","","","","html-button-response","151","2.0.0","468139","66495b83f9f5ed828568503f","1","29","1444","","","","","","","","","<img src= ""rock_img/I_Pumice_03.jpg"" style=""width:8cm; height:6.64cm;""><p>What type of rock is this?</p>","1","class_response","1","train","24","Basalt","Pumice","03","false","2","8","",""
"","","","","","","","","","","","html-button-response","152","2.0.0","469805","66495b83f9f5ed828568503f","1","29","1664","","","","","","","","","<img src= rock_img/I_Pumice_03.jpg style=""width:8cm; height:6.64cm;""><p style='font-size: 30px; color: red;'><strong>Incorrect!</strong></p><p style='font-size: 30px;'><strong>This rock is pumice</strong></p>","0","corr_feedback","1","train","24","","","","","","","",""
"","","","","","","","","","","","html-button-response","153","2.0.0","470810","66495b83f9f5ed828568503f","1","29","1002","","","","","","","","","<img src= ""rock_img/I_Peridotite_16.jpg"" style=""width:8cm; height:6.989999999999999cm;""><p>What type of rock is this?</p>","4","class_response","1","train","25","Obsidian","Peridotite","16","false","5","7","",""
"","","","","","","","","","","","html-button-response","154","2.0.0","472983","66495b83f9f5ed828568503f","1","29","2171","","","","","","","","","<img src= rock_img/I_Peridotite_16.jpg style=""width:8cm; height:6.989999999999999cm;""><p style='font-size: 30px; color: red;'><strong>Incorrect!</strong></p><p style='font-size: 30px;'><strong>This rock is peridotite</strong></p>","0","corr_feedback","1","train","25","","","","","","","",""
"","","","","","","","","","","","html-button-response","155","2.0.0","474024","66495b83f9f5ed828568503f","1","29","1040","","","","","","","","","<img src= ""rock_img/I_Gabbro_08.jpg"" style=""width:8cm; height:5.15cm;""><p>What type of rock is this?</p>","3","class_response","1","train","26","Gabbro","Gabbro","08","true","4","4","",""
"","","","","","","","","","","","html-button-response","156","2.0.0","476327","66495b83f9f5ed828568503f","1","29","2302","","","","","","","","","<img src= rock_img/I_Gabbro_08.jpg style=""width:8cm; height:5.15cm;""><p style='font-size: 30px; color: green;'><strong>Correct!</strong></p><p style='font-size: 30px;'><strong>This rock is gabbro</strong></p>","0","corr_feedback","1","train","26","","","","","","","",""
"","","","","","","","","","","","html-button-response","157","2.0.0","477206","66495b83f9f5ed828568503f","1","29","876","","","","","","","","","<img src= ""rock_img/I_Gabbro_10.jpg"" style=""width:8cm; height:5.680000000000001cm;""><p>What type of rock is this?</p>","2","class_response","1","train","27","Diorite","Gabbro","10","false","3","4","",""
"","","","","","","","","","","","html-button-response","158","2.0.0","478810","66495b83f9f5ed828568503f","1","29","1602","","","","","","","","","<img src= rock_img/I_Gabbro_10.jpg style=""width:8cm; height:5.680000000000001cm;""><p style='font-size: 30px; color: red;'><strong>Incorrect!</strong></p><p style='font-size: 30px;'><strong>This rock is gabbro</strong></p>","0","corr_feedback","1","train","27","","","","","","","",""
"","","","","","","","","","","","html-button-response","159","2.0.0","479528","66495b83f9f5ed828568503f","1","29","716","","","","","","","","","<img src= ""rock_img/I_Peridotite_12.jpg"" style=""width:8cm; height:4.54cm;""><p>What type of rock is this?</p>","4","class_response","1","train","28","Obsidian","Peridotite","12","false","5","7","",""
"","","","","","","","","","","","html-button-response","160","2.0.0","481510","66495b83f9f5ed828568503f","1","29","1980","","","","","","","","","<img src= rock_img/I_Peridotite_12.jpg style=""width:8cm; height:4.54cm;""><p style='font-size: 30px; color: red;'><strong>Incorrect!</strong></p><p style='font-size: 30px;'><strong>This rock is peridotite</strong></p>","0","corr_feedback","1","train","28","","","","","","","",""
"","","","","","","","","","","","html-button-response","161","2.0.0","482391","66495b83f9f5ed828568503f","1","29","880","","","","","","","","","<img src= ""rock_img/I_Basalt_04.jpg"" style=""width:8cm; height:7.53cm;""><p>What type of rock is this?</p>","0","class_response","1","train","29","Andesite","Basalt","04","false","1","2","",""
"","","","","","","","","","","","html-button-response","162","2.0.0","484451","66495b83f9f5ed828568503f","1","29","2058","","","","","","","","","<img src= rock_img/I_Basalt_04.jpg style=""width:8cm; height:7.53cm;""><p style='font-size: 30px; color: red;'><strong>Incorrect!</strong></p><p style='font-size: 30px;'><strong>This rock is basalt</strong></p>","0","corr_feedback","1","train","29","","","","","","","",""
"","","","","","","","","","","","html-button-response","163","2.0.0","485165","66495b83f9f5ed828568503f","1","29","712","","","","","","","","","<img src= ""rock_img/I_Gabbro_13.jpg"" style=""width:8cm; height:5.08cm;""><p>What type of rock is this?</p>","4","class_response","1","train","30","Obsidian","Gabbro","13","false","5","4","",""
"","","","","","","","","","","","html-button-response","164","2.0.0","486892","66495b83f9f5ed828568503f","1","29","1725","","","","","","","","","<img src= rock_img/I_Gabbro_13.jpg style=""width:8cm; height:5.08cm;""><p style='font-size: 30px; color: red;'><strong>Incorrect!</strong></p><p style='font-size: 30px;'><strong>This rock is gabbro</strong></p>","0","corr_feedback","1","train","30","","","","","","","",""
"","","","","","","","","","","","html-button-response","165","2.0.0","487937","66495b83f9f5ed828568503f","1","29","1044","","","","","","","","","<img src= ""rock_img/I_Obsidian_02.jpg"" style=""width:8cm; height:7.51cm;""><p>What type of rock is this?</p>","2","class_response","1","train","31","Diorite","Obsidian","02","false","3","5","",""
"","","","","","","","","","","","html-button-response","166","2.0.0","489494","66495b83f9f5ed828568503f","1","29","1554","","","","","","","","","<img src= rock_img/I_Obsidian_02.jpg style=""width:8cm; height:7.51cm;""><p style='font-size: 30px; color: red;'><strong>Incorrect!</strong></p><p style='font-size: 30px;'><strong>This rock is obsidian</strong></p>","0","corr_feedback","1","train","31","","","","","","","",""
"","","","","","","","","","","","html-button-response","167","2.0.0","490471","66495b83f9f5ed828568503f","1","29","976","","","","","","","","","<img src= ""rock_img/I_Peridotite_05.jpg"" style=""width:8cm; height:7.1499999999999995cm;""><p>What type of rock is this?</p>","5","class_response","1","train","32","Pegmatite","Peridotite","05","false","6","7","",""
"","","","","","","","","","","","html-button-response","168","2.0.0","492057","66495b83f9f5ed828568503f","1","29","1584","","","","","","","","","<img src= rock_img/I_Peridotite_05.jpg style=""width:8cm; height:7.1499999999999995cm;""><p style='font-size: 30px; color: red;'><strong>Incorrect!</strong></p><p style='font-size: 30px;'><strong>This rock is peridotite</strong></p>","0","corr_feedback","1","train","32","","","","","","","",""
"","","","","","","","","","","","html-button-response","169","2.0.0","492797","66495b83f9f5ed828568503f","1","29","737","","","","","","","","","<img src= ""rock_img/I_Andesite_02.jpg"" style=""width:8cm; height:8.5cm;""><p>What type of rock is this?</p>","4","class_response","1","train","33","Obsidian","Andesite","02","false","5","1","",""
"","","","","","","","","","","","html-button-response","170","2.0.0","494529","66495b83f9f5ed828568503f","1","29","1732","","","","","","","","","<img src= rock_img/I_Andesite_02.jpg style=""width:8cm; height:8.5cm;""><p style='font-size: 30px; color: red;'><strong>Incorrect!</strong></p><p style='font-size: 30px;'><strong>This rock is andesite</strong></p>","0","corr_feedback","1","train","33","","","","","","","",""
"","","","","","","","","","","","html-button-response","171","2.0.0","495409","66495b83f9f5ed828568503f","1","29","878","","","","","","","","","<img src= ""rock_img/I_Andesite_04.jpg"" style=""width:8cm; height:5.96cm;""><p>What type of rock is this?</p>","0","class_response","1","train","34","Andesite","Andesite","04","true","1","1","",""
"","","","","","","","","","","","html-button-response","172","2.0.0","498202","66495b83f9f5ed828568503f","1","29","2792","","","","","","","","","<img src= rock_img/I_Andesite_04.jpg style=""width:8cm; height:5.96cm;""><p style='font-size: 30px; color: green;'><strong>Correct!</strong></p><p style='font-size: 30px;'><strong>This rock is andesite</strong></p>","0","corr_feedback","1","train","34","","","","","","","",""
"","","","","","","","","","","","html-button-response","173","2.0.0","499666","66495b83f9f5ed828568503f","1","29","1462","","","","","","","","","<img src= ""rock_img/I_Diorite_14.jpg"" style=""width:8cm; height:5.71cm;""><p>What type of rock is this?</p>","3","class_response","1","train","35","Gabbro","Diorite","14","false","4","3","",""
"","","","","","","","","","","","html-button-response","174","2.0.0","501244","66495b83f9f5ed828568503f","1","29","1576","","","","","","","","","<img src= rock_img/I_Diorite_14.jpg style=""width:8cm; height:5.71cm;""><p style='font-size: 30px; color: red;'><strong>Incorrect!</strong></p><p style='font-size: 30px;'><strong>This rock is diorite</strong></p>","0","corr_feedback","1","train","35","","","","","","","",""
"","","","","","","","","","","","html-button-response","175","2.0.0","502098","66495b83f9f5ed828568503f","1","29","852","","","","","","","","","<img src= ""rock_img/I_Obsidian_07.jpg"" style=""width:8cm; height:4.76cm;""><p>What type of rock is this?</p>","7","class_response","1","train","36","Pumice","Obsidian","07","false","8","5","",""
"","","","","","","","","","","","html-button-response","176","2.0.0","504111","66495b83f9f5ed828568503f","1","29","2012","","","","","","","","","<img src= rock_img/I_Obsidian_07.jpg style=""width:8cm; height:4.76cm;""><p style='font-size: 30px; color: red;'><strong>Incorrect!</strong></p><p style='font-size: 30px;'><strong>This rock is obsidian</strong></p>","0","corr_feedback","1","train","36","","","","","","","",""
"","","","","","","","","","","","html-button-response","177","2.0.0","504754","66495b83f9f5ed828568503f","1","29","640","","","","","","","","","<img src= ""rock_img/I_Pegmatite_12.jpg"" style=""width:8cm; height:5.7cm;""><p>What type of rock is this?</p>","5","class_response","1","train","37","Pegmatite","Pegmatite","12","true","6","6","",""
"","","","","","","","","","","","html-button-response","178","2.0.0","506589","66495b83f9f5ed828568503f","1","29","1834","","","","","","","","","<img src= rock_img/I_Pegmatite_12.jpg style=""width:8cm; height:5.7cm;""><p style='font-size: 30px; color: green;'><strong>Correct!</strong></p><p style='font-size: 30px;'><strong>This rock is pegmatite</strong></p>","0","corr_feedback","1","train","37","","","","","","","",""
"","","","","","","","","","","","html-button-response","179","2.0.0","507192","66495b83f9f5ed828568503f","1","29","600","","","","","","","","","<img src= ""rock_img/I_Obsidian_06.jpg"" style=""width:8cm; height:6.8cm;""><p>What type of rock is this?</p>","1","class_response","1","train","38","Basalt","Obsidian","06","false","2","5","",""
"","","","","","","","","","","","html-button-response","180","2.0.0","508932","66495b83f9f5ed828568503f","1","29","1738","","","","","","","","","<img src= rock_img/I_Obsidian_06.jpg style=""width:8cm; height:6.8cm;""><p style='font-size: 30px; color: red;'><strong>Incorrect!</strong></p><p style='font-size: 30px;'><strong>This rock is obsidian</strong></p>","0","corr_feedback","1","train","38","","","","","","","",""
"","","","","","","","","","","","html-button-response","181","2.0.0","511123","66495b83f9f5ed828568503f","1","29","2190","","","","","","","","","<img src= ""rock_img/I_Pegmatite_11.jpg"" style=""width:8cm; height:8.14cm;""><p>What type of rock is this?</p>","0","class_response","1","train","39","Andesite","Pegmatite","11","false","1","6","",""
"","","","","","","","","","","","html-button-response","182","2.0.0","512801","66495b83f9f5ed828568503f","1","29","1676","","","","","","","","","<img src= rock_img/I_Pegmatite_11.jpg style=""width:8cm; height:8.14cm;""><p style='font-size: 30px; color: red;'><strong>Incorrect!</strong></p><p style='font-size: 30px;'><strong>This rock is pegmatite</strong></p>","0","corr_feedback","1","train","39","","","","","","","",""
"","","","","","","","","","","","html-button-response","183","2.0.0","513591","66495b83f9f5ed828568503f","1","29","788","","","","","","","","","<img src= ""rock_img/I_Pumice_05.jpg"" style=""width:8cm; height:7.25cm;""><p>What type of rock is this?</p>","4","class_response","1","train","40","Obsidian","Pumice","05","false","5","8","",""
"","","","","","","","","","","","html-button-response","184","2.0.0","515303","66495b83f9f5ed828568503f","1","29","1711","","","","","","","","","<img src= rock_img/I_Pumice_05.jpg style=""width:8cm; height:7.25cm;""><p style='font-size: 30px; color: red;'><strong>Incorrect!</strong></p><p style='font-size: 30px;'><strong>This rock is pumice</strong></p>","0","corr_feedback","1","train","40","","","","","","","",""
"","","","","","","","","","","","html-button-response","185","2.0.0","516241","66495b83f9f5ed828568503f","1","29","936","","","","","","","","","<img src= ""rock_img/I_Obsidian_09.jpg"" style=""width:8cm; height:5cm;""><p>What type of rock is this?</p>","7","class_response","1","train","41","Pumice","Obsidian","09","false","8","5","",""
"","","","","","","","","","","","html-button-response","186","2.0.0","517645","66495b83f9f5ed828568503f","1","29","1402","","","","","","","","","<img src= rock_img/I_Obsidian_09.jpg style=""width:8cm; height:5cm;""><p style='font-size: 30px; color: red;'><strong>Incorrect!</strong></p><p style='font-size: 30px;'><strong>This rock is obsidian</strong></p>","0","corr_feedback","1","train","41","","","","","","","",""
"","","","","","","","","","","","html-button-response","187","2.0.0","518391","66495b83f9f5ed828568503f","1","29","744","","","","","","","","","<img src= ""rock_img/I_Pegmatite_05.jpg"" style=""width:8cm; height:7.300000000000001cm;""><p>What type of rock is this?</p>","4","class_response","1","train","42","Obsidian","Pegmatite","05","false","5","6","",""
"","","","","","","","","","","","html-button-response","188","2.0.0","519887","66495b83f9f5ed828568503f","1","29","1494","","","","","","","","","<img src= rock_img/I_Pegmatite_05.jpg style=""width:8cm; height:7.300000000000001cm;""><p style='font-size: 30px; color: red;'><strong>Incorrect!</strong></p><p style='font-size: 30px;'><strong>This rock is pegmatite</strong></p>","0","corr_feedback","1","train","42","","","","","","","",""
"","","","","","","","","","","","html-button-response","189","2.0.0","520941","66495b83f9f5ed828568503f","1","29","1052","","","","","","","","","<img src= ""rock_img/I_Diorite_09.jpg"" style=""width:8cm; height:5.27cm;""><p>What type of rock is this?</p>","3","class_response","1","train","43","Gabbro","Diorite","09","false","4","3","",""
"","","","","","","","","","","","html-button-response","190","2.0.0","522435","66495b83f9f5ed828568503f","1","29","1492","","","","","","","","","<img src= rock_img/I_Diorite_09.jpg style=""width:8cm; height:5.27cm;""><p style='font-size: 30px; color: red;'><strong>Incorrect!</strong></p><p style='font-size: 30px;'><strong>This rock is diorite</strong></p>","0","corr_feedback","1","train","43","","","","","","","",""
"","","","","","","","","","","","html-button-response","191","2.0.0","523229","66495b83f9f5ed828568503f","1","29","792","","","","","","","","","<img src= ""rock_img/I_Peridotite_07.jpg"" style=""width:8cm; height:4.83cm;""><p>What type of rock is this?</p>","0","class_response","1","train","44","Andesite","Peridotite","07","false","1","7","",""
"","","","","","","","","","","","html-button-response","192","2.0.0","524747","66495b83f9f5ed828568503f","1","29","1516","","","","","","","","","<img src= rock_img/I_Peridotite_07.jpg style=""width:8cm; height:4.83cm;""><p style='font-size: 30px; color: red;'><strong>Incorrect!</strong></p><p style='font-size: 30px;'><strong>This rock is peridotite</strong></p>","0","corr_feedback","1","train","44","","","","","","","",""
"","","","","","","","","","","","html-button-response","193","2.0.0","525764","66495b83f9f5ed828568503f","1","29","1014","","","","","","","","","<img src= ""rock_img/I_Gabbro_12.jpg"" style=""width:8cm; height:7.800000000000001cm;""><p>What type of rock is this?</p>","4","class_response","1","train","45","Obsidian","Gabbro","12","false","5","4","",""
"","","","","","","","","","","","html-button-response","194","2.0.0","527330","66495b83f9f5ed828568503f","1","29","1565","","","","","","","","","<img src= rock_img/I_Gabbro_12.jpg style=""width:8cm; height:7.800000000000001cm;""><p style='font-size: 30px; color: red;'><strong>Incorrect!</strong></p><p style='font-size: 30px;'><strong>This rock is gabbro</strong></p>","0","corr_feedback","1","train","45","","","","","","","",""
"","","","","","","","","","","","html-button-response","195","2.0.0","528348","66495b83f9f5ed828568503f","1","29","1016","","","","","","","","","<img src= ""rock_img/I_Pumice_09.jpg"" style=""width:8cm; height:6.44cm;""><p>What type of rock is this?</p>","3","class_response","1","train","46","Gabbro","Pumice","09","false","4","8","",""
"","","","","","","","","","","","html-button-response","196","2.0.0","529851","66495b83f9f5ed828568503f","1","29","1502","","","","","","","","","<img src= rock_img/I_Pumice_09.jpg style=""width:8cm; height:6.44cm;""><p style='font-size: 30px; color: red;'><strong>Incorrect!</strong></p><p style='font-size: 30px;'><strong>This rock is pumice</strong></p>","0","corr_feedback","1","train","46","","","","","","","",""
"","","","","","","","","","","","html-button-response","197","2.0.0","530619","66495b83f9f5ed828568503f","1","29","766","","","","","","","","","<img src= ""rock_img/I_Pegmatite_06.jpg"" style=""width:8cm; height:5.17cm;""><p>What type of rock is this?</p>","4","class_response","1","train","47","Obsidian","Pegmatite","06","false","5","6","",""
"","","","","","","","","","","","html-button-response","198","2.0.0","532037","66495b83f9f5ed828568503f","1","29","1416","","","","","","","","","<img src= rock_img/I_Pegmatite_06.jpg style=""width:8cm; height:5.17cm;""><p style='font-size: 30px; color: red;'><strong>Incorrect!</strong></p><p style='font-size: 30px;'><strong>This rock is pegmatite</strong></p>","0","corr_feedback","1","train","47","","","","","","","",""
"","","","","","","","","","","","html-button-response","199","2.0.0","532986","66495b83f9f5ed828568503f","1","29","946","","","","","","","","","<img src= ""rock_img/I_Pegmatite_15.jpg"" style=""width:8cm; height:6cm;""><p>What type of rock is this?</p>","3","class_response","1","train","48","Gabbro","Pegmatite","15","false","4","6","",""
"","","","","","","","","","","","html-button-response","200","2.0.0","534405","66495b83f9f5ed828568503f","1","29","1418","","","","","","","","","<img src= rock_img/I_Pegmatite_15.jpg style=""width:8cm; height:6cm;""><p style='font-size: 30px; color: red;'><strong>Incorrect!</strong></p><p style='font-size: 30px;'><strong>This rock is pegmatite</strong></p>","0","corr_feedback","1","train","48","","","","","","","",""
"","","","","","","","","","","","instructions","203","2.0.0","567327","66495b83f9f5ed828568503f","1","29","32921","","","","","","","","[{""page_index"":0,""viewing_time"":11963},{""page_index"":1,""viewing_time"":20958}]","","","","","","","","","","","","","",""
"","","","","","","","","","","","html-button-response","204","2.0.0","572944","66495b83f9f5ed828568503f","1","29","5614","","","","","","","","","","0","start_test","","","","","","","","","","",""
"","","","","","","","","","","","html-button-response","205","2.0.0","627548","66495b83f9f5ed828568503f","1","29","54601","","","","","","","","","<img src= ""rock_img/I_Basalt_12.jpg"" style=""width:8cm; height:6.010000000000001cm;""><p>What type of rock is this?</p>","3","class_response","1","test","1","Gabbro","Basalt","12","false","4","2","",""
"","","","","","","","","","","","html-keyboard-response","206","2.0.0","628057","66495b83f9f5ed828568503f","1","29","null","","","","","","","","","<p style='font-size: 30px;'><strong>Okay</strong></p>","null","neutral_feedback","1","test","1","","","","","","","",""
"","","","","","","","","","","","html-button-response","207","2.0.0","680641","66495b83f9f5ed828568503f","1","29","52582","","","","","","","","","<img src= ""rock_img/I_Diorite_07.jpg"" style=""width:8cm; height:5.239999999999999cm;""><p>What type of rock is this?</p>","2","class_response","1","test","2","Diorite","Diorite","07","true","3","3","",""
"","","","","","","","","","","","html-keyboard-response","208","2.0.0","681156","66495b83f9f5ed828568503f","1","29","null","","","","","","","","","<p style='font-size: 30px;'><strong>Okay</strong></p>","null","neutral_feedback","1","test","2","","","","","","","",""
"","","","","","","","","","","","html-button-response","209","2.0.0","697994","66495b83f9f5ed828568503f","1","29","16836","","","","","","","","","<img src= ""rock_img/I_Obsidian_05.jpg"" style=""width:8cm; height:6.33cm;""><p>What type of rock is this?</p>","1","class_response","1","test","3","Basalt","Obsidian","05","false","2","5","",""
"","","","","","","","","","","","html-keyboard-response","210","2.0.0","698500","66495b83f9f5ed828568503f","1","29","null","","","","","","","","","<p style='font-size: 30px;'><strong>Okay</strong></p>","null","neutral_feedback","1","test","3","","","","","","","",""
"","","","","","","","","","","","html-button-response","211","2.0.0","709653","66495b83f9f5ed828568503f","1","29","11151","","","","","","","","","<img src= ""rock_img/I_Gabbro_09.jpg"" style=""width:8cm; height:7.279999999999999cm;""><p>What type of rock is this?</p>","0","class_response","1","test","4","Andesite","Gabbro","09","false","1","4","",""
"","","","","","","","","","","","html-keyboard-response","212","2.0.0","710155","66495b83f9f5ed828568503f","1","29","null","","","","","","","","","<p style='font-size: 30px;'><strong>Okay</strong></p>","null","neutral_feedback","1","test","4","","","","","","","",""
"","","","","","","","","","","","html-button-response","213","2.0.0","718451","66495b83f9f5ed828568503f","1","29","8294","","","","","","","","","<img src= ""rock_img/I_Obsidian_10.jpg"" style=""width:8cm; height:6.260000000000001cm;""><p>What type of rock is this?</p>","4","class_response","1","test","5","Obsidian","Obsidian","10","true","5","5","",""
"","","","","","","","","","","","html-keyboard-response","214","2.0.0","718954","66495b83f9f5ed828568503f","1","29","null","","","","","","","","","<p style='font-size: 30px;'><strong>Okay</strong></p>","null","neutral_feedback","1","test","5","","","","","","","",""
"","","","","","","","","","","","html-button-response","215","2.0.0","726795","66495b83f9f5ed828568503f","1","29","7840","","","","","","","","","<img src= ""rock_img/I_Basalt_09.jpg"" style=""width:8cm; height:6.2cm;""><p>What type of rock is this?</p>","1","class_response","1","test","6","Basalt","Basalt","09","true","2","2","",""
"","","","","","","","","","","","html-keyboard-response","216","2.0.0","727297","66495b83f9f5ed828568503f","1","29","null","","","","","","","","","<p style='font-size: 30px;'><strong>Okay</strong></p>","null","neutral_feedback","1","test","6","","","","","","","",""
"","","","","","","","","","","","html-button-response","217","2.0.0","733423","66495b83f9f5ed828568503f","1","29","6125","","","","","","","","","<img src= ""rock_img/I_Pumice_02.jpg"" style=""width:8cm; height:7.3999999999999995cm;""><p>What type of rock is this?</p>","7","class_response","1","test","7","Pumice","Pumice","02","true","8","8","",""
"","","","","","","","","","","","html-keyboard-response","218","2.0.0","733925","66495b83f9f5ed828568503f","1","29","null","","","","","","","","","<p style='font-size: 30px;'><strong>Okay</strong></p>","null","neutral_feedback","1","test","7","","","","","","","",""
"","","","","","","","","","","","html-button-response","219","2.0.0","756057","66495b83f9f5ed828568503f","1","29","22130","","","","","","","","","<img src= ""rock_img/I_Basalt_05.jpg"" style=""width:8cm; height:8.18cm;""><p>What type of rock is this?</p>","1","class_response","1","test","8","Basalt","Basalt","05","true","2","2","",""
"","","","","","","","","","","","html-keyboard-response","220","2.0.0","756569","66495b83f9f5ed828568503f","1","29","null","","","","","","","","","<p style='font-size: 30px;'><strong>Okay</strong></p>","null","neutral_feedback","1","test","8","","","","","","","",""
"","","","","","","","","","","","html-button-response","221","2.0.0","765917","66495b83f9f5ed828568503f","1","29","9346","","","","","","","","","<img src= ""rock_img/I_Gabbro_03.jpg"" style=""width:8cm; height:8.52cm;""><p>What type of rock is this?</p>","3","class_response","1","test","9","Gabbro","Gabbro","03","true","4","4","",""
"","","","","","","","","","","","html-keyboard-response","222","2.0.0","766428","66495b83f9f5ed828568503f","1","29","null","","","","","","","","","<p style='font-size: 30px;'><strong>Okay</strong></p>","null","neutral_feedback","1","test","9","","","","","","","",""
"","","","","","","","","","","","html-button-response","223","2.0.0","783445","66495b83f9f5ed828568503f","1","29","17016","","","","","","","","","<img src= ""rock_img/I_Andesite_14.jpg"" style=""width:8cm; height:5.449999999999999cm;""><p>What type of rock is this?</p>","7","class_response","1","test","10","Pumice","Andesite","14","false","8","1","",""
"","","","","","","","","","","","html-keyboard-response","224","2.0.0","783948","66495b83f9f5ed828568503f","1","29","null","","","","","","","","","<p style='font-size: 30px;'><strong>Okay</strong></p>","null","neutral_feedback","1","test","10","","","","","","","",""
"","","","","","","","","","","","html-button-response","225","2.0.0","798915","66495b83f9f5ed828568503f","1","29","14966","","","","","","","","","<img src= ""rock_img/I_Basalt_08.jpg"" style=""width:8cm; height:10.44cm;""><p>What type of rock is this?</p>","0","class_response","1","test","11","Andesite","Basalt","08","false","1","2","",""
"","","","","","","","","","","","html-keyboard-response","226","2.0.0","799417","66495b83f9f5ed828568503f","1","29","null","","","","","","","","","<p style='font-size: 30px;'><strong>Okay</strong></p>","null","neutral_feedback","1","test","11","","","","","","","",""
"","","","","","","","","","","","html-button-response","227","2.0.0","812275","66495b83f9f5ed828568503f","1","29","12857","","","","","","","","","<img src= ""rock_img/I_Peridotite_06.jpg"" style=""width:8cm; height:7.53cm;""><p>What type of rock is this?</p>","0","class_response","1","test","12","Andesite","Peridotite","06","false","1","7","",""
"","","","","","","","","","","","html-keyboard-response","228","2.0.0","812777","66495b83f9f5ed828568503f","1","29","null","","","","","","","","","<p style='font-size: 30px;'><strong>Okay</strong></p>","null","neutral_feedback","1","test","12","","","","","","","",""
"","","","","","","","","","","","html-button-response","229","2.0.0","818793","66495b83f9f5ed828568503f","1","29","6015","","","","","","","","","<img src= ""rock_img/I_Basalt_06.jpg"" style=""width:8cm; height:7.06cm;""><p>What type of rock is this?</p>","1","class_response","1","test","13","Basalt","Basalt","06","true","2","2","",""
"","","","","","","","","","","","html-keyboard-response","230","2.0.0","819295","66495b83f9f5ed828568503f","1","29","null","","","","","","","","","<p style='font-size: 30px;'><strong>Okay</strong></p>","null","neutral_feedback","1","test","13","","","","","","","",""
"","","","","","","","","","","","html-button-response","231","2.0.0","824353","66495b83f9f5ed828568503f","1","29","5056","","","","","","","","","<img src= ""rock_img/I_Diorite_02.jpg"" style=""width:8cm; height:6.27cm;""><p>What type of rock is this?</p>","2","class_response","1","test","14","Diorite","Diorite","02","true","3","3","",""
"","","","","","","","","","","","html-keyboard-response","232","2.0.0","824858","66495b83f9f5ed828568503f","1","29","null","","","","","","","","","<p style='font-size: 30px;'><strong>Okay</strong></p>","null","neutral_feedback","1","test","14","","","","","","","",""
"","","","","","","","","","","","html-button-response","233","2.0.0","825554","66495b83f9f5ed828568503f","1","29","695","","","","","","","","","<img src= ""rock_img/I_Peridotite_13.jpg"" style=""width:8cm; height:7.58cm;""><p>What type of rock is this?</p>","2","class_response","1","test","15","Diorite","Peridotite","13","false","3","7","",""
"","","","","","","","","","","","html-keyboard-response","234","2.0.0","826057","66495b83f9f5ed828568503f","1","29","null","","","","","","","","","<p style='font-size: 30px;'><strong>Okay</strong></p>","null","neutral_feedback","1","test","15","","","","","","","",""
"","","","","","","","","","","","html-button-response","235","2.0.0","826651","66495b83f9f5ed828568503f","1","29","592","","","","","","","","","<img src= ""rock_img/I_Pumice_10.jpg"" style=""width:8cm; height:7.609999999999999cm;""><p>What type of rock is this?</p>","1","class_response","1","test","16","Basalt","Pumice","10","false","2","8","",""
"","","","","","","","","","","","html-keyboard-response","236","2.0.0","827153","66495b83f9f5ed828568503f","1","29","null","","","","","","","","","<p style='font-size: 30px;'><strong>Okay</strong></p>","null","neutral_feedback","1","test","16","","","","","","","",""
"","","","","","","","","","","","html-button-response","237","2.0.0","828097","66495b83f9f5ed828568503f","1","29","943","","","","","","","","","<img src= ""rock_img/I_Andesite_09.jpg"" style=""width:8cm; height:6cm;""><p>What type of rock is this?</p>","7","class_response","1","test","17","Pumice","Andesite","09","false","8","1","",""
"","","","","","","","","","","","html-keyboard-response","238","2.0.0","828598","66495b83f9f5ed828568503f","1","29","null","","","","","","","","","<p style='font-size: 30px;'><strong>Okay</strong></p>","null","neutral_feedback","1","test","17","","","","","","","",""
"","","","","","","","","","","","html-button-response","239","2.0.0","829085","66495b83f9f5ed828568503f","1","29","486","","","","","","","","","<img src= ""rock_img/I_Gabbro_11.jpg"" style=""width:8cm; height:6.2cm;""><p>What type of rock is this?</p>","3","class_response","1","test","18","Gabbro","Gabbro","11","true","4","4","",""
"","","","","","","","","","","","html-keyboard-response","240","2.0.0","829588","66495b83f9f5ed828568503f","1","29","null","","","","","","","","","<p style='font-size: 30px;'><strong>Okay</strong></p>","null","neutral_feedback","1","test","18","","","","","","","",""
"","","","","","","","","","","","html-button-response","241","2.0.0","830032","66495b83f9f5ed828568503f","1","29","443","","","","","","","","","<img src= ""rock_img/I_Diorite_12.jpg"" style=""width:8cm; height:4.88cm;""><p>What type of rock is this?</p>","1","class_response","1","test","19","Basalt","Diorite","12","false","2","3","",""
"","","","","","","","","","","","html-keyboard-response","242","2.0.0","830534","66495b83f9f5ed828568503f","1","29","null","","","","","","","","","<p style='font-size: 30px;'><strong>Okay</strong></p>","null","neutral_feedback","1","test","19","","","","","","","",""
"","","","","","","","","","","","html-button-response","243","2.0.0","830893","66495b83f9f5ed828568503f","1","29","358","","","","","","","","","<img src= ""rock_img/I_Andesite_11.jpg"" style=""width:8cm; height:4.92cm;""><p>What type of rock is this?</p>","0","class_response","1","test","20","Andesite","Andesite","11","true","1","1","",""
"","","","","","","","","","","","html-keyboard-response","244","2.0.0","831407","66495b83f9f5ed828568503f","1","29","null","","","","","","","","","<p style='font-size: 30px;'><strong>Okay</strong></p>","null","neutral_feedback","1","test","20","","","","","","","",""
"","","","","","","","","","","","html-button-response","245","2.0.0","831797","66495b83f9f5ed828568503f","1","29","388","","","","","","","","","<img src= ""rock_img/I_Gabbro_14.jpg"" style=""width:8cm; height:8.48cm;""><p>What type of rock is this?</p>","0","class_response","1","test","21","Andesite","Gabbro","14","false","1","4","",""
"","","","","","","","","","","","html-keyboard-response","246","2.0.0","832302","66495b83f9f5ed828568503f","1","29","null","","","","","","","","","<p style='font-size: 30px;'><strong>Okay</strong></p>","null","neutral_feedback","1","test","21","","","","","","","",""
"","","","","","","","","","","","html-button-response","247","2.0.0","832773","66495b83f9f5ed828568503f","1","29","469","","","","","","","","","<img src= ""rock_img/I_Pumice_16.jpg"" style=""width:8cm; height:6.79cm;""><p>What type of rock is this?</p>","1","class_response","1","test","22","Basalt","Pumice","16","false","2","8","",""
"","","","","","","","","","","","html-keyboard-response","248","2.0.0","833275","66495b83f9f5ed828568503f","1","29","null","","","","","","","","","<p style='font-size: 30px;'><strong>Okay</strong></p>","null","neutral_feedback","1","test","22","","","","","","","",""
"","","","","","","","","","","","html-button-response","249","2.0.0","833631","66495b83f9f5ed828568503f","1","29","355","","","","","","","","","<img src= ""rock_img/I_Peridotite_02.jpg"" style=""width:8cm; height:5.859999999999999cm;""><p>What type of rock is this?</p>","2","class_response","1","test","23","Diorite","Peridotite","02","false","3","7","",""
"","","","","","","","","","","","html-keyboard-response","250","2.0.0","834145","66495b83f9f5ed828568503f","1","29","null","","","","","","","","","<p style='font-size: 30px;'><strong>Okay</strong></p>","null","neutral_feedback","1","test","23","","","","","","","",""
"","","","","","","","","","","","html-button-response","251","2.0.0","834481","66495b83f9f5ed828568503f","1","29","334","","","","","","","","","<img src= ""rock_img/I_Pegmatite_03.jpg"" style=""width:8cm; height:5.239999999999999cm;""><p>What type of rock is this?</p>","3","class_response","1","test","24","Gabbro","Pegmatite","03","false","4","6","",""
"","","","","","","","","","","","html-keyboard-response","252","2.0.0","834990","66495b83f9f5ed828568503f","1","29","null","","","","","","","","","<p style='font-size: 30px;'><strong>Okay</strong></p>","null","neutral_feedback","1","test","24","","","","","","","",""
"","","","","","","","","","","","html-button-response","253","2.0.0","835441","66495b83f9f5ed828568503f","1","29","449","","","","","","","","","<img src= ""rock_img/I_Pumice_13.jpg"" style=""width:8cm; height:8.200000000000001cm;""><p>What type of rock is this?</p>","3","class_response","1","test","25","Gabbro","Pumice","13","false","4","8","",""
"","","","","","","","","","","","html-keyboard-response","254","2.0.0","835943","66495b83f9f5ed828568503f","1","29","null","","","","","","","","","<p style='font-size: 30px;'><strong>Okay</strong></p>","null","neutral_feedback","1","test","25","","","","","","","",""
"","","","","","","","","","","","html-button-response","255","2.0.0","836381","66495b83f9f5ed828568503f","1","29","436","","","","","","","","","<img src= ""rock_img/I_Basalt_16.jpg"" style=""width:8cm; height:7.659999999999999cm;""><p>What type of rock is this?</p>","7","class_response","1","test","26","Pumice","Basalt","16","false","8","2","",""
"","","","","","","","","","","","html-keyboard-response","256","2.0.0","836883","66495b83f9f5ed828568503f","1","29","null","","","","","","","","","<p style='font-size: 30px;'><strong>Okay</strong></p>","null","neutral_feedback","1","test","26","","","","","","","",""
"","","","","","","","","","","","html-button-response","257","2.0.0","837261","66495b83f9f5ed828568503f","1","29","376","","","","","","","","","<img src= ""rock_img/I_Peridotite_04.jpg"" style=""width:8cm; height:6.680000000000001cm;""><p>What type of rock is this?</p>","6","class_response","1","test","27","Peridotite","Peridotite","04","true","7","7","",""
"","","","","","","","","","","","html-keyboard-response","258","2.0.0","837762","66495b83f9f5ed828568503f","1","29","null","","","","","","","","","<p style='font-size: 30px;'><strong>Okay</strong></p>","null","neutral_feedback","1","test","27","","","","","","","",""
"","","","","","","","","","","","html-button-response","259","2.0.0","838091","66495b83f9f5ed828568503f","1","29","327","","","","","","","","","<img src= ""rock_img/I_Andesite_16.jpg"" style=""width:8cm; height:6.010000000000001cm;""><p>What type of rock is this?</p>","5","class_response","1","test","28","Pegmatite","Andesite","16","false","6","1","",""
"","","","","","","","","","","","html-keyboard-response","260","2.0.0","838598","66495b83f9f5ed828568503f","1","29","null","","","","","","","","","<p style='font-size: 30px;'><strong>Okay</strong></p>","null","neutral_feedback","1","test","28","","","","","","","",""
"","","","","","","","","","","","html-button-response","261","2.0.0","838931","66495b83f9f5ed828568503f","1","29","332","","","","","","","","","<img src= ""rock_img/I_Pegmatite_09.jpg"" style=""width:8cm; height:4.03cm;""><p>What type of rock is this?</p>","4","class_response","1","test","29","Obsidian","Pegmatite","09","false","5","6","",""
"","","","","","","","","","","","html-keyboard-response","262","2.0.0","839433","66495b83f9f5ed828568503f","1","29","null","","","","","","","","","<p style='font-size: 30px;'><strong>Okay</strong></p>","null","neutral_feedback","1","test","29","","","","","","","",""
"","","","","","","","","","","","html-button-response","263","2.0.0","849387","66495b83f9f5ed828568503f","1","29","9953","","","","","","","","","<img src= ""rock_img/I_Obsidian_04.jpg"" style=""width:8cm; height:6.930000000000001cm;""><p>What type of rock is this?</p>","4","class_response","1","test","30","Obsidian","Obsidian","04","true","5","5","",""
"","","","","","","","","","","","html-keyboard-response","264","2.0.0","849888","66495b83f9f5ed828568503f","1","29","null","","","","","","","","","<p style='font-size: 30px;'><strong>Okay</strong></p>","null","neutral_feedback","1","test","30","","","","","","","",""
"","","","","","","","","","","","html-button-response","265","2.0.0","851223","66495b83f9f5ed828568503f","1","29","1333","","","","","","","","","<img src= ""rock_img/I_Peridotite_15.jpg"" style=""width:8cm; height:6cm;""><p>What type of rock is this?</p>","3","class_response","1","test","31","Gabbro","Peridotite","15","false","4","7","",""
"","","","","","","","","","","","html-keyboard-response","266","2.0.0","851726","66495b83f9f5ed828568503f","1","29","null","","","","","","","","","<p style='font-size: 30px;'><strong>Okay</strong></p>","null","neutral_feedback","1","test","31","","","","","","","",""
"","","","","","","","","","","","html-button-response","267","2.0.0","852371","66495b83f9f5ed828568503f","1","29","644","","","","","","","","","<img src= ""rock_img/I_Pegmatite_16.jpg"" style=""width:8cm; height:5.8cm;""><p>What type of rock is this?</p>","2","class_response","1","test","32","Diorite","Pegmatite","16","false","3","6","",""
"","","","","","","","","","","","html-keyboard-response","268","2.0.0","852882","66495b83f9f5ed828568503f","1","29","null","","","","","","","","","<p style='font-size: 30px;'><strong>Okay</strong></p>","null","neutral_feedback","1","test","32","","","","","","","",""
"","","","","","","","","","","","html-button-response","269","2.0.0","853487","66495b83f9f5ed828568503f","1","29","603","","","","","","","","","<img src= ""rock_img/I_Gabbro_05.jpg"" style=""width:8cm; height:6cm;""><p>What type of rock is this?</p>","1","class_response","1","test","33","Basalt","Gabbro","05","false","2","4","",""
"","","","","","","","","","","","html-keyboard-response","270","2.0.0","854004","66495b83f9f5ed828568503f","1","29","null","","","","","","","","","<p style='font-size: 30px;'><strong>Okay</strong></p>","null","neutral_feedback","1","test","33","","","","","","","",""
"","","","","","","","","","","","html-button-response","271","2.0.0","855588","66495b83f9f5ed828568503f","1","29","1583","","","","","","","","","<img src= ""rock_img/I_Pumice_06.jpg"" style=""width:8cm; height:6.9399999999999995cm;""><p>What type of rock is this?</p>","0","class_response","1","test","34","Andesite","Pumice","06","false","1","8","",""
"","","","","","","","","","","","html-keyboard-response","272","2.0.0","856094","66495b83f9f5ed828568503f","1","29","null","","","","","","","","","<p style='font-size: 30px;'><strong>Okay</strong></p>","null","neutral_feedback","1","test","34","","","","","","","",""
"","","","","","","","","","","","html-button-response","273","2.0.0","856575","66495b83f9f5ed828568503f","1","29","479","","","","","","","","","<img src= ""rock_img/I_Andesite_06.jpg"" style=""width:8cm; height:6.840000000000001cm;""><p>What type of rock is this?</p>","5","class_response","1","test","35","Pegmatite","Andesite","06","false","6","1","",""
"","","","","","","","","","","","html-keyboard-response","274","2.0.0","857077","66495b83f9f5ed828568503f","1","29","null","","","","","","","","","<p style='font-size: 30px;'><strong>Okay</strong></p>","null","neutral_feedback","1","test","35","","","","","","","",""
"","","","","","","","","","","","html-button-response","275","2.0.0","857929","66495b83f9f5ed828568503f","1","29","850","","","","","","","","","<img src= ""rock_img/I_Obsidian_12.jpg"" style=""width:8cm; height:6.53cm;""><p>What type of rock is this?</p>","2","class_response","1","test","36","Diorite","Obsidian","12","false","3","5","",""
"","","","","","","","","","","","html-keyboard-response","276","2.0.0","858430","66495b83f9f5ed828568503f","1","29","null","","","","","","","","","<p style='font-size: 30px;'><strong>Okay</strong></p>","null","neutral_feedback","1","test","36","","","","","","","",""
"","","","","","","","","","","","html-button-response","277","2.0.0","858927","66495b83f9f5ed828568503f","1","29","495","","","","","","","","","<img src= ""rock_img/I_Pegmatite_08.jpg"" style=""width:8cm; height:7.68cm;""><p>What type of rock is this?</p>","3","class_response","1","test","37","Gabbro","Pegmatite","08","false","4","6","",""
"","","","","","","","","","","","html-keyboard-response","278","2.0.0","859429","66495b83f9f5ed828568503f","1","29","null","","","","","","","","","<p style='font-size: 30px;'><strong>Okay</strong></p>","null","neutral_feedback","1","test","37","","","","","","","",""
"","","","","","","","","","","","html-button-response","279","2.0.0","859976","66495b83f9f5ed828568503f","1","29","546","","","","","","","","","<img src= ""rock_img/I_Peridotite_10.jpg"" style=""width:8cm; height:5.390000000000001cm;""><p>What type of rock is this?</p>","7","class_response","1","test","38","Pumice","Peridotite","10","false","8","7","",""
"","","","","","","","","","","","html-keyboard-response","280","2.0.0","860477","66495b83f9f5ed828568503f","1","29","null","","","","","","","","","<p style='font-size: 30px;'><strong>Okay</strong></p>","null","neutral_feedback","1","test","38","","","","","","","",""
"","","","","","","","","","","","html-button-response","281","2.0.0","864435","66495b83f9f5ed828568503f","1","29","3956","","","","","","","","","<img src= ""rock_img/I_Obsidian_16.jpg"" style=""width:8cm; height:9.3cm;""><p>What type of rock is this?</p>","4","class_response","1","test","39","Obsidian","Obsidian","16","true","5","5","",""
"","","","","","","","","","","","html-keyboard-response","282","2.0.0","864947","66495b83f9f5ed828568503f","1","29","null","","","","","","","","","<p style='font-size: 30px;'><strong>Okay</strong></p>","null","neutral_feedback","1","test","39","","","","","","","",""
"","","","","","","","","","","","html-button-response","283","2.0.0","866233","66495b83f9f5ed828568503f","1","29","1284","","","","","","","","","<img src= ""rock_img/I_Obsidian_08.jpg"" style=""width:8cm; height:7.39cm;""><p>What type of rock is this?</p>","4","class_response","1","test","40","Obsidian","Obsidian","08","true","5","5","",""
"","","","","","","","","","","","html-keyboard-response","284","2.0.0","866735","66495b83f9f5ed828568503f","1","29","null","","","","","","","","","<p style='font-size: 30px;'><strong>Okay</strong></p>","null","neutral_feedback","1","test","40","","","","","","","",""
"","","","","","","","","","","","html-button-response","285","2.0.0","867777","66495b83f9f5ed828568503f","1","29","1040","","","","","","","","","<img src= ""rock_img/I_Diorite_13.jpg"" style=""width:8cm; height:6.29cm;""><p>What type of rock is this?</p>","1","class_response","1","test","41","Basalt","Diorite","13","false","2","3","",""
"","","","","","","","","","","","html-keyboard-response","286","2.0.0","868281","66495b83f9f5ed828568503f","1","29","null","","","","","","","","","<p style='font-size: 30px;'><strong>Okay</strong></p>","null","neutral_feedback","1","test","41","","","","","","","",""
"","","","","","","","","","","","html-button-response","287","2.0.0","869081","66495b83f9f5ed828568503f","1","29","798","","","","","","","","","<img src= ""rock_img/I_Diorite_11.jpg"" style=""width:8cm; height:7.11cm;""><p>What type of rock is this?</p>","0","class_response","1","test","42","Andesite","Diorite","11","false","1","3","",""
"","","","","","","","","","","","html-keyboard-response","288","2.0.0","869583","66495b83f9f5ed828568503f","1","29","null","","","","","","","","","<p style='font-size: 30px;'><strong>Okay</strong></p>","null","neutral_feedback","1","test","42","","","","","","","",""
"","","","","","","","","","","","html-button-response","289","2.0.0","870283","66495b83f9f5ed828568503f","1","29","698","","","","","","","","","<img src= ""rock_img/I_Pegmatite_13.jpg"" style=""width:8cm; height:4.95cm;""><p>What type of rock is this?</p>","2","class_response","1","test","43","Diorite","Pegmatite","13","false","3","6","",""
"","","","","","","","","","","","html-keyboard-response","290","2.0.0","870790","66495b83f9f5ed828568503f","1","29","null","","","","","","","","","<p style='font-size: 30px;'><strong>Okay</strong></p>","null","neutral_feedback","1","test","43","","","","","","","",""
"","","","","","","","","","","","html-button-response","291","2.0.0","871203","66495b83f9f5ed828568503f","1","29","411","","","","","","","","","<img src= ""rock_img/I_Pumice_14.jpg"" style=""width:8cm; height:6.39cm;""><p>What type of rock is this?</p>","3","class_response","1","test","44","Gabbro","Pumice","14","false","4","8","",""
"","","","","","","","","","","","html-keyboard-response","292","2.0.0","871707","66495b83f9f5ed828568503f","1","29","null","","","","","","","","","<p style='font-size: 30px;'><strong>Okay</strong></p>","null","neutral_feedback","1","test","44","","","","","","","",""
"","","","","","","","","","","","html-button-response","293","2.0.0","872396","66495b83f9f5ed828568503f","1","29","687","","","","","","","","","<img src= ""rock_img/I_Gabbro_16.jpg"" style=""width:8cm; height:6.44cm;""><p>What type of rock is this?</p>","2","class_response","1","test","45","Diorite","Gabbro","16","false","3","4","",""
"","","","","","","","","","","","html-keyboard-response","294","2.0.0","872910","66495b83f9f5ed828568503f","1","29","null","","","","","","","","","<p style='font-size: 30px;'><strong>Okay</strong></p>","null","neutral_feedback","1","test","45","","","","","","","",""
"","","","","","","","","","","","html-button-response","295","2.0.0","873549","66495b83f9f5ed828568503f","1","29","637","","","","","","","","","<img src= ""rock_img/I_Andesite_03.jpg"" style=""width:8cm; height:5.73cm;""><p>What type of rock is this?</p>","7","class_response","1","test","46","Pumice","Andesite","03","false","8","1","",""
"","","","","","","","","","","","html-keyboard-response","296","2.0.0","874050","66495b83f9f5ed828568503f","1","29","null","","","","","","","","","<p style='font-size: 30px;'><strong>Okay</strong></p>","null","neutral_feedback","1","test","46","","","","","","","",""
"","","","","","","","","","","","html-button-response","297","2.0.0","875201","66495b83f9f5ed828568503f","1","29","1149","","","","","","","","","<img src= ""rock_img/I_Diorite_15.jpg"" style=""width:8cm; height:5.54cm;""><p>What type of rock is this?</p>","2","class_response","1","test","47","Diorite","Diorite","15","true","3","3","",""
"","","","","","","","","","","","html-keyboard-response","298","2.0.0","875702","66495b83f9f5ed828568503f","1","29","null","","","","","","","","","<p style='font-size: 30px;'><strong>Okay</strong></p>","null","neutral_feedback","1","test","47","","","","","","","",""
"","","","","","","","","","","","html-button-response","299","2.0.0","876133","66495b83f9f5ed828568503f","1","29","429","","","","","","","","","<img src= ""rock_img/I_Pegmatite_07.jpg"" style=""width:8cm; height:6.7cm;""><p>What type of rock is this?</p>","1","class_response","1","test","48","Basalt","Pegmatite","07","false","2","6","",""
"","","","","","","","","","","","html-keyboard-response","300","2.0.0","876634","66495b83f9f5ed828568503f","1","29","null","","","","","","","","","<p style='font-size: 30px;'><strong>Okay</strong></p>","null","neutral_feedback","1","test","48","","","","","","","",""
"","","","","","","","","","","","html-button-response","301","2.0.0","903763","66495b83f9f5ed828568503f","1","29","","","","","","","","","","","","cycle_feedback","","","","","","","","","","12402.39999999851","14719.79999999702"
"","","","","","","","","","","","html-button-response","303","2.0.0","908487","66495b83f9f5ed828568503f","1","29","4722","","","","","","","","","","0","start_train","","","","","","","","","","",""
"","","","","","","","","","","","html-button-response","304","2.0.0","910037","66495b83f9f5ed828568503f","1","29","1548","","","","","","","","","<img src= ""rock_img/I_Pegmatite_11.jpg"" style=""width:8cm; height:8.14cm;""><p>What type of rock is this?</p>","2","class_response","2","train","1","Diorite","Pegmatite","11","false","3","6","",""
