"width","height","webaudio","browser","browser_version","mobile","os","fullscreen","vsync_rate","webcam","microphone","trial_type","trial_index","plugin_version","time_elapsed","subjID","condition","stimID","rt","url","success","value","timeout","failed_images","failed_audio","failed_video","view_history","stimulus","response","trialType","cycle","phase","trial","resp","cat","token","corr","resp_num","cat_num","time_fb1","time_fb2"
"1280","585","true","chrome","131.0.0","false","Windows 10","true","59.71","true","true","browser-check","0","2.0.0","1024","65996217ff76317c84f8aa6e","1","44","","","","","","","","","","","","","","","","","","","","","","",""
"","","","","","","","","","","","external-html","1","2.0.0","7780","65996217ff76317c84f8aa6e","1","44","5581","consent_form.html","","","","","","","","","","","","","","","","","","","","",""
"","","","","","","","","","","","fullscreen","2","2.0.0","9727","65996217ff76317c84f8aa6e","1","44","935","","true","","","","","","","","","","","","","","","","","","","",""
"","","","","","","","","","","","call-function","3","2.0.0","9733","65996217ff76317c84f8aa6e","1","44","","","","{}","","","","","","","","","","","","","","","","","","",""
"","","","","","","","","","","","preload","4","2.0.0","10017","65996217ff76317c84f8aa6e","1","44","","","true","","false","[]","[]","[]","","","","","","","","","","","","","","",""
"","","","","","","","","","","","instructions","5","2.0.0","15488","65996217ff76317c84f8aa6e","1","44","5469","","","","","","","","[{""page_index"":0,""viewing_time"":1731},{""page_index"":1,""viewing_time"":2103},{""page_index"":2,""viewing_time"":1635}]","","","","","","","","","","","","","",""
"","","","","","","","","","","","html-button-response","6","2.0.0","16735","65996217ff76317c84f8aa6e","1","44","1242","","","","","","","","","","0","start_test","","","","","","","","","","",""
"","","","","","","","","","","","html-button-response","7","2.0.0","17650","65996217ff76317c84f8aa6e","1","44","909","","","","","","","","","<img src= ""rock_img/I_Diorite_02.jpg"" style=""width:8cm; height:6.27cm;""><p>What type of rock is this?</p>","1","class_response","0","test","1","Basalt","Diorite","02","false","2","3","",""
"","","","","","","","","","","","html-keyboard-response","8","2.0.0","18170","65996217ff76317c84f8aa6e","1","44","null","","","","","","","","","<p style='font-size: 30px;'><strong>Okay</strong></p>","null","neutral_feedback","0","test","1","","","","","","","",""
"","","","","","","","","","","","html-button-response","9","2.0.0","18670","65996217ff76317c84f8aa6e","1","44","490","","","","","","","","","<img src= ""rock_img/I_Diorite_13.jpg"" style=""width:8cm; height:6.29cm;""><p>What type of rock is this?</p>","2","class_response","0","test","2","Diorite","Diorite","13","true","3","3","",""
"","","","","","","","","","","","html-keyboard-response","10","2.0.0","19179","65996217ff76317c84f8aa6e","1","44","null","","","","","","","","","<p style='font-size: 30px;'><strong>Okay</strong></p>","null","neutral_feedback","0","test","2","","","","","","","",""
"","","","","","","","","","","","html-button-response","11","2.0.0","19663","65996217ff76317c84f8aa6e","1","44","478","","","","","","","","","<img src= ""rock_img/I_Basalt_08.jpg"" style=""width:8cm; height:10.44cm;""><p>What type of rock is this?</p>","5","class_response","0","test","3","Pegmatite","Basalt","08","false","6","2","",""
"","","","","","","","","","","","html-keyboard-response","12","2.0.0","20182","65996217ff76317c84f8aa6e","1","44","null","","","","","","","","","<p style='font-size: 30px;'><strong>Okay</strong></p>","null","neutral_feedback","0","test","3","","","","","","","",""
"","","","","","","","","","","","html-button-response","13","2.0.0","20567","65996217ff76317c84f8aa6e","1","44","384","","","","","","","","","<img src= ""rock_img/I_Obsidian_10.jpg"" style=""width:8cm; height:6.260000000000001cm;""><p>What type of rock is this?</p>","4","class_response","0","test","4","Obsidian","Obsidian","10","true","5","5","",""
"","","","","","","","","","","","html-keyboard-response","14","2.0.0","21083","65996217ff76317c84f8aa6e","1","44","null","","","","","","","","","<p style='font-size: 30px;'><strong>Okay</strong></p>","null","neutral_feedback","0","test","4","","","","","","","",""
"","","","","","","","","","","","html-button-response","15","2.0.0","21680","65996217ff76317c84f8aa6e","1","44","594","","","","","","","","","<img src= ""rock_img/I_Pegmatite_15.jpg"" style=""width:8cm; height:6cm;""><p>What type of rock is this?</p>","0","class_response","0","test","5","Andesite","Pegmatite","15","false","1","6","",""
"","","","","","","","","","","","html-keyboard-response","16","2.0.0","22189","65996217ff76317c84f8aa6e","1","44","null","","","","","","","","","<p style='font-size: 30px;'><strong>Okay</strong></p>","null","neutral_feedback","0","test","5","","","","","","","",""
"","","","","","","","","","","","html-button-response","17","2.0.0","22588","65996217ff76317c84f8aa6e","1","44","397","","","","","","","","","<img src= ""rock_img/I_Andesite_06.jpg"" style=""width:8cm; height:6.840000000000001cm;""><p>What type of rock is this?</p>","6","class_response","0","test","6","Peridotite","Andesite","06","false","7","1","",""
"","","","","","","","","","","","html-keyboard-response","18","2.0.0","23103","65996217ff76317c84f8aa6e","1","44","null","","","","","","","","","<p style='font-size: 30px;'><strong>Okay</strong></p>","null","neutral_feedback","0","test","6","","","","","","","",""
"","","","","","","","","","","","html-button-response","19","2.0.0","23448","65996217ff76317c84f8aa6e","1","44","341","","","","","","","","","<img src= ""rock_img/I_Peridotite_02.jpg"" style=""width:8cm; height:5.859999999999999cm;""><p>What type of rock is this?</p>","3","class_response","0","test","7","Gabbro","Peridotite","02","false","4","7","",""
"","","","","","","","","","","","html-keyboard-response","20","2.0.0","23957","65996217ff76317c84f8aa6e","1","44","null","","","","","","","","","<p style='font-size: 30px;'><strong>Okay</strong></p>","null","neutral_feedback","0","test","7","","","","","","","",""
"","","","","","","","","","","","html-button-response","21","2.0.0","24141","65996217ff76317c84f8aa6e","1","44","182","","","","","","","","","<img src= ""rock_img/I_Gabbro_09.jpg"" style=""width:8cm; height:7.279999999999999cm;""><p>What type of rock is this?</p>","7","class_response","0","test","8","Pumice","Gabbro","09","false","8","4","",""
"","","","","","","","","","","","html-keyboard-response","22","2.0.0","24650","65996217ff76317c84f8aa6e","1","44","null","","","","","","","","","<p style='font-size: 30px;'><strong>Okay</strong></p>","null","neutral_feedback","0","test","8","","","","","","","",""
"","","","","","","","","","","","html-button-response","23","2.0.0","24906","65996217ff76317c84f8aa6e","1","44","253","","","","","","","","","<img src= ""rock_img/I_Gabbro_16.jpg"" style=""width:8cm; height:6.44cm;""><p>What type of rock is this?</p>","2","class_response","0","test","9","Diorite","Gabbro","16","false","3","4","",""
"","","","","","","","","","","","html-keyboard-response","24","2.0.0","25419","65996217ff76317c84f8aa6e","1","44","null","","","","","","","","","<p style='font-size: 30px;'><strong>Okay</strong></p>","null","neutral_feedback","0","test","9","","","","","","","",""
"","","","","","","","","","","","html-button-response","25","2.0.0","25643","65996217ff76317c84f8aa6e","1","44","218","","","","","","","","","<img src= ""rock_img/I_Diorite_14.jpg"" style=""width:8cm; height:5.71cm;""><p>What type of rock is this?</p>","1","class_response","0","test","10","Basalt","Diorite","14","false","2","3","",""
"","","","","","","","","","","","html-keyboard-response","26","2.0.0","26166","65996217ff76317c84f8aa6e","1","44","null","","","","","","","","","<p style='font-size: 30px;'><strong>Okay</strong></p>","null","neutral_feedback","0","test","10","","","","","","","",""
"","","","","","","","","","","","html-button-response","27","2.0.0","26468","65996217ff76317c84f8aa6e","1","44","297","","","","","","","","","<img src= ""rock_img/I_Obsidian_07.jpg"" style=""width:8cm; height:4.76cm;""><p>What type of rock is this?</p>","4","class_response","0","test","11","Obsidian","Obsidian","07","true","5","5","",""
"","","","","","","","","","","","html-keyboard-response","28","2.0.0","26981","65996217ff76317c84f8aa6e","1","44","null","","","","","","","","","<p style='font-size: 30px;'><strong>Okay</strong></p>","null","neutral_feedback","0","test","11","","","","","","","",""
"","","","","","","","","","","","html-button-response","29","2.0.0","28461","65996217ff76317c84f8aa6e","1","44","1475","","","","","","","","","<img src= ""rock_img/I_Obsidian_16.jpg"" style=""width:8cm; height:9.3cm;""><p>What type of rock is this?</p>","6","class_response","0","test","12","Peridotite","Obsidian","16","false","7","5","",""
"","","","","","","","","","","","html-keyboard-response","30","2.0.0","28976","65996217ff76317c84f8aa6e","1","44","null","","","","","","","","","<p style='font-size: 30px;'><strong>Okay</strong></p>","null","neutral_feedback","0","test","12","","","","","","","",""
"","","","","","","","","","","","html-button-response","31","2.0.0","29481","65996217ff76317c84f8aa6e","1","44","501","","","","","","","","","<img src= ""rock_img/I_Obsidian_05.jpg"" style=""width:8cm; height:6.33cm;""><p>What type of rock is this?</p>","0","class_response","0","test","13","Andesite","Obsidian","05","false","1","5","",""
"","","","","","","","","","","","html-keyboard-response","32","2.0.0","29988","65996217ff76317c84f8aa6e","1","44","null","","","","","","","","","<p style='font-size: 30px;'><strong>Okay</strong></p>","null","neutral_feedback","0","test","13","","","","","","","",""
"","","","","","","","","","","","html-button-response","33","2.0.0","30411","65996217ff76317c84f8aa6e","1","44","421","","","","","","","","","<img src= ""rock_img/I_Pegmatite_07.jpg"" style=""width:8cm; height:6.7cm;""><p>What type of rock is this?</p>","5","class_response","0","test","14","Pegmatite","Pegmatite","07","true","6","6","",""
"","","","","","","","","","","","html-keyboard-response","34","2.0.0","30928","65996217ff76317c84f8aa6e","1","44","null","","","","","","","","","<p style='font-size: 30px;'><strong>Okay</strong></p>","null","neutral_feedback","0","test","14","","","","","","","",""
"","","","","","","","","","","","html-button-response","35","2.0.0","31327","65996217ff76317c84f8aa6e","1","44","395","","","","","","","","","<img src= ""rock_img/I_Basalt_12.jpg"" style=""width:8cm; height:6.010000000000001cm;""><p>What type of rock is this?</p>","3","class_response","0","test","15","Gabbro","Basalt","12","false","4","2","",""
"","","","","","","","","","","","html-keyboard-response","36","2.0.0","31846","65996217ff76317c84f8aa6e","1","44","null","","","","","","","","","<p style='font-size: 30px;'><strong>Okay</strong></p>","null","neutral_feedback","0","test","15","","","","","","","",""
"","","","","","","","","","","","html-button-response","37","2.0.0","32081","65996217ff76317c84f8aa6e","1","44","232","","","","","","","","","<img src= ""rock_img/I_Andesite_16.jpg"" style=""width:8cm; height:6.010000000000001cm;""><p>What type of rock is this?</p>","7","class_response","0","test","16","Pumice","Andesite","16","false","8","1","",""
"","","","","","","","","","","","html-keyboard-response","38","2.0.0","32597","65996217ff76317c84f8aa6e","1","44","null","","","","","","","","","<p style='font-size: 30px;'><strong>Okay</strong></p>","null","neutral_feedback","0","test","16","","","","","","","",""
"","","","","","","","","","","","html-button-response","39","2.0.0","33406","65996217ff76317c84f8aa6e","1","44","803","","","","","","","","","<img src= ""rock_img/I_Pegmatite_10.jpg"" style=""width:8cm; height:4.16cm;""><p>What type of rock is this?</p>","6","class_response","0","test","17","Peridotite","Pegmatite","10","false","7","6","",""
"","","","","","","","","","","","html-keyboard-response","40","2.0.0","33921","65996217ff76317c84f8aa6e","1","44","null","","","","","","","","","<p style='font-size: 30px;'><strong>Okay</strong></p>","null","neutral_feedback","0","test","17","","","","","","","",""
"","","","","","","","","","","","html-button-response","41","2.0.0","34239","65996217ff76317c84f8aa6e","1","44","314","","","","","","","","","<img src= ""rock_img/I_Andesite_11.jpg"" style=""width:8cm; height:4.92cm;""><p>What type of rock is this?</p>","1","class_response","0","test","18","Basalt","Andesite","11","false","2","1","",""
"","","","","","","","","","","","html-keyboard-response","42","2.0.0","34753","65996217ff76317c84f8aa6e","1","44","null","","","","","","","","","<p style='font-size: 30px;'><strong>Okay</strong></p>","null","neutral_feedback","0","test","18","","","","","","","",""
"","","","","","","","","","","","html-button-response","43","2.0.0","35137","65996217ff76317c84f8aa6e","1","44","380","","","","","","","","","<img src= ""rock_img/I_Peridotite_07.jpg"" style=""width:8cm; height:4.83cm;""><p>What type of rock is this?</p>","4","class_response","0","test","19","Obsidian","Peridotite","07","false","5","7","",""
"","","","","","","","","","","","html-keyboard-response","44","2.0.0","35655","65996217ff76317c84f8aa6e","1","44","null","","","","","","","","","<p style='font-size: 30px;'><strong>Okay</strong></p>","null","neutral_feedback","0","test","19","","","","","","","",""
"","","","","","","","","","","","html-button-response","45","2.0.0","36034","65996217ff76317c84f8aa6e","1","44","376","","","","","","","","","<img src= ""rock_img/I_Gabbro_12.jpg"" style=""width:8cm; height:7.800000000000001cm;""><p>What type of rock is this?</p>","6","class_response","0","test","20","Peridotite","Gabbro","12","false","7","4","",""
"","","","","","","","","","","","html-keyboard-response","46","2.0.0","36543","65996217ff76317c84f8aa6e","1","44","null","","","","","","","","","<p style='font-size: 30px;'><strong>Okay</strong></p>","null","neutral_feedback","0","test","20","","","","","","","",""
"","","","","","","","","","","","html-button-response","47","2.0.0","36995","65996217ff76317c84f8aa6e","1","44","448","","","","","","","","","<img src= ""rock_img/I_Pumice_15.jpg"" style=""width:8cm; height:7.86cm;""><p>What type of rock is this?</p>","1","class_response","0","test","21","Basalt","Pumice","15","false","2","8","",""
"","","","","","","","","","","","html-keyboard-response","48","2.0.0","37502","65996217ff76317c84f8aa6e","1","44","null","","","","","","","","","<p style='font-size: 30px;'><strong>Okay</strong></p>","null","neutral_feedback","0","test","21","","","","","","","",""
"","","","","","","","","","","","html-button-response","49","2.0.0","37922","65996217ff76317c84f8aa6e","1","44","414","","","","","","","","","<img src= ""rock_img/I_Gabbro_14.jpg"" style=""width:8cm; height:8.48cm;""><p>What type of rock is this?</p>","0","class_response","0","test","22","Andesite","Gabbro","14","false","1","4","",""
"","","","","","","","","","","","html-keyboard-response","50","2.0.0","38442","65996217ff76317c84f8aa6e","1","44","null","","","","","","","","","<p style='font-size: 30px;'><strong>Okay</strong></p>","null","neutral_feedback","0","test","22","","","","","","","",""
"","","","","","","","","","","","html-button-response","51","2.0.0","38838","65996217ff76317c84f8aa6e","1","44","392","","","","","","","","","<img src= ""rock_img/I_Obsidian_14.jpg"" style=""width:8cm; height:7.64cm;""><p>What type of rock is this?</p>","5","class_response","0","test","23","Pegmatite","Obsidian","14","false","6","5","",""
"","","","","","","","","","","","html-keyboard-response","52","2.0.0","39358","65996217ff76317c84f8aa6e","1","44","null","","","","","","","","","<p style='font-size: 30px;'><strong>Okay</strong></p>","null","neutral_feedback","0","test","23","","","","","","","",""
"","","","","","","","","","","","html-button-response","53","2.0.0","39821","65996217ff76317c84f8aa6e","1","44","460","","","","","","","","","<img src= ""rock_img/I_Andesite_03.jpg"" style=""width:8cm; height:5.73cm;""><p>What type of rock is this?</p>","3","class_response","0","test","24","Gabbro","Andesite","03","false","4","1","",""
"","","","","","","","","","","","html-keyboard-response","54","2.0.0","40336","65996217ff76317c84f8aa6e","1","44","null","","","","","","","","","<p style='font-size: 30px;'><strong>Okay</strong></p>","null","neutral_feedback","0","test","24","","","","","","","",""
"","","","","","","","","","","","html-button-response","55","2.0.0","40777","65996217ff76317c84f8aa6e","1","44","438","","","","","","","","","<img src= ""rock_img/I_Pegmatite_03.jpg"" style=""width:8cm; height:5.239999999999999cm;""><p>What type of rock is this?</p>","6","class_response","0","test","25","Peridotite","Pegmatite","03","false","7","6","",""
"","","","","","","","","","","","html-keyboard-response","56","2.0.0","41283","65996217ff76317c84f8aa6e","1","44","null","","","","","","","","","<p style='font-size: 30px;'><strong>Okay</strong></p>","null","neutral_feedback","0","test","25","","","","","","","",""
"","","","","","","","","","","","html-button-response","57","2.0.0","41516","65996217ff76317c84f8aa6e","1","44","230","","","","","","","","","<img src= ""rock_img/I_Basalt_10.jpg"" style=""width:8cm; height:5.85cm;""><p>What type of rock is this?</p>","7","class_response","0","test","26","Pumice","Basalt","10","false","8","2","",""
"","","","","","","","","","","","html-keyboard-response","58","2.0.0","42020","65996217ff76317c84f8aa6e","1","44","null","","","","","","","","","<p style='font-size: 30px;'><strong>Okay</strong></p>","null","neutral_feedback","0","test","26","","","","","","","",""
"","","","","","","","","","","","html-button-response","59","2.0.0","42452","65996217ff76317c84f8aa6e","1","44","428","","","","","","","","","<img src= ""rock_img/I_Gabbro_05.jpg"" style=""width:8cm; height:6cm;""><p>What type of rock is this?</p>","1","class_response","0","test","27","Basalt","Gabbro","05","false","2","4","",""
"","","","","","","","","","","","html-keyboard-response","60","2.0.0","42970","65996217ff76317c84f8aa6e","1","44","null","","","","","","","","","<p style='font-size: 30px;'><strong>Okay</strong></p>","null","neutral_feedback","0","test","27","","","","","","","",""
"","","","","","","","","","","","html-button-response","61","2.0.0","43350","65996217ff76317c84f8aa6e","1","44","375","","","","","","","","","<img src= ""rock_img/I_Pegmatite_12.jpg"" style=""width:8cm; height:5.7cm;""><p>What type of rock is this?</p>","2","class_response","0","test","28","Diorite","Pegmatite","12","false","3","6","",""
"","","","","","","","","","","","html-keyboard-response","62","2.0.0","43854","65996217ff76317c84f8aa6e","1","44","null","","","","","","","","","<p style='font-size: 30px;'><strong>Okay</strong></p>","null","neutral_feedback","0","test","28","","","","","","","",""
"","","","","","","","","","","","html-button-response","63","2.0.0","44206","65996217ff76317c84f8aa6e","1","44","349","","","","","","","","","<img src= ""rock_img/I_Peridotite_15.jpg"" style=""width:8cm; height:6cm;""><p>What type of rock is this?</p>","4","class_response","0","test","29","Obsidian","Peridotite","15","false","5","7","",""
"","","","","","","","","","","","html-keyboard-response","64","2.0.0","44721","65996217ff76317c84f8aa6e","1","44","null","","","","","","","","","<p style='font-size: 30px;'><strong>Okay</strong></p>","null","neutral_feedback","0","test","29","","","","","","","",""
"","","","","","","","","","","","html-button-response","65","2.0.0","45125","65996217ff76317c84f8aa6e","1","44","401","","","","","","","","","<img src= ""rock_img/I_Diorite_06.jpg"" style=""width:8cm; height:6.03cm;""><p>What type of rock is this?</p>","5","class_response","0","test","30","Pegmatite","Diorite","06","false","6","3","",""
"","","","","","","","","","","","html-keyboard-response","66","2.0.0","45635","65996217ff76317c84f8aa6e","1","44","null","","","","","","","","","<p style='font-size: 30px;'><strong>Okay</strong></p>","null","neutral_feedback","0","test","30","","","","","","","",""
"","","","","","","","","","","","html-button-response","67","2.0.0","45870","65996217ff76317c84f8aa6e","1","44","232","","","","","","","","","<img src= ""rock_img/I_Peridotite_16.jpg"" style=""width:8cm; height:6.989999999999999cm;""><p>What type of rock is this?</p>","6","class_response","0","test","31","Peridotite","Peridotite","16","true","7","7","",""
"","","","","","","","","","","","html-keyboard-response","68","2.0.0","46381","65996217ff76317c84f8aa6e","1","44","null","","","","","","","","","<p style='font-size: 30px;'><strong>Okay</strong></p>","null","neutral_feedback","0","test","31","","","","","","","",""
"","","","","","","","","","","","html-button-response","69","2.0.0","46630","65996217ff76317c84f8aa6e","1","44","244","","","","","","","","","<img src= ""rock_img/I_Peridotite_14.jpg"" style=""width:8cm; height:5.3cm;""><p>What type of rock is this?</p>","7","class_response","0","test","32","Pumice","Peridotite","14","false","8","7","",""
"","","","","","","","","","","","html-keyboard-response","70","2.0.0","47138","65996217ff76317c84f8aa6e","1","44","null","","","","","","","","","<p style='font-size: 30px;'><strong>Okay</strong></p>","null","neutral_feedback","0","test","32","","","","","","","",""
"","","","","","","","","","","","html-button-response","71","2.0.0","47462","65996217ff76317c84f8aa6e","1","44","317","","","","","","","","","<img src= ""rock_img/I_Diorite_16.jpg"" style=""width:8cm; height:6.74cm;""><p>What type of rock is this?</p>","2","class_response","0","test","33","Diorite","Diorite","16","true","3","3","",""
"","","","","","","","","","","","html-keyboard-response","72","2.0.0","47971","65996217ff76317c84f8aa6e","1","44","null","","","","","","","","","<p style='font-size: 30px;'><strong>Okay</strong></p>","null","neutral_feedback","0","test","33","","","","","","","",""
"","","","","","","","","","","","html-button-response","73","2.0.0","48275","65996217ff76317c84f8aa6e","1","44","300","","","","","","","","","<img src= ""rock_img/I_Andesite_04.jpg"" style=""width:8cm; height:5.96cm;""><p>What type of rock is this?</p>","0","class_response","0","test","34","Andesite","Andesite","04","true","1","1","",""
"","","","","","","","","","","","html-keyboard-response","74","2.0.0","48781","65996217ff76317c84f8aa6e","1","44","null","","","","","","","","","<p style='font-size: 30px;'><strong>Okay</strong></p>","null","neutral_feedback","0","test","34","","","","","","","",""
"","","","","","","","","","","","html-button-response","75","2.0.0","49215","65996217ff76317c84f8aa6e","1","44","430","","","","","","","","","<img src= ""rock_img/I_Pumice_08.jpg"" style=""width:8cm; height:6.67cm;""><p>What type of rock is this?</p>","0","class_response","0","test","35","Andesite","Pumice","08","false","1","8","",""
"","","","","","","","","","","","html-keyboard-response","76","2.0.0","49725","65996217ff76317c84f8aa6e","1","44","null","","","","","","","","","<p style='font-size: 30px;'><strong>Okay</strong></p>","null","neutral_feedback","0","test","35","","","","","","","",""
"","","","","","","","","","","","html-button-response","77","2.0.0","50119","65996217ff76317c84f8aa6e","1","44","391","","","","","","","","","<img src= ""rock_img/I_Pumice_10.jpg"" style=""width:8cm; height:7.609999999999999cm;""><p>What type of rock is this?</p>","1","class_response","0","test","36","Basalt","Pumice","10","false","2","8","",""
"","","","","","","","","","","","html-keyboard-response","78","2.0.0","50634","65996217ff76317c84f8aa6e","1","44","null","","","","","","","","","<p style='font-size: 30px;'><strong>Okay</strong></p>","null","neutral_feedback","0","test","36","","","","","","","",""
"","","","","","","","","","","","html-button-response","79","2.0.0","50849","65996217ff76317c84f8aa6e","1","44","212","","","","","","","","","<img src= ""rock_img/I_Pumice_14.jpg"" style=""width:8cm; height:6.39cm;""><p>What type of rock is this?</p>","4","class_response","0","test","37","Obsidian","Pumice","14","false","5","8","",""
"","","","","","","","","","","","html-keyboard-response","80","2.0.0","51383","65996217ff76317c84f8aa6e","1","44","null","","","","","","","","","<p style='font-size: 30px;'><strong>Okay</strong></p>","null","neutral_feedback","0","test","37","","","","","","","",""
"","","","","","","","","","","","html-button-response","81","2.0.0","51876","65996217ff76317c84f8aa6e","1","44","490","","","","","","","","","<img src= ""rock_img/I_Pumice_04.jpg"" style=""width:8cm; height:6.819999999999999cm;""><p>What type of rock is this?</p>","6","class_response","0","test","38","Peridotite","Pumice","04","false","7","8","",""
"","","","","","","","","","","","html-keyboard-response","82","2.0.0","52400","65996217ff76317c84f8aa6e","1","44","null","","","","","","","","","<p style='font-size: 30px;'><strong>Okay</strong></p>","null","neutral_feedback","0","test","38","","","","","","","",""
"","","","","","","","","","","","html-button-response","83","2.0.0","52634","65996217ff76317c84f8aa6e","1","44","229","","","","","","","","","<img src= ""rock_img/I_Basalt_02.jpg"" style=""width:8cm; height:6.45cm;""><p>What type of rock is this?</p>","7","class_response","0","test","39","Pumice","Basalt","02","false","8","2","",""
"","","","","","","","","","","","html-keyboard-response","84","2.0.0","53148","65996217ff76317c84f8aa6e","1","44","null","","","","","","","","","<p style='font-size: 30px;'><strong>Okay</strong></p>","null","neutral_feedback","0","test","39","","","","","","","",""
"","","","","","","","","","","","html-button-response","85","2.0.0","53316","65996217ff76317c84f8aa6e","1","44","160","","","","","","","","","<img src= ""rock_img/I_Basalt_14.jpg"" style=""width:8cm; height:5.82cm;""><p>What type of rock is this?</p>","5","class_response","0","test","40","Pegmatite","Basalt","14","false","6","2","",""
"","","","","","","","","","","","html-keyboard-response","86","2.0.0","53833","65996217ff76317c84f8aa6e","1","44","null","","","","","","","","","<p style='font-size: 30px;'><strong>Okay</strong></p>","null","neutral_feedback","0","test","40","","","","","","","",""
"","","","","","","","","","","","html-button-response","87","2.0.0","53940","65996217ff76317c84f8aa6e","1","44","104","","","","","","","","","<img src= ""rock_img/I_Andesite_07.jpg"" style=""width:8cm; height:5.93cm;""><p>What type of rock is this?</p>","4","class_response","0","test","41","Obsidian","Andesite","07","false","5","1","",""
"","","","","","","","","","","","html-keyboard-response","88","2.0.0","54457","65996217ff76317c84f8aa6e","1","44","null","","","","","","","","","<p style='font-size: 30px;'><strong>Okay</strong></p>","null","neutral_feedback","0","test","41","","","","","","","",""
"","","","","","","","","","","","html-button-response","89","2.0.0","54579","65996217ff76317c84f8aa6e","1","44","118","","","","","","","","","<img src= ""rock_img/I_Peridotite_13.jpg"" style=""width:8cm; height:7.58cm;""><p>What type of rock is this?</p>","1","class_response","0","test","42","Basalt","Peridotite","13","false","2","7","",""
"","","","","","","","","","","","html-keyboard-response","90","2.0.0","55096","65996217ff76317c84f8aa6e","1","44","null","","","","","","","","","<p style='font-size: 30px;'><strong>Okay</strong></p>","null","neutral_feedback","0","test","42","","","","","","","",""
"","","","","","","","","","","","html-button-response","91","2.0.0","55185","65996217ff76317c84f8aa6e","1","44","86","","","","","","","","","<img src= ""rock_img/I_Gabbro_13.jpg"" style=""width:8cm; height:5.08cm;""><p>What type of rock is this?</p>","6","class_response","0","test","43","Peridotite","Gabbro","13","false","7","4","",""
"","","","","","","","","","","","html-keyboard-response","92","2.0.0","55726","65996217ff76317c84f8aa6e","1","44","null","","","","","","","","","<p style='font-size: 30px;'><strong>Okay</strong></p>","null","neutral_feedback","0","test","43","","","","","","","",""
"","","","","","","","","","","","html-button-response","93","2.0.0","55759","65996217ff76317c84f8aa6e","1","44","29","","","","","","","","","<img src= ""rock_img/I_Pumice_13.jpg"" style=""width:8cm; height:8.200000000000001cm;""><p>What type of rock is this?</p>","3","class_response","0","test","44","Gabbro","Pumice","13","false","4","8","",""
"","","","","","","","","","","","html-keyboard-response","94","2.0.0","56310","65996217ff76317c84f8aa6e","1","44","null","","","","","","","","","<p style='font-size: 30px;'><strong>Okay</strong></p>","null","neutral_feedback","0","test","44","","","","","","","",""
"","","","","","","","","","","","html-button-response","95","2.0.0","56324","65996217ff76317c84f8aa6e","1","44","8","","","","","","","","","<img src= ""rock_img/I_Diorite_15.jpg"" style=""width:8cm; height:5.54cm;""><p>What type of rock is this?</p>","6","class_response","0","test","45","Peridotite","Diorite","15","false","7","3","",""
"","","","","","","","","","","","html-keyboard-response","96","2.0.0","56839","65996217ff76317c84f8aa6e","1","44","null","","","","","","","","","<p style='font-size: 30px;'><strong>Okay</strong></p>","null","neutral_feedback","0","test","45","","","","","","","",""
"","","","","","","","","","","","html-button-response","97","2.0.0","57313","65996217ff76317c84f8aa6e","1","44","470","","","","","","","","","<img src= ""rock_img/I_Obsidian_04.jpg"" style=""width:8cm; height:6.930000000000001cm;""><p>What type of rock is this?</p>","6","class_response","0","test","46","Peridotite","Obsidian","04","false","7","5","",""
"","","","","","","","","","","","html-keyboard-response","98","2.0.0","57832","65996217ff76317c84f8aa6e","1","44","null","","","","","","","","","<p style='font-size: 30px;'><strong>Okay</strong></p>","null","neutral_feedback","0","test","46","","","","","","","",""
"","","","","","","","","","","","html-button-response","99","2.0.0","57992","65996217ff76317c84f8aa6e","1","44","157","","","","","","","","","<img src= ""rock_img/I_Basalt_09.jpg"" style=""width:8cm; height:6.2cm;""><p>What type of rock is this?</p>","5","class_response","0","test","47","Pegmatite","Basalt","09","false","6","2","",""
"","","","","","","","","","","","html-keyboard-response","100","2.0.0","58500","65996217ff76317c84f8aa6e","1","44","null","","","","","","","","","<p style='font-size: 30px;'><strong>Okay</strong></p>","null","neutral_feedback","0","test","47","","","","","","","",""
"","","","","","","","","","","","html-button-response","101","2.0.0","58782","65996217ff76317c84f8aa6e","1","44","279","","","","","","","","","<img src= ""rock_img/I_Pegmatite_08.jpg"" style=""width:8cm; height:7.68cm;""><p>What type of rock is this?</p>","4","class_response","0","test","48","Obsidian","Pegmatite","08","false","5","6","",""
"","","","","","","","","","","","html-keyboard-response","102","2.0.0","59294","65996217ff76317c84f8aa6e","1","44","null","","","","","","","","","<p style='font-size: 30px;'><strong>Okay</strong></p>","null","neutral_feedback","0","test","48","","","","","","","",""
"","","","","","","","","","","","instructions","103","2.0.0","63897","65996217ff76317c84f8aa6e","1","44","4565","","","","","","","","[{""page_index"":0,""viewing_time"":2976},{""page_index"":1,""viewing_time"":874},{""page_index"":2,""viewing_time"":715}]","","","","","","","","","","","","","",""
"","","","","","","","","","","","html-button-response","104","2.0.0","64758","65996217ff76317c84f8aa6e","1","44","858","","","","","","","","","","0","start_train","","","","","","","","","","",""
"","","","","","","","","","","","html-button-response","105","2.0.0","65857","65996217ff76317c84f8aa6e","1","44","1094","","","","","","","","","<img src= ""rock_img/I_Peridotite_04.jpg"" style=""width:8cm; height:6.680000000000001cm;""><p>What type of rock is this?</p>","2","class_response","1","train","1","Diorite","Peridotite","04","false","3","7","",""
"","","","","","","","","","","","html-button-response","106","2.0.0","67360","65996217ff76317c84f8aa6e","1","44","1500","","","","","","","","","<img src= rock_img/I_Peridotite_04.jpg style=""width:8cm; height:6.680000000000001cm;""><p style='font-size: 30px; color: red;'><strong>Incorrect!</strong></p><p style='font-size: 30px;'><strong>This rock is peridotite</strong></p>","0","corr_feedback","1","train","1","","","","","","","",""
"","","","","","","","","","","","html-button-response","107","2.0.0","67906","65996217ff76317c84f8aa6e","1","44","544","","","","","","","","","<img src= ""rock_img/I_Obsidian_08.jpg"" style=""width:8cm; height:7.39cm;""><p>What type of rock is this?</p>","1","class_response","1","train","2","Basalt","Obsidian","08","false","2","5","",""
"","","","","","","","","","","","html-button-response","108","2.0.0","68573","65996217ff76317c84f8aa6e","1","44","666","","","","","","","","","<img src= rock_img/I_Obsidian_08.jpg style=""width:8cm; height:7.39cm;""><p style='font-size: 30px; color: red;'><strong>Incorrect!</strong></p><p style='font-size: 30px;'><strong>This rock is obsidian</strong></p>","0","corr_feedback","1","train","2","","","","","","","",""
"","","","","","","","","","","","html-button-response","109","2.0.0","70325","65996217ff76317c84f8aa6e","1","44","1750","","","","","","","","","<img src= ""rock_img/I_Andesite_14.jpg"" style=""width:8cm; height:5.449999999999999cm;""><p>What type of rock is this?</p>","6","class_response","1","train","3","Peridotite","Andesite","14","false","7","1","",""
"","","","","","","","","","","","html-button-response","110","2.0.0","71208","65996217ff76317c84f8aa6e","1","44","881","","","","","","","","","<img src= rock_img/I_Andesite_14.jpg style=""width:8cm; height:5.449999999999999cm;""><p style='font-size: 30px; color: red;'><strong>Incorrect!</strong></p><p style='font-size: 30px;'><strong>This rock is andesite</strong></p>","0","corr_feedback","1","train","3","","","","","","","",""
"","","","","","","","","","","","html-button-response","111","2.0.0","71778","65996217ff76317c84f8aa6e","1","44","568","","","","","","","","","<img src= ""rock_img/I_Gabbro_11.jpg"" style=""width:8cm; height:6.2cm;""><p>What type of rock is this?</p>","0","class_response","1","train","4","Andesite","Gabbro","11","false","1","4","",""
"","","","","","","","","","","","html-button-response","112","2.0.0","72487","65996217ff76317c84f8aa6e","1","44","706","","","","","","","","","<img src= rock_img/I_Gabbro_11.jpg style=""width:8cm; height:6.2cm;""><p style='font-size: 30px; color: red;'><strong>Incorrect!</strong></p><p style='font-size: 30px;'><strong>This rock is gabbro</strong></p>","0","corr_feedback","1","train","4","","","","","","","",""
"","","","","","","","","","","","html-button-response","113","2.0.0","73063","65996217ff76317c84f8aa6e","1","44","573","","","","","","","","","<img src= ""rock_img/I_Basalt_01.jpg"" style=""width:8cm; height:7.880000000000001cm;""><p>What type of rock is this?</p>","3","class_response","1","train","5","Gabbro","Basalt","01","false","4","2","",""
"","","","","","","","","","","","html-button-response","114","2.0.0","73661","65996217ff76317c84f8aa6e","1","44","597","","","","","","","","","<img src= rock_img/I_Basalt_01.jpg style=""width:8cm; height:7.880000000000001cm;""><p style='font-size: 30px; color: red;'><strong>Incorrect!</strong></p><p style='font-size: 30px;'><strong>This rock is basalt</strong></p>","0","corr_feedback","1","train","5","","","","","","","",""
"","","","","","","","","","","","html-button-response","115","2.0.0","74172","65996217ff76317c84f8aa6e","1","44","509","","","","","","","","","<img src= ""rock_img/I_Diorite_11.jpg"" style=""width:8cm; height:7.11cm;""><p>What type of rock is this?</p>","4","class_response","1","train","6","Obsidian","Diorite","11","false","5","3","",""
"","","","","","","","","","","","html-button-response","116","2.0.0","74793","65996217ff76317c84f8aa6e","1","44","618","","","","","","","","","<img src= rock_img/I_Diorite_11.jpg style=""width:8cm; height:7.11cm;""><p style='font-size: 30px; color: red;'><strong>Incorrect!</strong></p><p style='font-size: 30px;'><strong>This rock is diorite</strong></p>","0","corr_feedback","1","train","6","","","","","","","",""
"","","","","","","","","","","","html-button-response","117","2.0.0","75346","65996217ff76317c84f8aa6e","1","44","549","","","","","","","","","<img src= ""rock_img/I_Diorite_07.jpg"" style=""width:8cm; height:5.239999999999999cm;""><p>What type of rock is this?</p>","6","class_response","1","train","7","Peridotite","Diorite","07","false","7","3","",""
"","","","","","","","","","","","html-button-response","118","2.0.0","76304","65996217ff76317c84f8aa6e","1","44","957","","","","","","","","","<img src= rock_img/I_Diorite_07.jpg style=""width:8cm; height:5.239999999999999cm;""><p style='font-size: 30px; color: red;'><strong>Incorrect!</strong></p><p style='font-size: 30px;'><strong>This rock is diorite</strong></p>","0","corr_feedback","1","train","7","","","","","","","",""
"","","","","","","","","","","","html-button-response","119","2.0.0","76855","65996217ff76317c84f8aa6e","1","44","550","","","","","","","","","<img src= ""rock_img/I_Obsidian_12.jpg"" style=""width:8cm; height:6.53cm;""><p>What type of rock is this?</p>","1","class_response","1","train","8","Basalt","Obsidian","12","false","2","5","",""
"","","","","","","","","","","","html-button-response","120","2.0.0","77504","65996217ff76317c84f8aa6e","1","44","648","","","","","","","","","<img src= rock_img/I_Obsidian_12.jpg style=""width:8cm; height:6.53cm;""><p style='font-size: 30px; color: red;'><strong>Incorrect!</strong></p><p style='font-size: 30px;'><strong>This rock is obsidian</strong></p>","0","corr_feedback","1","train","8","","","","","","","",""
"","","","","","","","","","","","html-button-response","121","2.0.0","78219","65996217ff76317c84f8aa6e","1","44","711","","","","","","","","","<img src= ""rock_img/I_Andesite_10.jpg"" style=""width:8cm; height:4.16cm;""><p>What type of rock is this?</p>","3","class_response","1","train","9","Gabbro","Andesite","10","false","4","1","",""
"","","","","","","","","","","","html-button-response","122","2.0.0","78785","65996217ff76317c84f8aa6e","1","44","564","","","","","","","","","<img src= rock_img/I_Andesite_10.jpg style=""width:8cm; height:4.16cm;""><p style='font-size: 30px; color: red;'><strong>Incorrect!</strong></p><p style='font-size: 30px;'><strong>This rock is andesite</strong></p>","0","corr_feedback","1","train","9","","","","","","","",""
"","","","","","","","","","","","html-button-response","123","2.0.0","79357","65996217ff76317c84f8aa6e","1","44","567","","","","","","","","","<img src= ""rock_img/I_Obsidian_02.jpg"" style=""width:8cm; height:7.51cm;""><p>What type of rock is this?</p>","7","class_response","1","train","10","Pumice","Obsidian","02","false","8","5","",""
"","","","","","","","","","","","html-button-response","124","2.0.0","79937","65996217ff76317c84f8aa6e","1","44","578","","","","","","","","","<img src= rock_img/I_Obsidian_02.jpg style=""width:8cm; height:7.51cm;""><p style='font-size: 30px; color: red;'><strong>Incorrect!</strong></p><p style='font-size: 30px;'><strong>This rock is obsidian</strong></p>","0","corr_feedback","1","train","10","","","","","","","",""
"","","","","","","","","","","","html-button-response","125","2.0.0","80800","65996217ff76317c84f8aa6e","1","44","861","","","","","","","","","<img src= ""rock_img/I_Peridotite_08.jpg"" style=""width:8cm; height:6.7cm;""><p>What type of rock is this?</p>","0","class_response","1","train","11","Andesite","Peridotite","08","false","1","7","",""
"","","","","","","","","","","","html-button-response","126","2.0.0","81406","65996217ff76317c84f8aa6e","1","44","605","","","","","","","","","<img src= rock_img/I_Peridotite_08.jpg style=""width:8cm; height:6.7cm;""><p style='font-size: 30px; color: red;'><strong>Incorrect!</strong></p><p style='font-size: 30px;'><strong>This rock is peridotite</strong></p>","0","corr_feedback","1","train","11","","","","","","","",""
"","","","","","","","","","","","html-button-response","127","2.0.0","82144","65996217ff76317c84f8aa6e","1","44","737","","","","","","","","","<img src= ""rock_img/I_Andesite_05.jpg"" style=""width:8cm; height:4.12cm;""><p>What type of rock is this?</p>","5","class_response","1","train","12","Pegmatite","Andesite","05","false","6","1","",""
"","","","","","","","","","","","html-button-response","128","2.0.0","83081","65996217ff76317c84f8aa6e","1","44","936","","","","","","","","","<img src= rock_img/I_Andesite_05.jpg style=""width:8cm; height:4.12cm;""><p style='font-size: 30px; color: red;'><strong>Incorrect!</strong></p><p style='font-size: 30px;'><strong>This rock is andesite</strong></p>","0","corr_feedback","1","train","12","","","","","","","",""
"","","","","","","","","","","","html-button-response","129","2.0.0","83724","65996217ff76317c84f8aa6e","1","44","641","","","","","","","","","<img src= ""rock_img/I_Andesite_01.jpg"" style=""width:8cm; height:5.87cm;""><p>What type of rock is this?</p>","4","class_response","1","train","13","Obsidian","Andesite","01","false","5","1","",""
"","","","","","","","","","","","html-button-response","130","2.0.0","84319","65996217ff76317c84f8aa6e","1","44","594","","","","","","","","","<img src= rock_img/I_Andesite_01.jpg style=""width:8cm; height:5.87cm;""><p style='font-size: 30px; color: red;'><strong>Incorrect!</strong></p><p style='font-size: 30px;'><strong>This rock is andesite</strong></p>","0","corr_feedback","1","train","13","","","","","","","",""
"","","","","","","","","","","","html-button-response","131","2.0.0","84882","65996217ff76317c84f8aa6e","1","44","562","","","","","","","","","<img src= ""rock_img/I_Peridotite_10.jpg"" style=""width:8cm; height:5.390000000000001cm;""><p>What type of rock is this?</p>","2","class_response","1","train","14","Diorite","Peridotite","10","false","3","7","",""
"","","","","","","","","","","","html-button-response","132","2.0.0","85739","65996217ff76317c84f8aa6e","1","44","855","","","","","","","","","<img src= rock_img/I_Peridotite_10.jpg style=""width:8cm; height:5.390000000000001cm;""><p style='font-size: 30px; color: red;'><strong>Incorrect!</strong></p><p style='font-size: 30px;'><strong>This rock is peridotite</strong></p>","0","corr_feedback","1","train","14","","","","","","","",""
"","","","","","","","","","","","html-button-response","133","2.0.0","86726","65996217ff76317c84f8aa6e","1","44","983","","","","","","","","","<img src= ""rock_img/I_Basalt_06.jpg"" style=""width:8cm; height:7.06cm;""><p>What type of rock is this?</p>","1","class_response","1","train","15","Basalt","Basalt","06","true","2","2","",""
"","","","","","","","","","","","html-button-response","134","2.0.0","87424","65996217ff76317c84f8aa6e","1","44","695","","","","","","","","","<img src= rock_img/I_Basalt_06.jpg style=""width:8cm; height:7.06cm;""><p style='font-size: 30px; color: green;'><strong>Correct!</strong></p><p style='font-size: 30px;'><strong>This rock is basalt</strong></p>","0","corr_feedback","1","train","15","","","","","","","",""
"","","","","","","","","","","","html-button-response","135","2.0.0","89175","65996217ff76317c84f8aa6e","1","44","1749","","","","","","","","","<img src= ""rock_img/I_Gabbro_15.jpg"" style=""width:8cm; height:6.29cm;""><p>What type of rock is this?</p>","5","class_response","1","train","16","Pegmatite","Gabbro","15","false","6","4","",""
"","","","","","","","","","","","html-button-response","136","2.0.0","89818","65996217ff76317c84f8aa6e","1","44","641","","","","","","","","","<img src= rock_img/I_Gabbro_15.jpg style=""width:8cm; height:6.29cm;""><p style='font-size: 30px; color: red;'><strong>Incorrect!</strong></p><p style='font-size: 30px;'><strong>This rock is gabbro</strong></p>","0","corr_feedback","1","train","16","","","","","","","",""
"","","","","","","","","","","","html-button-response","137","2.0.0","90678","65996217ff76317c84f8aa6e","1","44","859","","","","","","","","","<img src= ""rock_img/I_Pegmatite_05.jpg"" style=""width:8cm; height:7.300000000000001cm;""><p>What type of rock is this?</p>","4","class_response","1","train","17","Obsidian","Pegmatite","05","false","5","6","",""
"","","","","","","","","","","","html-button-response","138","2.0.0","91338","65996217ff76317c84f8aa6e","1","44","659","","","","","","","","","<img src= rock_img/I_Pegmatite_05.jpg style=""width:8cm; height:7.300000000000001cm;""><p style='font-size: 30px; color: red;'><strong>Incorrect!</strong></p><p style='font-size: 30px;'><strong>This rock is pegmatite</strong></p>","0","corr_feedback","1","train","17","","","","","","","",""
"","","","","","","","","","","","html-button-response","139","2.0.0","92621","65996217ff76317c84f8aa6e","1","44","1282","","","","","","","","","<img src= ""rock_img/I_Pegmatite_09.jpg"" style=""width:8cm; height:4.03cm;""><p>What type of rock is this?</p>","4","class_response","1","train","18","Obsidian","Pegmatite","09","false","5","6","",""
"","","","","","","","","","","","html-button-response","140","2.0.0","93197","65996217ff76317c84f8aa6e","1","44","574","","","","","","","","","<img src= rock_img/I_Pegmatite_09.jpg style=""width:8cm; height:4.03cm;""><p style='font-size: 30px; color: red;'><strong>Incorrect!</strong></p><p style='font-size: 30px;'><strong>This rock is pegmatite</strong></p>","0","corr_feedback","1","train","18","","","","","","","",""
"","","","","","","","","","","","html-button-response","141","2.0.0","93843","65996217ff76317c84f8aa6e","1","44","644","","","","","","","","","<img src= ""rock_img/I_Gabbro_10.jpg"" style=""width:8cm; height:5.680000000000001cm;""><p>What type of rock is this?</p>","3","class_response","1","train","19","Gabbro","Gabbro","10","true","4","4","",""
"","","","","","","","","","","","html-button-response","142","2.0.0","94304","65996217ff76317c84f8aa6e","1","44","458","","","","","","","","","<img src= rock_img/I_Gabbro_10.jpg style=""width:8cm; height:5.680000000000001cm;""><p style='font-size: 30px; color: green;'><strong>Correct!</strong></p><p style='font-size: 30px;'><strong>This rock is gabbro</strong></p>","0","corr_feedback","1","train","19","","","","","","","",""
"","","","","","","","","","","","html-button-response","143","2.0.0","95526","65996217ff76317c84f8aa6e","1","44","1221","","","","","","","","","<img src= ""rock_img/I_Gabbro_03.jpg"" style=""width:8cm; height:8.52cm;""><p>What type of rock is this?</p>","2","class_response","1","train","20","Diorite","Gabbro","03","false","3","4","",""
"","","","","","","","","","","","html-button-response","144","2.0.0","96104","65996217ff76317c84f8aa6e","1","44","577","","","","","","","","","<img src= rock_img/I_Gabbro_03.jpg style=""width:8cm; height:8.52cm;""><p style='font-size: 30px; color: red;'><strong>Incorrect!</strong></p><p style='font-size: 30px;'><strong>This rock is gabbro</strong></p>","0","corr_feedback","1","train","20","","","","","","","",""
"","","","","","","","","","","","html-button-response","145","2.0.0","96590","65996217ff76317c84f8aa6e","1","44","482","","","","","","","","","<img src= ""rock_img/I_Obsidian_11.jpg"" style=""width:8cm; height:6.05cm;""><p>What type of rock is this?</p>","6","class_response","1","train","21","Peridotite","Obsidian","11","false","7","5","",""
"","","","","","","","","","","","html-button-response","146","2.0.0","97471","65996217ff76317c84f8aa6e","1","44","880","","","","","","","","","<img src= rock_img/I_Obsidian_11.jpg style=""width:8cm; height:6.05cm;""><p style='font-size: 30px; color: red;'><strong>Incorrect!</strong></p><p style='font-size: 30px;'><strong>This rock is obsidian</strong></p>","0","corr_feedback","1","train","21","","","","","","","",""
"","","","","","","","","","","","html-button-response","147","2.0.0","98464","65996217ff76317c84f8aa6e","1","44","991","","","","","","","","","<img src= ""rock_img/I_Gabbro_01.jpg"" style=""width:8cm; height:5.21cm;""><p>What type of rock is this?</p>","1","class_response","1","train","22","Basalt","Gabbro","01","false","2","4","",""
"","","","","","","","","","","","html-button-response","148","2.0.0","98997","65996217ff76317c84f8aa6e","1","44","530","","","","","","","","","<img src= rock_img/I_Gabbro_01.jpg style=""width:8cm; height:5.21cm;""><p style='font-size: 30px; color: red;'><strong>Incorrect!</strong></p><p style='font-size: 30px;'><strong>This rock is gabbro</strong></p>","0","corr_feedback","1","train","22","","","","","","","",""
"","","","","","","","","","","","html-button-response","149","2.0.0","99646","65996217ff76317c84f8aa6e","1","44","648","","","","","","","","","<img src= ""rock_img/I_Pegmatite_13.jpg"" style=""width:8cm; height:4.95cm;""><p>What type of rock is this?</p>","0","class_response","1","train","23","Andesite","Pegmatite","13","false","1","6","",""
"","","","","","","","","","","","html-button-response","150","2.0.0","100155","65996217ff76317c84f8aa6e","1","44","509","","","","","","","","","<img src= rock_img/I_Pegmatite_13.jpg style=""width:8cm; height:4.95cm;""><p style='font-size: 30px; color: red;'><strong>Incorrect!</strong></p><p style='font-size: 30px;'><strong>This rock is pegmatite</strong></p>","0","corr_feedback","1","train","23","","","","","","","",""
"","","","","","","","","","","","html-button-response","151","2.0.0","100813","65996217ff76317c84f8aa6e","1","44","656","","","","","","","","","<img src= ""rock_img/I_Peridotite_06.jpg"" style=""width:8cm; height:7.53cm;""><p>What type of rock is this?</p>","5","class_response","1","train","24","Pegmatite","Peridotite","06","false","6","7","",""
"","","","","","","","","","","","html-button-response","152","2.0.0","101315","65996217ff76317c84f8aa6e","1","44","499","","","","","","","","","<img src= rock_img/I_Peridotite_06.jpg style=""width:8cm; height:7.53cm;""><p style='font-size: 30px; color: red;'><strong>Incorrect!</strong></p><p style='font-size: 30px;'><strong>This rock is peridotite</strong></p>","0","corr_feedback","1","train","24","","","","","","","",""
"","","","","","","","","","","","html-button-response","153","2.0.0","101842","65996217ff76317c84f8aa6e","1","44","525","","","","","","","","","<img src= ""rock_img/I_Pumice_03.jpg"" style=""width:8cm; height:6.64cm;""><p>What type of rock is this?</p>","6","class_response","1","train","25","Peridotite","Pumice","03","false","7","8","",""
"","","","","","","","","","","","html-button-response","154","2.0.0","102283","65996217ff76317c84f8aa6e","1","44","440","","","","","","","","","<img src= rock_img/I_Pumice_03.jpg style=""width:8cm; height:6.64cm;""><p style='font-size: 30px; color: red;'><strong>Incorrect!</strong></p><p style='font-size: 30px;'><strong>This rock is pumice</strong></p>","0","corr_feedback","1","train","25","","","","","","","",""
"","","","","","","","","","","","html-button-response","155","2.0.0","102718","65996217ff76317c84f8aa6e","1","44","432","","","","","","","","","<img src= ""rock_img/I_Pumice_05.jpg"" style=""width:8cm; height:7.25cm;""><p>What type of rock is this?</p>","3","class_response","1","train","26","Gabbro","Pumice","05","false","4","8","",""
"","","","","","","","","","","","html-button-response","156","2.0.0","103185","65996217ff76317c84f8aa6e","1","44","462","","","","","","","","","<img src= rock_img/I_Pumice_05.jpg style=""width:8cm; height:7.25cm;""><p style='font-size: 30px; color: red;'><strong>Incorrect!</strong></p><p style='font-size: 30px;'><strong>This rock is pumice</strong></p>","0","corr_feedback","1","train","26","","","","","","","",""
"","","","","","","","","","","","html-button-response","157","2.0.0","103593","65996217ff76317c84f8aa6e","1","44","404","","","","","","","","","<img src= ""rock_img/I_Pegmatite_06.jpg"" style=""width:8cm; height:5.17cm;""><p>What type of rock is this?</p>","7","class_response","1","train","27","Pumice","Pegmatite","06","false","8","6","",""
"","","","","","","","","","","","html-button-response","158","2.0.0","104106","65996217ff76317c84f8aa6e","1","44","507","","","","","","","","","<img src= rock_img/I_Pegmatite_06.jpg style=""width:8cm; height:5.17cm;""><p style='font-size: 30px; color: red;'><strong>Incorrect!</strong></p><p style='font-size: 30px;'><strong>This rock is pegmatite</strong></p>","0","corr_feedback","1","train","27","","","","","","","",""
"","","","","","","","","","","","html-button-response","159","2.0.0","104602","65996217ff76317c84f8aa6e","1","44","492","","","","","","","","","<img src= ""rock_img/I_Pegmatite_11.jpg"" style=""width:8cm; height:8.14cm;""><p>What type of rock is this?</p>","0","class_response","1","train","28","Andesite","Pegmatite","11","false","1","6","",""
"","","","","","","","","","","","html-button-response","160","2.0.0","105158","65996217ff76317c84f8aa6e","1","44","554","","","","","","","","","<img src= rock_img/I_Pegmatite_11.jpg style=""width:8cm; height:8.14cm;""><p style='font-size: 30px; color: red;'><strong>Incorrect!</strong></p><p style='font-size: 30px;'><strong>This rock is pegmatite</strong></p>","0","corr_feedback","1","train","28","","","","","","","",""
"","","","","","","","","","","","html-button-response","161","2.0.0","105620","65996217ff76317c84f8aa6e","1","44","459","","","","","","","","","<img src= ""rock_img/I_Andesite_02.jpg"" style=""width:8cm; height:8.5cm;""><p>What type of rock is this?</p>","4","class_response","1","train","29","Obsidian","Andesite","02","false","5","1","",""
"","","","","","","","","","","","html-button-response","162","2.0.0","106157","65996217ff76317c84f8aa6e","1","44","535","","","","","","","","","<img src= rock_img/I_Andesite_02.jpg style=""width:8cm; height:8.5cm;""><p style='font-size: 30px; color: red;'><strong>Incorrect!</strong></p><p style='font-size: 30px;'><strong>This rock is andesite</strong></p>","0","corr_feedback","1","train","29","","","","","","","",""
"","","","","","","","","","","","html-button-response","163","2.0.0","106684","65996217ff76317c84f8aa6e","1","44","520","","","","","","","","","<img src= ""rock_img/I_Peridotite_05.jpg"" style=""width:8cm; height:7.1499999999999995cm;""><p>What type of rock is this?</p>","1","class_response","1","train","30","Basalt","Peridotite","05","false","2","7","",""
"","","","","","","","","","","","html-button-response","164","2.0.0","107147","65996217ff76317c84f8aa6e","1","44","461","","","","","","","","","<img src= rock_img/I_Peridotite_05.jpg style=""width:8cm; height:7.1499999999999995cm;""><p style='font-size: 30px; color: red;'><strong>Incorrect!</strong></p><p style='font-size: 30px;'><strong>This rock is peridotite</strong></p>","0","corr_feedback","1","train","30","","","","","","","",""
"","","","","","","","","","","","html-button-response","165","2.0.0","107668","65996217ff76317c84f8aa6e","1","44","519","","","","","","","","","<img src= ""rock_img/I_Diorite_12.jpg"" style=""width:8cm; height:4.88cm;""><p>What type of rock is this?</p>","2","class_response","1","train","31","Diorite","Diorite","12","true","3","3","",""
"","","","","","","","","","","","html-button-response","166","2.0.0","108116","65996217ff76317c84f8aa6e","1","44","445","","","","","","","","","<img src= rock_img/I_Diorite_12.jpg style=""width:8cm; height:4.88cm;""><p style='font-size: 30px; color: green;'><strong>Correct!</strong></p><p style='font-size: 30px;'><strong>This rock is diorite</strong></p>","0","corr_feedback","1","train","31","","","","","","","",""
"","","","","","","","","","","","html-button-response","167","2.0.0","108844","65996217ff76317c84f8aa6e","1","44","725","","","","","","","","","<img src= ""rock_img/I_Pegmatite_16.jpg"" style=""width:8cm; height:5.8cm;""><p>What type of rock is this?</p>","5","class_response","1","train","32","Pegmatite","Pegmatite","16","true","6","6","",""
"","","","","","","","","","","","html-button-response","168","2.0.0","109755","65996217ff76317c84f8aa6e","1","44","910","","","","","","","","","<img src= rock_img/I_Pegmatite_16.jpg style=""width:8cm; height:5.8cm;""><p style='font-size: 30px; color: green;'><strong>Correct!</strong></p><p style='font-size: 30px;'><strong>This rock is pegmatite</strong></p>","0","corr_feedback","1","train","32","","","","","","","",""
"","","","","","","","","","","","html-button-response","169","2.0.0","110739","65996217ff76317c84f8aa6e","1","44","982","","","","","","","","","<img src= ""rock_img/I_Andesite_09.jpg"" style=""width:8cm; height:6cm;""><p>What type of rock is this?</p>","6","class_response","1","train","33","Peridotite","Andesite","09","false","7","1","",""
"","","","","","","","","","","","html-button-response","170","2.0.0","112074","65996217ff76317c84f8aa6e","1","44","1335","","","","","","","","","<img src= rock_img/I_Andesite_09.jpg style=""width:8cm; height:6cm;""><p style='font-size: 30px; color: red;'><strong>Incorrect!</strong></p><p style='font-size: 30px;'><strong>This rock is andesite</strong></p>","0","corr_feedback","1","train","33","","","","","","","",""
"","","","","","","","","","","","html-button-response","171","2.0.0","113646","65996217ff76317c84f8aa6e","1","44","1570","","","","","","","","","<img src= ""rock_img/I_Diorite_10.jpg"" style=""width:8cm; height:5.949999999999999cm;""><p>What type of rock is this?</p>","1","class_response","1","train","34","Basalt","Diorite","10","false","2","3","",""
"","","","","","","","","","","","html-button-response","172","2.0.0","114147","65996217ff76317c84f8aa6e","1","44","498","","","","","","","","","<img src= rock_img/I_Diorite_10.jpg style=""width:8cm; height:5.949999999999999cm;""><p style='font-size: 30px; color: red;'><strong>Incorrect!</strong></p><p style='font-size: 30px;'><strong>This rock is diorite</strong></p>","0","corr_feedback","1","train","34","","","","","","","",""
"","","","","","","","","","","","html-button-response","173","2.0.0","115196","65996217ff76317c84f8aa6e","1","44","1048","","","","","","","","","<img src= ""rock_img/I_Pumice_02.jpg"" style=""width:8cm; height:7.3999999999999995cm;""><p>What type of rock is this?</p>","1","class_response","1","train","35","Basalt","Pumice","02","false","2","8","",""
"","","","","","","","","","","","html-button-response","174","2.0.0","115690","65996217ff76317c84f8aa6e","1","44","491","","","","","","","","","<img src= rock_img/I_Pumice_02.jpg style=""width:8cm; height:7.3999999999999995cm;""><p style='font-size: 30px; color: red;'><strong>Incorrect!</strong></p><p style='font-size: 30px;'><strong>This rock is pumice</strong></p>","0","corr_feedback","1","train","35","","","","","","","",""
"","","","","","","","","","","","html-button-response","175","2.0.0","116116","65996217ff76317c84f8aa6e","1","44","423","","","","","","","","","<img src= ""rock_img/I_Basalt_04.jpg"" style=""width:8cm; height:7.53cm;""><p>What type of rock is this?</p>","3","class_response","1","train","36","Gabbro","Basalt","04","false","4","2","",""
"","","","","","","","","","","","html-button-response","176","2.0.0","116662","65996217ff76317c84f8aa6e","1","44","545","","","","","","","","","<img src= rock_img/I_Basalt_04.jpg style=""width:8cm; height:7.53cm;""><p style='font-size: 30px; color: red;'><strong>Incorrect!</strong></p><p style='font-size: 30px;'><strong>This rock is basalt</strong></p>","0","corr_feedback","1","train","36","","","","","","","",""
"","","","","","","","","","","","html-button-response","177","2.0.0","117903","65996217ff76317c84f8aa6e","1","44","1239","","","","","","","","","<img src= ""rock_img/I_Peridotite_12.jpg"" style=""width:8cm; height:4.54cm;""><p>What type of rock is this?</p>","2","class_response","1","train","37","Diorite","Peridotite","12","false","3","7","",""
"","","","","","","","","","","","html-button-response","178","2.0.0","118972","65996217ff76317c84f8aa6e","1","44","1067","","","","","","","","","<img src= rock_img/I_Peridotite_12.jpg style=""width:8cm; height:4.54cm;""><p style='font-size: 30px; color: red;'><strong>Incorrect!</strong></p><p style='font-size: 30px;'><strong>This rock is peridotite</strong></p>","0","corr_feedback","1","train","37","","","","","","","",""
"","","","","","","","","","","","html-button-response","179","2.0.0","119729","65996217ff76317c84f8aa6e","1","44","756","","","","","","","","","<img src= ""rock_img/I_Pumice_09.jpg"" style=""width:8cm; height:6.44cm;""><p>What type of rock is this?</p>","5","class_response","1","train","38","Pegmatite","Pumice","09","false","6","8","",""
"","","","","","","","","","","","html-button-response","180","2.0.0","120209","65996217ff76317c84f8aa6e","1","44","476","","","","","","","","","<img src= rock_img/I_Pumice_09.jpg style=""width:8cm; height:6.44cm;""><p style='font-size: 30px; color: red;'><strong>Incorrect!</strong></p><p style='font-size: 30px;'><strong>This rock is pumice</strong></p>","0","corr_feedback","1","train","38","","","","","","","",""
"","","","","","","","","","","","html-button-response","181","2.0.0","120850","65996217ff76317c84f8aa6e","1","44","638","","","","","","","","","<img src= ""rock_img/I_Basalt_16.jpg"" style=""width:8cm; height:7.659999999999999cm;""><p>What type of rock is this?</p>","6","class_response","1","train","39","Peridotite","Basalt","16","false","7","2","",""
"","","","","","","","","","","","html-button-response","182","2.0.0","121569","65996217ff76317c84f8aa6e","1","44","718","","","","","","","","","<img src= rock_img/I_Basalt_16.jpg style=""width:8cm; height:7.659999999999999cm;""><p style='font-size: 30px; color: red;'><strong>Incorrect!</strong></p><p style='font-size: 30px;'><strong>This rock is basalt</strong></p>","0","corr_feedback","1","train","39","","","","","","","",""
"","","","","","","","","","","","html-button-response","183","2.0.0","122310","65996217ff76317c84f8aa6e","1","44","739","","","","","","","","","<img src= ""rock_img/I_Diorite_09.jpg"" style=""width:8cm; height:5.27cm;""><p>What type of rock is this?</p>","3","class_response","1","train","40","Gabbro","Diorite","09","false","4","3","",""
"","","","","","","","","","","","html-button-response","184","2.0.0","123019","65996217ff76317c84f8aa6e","1","44","706","","","","","","","","","<img src= rock_img/I_Diorite_09.jpg style=""width:8cm; height:5.27cm;""><p style='font-size: 30px; color: red;'><strong>Incorrect!</strong></p><p style='font-size: 30px;'><strong>This rock is diorite</strong></p>","0","corr_feedback","1","train","40","","","","","","","",""
"","","","","","","","","","","","html-button-response","185","2.0.0","123468","65996217ff76317c84f8aa6e","1","44","445","","","","","","","","","<img src= ""rock_img/I_Pumice_06.jpg"" style=""width:8cm; height:6.9399999999999995cm;""><p>What type of rock is this?</p>","7","class_response","1","train","41","Pumice","Pumice","06","true","8","8","",""
"","","","","","","","","","","","html-button-response","186","2.0.0","124249","65996217ff76317c84f8aa6e","1","44","779","","","","","","","","","<img src= rock_img/I_Pumice_06.jpg style=""width:8cm; height:6.9399999999999995cm;""><p style='font-size: 30px; color: green;'><strong>Correct!</strong></p><p style='font-size: 30px;'><strong>This rock is pumice</strong></p>","0","corr_feedback","1","train","41","","","","","","","",""
"","","","","","","","","","","","html-button-response","187","2.0.0","125584","65996217ff76317c84f8aa6e","1","44","1333","","","","","","","","","<img src= ""rock_img/I_Obsidian_06.jpg"" style=""width:8cm; height:6.8cm;""><p>What type of rock is this?</p>","4","class_response","1","train","42","Obsidian","Obsidian","06","true","5","5","",""
"","","","","","","","","","","","html-button-response","188","2.0.0","126517","65996217ff76317c84f8aa6e","1","44","931","","","","","","","","","<img src= rock_img/I_Obsidian_06.jpg style=""width:8cm; height:6.8cm;""><p style='font-size: 30px; color: green;'><strong>Correct!</strong></p><p style='font-size: 30px;'><strong>This rock is obsidian</strong></p>","0","corr_feedback","1","train","42","","","","","","","",""
"","","","","","","","","","","","html-button-response","189","2.0.0","129929","65996217ff76317c84f8aa6e","1","44","3410","","","","","","","","","<img src= ""rock_img/I_Basalt_11.jpg"" style=""width:8cm; height:5.359999999999999cm;""><p>What type of rock is this?</p>","1","class_response","1","train","43","Basalt","Basalt","11","true","2","2","",""
"","","","","","","","","","","","html-button-response","190","2.0.0","130521","65996217ff76317c84f8aa6e","1","44","590","","","","","","","","","<img src= rock_img/I_Basalt_11.jpg style=""width:8cm; height:5.359999999999999cm;""><p style='font-size: 30px; color: green;'><strong>Correct!</strong></p><p style='font-size: 30px;'><strong>This rock is basalt</strong></p>","0","corr_feedback","1","train","43","","","","","","","",""
"","","","","","","","","","","","html-button-response","191","2.0.0","131392","65996217ff76317c84f8aa6e","1","44","869","","","","","","","","","<img src= ""rock_img/I_Pumice_16.jpg"" style=""width:8cm; height:6.79cm;""><p>What type of rock is this?</p>","0","class_response","1","train","44","Andesite","Pumice","16","false","1","8","",""
"","","","","","","","","","","","html-button-response","192","2.0.0","132059","65996217ff76317c84f8aa6e","1","44","666","","","","","","","","","<img src= rock_img/I_Pumice_16.jpg style=""width:8cm; height:6.79cm;""><p style='font-size: 30px; color: red;'><strong>Incorrect!</strong></p><p style='font-size: 30px;'><strong>This rock is pumice</strong></p>","0","corr_feedback","1","train","44","","","","","","","",""
"","","","","","","","","","","","html-button-response","193","2.0.0","132639","65996217ff76317c84f8aa6e","1","44","580","","","","","","","","","<img src= ""rock_img/I_Obsidian_09.jpg"" style=""width:8cm; height:5cm;""><p>What type of rock is this?</p>","2","class_response","1","train","45","Diorite","Obsidian","09","false","3","5","",""
"","","","","","","","","","","","html-button-response","194","2.0.0","133113","65996217ff76317c84f8aa6e","1","44","473","","","","","","","","","<img src= rock_img/I_Obsidian_09.jpg style=""width:8cm; height:5cm;""><p style='font-size: 30px; color: red;'><strong>Incorrect!</strong></p><p style='font-size: 30px;'><strong>This rock is obsidian</strong></p>","0","corr_feedback","1","train","45","","","","","","","",""
"","","","","","","","","","","","html-button-response","195","2.0.0","133745","65996217ff76317c84f8aa6e","1","44","631","","","","","","","","","<img src= ""rock_img/I_Diorite_08.jpg"" style=""width:8cm; height:6.37cm;""><p>What type of rock is this?</p>","6","class_response","1","train","46","Peridotite","Diorite","08","false","7","3","",""
"","","","","","","","","","","","html-button-response","196","2.0.0","134284","65996217ff76317c84f8aa6e","1","44","537","","","","","","","","","<img src= rock_img/I_Diorite_08.jpg style=""width:8cm; height:6.37cm;""><p style='font-size: 30px; color: red;'><strong>Incorrect!</strong></p><p style='font-size: 30px;'><strong>This rock is diorite</strong></p>","0","corr_feedback","1","train","46","","","","","","","",""
"","","","","","","","","","","","html-button-response","197","2.0.0","135142","65996217ff76317c84f8aa6e","1","44","854","","","","","","","","","<img src= ""rock_img/I_Gabbro_08.jpg"" style=""width:8cm; height:5.15cm;""><p>What type of rock is this?</p>","3","class_response","1","train","47","Gabbro","Gabbro","08","true","4","4","",""
"","","","","","","","","","","","html-button-response","198","2.0.0","135740","65996217ff76317c84f8aa6e","1","44","598","","","","","","","","","<img src= rock_img/I_Gabbro_08.jpg style=""width:8cm; height:5.15cm;""><p style='font-size: 30px; color: green;'><strong>Correct!</strong></p><p style='font-size: 30px;'><strong>This rock is gabbro</strong></p>","0","corr_feedback","1","train","47","","","","","","","",""
"","","","","","","","","","","","html-button-response","199","2.0.0","136431","65996217ff76317c84f8aa6e","1","44","689","","","","","","","","","<img src= ""rock_img/I_Basalt_05.jpg"" style=""width:8cm; height:8.18cm;""><p>What type of rock is this?</p>","7","class_response","1","train","48","Pumice","Basalt","05","false","8","2","",""
"","","","","","","","","","","","html-button-response","200","2.0.0","136953","65996217ff76317c84f8aa6e","1","44","518","","","","","","","","","<img src= rock_img/I_Basalt_05.jpg style=""width:8cm; height:8.18cm;""><p style='font-size: 30px; color: red;'><strong>Incorrect!</strong></p><p style='font-size: 30px;'><strong>This rock is basalt</strong></p>","0","corr_feedback","1","train","48","","","","","","","",""
"","","","","","","","","","","","instructions","203","2.0.0","141841","65996217ff76317c84f8aa6e","1","44","4886","","","","","","","","[{""page_index"":0,""viewing_time"":3358},{""page_index"":1,""viewing_time"":1528}]","","","","","","","","","","","","","",""
"","","","","","","","","","","","html-button-response","204","2.0.0","142659","65996217ff76317c84f8aa6e","1","44","816","","","","","","","","","","0","start_test","","","","","","","","","","",""
"","","","","","","","","","","","html-button-response","205","2.0.0","143779","65996217ff76317c84f8aa6e","1","44","1118","","","","","","","","","<img src= ""rock_img/I_Pegmatite_12.jpg"" style=""width:8cm; height:5.7cm;""><p>What type of rock is this?</p>","5","class_response","1","test","1","Pegmatite","Pegmatite","12","true","6","6","",""
"","","","","","","","","","","","html-keyboard-response","206","2.0.0","144295","65996217ff76317c84f8aa6e","1","44","null","","","","","","","","","<p style='font-size: 30px;'><strong>Okay</strong></p>","null","neutral_feedback","1","test","1","","","","","","","",""
"","","","","","","","","","","","html-button-response","207","2.0.0","144688","65996217ff76317c84f8aa6e","1","44","390","","","","","","","","","<img src= ""rock_img/I_Obsidian_10.jpg"" style=""width:8cm; height:6.260000000000001cm;""><p>What type of rock is this?</p>","2","class_response","1","test","2","Diorite","Obsidian","10","false","3","5","",""
"","","","","","","","","","","","html-keyboard-response","208","2.0.0","145204","65996217ff76317c84f8aa6e","1","44","null","","","","","","","","","<p style='font-size: 30px;'><strong>Okay</strong></p>","null","neutral_feedback","1","test","2","","","","","","","",""
"","","","","","","","","","","","html-button-response","209","2.0.0","145659","65996217ff76317c84f8aa6e","1","44","452","","","","","","","","","<img src= ""rock_img/I_Pumice_10.jpg"" style=""width:8cm; height:7.609999999999999cm;""><p>What type of rock is this?</p>","1","class_response","1","test","3","Basalt","Pumice","10","false","2","8","",""
"","","","","","","","","","","","html-keyboard-response","210","2.0.0","146178","65996217ff76317c84f8aa6e","1","44","null","","","","","","","","","<p style='font-size: 30px;'><strong>Okay</strong></p>","null","neutral_feedback","1","test","3","","","","","","","",""
"","","","","","","","","","","","html-button-response","211","2.0.0","146829","65996217ff76317c84f8aa6e","1","44","648","","","","","","","","","<img src= ""rock_img/I_Obsidian_05.jpg"" style=""width:8cm; height:6.33cm;""><p>What type of rock is this?</p>","4","class_response","1","test","4","Obsidian","Obsidian","05","true","5","5","",""
"","","","","","","","","","","","html-keyboard-response","212","2.0.0","147346","65996217ff76317c84f8aa6e","1","44","null","","","","","","","","","<p style='font-size: 30px;'><strong>Okay</strong></p>","null","neutral_feedback","1","test","4","","","","","","","",""
"","","","","","","","","","","","html-button-response","213","2.0.0","147695","65996217ff76317c84f8aa6e","1","44","346","","","","","","","","","<img src= ""rock_img/I_Pegmatite_03.jpg"" style=""width:8cm; height:5.239999999999999cm;""><p>What type of rock is this?</p>","0","class_response","1","test","5","Andesite","Pegmatite","03","false","1","6","",""
"","","","","","","","","","","","html-keyboard-response","214","2.0.0","148212","65996217ff76317c84f8aa6e","1","44","null","","","","","","","","","<p style='font-size: 30px;'><strong>Okay</strong></p>","null","neutral_feedback","1","test","5","","","","","","","",""
"","","","","","","","","","","","html-button-response","215","2.0.0","148491","65996217ff76317c84f8aa6e","1","44","276","","","","","","","","","<img src= ""rock_img/I_Basalt_08.jpg"" style=""width:8cm; height:10.44cm;""><p>What type of rock is this?</p>","2","class_response","1","test","6","Diorite","Basalt","08","false","3","2","",""
"","","","","","","","","","","","html-keyboard-response","216","2.0.0","149005","65996217ff76317c84f8aa6e","1","44","null","","","","","","","","","<p style='font-size: 30px;'><strong>Okay</strong></p>","null","neutral_feedback","1","test","6","","","","","","","",""
"","","","","","","","","","","","html-button-response","217","2.0.0","149652","65996217ff76317c84f8aa6e","1","44","644","","","","","","","","","<img src= ""rock_img/I_Pumice_13.jpg"" style=""width:8cm; height:8.200000000000001cm;""><p>What type of rock is this?</p>","6","class_response","1","test","7","Peridotite","Pumice","13","false","7","8","",""
"","","","","","","","","","","","html-keyboard-response","218","2.0.0","150160","65996217ff76317c84f8aa6e","1","44","null","","","","","","","","","<p style='font-size: 30px;'><strong>Okay</strong></p>","null","neutral_feedback","1","test","7","","","","","","","",""
"","","","","","","","","","","","html-button-response","219","2.0.0","150713","65996217ff76317c84f8aa6e","1","44","550","","","","","","","","","<img src= ""rock_img/I_Basalt_09.jpg"" style=""width:8cm; height:6.2cm;""><p>What type of rock is this?</p>","5","class_response","1","test","8","Pegmatite","Basalt","09","false","6","2","",""
"","","","","","","","","","","","html-keyboard-response","220","2.0.0","151227","65996217ff76317c84f8aa6e","1","44","null","","","","","","","","","<p style='font-size: 30px;'><strong>Okay</strong></p>","null","neutral_feedback","1","test","8","","","","","","","",""
"","","","","","","","","","","","html-button-response","221","2.0.0","151581","65996217ff76317c84f8aa6e","1","44","353","","","","","","","","","<img src= ""rock_img/I_Peridotite_14.jpg"" style=""width:8cm; height:5.3cm;""><p>What type of rock is this?</p>","0","class_response","1","test","9","Andesite","Peridotite","14","false","1","7","",""
"","","","","","","","","","","","html-keyboard-response","222","2.0.0","152092","65996217ff76317c84f8aa6e","1","44","null","","","","","","","","","<p style='font-size: 30px;'><strong>Okay</strong></p>","null","neutral_feedback","1","test","9","","","","","","","",""
"","","","","","","","","","","","html-button-response","223","2.0.0","152605","65996217ff76317c84f8aa6e","1","44","510","","","","","","","","","<img src= ""rock_img/I_Pegmatite_10.jpg"" style=""width:8cm; height:4.16cm;""><p>What type of rock is this?</p>","3","class_response","1","test","10","Gabbro","Pegmatite","10","false","4","6","",""
"","","","","","","","","","","","html-keyboard-response","224","2.0.0","153126","65996217ff76317c84f8aa6e","1","44","null","","","","","","","","","<p style='font-size: 30px;'><strong>Okay</strong></p>","null","neutral_feedback","1","test","10","","","","","","","",""
"","","","","","","","","","","","html-button-response","225","2.0.0","154204","65996217ff76317c84f8aa6e","1","44","1075","","","","","","","","","<img src= ""rock_img/I_Andesite_07.jpg"" style=""width:8cm; height:5.93cm;""><p>What type of rock is this?</p>","6","class_response","1","test","11","Peridotite","Andesite","07","false","7","1","",""
"","","","","","","","","","","","html-keyboard-response","226","2.0.0","154720","65996217ff76317c84f8aa6e","1","44","null","","","","","","","","","<p style='font-size: 30px;'><strong>Okay</strong></p>","null","neutral_feedback","1","test","11","","","","","","","",""
"","","","","","","","","","","","html-button-response","227","2.0.0","155182","65996217ff76317c84f8aa6e","1","44","458","","","","","","","","","<img src= ""rock_img/I_Obsidian_07.jpg"" style=""width:8cm; height:4.76cm;""><p>What type of rock is this?</p>","7","class_response","1","test","12","Pumice","Obsidian","07","false","8","5","",""
"","","","","","","","","","","","html-keyboard-response","228","2.0.0","155700","65996217ff76317c84f8aa6e","1","44","null","","","","","","","","","<p style='font-size: 30px;'><strong>Okay</strong></p>","null","neutral_feedback","1","test","12","","","","","","","",""
"","","","","","","","","","","","html-button-response","229","2.0.0","156178","65996217ff76317c84f8aa6e","1","44","475","","","","","","","","","<img src= ""rock_img/I_Andesite_11.jpg"" style=""width:8cm; height:4.92cm;""><p>What type of rock is this?</p>","1","class_response","1","test","13","Basalt","Andesite","11","false","2","1","",""
"","","","","","","","","","","","html-keyboard-response","230","2.0.0","156688","65996217ff76317c84f8aa6e","1","44","null","","","","","","","","","<p style='font-size: 30px;'><strong>Okay</strong></p>","null","neutral_feedback","1","test","13","","","","","","","",""
"","","","","","","","","","","","html-button-response","231","2.0.0","157423","65996217ff76317c84f8aa6e","1","44","733","","","","","","","","","<img src= ""rock_img/I_Gabbro_16.jpg"" style=""width:8cm; height:6.44cm;""><p>What type of rock is this?</p>","4","class_response","1","test","14","Obsidian","Gabbro","16","false","5","4","",""
"","","","","","","","","","","","html-keyboard-response","232","2.0.0","157939","65996217ff76317c84f8aa6e","1","44","null","","","","","","","","","<p style='font-size: 30px;'><strong>Okay</strong></p>","null","neutral_feedback","1","test","14","","","","","","","",""
"","","","","","","","","","","","html-button-response","233","2.0.0","158466","65996217ff76317c84f8aa6e","1","44","524","","","","","","","","","<img src= ""rock_img/I_Diorite_02.jpg"" style=""width:8cm; height:6.27cm;""><p>What type of rock is this?</p>","2","class_response","1","test","15","Diorite","Diorite","02","true","3","3","",""
"","","","","","","","","","","","html-keyboard-response","234","2.0.0","158973","65996217ff76317c84f8aa6e","1","44","null","","","","","","","","","<p style='font-size: 30px;'><strong>Okay</strong></p>","null","neutral_feedback","1","test","15","","","","","","","",""
"","","","","","","","","","","","html-button-response","235","2.0.0","159553","65996217ff76317c84f8aa6e","1","44","578","","","","","","","","","<img src= ""rock_img/I_Andesite_03.jpg"" style=""width:8cm; height:5.73cm;""><p>What type of rock is this?</p>","0","class_response","1","test","16","Andesite","Andesite","03","true","1","1","",""
"","","","","","","","","","","","html-keyboard-response","236","2.0.0","160067","65996217ff76317c84f8aa6e","1","44","null","","","","","","","","","<p style='font-size: 30px;'><strong>Okay</strong></p>","null","neutral_feedback","1","test","16","","","","","","","",""
"","","","","","","","","","","","html-button-response","237","2.0.0","160651","65996217ff76317c84f8aa6e","1","44","580","","","","","","","","","<img src= ""rock_img/I_Andesite_06.jpg"" style=""width:8cm; height:6.840000000000001cm;""><p>What type of rock is this?</p>","6","class_response","1","test","17","Peridotite","Andesite","06","false","7","1","",""
"","","","","","","","","","","","html-keyboard-response","238","2.0.0","161173","65996217ff76317c84f8aa6e","1","44","null","","","","","","","","","<p style='font-size: 30px;'><strong>Okay</strong></p>","null","neutral_feedback","1","test","17","","","","","","","",""
"","","","","","","","","","","","html-button-response","239","2.0.0","161731","65996217ff76317c84f8aa6e","1","44","556","","","","","","","","","<img src= ""rock_img/I_Gabbro_14.jpg"" style=""width:8cm; height:8.48cm;""><p>What type of rock is this?</p>","5","class_response","1","test","18","Pegmatite","Gabbro","14","false","6","4","",""
"","","","","","","","","","","","html-keyboard-response","240","2.0.0","162239","65996217ff76317c84f8aa6e","1","44","null","","","","","","","","","<p style='font-size: 30px;'><strong>Okay</strong></p>","null","neutral_feedback","1","test","18","","","","","","","",""
"","","","","","","","","","","","html-button-response","241","2.0.0","162749","65996217ff76317c84f8aa6e","1","44","507","","","","","","","","","<img src= ""rock_img/I_Gabbro_12.jpg"" style=""width:8cm; height:7.800000000000001cm;""><p>What type of rock is this?</p>","7","class_response","1","test","19","Pumice","Gabbro","12","false","8","4","",""
"","","","","","","","","","","","html-keyboard-response","242","2.0.0","163264","65996217ff76317c84f8aa6e","1","44","null","","","","","","","","","<p style='font-size: 30px;'><strong>Okay</strong></p>","null","neutral_feedback","1","test","19","","","","","","","",""
"","","","","","","","","","","","html-button-response","243","2.0.0","163820","65996217ff76317c84f8aa6e","1","44","554","","","","","","","","","<img src= ""rock_img/I_Basalt_14.jpg"" style=""width:8cm; height:5.82cm;""><p>What type of rock is this?</p>","2","class_response","1","test","20","Diorite","Basalt","14","false","3","2","",""
"","","","","","","","","","","","html-keyboard-response","244","2.0.0","164334","65996217ff76317c84f8aa6e","1","44","null","","","","","","","","","<p style='font-size: 30px;'><strong>Okay</strong></p>","null","neutral_feedback","1","test","20","","","","","","","",""
"","","","","","","","","","","","html-button-response","245","2.0.0","164832","65996217ff76317c84f8aa6e","1","44","495","","","","","","","","","<img src= ""rock_img/I_Pegmatite_08.jpg"" style=""width:8cm; height:7.68cm;""><p>What type of rock is this?</p>","1","class_response","1","test","21","Basalt","Pegmatite","08","false","2","6","",""
"","","","","","","","","","","","html-keyboard-response","246","2.0.0","165347","65996217ff76317c84f8aa6e","1","44","null","","","","","","","","","<p style='font-size: 30px;'><strong>Okay</strong></p>","null","neutral_feedback","1","test","21","","","","","","","",""
"","","","","","","","","","","","html-button-response","247","2.0.0","165899","65996217ff76317c84f8aa6e","1","44","548","","","","","","","","","<img src= ""rock_img/I_Peridotite_16.jpg"" style=""width:8cm; height:6.989999999999999cm;""><p>What type of rock is this?</p>","4","class_response","1","test","22","Obsidian","Peridotite","16","false","5","7","",""
"","","","","","","","","","","","html-keyboard-response","248","2.0.0","166402","65996217ff76317c84f8aa6e","1","44","null","","","","","","","","","<p style='font-size: 30px;'><strong>Okay</strong></p>","null","neutral_feedback","1","test","22","","","","","","","",""
"","","","","","","","","","","","html-button-response","249","2.0.0","166944","65996217ff76317c84f8aa6e","1","44","538","","","","","","","","","<img src= ""rock_img/I_Pumice_15.jpg"" style=""width:8cm; height:7.86cm;""><p>What type of rock is this?</p>","6","class_response","1","test","23","Peridotite","Pumice","15","false","7","8","",""
"","","","","","","","","","","","html-keyboard-response","250","2.0.0","167474","65996217ff76317c84f8aa6e","1","44","null","","","","","","","","","<p style='font-size: 30px;'><strong>Okay</strong></p>","null","neutral_feedback","1","test","23","","","","","","","",""
"","","","","","","","","","","","html-button-response","251","2.0.0","168027","65996217ff76317c84f8aa6e","1","44","549","","","","","","","","","<img src= ""rock_img/I_Diorite_13.jpg"" style=""width:8cm; height:6.29cm;""><p>What type of rock is this?</p>","3","class_response","1","test","24","Gabbro","Diorite","13","false","4","3","",""
"","","","","","","","","","","","html-keyboard-response","252","2.0.0","168537","65996217ff76317c84f8aa6e","1","44","null","","","","","","","","","<p style='font-size: 30px;'><strong>Okay</strong></p>","null","neutral_feedback","1","test","24","","","","","","","",""
"","","","","","","","","","","","html-button-response","253","2.0.0","169165","65996217ff76317c84f8aa6e","1","44","625","","","","","","","","","<img src= ""rock_img/I_Pegmatite_15.jpg"" style=""width:8cm; height:6cm;""><p>What type of rock is this?</p>","0","class_response","1","test","25","Andesite","Pegmatite","15","false","1","6","",""
"","","","","","","","","","","","html-keyboard-response","254","2.0.0","169681","65996217ff76317c84f8aa6e","1","44","null","","","","","","","","","<p style='font-size: 30px;'><strong>Okay</strong></p>","null","neutral_feedback","1","test","25","","","","","","","",""
"","","","","","","","","","","","html-button-response","255","2.0.0","170180","65996217ff76317c84f8aa6e","1","44","497","","","","","","","","","<img src= ""rock_img/I_Gabbro_13.jpg"" style=""width:8cm; height:5.08cm;""><p>What type of rock is this?</p>","7","class_response","1","test","26","Pumice","Gabbro","13","false","8","4","",""
"","","","","","","","","","","","html-keyboard-response","256","2.0.0","170686","65996217ff76317c84f8aa6e","1","44","null","","","","","","","","","<p style='font-size: 30px;'><strong>Okay</strong></p>","null","neutral_feedback","1","test","26","","","","","","","",""
"","","","","","","","","","","","html-button-response","257","2.0.0","171354","65996217ff76317c84f8aa6e","1","44","666","","","","","","","","","<img src= ""rock_img/I_Gabbro_05.jpg"" style=""width:8cm; height:6cm;""><p>What type of rock is this?</p>","2","class_response","1","test","27","Diorite","Gabbro","05","false","3","4","",""
"","","","","","","","","","","","html-keyboard-response","258","2.0.0","171862","65996217ff76317c84f8aa6e","1","44","null","","","","","","","","","<p style='font-size: 30px;'><strong>Okay</strong></p>","null","neutral_feedback","1","test","27","","","","","","","",""
"","","","","","","","","","","","html-button-response","259","2.0.0","172464","65996217ff76317c84f8aa6e","1","44","598","","","","","","","","","<img src= ""rock_img/I_Obsidian_16.jpg"" style=""width:8cm; height:9.3cm;""><p>What type of rock is this?</p>","6","class_response","1","test","28","Peridotite","Obsidian","16","false","7","5","",""
"","","","","","","","","","","","html-keyboard-response","260","2.0.0","172979","65996217ff76317c84f8aa6e","1","44","null","","","","","","","","","<p style='font-size: 30px;'><strong>Okay</strong></p>","null","neutral_feedback","1","test","28","","","","","","","",""
"","","","","","","","","","","","html-button-response","261","2.0.0","173669","65996217ff76317c84f8aa6e","1","44","687","","","","","","","","","<img src= ""rock_img/I_Pumice_04.jpg"" style=""width:8cm; height:6.819999999999999cm;""><p>What type of rock is this?</p>","5","class_response","1","test","29","Pegmatite","Pumice","04","false","6","8","",""
"","","","","","","","","","","","html-keyboard-response","262","2.0.0","174186","65996217ff76317c84f8aa6e","1","44","null","","","","","","","","","<p style='font-size: 30px;'><strong>Okay</strong></p>","null","neutral_feedback","1","test","29","","","","","","","",""
"","","","","","","","","","","","html-button-response","263","2.0.0","174637","65996217ff76317c84f8aa6e","1","44","447","","","","","","","","","<img src= ""rock_img/I_Basalt_10.jpg"" style=""width:8cm; height:5.85cm;""><p>What type of rock is this?</p>","0","class_response","1","test","30","Andesite","Basalt","10","false","1","2","",""
"","","","","","","","","","","","html-keyboard-response","264","2.0.0","175142","65996217ff76317c84f8aa6e","1","44","null","","","","","","","","","<p style='font-size: 30px;'><strong>Okay</strong></p>","null","neutral_feedback","1","test","30","","","","","","","",""
"","","","","","","","","","","","html-button-response","265","2.0.0","175866","65996217ff76317c84f8aa6e","1","44","720","","","","","","","","","<img src= ""rock_img/I_Obsidian_14.jpg"" style=""width:8cm; height:7.64cm;""><p>What type of rock is this?</p>","1","class_response","1","test","31","Basalt","Obsidian","14","false","2","5","",""
"","","","","","","","","","","","html-keyboard-response","266","2.0.0","176372","65996217ff76317c84f8aa6e","1","44","null","","","","","","","","","<p style='font-size: 30px;'><strong>Okay</strong></p>","null","neutral_feedback","1","test","31","","","","","","","",""
"","","","","","","","","","","","html-button-response","267","2.0.0","177044","65996217ff76317c84f8aa6e","1","44","668","","","","","","","","","<img src= ""rock_img/I_Pegmatite_07.jpg"" style=""width:8cm; height:6.7cm;""><p>What type of rock is this?</p>","3","class_response","1","test","32","Gabbro","Pegmatite","07","false","4","6","",""
"","","","","","","","","","","","html-keyboard-response","268","2.0.0","177566","65996217ff76317c84f8aa6e","1","44","null","","","","","","","","","<p style='font-size: 30px;'><strong>Okay</strong></p>","null","neutral_feedback","1","test","32","","","","","","","",""
"","","","","","","","","","","","html-button-response","269","2.0.0","179263","65996217ff76317c84f8aa6e","1","44","1693","","","","","","","","","<img src= ""rock_img/I_Peridotite_13.jpg"" style=""width:8cm; height:7.58cm;""><p>What type of rock is this?</p>","4","class_response","1","test","33","Obsidian","Peridotite","13","false","5","7","",""
"","","","","","","","","","","","html-keyboard-response","270","2.0.0","179781","65996217ff76317c84f8aa6e","1","44","null","","","","","","","","","<p style='font-size: 30px;'><strong>Okay</strong></p>","null","neutral_feedback","1","test","33","","","","","","","",""
"","","","","","","","","","","","html-button-response","271","2.0.0","180467","65996217ff76317c84f8aa6e","1","44","682","","","","","","","","","<img src= ""rock_img/I_Diorite_16.jpg"" style=""width:8cm; height:6.74cm;""><p>What type of rock is this?</p>","7","class_response","1","test","34","Pumice","Diorite","16","false","8","3","",""
"","","","","","","","","","","","html-keyboard-response","272","2.0.0","180986","65996217ff76317c84f8aa6e","1","44","null","","","","","","","","","<p style='font-size: 30px;'><strong>Okay</strong></p>","null","neutral_feedback","1","test","34","","","","","","","",""
"","","","","","","","","","","","html-button-response","273","2.0.0","181490","65996217ff76317c84f8aa6e","1","44","500","","","","","","","","","<img src= ""rock_img/I_Basalt_12.jpg"" style=""width:8cm; height:6.010000000000001cm;""><p>What type of rock is this?</p>","1","class_response","1","test","35","Basalt","Basalt","12","true","2","2","",""
"","","","","","","","","","","","html-keyboard-response","274","2.0.0","181994","65996217ff76317c84f8aa6e","1","44","null","","","","","","","","","<p style='font-size: 30px;'><strong>Okay</strong></p>","null","neutral_feedback","1","test","35","","","","","","","",""
"","","","","","","","","","","","html-button-response","275","2.0.0","182595","65996217ff76317c84f8aa6e","1","44","599","","","","","","","","","<img src= ""rock_img/I_Diorite_14.jpg"" style=""width:8cm; height:5.71cm;""><p>What type of rock is this?</p>","2","class_response","1","test","36","Diorite","Diorite","14","true","3","3","",""
"","","","","","","","","","","","html-keyboard-response","276","2.0.0","183102","65996217ff76317c84f8aa6e","1","44","null","","","","","","","","","<p style='font-size: 30px;'><strong>Okay</strong></p>","null","neutral_feedback","1","test","36","","","","","","","",""
"","","","","","","","","","","","html-button-response","277","2.0.0","183620","65996217ff76317c84f8aa6e","1","44","515","","","","","","","","","<img src= ""rock_img/I_Pumice_14.jpg"" style=""width:8cm; height:6.39cm;""><p>What type of rock is this?</p>","7","class_response","1","test","37","Pumice","Pumice","14","true","8","8","",""
"","","","","","","","","","","","html-keyboard-response","278","2.0.0","184125","65996217ff76317c84f8aa6e","1","44","null","","","","","","","","","<p style='font-size: 30px;'><strong>Okay</strong></p>","null","neutral_feedback","1","test","37","","","","","","","",""
"","","","","","","","","","","","html-button-response","279","2.0.0","185239","65996217ff76317c84f8aa6e","1","44","1111","","","","","","","","","<img src= ""rock_img/I_Andesite_16.jpg"" style=""width:8cm; height:6.010000000000001cm;""><p>What type of rock is this?</p>","6","class_response","1","test","38","Peridotite","Andesite","16","false","7","1","",""
"","","","","","","","","","","","html-keyboard-response","280","2.0.0","185750","65996217ff76317c84f8aa6e","1","44","null","","","","","","","","","<p style='font-size: 30px;'><strong>Okay</strong></p>","null","neutral_feedback","1","test","38","","","","","","","",""
"","","","","","","","","","","","html-button-response","281","2.0.0","186197","65996217ff76317c84f8aa6e","1","44","445","","","","","","","","","<img src= ""rock_img/I_Basalt_02.jpg"" style=""width:8cm; height:6.45cm;""><p>What type of rock is this?</p>","5","class_response","1","test","39","Pegmatite","Basalt","02","false","6","2","",""
"","","","","","","","","","","","html-keyboard-response","282","2.0.0","186705","65996217ff76317c84f8aa6e","1","44","null","","","","","","","","","<p style='font-size: 30px;'><strong>Okay</strong></p>","null","neutral_feedback","1","test","39","","","","","","","",""
"","","","","","","","","","","","html-button-response","283","2.0.0","187158","65996217ff76317c84f8aa6e","1","44","448","","","","","","","","","<img src= ""rock_img/I_Peridotite_02.jpg"" style=""width:8cm; height:5.859999999999999cm;""><p>What type of rock is this?</p>","0","class_response","1","test","40","Andesite","Peridotite","02","false","1","7","",""
"","","","","","","","","","","","html-keyboard-response","284","2.0.0","187672","65996217ff76317c84f8aa6e","1","44","null","","","","","","","","","<p style='font-size: 30px;'><strong>Okay</strong></p>","null","neutral_feedback","1","test","40","","","","","","","",""
"","","","","","","","","","","","html-button-response","285","2.0.0","188345","65996217ff76317c84f8aa6e","1","44","669","","","","","","","","","<img src= ""rock_img/I_Gabbro_09.jpg"" style=""width:8cm; height:7.279999999999999cm;""><p>What type of rock is this?</p>","3","class_response","1","test","41","Gabbro","Gabbro","09","true","4","4","",""
"","","","","","","","","","","","html-keyboard-response","286","2.0.0","188859","65996217ff76317c84f8aa6e","1","44","null","","","","","","","","","<p style='font-size: 30px;'><strong>Okay</strong></p>","null","neutral_feedback","1","test","41","","","","","","","",""
"","","","","","","","","","","","html-button-response","287","2.0.0","189419","65996217ff76317c84f8aa6e","1","44","557","","","","","","","","","<img src= ""rock_img/I_Diorite_06.jpg"" style=""width:8cm; height:6.03cm;""><p>What type of rock is this?</p>","2","class_response","1","test","42","Diorite","Diorite","06","true","3","3","",""
"","","","","","","","","","","","html-keyboard-response","288","2.0.0","189938","65996217ff76317c84f8aa6e","1","44","null","","","","","","","","","<p style='font-size: 30px;'><strong>Okay</strong></p>","null","neutral_feedback","1","test","42","","","","","","","",""
"","","","","","","","","","","","html-button-response","289","2.0.0","190394","65996217ff76317c84f8aa6e","1","44","453","","","","","","","","","<img src= ""rock_img/I_Peridotite_07.jpg"" style=""width:8cm; height:4.83cm;""><p>What type of rock is this?</p>","1","class_response","1","test","43","Basalt","Peridotite","07","false","2","7","",""
"","","","","","","","","","","","html-keyboard-response","290","2.0.0","190899","65996217ff76317c84f8aa6e","1","44","null","","","","","","","","","<p style='font-size: 30px;'><strong>Okay</strong></p>","null","neutral_feedback","1","test","43","","","","","","","",""
"","","","","","","","","","","","html-button-response","291","2.0.0","191309","65996217ff76317c84f8aa6e","1","44","407","","","","","","","","","<img src= ""rock_img/I_Peridotite_15.jpg"" style=""width:8cm; height:6cm;""><p>What type of rock is this?</p>","6","class_response","1","test","44","Peridotite","Peridotite","15","true","7","7","",""
"","","","","","","","","","","","html-keyboard-response","292","2.0.0","191819","65996217ff76317c84f8aa6e","1","44","null","","","","","","","","","<p style='font-size: 30px;'><strong>Okay</strong></p>","null","neutral_feedback","1","test","44","","","","","","","",""
"","","","","","","","","","","","html-button-response","293","2.0.0","192325","65996217ff76317c84f8aa6e","1","44","503","","","","","","","","","<img src= ""rock_img/I_Diorite_15.jpg"" style=""width:8cm; height:5.54cm;""><p>What type of rock is this?</p>","7","class_response","1","test","45","Pumice","Diorite","15","false","8","3","",""
"","","","","","","","","","","","html-keyboard-response","294","2.0.0","192837","65996217ff76317c84f8aa6e","1","44","null","","","","","","","","","<p style='font-size: 30px;'><strong>Okay</strong></p>","null","neutral_feedback","1","test","45","","","","","","","",""
"","","","","","","","","","","","html-button-response","295","2.0.0","193372","65996217ff76317c84f8aa6e","1","44","532","","","","","","","","","<img src= ""rock_img/I_Andesite_04.jpg"" style=""width:8cm; height:5.96cm;""><p>What type of rock is this?</p>","4","class_response","1","test","46","Obsidian","Andesite","04","false","5","1","",""
"","","","","","","","","","","","html-keyboard-response","296","2.0.0","193886","65996217ff76317c84f8aa6e","1","44","null","","","","","","","","","<p style='font-size: 30px;'><strong>Okay</strong></p>","null","neutral_feedback","1","test","46","","","","","","","",""
"","","","","","","","","","","","html-button-response","297","2.0.0","194703","65996217ff76317c84f8aa6e","1","44","815","","","","","","","","","<img src= ""rock_img/I_Pumice_08.jpg"" style=""width:8cm; height:6.67cm;""><p>What type of rock is this?</p>","7","class_response","1","test","47","Pumice","Pumice","08","true","8","8","",""
"","","","","","","","","","","","html-keyboard-response","298","2.0.0","195207","65996217ff76317c84f8aa6e","1","44","null","","","","","","","","","<p style='font-size: 30px;'><strong>Okay</strong></p>","null","neutral_feedback","1","test","47","","","","","","","",""
"","","","","","","","","","","","html-button-response","299","2.0.0","196328","65996217ff76317c84f8aa6e","1","44","1117","","","","","","","","","<img src= ""rock_img/I_Obsidian_04.jpg"" style=""width:8cm; height:6.930000000000001cm;""><p>What type of rock is this?</p>","4","class_response","1","test","48","Obsidian","Obsidian","04","true","5","5","",""
"","","","","","","","","","","","html-keyboard-response","300","2.0.0","196839","65996217ff76317c84f8aa6e","1","44","null","","","","","","","","","<p style='font-size: 30px;'><strong>Okay</strong></p>","null","neutral_feedback","1","test","48","","","","","","","",""
"","","","","","","","","","","","html-button-response","301","2.0.0","202991","65996217ff76317c84f8aa6e","1","44","","","","","","","","","","","","cycle_feedback","","","","","","","","","","4980.799999952316","1155.7999999523163"
"","","","","","","","","","","","html-button-response","303","2.0.0","203784","65996217ff76317c84f8aa6e","1","44","791","","","","","","","","","","0","start_train","","","","","","","","","","",""
"","","","","","","","","","","","html-button-response","304","2.0.0","206099","65996217ff76317c84f8aa6e","1","44","2313","","","","","","","","","<img src= ""rock_img/I_Pumice_06.jpg"" style=""width:8cm; height:6.9399999999999995cm;""><p>What type of rock is this?</p>","2","class_response","2","train","1","Diorite","Pumice","06","false","3","8","",""
"","","","","","","","","","","","html-button-response","305","2.0.0","207013","65996217ff76317c84f8aa6e","1","44","912","","","","","","","","","<img src= rock_img/I_Pumice_06.jpg style=""width:8cm; height:6.9399999999999995cm;""><p style='font-size: 30px; color: red;'><strong>Incorrect!</strong></p><p style='font-size: 30px;'><strong>This rock is pumice</strong></p>","0","corr_feedback","2","train","1","","","","","","","",""
