"width","height","webaudio","browser","browser_version","mobile","os","fullscreen","vsync_rate","webcam","microphone","trial_type","trial_index","plugin_version","time_elapsed","subjID","condition","stimID","rt","url","success","value","timeout","failed_images","failed_audio","failed_video","view_history","stimulus","response","trialType","cycle","phase","trial","resp","cat","token","corr","resp_num","cat_num","time_fb1","time_fb2"
"1358","608","true","edge-chromium","131.0.0","false","Windows 10","true","30.46","true","true","browser-check","0","2.0.0","2495","67106e2b92ed66266c984d36","1","42","","","","","","","","","","","","","","","","","","","","","","",""
"","","","","","","","","","","","external-html","1","2.0.0","383953","67106e2b92ed66266c984d36","1","42","381345","consent_form.html","","","","","","","","","","","","","","","","","","","","",""
"","","","","","","","","","","","fullscreen","2","2.0.0","391016","67106e2b92ed66266c984d36","1","42","6053","","true","","","","","","","","","","","","","","","","","","","",""
"","","","","","","","","","","","call-function","3","2.0.0","391018","67106e2b92ed66266c984d36","1","42","","","","{}","","","","","","","","","","","","","","","","","","",""
"","","","","","","","","","","","preload","4","2.0.0","395488","67106e2b92ed66266c984d36","1","42","","","true","","false","[]","[]","[]","","","","","","","","","","","","","","",""
"","","","","","","","","","","","instructions","5","2.0.0","589230","67106e2b92ed66266c984d36","1","42","193740","","","","","","","","[{""page_index"":0,""viewing_time"":14506},{""page_index"":1,""viewing_time"":154462},{""page_index"":2,""viewing_time"":24772}]","","","","","","","","","","","","","",""
"","","","","","","","","","","","html-button-response","6","2.0.0","592969","67106e2b92ed66266c984d36","1","42","3736","","","","","","","","","","0","start_test","","","","","","","","","","",""
"","","","","","","","","","","","html-button-response","7","2.0.0","598417","67106e2b92ed66266c984d36","1","42","5444","","","","","","","","","<img src= ""rock_img/I_Pumice_10.jpg"" style=""width:8cm; height:7.609999999999999cm;""><p>What type of rock is this?</p>","5","class_response","0","test","1","Pegmatite","Pumice","10","false","6","8","",""
"","","","","","","","","","","","html-keyboard-response","8","2.0.0","598928","67106e2b92ed66266c984d36","1","42","null","","","","","","","","","<p style='font-size: 30px;'><strong>Okay</strong></p>","null","neutral_feedback","0","test","1","","","","","","","",""
"","","","","","","","","","","","html-button-response","9","2.0.0","613275","67106e2b92ed66266c984d36","1","42","14343","","","","","","","","","<img src= ""rock_img/I_Obsidian_04.jpg"" style=""width:8cm; height:6.930000000000001cm;""><p>What type of rock is this?</p>","6","class_response","0","test","2","Peridotite","Obsidian","04","false","7","5","",""
"","","","","","","","","","","","html-keyboard-response","10","2.0.0","613784","67106e2b92ed66266c984d36","1","42","null","","","","","","","","","<p style='font-size: 30px;'><strong>Okay</strong></p>","null","neutral_feedback","0","test","2","","","","","","","",""
"","","","","","","","","","","","html-button-response","11","2.0.0","621544","67106e2b92ed66266c984d36","1","42","7756","","","","","","","","","<img src= ""rock_img/I_Diorite_11.jpg"" style=""width:8cm; height:7.11cm;""><p>What type of rock is this?</p>","3","class_response","0","test","3","Gabbro","Diorite","11","false","4","3","",""
"","","","","","","","","","","","html-keyboard-response","12","2.0.0","622056","67106e2b92ed66266c984d36","1","42","null","","","","","","","","","<p style='font-size: 30px;'><strong>Okay</strong></p>","null","neutral_feedback","0","test","3","","","","","","","",""
"","","","","","","","","","","","html-button-response","13","2.0.0","626046","67106e2b92ed66266c984d36","1","42","3988","","","","","","","","","<img src= ""rock_img/I_Diorite_16.jpg"" style=""width:8cm; height:6.74cm;""><p>What type of rock is this?</p>","0","class_response","0","test","4","Andesite","Diorite","16","false","1","3","",""
"","","","","","","","","","","","html-keyboard-response","14","2.0.0","626554","67106e2b92ed66266c984d36","1","42","null","","","","","","","","","<p style='font-size: 30px;'><strong>Okay</strong></p>","null","neutral_feedback","0","test","4","","","","","","","",""
"","","","","","","","","","","","html-button-response","15","2.0.0","632325","67106e2b92ed66266c984d36","1","42","5769","","","","","","","","","<img src= ""rock_img/I_Obsidian_02.jpg"" style=""width:8cm; height:7.51cm;""><p>What type of rock is this?</p>","4","class_response","0","test","5","Obsidian","Obsidian","02","true","5","5","",""
"","","","","","","","","","","","html-keyboard-response","16","2.0.0","632831","67106e2b92ed66266c984d36","1","42","null","","","","","","","","","<p style='font-size: 30px;'><strong>Okay</strong></p>","null","neutral_feedback","0","test","5","","","","","","","",""
"","","","","","","","","","","","html-button-response","17","2.0.0","638466","67106e2b92ed66266c984d36","1","42","5632","","","","","","","","","<img src= ""rock_img/I_Andesite_02.jpg"" style=""width:8cm; height:8.5cm;""><p>What type of rock is this?</p>","1","class_response","0","test","6","Basalt","Andesite","02","false","2","1","",""
"","","","","","","","","","","","html-keyboard-response","18","2.0.0","638971","67106e2b92ed66266c984d36","1","42","null","","","","","","","","","<p style='font-size: 30px;'><strong>Okay</strong></p>","null","neutral_feedback","0","test","6","","","","","","","",""
"","","","","","","","","","","","html-button-response","19","2.0.0","644942","67106e2b92ed66266c984d36","1","42","5968","","","","","","","","","<img src= ""rock_img/I_Obsidian_05.jpg"" style=""width:8cm; height:6.33cm;""><p>What type of rock is this?</p>","3","class_response","0","test","7","Gabbro","Obsidian","05","false","4","5","",""
"","","","","","","","","","","","html-keyboard-response","20","2.0.0","645451","67106e2b92ed66266c984d36","1","42","null","","","","","","","","","<p style='font-size: 30px;'><strong>Okay</strong></p>","null","neutral_feedback","0","test","7","","","","","","","",""
"","","","","","","","","","","","html-button-response","21","2.0.0","647961","67106e2b92ed66266c984d36","1","42","2506","","","","","","","","","<img src= ""rock_img/I_Basalt_01.jpg"" style=""width:8cm; height:7.880000000000001cm;""><p>What type of rock is this?</p>","7","class_response","0","test","8","Pumice","Basalt","01","false","8","2","",""
"","","","","","","","","","","","html-keyboard-response","22","2.0.0","648466","67106e2b92ed66266c984d36","1","42","null","","","","","","","","","<p style='font-size: 30px;'><strong>Okay</strong></p>","null","neutral_feedback","0","test","8","","","","","","","",""
"","","","","","","","","","","","html-button-response","23","2.0.0","657501","67106e2b92ed66266c984d36","1","42","9034","","","","","","","","","<img src= ""rock_img/I_Peridotite_02.jpg"" style=""width:8cm; height:5.859999999999999cm;""><p>What type of rock is this?</p>","2","class_response","0","test","9","Diorite","Peridotite","02","false","3","7","",""
"","","","","","","","","","","","html-keyboard-response","24","2.0.0","658020","67106e2b92ed66266c984d36","1","42","null","","","","","","","","","<p style='font-size: 30px;'><strong>Okay</strong></p>","null","neutral_feedback","0","test","9","","","","","","","",""
"","","","","","","","","","","","html-button-response","25","2.0.0","664151","67106e2b92ed66266c984d36","1","42","6129","","","","","","","","","<img src= ""rock_img/I_Peridotite_04.jpg"" style=""width:8cm; height:6.680000000000001cm;""><p>What type of rock is this?</p>","3","class_response","0","test","10","Gabbro","Peridotite","04","false","4","7","",""
"","","","","","","","","","","","html-keyboard-response","26","2.0.0","664665","67106e2b92ed66266c984d36","1","42","null","","","","","","","","","<p style='font-size: 30px;'><strong>Okay</strong></p>","null","neutral_feedback","0","test","10","","","","","","","",""
"","","","","","","","","","","","html-button-response","27","2.0.0","670776","67106e2b92ed66266c984d36","1","42","6109","","","","","","","","","<img src= ""rock_img/I_Diorite_06.jpg"" style=""width:8cm; height:6.03cm;""><p>What type of rock is this?</p>","5","class_response","0","test","11","Pegmatite","Diorite","06","false","6","3","",""
"","","","","","","","","","","","html-keyboard-response","28","2.0.0","671286","67106e2b92ed66266c984d36","1","42","null","","","","","","","","","<p style='font-size: 30px;'><strong>Okay</strong></p>","null","neutral_feedback","0","test","11","","","","","","","",""
"","","","","","","","","","","","html-button-response","29","2.0.0","674985","67106e2b92ed66266c984d36","1","42","3697","","","","","","","","","<img src= ""rock_img/I_Pumice_03.jpg"" style=""width:8cm; height:6.64cm;""><p>What type of rock is this?</p>","0","class_response","0","test","12","Andesite","Pumice","03","false","1","8","",""
"","","","","","","","","","","","html-keyboard-response","30","2.0.0","675487","67106e2b92ed66266c984d36","1","42","null","","","","","","","","","<p style='font-size: 30px;'><strong>Okay</strong></p>","null","neutral_feedback","0","test","12","","","","","","","",""
"","","","","","","","","","","","html-button-response","31","2.0.0","677333","67106e2b92ed66266c984d36","1","42","1844","","","","","","","","","<img src= ""rock_img/I_Pumice_02.jpg"" style=""width:8cm; height:7.3999999999999995cm;""><p>What type of rock is this?</p>","4","class_response","0","test","13","Obsidian","Pumice","02","false","5","8","",""
"","","","","","","","","","","","html-keyboard-response","32","2.0.0","677837","67106e2b92ed66266c984d36","1","42","null","","","","","","","","","<p style='font-size: 30px;'><strong>Okay</strong></p>","null","neutral_feedback","0","test","13","","","","","","","",""
"","","","","","","","","","","","html-button-response","33","2.0.0","680146","67106e2b92ed66266c984d36","1","42","2305","","","","","","","","","<img src= ""rock_img/I_Obsidian_10.jpg"" style=""width:8cm; height:6.260000000000001cm;""><p>What type of rock is this?</p>","2","class_response","0","test","14","Diorite","Obsidian","10","false","3","5","",""
"","","","","","","","","","","","html-keyboard-response","34","2.0.0","680653","67106e2b92ed66266c984d36","1","42","null","","","","","","","","","<p style='font-size: 30px;'><strong>Okay</strong></p>","null","neutral_feedback","0","test","14","","","","","","","",""
"","","","","","","","","","","","html-button-response","35","2.0.0","682783","67106e2b92ed66266c984d36","1","42","2129","","","","","","","","","<img src= ""rock_img/I_Basalt_14.jpg"" style=""width:8cm; height:5.82cm;""><p>What type of rock is this?</p>","6","class_response","0","test","15","Peridotite","Basalt","14","false","7","2","",""
"","","","","","","","","","","","html-keyboard-response","36","2.0.0","683286","67106e2b92ed66266c984d36","1","42","null","","","","","","","","","<p style='font-size: 30px;'><strong>Okay</strong></p>","null","neutral_feedback","0","test","15","","","","","","","",""
"","","","","","","","","","","","html-button-response","37","2.0.0","688721","67106e2b92ed66266c984d36","1","42","5433","","","","","","","","","<img src= ""rock_img/I_Pegmatite_16.jpg"" style=""width:8cm; height:5.8cm;""><p>What type of rock is this?</p>","7","class_response","0","test","16","Pumice","Pegmatite","16","false","8","6","",""
"","","","","","","","","","","","html-keyboard-response","38","2.0.0","689234","67106e2b92ed66266c984d36","1","42","null","","","","","","","","","<p style='font-size: 30px;'><strong>Okay</strong></p>","null","neutral_feedback","0","test","16","","","","","","","",""
"","","","","","","","","","","","html-button-response","39","2.0.0","694026","67106e2b92ed66266c984d36","1","42","4788","","","","","","","","","<img src= ""rock_img/I_Peridotite_13.jpg"" style=""width:8cm; height:7.58cm;""><p>What type of rock is this?</p>","3","class_response","0","test","17","Gabbro","Peridotite","13","false","4","7","",""
"","","","","","","","","","","","html-keyboard-response","40","2.0.0","694536","67106e2b92ed66266c984d36","1","42","null","","","","","","","","","<p style='font-size: 30px;'><strong>Okay</strong></p>","null","neutral_feedback","0","test","17","","","","","","","",""
"","","","","","","","","","","","html-button-response","41","2.0.0","699357","67106e2b92ed66266c984d36","1","42","4816","","","","","","","","","<img src= ""rock_img/I_Pumice_05.jpg"" style=""width:8cm; height:7.25cm;""><p>What type of rock is this?</p>","1","class_response","0","test","18","Basalt","Pumice","05","false","2","8","",""
"","","","","","","","","","","","html-keyboard-response","42","2.0.0","699869","67106e2b92ed66266c984d36","1","42","null","","","","","","","","","<p style='font-size: 30px;'><strong>Okay</strong></p>","null","neutral_feedback","0","test","18","","","","","","","",""
"","","","","","","","","","","","html-button-response","43","2.0.0","703990","67106e2b92ed66266c984d36","1","42","4119","","","","","","","","","<img src= ""rock_img/I_Gabbro_16.jpg"" style=""width:8cm; height:6.44cm;""><p>What type of rock is this?</p>","5","class_response","0","test","19","Pegmatite","Gabbro","16","false","6","4","",""
"","","","","","","","","","","","html-keyboard-response","44","2.0.0","704502","67106e2b92ed66266c984d36","1","42","null","","","","","","","","","<p style='font-size: 30px;'><strong>Okay</strong></p>","null","neutral_feedback","0","test","19","","","","","","","",""
"","","","","","","","","","","","html-button-response","45","2.0.0","707805","67106e2b92ed66266c984d36","1","42","3300","","","","","","","","","<img src= ""rock_img/I_Andesite_06.jpg"" style=""width:8cm; height:6.840000000000001cm;""><p>What type of rock is this?</p>","0","class_response","0","test","20","Andesite","Andesite","06","true","1","1","",""
"","","","","","","","","","","","html-keyboard-response","46","2.0.0","708318","67106e2b92ed66266c984d36","1","42","null","","","","","","","","","<p style='font-size: 30px;'><strong>Okay</strong></p>","null","neutral_feedback","0","test","20","","","","","","","",""
"","","","","","","","","","","","html-button-response","47","2.0.0","711620","67106e2b92ed66266c984d36","1","42","3299","","","","","","","","","<img src= ""rock_img/I_Diorite_12.jpg"" style=""width:8cm; height:4.88cm;""><p>What type of rock is this?</p>","3","class_response","0","test","21","Gabbro","Diorite","12","false","4","3","",""
"","","","","","","","","","","","html-keyboard-response","48","2.0.0","712130","67106e2b92ed66266c984d36","1","42","null","","","","","","","","","<p style='font-size: 30px;'><strong>Okay</strong></p>","null","neutral_feedback","0","test","21","","","","","","","",""
"","","","","","","","","","","","html-button-response","49","2.0.0","713944","67106e2b92ed66266c984d36","1","42","1812","","","","","","","","","<img src= ""rock_img/I_Basalt_10.jpg"" style=""width:8cm; height:5.85cm;""><p>What type of rock is this?</p>","7","class_response","0","test","22","Pumice","Basalt","10","false","8","2","",""
"","","","","","","","","","","","html-keyboard-response","50","2.0.0","714451","67106e2b92ed66266c984d36","1","42","null","","","","","","","","","<p style='font-size: 30px;'><strong>Okay</strong></p>","null","neutral_feedback","0","test","22","","","","","","","",""
"","","","","","","","","","","","html-button-response","51","2.0.0","716078","67106e2b92ed66266c984d36","1","42","1624","","","","","","","","","<img src= ""rock_img/I_Pegmatite_05.jpg"" style=""width:8cm; height:7.300000000000001cm;""><p>What type of rock is this?</p>","2","class_response","0","test","23","Diorite","Pegmatite","05","false","3","6","",""
"","","","","","","","","","","","html-keyboard-response","52","2.0.0","716580","67106e2b92ed66266c984d36","1","42","null","","","","","","","","","<p style='font-size: 30px;'><strong>Okay</strong></p>","null","neutral_feedback","0","test","23","","","","","","","",""
"","","","","","","","","","","","html-button-response","53","2.0.0","719501","67106e2b92ed66266c984d36","1","42","2918","","","","","","","","","<img src= ""rock_img/I_Pegmatite_11.jpg"" style=""width:8cm; height:8.14cm;""><p>What type of rock is this?</p>","5","class_response","0","test","24","Pegmatite","Pegmatite","11","true","6","6","",""
"","","","","","","","","","","","html-keyboard-response","54","2.0.0","720004","67106e2b92ed66266c984d36","1","42","null","","","","","","","","","<p style='font-size: 30px;'><strong>Okay</strong></p>","null","neutral_feedback","0","test","24","","","","","","","",""
"","","","","","","","","","","","html-button-response","55","2.0.0","723088","67106e2b92ed66266c984d36","1","42","3082","","","","","","","","","<img src= ""rock_img/I_Pegmatite_06.jpg"" style=""width:8cm; height:5.17cm;""><p>What type of rock is this?</p>","1","class_response","0","test","25","Basalt","Pegmatite","06","false","2","6","",""
"","","","","","","","","","","","html-keyboard-response","56","2.0.0","723601","67106e2b92ed66266c984d36","1","42","null","","","","","","","","","<p style='font-size: 30px;'><strong>Okay</strong></p>","null","neutral_feedback","0","test","25","","","","","","","",""
"","","","","","","","","","","","html-button-response","57","2.0.0","725459","67106e2b92ed66266c984d36","1","42","1857","","","","","","","","","<img src= ""rock_img/I_Pegmatite_13.jpg"" style=""width:8cm; height:4.95cm;""><p>What type of rock is this?</p>","6","class_response","0","test","26","Peridotite","Pegmatite","13","false","7","6","",""
"","","","","","","","","","","","html-keyboard-response","58","2.0.0","725962","67106e2b92ed66266c984d36","1","42","null","","","","","","","","","<p style='font-size: 30px;'><strong>Okay</strong></p>","null","neutral_feedback","0","test","26","","","","","","","",""
"","","","","","","","","","","","html-button-response","59","2.0.0","729538","67106e2b92ed66266c984d36","1","42","3573","","","","","","","","","<img src= ""rock_img/I_Pegmatite_10.jpg"" style=""width:8cm; height:4.16cm;""><p>What type of rock is this?</p>","7","class_response","0","test","27","Pumice","Pegmatite","10","false","8","6","",""
"","","","","","","","","","","","html-keyboard-response","60","2.0.0","730049","67106e2b92ed66266c984d36","1","42","null","","","","","","","","","<p style='font-size: 30px;'><strong>Okay</strong></p>","null","neutral_feedback","0","test","27","","","","","","","",""
"","","","","","","","","","","","html-button-response","61","2.0.0","736444","67106e2b92ed66266c984d36","1","42","6392","","","","","","","","","<img src= ""rock_img/I_Diorite_15.jpg"" style=""width:8cm; height:5.54cm;""><p>What type of rock is this?</p>","4","class_response","0","test","28","Obsidian","Diorite","15","false","5","3","",""
"","","","","","","","","","","","html-keyboard-response","62","2.0.0","736953","67106e2b92ed66266c984d36","1","42","null","","","","","","","","","<p style='font-size: 30px;'><strong>Okay</strong></p>","null","neutral_feedback","0","test","28","","","","","","","",""
"","","","","","","","","","","","html-button-response","63","2.0.0","739659","67106e2b92ed66266c984d36","1","42","2701","","","","","","","","","<img src= ""rock_img/I_Basalt_02.jpg"" style=""width:8cm; height:6.45cm;""><p>What type of rock is this?</p>","0","class_response","0","test","29","Andesite","Basalt","02","false","1","2","",""
"","","","","","","","","","","","html-keyboard-response","64","2.0.0","740168","67106e2b92ed66266c984d36","1","42","null","","","","","","","","","<p style='font-size: 30px;'><strong>Okay</strong></p>","null","neutral_feedback","0","test","29","","","","","","","",""
"","","","","","","","","","","","html-button-response","65","2.0.0","744085","67106e2b92ed66266c984d36","1","42","3914","","","","","","","","","<img src= ""rock_img/I_Gabbro_03.jpg"" style=""width:8cm; height:8.52cm;""><p>What type of rock is this?</p>","2","class_response","0","test","30","Diorite","Gabbro","03","false","3","4","",""
"","","","","","","","","","","","html-keyboard-response","66","2.0.0","744602","67106e2b92ed66266c984d36","1","42","null","","","","","","","","","<p style='font-size: 30px;'><strong>Okay</strong></p>","null","neutral_feedback","0","test","30","","","","","","","",""
"","","","","","","","","","","","html-button-response","67","2.0.0","854538","67106e2b92ed66266c984d36","1","42","109934","","","","","","","","","<img src= ""rock_img/I_Obsidian_14.jpg"" style=""width:8cm; height:7.64cm;""><p>What type of rock is this?</p>","4","class_response","0","test","31","Obsidian","Obsidian","14","true","5","5","",""
"","","","","","","","","","","","html-keyboard-response","68","2.0.0","855050","67106e2b92ed66266c984d36","1","42","null","","","","","","","","","<p style='font-size: 30px;'><strong>Okay</strong></p>","null","neutral_feedback","0","test","31","","","","","","","",""
"","","","","","","","","","","","html-button-response","69","2.0.0","902330","67106e2b92ed66266c984d36","1","42","47277","","","","","","","","","<img src= ""rock_img/I_Andesite_03.jpg"" style=""width:8cm; height:5.73cm;""><p>What type of rock is this?</p>","1","class_response","0","test","32","Basalt","Andesite","03","false","2","1","",""
"","","","","","","","","","","","html-keyboard-response","70","2.0.0","902847","67106e2b92ed66266c984d36","1","42","null","","","","","","","","","<p style='font-size: 30px;'><strong>Okay</strong></p>","null","neutral_feedback","0","test","32","","","","","","","",""
"","","","","","","","","","","","html-button-response","71","2.0.0","957011","67106e2b92ed66266c984d36","1","42","54159","","","","","","","","","<img src= ""rock_img/I_Gabbro_05.jpg"" style=""width:8cm; height:6cm;""><p>What type of rock is this?</p>","0","class_response","0","test","33","Andesite","Gabbro","05","false","1","4","",""
"","","","","","","","","","","","html-keyboard-response","72","2.0.0","957528","67106e2b92ed66266c984d36","1","42","null","","","","","","","","","<p style='font-size: 30px;'><strong>Okay</strong></p>","null","neutral_feedback","0","test","33","","","","","","","",""
"","","","","","","","","","","","html-button-response","73","2.0.0","1083809","67106e2b92ed66266c984d36","1","42","126277","","","","","","","","","<img src= ""rock_img/I_Gabbro_14.jpg"" style=""width:8cm; height:8.48cm;""><p>What type of rock is this?</p>","1","class_response","0","test","34","Basalt","Gabbro","14","false","2","4","",""
"","","","","","","","","","","","html-keyboard-response","74","2.0.0","1084326","67106e2b92ed66266c984d36","1","42","null","","","","","","","","","<p style='font-size: 30px;'><strong>Okay</strong></p>","null","neutral_feedback","0","test","34","","","","","","","",""
"","","","","","","","","","","","html-button-response","75","2.0.0","1185890","67106e2b92ed66266c984d36","1","42","101562","","","","","","","","","<img src= ""rock_img/I_Andesite_09.jpg"" style=""width:8cm; height:6cm;""><p>What type of rock is this?</p>","6","class_response","0","test","35","Peridotite","Andesite","09","false","7","1","",""
"","","","","","","","","","","","html-keyboard-response","76","2.0.0","1186407","67106e2b92ed66266c984d36","1","42","null","","","","","","","","","<p style='font-size: 30px;'><strong>Okay</strong></p>","null","neutral_feedback","0","test","35","","","","","","","",""
"","","","","","","","","","","","html-button-response","77","2.0.0","1228389","67106e2b92ed66266c984d36","1","42","41976","","","","","","","","","<img src= ""rock_img/I_Basalt_06.jpg"" style=""width:8cm; height:7.06cm;""><p>What type of rock is this?</p>","4","class_response","0","test","36","Obsidian","Basalt","06","false","5","2","",""
"","","","","","","","","","","","html-keyboard-response","78","2.0.0","1228903","67106e2b92ed66266c984d36","1","42","null","","","","","","","","","<p style='font-size: 30px;'><strong>Okay</strong></p>","null","neutral_feedback","0","test","36","","","","","","","",""
"","","","","","","","","","","","html-button-response","79","2.0.0","1277139","67106e2b92ed66266c984d36","1","42","48234","","","","","","","","","<img src= ""rock_img/I_Andesite_07.jpg"" style=""width:8cm; height:5.93cm;""><p>What type of rock is this?</p>","0","class_response","0","test","37","Andesite","Andesite","07","true","1","1","",""
"","","","","","","","","","","","html-keyboard-response","80","2.0.0","1277648","67106e2b92ed66266c984d36","1","42","null","","","","","","","","","<p style='font-size: 30px;'><strong>Okay</strong></p>","null","neutral_feedback","0","test","37","","","","","","","",""
"","","","","","","","","","","","html-button-response","81","2.0.0","1356183","67106e2b92ed66266c984d36","1","42","78532","","","","","","","","","<img src= ""rock_img/I_Andesite_04.jpg"" style=""width:8cm; height:5.96cm;""><p>What type of rock is this?</p>","1","class_response","0","test","38","Basalt","Andesite","04","false","2","1","",""
"","","","","","","","","","","","html-keyboard-response","82","2.0.0","1356696","67106e2b92ed66266c984d36","1","42","null","","","","","","","","","<p style='font-size: 30px;'><strong>Okay</strong></p>","null","neutral_feedback","0","test","38","","","","","","","",""
"","","","","","","","","","","","html-button-response","83","2.0.0","1474372","67106e2b92ed66266c984d36","1","42","117673","","","","","","","","","<img src= ""rock_img/I_Gabbro_09.jpg"" style=""width:8cm; height:7.279999999999999cm;""><p>What type of rock is this?</p>","6","class_response","0","test","39","Peridotite","Gabbro","09","false","7","4","",""
"","","","","","","","","","","","html-keyboard-response","84","2.0.0","1474877","67106e2b92ed66266c984d36","1","42","null","","","","","","","","","<p style='font-size: 30px;'><strong>Okay</strong></p>","null","neutral_feedback","0","test","39","","","","","","","",""
"","","","","","","","","","","","html-button-response","85","2.0.0","1484080","67106e2b92ed66266c984d36","1","42","9201","","","","","","","","","<img src= ""rock_img/I_Gabbro_08.jpg"" style=""width:8cm; height:5.15cm;""><p>What type of rock is this?</p>","7","class_response","0","test","40","Pumice","Gabbro","08","false","8","4","",""
"","","","","","","","","","","","html-keyboard-response","86","2.0.0","1484583","67106e2b92ed66266c984d36","1","42","null","","","","","","","","","<p style='font-size: 30px;'><strong>Okay</strong></p>","null","neutral_feedback","0","test","40","","","","","","","",""
"","","","","","","","","","","","html-button-response","87","2.0.0","1535253","67106e2b92ed66266c984d36","1","42","50666","","","","","","","","","<img src= ""rock_img/I_Pumice_04.jpg"" style=""width:8cm; height:6.819999999999999cm;""><p>What type of rock is this?</p>","7","class_response","0","test","41","Pumice","Pumice","04","true","8","8","",""
"","","","","","","","","","","","html-keyboard-response","88","2.0.0","1535759","67106e2b92ed66266c984d36","1","42","null","","","","","","","","","<p style='font-size: 30px;'><strong>Okay</strong></p>","null","neutral_feedback","0","test","41","","","","","","","",""
"","","","","","","","","","","","html-button-response","89","2.0.0","1570126","67106e2b92ed66266c984d36","1","42","34364","","","","","","","","","<img src= ""rock_img/I_Diorite_02.jpg"" style=""width:8cm; height:6.27cm;""><p>What type of rock is this?</p>","4","class_response","0","test","42","Obsidian","Diorite","02","false","5","3","",""
"","","","","","","","","","","","html-keyboard-response","90","2.0.0","1570641","67106e2b92ed66266c984d36","1","42","null","","","","","","","","","<p style='font-size: 30px;'><strong>Okay</strong></p>","null","neutral_feedback","0","test","42","","","","","","","",""
"","","","","","","","","","","","html-button-response","91","2.0.0","1575641","67106e2b92ed66266c984d36","1","42","4998","","","","","","","","","<img src= ""rock_img/I_Obsidian_11.jpg"" style=""width:8cm; height:6.05cm;""><p>What type of rock is this?</p>","4","class_response","0","test","43","Obsidian","Obsidian","11","true","5","5","",""
"","","","","","","","","","","","html-keyboard-response","92","2.0.0","1576158","67106e2b92ed66266c984d36","1","42","null","","","","","","","","","<p style='font-size: 30px;'><strong>Okay</strong></p>","null","neutral_feedback","0","test","43","","","","","","","",""
"","","","","","","","","","","","html-button-response","93","2.0.0","1591324","67106e2b92ed66266c984d36","1","42","15162","","","","","","","","","<img src= ""rock_img/I_Peridotite_16.jpg"" style=""width:8cm; height:6.989999999999999cm;""><p>What type of rock is this?</p>","4","class_response","0","test","44","Obsidian","Peridotite","16","false","5","7","",""
"","","","","","","","","","","","html-keyboard-response","94","2.0.0","1591828","67106e2b92ed66266c984d36","1","42","null","","","","","","","","","<p style='font-size: 30px;'><strong>Okay</strong></p>","null","neutral_feedback","0","test","44","","","","","","","",""
"","","","","","","","","","","","html-button-response","95","2.0.0","1636807","67106e2b92ed66266c984d36","1","42","44975","","","","","","","","","<img src= ""rock_img/I_Pumice_16.jpg"" style=""width:8cm; height:6.79cm;""><p>What type of rock is this?</p>","6","class_response","0","test","45","Peridotite","Pumice","16","false","7","8","",""
"","","","","","","","","","","","html-keyboard-response","96","2.0.0","1637322","67106e2b92ed66266c984d36","1","42","null","","","","","","","","","<p style='font-size: 30px;'><strong>Okay</strong></p>","null","neutral_feedback","0","test","45","","","","","","","",""
"","","","","","","","","","","","html-button-response","97","2.0.0","1774627","67106e2b92ed66266c984d36","1","42","137303","","","","","","","","","<img src= ""rock_img/I_Peridotite_12.jpg"" style=""width:8cm; height:4.54cm;""><p>What type of rock is this?</p>","1","class_response","0","test","46","Basalt","Peridotite","12","false","2","7","",""
"","","","","","","","","","","","html-keyboard-response","98","2.0.0","1775135","67106e2b92ed66266c984d36","1","42","null","","","","","","","","","<p style='font-size: 30px;'><strong>Okay</strong></p>","null","neutral_feedback","0","test","46","","","","","","","",""
"","","","","","","","","","","","html-button-response","99","2.0.0","1836274","67106e2b92ed66266c984d36","1","42","61136","","","","","","","","","<img src= ""rock_img/I_Basalt_04.jpg"" style=""width:8cm; height:7.53cm;""><p>What type of rock is this?</p>","2","class_response","0","test","47","Diorite","Basalt","04","false","3","2","",""
"","","","","","","","","","","","html-keyboard-response","100","2.0.0","1836784","67106e2b92ed66266c984d36","1","42","null","","","","","","","","","<p style='font-size: 30px;'><strong>Okay</strong></p>","null","neutral_feedback","0","test","47","","","","","","","",""
"","","","","","","","","","","","html-button-response","101","2.0.0","1852472","67106e2b92ed66266c984d36","1","42","15684","","","","","","","","","<img src= ""rock_img/I_Peridotite_07.jpg"" style=""width:8cm; height:4.83cm;""><p>What type of rock is this?</p>","3","class_response","0","test","48","Gabbro","Peridotite","07","false","4","7","",""
"","","","","","","","","","","","html-keyboard-response","102","2.0.0","1852983","67106e2b92ed66266c984d36","1","42","null","","","","","","","","","<p style='font-size: 30px;'><strong>Okay</strong></p>","null","neutral_feedback","0","test","48","","","","","","","",""
"","","","","","","","","","","","instructions","103","2.0.0","1946242","67106e2b92ed66266c984d36","1","42","93219","","","","","","","","[{""page_index"":0,""viewing_time"":50153},{""page_index"":1,""viewing_time"":36460},{""page_index"":2,""viewing_time"":6606}]","","","","","","","","","","","","","",""
"","","","","","","","","","","","html-button-response","104","2.0.0","1948831","67106e2b92ed66266c984d36","1","42","2587","","","","","","","","","","0","start_train","","","","","","","","","","",""
"","","","","","","","","","","","html-button-response","105","2.0.0","1987715","67106e2b92ed66266c984d36","1","42","38882","","","","","","","","","<img src= ""rock_img/I_Pegmatite_12.jpg"" style=""width:8cm; height:5.7cm;""><p>What type of rock is this?</p>","2","class_response","1","train","1","Diorite","Pegmatite","12","false","3","6","",""
"","","","","","","","","","","","html-button-response","106","2.0.0","2045230","67106e2b92ed66266c984d36","1","42","57513","","","","","","","","","<img src= rock_img/I_Pegmatite_12.jpg style=""width:8cm; height:5.7cm;""><p style='font-size: 30px; color: red;'><strong>Incorrect!</strong></p><p style='font-size: 30px;'><strong>This rock is pegmatite</strong></p>","0","corr_feedback","1","train","1","","","","","","","",""
"","","","","","","","","","","","html-button-response","107","2.0.0","2089034","67106e2b92ed66266c984d36","1","42","43802","","","","","","","","","<img src= ""rock_img/I_Obsidian_07.jpg"" style=""width:8cm; height:4.76cm;""><p>What type of rock is this?</p>","4","class_response","1","train","2","Obsidian","Obsidian","07","true","5","5","",""
"","","","","","","","","","","","html-button-response","108","2.0.0","2126165","67106e2b92ed66266c984d36","1","42","37128","","","","","","","","","<img src= rock_img/I_Obsidian_07.jpg style=""width:8cm; height:4.76cm;""><p style='font-size: 30px; color: green;'><strong>Correct!</strong></p><p style='font-size: 30px;'><strong>This rock is obsidian</strong></p>","0","corr_feedback","1","train","2","","","","","","","",""
"","","","","","","","","","","","html-button-response","109","2.0.0","2199799","67106e2b92ed66266c984d36","1","42","73632","","","","","","","","","<img src= ""rock_img/I_Gabbro_15.jpg"" style=""width:8cm; height:6.29cm;""><p>What type of rock is this?</p>","0","class_response","1","train","3","Andesite","Gabbro","15","false","1","4","",""
"","","","","","","","","","","","html-button-response","110","2.0.0","2225461","67106e2b92ed66266c984d36","1","42","25655","","","","","","","","","<img src= rock_img/I_Gabbro_15.jpg style=""width:8cm; height:6.29cm;""><p style='font-size: 30px; color: red;'><strong>Incorrect!</strong></p><p style='font-size: 30px;'><strong>This rock is gabbro</strong></p>","0","corr_feedback","1","train","3","","","","","","","",""
"","","","","","","","","","","","html-button-response","111","2.0.0","2238665","67106e2b92ed66266c984d36","1","42","13202","","","","","","","","","<img src= ""rock_img/I_Peridotite_05.jpg"" style=""width:8cm; height:7.1499999999999995cm;""><p>What type of rock is this?</p>","6","class_response","1","train","4","Peridotite","Peridotite","05","true","7","7","",""
"","","","","","","","","","","","html-button-response","112","2.0.0","2268766","67106e2b92ed66266c984d36","1","42","30099","","","","","","","","","<img src= rock_img/I_Peridotite_05.jpg style=""width:8cm; height:7.1499999999999995cm;""><p style='font-size: 30px; color: green;'><strong>Correct!</strong></p><p style='font-size: 30px;'><strong>This rock is peridotite</strong></p>","0","corr_feedback","1","train","4","","","","","","","",""
"","","","","","","","","","","","html-button-response","113","2.0.0","2277889","67106e2b92ed66266c984d36","1","42","9121","","","","","","","","","<img src= ""rock_img/I_Diorite_07.jpg"" style=""width:8cm; height:5.239999999999999cm;""><p>What type of rock is this?</p>","5","class_response","1","train","5","Pegmatite","Diorite","07","false","6","3","",""
"","","","","","","","","","","","html-button-response","114","2.0.0","2329372","67106e2b92ed66266c984d36","1","42","51481","","","","","","","","","<img src= rock_img/I_Diorite_07.jpg style=""width:8cm; height:5.239999999999999cm;""><p style='font-size: 30px; color: red;'><strong>Incorrect!</strong></p><p style='font-size: 30px;'><strong>This rock is diorite</strong></p>","0","corr_feedback","1","train","5","","","","","","","",""
"","","","","","","","","","","","html-button-response","115","2.0.0","2357497","67106e2b92ed66266c984d36","1","42","28123","","","","","","","","","<img src= ""rock_img/I_Obsidian_09.jpg"" style=""width:8cm; height:5cm;""><p>What type of rock is this?</p>","4","class_response","1","train","6","Obsidian","Obsidian","09","true","5","5","",""
"","","","","","","","","","","","html-button-response","116","2.0.0","2393537","67106e2b92ed66266c984d36","1","42","36038","","","","","","","","","<img src= rock_img/I_Obsidian_09.jpg style=""width:8cm; height:5cm;""><p style='font-size: 30px; color: green;'><strong>Correct!</strong></p><p style='font-size: 30px;'><strong>This rock is obsidian</strong></p>","0","corr_feedback","1","train","6","","","","","","","",""
"","","","","","","","","","","","html-button-response","117","2.0.0","2574091","67106e2b92ed66266c984d36","1","42","180552","","","","","","","","","<img src= ""rock_img/I_Diorite_10.jpg"" style=""width:8cm; height:5.949999999999999cm;""><p>What type of rock is this?</p>","1","class_response","1","train","7","Basalt","Diorite","10","false","2","3","",""
"","","","","","","","","","","","html-button-response","118","2.0.0","2615358","67106e2b92ed66266c984d36","1","42","41264","","","","","","","","","<img src= rock_img/I_Diorite_10.jpg style=""width:8cm; height:5.949999999999999cm;""><p style='font-size: 30px; color: red;'><strong>Incorrect!</strong></p><p style='font-size: 30px;'><strong>This rock is diorite</strong></p>","0","corr_feedback","1","train","7","","","","","","","",""
"","","","","","","","","","","","html-button-response","119","2.0.0","2615581","67106e2b92ed66266c984d36","1","42","220","","","","","","","","","<img src= ""rock_img/I_Diorite_08.jpg"" style=""width:8cm; height:6.37cm;""><p>What type of rock is this?</p>","5","class_response","1","train","8","Pegmatite","Diorite","08","false","6","3","",""
"","","","","","","","","","","","html-button-response","120","2.0.0","2625196","67106e2b92ed66266c984d36","1","42","9613","","","","","","","","","<img src= rock_img/I_Diorite_08.jpg style=""width:8cm; height:6.37cm;""><p style='font-size: 30px; color: red;'><strong>Incorrect!</strong></p><p style='font-size: 30px;'><strong>This rock is diorite</strong></p>","0","corr_feedback","1","train","8","","","","","","","",""
"","","","","","","","","","","","html-button-response","121","2.0.0","2630365","67106e2b92ed66266c984d36","1","42","5167","","","","","","","","","<img src= ""rock_img/I_Basalt_12.jpg"" style=""width:8cm; height:6.010000000000001cm;""><p>What type of rock is this?</p>","6","class_response","1","train","9","Peridotite","Basalt","12","false","7","2","",""
"","","","","","","","","","","","html-button-response","122","2.0.0","2655130","67106e2b92ed66266c984d36","1","42","24763","","","","","","","","","<img src= rock_img/I_Basalt_12.jpg style=""width:8cm; height:6.010000000000001cm;""><p style='font-size: 30px; color: red;'><strong>Incorrect!</strong></p><p style='font-size: 30px;'><strong>This rock is basalt</strong></p>","0","corr_feedback","1","train","9","","","","","","","",""
"","","","","","","","","","","","html-button-response","123","2.0.0","2657813","67106e2b92ed66266c984d36","1","42","2681","","","","","","","","","<img src= ""rock_img/I_Diorite_14.jpg"" style=""width:8cm; height:5.71cm;""><p>What type of rock is this?</p>","2","class_response","1","train","10","Diorite","Diorite","14","true","3","3","",""
"","","","","","","","","","","","html-button-response","124","2.0.0","2659616","67106e2b92ed66266c984d36","1","42","1801","","","","","","","","","<img src= rock_img/I_Diorite_14.jpg style=""width:8cm; height:5.71cm;""><p style='font-size: 30px; color: green;'><strong>Correct!</strong></p><p style='font-size: 30px;'><strong>This rock is diorite</strong></p>","0","corr_feedback","1","train","10","","","","","","","",""
"","","","","","","","","","","","html-button-response","125","2.0.0","2665752","67106e2b92ed66266c984d36","1","42","6133","","","","","","","","","<img src= ""rock_img/I_Basalt_05.jpg"" style=""width:8cm; height:8.18cm;""><p>What type of rock is this?</p>","4","class_response","1","train","11","Obsidian","Basalt","05","false","5","2","",""
"","","","","","","","","","","","html-button-response","126","2.0.0","2711513","67106e2b92ed66266c984d36","1","42","45759","","","","","","","","","<img src= rock_img/I_Basalt_05.jpg style=""width:8cm; height:8.18cm;""><p style='font-size: 30px; color: red;'><strong>Incorrect!</strong></p><p style='font-size: 30px;'><strong>This rock is basalt</strong></p>","0","corr_feedback","1","train","11","","","","","","","",""
"","","","","","","","","","","","html-button-response","127","2.0.0","2717263","67106e2b92ed66266c984d36","1","42","5748","","","","","","","","","<img src= ""rock_img/I_Pegmatite_07.jpg"" style=""width:8cm; height:6.7cm;""><p>What type of rock is this?</p>","3","class_response","1","train","12","Gabbro","Pegmatite","07","false","4","6","",""
"","","","","","","","","","","","html-button-response","128","2.0.0","2719911","67106e2b92ed66266c984d36","1","42","2646","","","","","","","","","<img src= rock_img/I_Pegmatite_07.jpg style=""width:8cm; height:6.7cm;""><p style='font-size: 30px; color: red;'><strong>Incorrect!</strong></p><p style='font-size: 30px;'><strong>This rock is pegmatite</strong></p>","0","corr_feedback","1","train","12","","","","","","","",""
"","","","","","","","","","","","html-button-response","129","2.0.0","2722869","67106e2b92ed66266c984d36","1","42","2955","","","","","","","","","<img src= ""rock_img/I_Pegmatite_03.jpg"" style=""width:8cm; height:5.239999999999999cm;""><p>What type of rock is this?</p>","2","class_response","1","train","13","Diorite","Pegmatite","03","false","3","6","",""
"","","","","","","","","","","","html-button-response","130","2.0.0","2724912","67106e2b92ed66266c984d36","1","42","2041","","","","","","","","","<img src= rock_img/I_Pegmatite_03.jpg style=""width:8cm; height:5.239999999999999cm;""><p style='font-size: 30px; color: red;'><strong>Incorrect!</strong></p><p style='font-size: 30px;'><strong>This rock is pegmatite</strong></p>","0","corr_feedback","1","train","13","","","","","","","",""
"","","","","","","","","","","","html-button-response","131","2.0.0","2726820","67106e2b92ed66266c984d36","1","42","1905","","","","","","","","","<img src= ""rock_img/I_Diorite_09.jpg"" style=""width:8cm; height:5.27cm;""><p>What type of rock is this?</p>","2","class_response","1","train","14","Diorite","Diorite","09","true","3","3","",""
"","","","","","","","","","","","html-button-response","132","2.0.0","2728565","67106e2b92ed66266c984d36","1","42","1743","","","","","","","","","<img src= rock_img/I_Diorite_09.jpg style=""width:8cm; height:5.27cm;""><p style='font-size: 30px; color: green;'><strong>Correct!</strong></p><p style='font-size: 30px;'><strong>This rock is diorite</strong></p>","0","corr_feedback","1","train","14","","","","","","","",""
"","","","","","","","","","","","html-button-response","133","2.0.0","2730921","67106e2b92ed66266c984d36","1","42","2354","","","","","","","","","<img src= ""rock_img/I_Obsidian_12.jpg"" style=""width:8cm; height:6.53cm;""><p>What type of rock is this?</p>","4","class_response","1","train","15","Obsidian","Obsidian","12","true","5","5","",""
"","","","","","","","","","","","html-button-response","134","2.0.0","2763509","67106e2b92ed66266c984d36","1","42","32586","","","","","","","","","<img src= rock_img/I_Obsidian_12.jpg style=""width:8cm; height:6.53cm;""><p style='font-size: 30px; color: green;'><strong>Correct!</strong></p><p style='font-size: 30px;'><strong>This rock is obsidian</strong></p>","0","corr_feedback","1","train","15","","","","","","","",""
"","","","","","","","","","","","html-button-response","135","2.0.0","2766172","67106e2b92ed66266c984d36","1","42","2661","","","","","","","","","<img src= ""rock_img/I_Pegmatite_09.jpg"" style=""width:8cm; height:4.03cm;""><p>What type of rock is this?</p>","5","class_response","1","train","16","Pegmatite","Pegmatite","09","true","6","6","",""
"","","","","","","","","","","","html-button-response","136","2.0.0","2794473","67106e2b92ed66266c984d36","1","42","28299","","","","","","","","","<img src= rock_img/I_Pegmatite_09.jpg style=""width:8cm; height:4.03cm;""><p style='font-size: 30px; color: green;'><strong>Correct!</strong></p><p style='font-size: 30px;'><strong>This rock is pegmatite</strong></p>","0","corr_feedback","1","train","16","","","","","","","",""
"","","","","","","","","","","","html-button-response","137","2.0.0","2822415","67106e2b92ed66266c984d36","1","42","27940","","","","","","","","","<img src= ""rock_img/I_Peridotite_14.jpg"" style=""width:8cm; height:5.3cm;""><p>What type of rock is this?</p>","3","class_response","1","train","17","Gabbro","Peridotite","14","false","4","7","",""
"","","","","","","","","","","","html-button-response","138","2.0.0","2847618","67106e2b92ed66266c984d36","1","42","25201","","","","","","","","","<img src= rock_img/I_Peridotite_14.jpg style=""width:8cm; height:5.3cm;""><p style='font-size: 30px; color: red;'><strong>Incorrect!</strong></p><p style='font-size: 30px;'><strong>This rock is peridotite</strong></p>","0","corr_feedback","1","train","17","","","","","","","",""
"","","","","","","","","","","","html-button-response","139","2.0.0","2854477","67106e2b92ed66266c984d36","1","42","6856","","","","","","","","","<img src= ""rock_img/I_Peridotite_15.jpg"" style=""width:8cm; height:6cm;""><p>What type of rock is this?</p>","5","class_response","1","train","18","Pegmatite","Peridotite","15","false","6","7","",""
"","","","","","","","","","","","html-button-response","140","2.0.0","2862000","67106e2b92ed66266c984d36","1","42","7522","","","","","","","","","<img src= rock_img/I_Peridotite_15.jpg style=""width:8cm; height:6cm;""><p style='font-size: 30px; color: red;'><strong>Incorrect!</strong></p><p style='font-size: 30px;'><strong>This rock is peridotite</strong></p>","0","corr_feedback","1","train","18","","","","","","","",""
"","","","","","","","","","","","html-button-response","141","2.0.0","2894636","67106e2b92ed66266c984d36","1","42","32633","","","","","","","","","<img src= ""rock_img/I_Basalt_09.jpg"" style=""width:8cm; height:6.2cm;""><p>What type of rock is this?</p>","3","class_response","1","train","19","Gabbro","Basalt","09","false","4","2","",""
"","","","","","","","","","","","html-button-response","142","2.0.0","2911053","67106e2b92ed66266c984d36","1","42","16415","","","","","","","","","<img src= rock_img/I_Basalt_09.jpg style=""width:8cm; height:6.2cm;""><p style='font-size: 30px; color: red;'><strong>Incorrect!</strong></p><p style='font-size: 30px;'><strong>This rock is basalt</strong></p>","0","corr_feedback","1","train","19","","","","","","","",""
"","","","","","","","","","","","html-button-response","143","2.0.0","2920840","67106e2b92ed66266c984d36","1","42","9784","","","","","","","","","<img src= ""rock_img/I_Andesite_01.jpg"" style=""width:8cm; height:5.87cm;""><p>What type of rock is this?</p>","4","class_response","1","train","20","Obsidian","Andesite","01","false","5","1","",""
"","","","","","","","","","","","html-button-response","144","2.0.0","2956089","67106e2b92ed66266c984d36","1","42","35247","","","","","","","","","<img src= rock_img/I_Andesite_01.jpg style=""width:8cm; height:5.87cm;""><p style='font-size: 30px; color: red;'><strong>Incorrect!</strong></p><p style='font-size: 30px;'><strong>This rock is andesite</strong></p>","0","corr_feedback","1","train","20","","","","","","","",""
"","","","","","","","","","","","html-button-response","145","2.0.0","2965628","67106e2b92ed66266c984d36","1","42","9536","","","","","","","","","<img src= ""rock_img/I_Andesite_11.jpg"" style=""width:8cm; height:4.92cm;""><p>What type of rock is this?</p>","1","class_response","1","train","21","Basalt","Andesite","11","false","2","1","",""
"","","","","","","","","","","","html-button-response","146","2.0.0","2967590","67106e2b92ed66266c984d36","1","42","1960","","","","","","","","","<img src= rock_img/I_Andesite_11.jpg style=""width:8cm; height:4.92cm;""><p style='font-size: 30px; color: red;'><strong>Incorrect!</strong></p><p style='font-size: 30px;'><strong>This rock is andesite</strong></p>","0","corr_feedback","1","train","21","","","","","","","",""
"","","","","","","","","","","","html-button-response","147","2.0.0","2979550","67106e2b92ed66266c984d36","1","42","11958","","","","","","","","","<img src= ""rock_img/I_Peridotite_10.jpg"" style=""width:8cm; height:5.390000000000001cm;""><p>What type of rock is this?</p>","5","class_response","1","train","22","Pegmatite","Peridotite","10","false","6","7","",""
"","","","","","","","","","","","html-button-response","148","2.0.0","2981416","67106e2b92ed66266c984d36","1","42","1864","","","","","","","","","<img src= rock_img/I_Peridotite_10.jpg style=""width:8cm; height:5.390000000000001cm;""><p style='font-size: 30px; color: red;'><strong>Incorrect!</strong></p><p style='font-size: 30px;'><strong>This rock is peridotite</strong></p>","0","corr_feedback","1","train","22","","","","","","","",""
"","","","","","","","","","","","html-button-response","149","2.0.0","3073674","67106e2b92ed66266c984d36","1","42","92257","","","","","","","","","<img src= ""rock_img/I_Andesite_10.jpg"" style=""width:8cm; height:4.16cm;""><p>What type of rock is this?</p>","0","class_response","1","train","23","Andesite","Andesite","10","true","1","1","",""
"","","","","","","","","","","","html-button-response","150","2.0.0","3076724","67106e2b92ed66266c984d36","1","42","3048","","","","","","","","","<img src= rock_img/I_Andesite_10.jpg style=""width:8cm; height:4.16cm;""><p style='font-size: 30px; color: green;'><strong>Correct!</strong></p><p style='font-size: 30px;'><strong>This rock is andesite</strong></p>","0","corr_feedback","1","train","23","","","","","","","",""
"","","","","","","","","","","","html-button-response","151","2.0.0","3098403","67106e2b92ed66266c984d36","1","42","21675","","","","","","","","","<img src= ""rock_img/I_Andesite_16.jpg"" style=""width:8cm; height:6.010000000000001cm;""><p>What type of rock is this?</p>","1","class_response","1","train","24","Basalt","Andesite","16","false","2","1","",""
"","","","","","","","","","","","html-button-response","152","2.0.0","3100393","67106e2b92ed66266c984d36","1","42","1989","","","","","","","","","<img src= rock_img/I_Andesite_16.jpg style=""width:8cm; height:6.010000000000001cm;""><p style='font-size: 30px; color: red;'><strong>Incorrect!</strong></p><p style='font-size: 30px;'><strong>This rock is andesite</strong></p>","0","corr_feedback","1","train","24","","","","","","","",""
"","","","","","","","","","","","html-button-response","153","2.0.0","3103138","67106e2b92ed66266c984d36","1","42","2743","","","","","","","","","<img src= ""rock_img/I_Gabbro_01.jpg"" style=""width:8cm; height:5.21cm;""><p>What type of rock is this?</p>","0","class_response","1","train","25","Andesite","Gabbro","01","false","1","4","",""
"","","","","","","","","","","","html-button-response","154","2.0.0","3107055","67106e2b92ed66266c984d36","1","42","3915","","","","","","","","","<img src= rock_img/I_Gabbro_01.jpg style=""width:8cm; height:5.21cm;""><p style='font-size: 30px; color: red;'><strong>Incorrect!</strong></p><p style='font-size: 30px;'><strong>This rock is gabbro</strong></p>","0","corr_feedback","1","train","25","","","","","","","",""
"","","","","","","","","","","","html-button-response","155","2.0.0","3109889","67106e2b92ed66266c984d36","1","42","2832","","","","","","","","","<img src= ""rock_img/I_Andesite_14.jpg"" style=""width:8cm; height:5.449999999999999cm;""><p>What type of rock is this?</p>","3","class_response","1","train","26","Gabbro","Andesite","14","false","4","1","",""
"","","","","","","","","","","","html-button-response","156","2.0.0","3111619","67106e2b92ed66266c984d36","1","42","1728","","","","","","","","","<img src= rock_img/I_Andesite_14.jpg style=""width:8cm; height:5.449999999999999cm;""><p style='font-size: 30px; color: red;'><strong>Incorrect!</strong></p><p style='font-size: 30px;'><strong>This rock is andesite</strong></p>","0","corr_feedback","1","train","26","","","","","","","",""
"","","","","","","","","","","","html-button-response","157","2.0.0","3121031","67106e2b92ed66266c984d36","1","42","9409","","","","","","","","","<img src= ""rock_img/I_Peridotite_06.jpg"" style=""width:8cm; height:7.53cm;""><p>What type of rock is this?</p>","0","class_response","1","train","27","Andesite","Peridotite","06","false","1","7","",""
"","","","","","","","","","","","html-button-response","158","2.0.0","3127186","67106e2b92ed66266c984d36","1","42","6152","","","","","","","","","<img src= rock_img/I_Peridotite_06.jpg style=""width:8cm; height:7.53cm;""><p style='font-size: 30px; color: red;'><strong>Incorrect!</strong></p><p style='font-size: 30px;'><strong>This rock is peridotite</strong></p>","0","corr_feedback","1","train","27","","","","","","","",""
"","","","","","","","","","","","html-button-response","159","2.0.0","3131819","67106e2b92ed66266c984d36","1","42","4631","","","","","","","","","<img src= ""rock_img/I_Peridotite_08.jpg"" style=""width:8cm; height:6.7cm;""><p>What type of rock is this?</p>","5","class_response","1","train","28","Pegmatite","Peridotite","08","false","6","7","",""
"","","","","","","","","","","","html-button-response","160","2.0.0","3133318","67106e2b92ed66266c984d36","1","42","1497","","","","","","","","","<img src= rock_img/I_Peridotite_08.jpg style=""width:8cm; height:6.7cm;""><p style='font-size: 30px; color: red;'><strong>Incorrect!</strong></p><p style='font-size: 30px;'><strong>This rock is peridotite</strong></p>","0","corr_feedback","1","train","28","","","","","","","",""
"","","","","","","","","","","","html-button-response","161","2.0.0","3233447","67106e2b92ed66266c984d36","1","42","100126","","","","","","","","","<img src= ""rock_img/I_Andesite_05.jpg"" style=""width:8cm; height:4.12cm;""><p>What type of rock is this?</p>","4","class_response","1","train","29","Obsidian","Andesite","05","false","5","1","",""
"","","","","","","","","","","","html-button-response","162","2.0.0","3235686","67106e2b92ed66266c984d36","1","42","2238","","","","","","","","","<img src= rock_img/I_Andesite_05.jpg style=""width:8cm; height:4.12cm;""><p style='font-size: 30px; color: red;'><strong>Incorrect!</strong></p><p style='font-size: 30px;'><strong>This rock is andesite</strong></p>","0","corr_feedback","1","train","29","","","","","","","",""
"","","","","","","","","","","","html-button-response","163","2.0.0","3239784","67106e2b92ed66266c984d36","1","42","4096","","","","","","","","","<img src= ""rock_img/I_Gabbro_10.jpg"" style=""width:8cm; height:5.680000000000001cm;""><p>What type of rock is this?</p>","1","class_response","1","train","30","Basalt","Gabbro","10","false","2","4","",""
"","","","","","","","","","","","html-button-response","164","2.0.0","3243563","67106e2b92ed66266c984d36","1","42","3777","","","","","","","","","<img src= rock_img/I_Gabbro_10.jpg style=""width:8cm; height:5.680000000000001cm;""><p style='font-size: 30px; color: red;'><strong>Incorrect!</strong></p><p style='font-size: 30px;'><strong>This rock is gabbro</strong></p>","0","corr_feedback","1","train","30","","","","","","","",""
"","","","","","","","","","","","html-button-response","165","2.0.0","3246176","67106e2b92ed66266c984d36","1","42","2610","","","","","","","","","<img src= ""rock_img/I_Basalt_08.jpg"" style=""width:8cm; height:10.44cm;""><p>What type of rock is this?</p>","4","class_response","1","train","31","Obsidian","Basalt","08","false","5","2","",""
"","","","","","","","","","","","html-button-response","166","2.0.0","3248951","67106e2b92ed66266c984d36","1","42","2774","","","","","","","","","<img src= rock_img/I_Basalt_08.jpg style=""width:8cm; height:10.44cm;""><p style='font-size: 30px; color: red;'><strong>Incorrect!</strong></p><p style='font-size: 30px;'><strong>This rock is basalt</strong></p>","0","corr_feedback","1","train","31","","","","","","","",""
"","","","","","","","","","","","html-button-response","167","2.0.0","3251703","67106e2b92ed66266c984d36","1","42","2749","","","","","","","","","<img src= ""rock_img/I_Basalt_16.jpg"" style=""width:8cm; height:7.659999999999999cm;""><p>What type of rock is this?</p>","2","class_response","1","train","32","Diorite","Basalt","16","false","3","2","",""
"","","","","","","","","","","","html-button-response","168","2.0.0","3253175","67106e2b92ed66266c984d36","1","42","1469","","","","","","","","","<img src= rock_img/I_Basalt_16.jpg style=""width:8cm; height:7.659999999999999cm;""><p style='font-size: 30px; color: red;'><strong>Incorrect!</strong></p><p style='font-size: 30px;'><strong>This rock is basalt</strong></p>","0","corr_feedback","1","train","32","","","","","","","",""
"","","","","","","","","","","","html-button-response","169","2.0.0","3255805","67106e2b92ed66266c984d36","1","42","2628","","","","","","","","","<img src= ""rock_img/I_Diorite_13.jpg"" style=""width:8cm; height:6.29cm;""><p>What type of rock is this?</p>","2","class_response","1","train","33","Diorite","Diorite","13","true","3","3","",""
"","","","","","","","","","","","html-button-response","170","2.0.0","3257836","67106e2b92ed66266c984d36","1","42","2029","","","","","","","","","<img src= rock_img/I_Diorite_13.jpg style=""width:8cm; height:6.29cm;""><p style='font-size: 30px; color: green;'><strong>Correct!</strong></p><p style='font-size: 30px;'><strong>This rock is diorite</strong></p>","0","corr_feedback","1","train","33","","","","","","","",""
"","","","","","","","","","","","html-button-response","171","2.0.0","3260095","67106e2b92ed66266c984d36","1","42","2257","","","","","","","","","<img src= ""rock_img/I_Obsidian_08.jpg"" style=""width:8cm; height:7.39cm;""><p>What type of rock is this?</p>","4","class_response","1","train","34","Obsidian","Obsidian","08","true","5","5","",""
"","","","","","","","","","","","html-button-response","172","2.0.0","3261831","67106e2b92ed66266c984d36","1","42","1734","","","","","","","","","<img src= rock_img/I_Obsidian_08.jpg style=""width:8cm; height:7.39cm;""><p style='font-size: 30px; color: green;'><strong>Correct!</strong></p><p style='font-size: 30px;'><strong>This rock is obsidian</strong></p>","0","corr_feedback","1","train","34","","","","","","","",""
"","","","","","","","","","","","html-button-response","173","2.0.0","3272205","67106e2b92ed66266c984d36","1","42","10372","","","","","","","","","<img src= ""rock_img/I_Pumice_08.jpg"" style=""width:8cm; height:6.67cm;""><p>What type of rock is this?</p>","0","class_response","1","train","35","Andesite","Pumice","08","false","1","8","",""
"","","","","","","","","","","","html-button-response","174","2.0.0","3275672","67106e2b92ed66266c984d36","1","42","3465","","","","","","","","","<img src= rock_img/I_Pumice_08.jpg style=""width:8cm; height:6.67cm;""><p style='font-size: 30px; color: red;'><strong>Incorrect!</strong></p><p style='font-size: 30px;'><strong>This rock is pumice</strong></p>","0","corr_feedback","1","train","35","","","","","","","",""
"","","","","","","","","","","","html-button-response","175","2.0.0","3282798","67106e2b92ed66266c984d36","1","42","7123","","","","","","","","","<img src= ""rock_img/I_Gabbro_12.jpg"" style=""width:8cm; height:7.800000000000001cm;""><p>What type of rock is this?</p>","6","class_response","1","train","36","Peridotite","Gabbro","12","false","7","4","",""
"","","","","","","","","","","","html-button-response","176","2.0.0","3294291","67106e2b92ed66266c984d36","1","42","11491","","","","","","","","","<img src= rock_img/I_Gabbro_12.jpg style=""width:8cm; height:7.800000000000001cm;""><p style='font-size: 30px; color: red;'><strong>Incorrect!</strong></p><p style='font-size: 30px;'><strong>This rock is gabbro</strong></p>","0","corr_feedback","1","train","36","","","","","","","",""
"","","","","","","","","","","","html-button-response","177","2.0.0","3300722","67106e2b92ed66266c984d36","1","42","6428","","","","","","","","","<img src= ""rock_img/I_Pegmatite_15.jpg"" style=""width:8cm; height:6cm;""><p>What type of rock is this?</p>","5","class_response","1","train","37","Pegmatite","Pegmatite","15","true","6","6","",""
"","","","","","","","","","","","html-button-response","178","2.0.0","3302645","67106e2b92ed66266c984d36","1","42","1921","","","","","","","","","<img src= rock_img/I_Pegmatite_15.jpg style=""width:8cm; height:6cm;""><p style='font-size: 30px; color: green;'><strong>Correct!</strong></p><p style='font-size: 30px;'><strong>This rock is pegmatite</strong></p>","0","corr_feedback","1","train","37","","","","","","","",""
"","","","","","","","","","","","html-button-response","179","2.0.0","3311135","67106e2b92ed66266c984d36","1","42","8487","","","","","","","","","<img src= ""rock_img/I_Pumice_13.jpg"" style=""width:8cm; height:8.200000000000001cm;""><p>What type of rock is this?</p>","3","class_response","1","train","38","Gabbro","Pumice","13","false","4","8","",""
"","","","","","","","","","","","html-button-response","180","2.0.0","3313214","67106e2b92ed66266c984d36","1","42","2076","","","","","","","","","<img src= rock_img/I_Pumice_13.jpg style=""width:8cm; height:8.200000000000001cm;""><p style='font-size: 30px; color: red;'><strong>Incorrect!</strong></p><p style='font-size: 30px;'><strong>This rock is pumice</strong></p>","0","corr_feedback","1","train","38","","","","","","","",""
"","","","","","","","","","","","html-button-response","181","2.0.0","3318056","67106e2b92ed66266c984d36","1","42","4840","","","","","","","","","<img src= ""rock_img/I_Pumice_15.jpg"" style=""width:8cm; height:7.86cm;""><p>What type of rock is this?</p>","7","class_response","1","train","39","Pumice","Pumice","15","true","8","8","",""
"","","","","","","","","","","","html-button-response","182","2.0.0","3320231","67106e2b92ed66266c984d36","1","42","2172","","","","","","","","","<img src= rock_img/I_Pumice_15.jpg style=""width:8cm; height:7.86cm;""><p style='font-size: 30px; color: green;'><strong>Correct!</strong></p><p style='font-size: 30px;'><strong>This rock is pumice</strong></p>","0","corr_feedback","1","train","39","","","","","","","",""
"","","","","","","","","","","","html-button-response","183","2.0.0","3371778","67106e2b92ed66266c984d36","1","42","51545","","","","","","","","","<img src= ""rock_img/I_Gabbro_13.jpg"" style=""width:8cm; height:5.08cm;""><p>What type of rock is this?</p>","0","class_response","1","train","40","Andesite","Gabbro","13","false","1","4","",""
"","","","","","","","","","","","html-button-response","184","2.0.0","3374522","67106e2b92ed66266c984d36","1","42","2742","","","","","","","","","<img src= rock_img/I_Gabbro_13.jpg style=""width:8cm; height:5.08cm;""><p style='font-size: 30px; color: red;'><strong>Incorrect!</strong></p><p style='font-size: 30px;'><strong>This rock is gabbro</strong></p>","0","corr_feedback","1","train","40","","","","","","","",""
"","","","","","","","","","","","html-button-response","185","2.0.0","3377539","67106e2b92ed66266c984d36","1","42","3015","","","","","","","","","<img src= ""rock_img/I_Pumice_14.jpg"" style=""width:8cm; height:6.39cm;""><p>What type of rock is this?</p>","7","class_response","1","train","41","Pumice","Pumice","14","true","8","8","",""
"","","","","","","","","","","","html-button-response","186","2.0.0","3379436","67106e2b92ed66266c984d36","1","42","1895","","","","","","","","","<img src= rock_img/I_Pumice_14.jpg style=""width:8cm; height:6.39cm;""><p style='font-size: 30px; color: green;'><strong>Correct!</strong></p><p style='font-size: 30px;'><strong>This rock is pumice</strong></p>","0","corr_feedback","1","train","41","","","","","","","",""
"","","","","","","","","","","","html-button-response","187","2.0.0","3392271","67106e2b92ed66266c984d36","1","42","12832","","","","","","","","","<img src= ""rock_img/I_Pumice_09.jpg"" style=""width:8cm; height:6.44cm;""><p>What type of rock is this?</p>","3","class_response","1","train","42","Gabbro","Pumice","09","false","4","8","",""
"","","","","","","","","","","","html-button-response","188","2.0.0","3394613","67106e2b92ed66266c984d36","1","42","2340","","","","","","","","","<img src= rock_img/I_Pumice_09.jpg style=""width:8cm; height:6.44cm;""><p style='font-size: 30px; color: red;'><strong>Incorrect!</strong></p><p style='font-size: 30px;'><strong>This rock is pumice</strong></p>","0","corr_feedback","1","train","42","","","","","","","",""
"","","","","","","","","","","","html-button-response","189","2.0.0","3411661","67106e2b92ed66266c984d36","1","42","17045","","","","","","","","","<img src= ""rock_img/I_Basalt_11.jpg"" style=""width:8cm; height:5.359999999999999cm;""><p>What type of rock is this?</p>","6","class_response","1","train","43","Peridotite","Basalt","11","false","7","2","",""
"","","","","","","","","","","","html-button-response","190","2.0.0","3412736","67106e2b92ed66266c984d36","1","42","1073","","","","","","","","","<img src= rock_img/I_Basalt_11.jpg style=""width:8cm; height:5.359999999999999cm;""><p style='font-size: 30px; color: red;'><strong>Incorrect!</strong></p><p style='font-size: 30px;'><strong>This rock is basalt</strong></p>","0","corr_feedback","1","train","43","","","","","","","",""
"","","","","","","","","","","","html-button-response","191","2.0.0","3424122","67106e2b92ed66266c984d36","1","42","11383","","","","","","","","","<img src= ""rock_img/I_Pegmatite_08.jpg"" style=""width:8cm; height:7.68cm;""><p>What type of rock is this?</p>","0","class_response","1","train","44","Andesite","Pegmatite","08","false","1","6","",""
"","","","","","","","","","","","html-button-response","192","2.0.0","3429287","67106e2b92ed66266c984d36","1","42","5164","","","","","","","","","<img src= rock_img/I_Pegmatite_08.jpg style=""width:8cm; height:7.68cm;""><p style='font-size: 30px; color: red;'><strong>Incorrect!</strong></p><p style='font-size: 30px;'><strong>This rock is pegmatite</strong></p>","0","corr_feedback","1","train","44","","","","","","","",""
"","","","","","","","","","","","html-button-response","193","2.0.0","3442381","67106e2b92ed66266c984d36","1","42","13090","","","","","","","","","<img src= ""rock_img/I_Pumice_06.jpg"" style=""width:8cm; height:6.9399999999999995cm;""><p>What type of rock is this?</p>","7","class_response","1","train","45","Pumice","Pumice","06","true","8","8","",""
"","","","","","","","","","","","html-button-response","194","2.0.0","3473107","67106e2b92ed66266c984d36","1","42","30724","","","","","","","","","<img src= rock_img/I_Pumice_06.jpg style=""width:8cm; height:6.9399999999999995cm;""><p style='font-size: 30px; color: green;'><strong>Correct!</strong></p><p style='font-size: 30px;'><strong>This rock is pumice</strong></p>","0","corr_feedback","1","train","45","","","","","","","",""
"","","","","","","","","","","","html-button-response","195","2.0.0","3488284","67106e2b92ed66266c984d36","1","42","15174","","","","","","","","","<img src= ""rock_img/I_Obsidian_16.jpg"" style=""width:8cm; height:9.3cm;""><p>What type of rock is this?</p>","1","class_response","1","train","46","Basalt","Obsidian","16","false","2","5","",""
"","","","","","","","","","","","html-button-response","196","2.0.0","3490719","67106e2b92ed66266c984d36","1","42","2434","","","","","","","","","<img src= rock_img/I_Obsidian_16.jpg style=""width:8cm; height:9.3cm;""><p style='font-size: 30px; color: red;'><strong>Incorrect!</strong></p><p style='font-size: 30px;'><strong>This rock is obsidian</strong></p>","0","corr_feedback","1","train","46","","","","","","","",""
"","","","","","","","","","","","html-button-response","197","2.0.0","3500640","67106e2b92ed66266c984d36","1","42","9918","","","","","","","","","<img src= ""rock_img/I_Gabbro_11.jpg"" style=""width:8cm; height:6.2cm;""><p>What type of rock is this?</p>","5","class_response","1","train","47","Pegmatite","Gabbro","11","false","6","4","",""
"","","","","","","","","","","","html-button-response","198","2.0.0","3502620","67106e2b92ed66266c984d36","1","42","1978","","","","","","","","","<img src= rock_img/I_Gabbro_11.jpg style=""width:8cm; height:6.2cm;""><p style='font-size: 30px; color: red;'><strong>Incorrect!</strong></p><p style='font-size: 30px;'><strong>This rock is gabbro</strong></p>","0","corr_feedback","1","train","47","","","","","","","",""
"","","","","","","","","","","","html-button-response","199","2.0.0","3506802","67106e2b92ed66266c984d36","1","42","4180","","","","","","","","","<img src= ""rock_img/I_Obsidian_06.jpg"" style=""width:8cm; height:6.8cm;""><p>What type of rock is this?</p>","2","class_response","1","train","48","Diorite","Obsidian","06","false","3","5","",""
"","","","","","","","","","","","html-button-response","200","2.0.0","3508341","67106e2b92ed66266c984d36","1","42","1537","","","","","","","","","<img src= rock_img/I_Obsidian_06.jpg style=""width:8cm; height:6.8cm;""><p style='font-size: 30px; color: red;'><strong>Incorrect!</strong></p><p style='font-size: 30px;'><strong>This rock is obsidian</strong></p>","0","corr_feedback","1","train","48","","","","","","","",""
"","","","","","","","","","","","instructions","203","2.0.0","3569327","67106e2b92ed66266c984d36","1","42","60983","","","","","","","","[{""page_index"":0,""viewing_time"":18761},{""page_index"":1,""viewing_time"":42221}]","","","","","","","","","","","","","",""
"","","","","","","","","","","","html-button-response","204","2.0.0","3573918","67106e2b92ed66266c984d36","1","42","4589","","","","","","","","","","0","start_test","","","","","","","","","","",""
"","","","","","","","","","","","html-button-response","205","2.0.0","3609054","67106e2b92ed66266c984d36","1","42","35133","","","","","","","","","<img src= ""rock_img/I_Pumice_16.jpg"" style=""width:8cm; height:6.79cm;""><p>What type of rock is this?</p>","6","class_response","1","test","1","Peridotite","Pumice","16","false","7","8","",""
"","","","","","","","","","","","html-keyboard-response","206","2.0.0","3609562","67106e2b92ed66266c984d36","1","42","null","","","","","","","","","<p style='font-size: 30px;'><strong>Okay</strong></p>","null","neutral_feedback","1","test","1","","","","","","","",""
"","","","","","","","","","","","html-button-response","207","2.0.0","3619223","67106e2b92ed66266c984d36","1","42","9658","","","","","","","","","<img src= ""rock_img/I_Andesite_04.jpg"" style=""width:8cm; height:5.96cm;""><p>What type of rock is this?</p>","3","class_response","1","test","2","Gabbro","Andesite","04","false","4","1","",""
"","","","","","","","","","","","html-keyboard-response","208","2.0.0","3619726","67106e2b92ed66266c984d36","1","42","null","","","","","","","","","<p style='font-size: 30px;'><strong>Okay</strong></p>","null","neutral_feedback","1","test","2","","","","","","","",""
"","","","","","","","","","","","html-button-response","209","2.0.0","3622794","67106e2b92ed66266c984d36","1","42","3066","","","","","","","","","<img src= ""rock_img/I_Obsidian_11.jpg"" style=""width:8cm; height:6.05cm;""><p>What type of rock is this?</p>","4","class_response","1","test","3","Obsidian","Obsidian","11","true","5","5","",""
"","","","","","","","","","","","html-keyboard-response","210","2.0.0","3623310","67106e2b92ed66266c984d36","1","42","null","","","","","","","","","<p style='font-size: 30px;'><strong>Okay</strong></p>","null","neutral_feedback","1","test","3","","","","","","","",""
"","","","","","","","","","","","html-button-response","211","2.0.0","3626885","67106e2b92ed66266c984d36","1","42","3571","","","","","","","","","<img src= ""rock_img/I_Pumice_05.jpg"" style=""width:8cm; height:7.25cm;""><p>What type of rock is this?</p>","7","class_response","1","test","4","Pumice","Pumice","05","true","8","8","",""
"","","","","","","","","","","","html-keyboard-response","212","2.0.0","3627395","67106e2b92ed66266c984d36","1","42","null","","","","","","","","","<p style='font-size: 30px;'><strong>Okay</strong></p>","null","neutral_feedback","1","test","4","","","","","","","",""
"","","","","","","","","","","","html-button-response","213","2.0.0","3635883","67106e2b92ed66266c984d36","1","42","8483","","","","","","","","","<img src= ""rock_img/I_Peridotite_13.jpg"" style=""width:8cm; height:7.58cm;""><p>What type of rock is this?</p>","5","class_response","1","test","5","Pegmatite","Peridotite","13","false","6","7","",""
"","","","","","","","","","","","html-keyboard-response","214","2.0.0","3636397","67106e2b92ed66266c984d36","1","42","null","","","","","","","","","<p style='font-size: 30px;'><strong>Okay</strong></p>","null","neutral_feedback","1","test","5","","","","","","","",""
"","","","","","","","","","","","html-button-response","215","2.0.0","3655539","67106e2b92ed66266c984d36","1","42","19138","","","","","","","","","<img src= ""rock_img/I_Gabbro_09.jpg"" style=""width:8cm; height:7.279999999999999cm;""><p>What type of rock is this?</p>","0","class_response","1","test","6","Andesite","Gabbro","09","false","1","4","",""
"","","","","","","","","","","","html-keyboard-response","216","2.0.0","3656042","67106e2b92ed66266c984d36","1","42","null","","","","","","","","","<p style='font-size: 30px;'><strong>Okay</strong></p>","null","neutral_feedback","1","test","6","","","","","","","",""
"","","","","","","","","","","","html-button-response","217","2.0.0","3658182","67106e2b92ed66266c984d36","1","42","2138","","","","","","","","","<img src= ""rock_img/I_Obsidian_04.jpg"" style=""width:8cm; height:6.930000000000001cm;""><p>What type of rock is this?</p>","4","class_response","1","test","7","Obsidian","Obsidian","04","true","5","5","",""
"","","","","","","","","","","","html-keyboard-response","218","2.0.0","3658684","67106e2b92ed66266c984d36","1","42","null","","","","","","","","","<p style='font-size: 30px;'><strong>Okay</strong></p>","null","neutral_feedback","1","test","7","","","","","","","",""
"","","","","","","","","","","","html-button-response","219","2.0.0","3660851","67106e2b92ed66266c984d36","1","42","2165","","","","","","","","","<img src= ""rock_img/I_Pegmatite_13.jpg"" style=""width:8cm; height:4.95cm;""><p>What type of rock is this?</p>","7","class_response","1","test","8","Pumice","Pegmatite","13","false","8","6","",""
"","","","","","","","","","","","html-keyboard-response","220","2.0.0","3661356","67106e2b92ed66266c984d36","1","42","null","","","","","","","","","<p style='font-size: 30px;'><strong>Okay</strong></p>","null","neutral_feedback","1","test","8","","","","","","","",""
"","","","","","","","","","","","html-button-response","221","2.0.0","3663500","67106e2b92ed66266c984d36","1","42","2141","","","","","","","","","<img src= ""rock_img/I_Obsidian_05.jpg"" style=""width:8cm; height:6.33cm;""><p>What type of rock is this?</p>","2","class_response","1","test","9","Diorite","Obsidian","05","false","3","5","",""
"","","","","","","","","","","","html-keyboard-response","222","2.0.0","3664004","67106e2b92ed66266c984d36","1","42","null","","","","","","","","","<p style='font-size: 30px;'><strong>Okay</strong></p>","null","neutral_feedback","1","test","9","","","","","","","",""
"","","","","","","","","","","","html-button-response","223","2.0.0","3675260","67106e2b92ed66266c984d36","1","42","11253","","","","","","","","","<img src= ""rock_img/I_Peridotite_12.jpg"" style=""width:8cm; height:4.54cm;""><p>What type of rock is this?</p>","5","class_response","1","test","10","Pegmatite","Peridotite","12","false","6","7","",""
"","","","","","","","","","","","html-keyboard-response","224","2.0.0","3675776","67106e2b92ed66266c984d36","1","42","null","","","","","","","","","<p style='font-size: 30px;'><strong>Okay</strong></p>","null","neutral_feedback","1","test","10","","","","","","","",""
"","","","","","","","","","","","html-button-response","225","2.0.0","3681075","67106e2b92ed66266c984d36","1","42","5296","","","","","","","","","<img src= ""rock_img/I_Andesite_09.jpg"" style=""width:8cm; height:6cm;""><p>What type of rock is this?</p>","1","class_response","1","test","11","Basalt","Andesite","09","false","2","1","",""
"","","","","","","","","","","","html-keyboard-response","226","2.0.0","3681592","67106e2b92ed66266c984d36","1","42","null","","","","","","","","","<p style='font-size: 30px;'><strong>Okay</strong></p>","null","neutral_feedback","1","test","11","","","","","","","",""
"","","","","","","","","","","","html-button-response","227","2.0.0","3756823","67106e2b92ed66266c984d36","1","42","75226","","","","","","","","","<img src= ""rock_img/I_Basalt_14.jpg"" style=""width:8cm; height:5.82cm;""><p>What type of rock is this?</p>","1","class_response","1","test","12","Basalt","Basalt","14","true","2","2","",""
"","","","","","","","","","","","html-keyboard-response","228","2.0.0","3757339","67106e2b92ed66266c984d36","1","42","null","","","","","","","","","<p style='font-size: 30px;'><strong>Okay</strong></p>","null","neutral_feedback","1","test","12","","","","","","","",""
"","","","","","","","","","","","html-button-response","229","2.0.0","3774444","67106e2b92ed66266c984d36","1","42","17103","","","","","","","","","<img src= ""rock_img/I_Gabbro_05.jpg"" style=""width:8cm; height:6cm;""><p>What type of rock is this?</p>","6","class_response","1","test","13","Peridotite","Gabbro","05","false","7","4","",""
"","","","","","","","","","","","html-keyboard-response","230","2.0.0","3774956","67106e2b92ed66266c984d36","1","42","null","","","","","","","","","<p style='font-size: 30px;'><strong>Okay</strong></p>","null","neutral_feedback","1","test","13","","","","","","","",""
"","","","","","","","","","","","html-button-response","231","2.0.0","3780226","67106e2b92ed66266c984d36","1","42","5267","","","","","","","","","<img src= ""rock_img/I_Pegmatite_06.jpg"" style=""width:8cm; height:5.17cm;""><p>What type of rock is this?</p>","1","class_response","1","test","14","Basalt","Pegmatite","06","false","2","6","",""
"","","","","","","","","","","","html-keyboard-response","232","2.0.0","3780738","67106e2b92ed66266c984d36","1","42","null","","","","","","","","","<p style='font-size: 30px;'><strong>Okay</strong></p>","null","neutral_feedback","1","test","14","","","","","","","",""
"","","","","","","","","","","","html-button-response","233","2.0.0","3784272","67106e2b92ed66266c984d36","1","42","3532","","","","","","","","","<img src= ""rock_img/I_Basalt_06.jpg"" style=""width:8cm; height:7.06cm;""><p>What type of rock is this?</p>","4","class_response","1","test","15","Obsidian","Basalt","06","false","5","2","",""
"","","","","","","","","","","","html-keyboard-response","234","2.0.0","3784788","67106e2b92ed66266c984d36","1","42","null","","","","","","","","","<p style='font-size: 30px;'><strong>Okay</strong></p>","null","neutral_feedback","1","test","15","","","","","","","",""
"","","","","","","","","","","","html-button-response","235","2.0.0","3789526","67106e2b92ed66266c984d36","1","42","4736","","","","","","","","","<img src= ""rock_img/I_Pumice_02.jpg"" style=""width:8cm; height:7.3999999999999995cm;""><p>What type of rock is this?</p>","7","class_response","1","test","16","Pumice","Pumice","02","true","8","8","",""
"","","","","","","","","","","","html-keyboard-response","236","2.0.0","3790038","67106e2b92ed66266c984d36","1","42","null","","","","","","","","","<p style='font-size: 30px;'><strong>Okay</strong></p>","null","neutral_feedback","1","test","16","","","","","","","",""
"","","","","","","","","","","","html-button-response","237","2.0.0","3792064","67106e2b92ed66266c984d36","1","42","2023","","","","","","","","","<img src= ""rock_img/I_Pegmatite_16.jpg"" style=""width:8cm; height:5.8cm;""><p>What type of rock is this?</p>","2","class_response","1","test","17","Diorite","Pegmatite","16","false","3","6","",""
"","","","","","","","","","","","html-keyboard-response","238","2.0.0","3792572","67106e2b92ed66266c984d36","1","42","null","","","","","","","","","<p style='font-size: 30px;'><strong>Okay</strong></p>","null","neutral_feedback","1","test","17","","","","","","","",""
"","","","","","","","","","","","html-button-response","239","2.0.0","3794250","67106e2b92ed66266c984d36","1","42","1676","","","","","","","","","<img src= ""rock_img/I_Pegmatite_05.jpg"" style=""width:8cm; height:7.300000000000001cm;""><p>What type of rock is this?</p>","2","class_response","1","test","18","Diorite","Pegmatite","05","false","3","6","",""
"","","","","","","","","","","","html-keyboard-response","240","2.0.0","3794758","67106e2b92ed66266c984d36","1","42","null","","","","","","","","","<p style='font-size: 30px;'><strong>Okay</strong></p>","null","neutral_feedback","1","test","18","","","","","","","",""
"","","","","","","","","","","","html-button-response","241","2.0.0","3807271","67106e2b92ed66266c984d36","1","42","12511","","","","","","","","","<img src= ""rock_img/I_Basalt_01.jpg"" style=""width:8cm; height:7.880000000000001cm;""><p>What type of rock is this?</p>","0","class_response","1","test","19","Andesite","Basalt","01","false","1","2","",""
"","","","","","","","","","","","html-keyboard-response","242","2.0.0","3807787","67106e2b92ed66266c984d36","1","42","null","","","","","","","","","<p style='font-size: 30px;'><strong>Okay</strong></p>","null","neutral_feedback","1","test","19","","","","","","","",""
"","","","","","","","","","","","html-button-response","243","2.0.0","3930795","67106e2b92ed66266c984d36","1","42","123006","","","","","","","","","<img src= ""rock_img/I_Gabbro_08.jpg"" style=""width:8cm; height:5.15cm;""><p>What type of rock is this?</p>","3","class_response","1","test","20","Gabbro","Gabbro","08","true","4","4","",""
"","","","","","","","","","","","html-keyboard-response","244","2.0.0","3931308","67106e2b92ed66266c984d36","1","42","null","","","","","","","","","<p style='font-size: 30px;'><strong>Okay</strong></p>","null","neutral_feedback","1","test","20","","","","","","","",""
"","","","","","","","","","","","html-button-response","245","2.0.0","3936079","67106e2b92ed66266c984d36","1","42","4769","","","","","","","","","<img src= ""rock_img/I_Diorite_12.jpg"" style=""width:8cm; height:4.88cm;""><p>What type of rock is this?</p>","2","class_response","1","test","21","Diorite","Diorite","12","true","3","3","",""
"","","","","","","","","","","","html-keyboard-response","246","2.0.0","3936582","67106e2b92ed66266c984d36","1","42","null","","","","","","","","","<p style='font-size: 30px;'><strong>Okay</strong></p>","null","neutral_feedback","1","test","21","","","","","","","",""
"","","","","","","","","","","","html-button-response","247","2.0.0","3958850","67106e2b92ed66266c984d36","1","42","22266","","","","","","","","","<img src= ""rock_img/I_Andesite_02.jpg"" style=""width:8cm; height:8.5cm;""><p>What type of rock is this?</p>","0","class_response","1","test","22","Andesite","Andesite","02","true","1","1","",""
"","","","","","","","","","","","html-keyboard-response","248","2.0.0","3959366","67106e2b92ed66266c984d36","1","42","null","","","","","","","","","<p style='font-size: 30px;'><strong>Okay</strong></p>","null","neutral_feedback","1","test","22","","","","","","","",""
"","","","","","","","","","","","html-button-response","249","2.0.0","3973402","67106e2b92ed66266c984d36","1","42","14031","","","","","","","","","<img src= ""rock_img/I_Andesite_03.jpg"" style=""width:8cm; height:5.73cm;""><p>What type of rock is this?</p>","6","class_response","1","test","23","Peridotite","Andesite","03","false","7","1","",""
"","","","","","","","","","","","html-keyboard-response","250","2.0.0","3973914","67106e2b92ed66266c984d36","1","42","null","","","","","","","","","<p style='font-size: 30px;'><strong>Okay</strong></p>","null","neutral_feedback","1","test","23","","","","","","","",""
"","","","","","","","","","","","html-button-response","251","2.0.0","3978218","67106e2b92ed66266c984d36","1","42","4301","","","","","","","","","<img src= ""rock_img/I_Obsidian_14.jpg"" style=""width:8cm; height:7.64cm;""><p>What type of rock is this?</p>","4","class_response","1","test","24","Obsidian","Obsidian","14","true","5","5","",""
"","","","","","","","","","","","html-keyboard-response","252","2.0.0","3978732","67106e2b92ed66266c984d36","1","42","null","","","","","","","","","<p style='font-size: 30px;'><strong>Okay</strong></p>","null","neutral_feedback","1","test","24","","","","","","","",""
"","","","","","","","","","","","html-button-response","253","2.0.0","3983931","67106e2b92ed66266c984d36","1","42","5195","","","","","","","","","<img src= ""rock_img/I_Peridotite_07.jpg"" style=""width:8cm; height:4.83cm;""><p>What type of rock is this?</p>","1","class_response","1","test","25","Basalt","Peridotite","07","false","2","7","",""
"","","","","","","","","","","","html-keyboard-response","254","2.0.0","3984446","67106e2b92ed66266c984d36","1","42","null","","","","","","","","","<p style='font-size: 30px;'><strong>Okay</strong></p>","null","neutral_feedback","1","test","25","","","","","","","",""
"","","","","","","","","","","","html-button-response","255","2.0.0","3987025","67106e2b92ed66266c984d36","1","42","2576","","","","","","","","","<img src= ""rock_img/I_Obsidian_10.jpg"" style=""width:8cm; height:6.260000000000001cm;""><p>What type of rock is this?</p>","4","class_response","1","test","26","Obsidian","Obsidian","10","true","5","5","",""
"","","","","","","","","","","","html-keyboard-response","256","2.0.0","3987530","67106e2b92ed66266c984d36","1","42","null","","","","","","","","","<p style='font-size: 30px;'><strong>Okay</strong></p>","null","neutral_feedback","1","test","26","","","","","","","",""
"","","","","","","","","","","","html-button-response","257","2.0.0","3992254","67106e2b92ed66266c984d36","1","42","4721","","","","","","","","","<img src= ""rock_img/I_Pumice_04.jpg"" style=""width:8cm; height:6.819999999999999cm;""><p>What type of rock is this?</p>","3","class_response","1","test","27","Gabbro","Pumice","04","false","4","8","",""
"","","","","","","","","","","","html-keyboard-response","258","2.0.0","3992764","67106e2b92ed66266c984d36","1","42","null","","","","","","","","","<p style='font-size: 30px;'><strong>Okay</strong></p>","null","neutral_feedback","1","test","27","","","","","","","",""
"","","","","","","","","","","","html-button-response","259","2.0.0","3994600","67106e2b92ed66266c984d36","1","42","1834","","","","","","","","","<img src= ""rock_img/I_Diorite_16.jpg"" style=""width:8cm; height:6.74cm;""><p>What type of rock is this?</p>","2","class_response","1","test","28","Diorite","Diorite","16","true","3","3","",""
"","","","","","","","","","","","html-keyboard-response","260","2.0.0","3995112","67106e2b92ed66266c984d36","1","42","null","","","","","","","","","<p style='font-size: 30px;'><strong>Okay</strong></p>","null","neutral_feedback","1","test","28","","","","","","","",""
"","","","","","","","","","","","html-button-response","261","2.0.0","3998216","67106e2b92ed66266c984d36","1","42","3102","","","","","","","","","<img src= ""rock_img/I_Peridotite_16.jpg"" style=""width:8cm; height:6.989999999999999cm;""><p>What type of rock is this?</p>","5","class_response","1","test","29","Pegmatite","Peridotite","16","false","6","7","",""
"","","","","","","","","","","","html-keyboard-response","262","2.0.0","3998732","67106e2b92ed66266c984d36","1","42","null","","","","","","","","","<p style='font-size: 30px;'><strong>Okay</strong></p>","null","neutral_feedback","1","test","29","","","","","","","",""
"","","","","","","","","","","","html-button-response","263","2.0.0","4000974","67106e2b92ed66266c984d36","1","42","2240","","","","","","","","","<img src= ""rock_img/I_Gabbro_16.jpg"" style=""width:8cm; height:6.44cm;""><p>What type of rock is this?</p>","1","class_response","1","test","30","Basalt","Gabbro","16","false","2","4","",""
"","","","","","","","","","","","html-keyboard-response","264","2.0.0","4001476","67106e2b92ed66266c984d36","1","42","null","","","","","","","","","<p style='font-size: 30px;'><strong>Okay</strong></p>","null","neutral_feedback","1","test","30","","","","","","","",""
"","","","","","","","","","","","html-button-response","265","2.0.0","4007394","67106e2b92ed66266c984d36","1","42","5916","","","","","","","","","<img src= ""rock_img/I_Basalt_02.jpg"" style=""width:8cm; height:6.45cm;""><p>What type of rock is this?</p>","2","class_response","1","test","31","Diorite","Basalt","02","false","3","2","",""
"","","","","","","","","","","","html-keyboard-response","266","2.0.0","4007896","67106e2b92ed66266c984d36","1","42","null","","","","","","","","","<p style='font-size: 30px;'><strong>Okay</strong></p>","null","neutral_feedback","1","test","31","","","","","","","",""
"","","","","","","","","","","","html-button-response","267","2.0.0","4009321","67106e2b92ed66266c984d36","1","42","1423","","","","","","","","","<img src= ""rock_img/I_Diorite_02.jpg"" style=""width:8cm; height:6.27cm;""><p>What type of rock is this?</p>","2","class_response","1","test","32","Diorite","Diorite","02","true","3","3","",""
"","","","","","","","","","","","html-keyboard-response","268","2.0.0","4009832","67106e2b92ed66266c984d36","1","42","null","","","","","","","","","<p style='font-size: 30px;'><strong>Okay</strong></p>","null","neutral_feedback","1","test","32","","","","","","","",""
"","","","","","","","","","","","html-button-response","269","2.0.0","4018207","67106e2b92ed66266c984d36","1","42","8373","","","","","","","","","<img src= ""rock_img/I_Gabbro_14.jpg"" style=""width:8cm; height:8.48cm;""><p>What type of rock is this?</p>","6","class_response","1","test","33","Peridotite","Gabbro","14","false","7","4","",""
"","","","","","","","","","","","html-keyboard-response","270","2.0.0","4018714","67106e2b92ed66266c984d36","1","42","null","","","","","","","","","<p style='font-size: 30px;'><strong>Okay</strong></p>","null","neutral_feedback","1","test","33","","","","","","","",""
"","","","","","","","","","","","html-button-response","271","2.0.0","4022373","67106e2b92ed66266c984d36","1","42","3657","","","","","","","","","<img src= ""rock_img/I_Gabbro_03.jpg"" style=""width:8cm; height:8.52cm;""><p>What type of rock is this?</p>","2","class_response","1","test","34","Diorite","Gabbro","03","false","3","4","",""
"","","","","","","","","","","","html-keyboard-response","272","2.0.0","4022882","67106e2b92ed66266c984d36","1","42","null","","","","","","","","","<p style='font-size: 30px;'><strong>Okay</strong></p>","null","neutral_feedback","1","test","34","","","","","","","",""
"","","","","","","","","","","","html-button-response","273","2.0.0","4029509","67106e2b92ed66266c984d36","1","42","6624","","","","","","","","","<img src= ""rock_img/I_Pegmatite_10.jpg"" style=""width:8cm; height:4.16cm;""><p>What type of rock is this?</p>","5","class_response","1","test","35","Pegmatite","Pegmatite","10","true","6","6","",""
"","","","","","","","","","","","html-keyboard-response","274","2.0.0","4030012","67106e2b92ed66266c984d36","1","42","null","","","","","","","","","<p style='font-size: 30px;'><strong>Okay</strong></p>","null","neutral_feedback","1","test","35","","","","","","","",""
"","","","","","","","","","","","html-button-response","275","2.0.0","4032340","67106e2b92ed66266c984d36","1","42","2325","","","","","","","","","<img src= ""rock_img/I_Diorite_06.jpg"" style=""width:8cm; height:6.03cm;""><p>What type of rock is this?</p>","2","class_response","1","test","36","Diorite","Diorite","06","true","3","3","",""
"","","","","","","","","","","","html-keyboard-response","276","2.0.0","4032847","67106e2b92ed66266c984d36","1","42","null","","","","","","","","","<p style='font-size: 30px;'><strong>Okay</strong></p>","null","neutral_feedback","1","test","36","","","","","","","",""
"","","","","","","","","","","","html-button-response","277","2.0.0","4038095","67106e2b92ed66266c984d36","1","42","5246","","","","","","","","","<img src= ""rock_img/I_Basalt_04.jpg"" style=""width:8cm; height:7.53cm;""><p>What type of rock is this?</p>","1","class_response","1","test","37","Basalt","Basalt","04","true","2","2","",""
"","","","","","","","","","","","html-keyboard-response","278","2.0.0","4038598","67106e2b92ed66266c984d36","1","42","null","","","","","","","","","<p style='font-size: 30px;'><strong>Okay</strong></p>","null","neutral_feedback","1","test","37","","","","","","","",""
"","","","","","","","","","","","html-button-response","279","2.0.0","4040336","67106e2b92ed66266c984d36","1","42","1735","","","","","","","","","<img src= ""rock_img/I_Pumice_03.jpg"" style=""width:8cm; height:6.64cm;""><p>What type of rock is this?</p>","7","class_response","1","test","38","Pumice","Pumice","03","true","8","8","",""
"","","","","","","","","","","","html-keyboard-response","280","2.0.0","4040844","67106e2b92ed66266c984d36","1","42","null","","","","","","","","","<p style='font-size: 30px;'><strong>Okay</strong></p>","null","neutral_feedback","1","test","38","","","","","","","",""
"","","","","","","","","","","","html-button-response","281","2.0.0","4044598","67106e2b92ed66266c984d36","1","42","3751","","","","","","","","","<img src= ""rock_img/I_Basalt_10.jpg"" style=""width:8cm; height:5.85cm;""><p>What type of rock is this?</p>","0","class_response","1","test","39","Andesite","Basalt","10","false","1","2","",""
"","","","","","","","","","","","html-keyboard-response","282","2.0.0","4045113","67106e2b92ed66266c984d36","1","42","null","","","","","","","","","<p style='font-size: 30px;'><strong>Okay</strong></p>","null","neutral_feedback","1","test","39","","","","","","","",""
"","","","","","","","","","","","html-button-response","283","2.0.0","4047027","67106e2b92ed66266c984d36","1","42","1912","","","","","","","","","<img src= ""rock_img/I_Peridotite_02.jpg"" style=""width:8cm; height:5.859999999999999cm;""><p>What type of rock is this?</p>","1","class_response","1","test","40","Basalt","Peridotite","02","false","2","7","",""
"","","","","","","","","","","","html-keyboard-response","284","2.0.0","4047529","67106e2b92ed66266c984d36","1","42","null","","","","","","","","","<p style='font-size: 30px;'><strong>Okay</strong></p>","null","neutral_feedback","1","test","40","","","","","","","",""
"","","","","","","","","","","","html-button-response","285","2.0.0","4050112","67106e2b92ed66266c984d36","1","42","2580","","","","","","","","","<img src= ""rock_img/I_Pegmatite_11.jpg"" style=""width:8cm; height:8.14cm;""><p>What type of rock is this?</p>","5","class_response","1","test","41","Pegmatite","Pegmatite","11","true","6","6","",""
"","","","","","","","","","","","html-keyboard-response","286","2.0.0","4050627","67106e2b92ed66266c984d36","1","42","null","","","","","","","","","<p style='font-size: 30px;'><strong>Okay</strong></p>","null","neutral_feedback","1","test","41","","","","","","","",""
"","","","","","","","","","","","html-button-response","287","2.0.0","4054795","67106e2b92ed66266c984d36","1","42","4166","","","","","","","","","<img src= ""rock_img/I_Diorite_15.jpg"" style=""width:8cm; height:5.54cm;""><p>What type of rock is this?</p>","2","class_response","1","test","42","Diorite","Diorite","15","true","3","3","",""
"","","","","","","","","","","","html-keyboard-response","288","2.0.0","4055307","67106e2b92ed66266c984d36","1","42","null","","","","","","","","","<p style='font-size: 30px;'><strong>Okay</strong></p>","null","neutral_feedback","1","test","42","","","","","","","",""
"","","","","","","","","","","","html-button-response","289","2.0.0","4063765","67106e2b92ed66266c984d36","1","42","8456","","","","","","","","","<img src= ""rock_img/I_Peridotite_04.jpg"" style=""width:8cm; height:6.680000000000001cm;""><p>What type of rock is this?</p>","3","class_response","1","test","43","Gabbro","Peridotite","04","false","4","7","",""
"","","","","","","","","","","","html-keyboard-response","290","2.0.0","4064279","67106e2b92ed66266c984d36","1","42","null","","","","","","","","","<p style='font-size: 30px;'><strong>Okay</strong></p>","null","neutral_feedback","1","test","43","","","","","","","",""
"","","","","","","","","","","","html-button-response","291","2.0.0","4084213","67106e2b92ed66266c984d36","1","42","19931","","","","","","","","","<img src= ""rock_img/I_Andesite_06.jpg"" style=""width:8cm; height:6.840000000000001cm;""><p>What type of rock is this?</p>","6","class_response","1","test","44","Peridotite","Andesite","06","false","7","1","",""
"","","","","","","","","","","","html-keyboard-response","292","2.0.0","4084729","67106e2b92ed66266c984d36","1","42","null","","","","","","","","","<p style='font-size: 30px;'><strong>Okay</strong></p>","null","neutral_feedback","1","test","44","","","","","","","",""
"","","","","","","","","","","","html-button-response","293","2.0.0","4087376","67106e2b92ed66266c984d36","1","42","2643","","","","","","","","","<img src= ""rock_img/I_Pumice_10.jpg"" style=""width:8cm; height:7.609999999999999cm;""><p>What type of rock is this?</p>","7","class_response","1","test","45","Pumice","Pumice","10","true","8","8","",""
"","","","","","","","","","","","html-keyboard-response","294","2.0.0","4087893","67106e2b92ed66266c984d36","1","42","null","","","","","","","","","<p style='font-size: 30px;'><strong>Okay</strong></p>","null","neutral_feedback","1","test","45","","","","","","","",""
"","","","","","","","","","","","html-button-response","295","2.0.0","4090094","67106e2b92ed66266c984d36","1","42","2199","","","","","","","","","<img src= ""rock_img/I_Andesite_07.jpg"" style=""width:8cm; height:5.93cm;""><p>What type of rock is this?</p>","2","class_response","1","test","46","Diorite","Andesite","07","false","3","1","",""
"","","","","","","","","","","","html-keyboard-response","296","2.0.0","4090597","67106e2b92ed66266c984d36","1","42","null","","","","","","","","","<p style='font-size: 30px;'><strong>Okay</strong></p>","null","neutral_feedback","1","test","46","","","","","","","",""
"","","","","","","","","","","","html-button-response","297","2.0.0","4092145","67106e2b92ed66266c984d36","1","42","1545","","","","","","","","","<img src= ""rock_img/I_Diorite_11.jpg"" style=""width:8cm; height:7.11cm;""><p>What type of rock is this?</p>","2","class_response","1","test","47","Diorite","Diorite","11","true","3","3","",""
"","","","","","","","","","","","html-keyboard-response","298","2.0.0","4092660","67106e2b92ed66266c984d36","1","42","null","","","","","","","","","<p style='font-size: 30px;'><strong>Okay</strong></p>","null","neutral_feedback","1","test","47","","","","","","","",""
"","","","","","","","","","","","html-button-response","299","2.0.0","4096618","67106e2b92ed66266c984d36","1","42","3955","","","","","","","","","<img src= ""rock_img/I_Obsidian_02.jpg"" style=""width:8cm; height:7.51cm;""><p>What type of rock is this?</p>","4","class_response","1","test","48","Obsidian","Obsidian","02","true","5","5","",""
"","","","","","","","","","","","html-keyboard-response","300","2.0.0","4097128","67106e2b92ed66266c984d36","1","42","null","","","","","","","","","<p style='font-size: 30px;'><strong>Okay</strong></p>","null","neutral_feedback","1","test","48","","","","","","","",""
"","","","","","","","","","","","html-button-response","301","2.0.0","4131441","67106e2b92ed66266c984d36","1","42","","","","","","","","","","","","cycle_feedback","","","","","","","","","","17502","16802"
"","","","","","","","","","","","html-button-response","303","2.0.0","4139784","67106e2b92ed66266c984d36","1","42","8341","","","","","","","","","","0","start_train","","","","","","","","","","",""
