"width","height","webaudio","browser","browser_version","mobile","os","fullscreen","vsync_rate","webcam","microphone","trial_type","trial_index","plugin_version","time_elapsed","subjID","condition","stimID","rt","url","success","value","timeout","failed_images","failed_audio","failed_video","view_history","stimulus","response","trialType","cycle","phase","trial","resp","cat","token","corr","resp_num","cat_num","time_fb1","time_fb2"
"1366","599","true","chrome","130.0.0","false","Windows 10","true","61.63","true","true","browser-check","0","2.0.0","979","5a0d9553fe645f0001e9f852","1","14","","","","","","","","","","","","","","","","","","","","","","",""
"","","","","","","","","","","","external-html","1","2.0.0","8372","5a0d9553fe645f0001e9f852","1","14","7287","consent_form.html","","","","","","","","","","","","","","","","","","","","",""
"","","","","","","","","","","","fullscreen","2","2.0.0","12180","5a0d9553fe645f0001e9f852","1","14","2802","","true","","","","","","","","","","","","","","","","","","","",""
"","","","","","","","","","","","call-function","3","2.0.0","12182","5a0d9553fe645f0001e9f852","1","14","","","","{}","","","","","","","","","","","","","","","","","","",""
"","","","","","","","","","","","preload","4","2.0.0","16205","5a0d9553fe645f0001e9f852","1","14","","","true","","false","[]","[]","[]","","","","","","","","","","","","","","",""
"","","","","","","","","","","","instructions","5","2.0.0","56724","5a0d9553fe645f0001e9f852","1","14","40518","","","","","","","","[{""page_index"":0,""viewing_time"":6071},{""page_index"":1,""viewing_time"":11639},{""page_index"":2,""viewing_time"":3319},{""page_index"":1,""viewing_time"":3825},{""page_index"":2,""viewing_time"":15665}]","","","","","","","","","","","","","",""
"","","","","","","","","","","","html-button-response","6","2.0.0","58667","5a0d9553fe645f0001e9f852","1","14","1940","","","","","","","","","","0","start_test","","","","","","","","","","",""
"","","","","","","","","","","","html-button-response","7","2.0.0","65692","5a0d9553fe645f0001e9f852","1","14","7021","","","","","","","","","<img src= ""rock_img/I_Basalt_06.jpg"" style=""width:8cm; height:7.06cm;""><p>What type of rock is this?</p>","4","class_response","0","test","1","Obsidian","Basalt","06","false","5","2","",""
"","","","","","","","","","","","html-keyboard-response","8","2.0.0","66195","5a0d9553fe645f0001e9f852","1","14","null","","","","","","","","","<p style='font-size: 30px;'><strong>Okay</strong></p>","null","neutral_feedback","0","test","1","","","","","","","",""
"","","","","","","","","","","","html-button-response","9","2.0.0","69044","5a0d9553fe645f0001e9f852","1","14","2846","","","","","","","","","<img src= ""rock_img/I_Andesite_02.jpg"" style=""width:8cm; height:8.5cm;""><p>What type of rock is this?</p>","7","class_response","0","test","2","Pumice","Andesite","02","false","8","1","",""
"","","","","","","","","","","","html-keyboard-response","10","2.0.0","69548","5a0d9553fe645f0001e9f852","1","14","null","","","","","","","","","<p style='font-size: 30px;'><strong>Okay</strong></p>","null","neutral_feedback","0","test","2","","","","","","","",""
"","","","","","","","","","","","html-button-response","11","2.0.0","73179","5a0d9553fe645f0001e9f852","1","14","3629","","","","","","","","","<img src= ""rock_img/I_Peridotite_05.jpg"" style=""width:8cm; height:7.1499999999999995cm;""><p>What type of rock is this?</p>","5","class_response","0","test","3","Pegmatite","Peridotite","05","false","6","7","",""
"","","","","","","","","","","","html-keyboard-response","12","2.0.0","73695","5a0d9553fe645f0001e9f852","1","14","null","","","","","","","","","<p style='font-size: 30px;'><strong>Okay</strong></p>","null","neutral_feedback","0","test","3","","","","","","","",""
"","","","","","","","","","","","html-button-response","13","2.0.0","77196","5a0d9553fe645f0001e9f852","1","14","3498","","","","","","","","","<img src= ""rock_img/I_Pegmatite_13.jpg"" style=""width:8cm; height:4.95cm;""><p>What type of rock is this?</p>","0","class_response","0","test","4","Andesite","Pegmatite","13","false","1","6","",""
"","","","","","","","","","","","html-keyboard-response","14","2.0.0","77699","5a0d9553fe645f0001e9f852","1","14","null","","","","","","","","","<p style='font-size: 30px;'><strong>Okay</strong></p>","null","neutral_feedback","0","test","4","","","","","","","",""
"","","","","","","","","","","","html-button-response","15","2.0.0","81123","5a0d9553fe645f0001e9f852","1","14","3422","","","","","","","","","<img src= ""rock_img/I_Pumice_04.jpg"" style=""width:8cm; height:6.819999999999999cm;""><p>What type of rock is this?</p>","7","class_response","0","test","5","Pumice","Pumice","04","true","8","8","",""
"","","","","","","","","","","","html-keyboard-response","16","2.0.0","81637","5a0d9553fe645f0001e9f852","1","14","null","","","","","","","","","<p style='font-size: 30px;'><strong>Okay</strong></p>","null","neutral_feedback","0","test","5","","","","","","","",""
"","","","","","","","","","","","html-button-response","17","2.0.0","91364","5a0d9553fe645f0001e9f852","1","14","9724","","","","","","","","","<img src= ""rock_img/I_Diorite_14.jpg"" style=""width:8cm; height:5.71cm;""><p>What type of rock is this?</p>","2","class_response","0","test","6","Diorite","Diorite","14","true","3","3","",""
"","","","","","","","","","","","html-keyboard-response","18","2.0.0","91876","5a0d9553fe645f0001e9f852","1","14","null","","","","","","","","","<p style='font-size: 30px;'><strong>Okay</strong></p>","null","neutral_feedback","0","test","6","","","","","","","",""
"","","","","","","","","","","","html-button-response","19","2.0.0","94411","5a0d9553fe645f0001e9f852","1","14","2533","","","","","","","","","<img src= ""rock_img/I_Pumice_06.jpg"" style=""width:8cm; height:6.9399999999999995cm;""><p>What type of rock is this?</p>","7","class_response","0","test","7","Pumice","Pumice","06","true","8","8","",""
"","","","","","","","","","","","html-keyboard-response","20","2.0.0","94915","5a0d9553fe645f0001e9f852","1","14","null","","","","","","","","","<p style='font-size: 30px;'><strong>Okay</strong></p>","null","neutral_feedback","0","test","7","","","","","","","",""
"","","","","","","","","","","","html-button-response","21","2.0.0","97892","5a0d9553fe645f0001e9f852","1","14","2974","","","","","","","","","<img src= ""rock_img/I_Peridotite_10.jpg"" style=""width:8cm; height:5.390000000000001cm;""><p>What type of rock is this?</p>","3","class_response","0","test","8","Gabbro","Peridotite","10","false","4","7","",""
"","","","","","","","","","","","html-keyboard-response","22","2.0.0","98394","5a0d9553fe645f0001e9f852","1","14","null","","","","","","","","","<p style='font-size: 30px;'><strong>Okay</strong></p>","null","neutral_feedback","0","test","8","","","","","","","",""
"","","","","","","","","","","","html-button-response","23","2.0.0","100660","5a0d9553fe645f0001e9f852","1","14","2264","","","","","","","","","<img src= ""rock_img/I_Gabbro_05.jpg"" style=""width:8cm; height:6cm;""><p>What type of rock is this?</p>","2","class_response","0","test","9","Diorite","Gabbro","05","false","3","4","",""
"","","","","","","","","","","","html-keyboard-response","24","2.0.0","101177","5a0d9553fe645f0001e9f852","1","14","null","","","","","","","","","<p style='font-size: 30px;'><strong>Okay</strong></p>","null","neutral_feedback","0","test","9","","","","","","","",""
"","","","","","","","","","","","html-button-response","25","2.0.0","103084","5a0d9553fe645f0001e9f852","1","14","1904","","","","","","","","","<img src= ""rock_img/I_Peridotite_15.jpg"" style=""width:8cm; height:6cm;""><p>What type of rock is this?</p>","1","class_response","0","test","10","Basalt","Peridotite","15","false","2","7","",""
"","","","","","","","","","","","html-keyboard-response","26","2.0.0","103596","5a0d9553fe645f0001e9f852","1","14","null","","","","","","","","","<p style='font-size: 30px;'><strong>Okay</strong></p>","null","neutral_feedback","0","test","10","","","","","","","",""
"","","","","","","","","","","","html-button-response","27","2.0.0","105444","5a0d9553fe645f0001e9f852","1","14","1845","","","","","","","","","<img src= ""rock_img/I_Obsidian_09.jpg"" style=""width:8cm; height:5cm;""><p>What type of rock is this?</p>","4","class_response","0","test","11","Obsidian","Obsidian","09","true","5","5","",""
"","","","","","","","","","","","html-keyboard-response","28","2.0.0","105946","5a0d9553fe645f0001e9f852","1","14","null","","","","","","","","","<p style='font-size: 30px;'><strong>Okay</strong></p>","null","neutral_feedback","0","test","11","","","","","","","",""
"","","","","","","","","","","","html-button-response","29","2.0.0","108515","5a0d9553fe645f0001e9f852","1","14","2567","","","","","","","","","<img src= ""rock_img/I_Gabbro_16.jpg"" style=""width:8cm; height:6.44cm;""><p>What type of rock is this?</p>","5","class_response","0","test","12","Pegmatite","Gabbro","16","false","6","4","",""
"","","","","","","","","","","","html-keyboard-response","30","2.0.0","109018","5a0d9553fe645f0001e9f852","1","14","null","","","","","","","","","<p style='font-size: 30px;'><strong>Okay</strong></p>","null","neutral_feedback","0","test","12","","","","","","","",""
"","","","","","","","","","","","html-button-response","31","2.0.0","111564","5a0d9553fe645f0001e9f852","1","14","2543","","","","","","","","","<img src= ""rock_img/I_Peridotite_14.jpg"" style=""width:8cm; height:5.3cm;""><p>What type of rock is this?</p>","6","class_response","0","test","13","Peridotite","Peridotite","14","true","7","7","",""
"","","","","","","","","","","","html-keyboard-response","32","2.0.0","112078","5a0d9553fe645f0001e9f852","1","14","null","","","","","","","","","<p style='font-size: 30px;'><strong>Okay</strong></p>","null","neutral_feedback","0","test","13","","","","","","","",""
"","","","","","","","","","","","html-button-response","33","2.0.0","117628","5a0d9553fe645f0001e9f852","1","14","5547","","","","","","","","","<img src= ""rock_img/I_Diorite_06.jpg"" style=""width:8cm; height:6.03cm;""><p>What type of rock is this?</p>","0","class_response","0","test","14","Andesite","Diorite","06","false","1","3","",""
"","","","","","","","","","","","html-keyboard-response","34","2.0.0","118140","5a0d9553fe645f0001e9f852","1","14","null","","","","","","","","","<p style='font-size: 30px;'><strong>Okay</strong></p>","null","neutral_feedback","0","test","14","","","","","","","",""
"","","","","","","","","","","","html-button-response","35","2.0.0","119828","5a0d9553fe645f0001e9f852","1","14","1686","","","","","","","","","<img src= ""rock_img/I_Obsidian_12.jpg"" style=""width:8cm; height:6.53cm;""><p>What type of rock is this?</p>","4","class_response","0","test","15","Obsidian","Obsidian","12","true","5","5","",""
"","","","","","","","","","","","html-keyboard-response","36","2.0.0","120330","5a0d9553fe645f0001e9f852","1","14","null","","","","","","","","","<p style='font-size: 30px;'><strong>Okay</strong></p>","null","neutral_feedback","0","test","15","","","","","","","",""
"","","","","","","","","","","","html-button-response","37","2.0.0","122188","5a0d9553fe645f0001e9f852","1","14","1856","","","","","","","","","<img src= ""rock_img/I_Diorite_10.jpg"" style=""width:8cm; height:5.949999999999999cm;""><p>What type of rock is this?</p>","5","class_response","0","test","16","Pegmatite","Diorite","10","false","6","3","",""
"","","","","","","","","","","","html-keyboard-response","38","2.0.0","122694","5a0d9553fe645f0001e9f852","1","14","null","","","","","","","","","<p style='font-size: 30px;'><strong>Okay</strong></p>","null","neutral_feedback","0","test","16","","","","","","","",""
"","","","","","","","","","","","html-button-response","39","2.0.0","125363","5a0d9553fe645f0001e9f852","1","14","2668","","","","","","","","","<img src= ""rock_img/I_Pegmatite_05.jpg"" style=""width:8cm; height:7.300000000000001cm;""><p>What type of rock is this?</p>","1","class_response","0","test","17","Basalt","Pegmatite","05","false","2","6","",""
"","","","","","","","","","","","html-keyboard-response","40","2.0.0","125875","5a0d9553fe645f0001e9f852","1","14","null","","","","","","","","","<p style='font-size: 30px;'><strong>Okay</strong></p>","null","neutral_feedback","0","test","17","","","","","","","",""
"","","","","","","","","","","","html-button-response","41","2.0.0","128188","5a0d9553fe645f0001e9f852","1","14","2311","","","","","","","","","<img src= ""rock_img/I_Diorite_16.jpg"" style=""width:8cm; height:6.74cm;""><p>What type of rock is this?</p>","0","class_response","0","test","18","Andesite","Diorite","16","false","1","3","",""
"","","","","","","","","","","","html-keyboard-response","42","2.0.0","128691","5a0d9553fe645f0001e9f852","1","14","null","","","","","","","","","<p style='font-size: 30px;'><strong>Okay</strong></p>","null","neutral_feedback","0","test","18","","","","","","","",""
"","","","","","","","","","","","html-button-response","43","2.0.0","133100","5a0d9553fe645f0001e9f852","1","14","4406","","","","","","","","","<img src= ""rock_img/I_Basalt_09.jpg"" style=""width:8cm; height:6.2cm;""><p>What type of rock is this?</p>","3","class_response","0","test","19","Gabbro","Basalt","09","false","4","2","",""
"","","","","","","","","","","","html-keyboard-response","44","2.0.0","133614","5a0d9553fe645f0001e9f852","1","14","null","","","","","","","","","<p style='font-size: 30px;'><strong>Okay</strong></p>","null","neutral_feedback","0","test","19","","","","","","","",""
"","","","","","","","","","","","html-button-response","45","2.0.0","135636","5a0d9553fe645f0001e9f852","1","14","2020","","","","","","","","","<img src= ""rock_img/I_Basalt_08.jpg"" style=""width:8cm; height:10.44cm;""><p>What type of rock is this?</p>","3","class_response","0","test","20","Gabbro","Basalt","08","false","4","2","",""
"","","","","","","","","","","","html-keyboard-response","46","2.0.0","136141","5a0d9553fe645f0001e9f852","1","14","null","","","","","","","","","<p style='font-size: 30px;'><strong>Okay</strong></p>","null","neutral_feedback","0","test","20","","","","","","","",""
"","","","","","","","","","","","html-button-response","47","2.0.0","137804","5a0d9553fe645f0001e9f852","1","14","1661","","","","","","","","","<img src= ""rock_img/I_Andesite_03.jpg"" style=""width:8cm; height:5.73cm;""><p>What type of rock is this?</p>","2","class_response","0","test","21","Diorite","Andesite","03","false","3","1","",""
"","","","","","","","","","","","html-keyboard-response","48","2.0.0","138317","5a0d9553fe645f0001e9f852","1","14","null","","","","","","","","","<p style='font-size: 30px;'><strong>Okay</strong></p>","null","neutral_feedback","0","test","21","","","","","","","",""
"","","","","","","","","","","","html-button-response","49","2.0.0","139812","5a0d9553fe645f0001e9f852","1","14","1493","","","","","","","","","<img src= ""rock_img/I_Pumice_16.jpg"" style=""width:8cm; height:6.79cm;""><p>What type of rock is this?</p>","7","class_response","0","test","22","Pumice","Pumice","16","true","8","8","",""
"","","","","","","","","","","","html-keyboard-response","50","2.0.0","140329","5a0d9553fe645f0001e9f852","1","14","null","","","","","","","","","<p style='font-size: 30px;'><strong>Okay</strong></p>","null","neutral_feedback","0","test","22","","","","","","","",""
"","","","","","","","","","","","html-button-response","51","2.0.0","141484","5a0d9553fe645f0001e9f852","1","14","1154","","","","","","","","","<img src= ""rock_img/I_Pumice_05.jpg"" style=""width:8cm; height:7.25cm;""><p>What type of rock is this?</p>","7","class_response","0","test","23","Pumice","Pumice","05","true","8","8","",""
"","","","","","","","","","","","html-keyboard-response","52","2.0.0","141996","5a0d9553fe645f0001e9f852","1","14","null","","","","","","","","","<p style='font-size: 30px;'><strong>Okay</strong></p>","null","neutral_feedback","0","test","23","","","","","","","",""
"","","","","","","","","","","","html-button-response","53","2.0.0","143459","5a0d9553fe645f0001e9f852","1","14","1461","","","","","","","","","<img src= ""rock_img/I_Pegmatite_03.jpg"" style=""width:8cm; height:5.239999999999999cm;""><p>What type of rock is this?</p>","0","class_response","0","test","24","Andesite","Pegmatite","03","false","1","6","",""
"","","","","","","","","","","","html-keyboard-response","54","2.0.0","143962","5a0d9553fe645f0001e9f852","1","14","null","","","","","","","","","<p style='font-size: 30px;'><strong>Okay</strong></p>","null","neutral_feedback","0","test","24","","","","","","","",""
"","","","","","","","","","","","html-button-response","55","2.0.0","147052","5a0d9553fe645f0001e9f852","1","14","3088","","","","","","","","","<img src= ""rock_img/I_Andesite_16.jpg"" style=""width:8cm; height:6.010000000000001cm;""><p>What type of rock is this?</p>","1","class_response","0","test","25","Basalt","Andesite","16","false","2","1","",""
"","","","","","","","","","","","html-keyboard-response","56","2.0.0","147567","5a0d9553fe645f0001e9f852","1","14","null","","","","","","","","","<p style='font-size: 30px;'><strong>Okay</strong></p>","null","neutral_feedback","0","test","25","","","","","","","",""
"","","","","","","","","","","","html-button-response","57","2.0.0","149477","5a0d9553fe645f0001e9f852","1","14","1908","","","","","","","","","<img src= ""rock_img/I_Andesite_11.jpg"" style=""width:8cm; height:4.92cm;""><p>What type of rock is this?</p>","2","class_response","0","test","26","Diorite","Andesite","11","false","3","1","",""
"","","","","","","","","","","","html-keyboard-response","58","2.0.0","149985","5a0d9553fe645f0001e9f852","1","14","null","","","","","","","","","<p style='font-size: 30px;'><strong>Okay</strong></p>","null","neutral_feedback","0","test","26","","","","","","","",""
"","","","","","","","","","","","html-button-response","59","2.0.0","151244","5a0d9553fe645f0001e9f852","1","14","1257","","","","","","","","","<img src= ""rock_img/I_Pumice_09.jpg"" style=""width:8cm; height:6.44cm;""><p>What type of rock is this?</p>","7","class_response","0","test","27","Pumice","Pumice","09","true","8","8","",""
"","","","","","","","","","","","html-keyboard-response","60","2.0.0","151758","5a0d9553fe645f0001e9f852","1","14","null","","","","","","","","","<p style='font-size: 30px;'><strong>Okay</strong></p>","null","neutral_feedback","0","test","27","","","","","","","",""
"","","","","","","","","","","","html-button-response","61","2.0.0","153477","5a0d9553fe645f0001e9f852","1","14","1717","","","","","","","","","<img src= ""rock_img/I_Peridotite_16.jpg"" style=""width:8cm; height:6.989999999999999cm;""><p>What type of rock is this?</p>","0","class_response","0","test","28","Andesite","Peridotite","16","false","1","7","",""
"","","","","","","","","","","","html-keyboard-response","62","2.0.0","153989","5a0d9553fe645f0001e9f852","1","14","null","","","","","","","","","<p style='font-size: 30px;'><strong>Okay</strong></p>","null","neutral_feedback","0","test","28","","","","","","","",""
"","","","","","","","","","","","html-button-response","63","2.0.0","157196","5a0d9553fe645f0001e9f852","1","14","3205","","","","","","","","","<img src= ""rock_img/I_Pegmatite_16.jpg"" style=""width:8cm; height:5.8cm;""><p>What type of rock is this?</p>","1","class_response","0","test","29","Basalt","Pegmatite","16","false","2","6","",""
"","","","","","","","","","","","html-keyboard-response","64","2.0.0","157711","5a0d9553fe645f0001e9f852","1","14","null","","","","","","","","","<p style='font-size: 30px;'><strong>Okay</strong></p>","null","neutral_feedback","0","test","29","","","","","","","",""
"","","","","","","","","","","","html-button-response","65","2.0.0","160964","5a0d9553fe645f0001e9f852","1","14","3251","","","","","","","","","<img src= ""rock_img/I_Basalt_02.jpg"" style=""width:8cm; height:6.45cm;""><p>What type of rock is this?</p>","5","class_response","0","test","30","Pegmatite","Basalt","02","false","6","2","",""
"","","","","","","","","","","","html-keyboard-response","66","2.0.0","161475","5a0d9553fe645f0001e9f852","1","14","null","","","","","","","","","<p style='font-size: 30px;'><strong>Okay</strong></p>","null","neutral_feedback","0","test","30","","","","","","","",""
"","","","","","","","","","","","html-button-response","67","2.0.0","163501","5a0d9553fe645f0001e9f852","1","14","2023","","","","","","","","","<img src= ""rock_img/I_Diorite_12.jpg"" style=""width:8cm; height:4.88cm;""><p>What type of rock is this?</p>","5","class_response","0","test","31","Pegmatite","Diorite","12","false","6","3","",""
"","","","","","","","","","","","html-keyboard-response","68","2.0.0","164002","5a0d9553fe645f0001e9f852","1","14","null","","","","","","","","","<p style='font-size: 30px;'><strong>Okay</strong></p>","null","neutral_feedback","0","test","31","","","","","","","",""
"","","","","","","","","","","","html-button-response","69","2.0.0","165988","5a0d9553fe645f0001e9f852","1","14","1983","","","","","","","","","<img src= ""rock_img/I_Diorite_11.jpg"" style=""width:8cm; height:7.11cm;""><p>What type of rock is this?</p>","5","class_response","0","test","32","Pegmatite","Diorite","11","false","6","3","",""
"","","","","","","","","","","","html-keyboard-response","70","2.0.0","166490","5a0d9553fe645f0001e9f852","1","14","null","","","","","","","","","<p style='font-size: 30px;'><strong>Okay</strong></p>","null","neutral_feedback","0","test","32","","","","","","","",""
"","","","","","","","","","","","html-button-response","71","2.0.0","168756","5a0d9553fe645f0001e9f852","1","14","2264","","","","","","","","","<img src= ""rock_img/I_Gabbro_08.jpg"" style=""width:8cm; height:5.15cm;""><p>What type of rock is this?</p>","1","class_response","0","test","33","Basalt","Gabbro","08","false","2","4","",""
"","","","","","","","","","","","html-keyboard-response","72","2.0.0","169267","5a0d9553fe645f0001e9f852","1","14","null","","","","","","","","","<p style='font-size: 30px;'><strong>Okay</strong></p>","null","neutral_feedback","0","test","33","","","","","","","",""
"","","","","","","","","","","","html-button-response","73","2.0.0","170821","5a0d9553fe645f0001e9f852","1","14","1551","","","","","","","","","<img src= ""rock_img/I_Andesite_14.jpg"" style=""width:8cm; height:5.449999999999999cm;""><p>What type of rock is this?</p>","2","class_response","0","test","34","Diorite","Andesite","14","false","3","1","",""
"","","","","","","","","","","","html-keyboard-response","74","2.0.0","171337","5a0d9553fe645f0001e9f852","1","14","null","","","","","","","","","<p style='font-size: 30px;'><strong>Okay</strong></p>","null","neutral_feedback","0","test","34","","","","","","","",""
"","","","","","","","","","","","html-button-response","75","2.0.0","172876","5a0d9553fe645f0001e9f852","1","14","1537","","","","","","","","","<img src= ""rock_img/I_Basalt_16.jpg"" style=""width:8cm; height:7.659999999999999cm;""><p>What type of rock is this?</p>","7","class_response","0","test","35","Pumice","Basalt","16","false","8","2","",""
"","","","","","","","","","","","html-keyboard-response","76","2.0.0","173391","5a0d9553fe645f0001e9f852","1","14","null","","","","","","","","","<p style='font-size: 30px;'><strong>Okay</strong></p>","null","neutral_feedback","0","test","35","","","","","","","",""
"","","","","","","","","","","","html-button-response","77","2.0.0","175093","5a0d9553fe645f0001e9f852","1","14","1699","","","","","","","","","<img src= ""rock_img/I_Basalt_10.jpg"" style=""width:8cm; height:5.85cm;""><p>What type of rock is this?</p>","4","class_response","0","test","36","Obsidian","Basalt","10","false","5","2","",""
"","","","","","","","","","","","html-keyboard-response","78","2.0.0","175595","5a0d9553fe645f0001e9f852","1","14","null","","","","","","","","","<p style='font-size: 30px;'><strong>Okay</strong></p>","null","neutral_feedback","0","test","36","","","","","","","",""
"","","","","","","","","","","","html-button-response","79","2.0.0","177564","5a0d9553fe645f0001e9f852","1","14","1967","","","","","","","","","<img src= ""rock_img/I_Pegmatite_08.jpg"" style=""width:8cm; height:7.68cm;""><p>What type of rock is this?</p>","3","class_response","0","test","37","Gabbro","Pegmatite","08","false","4","6","",""
"","","","","","","","","","","","html-keyboard-response","80","2.0.0","178067","5a0d9553fe645f0001e9f852","1","14","null","","","","","","","","","<p style='font-size: 30px;'><strong>Okay</strong></p>","null","neutral_feedback","0","test","37","","","","","","","",""
"","","","","","","","","","","","html-button-response","81","2.0.0","179756","5a0d9553fe645f0001e9f852","1","14","1687","","","","","","","","","<img src= ""rock_img/I_Gabbro_12.jpg"" style=""width:8cm; height:7.800000000000001cm;""><p>What type of rock is this?</p>","5","class_response","0","test","38","Pegmatite","Gabbro","12","false","6","4","",""
"","","","","","","","","","","","html-keyboard-response","82","2.0.0","180258","5a0d9553fe645f0001e9f852","1","14","null","","","","","","","","","<p style='font-size: 30px;'><strong>Okay</strong></p>","null","neutral_feedback","0","test","38","","","","","","","",""
"","","","","","","","","","","","html-button-response","83","2.0.0","181820","5a0d9553fe645f0001e9f852","1","14","1560","","","","","","","","","<img src= ""rock_img/I_Obsidian_05.jpg"" style=""width:8cm; height:6.33cm;""><p>What type of rock is this?</p>","2","class_response","0","test","39","Diorite","Obsidian","05","false","3","5","",""
"","","","","","","","","","","","html-keyboard-response","84","2.0.0","182323","5a0d9553fe645f0001e9f852","1","14","null","","","","","","","","","<p style='font-size: 30px;'><strong>Okay</strong></p>","null","neutral_feedback","0","test","39","","","","","","","",""
"","","","","","","","","","","","html-button-response","85","2.0.0","183445","5a0d9553fe645f0001e9f852","1","14","1120","","","","","","","","","<img src= ""rock_img/I_Obsidian_10.jpg"" style=""width:8cm; height:6.260000000000001cm;""><p>What type of rock is this?</p>","4","class_response","0","test","40","Obsidian","Obsidian","10","true","5","5","",""
"","","","","","","","","","","","html-keyboard-response","86","2.0.0","183947","5a0d9553fe645f0001e9f852","1","14","null","","","","","","","","","<p style='font-size: 30px;'><strong>Okay</strong></p>","null","neutral_feedback","0","test","40","","","","","","","",""
"","","","","","","","","","","","html-button-response","87","2.0.0","185109","5a0d9553fe645f0001e9f852","1","14","1160","","","","","","","","","<img src= ""rock_img/I_Peridotite_13.jpg"" style=""width:8cm; height:7.58cm;""><p>What type of rock is this?</p>","0","class_response","0","test","41","Andesite","Peridotite","13","false","1","7","",""
"","","","","","","","","","","","html-keyboard-response","88","2.0.0","185611","5a0d9553fe645f0001e9f852","1","14","null","","","","","","","","","<p style='font-size: 30px;'><strong>Okay</strong></p>","null","neutral_feedback","0","test","41","","","","","","","",""
"","","","","","","","","","","","html-button-response","89","2.0.0","188445","5a0d9553fe645f0001e9f852","1","14","2832","","","","","","","","","<img src= ""rock_img/I_Gabbro_14.jpg"" style=""width:8cm; height:8.48cm;""><p>What type of rock is this?</p>","1","class_response","0","test","42","Basalt","Gabbro","14","false","2","4","",""
"","","","","","","","","","","","html-keyboard-response","90","2.0.0","188949","5a0d9553fe645f0001e9f852","1","14","null","","","","","","","","","<p style='font-size: 30px;'><strong>Okay</strong></p>","null","neutral_feedback","0","test","42","","","","","","","",""
"","","","","","","","","","","","html-button-response","91","2.0.0","190613","5a0d9553fe645f0001e9f852","1","14","1662","","","","","","","","","<img src= ""rock_img/I_Pegmatite_09.jpg"" style=""width:8cm; height:4.03cm;""><p>What type of rock is this?</p>","0","class_response","0","test","43","Andesite","Pegmatite","09","false","1","6","",""
"","","","","","","","","","","","html-keyboard-response","92","2.0.0","191116","5a0d9553fe645f0001e9f852","1","14","null","","","","","","","","","<p style='font-size: 30px;'><strong>Okay</strong></p>","null","neutral_feedback","0","test","43","","","","","","","",""
"","","","","","","","","","","","html-button-response","93","2.0.0","192293","5a0d9553fe645f0001e9f852","1","14","1174","","","","","","","","","<img src= ""rock_img/I_Obsidian_02.jpg"" style=""width:8cm; height:7.51cm;""><p>What type of rock is this?</p>","4","class_response","0","test","44","Obsidian","Obsidian","02","true","5","5","",""
"","","","","","","","","","","","html-keyboard-response","94","2.0.0","192804","5a0d9553fe645f0001e9f852","1","14","null","","","","","","","","","<p style='font-size: 30px;'><strong>Okay</strong></p>","null","neutral_feedback","0","test","44","","","","","","","",""
"","","","","","","","","","","","html-button-response","95","2.0.0","194989","5a0d9553fe645f0001e9f852","1","14","2183","","","","","","","","","<img src= ""rock_img/I_Obsidian_07.jpg"" style=""width:8cm; height:4.76cm;""><p>What type of rock is this?</p>","4","class_response","0","test","45","Obsidian","Obsidian","07","true","5","5","",""
"","","","","","","","","","","","html-keyboard-response","96","2.0.0","195506","5a0d9553fe645f0001e9f852","1","14","null","","","","","","","","","<p style='font-size: 30px;'><strong>Okay</strong></p>","null","neutral_feedback","0","test","45","","","","","","","",""
"","","","","","","","","","","","html-button-response","97","2.0.0","197541","5a0d9553fe645f0001e9f852","1","14","2033","","","","","","","","","<img src= ""rock_img/I_Andesite_05.jpg"" style=""width:8cm; height:4.12cm;""><p>What type of rock is this?</p>","3","class_response","0","test","46","Gabbro","Andesite","05","false","4","1","",""
"","","","","","","","","","","","html-keyboard-response","98","2.0.0","198043","5a0d9553fe645f0001e9f852","1","14","null","","","","","","","","","<p style='font-size: 30px;'><strong>Okay</strong></p>","null","neutral_feedback","0","test","46","","","","","","","",""
"","","","","","","","","","","","html-button-response","99","2.0.0","199557","5a0d9553fe645f0001e9f852","1","14","1511","","","","","","","","","<img src= ""rock_img/I_Gabbro_10.jpg"" style=""width:8cm; height:5.680000000000001cm;""><p>What type of rock is this?</p>","2","class_response","0","test","47","Diorite","Gabbro","10","false","3","4","",""
"","","","","","","","","","","","html-keyboard-response","100","2.0.0","200066","5a0d9553fe645f0001e9f852","1","14","null","","","","","","","","","<p style='font-size: 30px;'><strong>Okay</strong></p>","null","neutral_feedback","0","test","47","","","","","","","",""
"","","","","","","","","","","","html-button-response","101","2.0.0","201509","5a0d9553fe645f0001e9f852","1","14","1440","","","","","","","","","<img src= ""rock_img/I_Pumice_15.jpg"" style=""width:8cm; height:7.86cm;""><p>What type of rock is this?</p>","7","class_response","0","test","48","Pumice","Pumice","15","true","8","8","",""
"","","","","","","","","","","","html-keyboard-response","102","2.0.0","202020","5a0d9553fe645f0001e9f852","1","14","null","","","","","","","","","<p style='font-size: 30px;'><strong>Okay</strong></p>","null","neutral_feedback","0","test","48","","","","","","","",""
"","","","","","","","","","","","instructions","103","2.0.0","223061","5a0d9553fe645f0001e9f852","1","14","21013","","","","","","","","[{""page_index"":0,""viewing_time"":15989},{""page_index"":1,""viewing_time"":2991},{""page_index"":2,""viewing_time"":2032}]","","","","","","","","","","","","","",""
"","","","","","","","","","","","html-button-response","104","2.0.0","225173","5a0d9553fe645f0001e9f852","1","14","2109","","","","","","","","","","0","start_train","","","","","","","","","","",""
"","","","","","","","","","","","html-button-response","105","2.0.0","226773","5a0d9553fe645f0001e9f852","1","14","1597","","","","","","","","","<img src= ""rock_img/I_Obsidian_04.jpg"" style=""width:8cm; height:6.930000000000001cm;""><p>What type of rock is this?</p>","4","class_response","1","train","1","Obsidian","Obsidian","04","true","5","5","",""
"","","","","","","","","","","","html-button-response","106","2.0.0","228277","5a0d9553fe645f0001e9f852","1","14","1501","","","","","","","","","<img src= rock_img/I_Obsidian_04.jpg style=""width:8cm; height:6.930000000000001cm;""><p style='font-size: 30px; color: green;'><strong>Correct!</strong></p><p style='font-size: 30px;'><strong>This rock is obsidian</strong></p>","0","corr_feedback","1","train","1","","","","","","","",""
"","","","","","","","","","","","html-button-response","107","2.0.0","229541","5a0d9553fe645f0001e9f852","1","14","1262","","","","","","","","","<img src= ""rock_img/I_Pumice_02.jpg"" style=""width:8cm; height:7.3999999999999995cm;""><p>What type of rock is this?</p>","7","class_response","1","train","2","Pumice","Pumice","02","true","8","8","",""
"","","","","","","","","","","","html-button-response","108","2.0.0","230974","5a0d9553fe645f0001e9f852","1","14","1431","","","","","","","","","<img src= rock_img/I_Pumice_02.jpg style=""width:8cm; height:7.3999999999999995cm;""><p style='font-size: 30px; color: green;'><strong>Correct!</strong></p><p style='font-size: 30px;'><strong>This rock is pumice</strong></p>","0","corr_feedback","1","train","2","","","","","","","",""
"","","","","","","","","","","","html-button-response","109","2.0.0","232133","5a0d9553fe645f0001e9f852","1","14","1157","","","","","","","","","<img src= ""rock_img/I_Obsidian_14.jpg"" style=""width:8cm; height:7.64cm;""><p>What type of rock is this?</p>","4","class_response","1","train","3","Obsidian","Obsidian","14","true","5","5","",""
"","","","","","","","","","","","html-button-response","110","2.0.0","233237","5a0d9553fe645f0001e9f852","1","14","1102","","","","","","","","","<img src= rock_img/I_Obsidian_14.jpg style=""width:8cm; height:7.64cm;""><p style='font-size: 30px; color: green;'><strong>Correct!</strong></p><p style='font-size: 30px;'><strong>This rock is obsidian</strong></p>","0","corr_feedback","1","train","3","","","","","","","",""
"","","","","","","","","","","","html-button-response","111","2.0.0","236749","5a0d9553fe645f0001e9f852","1","14","3510","","","","","","","","","<img src= ""rock_img/I_Andesite_07.jpg"" style=""width:8cm; height:5.93cm;""><p>What type of rock is this?</p>","2","class_response","1","train","4","Diorite","Andesite","07","false","3","1","",""
"","","","","","","","","","","","html-button-response","112","2.0.0","241645","5a0d9553fe645f0001e9f852","1","14","4894","","","","","","","","","<img src= rock_img/I_Andesite_07.jpg style=""width:8cm; height:5.93cm;""><p style='font-size: 30px; color: red;'><strong>Incorrect!</strong></p><p style='font-size: 30px;'><strong>This rock is andesite</strong></p>","0","corr_feedback","1","train","4","","","","","","","",""
"","","","","","","","","","","","html-button-response","113","2.0.0","243581","5a0d9553fe645f0001e9f852","1","14","1933","","","","","","","","","<img src= ""rock_img/I_Diorite_09.jpg"" style=""width:8cm; height:5.27cm;""><p>What type of rock is this?</p>","1","class_response","1","train","5","Basalt","Diorite","09","false","2","3","",""
"","","","","","","","","","","","html-button-response","114","2.0.0","247557","5a0d9553fe645f0001e9f852","1","14","3975","","","","","","","","","<img src= rock_img/I_Diorite_09.jpg style=""width:8cm; height:5.27cm;""><p style='font-size: 30px; color: red;'><strong>Incorrect!</strong></p><p style='font-size: 30px;'><strong>This rock is diorite</strong></p>","0","corr_feedback","1","train","5","","","","","","","",""
"","","","","","","","","","","","html-button-response","115","2.0.0","248998","5a0d9553fe645f0001e9f852","1","14","1438","","","","","","","","","<img src= ""rock_img/I_Diorite_08.jpg"" style=""width:8cm; height:6.37cm;""><p>What type of rock is this?</p>","2","class_response","1","train","6","Diorite","Diorite","08","true","3","3","",""
"","","","","","","","","","","","html-button-response","116","2.0.0","250300","5a0d9553fe645f0001e9f852","1","14","1300","","","","","","","","","<img src= rock_img/I_Diorite_08.jpg style=""width:8cm; height:6.37cm;""><p style='font-size: 30px; color: green;'><strong>Correct!</strong></p><p style='font-size: 30px;'><strong>This rock is diorite</strong></p>","0","corr_feedback","1","train","6","","","","","","","",""
"","","","","","","","","","","","html-button-response","117","2.0.0","251517","5a0d9553fe645f0001e9f852","1","14","1216","","","","","","","","","<img src= ""rock_img/I_Diorite_13.jpg"" style=""width:8cm; height:6.29cm;""><p>What type of rock is this?</p>","2","class_response","1","train","7","Diorite","Diorite","13","true","3","3","",""
"","","","","","","","","","","","html-button-response","118","2.0.0","252501","5a0d9553fe645f0001e9f852","1","14","981","","","","","","","","","<img src= rock_img/I_Diorite_13.jpg style=""width:8cm; height:6.29cm;""><p style='font-size: 30px; color: green;'><strong>Correct!</strong></p><p style='font-size: 30px;'><strong>This rock is diorite</strong></p>","0","corr_feedback","1","train","7","","","","","","","",""
"","","","","","","","","","","","html-button-response","119","2.0.0","254598","5a0d9553fe645f0001e9f852","1","14","2095","","","","","","","","","<img src= ""rock_img/I_Pumice_08.jpg"" style=""width:8cm; height:6.67cm;""><p>What type of rock is this?</p>","7","class_response","1","train","8","Pumice","Pumice","08","true","8","8","",""
"","","","","","","","","","","","html-button-response","120","2.0.0","255877","5a0d9553fe645f0001e9f852","1","14","1277","","","","","","","","","<img src= rock_img/I_Pumice_08.jpg style=""width:8cm; height:6.67cm;""><p style='font-size: 30px; color: green;'><strong>Correct!</strong></p><p style='font-size: 30px;'><strong>This rock is pumice</strong></p>","0","corr_feedback","1","train","8","","","","","","","",""
"","","","","","","","","","","","html-button-response","121","2.0.0","257517","5a0d9553fe645f0001e9f852","1","14","1638","","","","","","","","","<img src= ""rock_img/I_Basalt_05.jpg"" style=""width:8cm; height:8.18cm;""><p>What type of rock is this?</p>","4","class_response","1","train","9","Obsidian","Basalt","05","false","5","2","",""
"","","","","","","","","","","","html-button-response","122","2.0.0","260398","5a0d9553fe645f0001e9f852","1","14","2878","","","","","","","","","<img src= rock_img/I_Basalt_05.jpg style=""width:8cm; height:8.18cm;""><p style='font-size: 30px; color: red;'><strong>Incorrect!</strong></p><p style='font-size: 30px;'><strong>This rock is basalt</strong></p>","0","corr_feedback","1","train","9","","","","","","","",""
"","","","","","","","","","","","html-button-response","123","2.0.0","262845","5a0d9553fe645f0001e9f852","1","14","2445","","","","","","","","","<img src= ""rock_img/I_Andesite_04.jpg"" style=""width:8cm; height:5.96cm;""><p>What type of rock is this?</p>","0","class_response","1","train","10","Andesite","Andesite","04","true","1","1","",""
"","","","","","","","","","","","html-button-response","124","2.0.0","264333","5a0d9553fe645f0001e9f852","1","14","1486","","","","","","","","","<img src= rock_img/I_Andesite_04.jpg style=""width:8cm; height:5.96cm;""><p style='font-size: 30px; color: green;'><strong>Correct!</strong></p><p style='font-size: 30px;'><strong>This rock is andesite</strong></p>","0","corr_feedback","1","train","10","","","","","","","",""
"","","","","","","","","","","","html-button-response","125","2.0.0","265957","5a0d9553fe645f0001e9f852","1","14","1622","","","","","","","","","<img src= ""rock_img/I_Andesite_10.jpg"" style=""width:8cm; height:4.16cm;""><p>What type of rock is this?</p>","1","class_response","1","train","11","Basalt","Andesite","10","false","2","1","",""
"","","","","","","","","","","","html-button-response","126","2.0.0","268933","5a0d9553fe645f0001e9f852","1","14","2974","","","","","","","","","<img src= rock_img/I_Andesite_10.jpg style=""width:8cm; height:4.16cm;""><p style='font-size: 30px; color: red;'><strong>Incorrect!</strong></p><p style='font-size: 30px;'><strong>This rock is andesite</strong></p>","0","corr_feedback","1","train","11","","","","","","","",""
"","","","","","","","","","","","html-button-response","127","2.0.0","270437","5a0d9553fe645f0001e9f852","1","14","1501","","","","","","","","","<img src= ""rock_img/I_Pumice_13.jpg"" style=""width:8cm; height:8.200000000000001cm;""><p>What type of rock is this?</p>","7","class_response","1","train","12","Pumice","Pumice","13","true","8","8","",""
"","","","","","","","","","","","html-button-response","128","2.0.0","271613","5a0d9553fe645f0001e9f852","1","14","1174","","","","","","","","","<img src= rock_img/I_Pumice_13.jpg style=""width:8cm; height:8.200000000000001cm;""><p style='font-size: 30px; color: green;'><strong>Correct!</strong></p><p style='font-size: 30px;'><strong>This rock is pumice</strong></p>","0","corr_feedback","1","train","12","","","","","","","",""
"","","","","","","","","","","","html-button-response","129","2.0.0","274854","5a0d9553fe645f0001e9f852","1","14","3238","","","","","","","","","<img src= ""rock_img/I_Pegmatite_07.jpg"" style=""width:8cm; height:6.7cm;""><p>What type of rock is this?</p>","3","class_response","1","train","13","Gabbro","Pegmatite","07","false","4","6","",""
"","","","","","","","","","","","html-button-response","130","2.0.0","278517","5a0d9553fe645f0001e9f852","1","14","3662","","","","","","","","","<img src= rock_img/I_Pegmatite_07.jpg style=""width:8cm; height:6.7cm;""><p style='font-size: 30px; color: red;'><strong>Incorrect!</strong></p><p style='font-size: 30px;'><strong>This rock is pegmatite</strong></p>","0","corr_feedback","1","train","13","","","","","","","",""
"","","","","","","","","","","","html-button-response","131","2.0.0","280342","5a0d9553fe645f0001e9f852","1","14","1822","","","","","","","","","<img src= ""rock_img/I_Peridotite_02.jpg"" style=""width:8cm; height:5.859999999999999cm;""><p>What type of rock is this?</p>","5","class_response","1","train","14","Pegmatite","Peridotite","02","false","6","7","",""
"","","","","","","","","","","","html-button-response","132","2.0.0","284845","5a0d9553fe645f0001e9f852","1","14","4501","","","","","","","","","<img src= rock_img/I_Peridotite_02.jpg style=""width:8cm; height:5.859999999999999cm;""><p style='font-size: 30px; color: red;'><strong>Incorrect!</strong></p><p style='font-size: 30px;'><strong>This rock is peridotite</strong></p>","0","corr_feedback","1","train","14","","","","","","","",""
"","","","","","","","","","","","html-button-response","133","2.0.0","285974","5a0d9553fe645f0001e9f852","1","14","1126","","","","","","","","","<img src= ""rock_img/I_Obsidian_11.jpg"" style=""width:8cm; height:6.05cm;""><p>What type of rock is this?</p>","4","class_response","1","train","15","Obsidian","Obsidian","11","true","5","5","",""
"","","","","","","","","","","","html-button-response","134","2.0.0","287245","5a0d9553fe645f0001e9f852","1","14","1269","","","","","","","","","<img src= rock_img/I_Obsidian_11.jpg style=""width:8cm; height:6.05cm;""><p style='font-size: 30px; color: green;'><strong>Correct!</strong></p><p style='font-size: 30px;'><strong>This rock is obsidian</strong></p>","0","corr_feedback","1","train","15","","","","","","","",""
"","","","","","","","","","","","html-button-response","135","2.0.0","289662","5a0d9553fe645f0001e9f852","1","14","2414","","","","","","","","","<img src= ""rock_img/I_Basalt_01.jpg"" style=""width:8cm; height:7.880000000000001cm;""><p>What type of rock is this?</p>","1","class_response","1","train","16","Basalt","Basalt","01","true","2","2","",""
"","","","","","","","","","","","html-button-response","136","2.0.0","290981","5a0d9553fe645f0001e9f852","1","14","1316","","","","","","","","","<img src= rock_img/I_Basalt_01.jpg style=""width:8cm; height:7.880000000000001cm;""><p style='font-size: 30px; color: green;'><strong>Correct!</strong></p><p style='font-size: 30px;'><strong>This rock is basalt</strong></p>","0","corr_feedback","1","train","16","","","","","","","",""
"","","","","","","","","","","","html-button-response","137","2.0.0","293550","5a0d9553fe645f0001e9f852","1","14","2567","","","","","","","","","<img src= ""rock_img/I_Andesite_06.jpg"" style=""width:8cm; height:6.840000000000001cm;""><p>What type of rock is this?</p>","2","class_response","1","train","17","Diorite","Andesite","06","false","3","1","",""
"","","","","","","","","","","","html-button-response","138","2.0.0","295318","5a0d9553fe645f0001e9f852","1","14","1766","","","","","","","","","<img src= rock_img/I_Andesite_06.jpg style=""width:8cm; height:6.840000000000001cm;""><p style='font-size: 30px; color: red;'><strong>Incorrect!</strong></p><p style='font-size: 30px;'><strong>This rock is andesite</strong></p>","0","corr_feedback","1","train","17","","","","","","","",""
"","","","","","","","","","","","html-button-response","139","2.0.0","297334","5a0d9553fe645f0001e9f852","1","14","2014","","","","","","","","","<img src= ""rock_img/I_Basalt_04.jpg"" style=""width:8cm; height:7.53cm;""><p>What type of rock is this?</p>","1","class_response","1","train","18","Basalt","Basalt","04","true","2","2","",""
"","","","","","","","","","","","html-button-response","140","2.0.0","298374","5a0d9553fe645f0001e9f852","1","14","1038","","","","","","","","","<img src= rock_img/I_Basalt_04.jpg style=""width:8cm; height:7.53cm;""><p style='font-size: 30px; color: green;'><strong>Correct!</strong></p><p style='font-size: 30px;'><strong>This rock is basalt</strong></p>","0","corr_feedback","1","train","18","","","","","","","",""
"","","","","","","","","","","","html-button-response","141","2.0.0","299670","5a0d9553fe645f0001e9f852","1","14","1294","","","","","","","","","<img src= ""rock_img/I_Pumice_14.jpg"" style=""width:8cm; height:6.39cm;""><p>What type of rock is this?</p>","7","class_response","1","train","19","Pumice","Pumice","14","true","8","8","",""
"","","","","","","","","","","","html-button-response","142","2.0.0","300598","5a0d9553fe645f0001e9f852","1","14","925","","","","","","","","","<img src= rock_img/I_Pumice_14.jpg style=""width:8cm; height:6.39cm;""><p style='font-size: 30px; color: green;'><strong>Correct!</strong></p><p style='font-size: 30px;'><strong>This rock is pumice</strong></p>","0","corr_feedback","1","train","19","","","","","","","",""
"","","","","","","","","","","","html-button-response","143","2.0.0","302342","5a0d9553fe645f0001e9f852","1","14","1741","","","","","","","","","<img src= ""rock_img/I_Diorite_02.jpg"" style=""width:8cm; height:6.27cm;""><p>What type of rock is this?</p>","3","class_response","1","train","20","Gabbro","Diorite","02","false","4","3","",""
"","","","","","","","","","","","html-button-response","144","2.0.0","304654","5a0d9553fe645f0001e9f852","1","14","2310","","","","","","","","","<img src= rock_img/I_Diorite_02.jpg style=""width:8cm; height:6.27cm;""><p style='font-size: 30px; color: red;'><strong>Incorrect!</strong></p><p style='font-size: 30px;'><strong>This rock is diorite</strong></p>","0","corr_feedback","1","train","20","","","","","","","",""
"","","","","","","","","","","","html-button-response","145","2.0.0","306598","5a0d9553fe645f0001e9f852","1","14","1942","","","","","","","","","<img src= ""rock_img/I_Pumice_03.jpg"" style=""width:8cm; height:6.64cm;""><p>What type of rock is this?</p>","7","class_response","1","train","21","Pumice","Pumice","03","true","8","8","",""
"","","","","","","","","","","","html-button-response","146","2.0.0","307686","5a0d9553fe645f0001e9f852","1","14","1086","","","","","","","","","<img src= rock_img/I_Pumice_03.jpg style=""width:8cm; height:6.64cm;""><p style='font-size: 30px; color: green;'><strong>Correct!</strong></p><p style='font-size: 30px;'><strong>This rock is pumice</strong></p>","0","corr_feedback","1","train","21","","","","","","","",""
"","","","","","","","","","","","html-button-response","147","2.0.0","310374","5a0d9553fe645f0001e9f852","1","14","2686","","","","","","","","","<img src= ""rock_img/I_Gabbro_15.jpg"" style=""width:8cm; height:6.29cm;""><p>What type of rock is this?</p>","2","class_response","1","train","22","Diorite","Gabbro","15","false","3","4","",""
"","","","","","","","","","","","html-button-response","148","2.0.0","312294","5a0d9553fe645f0001e9f852","1","14","1917","","","","","","","","","<img src= rock_img/I_Gabbro_15.jpg style=""width:8cm; height:6.29cm;""><p style='font-size: 30px; color: red;'><strong>Incorrect!</strong></p><p style='font-size: 30px;'><strong>This rock is gabbro</strong></p>","0","corr_feedback","1","train","22","","","","","","","",""
"","","","","","","","","","","","html-button-response","149","2.0.0","314310","5a0d9553fe645f0001e9f852","1","14","2013","","","","","","","","","<img src= ""rock_img/I_Pegmatite_11.jpg"" style=""width:8cm; height:8.14cm;""><p>What type of rock is this?</p>","3","class_response","1","train","23","Gabbro","Pegmatite","11","false","4","6","",""
"","","","","","","","","","","","html-button-response","150","2.0.0","315718","5a0d9553fe645f0001e9f852","1","14","1406","","","","","","","","","<img src= rock_img/I_Pegmatite_11.jpg style=""width:8cm; height:8.14cm;""><p style='font-size: 30px; color: red;'><strong>Incorrect!</strong></p><p style='font-size: 30px;'><strong>This rock is pegmatite</strong></p>","0","corr_feedback","1","train","23","","","","","","","",""
"","","","","","","","","","","","html-button-response","151","2.0.0","318094","5a0d9553fe645f0001e9f852","1","14","2374","","","","","","","","","<img src= ""rock_img/I_Obsidian_06.jpg"" style=""width:8cm; height:6.8cm;""><p>What type of rock is this?</p>","4","class_response","1","train","24","Obsidian","Obsidian","06","true","5","5","",""
"","","","","","","","","","","","html-button-response","152","2.0.0","319094","5a0d9553fe645f0001e9f852","1","14","998","","","","","","","","","<img src= rock_img/I_Obsidian_06.jpg style=""width:8cm; height:6.8cm;""><p style='font-size: 30px; color: green;'><strong>Correct!</strong></p><p style='font-size: 30px;'><strong>This rock is obsidian</strong></p>","0","corr_feedback","1","train","24","","","","","","","",""
"","","","","","","","","","","","html-button-response","153","2.0.0","320646","5a0d9553fe645f0001e9f852","1","14","1550","","","","","","","","","<img src= ""rock_img/I_Basalt_11.jpg"" style=""width:8cm; height:5.359999999999999cm;""><p>What type of rock is this?</p>","7","class_response","1","train","25","Pumice","Basalt","11","false","8","2","",""
"","","","","","","","","","","","html-button-response","154","2.0.0","322278","5a0d9553fe645f0001e9f852","1","14","1630","","","","","","","","","<img src= rock_img/I_Basalt_11.jpg style=""width:8cm; height:5.359999999999999cm;""><p style='font-size: 30px; color: red;'><strong>Incorrect!</strong></p><p style='font-size: 30px;'><strong>This rock is basalt</strong></p>","0","corr_feedback","1","train","25","","","","","","","",""
"","","","","","","","","","","","html-button-response","155","2.0.0","326702","5a0d9553fe645f0001e9f852","1","14","4422","","","","","","","","","<img src= ""rock_img/I_Gabbro_01.jpg"" style=""width:8cm; height:5.21cm;""><p>What type of rock is this?</p>","5","class_response","1","train","26","Pegmatite","Gabbro","01","false","6","4","",""
"","","","","","","","","","","","html-button-response","156","2.0.0","327934","5a0d9553fe645f0001e9f852","1","14","1230","","","","","","","","","<img src= rock_img/I_Gabbro_01.jpg style=""width:8cm; height:5.21cm;""><p style='font-size: 30px; color: red;'><strong>Incorrect!</strong></p><p style='font-size: 30px;'><strong>This rock is gabbro</strong></p>","0","corr_feedback","1","train","26","","","","","","","",""
"","","","","","","","","","","","html-button-response","157","2.0.0","332022","5a0d9553fe645f0001e9f852","1","14","4086","","","","","","","","","<img src= ""rock_img/I_Gabbro_03.jpg"" style=""width:8cm; height:8.52cm;""><p>What type of rock is this?</p>","3","class_response","1","train","27","Gabbro","Gabbro","03","true","4","4","",""
"","","","","","","","","","","","html-button-response","158","2.0.0","333293","5a0d9553fe645f0001e9f852","1","14","1266","","","","","","","","","<img src= rock_img/I_Gabbro_03.jpg style=""width:8cm; height:8.52cm;""><p style='font-size: 30px; color: green;'><strong>Correct!</strong></p><p style='font-size: 30px;'><strong>This rock is gabbro</strong></p>","0","corr_feedback","1","train","27","","","","","","","",""
"","","","","","","","","","","","html-button-response","159","2.0.0","337743","5a0d9553fe645f0001e9f852","1","14","4448","","","","","","","","","<img src= ""rock_img/I_Basalt_14.jpg"" style=""width:8cm; height:5.82cm;""><p>What type of rock is this?</p>","7","class_response","1","train","28","Pumice","Basalt","14","false","8","2","",""
"","","","","","","","","","","","html-button-response","160","2.0.0","338934","5a0d9553fe645f0001e9f852","1","14","1189","","","","","","","","","<img src= rock_img/I_Basalt_14.jpg style=""width:8cm; height:5.82cm;""><p style='font-size: 30px; color: red;'><strong>Incorrect!</strong></p><p style='font-size: 30px;'><strong>This rock is basalt</strong></p>","0","corr_feedback","1","train","28","","","","","","","",""
"","","","","","","","","","","","html-button-response","161","2.0.0","340135","5a0d9553fe645f0001e9f852","1","14","1198","","","","","","","","","<img src= ""rock_img/I_Obsidian_08.jpg"" style=""width:8cm; height:7.39cm;""><p>What type of rock is this?</p>","4","class_response","1","train","29","Obsidian","Obsidian","08","true","5","5","",""
"","","","","","","","","","","","html-button-response","162","2.0.0","341262","5a0d9553fe645f0001e9f852","1","14","1125","","","","","","","","","<img src= rock_img/I_Obsidian_08.jpg style=""width:8cm; height:7.39cm;""><p style='font-size: 30px; color: green;'><strong>Correct!</strong></p><p style='font-size: 30px;'><strong>This rock is obsidian</strong></p>","0","corr_feedback","1","train","29","","","","","","","",""
"","","","","","","","","","","","html-button-response","163","2.0.0","346862","5a0d9553fe645f0001e9f852","1","14","5598","","","","","","","","","<img src= ""rock_img/I_Peridotite_07.jpg"" style=""width:8cm; height:4.83cm;""><p>What type of rock is this?</p>","6","class_response","1","train","30","Peridotite","Peridotite","07","true","7","7","",""
"","","","","","","","","","","","html-button-response","164","2.0.0","348415","5a0d9553fe645f0001e9f852","1","14","1550","","","","","","","","","<img src= rock_img/I_Peridotite_07.jpg style=""width:8cm; height:4.83cm;""><p style='font-size: 30px; color: green;'><strong>Correct!</strong></p><p style='font-size: 30px;'><strong>This rock is peridotite</strong></p>","0","corr_feedback","1","train","30","","","","","","","",""
"","","","","","","","","","","","html-button-response","165","2.0.0","351646","5a0d9553fe645f0001e9f852","1","14","3229","","","","","","","","","<img src= ""rock_img/I_Pegmatite_15.jpg"" style=""width:8cm; height:6cm;""><p>What type of rock is this?</p>","5","class_response","1","train","31","Pegmatite","Pegmatite","15","true","6","6","",""
"","","","","","","","","","","","html-button-response","166","2.0.0","352598","5a0d9553fe645f0001e9f852","1","14","950","","","","","","","","","<img src= rock_img/I_Pegmatite_15.jpg style=""width:8cm; height:6cm;""><p style='font-size: 30px; color: green;'><strong>Correct!</strong></p><p style='font-size: 30px;'><strong>This rock is pegmatite</strong></p>","0","corr_feedback","1","train","31","","","","","","","",""
"","","","","","","","","","","","html-button-response","167","2.0.0","355974","5a0d9553fe645f0001e9f852","1","14","3374","","","","","","","","","<img src= ""rock_img/I_Peridotite_12.jpg"" style=""width:8cm; height:4.54cm;""><p>What type of rock is this?</p>","3","class_response","1","train","32","Gabbro","Peridotite","12","false","4","7","",""
"","","","","","","","","","","","html-button-response","168","2.0.0","357262","5a0d9553fe645f0001e9f852","1","14","1285","","","","","","","","","<img src= rock_img/I_Peridotite_12.jpg style=""width:8cm; height:4.54cm;""><p style='font-size: 30px; color: red;'><strong>Incorrect!</strong></p><p style='font-size: 30px;'><strong>This rock is peridotite</strong></p>","0","corr_feedback","1","train","32","","","","","","","",""
"","","","","","","","","","","","html-button-response","169","2.0.0","359165","5a0d9553fe645f0001e9f852","1","14","1901","","","","","","","","","<img src= ""rock_img/I_Pegmatite_12.jpg"" style=""width:8cm; height:5.7cm;""><p>What type of rock is this?</p>","3","class_response","1","train","33","Gabbro","Pegmatite","12","false","4","6","",""
"","","","","","","","","","","","html-button-response","170","2.0.0","360414","5a0d9553fe645f0001e9f852","1","14","1246","","","","","","","","","<img src= rock_img/I_Pegmatite_12.jpg style=""width:8cm; height:5.7cm;""><p style='font-size: 30px; color: red;'><strong>Incorrect!</strong></p><p style='font-size: 30px;'><strong>This rock is pegmatite</strong></p>","0","corr_feedback","1","train","33","","","","","","","",""
"","","","","","","","","","","","html-button-response","171","2.0.0","361894","5a0d9553fe645f0001e9f852","1","14","1477","","","","","","","","","<img src= ""rock_img/I_Peridotite_04.jpg"" style=""width:8cm; height:6.680000000000001cm;""><p>What type of rock is this?</p>","5","class_response","1","train","34","Pegmatite","Peridotite","04","false","6","7","",""
"","","","","","","","","","","","html-button-response","172","2.0.0","363998","5a0d9553fe645f0001e9f852","1","14","2102","","","","","","","","","<img src= rock_img/I_Peridotite_04.jpg style=""width:8cm; height:6.680000000000001cm;""><p style='font-size: 30px; color: red;'><strong>Incorrect!</strong></p><p style='font-size: 30px;'><strong>This rock is peridotite</strong></p>","0","corr_feedback","1","train","34","","","","","","","",""
"","","","","","","","","","","","html-button-response","173","2.0.0","366045","5a0d9553fe645f0001e9f852","1","14","2045","","","","","","","","","<img src= ""rock_img/I_Pegmatite_10.jpg"" style=""width:8cm; height:4.16cm;""><p>What type of rock is this?</p>","6","class_response","1","train","35","Peridotite","Pegmatite","10","false","7","6","",""
"","","","","","","","","","","","html-button-response","174","2.0.0","367646","5a0d9553fe645f0001e9f852","1","14","1598","","","","","","","","","<img src= rock_img/I_Pegmatite_10.jpg style=""width:8cm; height:4.16cm;""><p style='font-size: 30px; color: red;'><strong>Incorrect!</strong></p><p style='font-size: 30px;'><strong>This rock is pegmatite</strong></p>","0","corr_feedback","1","train","35","","","","","","","",""
"","","","","","","","","","","","html-button-response","175","2.0.0","369918","5a0d9553fe645f0001e9f852","1","14","2270","","","","","","","","","<img src= ""rock_img/I_Gabbro_11.jpg"" style=""width:8cm; height:6.2cm;""><p>What type of rock is this?</p>","1","class_response","1","train","36","Basalt","Gabbro","11","false","2","4","",""
"","","","","","","","","","","","html-button-response","176","2.0.0","371222","5a0d9553fe645f0001e9f852","1","14","1301","","","","","","","","","<img src= rock_img/I_Gabbro_11.jpg style=""width:8cm; height:6.2cm;""><p style='font-size: 30px; color: red;'><strong>Incorrect!</strong></p><p style='font-size: 30px;'><strong>This rock is gabbro</strong></p>","0","corr_feedback","1","train","36","","","","","","","",""
"","","","","","","","","","","","html-button-response","177","2.0.0","377718","5a0d9553fe645f0001e9f852","1","14","6493","","","","","","","","","<img src= ""rock_img/I_Pegmatite_06.jpg"" style=""width:8cm; height:5.17cm;""><p>What type of rock is this?</p>","2","class_response","1","train","37","Diorite","Pegmatite","06","false","3","6","",""
"","","","","","","","","","","","html-button-response","178","2.0.0","378742","5a0d9553fe645f0001e9f852","1","14","1022","","","","","","","","","<img src= rock_img/I_Pegmatite_06.jpg style=""width:8cm; height:5.17cm;""><p style='font-size: 30px; color: red;'><strong>Incorrect!</strong></p><p style='font-size: 30px;'><strong>This rock is pegmatite</strong></p>","0","corr_feedback","1","train","37","","","","","","","",""
"","","","","","","","","","","","html-button-response","179","2.0.0","380557","5a0d9553fe645f0001e9f852","1","14","1813","","","","","","","","","<img src= ""rock_img/I_Pumice_10.jpg"" style=""width:8cm; height:7.609999999999999cm;""><p>What type of rock is this?</p>","7","class_response","1","train","38","Pumice","Pumice","10","true","8","8","",""
"","","","","","","","","","","","html-button-response","180","2.0.0","381710","5a0d9553fe645f0001e9f852","1","14","1151","","","","","","","","","<img src= rock_img/I_Pumice_10.jpg style=""width:8cm; height:7.609999999999999cm;""><p style='font-size: 30px; color: green;'><strong>Correct!</strong></p><p style='font-size: 30px;'><strong>This rock is pumice</strong></p>","0","corr_feedback","1","train","38","","","","","","","",""
"","","","","","","","","","","","html-button-response","181","2.0.0","385246","5a0d9553fe645f0001e9f852","1","14","3534","","","","","","","","","<img src= ""rock_img/I_Gabbro_13.jpg"" style=""width:8cm; height:5.08cm;""><p>What type of rock is this?</p>","1","class_response","1","train","39","Basalt","Gabbro","13","false","2","4","",""
"","","","","","","","","","","","html-button-response","182","2.0.0","386310","5a0d9553fe645f0001e9f852","1","14","1062","","","","","","","","","<img src= rock_img/I_Gabbro_13.jpg style=""width:8cm; height:5.08cm;""><p style='font-size: 30px; color: red;'><strong>Incorrect!</strong></p><p style='font-size: 30px;'><strong>This rock is gabbro</strong></p>","0","corr_feedback","1","train","39","","","","","","","",""
"","","","","","","","","","","","html-button-response","183","2.0.0","390918","5a0d9553fe645f0001e9f852","1","14","4605","","","","","","","","","<img src= ""rock_img/I_Gabbro_09.jpg"" style=""width:8cm; height:7.279999999999999cm;""><p>What type of rock is this?</p>","1","class_response","1","train","40","Basalt","Gabbro","09","false","2","4","",""
"","","","","","","","","","","","html-button-response","184","2.0.0","392046","5a0d9553fe645f0001e9f852","1","14","1126","","","","","","","","","<img src= rock_img/I_Gabbro_09.jpg style=""width:8cm; height:7.279999999999999cm;""><p style='font-size: 30px; color: red;'><strong>Incorrect!</strong></p><p style='font-size: 30px;'><strong>This rock is gabbro</strong></p>","0","corr_feedback","1","train","40","","","","","","","",""
"","","","","","","","","","","","html-button-response","185","2.0.0","394126","5a0d9553fe645f0001e9f852","1","14","2077","","","","","","","","","<img src= ""rock_img/I_Diorite_07.jpg"" style=""width:8cm; height:5.239999999999999cm;""><p>What type of rock is this?</p>","5","class_response","1","train","41","Pegmatite","Diorite","07","false","6","3","",""
"","","","","","","","","","","","html-button-response","186","2.0.0","395262","5a0d9553fe645f0001e9f852","1","14","1133","","","","","","","","","<img src= rock_img/I_Diorite_07.jpg style=""width:8cm; height:5.239999999999999cm;""><p style='font-size: 30px; color: red;'><strong>Incorrect!</strong></p><p style='font-size: 30px;'><strong>This rock is diorite</strong></p>","0","corr_feedback","1","train","41","","","","","","","",""
"","","","","","","","","","","","html-button-response","187","2.0.0","396614","5a0d9553fe645f0001e9f852","1","14","1350","","","","","","","","","<img src= ""rock_img/I_Obsidian_16.jpg"" style=""width:8cm; height:9.3cm;""><p>What type of rock is this?</p>","4","class_response","1","train","42","Obsidian","Obsidian","16","true","5","5","",""
"","","","","","","","","","","","html-button-response","188","2.0.0","398166","5a0d9553fe645f0001e9f852","1","14","1550","","","","","","","","","<img src= rock_img/I_Obsidian_16.jpg style=""width:8cm; height:9.3cm;""><p style='font-size: 30px; color: green;'><strong>Correct!</strong></p><p style='font-size: 30px;'><strong>This rock is obsidian</strong></p>","0","corr_feedback","1","train","42","","","","","","","",""
"","","","","","","","","","","","html-button-response","189","2.0.0","399486","5a0d9553fe645f0001e9f852","1","14","1318","","","","","","","","","<img src= ""rock_img/I_Basalt_12.jpg"" style=""width:8cm; height:6.010000000000001cm;""><p>What type of rock is this?</p>","7","class_response","1","train","43","Pumice","Basalt","12","false","8","2","",""
"","","","","","","","","","","","html-button-response","190","2.0.0","400910","5a0d9553fe645f0001e9f852","1","14","1421","","","","","","","","","<img src= rock_img/I_Basalt_12.jpg style=""width:8cm; height:6.010000000000001cm;""><p style='font-size: 30px; color: red;'><strong>Incorrect!</strong></p><p style='font-size: 30px;'><strong>This rock is basalt</strong></p>","0","corr_feedback","1","train","43","","","","","","","",""
"","","","","","","","","","","","html-button-response","191","2.0.0","403478","5a0d9553fe645f0001e9f852","1","14","2566","","","","","","","","","<img src= ""rock_img/I_Andesite_01.jpg"" style=""width:8cm; height:5.87cm;""><p>What type of rock is this?</p>","5","class_response","1","train","44","Pegmatite","Andesite","01","false","6","1","",""
"","","","","","","","","","","","html-button-response","192","2.0.0","404887","5a0d9553fe645f0001e9f852","1","14","1406","","","","","","","","","<img src= rock_img/I_Andesite_01.jpg style=""width:8cm; height:5.87cm;""><p style='font-size: 30px; color: red;'><strong>Incorrect!</strong></p><p style='font-size: 30px;'><strong>This rock is andesite</strong></p>","0","corr_feedback","1","train","44","","","","","","","",""
"","","","","","","","","","","","html-button-response","193","2.0.0","406982","5a0d9553fe645f0001e9f852","1","14","2093","","","","","","","","","<img src= ""rock_img/I_Peridotite_08.jpg"" style=""width:8cm; height:6.7cm;""><p>What type of rock is this?</p>","6","class_response","1","train","45","Peridotite","Peridotite","08","true","7","7","",""
"","","","","","","","","","","","html-button-response","194","2.0.0","408174","5a0d9553fe645f0001e9f852","1","14","1190","","","","","","","","","<img src= rock_img/I_Peridotite_08.jpg style=""width:8cm; height:6.7cm;""><p style='font-size: 30px; color: green;'><strong>Correct!</strong></p><p style='font-size: 30px;'><strong>This rock is peridotite</strong></p>","0","corr_feedback","1","train","45","","","","","","","",""
"","","","","","","","","","","","html-button-response","195","2.0.0","409918","5a0d9553fe645f0001e9f852","1","14","1742","","","","","","","","","<img src= ""rock_img/I_Peridotite_06.jpg"" style=""width:8cm; height:7.53cm;""><p>What type of rock is this?</p>","6","class_response","1","train","46","Peridotite","Peridotite","06","true","7","7","",""
"","","","","","","","","","","","html-button-response","196","2.0.0","410918","5a0d9553fe645f0001e9f852","1","14","998","","","","","","","","","<img src= rock_img/I_Peridotite_06.jpg style=""width:8cm; height:7.53cm;""><p style='font-size: 30px; color: green;'><strong>Correct!</strong></p><p style='font-size: 30px;'><strong>This rock is peridotite</strong></p>","0","corr_feedback","1","train","46","","","","","","","",""
"","","","","","","","","","","","html-button-response","197","2.0.0","413223","5a0d9553fe645f0001e9f852","1","14","2302","","","","","","","","","<img src= ""rock_img/I_Andesite_09.jpg"" style=""width:8cm; height:6cm;""><p>What type of rock is this?</p>","1","class_response","1","train","47","Basalt","Andesite","09","false","2","1","",""
"","","","","","","","","","","","html-button-response","198","2.0.0","414382","5a0d9553fe645f0001e9f852","1","14","1158","","","","","","","","","<img src= rock_img/I_Andesite_09.jpg style=""width:8cm; height:6cm;""><p style='font-size: 30px; color: red;'><strong>Incorrect!</strong></p><p style='font-size: 30px;'><strong>This rock is andesite</strong></p>","0","corr_feedback","1","train","47","","","","","","","",""
"","","","","","","","","","","","html-button-response","199","2.0.0","417767","5a0d9553fe645f0001e9f852","1","14","3383","","","","","","","","","<img src= ""rock_img/I_Diorite_15.jpg"" style=""width:8cm; height:5.54cm;""><p>What type of rock is this?</p>","5","class_response","1","train","48","Pegmatite","Diorite","15","false","6","3","",""
"","","","","","","","","","","","html-button-response","200","2.0.0","418886","5a0d9553fe645f0001e9f852","1","14","1117","","","","","","","","","<img src= rock_img/I_Diorite_15.jpg style=""width:8cm; height:5.54cm;""><p style='font-size: 30px; color: red;'><strong>Incorrect!</strong></p><p style='font-size: 30px;'><strong>This rock is diorite</strong></p>","0","corr_feedback","1","train","48","","","","","","","",""
"","","","","","","","","","","","instructions","203","2.0.0","431015","5a0d9553fe645f0001e9f852","1","14","12127","","","","","","","","[{""page_index"":0,""viewing_time"":6814},{""page_index"":1,""viewing_time"":5312}]","","","","","","","","","","","","","",""
"","","","","","","","","","","","html-button-response","204","2.0.0","432214","5a0d9553fe645f0001e9f852","1","14","1197","","","","","","","","","","0","start_test","","","","","","","","","","",""
"","","","","","","","","","","","html-button-response","205","2.0.0","433847","5a0d9553fe645f0001e9f852","1","14","1630","","","","","","","","","<img src= ""rock_img/I_Obsidian_02.jpg"" style=""width:8cm; height:7.51cm;""><p>What type of rock is this?</p>","4","class_response","1","test","1","Obsidian","Obsidian","02","true","5","5","",""
"","","","","","","","","","","","html-keyboard-response","206","2.0.0","434349","5a0d9553fe645f0001e9f852","1","14","null","","","","","","","","","<p style='font-size: 30px;'><strong>Okay</strong></p>","null","neutral_feedback","1","test","1","","","","","","","",""
"","","","","","","","","","","","html-button-response","207","2.0.0","438478","5a0d9553fe645f0001e9f852","1","14","4127","","","","","","","","","<img src= ""rock_img/I_Andesite_05.jpg"" style=""width:8cm; height:4.12cm;""><p>What type of rock is this?</p>","2","class_response","1","test","2","Diorite","Andesite","05","false","3","1","",""
"","","","","","","","","","","","html-keyboard-response","208","2.0.0","438985","5a0d9553fe645f0001e9f852","1","14","null","","","","","","","","","<p style='font-size: 30px;'><strong>Okay</strong></p>","null","neutral_feedback","1","test","2","","","","","","","",""
"","","","","","","","","","","","html-button-response","209","2.0.0","441327","5a0d9553fe645f0001e9f852","1","14","2340","","","","","","","","","<img src= ""rock_img/I_Basalt_10.jpg"" style=""width:8cm; height:5.85cm;""><p>What type of rock is this?</p>","1","class_response","1","test","3","Basalt","Basalt","10","true","2","2","",""
"","","","","","","","","","","","html-keyboard-response","210","2.0.0","441841","5a0d9553fe645f0001e9f852","1","14","null","","","","","","","","","<p style='font-size: 30px;'><strong>Okay</strong></p>","null","neutral_feedback","1","test","3","","","","","","","",""
"","","","","","","","","","","","html-button-response","211","2.0.0","445527","5a0d9553fe645f0001e9f852","1","14","3683","","","","","","","","","<img src= ""rock_img/I_Diorite_16.jpg"" style=""width:8cm; height:6.74cm;""><p>What type of rock is this?</p>","2","class_response","1","test","4","Diorite","Diorite","16","true","3","3","",""
"","","","","","","","","","","","html-keyboard-response","212","2.0.0","446043","5a0d9553fe645f0001e9f852","1","14","null","","","","","","","","","<p style='font-size: 30px;'><strong>Okay</strong></p>","null","neutral_feedback","1","test","4","","","","","","","",""
"","","","","","","","","","","","html-button-response","213","2.0.0","447391","5a0d9553fe645f0001e9f852","1","14","1346","","","","","","","","","<img src= ""rock_img/I_Pumice_04.jpg"" style=""width:8cm; height:6.819999999999999cm;""><p>What type of rock is this?</p>","7","class_response","1","test","5","Pumice","Pumice","04","true","8","8","",""
"","","","","","","","","","","","html-keyboard-response","214","2.0.0","447895","5a0d9553fe645f0001e9f852","1","14","null","","","","","","","","","<p style='font-size: 30px;'><strong>Okay</strong></p>","null","neutral_feedback","1","test","5","","","","","","","",""
"","","","","","","","","","","","html-button-response","215","2.0.0","449071","5a0d9553fe645f0001e9f852","1","14","1174","","","","","","","","","<img src= ""rock_img/I_Pumice_09.jpg"" style=""width:8cm; height:6.44cm;""><p>What type of rock is this?</p>","7","class_response","1","test","6","Pumice","Pumice","09","true","8","8","",""
"","","","","","","","","","","","html-keyboard-response","216","2.0.0","449579","5a0d9553fe645f0001e9f852","1","14","null","","","","","","","","","<p style='font-size: 30px;'><strong>Okay</strong></p>","null","neutral_feedback","1","test","6","","","","","","","",""
"","","","","","","","","","","","html-button-response","217","2.0.0","452351","5a0d9553fe645f0001e9f852","1","14","2770","","","","","","","","","<img src= ""rock_img/I_Pegmatite_08.jpg"" style=""width:8cm; height:7.68cm;""><p>What type of rock is this?</p>","6","class_response","1","test","7","Peridotite","Pegmatite","08","false","7","6","",""
"","","","","","","","","","","","html-keyboard-response","218","2.0.0","452856","5a0d9553fe645f0001e9f852","1","14","null","","","","","","","","","<p style='font-size: 30px;'><strong>Okay</strong></p>","null","neutral_feedback","1","test","7","","","","","","","",""
"","","","","","","","","","","","html-button-response","219","2.0.0","456751","5a0d9553fe645f0001e9f852","1","14","3893","","","","","","","","","<img src= ""rock_img/I_Gabbro_12.jpg"" style=""width:8cm; height:7.800000000000001cm;""><p>What type of rock is this?</p>","3","class_response","1","test","8","Gabbro","Gabbro","12","true","4","4","",""
"","","","","","","","","","","","html-keyboard-response","220","2.0.0","457254","5a0d9553fe645f0001e9f852","1","14","null","","","","","","","","","<p style='font-size: 30px;'><strong>Okay</strong></p>","null","neutral_feedback","1","test","8","","","","","","","",""
"","","","","","","","","","","","html-button-response","221","2.0.0","463487","5a0d9553fe645f0001e9f852","1","14","6231","","","","","","","","","<img src= ""rock_img/I_Pegmatite_13.jpg"" style=""width:8cm; height:4.95cm;""><p>What type of rock is this?</p>","5","class_response","1","test","9","Pegmatite","Pegmatite","13","true","6","6","",""
"","","","","","","","","","","","html-keyboard-response","222","2.0.0","463999","5a0d9553fe645f0001e9f852","1","14","null","","","","","","","","","<p style='font-size: 30px;'><strong>Okay</strong></p>","null","neutral_feedback","1","test","9","","","","","","","",""
"","","","","","","","","","","","html-button-response","223","2.0.0","467551","5a0d9553fe645f0001e9f852","1","14","3550","","","","","","","","","<img src= ""rock_img/I_Gabbro_10.jpg"" style=""width:8cm; height:5.680000000000001cm;""><p>What type of rock is this?</p>","1","class_response","1","test","10","Basalt","Gabbro","10","false","2","4","",""
"","","","","","","","","","","","html-keyboard-response","224","2.0.0","468062","5a0d9553fe645f0001e9f852","1","14","null","","","","","","","","","<p style='font-size: 30px;'><strong>Okay</strong></p>","null","neutral_feedback","1","test","10","","","","","","","",""
"","","","","","","","","","","","html-button-response","225","2.0.0","469351","5a0d9553fe645f0001e9f852","1","14","1286","","","","","","","","","<img src= ""rock_img/I_Pumice_16.jpg"" style=""width:8cm; height:6.79cm;""><p>What type of rock is this?</p>","7","class_response","1","test","11","Pumice","Pumice","16","true","8","8","",""
"","","","","","","","","","","","html-keyboard-response","226","2.0.0","469864","5a0d9553fe645f0001e9f852","1","14","null","","","","","","","","","<p style='font-size: 30px;'><strong>Okay</strong></p>","null","neutral_feedback","1","test","11","","","","","","","",""
"","","","","","","","","","","","html-button-response","227","2.0.0","471247","5a0d9553fe645f0001e9f852","1","14","1381","","","","","","","","","<img src= ""rock_img/I_Obsidian_07.jpg"" style=""width:8cm; height:4.76cm;""><p>What type of rock is this?</p>","4","class_response","1","test","12","Obsidian","Obsidian","07","true","5","5","",""
"","","","","","","","","","","","html-keyboard-response","228","2.0.0","471750","5a0d9553fe645f0001e9f852","1","14","null","","","","","","","","","<p style='font-size: 30px;'><strong>Okay</strong></p>","null","neutral_feedback","1","test","12","","","","","","","",""
"","","","","","","","","","","","html-button-response","229","2.0.0","476087","5a0d9553fe645f0001e9f852","1","14","4335","","","","","","","","","<img src= ""rock_img/I_Peridotite_15.jpg"" style=""width:8cm; height:6cm;""><p>What type of rock is this?</p>","6","class_response","1","test","13","Peridotite","Peridotite","15","true","7","7","",""
"","","","","","","","","","","","html-keyboard-response","230","2.0.0","476602","5a0d9553fe645f0001e9f852","1","14","null","","","","","","","","","<p style='font-size: 30px;'><strong>Okay</strong></p>","null","neutral_feedback","1","test","13","","","","","","","",""
"","","","","","","","","","","","html-button-response","231","2.0.0","480367","5a0d9553fe645f0001e9f852","1","14","3763","","","","","","","","","<img src= ""rock_img/I_Peridotite_05.jpg"" style=""width:8cm; height:7.1499999999999995cm;""><p>What type of rock is this?</p>","2","class_response","1","test","14","Diorite","Peridotite","05","false","3","7","",""
"","","","","","","","","","","","html-keyboard-response","232","2.0.0","480870","5a0d9553fe645f0001e9f852","1","14","null","","","","","","","","","<p style='font-size: 30px;'><strong>Okay</strong></p>","null","neutral_feedback","1","test","14","","","","","","","",""
"","","","","","","","","","","","html-button-response","233","2.0.0","482232","5a0d9553fe645f0001e9f852","1","14","1359","","","","","","","","","<img src= ""rock_img/I_Obsidian_10.jpg"" style=""width:8cm; height:6.260000000000001cm;""><p>What type of rock is this?</p>","4","class_response","1","test","15","Obsidian","Obsidian","10","true","5","5","",""
"","","","","","","","","","","","html-keyboard-response","234","2.0.0","482735","5a0d9553fe645f0001e9f852","1","14","null","","","","","","","","","<p style='font-size: 30px;'><strong>Okay</strong></p>","null","neutral_feedback","1","test","15","","","","","","","",""
"","","","","","","","","","","","html-button-response","235","2.0.0","484279","5a0d9553fe645f0001e9f852","1","14","1542","","","","","","","","","<img src= ""rock_img/I_Diorite_10.jpg"" style=""width:8cm; height:5.949999999999999cm;""><p>What type of rock is this?</p>","0","class_response","1","test","16","Andesite","Diorite","10","false","1","3","",""
"","","","","","","","","","","","html-keyboard-response","236","2.0.0","484785","5a0d9553fe645f0001e9f852","1","14","null","","","","","","","","","<p style='font-size: 30px;'><strong>Okay</strong></p>","null","neutral_feedback","1","test","16","","","","","","","",""
"","","","","","","","","","","","html-button-response","237","2.0.0","486335","5a0d9553fe645f0001e9f852","1","14","1548","","","","","","","","","<img src= ""rock_img/I_Peridotite_13.jpg"" style=""width:8cm; height:7.58cm;""><p>What type of rock is this?</p>","6","class_response","1","test","17","Peridotite","Peridotite","13","true","7","7","",""
"","","","","","","","","","","","html-keyboard-response","238","2.0.0","486838","5a0d9553fe645f0001e9f852","1","14","null","","","","","","","","","<p style='font-size: 30px;'><strong>Okay</strong></p>","null","neutral_feedback","1","test","17","","","","","","","",""
"","","","","","","","","","","","html-button-response","239","2.0.0","490519","5a0d9553fe645f0001e9f852","1","14","3680","","","","","","","","","<img src= ""rock_img/I_Gabbro_16.jpg"" style=""width:8cm; height:6.44cm;""><p>What type of rock is this?</p>","1","class_response","1","test","18","Basalt","Gabbro","16","false","2","4","",""
"","","","","","","","","","","","html-keyboard-response","240","2.0.0","491032","5a0d9553fe645f0001e9f852","1","14","null","","","","","","","","","<p style='font-size: 30px;'><strong>Okay</strong></p>","null","neutral_feedback","1","test","18","","","","","","","",""
"","","","","","","","","","","","html-button-response","241","2.0.0","493743","5a0d9553fe645f0001e9f852","1","14","2709","","","","","","","","","<img src= ""rock_img/I_Basalt_02.jpg"" style=""width:8cm; height:6.45cm;""><p>What type of rock is this?</p>","1","class_response","1","test","19","Basalt","Basalt","02","true","2","2","",""
"","","","","","","","","","","","html-keyboard-response","242","2.0.0","494247","5a0d9553fe645f0001e9f852","1","14","null","","","","","","","","","<p style='font-size: 30px;'><strong>Okay</strong></p>","null","neutral_feedback","1","test","19","","","","","","","",""
"","","","","","","","","","","","html-button-response","243","2.0.0","495823","5a0d9553fe645f0001e9f852","1","14","1574","","","","","","","","","<img src= ""rock_img/I_Peridotite_14.jpg"" style=""width:8cm; height:5.3cm;""><p>What type of rock is this?</p>","6","class_response","1","test","20","Peridotite","Peridotite","14","true","7","7","",""
"","","","","","","","","","","","html-keyboard-response","244","2.0.0","496325","5a0d9553fe645f0001e9f852","1","14","null","","","","","","","","","<p style='font-size: 30px;'><strong>Okay</strong></p>","null","neutral_feedback","1","test","20","","","","","","","",""
"","","","","","","","","","","","html-button-response","245","2.0.0","498895","5a0d9553fe645f0001e9f852","1","14","2568","","","","","","","","","<img src= ""rock_img/I_Peridotite_10.jpg"" style=""width:8cm; height:5.390000000000001cm;""><p>What type of rock is this?</p>","3","class_response","1","test","21","Gabbro","Peridotite","10","false","4","7","",""
"","","","","","","","","","","","html-keyboard-response","246","2.0.0","499404","5a0d9553fe645f0001e9f852","1","14","null","","","","","","","","","<p style='font-size: 30px;'><strong>Okay</strong></p>","null","neutral_feedback","1","test","21","","","","","","","",""
"","","","","","","","","","","","html-button-response","247","2.0.0","500592","5a0d9553fe645f0001e9f852","1","14","1185","","","","","","","","","<img src= ""rock_img/I_Pegmatite_09.jpg"" style=""width:8cm; height:4.03cm;""><p>What type of rock is this?</p>","6","class_response","1","test","22","Peridotite","Pegmatite","09","false","7","6","",""
"","","","","","","","","","","","html-keyboard-response","248","2.0.0","501095","5a0d9553fe645f0001e9f852","1","14","null","","","","","","","","","<p style='font-size: 30px;'><strong>Okay</strong></p>","null","neutral_feedback","1","test","22","","","","","","","",""
"","","","","","","","","","","","html-button-response","249","2.0.0","505431","5a0d9553fe645f0001e9f852","1","14","4334","","","","","","","","","<img src= ""rock_img/I_Gabbro_14.jpg"" style=""width:8cm; height:8.48cm;""><p>What type of rock is this?</p>","2","class_response","1","test","23","Diorite","Gabbro","14","false","3","4","",""
"","","","","","","","","","","","html-keyboard-response","250","2.0.0","505935","5a0d9553fe645f0001e9f852","1","14","null","","","","","","","","","<p style='font-size: 30px;'><strong>Okay</strong></p>","null","neutral_feedback","1","test","23","","","","","","","",""
"","","","","","","","","","","","html-button-response","251","2.0.0","507248","5a0d9553fe645f0001e9f852","1","14","1310","","","","","","","","","<img src= ""rock_img/I_Obsidian_05.jpg"" style=""width:8cm; height:6.33cm;""><p>What type of rock is this?</p>","2","class_response","1","test","24","Diorite","Obsidian","05","false","3","5","",""
"","","","","","","","","","","","html-keyboard-response","252","2.0.0","507762","5a0d9553fe645f0001e9f852","1","14","null","","","","","","","","","<p style='font-size: 30px;'><strong>Okay</strong></p>","null","neutral_feedback","1","test","24","","","","","","","",""
"","","","","","","","","","","","html-button-response","253","2.0.0","509191","5a0d9553fe645f0001e9f852","1","14","1426","","","","","","","","","<img src= ""rock_img/I_Pegmatite_03.jpg"" style=""width:8cm; height:5.239999999999999cm;""><p>What type of rock is this?</p>","6","class_response","1","test","25","Peridotite","Pegmatite","03","false","7","6","",""
"","","","","","","","","","","","html-keyboard-response","254","2.0.0","509706","5a0d9553fe645f0001e9f852","1","14","null","","","","","","","","","<p style='font-size: 30px;'><strong>Okay</strong></p>","null","neutral_feedback","1","test","25","","","","","","","",""
"","","","","","","","","","","","html-button-response","255","2.0.0","512943","5a0d9553fe645f0001e9f852","1","14","3235","","","","","","","","","<img src= ""rock_img/I_Andesite_02.jpg"" style=""width:8cm; height:8.5cm;""><p>What type of rock is this?</p>","0","class_response","1","test","26","Andesite","Andesite","02","true","1","1","",""
"","","","","","","","","","","","html-keyboard-response","256","2.0.0","513453","5a0d9553fe645f0001e9f852","1","14","null","","","","","","","","","<p style='font-size: 30px;'><strong>Okay</strong></p>","null","neutral_feedback","1","test","26","","","","","","","",""
"","","","","","","","","","","","html-button-response","257","2.0.0","514496","5a0d9553fe645f0001e9f852","1","14","1041","","","","","","","","","<img src= ""rock_img/I_Obsidian_09.jpg"" style=""width:8cm; height:5cm;""><p>What type of rock is this?</p>","4","class_response","1","test","27","Obsidian","Obsidian","09","true","5","5","",""
"","","","","","","","","","","","html-keyboard-response","258","2.0.0","514998","5a0d9553fe645f0001e9f852","1","14","null","","","","","","","","","<p style='font-size: 30px;'><strong>Okay</strong></p>","null","neutral_feedback","1","test","27","","","","","","","",""
"","","","","","","","","","","","html-button-response","259","2.0.0","518007","5a0d9553fe645f0001e9f852","1","14","3007","","","","","","","","","<img src= ""rock_img/I_Diorite_14.jpg"" style=""width:8cm; height:5.71cm;""><p>What type of rock is this?</p>","0","class_response","1","test","28","Andesite","Diorite","14","false","1","3","",""
"","","","","","","","","","","","html-keyboard-response","260","2.0.0","518509","5a0d9553fe645f0001e9f852","1","14","null","","","","","","","","","<p style='font-size: 30px;'><strong>Okay</strong></p>","null","neutral_feedback","1","test","28","","","","","","","",""
"","","","","","","","","","","","html-button-response","261","2.0.0","520487","5a0d9553fe645f0001e9f852","1","14","1976","","","","","","","","","<img src= ""rock_img/I_Pumice_15.jpg"" style=""width:8cm; height:7.86cm;""><p>What type of rock is this?</p>","7","class_response","1","test","29","Pumice","Pumice","15","true","8","8","",""
"","","","","","","","","","","","html-keyboard-response","262","2.0.0","520990","5a0d9553fe645f0001e9f852","1","14","null","","","","","","","","","<p style='font-size: 30px;'><strong>Okay</strong></p>","null","neutral_feedback","1","test","29","","","","","","","",""
"","","","","","","","","","","","html-button-response","263","2.0.0","522200","5a0d9553fe645f0001e9f852","1","14","1208","","","","","","","","","<img src= ""rock_img/I_Peridotite_16.jpg"" style=""width:8cm; height:6.989999999999999cm;""><p>What type of rock is this?</p>","6","class_response","1","test","30","Peridotite","Peridotite","16","true","7","7","",""
"","","","","","","","","","","","html-keyboard-response","264","2.0.0","522705","5a0d9553fe645f0001e9f852","1","14","null","","","","","","","","","<p style='font-size: 30px;'><strong>Okay</strong></p>","null","neutral_feedback","1","test","30","","","","","","","",""
"","","","","","","","","","","","html-button-response","265","2.0.0","525815","5a0d9553fe645f0001e9f852","1","14","3108","","","","","","","","","<img src= ""rock_img/I_Pumice_06.jpg"" style=""width:8cm; height:6.9399999999999995cm;""><p>What type of rock is this?</p>","7","class_response","1","test","31","Pumice","Pumice","06","true","8","8","",""
"","","","","","","","","","","","html-keyboard-response","266","2.0.0","526317","5a0d9553fe645f0001e9f852","1","14","null","","","","","","","","","<p style='font-size: 30px;'><strong>Okay</strong></p>","null","neutral_feedback","1","test","31","","","","","","","",""
"","","","","","","","","","","","html-button-response","267","2.0.0","531768","5a0d9553fe645f0001e9f852","1","14","5448","","","","","","","","","<img src= ""rock_img/I_Pegmatite_16.jpg"" style=""width:8cm; height:5.8cm;""><p>What type of rock is this?</p>","3","class_response","1","test","32","Gabbro","Pegmatite","16","false","4","6","",""
"","","","","","","","","","","","html-keyboard-response","268","2.0.0","532270","5a0d9553fe645f0001e9f852","1","14","null","","","","","","","","","<p style='font-size: 30px;'><strong>Okay</strong></p>","null","neutral_feedback","1","test","32","","","","","","","",""
"","","","","","","","","","","","html-button-response","269","2.0.0","536160","5a0d9553fe645f0001e9f852","1","14","3887","","","","","","","","","<img src= ""rock_img/I_Diorite_06.jpg"" style=""width:8cm; height:6.03cm;""><p>What type of rock is this?</p>","5","class_response","1","test","33","Pegmatite","Diorite","06","false","6","3","",""
"","","","","","","","","","","","html-keyboard-response","270","2.0.0","536673","5a0d9553fe645f0001e9f852","1","14","null","","","","","","","","","<p style='font-size: 30px;'><strong>Okay</strong></p>","null","neutral_feedback","1","test","33","","","","","","","",""
"","","","","","","","","","","","html-button-response","271","2.0.0","538320","5a0d9553fe645f0001e9f852","1","14","1644","","","","","","","","","<img src= ""rock_img/I_Basalt_06.jpg"" style=""width:8cm; height:7.06cm;""><p>What type of rock is this?</p>","4","class_response","1","test","34","Obsidian","Basalt","06","false","5","2","",""
"","","","","","","","","","","","html-keyboard-response","272","2.0.0","538823","5a0d9553fe645f0001e9f852","1","14","null","","","","","","","","","<p style='font-size: 30px;'><strong>Okay</strong></p>","null","neutral_feedback","1","test","34","","","","","","","",""
"","","","","","","","","","","","html-button-response","273","2.0.0","540224","5a0d9553fe645f0001e9f852","1","14","1399","","","","","","","","","<img src= ""rock_img/I_Andesite_03.jpg"" style=""width:8cm; height:5.73cm;""><p>What type of rock is this?</p>","1","class_response","1","test","35","Basalt","Andesite","03","false","2","1","",""
"","","","","","","","","","","","html-keyboard-response","274","2.0.0","540737","5a0d9553fe645f0001e9f852","1","14","null","","","","","","","","","<p style='font-size: 30px;'><strong>Okay</strong></p>","null","neutral_feedback","1","test","35","","","","","","","",""
"","","","","","","","","","","","html-button-response","275","2.0.0","543288","5a0d9553fe645f0001e9f852","1","14","2548","","","","","","","","","<img src= ""rock_img/I_Basalt_16.jpg"" style=""width:8cm; height:7.659999999999999cm;""><p>What type of rock is this?</p>","7","class_response","1","test","36","Pumice","Basalt","16","false","8","2","",""
"","","","","","","","","","","","html-keyboard-response","276","2.0.0","543800","5a0d9553fe645f0001e9f852","1","14","null","","","","","","","","","<p style='font-size: 30px;'><strong>Okay</strong></p>","null","neutral_feedback","1","test","36","","","","","","","",""
"","","","","","","","","","","","html-button-response","277","2.0.0","547904","5a0d9553fe645f0001e9f852","1","14","4101","","","","","","","","","<img src= ""rock_img/I_Diorite_12.jpg"" style=""width:8cm; height:4.88cm;""><p>What type of rock is this?</p>","2","class_response","1","test","37","Diorite","Diorite","12","true","3","3","",""
"","","","","","","","","","","","html-keyboard-response","278","2.0.0","548416","5a0d9553fe645f0001e9f852","1","14","null","","","","","","","","","<p style='font-size: 30px;'><strong>Okay</strong></p>","null","neutral_feedback","1","test","37","","","","","","","",""
"","","","","","","","","","","","html-button-response","279","2.0.0","550280","5a0d9553fe645f0001e9f852","1","14","1862","","","","","","","","","<img src= ""rock_img/I_Andesite_11.jpg"" style=""width:8cm; height:4.92cm;""><p>What type of rock is this?</p>","2","class_response","1","test","38","Diorite","Andesite","11","false","3","1","",""
"","","","","","","","","","","","html-keyboard-response","280","2.0.0","550793","5a0d9553fe645f0001e9f852","1","14","null","","","","","","","","","<p style='font-size: 30px;'><strong>Okay</strong></p>","null","neutral_feedback","1","test","38","","","","","","","",""
"","","","","","","","","","","","html-button-response","281","2.0.0","552504","5a0d9553fe645f0001e9f852","1","14","1709","","","","","","","","","<img src= ""rock_img/I_Basalt_08.jpg"" style=""width:8cm; height:10.44cm;""><p>What type of rock is this?</p>","1","class_response","1","test","39","Basalt","Basalt","08","true","2","2","",""
"","","","","","","","","","","","html-keyboard-response","282","2.0.0","553006","5a0d9553fe645f0001e9f852","1","14","null","","","","","","","","","<p style='font-size: 30px;'><strong>Okay</strong></p>","null","neutral_feedback","1","test","39","","","","","","","",""
"","","","","","","","","","","","html-button-response","283","2.0.0","556443","5a0d9553fe645f0001e9f852","1","14","3435","","","","","","","","","<img src= ""rock_img/I_Andesite_14.jpg"" style=""width:8cm; height:5.449999999999999cm;""><p>What type of rock is this?</p>","2","class_response","1","test","40","Diorite","Andesite","14","false","3","1","",""
"","","","","","","","","","","","html-keyboard-response","284","2.0.0","556948","5a0d9553fe645f0001e9f852","1","14","null","","","","","","","","","<p style='font-size: 30px;'><strong>Okay</strong></p>","null","neutral_feedback","1","test","40","","","","","","","",""
"","","","","","","","","","","","html-button-response","285","2.0.0","557882","5a0d9553fe645f0001e9f852","1","14","932","","","","","","","","","<img src= ""rock_img/I_Pegmatite_05.jpg"" style=""width:8cm; height:7.300000000000001cm;""><p>What type of rock is this?</p>","3","class_response","1","test","41","Gabbro","Pegmatite","05","false","4","6","",""
"","","","","","","","","","","","html-keyboard-response","286","2.0.0","558394","5a0d9553fe645f0001e9f852","1","14","null","","","","","","","","","<p style='font-size: 30px;'><strong>Okay</strong></p>","null","neutral_feedback","1","test","41","","","","","","","",""
"","","","","","","","","","","","html-button-response","287","2.0.0","559410","5a0d9553fe645f0001e9f852","1","14","1014","","","","","","","","","<img src= ""rock_img/I_Diorite_11.jpg"" style=""width:8cm; height:7.11cm;""><p>What type of rock is this?</p>","3","class_response","1","test","42","Gabbro","Diorite","11","false","4","3","",""
"","","","","","","","","","","","html-keyboard-response","288","2.0.0","559921","5a0d9553fe645f0001e9f852","1","14","null","","","","","","","","","<p style='font-size: 30px;'><strong>Okay</strong></p>","null","neutral_feedback","1","test","42","","","","","","","",""
"","","","","","","","","","","","html-button-response","289","2.0.0","561636","5a0d9553fe645f0001e9f852","1","14","1714","","","","","","","","","<img src= ""rock_img/I_Basalt_09.jpg"" style=""width:8cm; height:6.2cm;""><p>What type of rock is this?</p>","1","class_response","1","test","43","Basalt","Basalt","09","true","2","2","",""
"","","","","","","","","","","","html-keyboard-response","290","2.0.0","562145","5a0d9553fe645f0001e9f852","1","14","null","","","","","","","","","<p style='font-size: 30px;'><strong>Okay</strong></p>","null","neutral_feedback","1","test","43","","","","","","","",""
"","","","","","","","","","","","html-button-response","291","2.0.0","564183","5a0d9553fe645f0001e9f852","1","14","2035","","","","","","","","","<img src= ""rock_img/I_Gabbro_08.jpg"" style=""width:8cm; height:5.15cm;""><p>What type of rock is this?</p>","1","class_response","1","test","44","Basalt","Gabbro","08","false","2","4","",""
"","","","","","","","","","","","html-keyboard-response","292","2.0.0","564695","5a0d9553fe645f0001e9f852","1","14","null","","","","","","","","","<p style='font-size: 30px;'><strong>Okay</strong></p>","null","neutral_feedback","1","test","44","","","","","","","",""
"","","","","","","","","","","","html-button-response","293","2.0.0","566042","5a0d9553fe645f0001e9f852","1","14","1345","","","","","","","","","<img src= ""rock_img/I_Gabbro_05.jpg"" style=""width:8cm; height:6cm;""><p>What type of rock is this?</p>","5","class_response","1","test","45","Pegmatite","Gabbro","05","false","6","4","",""
"","","","","","","","","","","","html-keyboard-response","294","2.0.0","566547","5a0d9553fe645f0001e9f852","1","14","null","","","","","","","","","<p style='font-size: 30px;'><strong>Okay</strong></p>","null","neutral_feedback","1","test","45","","","","","","","",""
"","","","","","","","","","","","html-button-response","295","2.0.0","567859","5a0d9553fe645f0001e9f852","1","14","1310","","","","","","","","","<img src= ""rock_img/I_Andesite_16.jpg"" style=""width:8cm; height:6.010000000000001cm;""><p>What type of rock is this?</p>","5","class_response","1","test","46","Pegmatite","Andesite","16","false","6","1","",""
"","","","","","","","","","","","html-keyboard-response","296","2.0.0","568373","5a0d9553fe645f0001e9f852","1","14","null","","","","","","","","","<p style='font-size: 30px;'><strong>Okay</strong></p>","null","neutral_feedback","1","test","46","","","","","","","",""
"","","","","","","","","","","","html-button-response","297","2.0.0","569754","5a0d9553fe645f0001e9f852","1","14","1379","","","","","","","","","<img src= ""rock_img/I_Pumice_05.jpg"" style=""width:8cm; height:7.25cm;""><p>What type of rock is this?</p>","7","class_response","1","test","47","Pumice","Pumice","05","true","8","8","",""
"","","","","","","","","","","","html-keyboard-response","298","2.0.0","570259","5a0d9553fe645f0001e9f852","1","14","null","","","","","","","","","<p style='font-size: 30px;'><strong>Okay</strong></p>","null","neutral_feedback","1","test","47","","","","","","","",""
"","","","","","","","","","","","html-button-response","299","2.0.0","571456","5a0d9553fe645f0001e9f852","1","14","1195","","","","","","","","","<img src= ""rock_img/I_Obsidian_12.jpg"" style=""width:8cm; height:6.53cm;""><p>What type of rock is this?</p>","4","class_response","1","test","48","Obsidian","Obsidian","12","true","5","5","",""
"","","","","","","","","","","","html-keyboard-response","300","2.0.0","571959","5a0d9553fe645f0001e9f852","1","14","null","","","","","","","","","<p style='font-size: 30px;'><strong>Okay</strong></p>","null","neutral_feedback","1","test","48","","","","","","","",""
"","","","","","","","","","","","html-button-response","301","2.0.0","584138","5a0d9553fe645f0001e9f852","1","14","","","","","","","","","","","","cycle_feedback","","","","","","","","","","10711.299999952316","1460.9000000357628"
"","","","","","","","","","","","html-button-response","303","2.0.0","585417","5a0d9553fe645f0001e9f852","1","14","1277","","","","","","","","","","0","start_train","","","","","","","","","","",""
"","","","","","","","","","","","html-button-response","304","2.0.0","589208","5a0d9553fe645f0001e9f852","1","14","3788","","","","","","","","","<img src= ""rock_img/I_Pumice_10.jpg"" style=""width:8cm; height:7.609999999999999cm;""><p>What type of rock is this?</p>","7","class_response","2","train","1","Pumice","Pumice","10","true","8","8","",""
