"width","height","webaudio","browser","browser_version","mobile","os","fullscreen","vsync_rate","webcam","microphone","trial_type","trial_index","plugin_version","time_elapsed","subjID","condition","stimID","rt","url","success","value","timeout","failed_images","failed_audio","failed_video","view_history","stimulus","response","trialType","cycle","phase","trial","resp","cat","token","corr","resp_num","cat_num","time_fb1","time_fb2"
"1680","819","true","chrome","130.0.0","false","Mac OS","true","60.01","true","true","browser-check","0","2.0.0","1014","67083dadb0e6f2e304a38a21","1","40","","","","","","","","","","","","","","","","","","","","","","",""
"","","","","","","","","","","","external-html","1","2.0.0","40031","67083dadb0e6f2e304a38a21","1","40","38908","consent_form.html","","","","","","","","","","","","","","","","","","","","",""
"","","","","","","","","","","","fullscreen","2","2.0.0","43277","67083dadb0e6f2e304a38a21","1","40","2240","","true","","","","","","","","","","","","","","","","","","","",""
"","","","","","","","","","","","call-function","3","2.0.0","43281","67083dadb0e6f2e304a38a21","1","40","","","","{}","","","","","","","","","","","","","","","","","","",""
"","","","","","","","","","","","preload","4","2.0.0","48272","67083dadb0e6f2e304a38a21","1","40","","","true","","false","[]","[]","[]","","","","","","","","","","","","","","",""
"","","","","","","","","","","","instructions","5","2.0.0","88648","67083dadb0e6f2e304a38a21","1","40","40373","","","","","","","","[{""page_index"":0,""viewing_time"":8115},{""page_index"":1,""viewing_time"":20631},{""page_index"":2,""viewing_time"":11627}]","","","","","","","","","","","","","",""
"","","","","","","","","","","","html-button-response","6","2.0.0","91053","67083dadb0e6f2e304a38a21","1","40","2401","","","","","","","","","","0","start_test","","","","","","","","","","",""
"","","","","","","","","","","","html-button-response","7","2.0.0","95623","67083dadb0e6f2e304a38a21","1","40","4566","","","","","","","","","<img src= ""rock_img/I_Obsidian_10.jpg"" style=""width:8cm; height:6.260000000000001cm;""><p>What type of rock is this?</p>","4","class_response","0","test","1","Obsidian","Obsidian","10","true","5","5","",""
"","","","","","","","","","","","html-keyboard-response","8","2.0.0","96127","67083dadb0e6f2e304a38a21","1","40","null","","","","","","","","","<p style='font-size: 30px;'><strong>Okay</strong></p>","null","neutral_feedback","0","test","1","","","","","","","",""
"","","","","","","","","","","","html-button-response","9","2.0.0","114707","67083dadb0e6f2e304a38a21","1","40","18575","","","","","","","","","<img src= ""rock_img/I_Diorite_02.jpg"" style=""width:8cm; height:6.27cm;""><p>What type of rock is this?</p>","6","class_response","0","test","2","Peridotite","Diorite","02","false","7","3","",""
"","","","","","","","","","","","html-keyboard-response","10","2.0.0","115211","67083dadb0e6f2e304a38a21","1","40","null","","","","","","","","","<p style='font-size: 30px;'><strong>Okay</strong></p>","null","neutral_feedback","0","test","2","","","","","","","",""
"","","","","","","","","","","","html-button-response","11","2.0.0","124379","67083dadb0e6f2e304a38a21","1","40","9165","","","","","","","","","<img src= ""rock_img/I_Pumice_15.jpg"" style=""width:8cm; height:7.86cm;""><p>What type of rock is this?</p>","2","class_response","0","test","3","Diorite","Pumice","15","false","3","8","",""
"","","","","","","","","","","","html-keyboard-response","12","2.0.0","124881","67083dadb0e6f2e304a38a21","1","40","null","","","","","","","","","<p style='font-size: 30px;'><strong>Okay</strong></p>","null","neutral_feedback","0","test","3","","","","","","","",""
"","","","","","","","","","","","html-button-response","13","2.0.0","135427","67083dadb0e6f2e304a38a21","1","40","10542","","","","","","","","","<img src= ""rock_img/I_Peridotite_12.jpg"" style=""width:8cm; height:4.54cm;""><p>What type of rock is this?</p>","3","class_response","0","test","4","Gabbro","Peridotite","12","false","4","7","",""
"","","","","","","","","","","","html-keyboard-response","14","2.0.0","135929","67083dadb0e6f2e304a38a21","1","40","null","","","","","","","","","<p style='font-size: 30px;'><strong>Okay</strong></p>","null","neutral_feedback","0","test","4","","","","","","","",""
"","","","","","","","","","","","html-button-response","15","2.0.0","141389","67083dadb0e6f2e304a38a21","1","40","5457","","","","","","","","","<img src= ""rock_img/I_Basalt_16.jpg"" style=""width:8cm; height:7.659999999999999cm;""><p>What type of rock is this?</p>","5","class_response","0","test","5","Pegmatite","Basalt","16","false","6","2","",""
"","","","","","","","","","","","html-keyboard-response","16","2.0.0","141892","67083dadb0e6f2e304a38a21","1","40","null","","","","","","","","","<p style='font-size: 30px;'><strong>Okay</strong></p>","null","neutral_feedback","0","test","5","","","","","","","",""
"","","","","","","","","","","","html-button-response","17","2.0.0","146041","67083dadb0e6f2e304a38a21","1","40","4146","","","","","","","","","<img src= ""rock_img/I_Andesite_09.jpg"" style=""width:8cm; height:6cm;""><p>What type of rock is this?</p>","0","class_response","0","test","6","Andesite","Andesite","09","true","1","1","",""
"","","","","","","","","","","","html-keyboard-response","18","2.0.0","146544","67083dadb0e6f2e304a38a21","1","40","null","","","","","","","","","<p style='font-size: 30px;'><strong>Okay</strong></p>","null","neutral_feedback","0","test","6","","","","","","","",""
"","","","","","","","","","","","html-button-response","19","2.0.0","148391","67083dadb0e6f2e304a38a21","1","40","1842","","","","","","","","","<img src= ""rock_img/I_Pumice_02.jpg"" style=""width:8cm; height:7.3999999999999995cm;""><p>What type of rock is this?</p>","7","class_response","0","test","7","Pumice","Pumice","02","true","8","8","",""
"","","","","","","","","","","","html-keyboard-response","20","2.0.0","148901","67083dadb0e6f2e304a38a21","1","40","null","","","","","","","","","<p style='font-size: 30px;'><strong>Okay</strong></p>","null","neutral_feedback","0","test","7","","","","","","","",""
"","","","","","","","","","","","html-button-response","21","2.0.0","161546","67083dadb0e6f2e304a38a21","1","40","12634","","","","","","","","","<img src= ""rock_img/I_Peridotite_10.jpg"" style=""width:8cm; height:5.390000000000001cm;""><p>What type of rock is this?</p>","3","class_response","0","test","8","Gabbro","Peridotite","10","false","4","7","",""
"","","","","","","","","","","","html-keyboard-response","22","2.0.0","162054","67083dadb0e6f2e304a38a21","1","40","null","","","","","","","","","<p style='font-size: 30px;'><strong>Okay</strong></p>","null","neutral_feedback","0","test","8","","","","","","","",""
"","","","","","","","","","","","html-button-response","23","2.0.0","165237","67083dadb0e6f2e304a38a21","1","40","3177","","","","","","","","","<img src= ""rock_img/I_Basalt_06.jpg"" style=""width:8cm; height:7.06cm;""><p>What type of rock is this?</p>","4","class_response","0","test","9","Obsidian","Basalt","06","false","5","2","",""
"","","","","","","","","","","","html-keyboard-response","24","2.0.0","165739","67083dadb0e6f2e304a38a21","1","40","null","","","","","","","","","<p style='font-size: 30px;'><strong>Okay</strong></p>","null","neutral_feedback","0","test","9","","","","","","","",""
"","","","","","","","","","","","html-button-response","25","2.0.0","166711","67083dadb0e6f2e304a38a21","1","40","970","","","","","","","","","<img src= ""rock_img/I_Obsidian_14.jpg"" style=""width:8cm; height:7.64cm;""><p>What type of rock is this?</p>","4","class_response","0","test","10","Obsidian","Obsidian","14","true","5","5","",""
"","","","","","","","","","","","html-keyboard-response","26","2.0.0","167213","67083dadb0e6f2e304a38a21","1","40","null","","","","","","","","","<p style='font-size: 30px;'><strong>Okay</strong></p>","null","neutral_feedback","0","test","10","","","","","","","",""
"","","","","","","","","","","","html-button-response","27","2.0.0","171051","67083dadb0e6f2e304a38a21","1","40","3836","","","","","","","","","<img src= ""rock_img/I_Pegmatite_06.jpg"" style=""width:8cm; height:5.17cm;""><p>What type of rock is this?</p>","1","class_response","0","test","11","Basalt","Pegmatite","06","false","2","6","",""
"","","","","","","","","","","","html-keyboard-response","28","2.0.0","171555","67083dadb0e6f2e304a38a21","1","40","null","","","","","","","","","<p style='font-size: 30px;'><strong>Okay</strong></p>","null","neutral_feedback","0","test","11","","","","","","","",""
"","","","","","","","","","","","html-button-response","29","2.0.0","183299","67083dadb0e6f2e304a38a21","1","40","11740","","","","","","","","","<img src= ""rock_img/I_Peridotite_13.jpg"" style=""width:8cm; height:7.58cm;""><p>What type of rock is this?</p>","3","class_response","0","test","12","Gabbro","Peridotite","13","false","4","7","",""
"","","","","","","","","","","","html-keyboard-response","30","2.0.0","183801","67083dadb0e6f2e304a38a21","1","40","null","","","","","","","","","<p style='font-size: 30px;'><strong>Okay</strong></p>","null","neutral_feedback","0","test","12","","","","","","","",""
"","","","","","","","","","","","html-button-response","31","2.0.0","187759","67083dadb0e6f2e304a38a21","1","40","3956","","","","","","","","","<img src= ""rock_img/I_Basalt_04.jpg"" style=""width:8cm; height:7.53cm;""><p>What type of rock is this?</p>","4","class_response","0","test","13","Obsidian","Basalt","04","false","5","2","",""
"","","","","","","","","","","","html-keyboard-response","32","2.0.0","188261","67083dadb0e6f2e304a38a21","1","40","null","","","","","","","","","<p style='font-size: 30px;'><strong>Okay</strong></p>","null","neutral_feedback","0","test","13","","","","","","","",""
"","","","","","","","","","","","html-button-response","33","2.0.0","191176","67083dadb0e6f2e304a38a21","1","40","2911","","","","","","","","","<img src= ""rock_img/I_Andesite_01.jpg"" style=""width:8cm; height:5.87cm;""><p>What type of rock is this?</p>","6","class_response","0","test","14","Peridotite","Andesite","01","false","7","1","",""
"","","","","","","","","","","","html-keyboard-response","34","2.0.0","191678","67083dadb0e6f2e304a38a21","1","40","null","","","","","","","","","<p style='font-size: 30px;'><strong>Okay</strong></p>","null","neutral_feedback","0","test","14","","","","","","","",""
"","","","","","","","","","","","html-button-response","35","2.0.0","193484","67083dadb0e6f2e304a38a21","1","40","1803","","","","","","","","","<img src= ""rock_img/I_Gabbro_03.jpg"" style=""width:8cm; height:8.52cm;""><p>What type of rock is this?</p>","6","class_response","0","test","15","Peridotite","Gabbro","03","false","7","4","",""
"","","","","","","","","","","","html-keyboard-response","36","2.0.0","193986","67083dadb0e6f2e304a38a21","1","40","null","","","","","","","","","<p style='font-size: 30px;'><strong>Okay</strong></p>","null","neutral_feedback","0","test","15","","","","","","","",""
"","","","","","","","","","","","html-button-response","37","2.0.0","196611","67083dadb0e6f2e304a38a21","1","40","2623","","","","","","","","","<img src= ""rock_img/I_Pegmatite_09.jpg"" style=""width:8cm; height:4.03cm;""><p>What type of rock is this?</p>","3","class_response","0","test","16","Gabbro","Pegmatite","09","false","4","6","",""
"","","","","","","","","","","","html-keyboard-response","38","2.0.0","197113","67083dadb0e6f2e304a38a21","1","40","null","","","","","","","","","<p style='font-size: 30px;'><strong>Okay</strong></p>","null","neutral_feedback","0","test","16","","","","","","","",""
"","","","","","","","","","","","html-button-response","39","2.0.0","199448","67083dadb0e6f2e304a38a21","1","40","2333","","","","","","","","","<img src= ""rock_img/I_Diorite_14.jpg"" style=""width:8cm; height:5.71cm;""><p>What type of rock is this?</p>","6","class_response","0","test","17","Peridotite","Diorite","14","false","7","3","",""
"","","","","","","","","","","","html-keyboard-response","40","2.0.0","199950","67083dadb0e6f2e304a38a21","1","40","null","","","","","","","","","<p style='font-size: 30px;'><strong>Okay</strong></p>","null","neutral_feedback","0","test","17","","","","","","","",""
"","","","","","","","","","","","html-button-response","41","2.0.0","206168","67083dadb0e6f2e304a38a21","1","40","6216","","","","","","","","","<img src= ""rock_img/I_Basalt_11.jpg"" style=""width:8cm; height:5.359999999999999cm;""><p>What type of rock is this?</p>","1","class_response","0","test","18","Basalt","Basalt","11","true","2","2","",""
"","","","","","","","","","","","html-keyboard-response","42","2.0.0","206669","67083dadb0e6f2e304a38a21","1","40","null","","","","","","","","","<p style='font-size: 30px;'><strong>Okay</strong></p>","null","neutral_feedback","0","test","18","","","","","","","",""
"","","","","","","","","","","","html-button-response","43","2.0.0","215041","67083dadb0e6f2e304a38a21","1","40","8368","","","","","","","","","<img src= ""rock_img/I_Andesite_11.jpg"" style=""width:8cm; height:4.92cm;""><p>What type of rock is this?</p>","2","class_response","0","test","19","Diorite","Andesite","11","false","3","1","",""
"","","","","","","","","","","","html-keyboard-response","44","2.0.0","215544","67083dadb0e6f2e304a38a21","1","40","null","","","","","","","","","<p style='font-size: 30px;'><strong>Okay</strong></p>","null","neutral_feedback","0","test","19","","","","","","","",""
"","","","","","","","","","","","html-button-response","45","2.0.0","222714","67083dadb0e6f2e304a38a21","1","40","7167","","","","","","","","","<img src= ""rock_img/I_Peridotite_07.jpg"" style=""width:8cm; height:4.83cm;""><p>What type of rock is this?</p>","3","class_response","0","test","20","Gabbro","Peridotite","07","false","4","7","",""
"","","","","","","","","","","","html-keyboard-response","46","2.0.0","223216","67083dadb0e6f2e304a38a21","1","40","null","","","","","","","","","<p style='font-size: 30px;'><strong>Okay</strong></p>","null","neutral_feedback","0","test","20","","","","","","","",""
"","","","","","","","","","","","html-button-response","47","2.0.0","225327","67083dadb0e6f2e304a38a21","1","40","2108","","","","","","","","","<img src= ""rock_img/I_Gabbro_05.jpg"" style=""width:8cm; height:6cm;""><p>What type of rock is this?</p>","0","class_response","0","test","21","Andesite","Gabbro","05","false","1","4","",""
"","","","","","","","","","","","html-keyboard-response","48","2.0.0","225830","67083dadb0e6f2e304a38a21","1","40","null","","","","","","","","","<p style='font-size: 30px;'><strong>Okay</strong></p>","null","neutral_feedback","0","test","21","","","","","","","",""
"","","","","","","","","","","","html-button-response","49","2.0.0","227550","67083dadb0e6f2e304a38a21","1","40","1718","","","","","","","","","<img src= ""rock_img/I_Basalt_08.jpg"" style=""width:8cm; height:10.44cm;""><p>What type of rock is this?</p>","1","class_response","0","test","22","Basalt","Basalt","08","true","2","2","",""
"","","","","","","","","","","","html-keyboard-response","50","2.0.0","228052","67083dadb0e6f2e304a38a21","1","40","null","","","","","","","","","<p style='font-size: 30px;'><strong>Okay</strong></p>","null","neutral_feedback","0","test","22","","","","","","","",""
"","","","","","","","","","","","html-button-response","51","2.0.0","234046","67083dadb0e6f2e304a38a21","1","40","5991","","","","","","","","","<img src= ""rock_img/I_Diorite_08.jpg"" style=""width:8cm; height:6.37cm;""><p>What type of rock is this?</p>","6","class_response","0","test","23","Peridotite","Diorite","08","false","7","3","",""
"","","","","","","","","","","","html-keyboard-response","52","2.0.0","234548","67083dadb0e6f2e304a38a21","1","40","null","","","","","","","","","<p style='font-size: 30px;'><strong>Okay</strong></p>","null","neutral_feedback","0","test","23","","","","","","","",""
"","","","","","","","","","","","html-button-response","53","2.0.0","240036","67083dadb0e6f2e304a38a21","1","40","5484","","","","","","","","","<img src= ""rock_img/I_Pegmatite_11.jpg"" style=""width:8cm; height:8.14cm;""><p>What type of rock is this?</p>","4","class_response","0","test","24","Obsidian","Pegmatite","11","false","5","6","",""
"","","","","","","","","","","","html-keyboard-response","54","2.0.0","240538","67083dadb0e6f2e304a38a21","1","40","null","","","","","","","","","<p style='font-size: 30px;'><strong>Okay</strong></p>","null","neutral_feedback","0","test","24","","","","","","","",""
"","","","","","","","","","","","html-button-response","55","2.0.0","245084","67083dadb0e6f2e304a38a21","1","40","4542","","","","","","","","","<img src= ""rock_img/I_Gabbro_10.jpg"" style=""width:8cm; height:5.680000000000001cm;""><p>What type of rock is this?</p>","1","class_response","0","test","25","Basalt","Gabbro","10","false","2","4","",""
"","","","","","","","","","","","html-keyboard-response","56","2.0.0","245587","67083dadb0e6f2e304a38a21","1","40","null","","","","","","","","","<p style='font-size: 30px;'><strong>Okay</strong></p>","null","neutral_feedback","0","test","25","","","","","","","",""
"","","","","","","","","","","","html-button-response","57","2.0.0","247051","67083dadb0e6f2e304a38a21","1","40","1462","","","","","","","","","<img src= ""rock_img/I_Pumice_16.jpg"" style=""width:8cm; height:6.79cm;""><p>What type of rock is this?</p>","7","class_response","0","test","26","Pumice","Pumice","16","true","8","8","",""
"","","","","","","","","","","","html-keyboard-response","58","2.0.0","247553","67083dadb0e6f2e304a38a21","1","40","null","","","","","","","","","<p style='font-size: 30px;'><strong>Okay</strong></p>","null","neutral_feedback","0","test","26","","","","","","","",""
"","","","","","","","","","","","html-button-response","59","2.0.0","253740","67083dadb0e6f2e304a38a21","1","40","6183","","","","","","","","","<img src= ""rock_img/I_Peridotite_06.jpg"" style=""width:8cm; height:7.53cm;""><p>What type of rock is this?</p>","6","class_response","0","test","27","Peridotite","Peridotite","06","true","7","7","",""
"","","","","","","","","","","","html-keyboard-response","60","2.0.0","254241","67083dadb0e6f2e304a38a21","1","40","null","","","","","","","","","<p style='font-size: 30px;'><strong>Okay</strong></p>","null","neutral_feedback","0","test","27","","","","","","","",""
"","","","","","","","","","","","html-button-response","61","2.0.0","267880","67083dadb0e6f2e304a38a21","1","40","13636","","","","","","","","","<img src= ""rock_img/I_Gabbro_08.jpg"" style=""width:8cm; height:5.15cm;""><p>What type of rock is this?</p>","0","class_response","0","test","28","Andesite","Gabbro","08","false","1","4","",""
"","","","","","","","","","","","html-keyboard-response","62","2.0.0","268382","67083dadb0e6f2e304a38a21","1","40","null","","","","","","","","","<p style='font-size: 30px;'><strong>Okay</strong></p>","null","neutral_feedback","0","test","28","","","","","","","",""
"","","","","","","","","","","","html-button-response","63","2.0.0","270127","67083dadb0e6f2e304a38a21","1","40","1741","","","","","","","","","<img src= ""rock_img/I_Diorite_16.jpg"" style=""width:8cm; height:6.74cm;""><p>What type of rock is this?</p>","6","class_response","0","test","29","Peridotite","Diorite","16","false","7","3","",""
"","","","","","","","","","","","html-keyboard-response","64","2.0.0","270629","67083dadb0e6f2e304a38a21","1","40","null","","","","","","","","","<p style='font-size: 30px;'><strong>Okay</strong></p>","null","neutral_feedback","0","test","29","","","","","","","",""
"","","","","","","","","","","","html-button-response","65","2.0.0","272690","67083dadb0e6f2e304a38a21","1","40","2058","","","","","","","","","<img src= ""rock_img/I_Diorite_12.jpg"" style=""width:8cm; height:4.88cm;""><p>What type of rock is this?</p>","6","class_response","0","test","30","Peridotite","Diorite","12","false","7","3","",""
"","","","","","","","","","","","html-keyboard-response","66","2.0.0","273193","67083dadb0e6f2e304a38a21","1","40","null","","","","","","","","","<p style='font-size: 30px;'><strong>Okay</strong></p>","null","neutral_feedback","0","test","30","","","","","","","",""
"","","","","","","","","","","","html-button-response","67","2.0.0","275366","67083dadb0e6f2e304a38a21","1","40","2170","","","","","","","","","<img src= ""rock_img/I_Pegmatite_13.jpg"" style=""width:8cm; height:4.95cm;""><p>What type of rock is this?</p>","2","class_response","0","test","31","Diorite","Pegmatite","13","false","3","6","",""
"","","","","","","","","","","","html-keyboard-response","68","2.0.0","275869","67083dadb0e6f2e304a38a21","1","40","null","","","","","","","","","<p style='font-size: 30px;'><strong>Okay</strong></p>","null","neutral_feedback","0","test","31","","","","","","","",""
"","","","","","","","","","","","html-button-response","69","2.0.0","276975","67083dadb0e6f2e304a38a21","1","40","1103","","","","","","","","","<img src= ""rock_img/I_Obsidian_04.jpg"" style=""width:8cm; height:6.930000000000001cm;""><p>What type of rock is this?</p>","4","class_response","0","test","32","Obsidian","Obsidian","04","true","5","5","",""
"","","","","","","","","","","","html-keyboard-response","70","2.0.0","277477","67083dadb0e6f2e304a38a21","1","40","null","","","","","","","","","<p style='font-size: 30px;'><strong>Okay</strong></p>","null","neutral_feedback","0","test","32","","","","","","","",""
"","","","","","","","","","","","html-button-response","71","2.0.0","279802","67083dadb0e6f2e304a38a21","1","40","2321","","","","","","","","","<img src= ""rock_img/I_Andesite_10.jpg"" style=""width:8cm; height:4.16cm;""><p>What type of rock is this?</p>","5","class_response","0","test","33","Pegmatite","Andesite","10","false","6","1","",""
"","","","","","","","","","","","html-keyboard-response","72","2.0.0","280305","67083dadb0e6f2e304a38a21","1","40","null","","","","","","","","","<p style='font-size: 30px;'><strong>Okay</strong></p>","null","neutral_feedback","0","test","33","","","","","","","",""
"","","","","","","","","","","","html-button-response","73","2.0.0","285090","67083dadb0e6f2e304a38a21","1","40","4782","","","","","","","","","<img src= ""rock_img/I_Andesite_07.jpg"" style=""width:8cm; height:5.93cm;""><p>What type of rock is this?</p>","3","class_response","0","test","34","Gabbro","Andesite","07","false","4","1","",""
"","","","","","","","","","","","html-keyboard-response","74","2.0.0","285592","67083dadb0e6f2e304a38a21","1","40","null","","","","","","","","","<p style='font-size: 30px;'><strong>Okay</strong></p>","null","neutral_feedback","0","test","34","","","","","","","",""
"","","","","","","","","","","","html-button-response","75","2.0.0","287288","67083dadb0e6f2e304a38a21","1","40","1693","","","","","","","","","<img src= ""rock_img/I_Pumice_08.jpg"" style=""width:8cm; height:6.67cm;""><p>What type of rock is this?</p>","7","class_response","0","test","35","Pumice","Pumice","08","true","8","8","",""
"","","","","","","","","","","","html-keyboard-response","76","2.0.0","287791","67083dadb0e6f2e304a38a21","1","40","null","","","","","","","","","<p style='font-size: 30px;'><strong>Okay</strong></p>","null","neutral_feedback","0","test","35","","","","","","","",""
"","","","","","","","","","","","html-button-response","77","2.0.0","292177","67083dadb0e6f2e304a38a21","1","40","4383","","","","","","","","","<img src= ""rock_img/I_Basalt_02.jpg"" style=""width:8cm; height:6.45cm;""><p>What type of rock is this?</p>","2","class_response","0","test","36","Diorite","Basalt","02","false","3","2","",""
"","","","","","","","","","","","html-keyboard-response","78","2.0.0","292680","67083dadb0e6f2e304a38a21","1","40","null","","","","","","","","","<p style='font-size: 30px;'><strong>Okay</strong></p>","null","neutral_feedback","0","test","36","","","","","","","",""
"","","","","","","","","","","","html-button-response","79","2.0.0","297803","67083dadb0e6f2e304a38a21","1","40","5120","","","","","","","","","<img src= ""rock_img/I_Pegmatite_15.jpg"" style=""width:8cm; height:6cm;""><p>What type of rock is this?</p>","3","class_response","0","test","37","Gabbro","Pegmatite","15","false","4","6","",""
"","","","","","","","","","","","html-keyboard-response","80","2.0.0","298305","67083dadb0e6f2e304a38a21","1","40","null","","","","","","","","","<p style='font-size: 30px;'><strong>Okay</strong></p>","null","neutral_feedback","0","test","37","","","","","","","",""
"","","","","","","","","","","","html-button-response","81","2.0.0","300368","67083dadb0e6f2e304a38a21","1","40","2059","","","","","","","","","<img src= ""rock_img/I_Gabbro_14.jpg"" style=""width:8cm; height:8.48cm;""><p>What type of rock is this?</p>","6","class_response","0","test","38","Peridotite","Gabbro","14","false","7","4","",""
"","","","","","","","","","","","html-keyboard-response","82","2.0.0","300870","67083dadb0e6f2e304a38a21","1","40","null","","","","","","","","","<p style='font-size: 30px;'><strong>Okay</strong></p>","null","neutral_feedback","0","test","38","","","","","","","",""
"","","","","","","","","","","","html-button-response","83","2.0.0","302343","67083dadb0e6f2e304a38a21","1","40","1469","","","","","","","","","<img src= ""rock_img/I_Obsidian_12.jpg"" style=""width:8cm; height:6.53cm;""><p>What type of rock is this?</p>","4","class_response","0","test","39","Obsidian","Obsidian","12","true","5","5","",""
"","","","","","","","","","","","html-keyboard-response","84","2.0.0","302845","67083dadb0e6f2e304a38a21","1","40","null","","","","","","","","","<p style='font-size: 30px;'><strong>Okay</strong></p>","null","neutral_feedback","0","test","39","","","","","","","",""
"","","","","","","","","","","","html-button-response","85","2.0.0","304882","67083dadb0e6f2e304a38a21","1","40","2033","","","","","","","","","<img src= ""rock_img/I_Pumice_04.jpg"" style=""width:8cm; height:6.819999999999999cm;""><p>What type of rock is this?</p>","7","class_response","0","test","40","Pumice","Pumice","04","true","8","8","",""
"","","","","","","","","","","","html-keyboard-response","86","2.0.0","305384","67083dadb0e6f2e304a38a21","1","40","null","","","","","","","","","<p style='font-size: 30px;'><strong>Okay</strong></p>","null","neutral_feedback","0","test","40","","","","","","","",""
"","","","","","","","","","","","html-button-response","87","2.0.0","317472","67083dadb0e6f2e304a38a21","1","40","12084","","","","","","","","","<img src= ""rock_img/I_Andesite_16.jpg"" style=""width:8cm; height:6.010000000000001cm;""><p>What type of rock is this?</p>","5","class_response","0","test","41","Pegmatite","Andesite","16","false","6","1","",""
"","","","","","","","","","","","html-keyboard-response","88","2.0.0","317974","67083dadb0e6f2e304a38a21","1","40","null","","","","","","","","","<p style='font-size: 30px;'><strong>Okay</strong></p>","null","neutral_feedback","0","test","41","","","","","","","",""
"","","","","","","","","","","","html-button-response","89","2.0.0","320960","67083dadb0e6f2e304a38a21","1","40","2982","","","","","","","","","<img src= ""rock_img/I_Diorite_10.jpg"" style=""width:8cm; height:5.949999999999999cm;""><p>What type of rock is this?</p>","6","class_response","0","test","42","Peridotite","Diorite","10","false","7","3","",""
"","","","","","","","","","","","html-keyboard-response","90","2.0.0","321463","67083dadb0e6f2e304a38a21","1","40","null","","","","","","","","","<p style='font-size: 30px;'><strong>Okay</strong></p>","null","neutral_feedback","0","test","42","","","","","","","",""
"","","","","","","","","","","","html-button-response","91","2.0.0","324392","67083dadb0e6f2e304a38a21","1","40","2926","","","","","","","","","<img src= ""rock_img/I_Pegmatite_12.jpg"" style=""width:8cm; height:5.7cm;""><p>What type of rock is this?</p>","3","class_response","0","test","43","Gabbro","Pegmatite","12","false","4","6","",""
"","","","","","","","","","","","html-keyboard-response","92","2.0.0","324895","67083dadb0e6f2e304a38a21","1","40","null","","","","","","","","","<p style='font-size: 30px;'><strong>Okay</strong></p>","null","neutral_feedback","0","test","43","","","","","","","",""
"","","","","","","","","","","","html-button-response","93","2.0.0","326097","67083dadb0e6f2e304a38a21","1","40","1199","","","","","","","","","<img src= ""rock_img/I_Obsidian_16.jpg"" style=""width:8cm; height:9.3cm;""><p>What type of rock is this?</p>","4","class_response","0","test","44","Obsidian","Obsidian","16","true","5","5","",""
"","","","","","","","","","","","html-keyboard-response","94","2.0.0","326600","67083dadb0e6f2e304a38a21","1","40","null","","","","","","","","","<p style='font-size: 30px;'><strong>Okay</strong></p>","null","neutral_feedback","0","test","44","","","","","","","",""
"","","","","","","","","","","","html-button-response","95","2.0.0","330341","67083dadb0e6f2e304a38a21","1","40","3738","","","","","","","","","<img src= ""rock_img/I_Gabbro_09.jpg"" style=""width:8cm; height:7.279999999999999cm;""><p>What type of rock is this?</p>","1","class_response","0","test","45","Basalt","Gabbro","09","false","2","4","",""
"","","","","","","","","","","","html-keyboard-response","96","2.0.0","330843","67083dadb0e6f2e304a38a21","1","40","null","","","","","","","","","<p style='font-size: 30px;'><strong>Okay</strong></p>","null","neutral_feedback","0","test","45","","","","","","","",""
"","","","","","","","","","","","html-button-response","97","2.0.0","331885","67083dadb0e6f2e304a38a21","1","40","1039","","","","","","","","","<img src= ""rock_img/I_Obsidian_11.jpg"" style=""width:8cm; height:6.05cm;""><p>What type of rock is this?</p>","4","class_response","0","test","46","Obsidian","Obsidian","11","true","5","5","",""
"","","","","","","","","","","","html-keyboard-response","98","2.0.0","332387","67083dadb0e6f2e304a38a21","1","40","null","","","","","","","","","<p style='font-size: 30px;'><strong>Okay</strong></p>","null","neutral_feedback","0","test","46","","","","","","","",""
"","","","","","","","","","","","html-button-response","99","2.0.0","333948","67083dadb0e6f2e304a38a21","1","40","1558","","","","","","","","","<img src= ""rock_img/I_Pumice_13.jpg"" style=""width:8cm; height:8.200000000000001cm;""><p>What type of rock is this?</p>","7","class_response","0","test","47","Pumice","Pumice","13","true","8","8","",""
"","","","","","","","","","","","html-keyboard-response","100","2.0.0","334451","67083dadb0e6f2e304a38a21","1","40","null","","","","","","","","","<p style='font-size: 30px;'><strong>Okay</strong></p>","null","neutral_feedback","0","test","47","","","","","","","",""
"","","","","","","","","","","","html-button-response","101","2.0.0","337180","67083dadb0e6f2e304a38a21","1","40","2726","","","","","","","","","<img src= ""rock_img/I_Peridotite_16.jpg"" style=""width:8cm; height:6.989999999999999cm;""><p>What type of rock is this?</p>","5","class_response","0","test","48","Pegmatite","Peridotite","16","false","6","7","",""
"","","","","","","","","","","","html-keyboard-response","102","2.0.0","337682","67083dadb0e6f2e304a38a21","1","40","null","","","","","","","","","<p style='font-size: 30px;'><strong>Okay</strong></p>","null","neutral_feedback","0","test","48","","","","","","","",""
"","","","","","","","","","","","instructions","103","2.0.0","423137","67083dadb0e6f2e304a38a21","1","40","85426","","","","","","","","[{""page_index"":0,""viewing_time"":77368},{""page_index"":1,""viewing_time"":5405},{""page_index"":2,""viewing_time"":2653}]","","","","","","","","","","","","","",""
"","","","","","","","","","","","html-button-response","104","2.0.0","424897","67083dadb0e6f2e304a38a21","1","40","1756","","","","","","","","","","0","start_train","","","","","","","","","","",""
"","","","","","","","","","","","html-button-response","105","2.0.0","429540","67083dadb0e6f2e304a38a21","1","40","4639","","","","","","","","","<img src= ""rock_img/I_Diorite_13.jpg"" style=""width:8cm; height:6.29cm;""><p>What type of rock is this?</p>","6","class_response","1","train","1","Peridotite","Diorite","13","false","7","3","",""
"","","","","","","","","","","","html-button-response","106","2.0.0","443311","67083dadb0e6f2e304a38a21","1","40","13768","","","","","","","","","<img src= rock_img/I_Diorite_13.jpg style=""width:8cm; height:6.29cm;""><p style='font-size: 30px; color: red;'><strong>Incorrect!</strong></p><p style='font-size: 30px;'><strong>This rock is diorite</strong></p>","0","corr_feedback","1","train","1","","","","","","","",""
"","","","","","","","","","","","html-button-response","107","2.0.0","445925","67083dadb0e6f2e304a38a21","1","40","2611","","","","","","","","","<img src= ""rock_img/I_Peridotite_08.jpg"" style=""width:8cm; height:6.7cm;""><p>What type of rock is this?</p>","3","class_response","1","train","2","Gabbro","Peridotite","08","false","4","7","",""
"","","","","","","","","","","","html-button-response","108","2.0.0","451335","67083dadb0e6f2e304a38a21","1","40","5407","","","","","","","","","<img src= rock_img/I_Peridotite_08.jpg style=""width:8cm; height:6.7cm;""><p style='font-size: 30px; color: red;'><strong>Incorrect!</strong></p><p style='font-size: 30px;'><strong>This rock is peridotite</strong></p>","0","corr_feedback","1","train","2","","","","","","","",""
"","","","","","","","","","","","html-button-response","109","2.0.0","453261","67083dadb0e6f2e304a38a21","1","40","1923","","","","","","","","","<img src= ""rock_img/I_Basalt_12.jpg"" style=""width:8cm; height:6.010000000000001cm;""><p>What type of rock is this?</p>","7","class_response","1","train","3","Pumice","Basalt","12","false","8","2","",""
"","","","","","","","","","","","html-button-response","110","2.0.0","457105","67083dadb0e6f2e304a38a21","1","40","3842","","","","","","","","","<img src= rock_img/I_Basalt_12.jpg style=""width:8cm; height:6.010000000000001cm;""><p style='font-size: 30px; color: red;'><strong>Incorrect!</strong></p><p style='font-size: 30px;'><strong>This rock is basalt</strong></p>","0","corr_feedback","1","train","3","","","","","","","",""
"","","","","","","","","","","","html-button-response","111","2.0.0","458499","67083dadb0e6f2e304a38a21","1","40","1391","","","","","","","","","<img src= ""rock_img/I_Pumice_14.jpg"" style=""width:8cm; height:6.39cm;""><p>What type of rock is this?</p>","7","class_response","1","train","4","Pumice","Pumice","14","true","8","8","",""
"","","","","","","","","","","","html-button-response","112","2.0.0","462221","67083dadb0e6f2e304a38a21","1","40","3719","","","","","","","","","<img src= rock_img/I_Pumice_14.jpg style=""width:8cm; height:6.39cm;""><p style='font-size: 30px; color: green;'><strong>Correct!</strong></p><p style='font-size: 30px;'><strong>This rock is pumice</strong></p>","0","corr_feedback","1","train","4","","","","","","","",""
"","","","","","","","","","","","html-button-response","113","2.0.0","465424","67083dadb0e6f2e304a38a21","1","40","3199","","","","","","","","","<img src= ""rock_img/I_Pegmatite_05.jpg"" style=""width:8cm; height:7.300000000000001cm;""><p>What type of rock is this?</p>","5","class_response","1","train","5","Pegmatite","Pegmatite","05","true","6","6","",""
"","","","","","","","","","","","html-button-response","114","2.0.0","468885","67083dadb0e6f2e304a38a21","1","40","3458","","","","","","","","","<img src= rock_img/I_Pegmatite_05.jpg style=""width:8cm; height:7.300000000000001cm;""><p style='font-size: 30px; color: green;'><strong>Correct!</strong></p><p style='font-size: 30px;'><strong>This rock is pegmatite</strong></p>","0","corr_feedback","1","train","5","","","","","","","",""
"","","","","","","","","","","","html-button-response","115","2.0.0","471457","67083dadb0e6f2e304a38a21","1","40","2569","","","","","","","","","<img src= ""rock_img/I_Diorite_11.jpg"" style=""width:8cm; height:7.11cm;""><p>What type of rock is this?</p>","0","class_response","1","train","6","Andesite","Diorite","11","false","1","3","",""
"","","","","","","","","","","","html-button-response","116","2.0.0","477345","67083dadb0e6f2e304a38a21","1","40","5885","","","","","","","","","<img src= rock_img/I_Diorite_11.jpg style=""width:8cm; height:7.11cm;""><p style='font-size: 30px; color: red;'><strong>Incorrect!</strong></p><p style='font-size: 30px;'><strong>This rock is diorite</strong></p>","0","corr_feedback","1","train","6","","","","","","","",""
"","","","","","","","","","","","html-button-response","117","2.0.0","481198","67083dadb0e6f2e304a38a21","1","40","3850","","","","","","","","","<img src= ""rock_img/I_Peridotite_02.jpg"" style=""width:8cm; height:5.859999999999999cm;""><p>What type of rock is this?</p>","0","class_response","1","train","7","Andesite","Peridotite","02","false","1","7","",""
"","","","","","","","","","","","html-button-response","118","2.0.0","599925","67083dadb0e6f2e304a38a21","1","40","118724","","","","","","","","","<img src= rock_img/I_Peridotite_02.jpg style=""width:8cm; height:5.859999999999999cm;""><p style='font-size: 30px; color: red;'><strong>Incorrect!</strong></p><p style='font-size: 30px;'><strong>This rock is peridotite</strong></p>","0","corr_feedback","1","train","7","","","","","","","",""
"","","","","","","","","","","","html-button-response","119","2.0.0","603428","67083dadb0e6f2e304a38a21","1","40","3499","","","","","","","","","<img src= ""rock_img/I_Andesite_03.jpg"" style=""width:8cm; height:5.73cm;""><p>What type of rock is this?</p>","0","class_response","1","train","8","Andesite","Andesite","03","true","1","1","",""
"","","","","","","","","","","","html-button-response","120","2.0.0","613932","67083dadb0e6f2e304a38a21","1","40","10502","","","","","","","","","<img src= rock_img/I_Andesite_03.jpg style=""width:8cm; height:5.73cm;""><p style='font-size: 30px; color: green;'><strong>Correct!</strong></p><p style='font-size: 30px;'><strong>This rock is andesite</strong></p>","0","corr_feedback","1","train","8","","","","","","","",""
"","","","","","","","","","","","html-button-response","121","2.0.0","618010","67083dadb0e6f2e304a38a21","1","40","4074","","","","","","","","","<img src= ""rock_img/I_Peridotite_15.jpg"" style=""width:8cm; height:6cm;""><p>What type of rock is this?</p>","6","class_response","1","train","9","Peridotite","Peridotite","15","true","7","7","",""
"","","","","","","","","","","","html-button-response","122","2.0.0","621210","67083dadb0e6f2e304a38a21","1","40","3198","","","","","","","","","<img src= rock_img/I_Peridotite_15.jpg style=""width:8cm; height:6cm;""><p style='font-size: 30px; color: green;'><strong>Correct!</strong></p><p style='font-size: 30px;'><strong>This rock is peridotite</strong></p>","0","corr_feedback","1","train","9","","","","","","","",""
"","","","","","","","","","","","html-button-response","123","2.0.0","626558","67083dadb0e6f2e304a38a21","1","40","5344","","","","","","","","","<img src= ""rock_img/I_Peridotite_04.jpg"" style=""width:8cm; height:6.680000000000001cm;""><p>What type of rock is this?</p>","3","class_response","1","train","10","Gabbro","Peridotite","04","false","4","7","",""
"","","","","","","","","","","","html-button-response","124","2.0.0","640235","67083dadb0e6f2e304a38a21","1","40","13674","","","","","","","","","<img src= rock_img/I_Peridotite_04.jpg style=""width:8cm; height:6.680000000000001cm;""><p style='font-size: 30px; color: red;'><strong>Incorrect!</strong></p><p style='font-size: 30px;'><strong>This rock is peridotite</strong></p>","0","corr_feedback","1","train","10","","","","","","","",""
"","","","","","","","","","","","html-button-response","125","2.0.0","643477","67083dadb0e6f2e304a38a21","1","40","3239","","","","","","","","","<img src= ""rock_img/I_Obsidian_05.jpg"" style=""width:8cm; height:6.33cm;""><p>What type of rock is this?</p>","4","class_response","1","train","11","Obsidian","Obsidian","05","true","5","5","",""
"","","","","","","","","","","","html-button-response","126","2.0.0","644496","67083dadb0e6f2e304a38a21","1","40","1018","","","","","","","","","<img src= rock_img/I_Obsidian_05.jpg style=""width:8cm; height:6.33cm;""><p style='font-size: 30px; color: green;'><strong>Correct!</strong></p><p style='font-size: 30px;'><strong>This rock is obsidian</strong></p>","0","corr_feedback","1","train","11","","","","","","","",""
"","","","","","","","","","","","html-button-response","127","2.0.0","649632","67083dadb0e6f2e304a38a21","1","40","5133","","","","","","","","","<img src= ""rock_img/I_Andesite_05.jpg"" style=""width:8cm; height:4.12cm;""><p>What type of rock is this?</p>","3","class_response","1","train","12","Gabbro","Andesite","05","false","4","1","",""
"","","","","","","","","","","","html-button-response","128","2.0.0","657029","67083dadb0e6f2e304a38a21","1","40","7394","","","","","","","","","<img src= rock_img/I_Andesite_05.jpg style=""width:8cm; height:4.12cm;""><p style='font-size: 30px; color: red;'><strong>Incorrect!</strong></p><p style='font-size: 30px;'><strong>This rock is andesite</strong></p>","0","corr_feedback","1","train","12","","","","","","","",""
"","","","","","","","","","","","html-button-response","129","2.0.0","658495","67083dadb0e6f2e304a38a21","1","40","1463","","","","","","","","","<img src= ""rock_img/I_Andesite_06.jpg"" style=""width:8cm; height:6.840000000000001cm;""><p>What type of rock is this?</p>","0","class_response","1","train","13","Andesite","Andesite","06","true","1","1","",""
"","","","","","","","","","","","html-button-response","130","2.0.0","659282","67083dadb0e6f2e304a38a21","1","40","785","","","","","","","","","<img src= rock_img/I_Andesite_06.jpg style=""width:8cm; height:6.840000000000001cm;""><p style='font-size: 30px; color: green;'><strong>Correct!</strong></p><p style='font-size: 30px;'><strong>This rock is andesite</strong></p>","0","corr_feedback","1","train","13","","","","","","","",""
"","","","","","","","","","","","html-button-response","131","2.0.0","662890","67083dadb0e6f2e304a38a21","1","40","3605","","","","","","","","","<img src= ""rock_img/I_Basalt_01.jpg"" style=""width:8cm; height:7.880000000000001cm;""><p>What type of rock is this?</p>","3","class_response","1","train","14","Gabbro","Basalt","01","false","4","2","",""
"","","","","","","","","","","","html-button-response","132","2.0.0","665502","67083dadb0e6f2e304a38a21","1","40","2610","","","","","","","","","<img src= rock_img/I_Basalt_01.jpg style=""width:8cm; height:7.880000000000001cm;""><p style='font-size: 30px; color: red;'><strong>Incorrect!</strong></p><p style='font-size: 30px;'><strong>This rock is basalt</strong></p>","0","corr_feedback","1","train","14","","","","","","","",""
"","","","","","","","","","","","html-button-response","133","2.0.0","670455","67083dadb0e6f2e304a38a21","1","40","4950","","","","","","","","","<img src= ""rock_img/I_Peridotite_05.jpg"" style=""width:8cm; height:7.1499999999999995cm;""><p>What type of rock is this?</p>","3","class_response","1","train","15","Gabbro","Peridotite","05","false","4","7","",""
"","","","","","","","","","","","html-button-response","134","2.0.0","674549","67083dadb0e6f2e304a38a21","1","40","4091","","","","","","","","","<img src= rock_img/I_Peridotite_05.jpg style=""width:8cm; height:7.1499999999999995cm;""><p style='font-size: 30px; color: red;'><strong>Incorrect!</strong></p><p style='font-size: 30px;'><strong>This rock is peridotite</strong></p>","0","corr_feedback","1","train","15","","","","","","","",""
"","","","","","","","","","","","html-button-response","135","2.0.0","675919","67083dadb0e6f2e304a38a21","1","40","1368","","","","","","","","","<img src= ""rock_img/I_Pumice_05.jpg"" style=""width:8cm; height:7.25cm;""><p>What type of rock is this?</p>","7","class_response","1","train","16","Pumice","Pumice","05","true","8","8","",""
"","","","","","","","","","","","html-button-response","136","2.0.0","676722","67083dadb0e6f2e304a38a21","1","40","801","","","","","","","","","<img src= rock_img/I_Pumice_05.jpg style=""width:8cm; height:7.25cm;""><p style='font-size: 30px; color: green;'><strong>Correct!</strong></p><p style='font-size: 30px;'><strong>This rock is pumice</strong></p>","0","corr_feedback","1","train","16","","","","","","","",""
"","","","","","","","","","","","html-button-response","137","2.0.0","680442","67083dadb0e6f2e304a38a21","1","40","3717","","","","","","","","","<img src= ""rock_img/I_Obsidian_07.jpg"" style=""width:8cm; height:4.76cm;""><p>What type of rock is this?</p>","4","class_response","1","train","17","Obsidian","Obsidian","07","true","5","5","",""
"","","","","","","","","","","","html-button-response","138","2.0.0","681214","67083dadb0e6f2e304a38a21","1","40","770","","","","","","","","","<img src= rock_img/I_Obsidian_07.jpg style=""width:8cm; height:4.76cm;""><p style='font-size: 30px; color: green;'><strong>Correct!</strong></p><p style='font-size: 30px;'><strong>This rock is obsidian</strong></p>","0","corr_feedback","1","train","17","","","","","","","",""
"","","","","","","","","","","","html-button-response","139","2.0.0","685865","67083dadb0e6f2e304a38a21","1","40","4648","","","","","","","","","<img src= ""rock_img/I_Pegmatite_08.jpg"" style=""width:8cm; height:7.68cm;""><p>What type of rock is this?</p>","3","class_response","1","train","18","Gabbro","Pegmatite","08","false","4","6","",""
"","","","","","","","","","","","html-button-response","140","2.0.0","695199","67083dadb0e6f2e304a38a21","1","40","9331","","","","","","","","","<img src= rock_img/I_Pegmatite_08.jpg style=""width:8cm; height:7.68cm;""><p style='font-size: 30px; color: red;'><strong>Incorrect!</strong></p><p style='font-size: 30px;'><strong>This rock is pegmatite</strong></p>","0","corr_feedback","1","train","18","","","","","","","",""
"","","","","","","","","","","","html-button-response","141","2.0.0","700219","67083dadb0e6f2e304a38a21","1","40","5017","","","","","","","","","<img src= ""rock_img/I_Diorite_15.jpg"" style=""width:8cm; height:5.54cm;""><p>What type of rock is this?</p>","6","class_response","1","train","19","Peridotite","Diorite","15","false","7","3","",""
"","","","","","","","","","","","html-button-response","142","2.0.0","706726","67083dadb0e6f2e304a38a21","1","40","6504","","","","","","","","","<img src= rock_img/I_Diorite_15.jpg style=""width:8cm; height:5.54cm;""><p style='font-size: 30px; color: red;'><strong>Incorrect!</strong></p><p style='font-size: 30px;'><strong>This rock is diorite</strong></p>","0","corr_feedback","1","train","19","","","","","","","",""
"","","","","","","","","","","","html-button-response","143","2.0.0","710286","67083dadb0e6f2e304a38a21","1","40","3557","","","","","","","","","<img src= ""rock_img/I_Basalt_10.jpg"" style=""width:8cm; height:5.85cm;""><p>What type of rock is this?</p>","1","class_response","1","train","20","Basalt","Basalt","10","true","2","2","",""
"","","","","","","","","","","","html-button-response","144","2.0.0","711264","67083dadb0e6f2e304a38a21","1","40","976","","","","","","","","","<img src= rock_img/I_Basalt_10.jpg style=""width:8cm; height:5.85cm;""><p style='font-size: 30px; color: green;'><strong>Correct!</strong></p><p style='font-size: 30px;'><strong>This rock is basalt</strong></p>","0","corr_feedback","1","train","20","","","","","","","",""
"","","","","","","","","","","","html-button-response","145","2.0.0","712429","67083dadb0e6f2e304a38a21","1","40","1161","","","","","","","","","<img src= ""rock_img/I_Pumice_06.jpg"" style=""width:8cm; height:6.9399999999999995cm;""><p>What type of rock is this?</p>","7","class_response","1","train","21","Pumice","Pumice","06","true","8","8","",""
"","","","","","","","","","","","html-button-response","146","2.0.0","713622","67083dadb0e6f2e304a38a21","1","40","1191","","","","","","","","","<img src= rock_img/I_Pumice_06.jpg style=""width:8cm; height:6.9399999999999995cm;""><p style='font-size: 30px; color: green;'><strong>Correct!</strong></p><p style='font-size: 30px;'><strong>This rock is pumice</strong></p>","0","corr_feedback","1","train","21","","","","","","","",""
"","","","","","","","","","","","html-button-response","147","2.0.0","715358","67083dadb0e6f2e304a38a21","1","40","1733","","","","","","","","","<img src= ""rock_img/I_Obsidian_06.jpg"" style=""width:8cm; height:6.8cm;""><p>What type of rock is this?</p>","4","class_response","1","train","22","Obsidian","Obsidian","06","true","5","5","",""
"","","","","","","","","","","","html-button-response","148","2.0.0","716545","67083dadb0e6f2e304a38a21","1","40","1184","","","","","","","","","<img src= rock_img/I_Obsidian_06.jpg style=""width:8cm; height:6.8cm;""><p style='font-size: 30px; color: green;'><strong>Correct!</strong></p><p style='font-size: 30px;'><strong>This rock is obsidian</strong></p>","0","corr_feedback","1","train","22","","","","","","","",""
"","","","","","","","","","","","html-button-response","149","2.0.0","720665","67083dadb0e6f2e304a38a21","1","40","4118","","","","","","","","","<img src= ""rock_img/I_Gabbro_01.jpg"" style=""width:8cm; height:5.21cm;""><p>What type of rock is this?</p>","0","class_response","1","train","23","Andesite","Gabbro","01","false","1","4","",""
"","","","","","","","","","","","html-button-response","150","2.0.0","754774","67083dadb0e6f2e304a38a21","1","40","34107","","","","","","","","","<img src= rock_img/I_Gabbro_01.jpg style=""width:8cm; height:5.21cm;""><p style='font-size: 30px; color: red;'><strong>Incorrect!</strong></p><p style='font-size: 30px;'><strong>This rock is gabbro</strong></p>","0","corr_feedback","1","train","23","","","","","","","",""
"","","","","","","","","","","","html-button-response","151","2.0.0","755874","67083dadb0e6f2e304a38a21","1","40","1098","","","","","","","","","<img src= ""rock_img/I_Obsidian_09.jpg"" style=""width:8cm; height:5cm;""><p>What type of rock is this?</p>","4","class_response","1","train","24","Obsidian","Obsidian","09","true","5","5","",""
"","","","","","","","","","","","html-button-response","152","2.0.0","756614","67083dadb0e6f2e304a38a21","1","40","737","","","","","","","","","<img src= rock_img/I_Obsidian_09.jpg style=""width:8cm; height:5cm;""><p style='font-size: 30px; color: green;'><strong>Correct!</strong></p><p style='font-size: 30px;'><strong>This rock is obsidian</strong></p>","0","corr_feedback","1","train","24","","","","","","","",""
"","","","","","","","","","","","html-button-response","153","2.0.0","759083","67083dadb0e6f2e304a38a21","1","40","2467","","","","","","","","","<img src= ""rock_img/I_Andesite_14.jpg"" style=""width:8cm; height:5.449999999999999cm;""><p>What type of rock is this?</p>","2","class_response","1","train","25","Diorite","Andesite","14","false","3","1","",""
"","","","","","","","","","","","html-button-response","154","2.0.0","770936","67083dadb0e6f2e304a38a21","1","40","11851","","","","","","","","","<img src= rock_img/I_Andesite_14.jpg style=""width:8cm; height:5.449999999999999cm;""><p style='font-size: 30px; color: red;'><strong>Incorrect!</strong></p><p style='font-size: 30px;'><strong>This rock is andesite</strong></p>","0","corr_feedback","1","train","25","","","","","","","",""
"","","","","","","","","","","","html-button-response","155","2.0.0","782199","67083dadb0e6f2e304a38a21","1","40","11259","","","","","","","","","<img src= ""rock_img/I_Obsidian_08.jpg"" style=""width:8cm; height:7.39cm;""><p>What type of rock is this?</p>","4","class_response","1","train","26","Obsidian","Obsidian","08","true","5","5","",""
"","","","","","","","","","","","html-button-response","156","2.0.0","783010","67083dadb0e6f2e304a38a21","1","40","808","","","","","","","","","<img src= rock_img/I_Obsidian_08.jpg style=""width:8cm; height:7.39cm;""><p style='font-size: 30px; color: green;'><strong>Correct!</strong></p><p style='font-size: 30px;'><strong>This rock is obsidian</strong></p>","0","corr_feedback","1","train","26","","","","","","","",""
"","","","","","","","","","","","html-button-response","157","2.0.0","794473","67083dadb0e6f2e304a38a21","1","40","11461","","","","","","","","","<img src= ""rock_img/I_Gabbro_16.jpg"" style=""width:8cm; height:6.44cm;""><p>What type of rock is this?</p>","1","class_response","1","train","27","Basalt","Gabbro","16","false","2","4","",""
"","","","","","","","","","","","html-button-response","158","2.0.0","810630","67083dadb0e6f2e304a38a21","1","40","16155","","","","","","","","","<img src= rock_img/I_Gabbro_16.jpg style=""width:8cm; height:6.44cm;""><p style='font-size: 30px; color: red;'><strong>Incorrect!</strong></p><p style='font-size: 30px;'><strong>This rock is gabbro</strong></p>","0","corr_feedback","1","train","27","","","","","","","",""
"","","","","","","","","","","","html-button-response","159","2.0.0","821715","67083dadb0e6f2e304a38a21","1","40","11081","","","","","","","","","<img src= ""rock_img/I_Pegmatite_03.jpg"" style=""width:8cm; height:5.239999999999999cm;""><p>What type of rock is this?</p>","5","class_response","1","train","28","Pegmatite","Pegmatite","03","true","6","6","",""
"","","","","","","","","","","","html-button-response","160","2.0.0","822996","67083dadb0e6f2e304a38a21","1","40","1279","","","","","","","","","<img src= rock_img/I_Pegmatite_03.jpg style=""width:8cm; height:5.239999999999999cm;""><p style='font-size: 30px; color: green;'><strong>Correct!</strong></p><p style='font-size: 30px;'><strong>This rock is pegmatite</strong></p>","0","corr_feedback","1","train","28","","","","","","","",""
"","","","","","","","","","","","html-button-response","161","2.0.0","848418","67083dadb0e6f2e304a38a21","1","40","25418","","","","","","","","","<img src= ""rock_img/I_Basalt_05.jpg"" style=""width:8cm; height:8.18cm;""><p>What type of rock is this?</p>","1","class_response","1","train","29","Basalt","Basalt","05","true","2","2","",""
"","","","","","","","","","","","html-button-response","162","2.0.0","849133","67083dadb0e6f2e304a38a21","1","40","712","","","","","","","","","<img src= rock_img/I_Basalt_05.jpg style=""width:8cm; height:8.18cm;""><p style='font-size: 30px; color: green;'><strong>Correct!</strong></p><p style='font-size: 30px;'><strong>This rock is basalt</strong></p>","0","corr_feedback","1","train","29","","","","","","","",""
"","","","","","","","","","","","html-button-response","163","2.0.0","853211","67083dadb0e6f2e304a38a21","1","40","4075","","","","","","","","","<img src= ""rock_img/I_Pegmatite_10.jpg"" style=""width:8cm; height:4.16cm;""><p>What type of rock is this?</p>","6","class_response","1","train","30","Peridotite","Pegmatite","10","false","7","6","",""
"","","","","","","","","","","","html-button-response","164","2.0.0","863827","67083dadb0e6f2e304a38a21","1","40","10614","","","","","","","","","<img src= rock_img/I_Pegmatite_10.jpg style=""width:8cm; height:4.16cm;""><p style='font-size: 30px; color: red;'><strong>Incorrect!</strong></p><p style='font-size: 30px;'><strong>This rock is pegmatite</strong></p>","0","corr_feedback","1","train","30","","","","","","","",""
"","","","","","","","","","","","html-button-response","165","2.0.0","867897","67083dadb0e6f2e304a38a21","1","40","4067","","","","","","","","","<img src= ""rock_img/I_Pegmatite_07.jpg"" style=""width:8cm; height:6.7cm;""><p>What type of rock is this?</p>","5","class_response","1","train","31","Pegmatite","Pegmatite","07","true","6","6","",""
"","","","","","","","","","","","html-button-response","166","2.0.0","869498","67083dadb0e6f2e304a38a21","1","40","1598","","","","","","","","","<img src= rock_img/I_Pegmatite_07.jpg style=""width:8cm; height:6.7cm;""><p style='font-size: 30px; color: green;'><strong>Correct!</strong></p><p style='font-size: 30px;'><strong>This rock is pegmatite</strong></p>","0","corr_feedback","1","train","31","","","","","","","",""
"","","","","","","","","","","","html-button-response","167","2.0.0","888894","67083dadb0e6f2e304a38a21","1","40","19392","","","","","","","","","<img src= ""rock_img/I_Peridotite_14.jpg"" style=""width:8cm; height:5.3cm;""><p>What type of rock is this?</p>","2","class_response","1","train","32","Diorite","Peridotite","14","false","3","7","",""
"","","","","","","","","","","","html-button-response","168","2.0.0","890582","67083dadb0e6f2e304a38a21","1","40","1686","","","","","","","","","<img src= rock_img/I_Peridotite_14.jpg style=""width:8cm; height:5.3cm;""><p style='font-size: 30px; color: red;'><strong>Incorrect!</strong></p><p style='font-size: 30px;'><strong>This rock is peridotite</strong></p>","0","corr_feedback","1","train","32","","","","","","","",""
"","","","","","","","","","","","html-button-response","169","2.0.0","894508","67083dadb0e6f2e304a38a21","1","40","3923","","","","","","","","","<img src= ""rock_img/I_Gabbro_13.jpg"" style=""width:8cm; height:5.08cm;""><p>What type of rock is this?</p>","3","class_response","1","train","33","Gabbro","Gabbro","13","true","4","4","",""
"","","","","","","","","","","","html-button-response","170","2.0.0","895169","67083dadb0e6f2e304a38a21","1","40","658","","","","","","","","","<img src= rock_img/I_Gabbro_13.jpg style=""width:8cm; height:5.08cm;""><p style='font-size: 30px; color: green;'><strong>Correct!</strong></p><p style='font-size: 30px;'><strong>This rock is gabbro</strong></p>","0","corr_feedback","1","train","33","","","","","","","",""
"","","","","","","","","","","","html-button-response","171","2.0.0","896237","67083dadb0e6f2e304a38a21","1","40","1065","","","","","","","","","<img src= ""rock_img/I_Gabbro_15.jpg"" style=""width:8cm; height:6.29cm;""><p>What type of rock is this?</p>","3","class_response","1","train","34","Gabbro","Gabbro","15","true","4","4","",""
"","","","","","","","","","","","html-button-response","172","2.0.0","901930","67083dadb0e6f2e304a38a21","1","40","5690","","","","","","","","","<img src= rock_img/I_Gabbro_15.jpg style=""width:8cm; height:6.29cm;""><p style='font-size: 30px; color: green;'><strong>Correct!</strong></p><p style='font-size: 30px;'><strong>This rock is gabbro</strong></p>","0","corr_feedback","1","train","34","","","","","","","",""
"","","","","","","","","","","","html-button-response","173","2.0.0","903754","67083dadb0e6f2e304a38a21","1","40","1821","","","","","","","","","<img src= ""rock_img/I_Diorite_09.jpg"" style=""width:8cm; height:5.27cm;""><p>What type of rock is this?</p>","2","class_response","1","train","35","Diorite","Diorite","09","true","3","3","",""
"","","","","","","","","","","","html-button-response","174","2.0.0","904598","67083dadb0e6f2e304a38a21","1","40","842","","","","","","","","","<img src= rock_img/I_Diorite_09.jpg style=""width:8cm; height:5.27cm;""><p style='font-size: 30px; color: green;'><strong>Correct!</strong></p><p style='font-size: 30px;'><strong>This rock is diorite</strong></p>","0","corr_feedback","1","train","35","","","","","","","",""
"","","","","","","","","","","","html-button-response","175","2.0.0","919215","67083dadb0e6f2e304a38a21","1","40","14615","","","","","","","","","<img src= ""rock_img/I_Gabbro_11.jpg"" style=""width:8cm; height:6.2cm;""><p>What type of rock is this?</p>","3","class_response","1","train","36","Gabbro","Gabbro","11","true","4","4","",""
"","","","","","","","","","","","html-button-response","176","2.0.0","920227","67083dadb0e6f2e304a38a21","1","40","1010","","","","","","","","","<img src= rock_img/I_Gabbro_11.jpg style=""width:8cm; height:6.2cm;""><p style='font-size: 30px; color: green;'><strong>Correct!</strong></p><p style='font-size: 30px;'><strong>This rock is gabbro</strong></p>","0","corr_feedback","1","train","36","","","","","","","",""
"","","","","","","","","","","","html-button-response","177","2.0.0","921422","67083dadb0e6f2e304a38a21","1","40","1192","","","","","","","","","<img src= ""rock_img/I_Pumice_09.jpg"" style=""width:8cm; height:6.44cm;""><p>What type of rock is this?</p>","7","class_response","1","train","37","Pumice","Pumice","09","true","8","8","",""
"","","","","","","","","","","","html-button-response","178","2.0.0","922099","67083dadb0e6f2e304a38a21","1","40","674","","","","","","","","","<img src= rock_img/I_Pumice_09.jpg style=""width:8cm; height:6.44cm;""><p style='font-size: 30px; color: green;'><strong>Correct!</strong></p><p style='font-size: 30px;'><strong>This rock is pumice</strong></p>","0","corr_feedback","1","train","37","","","","","","","",""
"","","","","","","","","","","","html-button-response","179","2.0.0","928123","67083dadb0e6f2e304a38a21","1","40","6021","","","","","","","","","<img src= ""rock_img/I_Pegmatite_16.jpg"" style=""width:8cm; height:5.8cm;""><p>What type of rock is this?</p>","5","class_response","1","train","38","Pegmatite","Pegmatite","16","true","6","6","",""
"","","","","","","","","","","","html-button-response","180","2.0.0","928775","67083dadb0e6f2e304a38a21","1","40","650","","","","","","","","","<img src= rock_img/I_Pegmatite_16.jpg style=""width:8cm; height:5.8cm;""><p style='font-size: 30px; color: green;'><strong>Correct!</strong></p><p style='font-size: 30px;'><strong>This rock is pegmatite</strong></p>","0","corr_feedback","1","train","38","","","","","","","",""
"","","","","","","","","","","","html-button-response","181","2.0.0","930282","67083dadb0e6f2e304a38a21","1","40","1504","","","","","","","","","<img src= ""rock_img/I_Pumice_03.jpg"" style=""width:8cm; height:6.64cm;""><p>What type of rock is this?</p>","7","class_response","1","train","39","Pumice","Pumice","03","true","8","8","",""
"","","","","","","","","","","","html-button-response","182","2.0.0","930915","67083dadb0e6f2e304a38a21","1","40","630","","","","","","","","","<img src= rock_img/I_Pumice_03.jpg style=""width:8cm; height:6.64cm;""><p style='font-size: 30px; color: green;'><strong>Correct!</strong></p><p style='font-size: 30px;'><strong>This rock is pumice</strong></p>","0","corr_feedback","1","train","39","","","","","","","",""
"","","","","","","","","","","","html-button-response","183","2.0.0","948566","67083dadb0e6f2e304a38a21","1","40","17650","","","","","","","","","<img src= ""rock_img/I_Andesite_02.jpg"" style=""width:8cm; height:8.5cm;""><p>What type of rock is this?</p>","5","class_response","1","train","40","Pegmatite","Andesite","02","false","6","1","",""
"","","","","","","","","","","","html-button-response","184","2.0.0","977341","67083dadb0e6f2e304a38a21","1","40","28774","","","","","","","","","<img src= rock_img/I_Andesite_02.jpg style=""width:8cm; height:8.5cm;""><p style='font-size: 30px; color: red;'><strong>Incorrect!</strong></p><p style='font-size: 30px;'><strong>This rock is andesite</strong></p>","0","corr_feedback","1","train","40","","","","","","","",""
"","","","","","","","","","","","html-button-response","185","2.0.0","980441","67083dadb0e6f2e304a38a21","1","40","3098","","","","","","","","","<img src= ""rock_img/I_Diorite_07.jpg"" style=""width:8cm; height:5.239999999999999cm;""><p>What type of rock is this?</p>","2","class_response","1","train","41","Diorite","Diorite","07","true","3","3","",""
"","","","","","","","","","","","html-button-response","186","2.0.0","981077","67083dadb0e6f2e304a38a21","1","40","633","","","","","","","","","<img src= rock_img/I_Diorite_07.jpg style=""width:8cm; height:5.239999999999999cm;""><p style='font-size: 30px; color: green;'><strong>Correct!</strong></p><p style='font-size: 30px;'><strong>This rock is diorite</strong></p>","0","corr_feedback","1","train","41","","","","","","","",""
"","","","","","","","","","","","html-button-response","187","2.0.0","983794","67083dadb0e6f2e304a38a21","1","40","2715","","","","","","","","","<img src= ""rock_img/I_Diorite_06.jpg"" style=""width:8cm; height:6.03cm;""><p>What type of rock is this?</p>","2","class_response","1","train","42","Diorite","Diorite","06","true","3","3","",""
"","","","","","","","","","","","html-button-response","188","2.0.0","984479","67083dadb0e6f2e304a38a21","1","40","682","","","","","","","","","<img src= rock_img/I_Diorite_06.jpg style=""width:8cm; height:6.03cm;""><p style='font-size: 30px; color: green;'><strong>Correct!</strong></p><p style='font-size: 30px;'><strong>This rock is diorite</strong></p>","0","corr_feedback","1","train","42","","","","","","","",""
"","","","","","","","","","","","html-button-response","189","2.0.0","992548","67083dadb0e6f2e304a38a21","1","40","8067","","","","","","","","","<img src= ""rock_img/I_Gabbro_12.jpg"" style=""width:8cm; height:7.800000000000001cm;""><p>What type of rock is this?</p>","3","class_response","1","train","43","Gabbro","Gabbro","12","true","4","4","",""
"","","","","","","","","","","","html-button-response","190","2.0.0","993518","67083dadb0e6f2e304a38a21","1","40","968","","","","","","","","","<img src= rock_img/I_Gabbro_12.jpg style=""width:8cm; height:7.800000000000001cm;""><p style='font-size: 30px; color: green;'><strong>Correct!</strong></p><p style='font-size: 30px;'><strong>This rock is gabbro</strong></p>","0","corr_feedback","1","train","43","","","","","","","",""
"","","","","","","","","","","","html-button-response","191","2.0.0","994683","67083dadb0e6f2e304a38a21","1","40","1161","","","","","","","","","<img src= ""rock_img/I_Pumice_10.jpg"" style=""width:8cm; height:7.609999999999999cm;""><p>What type of rock is this?</p>","7","class_response","1","train","44","Pumice","Pumice","10","true","8","8","",""
"","","","","","","","","","","","html-button-response","192","2.0.0","995367","67083dadb0e6f2e304a38a21","1","40","682","","","","","","","","","<img src= rock_img/I_Pumice_10.jpg style=""width:8cm; height:7.609999999999999cm;""><p style='font-size: 30px; color: green;'><strong>Correct!</strong></p><p style='font-size: 30px;'><strong>This rock is pumice</strong></p>","0","corr_feedback","1","train","44","","","","","","","",""
"","","","","","","","","","","","html-button-response","193","2.0.0","1013524","67083dadb0e6f2e304a38a21","1","40","18154","","","","","","","","","<img src= ""rock_img/I_Andesite_04.jpg"" style=""width:8cm; height:5.96cm;""><p>What type of rock is this?</p>","0","class_response","1","train","45","Andesite","Andesite","04","true","1","1","",""
"","","","","","","","","","","","html-button-response","194","2.0.0","1014202","67083dadb0e6f2e304a38a21","1","40","675","","","","","","","","","<img src= rock_img/I_Andesite_04.jpg style=""width:8cm; height:5.96cm;""><p style='font-size: 30px; color: green;'><strong>Correct!</strong></p><p style='font-size: 30px;'><strong>This rock is andesite</strong></p>","0","corr_feedback","1","train","45","","","","","","","",""
"","","","","","","","","","","","html-button-response","195","2.0.0","1018279","67083dadb0e6f2e304a38a21","1","40","4074","","","","","","","","","<img src= ""rock_img/I_Basalt_14.jpg"" style=""width:8cm; height:5.82cm;""><p>What type of rock is this?</p>","7","class_response","1","train","46","Pumice","Basalt","14","false","8","2","",""
"","","","","","","","","","","","html-button-response","196","2.0.0","1021983","67083dadb0e6f2e304a38a21","1","40","3701","","","","","","","","","<img src= rock_img/I_Basalt_14.jpg style=""width:8cm; height:5.82cm;""><p style='font-size: 30px; color: red;'><strong>Incorrect!</strong></p><p style='font-size: 30px;'><strong>This rock is basalt</strong></p>","0","corr_feedback","1","train","46","","","","","","","",""
"","","","","","","","","","","","html-button-response","197","2.0.0","1023073","67083dadb0e6f2e304a38a21","1","40","1088","","","","","","","","","<img src= ""rock_img/I_Obsidian_02.jpg"" style=""width:8cm; height:7.51cm;""><p>What type of rock is this?</p>","4","class_response","1","train","47","Obsidian","Obsidian","02","true","5","5","",""
"","","","","","","","","","","","html-button-response","198","2.0.0","1023901","67083dadb0e6f2e304a38a21","1","40","825","","","","","","","","","<img src= rock_img/I_Obsidian_02.jpg style=""width:8cm; height:7.51cm;""><p style='font-size: 30px; color: green;'><strong>Correct!</strong></p><p style='font-size: 30px;'><strong>This rock is obsidian</strong></p>","0","corr_feedback","1","train","47","","","","","","","",""
"","","","","","","","","","","","html-button-response","199","2.0.0","1029404","67083dadb0e6f2e304a38a21","1","40","5500","","","","","","","","","<img src= ""rock_img/I_Basalt_09.jpg"" style=""width:8cm; height:6.2cm;""><p>What type of rock is this?</p>","3","class_response","1","train","48","Gabbro","Basalt","09","false","4","2","",""
"","","","","","","","","","","","html-button-response","200","2.0.0","1030846","67083dadb0e6f2e304a38a21","1","40","1439","","","","","","","","","<img src= rock_img/I_Basalt_09.jpg style=""width:8cm; height:6.2cm;""><p style='font-size: 30px; color: red;'><strong>Incorrect!</strong></p><p style='font-size: 30px;'><strong>This rock is basalt</strong></p>","0","corr_feedback","1","train","48","","","","","","","",""
"","","","","","","","","","","","instructions","203","2.0.0","1043555","67083dadb0e6f2e304a38a21","1","40","12707","","","","","","","","[{""page_index"":0,""viewing_time"":4870},{""page_index"":1,""viewing_time"":7836}]","","","","","","","","","","","","","",""
"","","","","","","","","","","","html-button-response","204","2.0.0","1044638","67083dadb0e6f2e304a38a21","1","40","1080","","","","","","","","","","0","start_test","","","","","","","","","","",""
"","","","","","","","","","","","html-button-response","205","2.0.0","1050335","67083dadb0e6f2e304a38a21","1","40","5693","","","","","","","","","<img src= ""rock_img/I_Diorite_12.jpg"" style=""width:8cm; height:4.88cm;""><p>What type of rock is this?</p>","2","class_response","1","test","1","Diorite","Diorite","12","true","3","3","",""
"","","","","","","","","","","","html-keyboard-response","206","2.0.0","1050837","67083dadb0e6f2e304a38a21","1","40","null","","","","","","","","","<p style='font-size: 30px;'><strong>Okay</strong></p>","null","neutral_feedback","1","test","1","","","","","","","",""
"","","","","","","","","","","","html-button-response","207","2.0.0","1055932","67083dadb0e6f2e304a38a21","1","40","5093","","","","","","","","","<img src= ""rock_img/I_Basalt_11.jpg"" style=""width:8cm; height:5.359999999999999cm;""><p>What type of rock is this?</p>","1","class_response","1","test","2","Basalt","Basalt","11","true","2","2","",""
"","","","","","","","","","","","html-keyboard-response","208","2.0.0","1056435","67083dadb0e6f2e304a38a21","1","40","null","","","","","","","","","<p style='font-size: 30px;'><strong>Okay</strong></p>","null","neutral_feedback","1","test","2","","","","","","","",""
"","","","","","","","","","","","html-button-response","209","2.0.0","1057550","67083dadb0e6f2e304a38a21","1","40","1111","","","","","","","","","<img src= ""rock_img/I_Obsidian_04.jpg"" style=""width:8cm; height:6.930000000000001cm;""><p>What type of rock is this?</p>","4","class_response","1","test","3","Obsidian","Obsidian","04","true","5","5","",""
"","","","","","","","","","","","html-keyboard-response","210","2.0.0","1058052","67083dadb0e6f2e304a38a21","1","40","null","","","","","","","","","<p style='font-size: 30px;'><strong>Okay</strong></p>","null","neutral_feedback","1","test","3","","","","","","","",""
"","","","","","","","","","","","html-button-response","211","2.0.0","1059206","67083dadb0e6f2e304a38a21","1","40","1151","","","","","","","","","<img src= ""rock_img/I_Pumice_15.jpg"" style=""width:8cm; height:7.86cm;""><p>What type of rock is this?</p>","7","class_response","1","test","4","Pumice","Pumice","15","true","8","8","",""
"","","","","","","","","","","","html-keyboard-response","212","2.0.0","1059708","67083dadb0e6f2e304a38a21","1","40","null","","","","","","","","","<p style='font-size: 30px;'><strong>Okay</strong></p>","null","neutral_feedback","1","test","4","","","","","","","",""
"","","","","","","","","","","","html-button-response","213","2.0.0","1072316","67083dadb0e6f2e304a38a21","1","40","12605","","","","","","","","","<img src= ""rock_img/I_Peridotite_12.jpg"" style=""width:8cm; height:4.54cm;""><p>What type of rock is this?</p>","6","class_response","1","test","5","Peridotite","Peridotite","12","true","7","7","",""
"","","","","","","","","","","","html-keyboard-response","214","2.0.0","1072818","67083dadb0e6f2e304a38a21","1","40","null","","","","","","","","","<p style='font-size: 30px;'><strong>Okay</strong></p>","null","neutral_feedback","1","test","5","","","","","","","",""
"","","","","","","","","","","","html-button-response","215","2.0.0","1073773","67083dadb0e6f2e304a38a21","1","40","952","","","","","","","","","<img src= ""rock_img/I_Pumice_16.jpg"" style=""width:8cm; height:6.79cm;""><p>What type of rock is this?</p>","7","class_response","1","test","6","Pumice","Pumice","16","true","8","8","",""
"","","","","","","","","","","","html-keyboard-response","216","2.0.0","1074276","67083dadb0e6f2e304a38a21","1","40","null","","","","","","","","","<p style='font-size: 30px;'><strong>Okay</strong></p>","null","neutral_feedback","1","test","6","","","","","","","",""
"","","","","","","","","","","","html-button-response","217","2.0.0","1078136","67083dadb0e6f2e304a38a21","1","40","3857","","","","","","","","","<img src= ""rock_img/I_Basalt_06.jpg"" style=""width:8cm; height:7.06cm;""><p>What type of rock is this?</p>","3","class_response","1","test","7","Gabbro","Basalt","06","false","4","2","",""
"","","","","","","","","","","","html-keyboard-response","218","2.0.0","1078637","67083dadb0e6f2e304a38a21","1","40","null","","","","","","","","","<p style='font-size: 30px;'><strong>Okay</strong></p>","null","neutral_feedback","1","test","7","","","","","","","",""
"","","","","","","","","","","","html-button-response","219","2.0.0","1079554","67083dadb0e6f2e304a38a21","1","40","914","","","","","","","","","<img src= ""rock_img/I_Diorite_08.jpg"" style=""width:8cm; height:6.37cm;""><p>What type of rock is this?</p>","2","class_response","1","test","8","Diorite","Diorite","08","true","3","3","",""
"","","","","","","","","","","","html-keyboard-response","220","2.0.0","1080057","67083dadb0e6f2e304a38a21","1","40","null","","","","","","","","","<p style='font-size: 30px;'><strong>Okay</strong></p>","null","neutral_feedback","1","test","8","","","","","","","",""
"","","","","","","","","","","","html-button-response","221","2.0.0","1092970","67083dadb0e6f2e304a38a21","1","40","12910","","","","","","","","","<img src= ""rock_img/I_Pegmatite_09.jpg"" style=""width:8cm; height:4.03cm;""><p>What type of rock is this?</p>","5","class_response","1","test","9","Pegmatite","Pegmatite","09","true","6","6","",""
"","","","","","","","","","","","html-keyboard-response","222","2.0.0","1093472","67083dadb0e6f2e304a38a21","1","40","null","","","","","","","","","<p style='font-size: 30px;'><strong>Okay</strong></p>","null","neutral_feedback","1","test","9","","","","","","","",""
"","","","","","","","","","","","html-button-response","223","2.0.0","1100410","67083dadb0e6f2e304a38a21","1","40","6934","","","","","","","","","<img src= ""rock_img/I_Gabbro_09.jpg"" style=""width:8cm; height:7.279999999999999cm;""><p>What type of rock is this?</p>","1","class_response","1","test","10","Basalt","Gabbro","09","false","2","4","",""
"","","","","","","","","","","","html-keyboard-response","224","2.0.0","1100912","67083dadb0e6f2e304a38a21","1","40","null","","","","","","","","","<p style='font-size: 30px;'><strong>Okay</strong></p>","null","neutral_feedback","1","test","10","","","","","","","",""
"","","","","","","","","","","","html-button-response","225","2.0.0","1101994","67083dadb0e6f2e304a38a21","1","40","1079","","","","","","","","","<img src= ""rock_img/I_Obsidian_16.jpg"" style=""width:8cm; height:9.3cm;""><p>What type of rock is this?</p>","4","class_response","1","test","11","Obsidian","Obsidian","16","true","5","5","",""
"","","","","","","","","","","","html-keyboard-response","226","2.0.0","1102497","67083dadb0e6f2e304a38a21","1","40","null","","","","","","","","","<p style='font-size: 30px;'><strong>Okay</strong></p>","null","neutral_feedback","1","test","11","","","","","","","",""
"","","","","","","","","","","","html-button-response","227","2.0.0","1106598","67083dadb0e6f2e304a38a21","1","40","4097","","","","","","","","","<img src= ""rock_img/I_Peridotite_06.jpg"" style=""width:8cm; height:7.53cm;""><p>What type of rock is this?</p>","6","class_response","1","test","12","Peridotite","Peridotite","06","true","7","7","",""
"","","","","","","","","","","","html-keyboard-response","228","2.0.0","1107100","67083dadb0e6f2e304a38a21","1","40","null","","","","","","","","","<p style='font-size: 30px;'><strong>Okay</strong></p>","null","neutral_feedback","1","test","12","","","","","","","",""
"","","","","","","","","","","","html-button-response","229","2.0.0","1108573","67083dadb0e6f2e304a38a21","1","40","1470","","","","","","","","","<img src= ""rock_img/I_Diorite_14.jpg"" style=""width:8cm; height:5.71cm;""><p>What type of rock is this?</p>","2","class_response","1","test","13","Diorite","Diorite","14","true","3","3","",""
"","","","","","","","","","","","html-keyboard-response","230","2.0.0","1109075","67083dadb0e6f2e304a38a21","1","40","null","","","","","","","","","<p style='font-size: 30px;'><strong>Okay</strong></p>","null","neutral_feedback","1","test","13","","","","","","","",""
"","","","","","","","","","","","html-button-response","231","2.0.0","1111518","67083dadb0e6f2e304a38a21","1","40","2440","","","","","","","","","<img src= ""rock_img/I_Basalt_02.jpg"" style=""width:8cm; height:6.45cm;""><p>What type of rock is this?</p>","3","class_response","1","test","14","Gabbro","Basalt","02","false","4","2","",""
"","","","","","","","","","","","html-keyboard-response","232","2.0.0","1112021","67083dadb0e6f2e304a38a21","1","40","null","","","","","","","","","<p style='font-size: 30px;'><strong>Okay</strong></p>","null","neutral_feedback","1","test","14","","","","","","","",""
"","","","","","","","","","","","html-button-response","233","2.0.0","1141950","67083dadb0e6f2e304a38a21","1","40","29925","","","","","","","","","<img src= ""rock_img/I_Pegmatite_13.jpg"" style=""width:8cm; height:4.95cm;""><p>What type of rock is this?</p>","5","class_response","1","test","15","Pegmatite","Pegmatite","13","true","6","6","",""
"","","","","","","","","","","","html-keyboard-response","234","2.0.0","1142452","67083dadb0e6f2e304a38a21","1","40","null","","","","","","","","","<p style='font-size: 30px;'><strong>Okay</strong></p>","null","neutral_feedback","1","test","15","","","","","","","",""
"","","","","","","","","","","","html-button-response","235","2.0.0","1163975","67083dadb0e6f2e304a38a21","1","40","21519","","","","","","","","","<img src= ""rock_img/I_Gabbro_03.jpg"" style=""width:8cm; height:8.52cm;""><p>What type of rock is this?</p>","0","class_response","1","test","16","Andesite","Gabbro","03","false","1","4","",""
"","","","","","","","","","","","html-keyboard-response","236","2.0.0","1164478","67083dadb0e6f2e304a38a21","1","40","null","","","","","","","","","<p style='font-size: 30px;'><strong>Okay</strong></p>","null","neutral_feedback","1","test","16","","","","","","","",""
"","","","","","","","","","","","html-button-response","237","2.0.0","1166666","67083dadb0e6f2e304a38a21","1","40","2185","","","","","","","","","<img src= ""rock_img/I_Basalt_04.jpg"" style=""width:8cm; height:7.53cm;""><p>What type of rock is this?</p>","1","class_response","1","test","17","Basalt","Basalt","04","true","2","2","",""
"","","","","","","","","","","","html-keyboard-response","238","2.0.0","1167168","67083dadb0e6f2e304a38a21","1","40","null","","","","","","","","","<p style='font-size: 30px;'><strong>Okay</strong></p>","null","neutral_feedback","1","test","17","","","","","","","",""
"","","","","","","","","","","","html-button-response","239","2.0.0","1172264","67083dadb0e6f2e304a38a21","1","40","5093","","","","","","","","","<img src= ""rock_img/I_Peridotite_13.jpg"" style=""width:8cm; height:7.58cm;""><p>What type of rock is this?</p>","6","class_response","1","test","18","Peridotite","Peridotite","13","true","7","7","",""
"","","","","","","","","","","","html-keyboard-response","240","2.0.0","1172766","67083dadb0e6f2e304a38a21","1","40","null","","","","","","","","","<p style='font-size: 30px;'><strong>Okay</strong></p>","null","neutral_feedback","1","test","18","","","","","","","",""
"","","","","","","","","","","","html-button-response","241","2.0.0","1190903","67083dadb0e6f2e304a38a21","1","40","18133","","","","","","","","","<img src= ""rock_img/I_Diorite_02.jpg"" style=""width:8cm; height:6.27cm;""><p>What type of rock is this?</p>","2","class_response","1","test","19","Diorite","Diorite","02","true","3","3","",""
"","","","","","","","","","","","html-keyboard-response","242","2.0.0","1191405","67083dadb0e6f2e304a38a21","1","40","null","","","","","","","","","<p style='font-size: 30px;'><strong>Okay</strong></p>","null","neutral_feedback","1","test","19","","","","","","","",""
"","","","","","","","","","","","html-button-response","243","2.0.0","1193713","67083dadb0e6f2e304a38a21","1","40","2305","","","","","","","","","<img src= ""rock_img/I_Diorite_10.jpg"" style=""width:8cm; height:5.949999999999999cm;""><p>What type of rock is this?</p>","3","class_response","1","test","20","Gabbro","Diorite","10","false","4","3","",""
"","","","","","","","","","","","html-keyboard-response","244","2.0.0","1194216","67083dadb0e6f2e304a38a21","1","40","null","","","","","","","","","<p style='font-size: 30px;'><strong>Okay</strong></p>","null","neutral_feedback","1","test","20","","","","","","","",""
"","","","","","","","","","","","html-button-response","245","2.0.0","1196827","67083dadb0e6f2e304a38a21","1","40","2608","","","","","","","","","<img src= ""rock_img/I_Basalt_16.jpg"" style=""width:8cm; height:7.659999999999999cm;""><p>What type of rock is this?</p>","1","class_response","1","test","21","Basalt","Basalt","16","true","2","2","",""
"","","","","","","","","","","","html-keyboard-response","246","2.0.0","1197330","67083dadb0e6f2e304a38a21","1","40","null","","","","","","","","","<p style='font-size: 30px;'><strong>Okay</strong></p>","null","neutral_feedback","1","test","21","","","","","","","",""
"","","","","","","","","","","","html-button-response","247","2.0.0","1209698","67083dadb0e6f2e304a38a21","1","40","12364","","","","","","","","","<img src= ""rock_img/I_Andesite_11.jpg"" style=""width:8cm; height:4.92cm;""><p>What type of rock is this?</p>","6","class_response","1","test","22","Peridotite","Andesite","11","false","7","1","",""
"","","","","","","","","","","","html-keyboard-response","248","2.0.0","1210200","67083dadb0e6f2e304a38a21","1","40","null","","","","","","","","","<p style='font-size: 30px;'><strong>Okay</strong></p>","null","neutral_feedback","1","test","22","","","","","","","",""
"","","","","","","","","","","","html-button-response","249","2.0.0","1220507","67083dadb0e6f2e304a38a21","1","40","10304","","","","","","","","","<img src= ""rock_img/I_Peridotite_16.jpg"" style=""width:8cm; height:6.989999999999999cm;""><p>What type of rock is this?</p>","3","class_response","1","test","23","Gabbro","Peridotite","16","false","4","7","",""
"","","","","","","","","","","","html-keyboard-response","250","2.0.0","1221009","67083dadb0e6f2e304a38a21","1","40","null","","","","","","","","","<p style='font-size: 30px;'><strong>Okay</strong></p>","null","neutral_feedback","1","test","23","","","","","","","",""
"","","","","","","","","","","","html-button-response","251","2.0.0","1222316","67083dadb0e6f2e304a38a21","1","40","1304","","","","","","","","","<img src= ""rock_img/I_Obsidian_10.jpg"" style=""width:8cm; height:6.260000000000001cm;""><p>What type of rock is this?</p>","4","class_response","1","test","24","Obsidian","Obsidian","10","true","5","5","",""
"","","","","","","","","","","","html-keyboard-response","252","2.0.0","1222819","67083dadb0e6f2e304a38a21","1","40","null","","","","","","","","","<p style='font-size: 30px;'><strong>Okay</strong></p>","null","neutral_feedback","1","test","24","","","","","","","",""
"","","","","","","","","","","","html-button-response","253","2.0.0","1236203","67083dadb0e6f2e304a38a21","1","40","13380","","","","","","","","","<img src= ""rock_img/I_Pegmatite_06.jpg"" style=""width:8cm; height:5.17cm;""><p>What type of rock is this?</p>","5","class_response","1","test","25","Pegmatite","Pegmatite","06","true","6","6","",""
"","","","","","","","","","","","html-keyboard-response","254","2.0.0","1236706","67083dadb0e6f2e304a38a21","1","40","null","","","","","","","","","<p style='font-size: 30px;'><strong>Okay</strong></p>","null","neutral_feedback","1","test","25","","","","","","","",""
"","","","","","","","","","","","html-button-response","255","2.0.0","1241371","67083dadb0e6f2e304a38a21","1","40","4662","","","","","","","","","<img src= ""rock_img/I_Andesite_16.jpg"" style=""width:8cm; height:6.010000000000001cm;""><p>What type of rock is this?</p>","0","class_response","1","test","26","Andesite","Andesite","16","true","1","1","",""
"","","","","","","","","","","","html-keyboard-response","256","2.0.0","1241873","67083dadb0e6f2e304a38a21","1","40","null","","","","","","","","","<p style='font-size: 30px;'><strong>Okay</strong></p>","null","neutral_feedback","1","test","26","","","","","","","",""
"","","","","","","","","","","","html-button-response","257","2.0.0","1242987","67083dadb0e6f2e304a38a21","1","40","1111","","","","","","","","","<img src= ""rock_img/I_Pumice_04.jpg"" style=""width:8cm; height:6.819999999999999cm;""><p>What type of rock is this?</p>","7","class_response","1","test","27","Pumice","Pumice","04","true","8","8","",""
"","","","","","","","","","","","html-keyboard-response","258","2.0.0","1243490","67083dadb0e6f2e304a38a21","1","40","null","","","","","","","","","<p style='font-size: 30px;'><strong>Okay</strong></p>","null","neutral_feedback","1","test","27","","","","","","","",""
"","","","","","","","","","","","html-button-response","259","2.0.0","1244460","67083dadb0e6f2e304a38a21","1","40","967","","","","","","","","","<img src= ""rock_img/I_Obsidian_11.jpg"" style=""width:8cm; height:6.05cm;""><p>What type of rock is this?</p>","4","class_response","1","test","28","Obsidian","Obsidian","11","true","5","5","",""
"","","","","","","","","","","","html-keyboard-response","260","2.0.0","1244963","67083dadb0e6f2e304a38a21","1","40","null","","","","","","","","","<p style='font-size: 30px;'><strong>Okay</strong></p>","null","neutral_feedback","1","test","28","","","","","","","",""
"","","","","","","","","","","","html-button-response","261","2.0.0","1271176","67083dadb0e6f2e304a38a21","1","40","26210","","","","","","","","","<img src= ""rock_img/I_Gabbro_08.jpg"" style=""width:8cm; height:5.15cm;""><p>What type of rock is this?</p>","3","class_response","1","test","29","Gabbro","Gabbro","08","true","4","4","",""
"","","","","","","","","","","","html-keyboard-response","262","2.0.0","1271679","67083dadb0e6f2e304a38a21","1","40","null","","","","","","","","","<p style='font-size: 30px;'><strong>Okay</strong></p>","null","neutral_feedback","1","test","29","","","","","","","",""
"","","","","","","","","","","","html-button-response","263","2.0.0","1272650","67083dadb0e6f2e304a38a21","1","40","968","","","","","","","","","<img src= ""rock_img/I_Diorite_16.jpg"" style=""width:8cm; height:6.74cm;""><p>What type of rock is this?</p>","2","class_response","1","test","30","Diorite","Diorite","16","true","3","3","",""
"","","","","","","","","","","","html-keyboard-response","264","2.0.0","1273153","67083dadb0e6f2e304a38a21","1","40","null","","","","","","","","","<p style='font-size: 30px;'><strong>Okay</strong></p>","null","neutral_feedback","1","test","30","","","","","","","",""
"","","","","","","","","","","","html-button-response","265","2.0.0","1274664","67083dadb0e6f2e304a38a21","1","40","1508","","","","","","","","","<img src= ""rock_img/I_Pumice_08.jpg"" style=""width:8cm; height:6.67cm;""><p>What type of rock is this?</p>","7","class_response","1","test","31","Pumice","Pumice","08","true","8","8","",""
"","","","","","","","","","","","html-keyboard-response","266","2.0.0","1275166","67083dadb0e6f2e304a38a21","1","40","null","","","","","","","","","<p style='font-size: 30px;'><strong>Okay</strong></p>","null","neutral_feedback","1","test","31","","","","","","","",""
"","","","","","","","","","","","html-button-response","267","2.0.0","1295275","67083dadb0e6f2e304a38a21","1","40","20106","","","","","","","","","<img src= ""rock_img/I_Pegmatite_12.jpg"" style=""width:8cm; height:5.7cm;""><p>What type of rock is this?</p>","5","class_response","1","test","32","Pegmatite","Pegmatite","12","true","6","6","",""
"","","","","","","","","","","","html-keyboard-response","268","2.0.0","1295777","67083dadb0e6f2e304a38a21","1","40","null","","","","","","","","","<p style='font-size: 30px;'><strong>Okay</strong></p>","null","neutral_feedback","1","test","32","","","","","","","",""
"","","","","","","","","","","","html-button-response","269","2.0.0","1296925","67083dadb0e6f2e304a38a21","1","40","1144","","","","","","","","","<img src= ""rock_img/I_Pumice_02.jpg"" style=""width:8cm; height:7.3999999999999995cm;""><p>What type of rock is this?</p>","7","class_response","1","test","33","Pumice","Pumice","02","true","8","8","",""
"","","","","","","","","","","","html-keyboard-response","270","2.0.0","1297427","67083dadb0e6f2e304a38a21","1","40","null","","","","","","","","","<p style='font-size: 30px;'><strong>Okay</strong></p>","null","neutral_feedback","1","test","33","","","","","","","",""
"","","","","","","","","","","","html-button-response","271","2.0.0","1298827","67083dadb0e6f2e304a38a21","1","40","1396","","","","","","","","","<img src= ""rock_img/I_Peridotite_10.jpg"" style=""width:8cm; height:5.390000000000001cm;""><p>What type of rock is this?</p>","6","class_response","1","test","34","Peridotite","Peridotite","10","true","7","7","",""
"","","","","","","","","","","","html-keyboard-response","272","2.0.0","1299330","67083dadb0e6f2e304a38a21","1","40","null","","","","","","","","","<p style='font-size: 30px;'><strong>Okay</strong></p>","null","neutral_feedback","1","test","34","","","","","","","",""
"","","","","","","","","","","","html-button-response","273","2.0.0","1303605","67083dadb0e6f2e304a38a21","1","40","4272","","","","","","","","","<img src= ""rock_img/I_Gabbro_10.jpg"" style=""width:8cm; height:5.680000000000001cm;""><p>What type of rock is this?</p>","3","class_response","1","test","35","Gabbro","Gabbro","10","true","4","4","",""
"","","","","","","","","","","","html-keyboard-response","274","2.0.0","1304108","67083dadb0e6f2e304a38a21","1","40","null","","","","","","","","","<p style='font-size: 30px;'><strong>Okay</strong></p>","null","neutral_feedback","1","test","35","","","","","","","",""
"","","","","","","","","","","","html-button-response","275","2.0.0","1305340","67083dadb0e6f2e304a38a21","1","40","1229","","","","","","","","","<img src= ""rock_img/I_Obsidian_12.jpg"" style=""width:8cm; height:6.53cm;""><p>What type of rock is this?</p>","4","class_response","1","test","36","Obsidian","Obsidian","12","true","5","5","",""
"","","","","","","","","","","","html-keyboard-response","276","2.0.0","1305842","67083dadb0e6f2e304a38a21","1","40","null","","","","","","","","","<p style='font-size: 30px;'><strong>Okay</strong></p>","null","neutral_feedback","1","test","36","","","","","","","",""
"","","","","","","","","","","","html-button-response","277","2.0.0","1307818","67083dadb0e6f2e304a38a21","1","40","1973","","","","","","","","","<img src= ""rock_img/I_Pumice_13.jpg"" style=""width:8cm; height:8.200000000000001cm;""><p>What type of rock is this?</p>","7","class_response","1","test","37","Pumice","Pumice","13","true","8","8","",""
"","","","","","","","","","","","html-keyboard-response","278","2.0.0","1308321","67083dadb0e6f2e304a38a21","1","40","null","","","","","","","","","<p style='font-size: 30px;'><strong>Okay</strong></p>","null","neutral_feedback","1","test","37","","","","","","","",""
"","","","","","","","","","","","html-button-response","279","2.0.0","1314983","67083dadb0e6f2e304a38a21","1","40","6659","","","","","","","","","<img src= ""rock_img/I_Gabbro_05.jpg"" style=""width:8cm; height:6cm;""><p>What type of rock is this?</p>","1","class_response","1","test","38","Basalt","Gabbro","05","false","2","4","",""
"","","","","","","","","","","","html-keyboard-response","280","2.0.0","1315485","67083dadb0e6f2e304a38a21","1","40","null","","","","","","","","","<p style='font-size: 30px;'><strong>Okay</strong></p>","null","neutral_feedback","1","test","38","","","","","","","",""
"","","","","","","","","","","","html-button-response","281","2.0.0","1324134","67083dadb0e6f2e304a38a21","1","40","8645","","","","","","","","","<img src= ""rock_img/I_Pegmatite_11.jpg"" style=""width:8cm; height:8.14cm;""><p>What type of rock is this?</p>","5","class_response","1","test","39","Pegmatite","Pegmatite","11","true","6","6","",""
"","","","","","","","","","","","html-keyboard-response","282","2.0.0","1324637","67083dadb0e6f2e304a38a21","1","40","null","","","","","","","","","<p style='font-size: 30px;'><strong>Okay</strong></p>","null","neutral_feedback","1","test","39","","","","","","","",""
"","","","","","","","","","","","html-button-response","283","2.0.0","1327343","67083dadb0e6f2e304a38a21","1","40","2703","","","","","","","","","<img src= ""rock_img/I_Andesite_09.jpg"" style=""width:8cm; height:6cm;""><p>What type of rock is this?</p>","0","class_response","1","test","40","Andesite","Andesite","09","true","1","1","",""
"","","","","","","","","","","","html-keyboard-response","284","2.0.0","1327845","67083dadb0e6f2e304a38a21","1","40","null","","","","","","","","","<p style='font-size: 30px;'><strong>Okay</strong></p>","null","neutral_feedback","1","test","40","","","","","","","",""
"","","","","","","","","","","","html-button-response","285","2.0.0","1329938","67083dadb0e6f2e304a38a21","1","40","2090","","","","","","","","","<img src= ""rock_img/I_Basalt_08.jpg"" style=""width:8cm; height:10.44cm;""><p>What type of rock is this?</p>","1","class_response","1","test","41","Basalt","Basalt","08","true","2","2","",""
"","","","","","","","","","","","html-keyboard-response","286","2.0.0","1330441","67083dadb0e6f2e304a38a21","1","40","null","","","","","","","","","<p style='font-size: 30px;'><strong>Okay</strong></p>","null","neutral_feedback","1","test","41","","","","","","","",""
"","","","","","","","","","","","html-button-response","287","2.0.0","1337598","67083dadb0e6f2e304a38a21","1","40","7154","","","","","","","","","<img src= ""rock_img/I_Pegmatite_15.jpg"" style=""width:8cm; height:6cm;""><p>What type of rock is this?</p>","5","class_response","1","test","42","Pegmatite","Pegmatite","15","true","6","6","",""
"","","","","","","","","","","","html-keyboard-response","288","2.0.0","1338099","67083dadb0e6f2e304a38a21","1","40","null","","","","","","","","","<p style='font-size: 30px;'><strong>Okay</strong></p>","null","neutral_feedback","1","test","42","","","","","","","",""
"","","","","","","","","","","","html-button-response","289","2.0.0","1342799","67083dadb0e6f2e304a38a21","1","40","4697","","","","","","","","","<img src= ""rock_img/I_Andesite_01.jpg"" style=""width:8cm; height:5.87cm;""><p>What type of rock is this?</p>","2","class_response","1","test","43","Diorite","Andesite","01","false","3","1","",""
"","","","","","","","","","","","html-keyboard-response","290","2.0.0","1343302","67083dadb0e6f2e304a38a21","1","40","null","","","","","","","","","<p style='font-size: 30px;'><strong>Okay</strong></p>","null","neutral_feedback","1","test","43","","","","","","","",""
"","","","","","","","","","","","html-button-response","291","2.0.0","1352120","67083dadb0e6f2e304a38a21","1","40","8815","","","","","","","","","<img src= ""rock_img/I_Andesite_10.jpg"" style=""width:8cm; height:4.16cm;""><p>What type of rock is this?</p>","0","class_response","1","test","44","Andesite","Andesite","10","true","1","1","",""
"","","","","","","","","","","","html-keyboard-response","292","2.0.0","1352622","67083dadb0e6f2e304a38a21","1","40","null","","","","","","","","","<p style='font-size: 30px;'><strong>Okay</strong></p>","null","neutral_feedback","1","test","44","","","","","","","",""
"","","","","","","","","","","","html-button-response","293","2.0.0","1357080","67083dadb0e6f2e304a38a21","1","40","4455","","","","","","","","","<img src= ""rock_img/I_Andesite_07.jpg"" style=""width:8cm; height:5.93cm;""><p>What type of rock is this?</p>","0","class_response","1","test","45","Andesite","Andesite","07","true","1","1","",""
"","","","","","","","","","","","html-keyboard-response","294","2.0.0","1357582","67083dadb0e6f2e304a38a21","1","40","null","","","","","","","","","<p style='font-size: 30px;'><strong>Okay</strong></p>","null","neutral_feedback","1","test","45","","","","","","","",""
"","","","","","","","","","","","html-button-response","295","2.0.0","1358618","67083dadb0e6f2e304a38a21","1","40","1032","","","","","","","","","<img src= ""rock_img/I_Obsidian_14.jpg"" style=""width:8cm; height:7.64cm;""><p>What type of rock is this?</p>","4","class_response","1","test","46","Obsidian","Obsidian","14","true","5","5","",""
"","","","","","","","","","","","html-keyboard-response","296","2.0.0","1359120","67083dadb0e6f2e304a38a21","1","40","null","","","","","","","","","<p style='font-size: 30px;'><strong>Okay</strong></p>","null","neutral_feedback","1","test","46","","","","","","","",""
"","","","","","","","","","","","html-button-response","297","2.0.0","1377085","67083dadb0e6f2e304a38a21","1","40","17961","","","","","","","","","<img src= ""rock_img/I_Gabbro_14.jpg"" style=""width:8cm; height:8.48cm;""><p>What type of rock is this?</p>","3","class_response","1","test","47","Gabbro","Gabbro","14","true","4","4","",""
"","","","","","","","","","","","html-keyboard-response","298","2.0.0","1377587","67083dadb0e6f2e304a38a21","1","40","null","","","","","","","","","<p style='font-size: 30px;'><strong>Okay</strong></p>","null","neutral_feedback","1","test","47","","","","","","","",""
"","","","","","","","","","","","html-button-response","299","2.0.0","1378973","67083dadb0e6f2e304a38a21","1","40","1383","","","","","","","","","<img src= ""rock_img/I_Peridotite_07.jpg"" style=""width:8cm; height:4.83cm;""><p>What type of rock is this?</p>","6","class_response","1","test","48","Peridotite","Peridotite","07","true","7","7","",""
"","","","","","","","","","","","html-keyboard-response","300","2.0.0","1379476","67083dadb0e6f2e304a38a21","1","40","null","","","","","","","","","<p style='font-size: 30px;'><strong>Okay</strong></p>","null","neutral_feedback","1","test","48","","","","","","","",""
"","","","","","","","","","","","html-button-response","301","2.0.0","1470888","67083dadb0e6f2e304a38a21","1","40","","","","","","","","","","","","cycle_feedback","","","","","","","","","","38303.29999999702","53099.5"
"","","","","","","","","","","","html-button-response","303","2.0.0","1472115","67083dadb0e6f2e304a38a21","1","40","1224","","","","","","","","","","0","start_train","","","","","","","","","","",""
"","","","","","","","","","","","html-button-response","304","2.0.0","1475046","67083dadb0e6f2e304a38a21","1","40","2927","","","","","","","","","<img src= ""rock_img/I_Peridotite_02.jpg"" style=""width:8cm; height:5.859999999999999cm;""><p>What type of rock is this?</p>","6","class_response","2","train","1","Peridotite","Peridotite","02","true","7","7","",""
