"width","height","webaudio","browser","browser_version","mobile","os","fullscreen","vsync_rate","webcam","microphone","trial_type","trial_index","plugin_version","time_elapsed","subjID","condition","stimID","rt","url","success","value","timeout","failed_images","failed_audio","failed_video","view_history","stimulus","response","trialType","cycle","phase","trial","resp","cat","token","corr","resp_num","cat_num","time_fb1","time_fb2"
"1920","919","true","chrome","131.0.0","false","Windows 10","true","58.04","true","true","browser-check","0","2.0.0","1073","652abcf9a639f4cb5c294233","1","34","","","","","","","","","","","","","","","","","","","","","","",""
"","","","","","","","","","","","external-html","1","2.0.0","5871","652abcf9a639f4cb5c294233","1","34","4686","consent_form.html","","","","","","","","","","","","","","","","","","","","",""
"","","","","","","","","","","","fullscreen","2","2.0.0","9451","652abcf9a639f4cb5c294233","1","34","2565","","true","","","","","","","","","","","","","","","","","","","",""
"","","","","","","","","","","","call-function","3","2.0.0","9455","652abcf9a639f4cb5c294233","1","34","","","","{}","","","","","","","","","","","","","","","","","","",""
"","","","","","","","","","","","preload","4","2.0.0","11926","652abcf9a639f4cb5c294233","1","34","","","true","","false","[]","[]","[]","","","","","","","","","","","","","","",""
"","","","","","","","","","","","instructions","5","2.0.0","44658","652abcf9a639f4cb5c294233","1","34","32731","","","","","","","","[{""page_index"":0,""viewing_time"":4263},{""page_index"":1,""viewing_time"":22672},{""page_index"":2,""viewing_time"":5796}]","","","","","","","","","","","","","",""
"","","","","","","","","","","","html-button-response","6","2.0.0","46896","652abcf9a639f4cb5c294233","1","34","2236","","","","","","","","","","0","start_test","","","","","","","","","","",""
"","","","","","","","","","","","html-button-response","7","2.0.0","55964","652abcf9a639f4cb5c294233","1","34","9066","","","","","","","","","<img src= ""rock_img/I_Pegmatite_16.jpg"" style=""width:8cm; height:5.8cm;""><p>What type of rock is this?</p>","4","class_response","0","test","1","Obsidian","Pegmatite","16","false","5","6","",""
"","","","","","","","","","","","html-keyboard-response","8","2.0.0","56477","652abcf9a639f4cb5c294233","1","34","null","","","","","","","","","<p style='font-size: 30px;'><strong>Okay</strong></p>","null","neutral_feedback","0","test","1","","","","","","","",""
"","","","","","","","","","","","html-button-response","9","2.0.0","65198","652abcf9a639f4cb5c294233","1","34","8719","","","","","","","","","<img src= ""rock_img/I_Diorite_14.jpg"" style=""width:8cm; height:5.71cm;""><p>What type of rock is this?</p>","1","class_response","0","test","2","Basalt","Diorite","14","false","2","3","",""
"","","","","","","","","","","","html-keyboard-response","10","2.0.0","65713","652abcf9a639f4cb5c294233","1","34","null","","","","","","","","","<p style='font-size: 30px;'><strong>Okay</strong></p>","null","neutral_feedback","0","test","2","","","","","","","",""
"","","","","","","","","","","","html-button-response","11","2.0.0","70772","652abcf9a639f4cb5c294233","1","34","5057","","","","","","","","","<img src= ""rock_img/I_Gabbro_16.jpg"" style=""width:8cm; height:6.44cm;""><p>What type of rock is this?</p>","6","class_response","0","test","3","Peridotite","Gabbro","16","false","7","4","",""
"","","","","","","","","","","","html-keyboard-response","12","2.0.0","71288","652abcf9a639f4cb5c294233","1","34","null","","","","","","","","","<p style='font-size: 30px;'><strong>Okay</strong></p>","null","neutral_feedback","0","test","3","","","","","","","",""
"","","","","","","","","","","","html-button-response","13","2.0.0","73372","652abcf9a639f4cb5c294233","1","34","2082","","","","","","","","","<img src= ""rock_img/I_Basalt_05.jpg"" style=""width:8cm; height:8.18cm;""><p>What type of rock is this?</p>","4","class_response","0","test","4","Obsidian","Basalt","05","false","5","2","",""
"","","","","","","","","","","","html-keyboard-response","14","2.0.0","73881","652abcf9a639f4cb5c294233","1","34","null","","","","","","","","","<p style='font-size: 30px;'><strong>Okay</strong></p>","null","neutral_feedback","0","test","4","","","","","","","",""
"","","","","","","","","","","","html-button-response","15","2.0.0","77372","652abcf9a639f4cb5c294233","1","34","3489","","","","","","","","","<img src= ""rock_img/I_Peridotite_08.jpg"" style=""width:8cm; height:6.7cm;""><p>What type of rock is this?</p>","7","class_response","0","test","5","Pumice","Peridotite","08","false","8","7","",""
"","","","","","","","","","","","html-keyboard-response","16","2.0.0","77888","652abcf9a639f4cb5c294233","1","34","null","","","","","","","","","<p style='font-size: 30px;'><strong>Okay</strong></p>","null","neutral_feedback","0","test","5","","","","","","","",""
"","","","","","","","","","","","html-button-response","17","2.0.0","78876","652abcf9a639f4cb5c294233","1","34","986","","","","","","","","","<img src= ""rock_img/I_Pumice_10.jpg"" style=""width:8cm; height:7.609999999999999cm;""><p>What type of rock is this?</p>","7","class_response","0","test","6","Pumice","Pumice","10","true","8","8","",""
"","","","","","","","","","","","html-keyboard-response","18","2.0.0","79377","652abcf9a639f4cb5c294233","1","34","null","","","","","","","","","<p style='font-size: 30px;'><strong>Okay</strong></p>","null","neutral_feedback","0","test","6","","","","","","","",""
"","","","","","","","","","","","html-button-response","19","2.0.0","82846","652abcf9a639f4cb5c294233","1","34","3467","","","","","","","","","<img src= ""rock_img/I_Obsidian_16.jpg"" style=""width:8cm; height:9.3cm;""><p>What type of rock is this?</p>","4","class_response","0","test","7","Obsidian","Obsidian","16","true","5","5","",""
"","","","","","","","","","","","html-keyboard-response","20","2.0.0","83349","652abcf9a639f4cb5c294233","1","34","null","","","","","","","","","<p style='font-size: 30px;'><strong>Okay</strong></p>","null","neutral_feedback","0","test","7","","","","","","","",""
"","","","","","","","","","","","html-button-response","21","2.0.0","85296","652abcf9a639f4cb5c294233","1","34","1945","","","","","","","","","<img src= ""rock_img/I_Basalt_14.jpg"" style=""width:8cm; height:5.82cm;""><p>What type of rock is this?</p>","6","class_response","0","test","8","Peridotite","Basalt","14","false","7","2","",""
"","","","","","","","","","","","html-keyboard-response","22","2.0.0","85808","652abcf9a639f4cb5c294233","1","34","null","","","","","","","","","<p style='font-size: 30px;'><strong>Okay</strong></p>","null","neutral_feedback","0","test","8","","","","","","","",""
"","","","","","","","","","","","html-button-response","23","2.0.0","88146","652abcf9a639f4cb5c294233","1","34","2336","","","","","","","","","<img src= ""rock_img/I_Pegmatite_12.jpg"" style=""width:8cm; height:5.7cm;""><p>What type of rock is this?</p>","2","class_response","0","test","9","Diorite","Pegmatite","12","false","3","6","",""
"","","","","","","","","","","","html-keyboard-response","24","2.0.0","88650","652abcf9a639f4cb5c294233","1","34","null","","","","","","","","","<p style='font-size: 30px;'><strong>Okay</strong></p>","null","neutral_feedback","0","test","9","","","","","","","",""
"","","","","","","","","","","","html-button-response","25","2.0.0","90770","652abcf9a639f4cb5c294233","1","34","2118","","","","","","","","","<img src= ""rock_img/I_Peridotite_14.jpg"" style=""width:8cm; height:5.3cm;""><p>What type of rock is this?</p>","0","class_response","0","test","10","Andesite","Peridotite","14","false","1","7","",""
"","","","","","","","","","","","html-keyboard-response","26","2.0.0","91279","652abcf9a639f4cb5c294233","1","34","null","","","","","","","","","<p style='font-size: 30px;'><strong>Okay</strong></p>","null","neutral_feedback","0","test","10","","","","","","","",""
"","","","","","","","","","","","html-button-response","27","2.0.0","94708","652abcf9a639f4cb5c294233","1","34","3427","","","","","","","","","<img src= ""rock_img/I_Andesite_03.jpg"" style=""width:8cm; height:5.73cm;""><p>What type of rock is this?</p>","6","class_response","0","test","11","Peridotite","Andesite","03","false","7","1","",""
"","","","","","","","","","","","html-keyboard-response","28","2.0.0","95212","652abcf9a639f4cb5c294233","1","34","null","","","","","","","","","<p style='font-size: 30px;'><strong>Okay</strong></p>","null","neutral_feedback","0","test","11","","","","","","","",""
"","","","","","","","","","","","html-button-response","29","2.0.0","98144","652abcf9a639f4cb5c294233","1","34","2930","","","","","","","","","<img src= ""rock_img/I_Basalt_08.jpg"" style=""width:8cm; height:10.44cm;""><p>What type of rock is this?</p>","7","class_response","0","test","12","Pumice","Basalt","08","false","8","2","",""
"","","","","","","","","","","","html-keyboard-response","30","2.0.0","98645","652abcf9a639f4cb5c294233","1","34","null","","","","","","","","","<p style='font-size: 30px;'><strong>Okay</strong></p>","null","neutral_feedback","0","test","12","","","","","","","",""
"","","","","","","","","","","","html-button-response","31","2.0.0","100266","652abcf9a639f4cb5c294233","1","34","1618","","","","","","","","","<img src= ""rock_img/I_Basalt_01.jpg"" style=""width:8cm; height:7.880000000000001cm;""><p>What type of rock is this?</p>","3","class_response","0","test","13","Gabbro","Basalt","01","false","4","2","",""
"","","","","","","","","","","","html-keyboard-response","32","2.0.0","100780","652abcf9a639f4cb5c294233","1","34","null","","","","","","","","","<p style='font-size: 30px;'><strong>Okay</strong></p>","null","neutral_feedback","0","test","13","","","","","","","",""
"","","","","","","","","","","","html-button-response","33","2.0.0","102366","652abcf9a639f4cb5c294233","1","34","1584","","","","","","","","","<img src= ""rock_img/I_Gabbro_15.jpg"" style=""width:8cm; height:6.29cm;""><p>What type of rock is this?</p>","5","class_response","0","test","14","Pegmatite","Gabbro","15","false","6","4","",""
"","","","","","","","","","","","html-keyboard-response","34","2.0.0","102870","652abcf9a639f4cb5c294233","1","34","null","","","","","","","","","<p style='font-size: 30px;'><strong>Okay</strong></p>","null","neutral_feedback","0","test","14","","","","","","","",""
"","","","","","","","","","","","html-button-response","35","2.0.0","105128","652abcf9a639f4cb5c294233","1","34","2256","","","","","","","","","<img src= ""rock_img/I_Peridotite_04.jpg"" style=""width:8cm; height:6.680000000000001cm;""><p>What type of rock is this?</p>","6","class_response","0","test","15","Peridotite","Peridotite","04","true","7","7","",""
"","","","","","","","","","","","html-keyboard-response","36","2.0.0","105643","652abcf9a639f4cb5c294233","1","34","null","","","","","","","","","<p style='font-size: 30px;'><strong>Okay</strong></p>","null","neutral_feedback","0","test","15","","","","","","","",""
"","","","","","","","","","","","html-button-response","37","2.0.0","107000","652abcf9a639f4cb5c294233","1","34","1355","","","","","","","","","<img src= ""rock_img/I_Andesite_05.jpg"" style=""width:8cm; height:4.12cm;""><p>What type of rock is this?</p>","1","class_response","0","test","16","Basalt","Andesite","05","false","2","1","",""
"","","","","","","","","","","","html-keyboard-response","38","2.0.0","107503","652abcf9a639f4cb5c294233","1","34","null","","","","","","","","","<p style='font-size: 30px;'><strong>Okay</strong></p>","null","neutral_feedback","0","test","16","","","","","","","",""
"","","","","","","","","","","","html-button-response","39","2.0.0","109130","652abcf9a639f4cb5c294233","1","34","1625","","","","","","","","","<img src= ""rock_img/I_Pegmatite_13.jpg"" style=""width:8cm; height:4.95cm;""><p>What type of rock is this?</p>","2","class_response","0","test","17","Diorite","Pegmatite","13","false","3","6","",""
"","","","","","","","","","","","html-keyboard-response","40","2.0.0","109637","652abcf9a639f4cb5c294233","1","34","null","","","","","","","","","<p style='font-size: 30px;'><strong>Okay</strong></p>","null","neutral_feedback","0","test","17","","","","","","","",""
"","","","","","","","","","","","html-button-response","41","2.0.0","110930","652abcf9a639f4cb5c294233","1","34","1291","","","","","","","","","<img src= ""rock_img/I_Andesite_09.jpg"" style=""width:8cm; height:6cm;""><p>What type of rock is this?</p>","3","class_response","0","test","18","Gabbro","Andesite","09","false","4","1","",""
"","","","","","","","","","","","html-keyboard-response","42","2.0.0","111440","652abcf9a639f4cb5c294233","1","34","null","","","","","","","","","<p style='font-size: 30px;'><strong>Okay</strong></p>","null","neutral_feedback","0","test","18","","","","","","","",""
"","","","","","","","","","","","html-button-response","43","2.0.0","113210","652abcf9a639f4cb5c294233","1","34","1768","","","","","","","","","<img src= ""rock_img/I_Andesite_01.jpg"" style=""width:8cm; height:5.87cm;""><p>What type of rock is this?</p>","7","class_response","0","test","19","Pumice","Andesite","01","false","8","1","",""
"","","","","","","","","","","","html-keyboard-response","44","2.0.0","113725","652abcf9a639f4cb5c294233","1","34","null","","","","","","","","","<p style='font-size: 30px;'><strong>Okay</strong></p>","null","neutral_feedback","0","test","19","","","","","","","",""
"","","","","","","","","","","","html-button-response","45","2.0.0","115394","652abcf9a639f4cb5c294233","1","34","1666","","","","","","","","","<img src= ""rock_img/I_Diorite_12.jpg"" style=""width:8cm; height:4.88cm;""><p>What type of rock is this?</p>","1","class_response","0","test","20","Basalt","Diorite","12","false","2","3","",""
"","","","","","","","","","","","html-keyboard-response","46","2.0.0","115901","652abcf9a639f4cb5c294233","1","34","null","","","","","","","","","<p style='font-size: 30px;'><strong>Okay</strong></p>","null","neutral_feedback","0","test","20","","","","","","","",""
"","","","","","","","","","","","html-button-response","47","2.0.0","117516","652abcf9a639f4cb5c294233","1","34","1613","","","","","","","","","<img src= ""rock_img/I_Pumice_06.jpg"" style=""width:8cm; height:6.9399999999999995cm;""><p>What type of rock is this?</p>","7","class_response","0","test","21","Pumice","Pumice","06","true","8","8","",""
"","","","","","","","","","","","html-keyboard-response","48","2.0.0","118021","652abcf9a639f4cb5c294233","1","34","null","","","","","","","","","<p style='font-size: 30px;'><strong>Okay</strong></p>","null","neutral_feedback","0","test","21","","","","","","","",""
"","","","","","","","","","","","html-button-response","49","2.0.0","119362","652abcf9a639f4cb5c294233","1","34","1339","","","","","","","","","<img src= ""rock_img/I_Basalt_06.jpg"" style=""width:8cm; height:7.06cm;""><p>What type of rock is this?</p>","4","class_response","0","test","22","Obsidian","Basalt","06","false","5","2","",""
"","","","","","","","","","","","html-keyboard-response","50","2.0.0","119864","652abcf9a639f4cb5c294233","1","34","null","","","","","","","","","<p style='font-size: 30px;'><strong>Okay</strong></p>","null","neutral_feedback","0","test","22","","","","","","","",""
"","","","","","","","","","","","html-button-response","51","2.0.0","121500","652abcf9a639f4cb5c294233","1","34","1634","","","","","","","","","<img src= ""rock_img/I_Gabbro_12.jpg"" style=""width:8cm; height:7.800000000000001cm;""><p>What type of rock is this?</p>","6","class_response","0","test","23","Peridotite","Gabbro","12","false","7","4","",""
"","","","","","","","","","","","html-keyboard-response","52","2.0.0","122006","652abcf9a639f4cb5c294233","1","34","null","","","","","","","","","<p style='font-size: 30px;'><strong>Okay</strong></p>","null","neutral_feedback","0","test","23","","","","","","","",""
"","","","","","","","","","","","html-button-response","53","2.0.0","123082","652abcf9a639f4cb5c294233","1","34","1074","","","","","","","","","<img src= ""rock_img/I_Gabbro_08.jpg"" style=""width:8cm; height:5.15cm;""><p>What type of rock is this?</p>","5","class_response","0","test","24","Pegmatite","Gabbro","08","false","6","4","",""
"","","","","","","","","","","","html-keyboard-response","54","2.0.0","123592","652abcf9a639f4cb5c294233","1","34","null","","","","","","","","","<p style='font-size: 30px;'><strong>Okay</strong></p>","null","neutral_feedback","0","test","24","","","","","","","",""
"","","","","","","","","","","","html-button-response","55","2.0.0","124616","652abcf9a639f4cb5c294233","1","34","1022","","","","","","","","","<img src= ""rock_img/I_Pegmatite_09.jpg"" style=""width:8cm; height:4.03cm;""><p>What type of rock is this?</p>","0","class_response","0","test","25","Andesite","Pegmatite","09","false","1","6","",""
"","","","","","","","","","","","html-keyboard-response","56","2.0.0","125117","652abcf9a639f4cb5c294233","1","34","null","","","","","","","","","<p style='font-size: 30px;'><strong>Okay</strong></p>","null","neutral_feedback","0","test","25","","","","","","","",""
"","","","","","","","","","","","html-button-response","57","2.0.0","125988","652abcf9a639f4cb5c294233","1","34","869","","","","","","","","","<img src= ""rock_img/I_Pegmatite_06.jpg"" style=""width:8cm; height:5.17cm;""><p>What type of rock is this?</p>","1","class_response","0","test","26","Basalt","Pegmatite","06","false","2","6","",""
"","","","","","","","","","","","html-keyboard-response","58","2.0.0","126490","652abcf9a639f4cb5c294233","1","34","null","","","","","","","","","<p style='font-size: 30px;'><strong>Okay</strong></p>","null","neutral_feedback","0","test","26","","","","","","","",""
"","","","","","","","","","","","html-button-response","59","2.0.0","127766","652abcf9a639f4cb5c294233","1","34","1274","","","","","","","","","<img src= ""rock_img/I_Basalt_12.jpg"" style=""width:8cm; height:6.010000000000001cm;""><p>What type of rock is this?</p>","7","class_response","0","test","27","Pumice","Basalt","12","false","8","2","",""
"","","","","","","","","","","","html-keyboard-response","60","2.0.0","128275","652abcf9a639f4cb5c294233","1","34","null","","","","","","","","","<p style='font-size: 30px;'><strong>Okay</strong></p>","null","neutral_feedback","0","test","27","","","","","","","",""
"","","","","","","","","","","","html-button-response","61","2.0.0","129448","652abcf9a639f4cb5c294233","1","34","1171","","","","","","","","","<img src= ""rock_img/I_Pegmatite_11.jpg"" style=""width:8cm; height:8.14cm;""><p>What type of rock is this?</p>","3","class_response","0","test","28","Gabbro","Pegmatite","11","false","4","6","",""
"","","","","","","","","","","","html-keyboard-response","62","2.0.0","129953","652abcf9a639f4cb5c294233","1","34","null","","","","","","","","","<p style='font-size: 30px;'><strong>Okay</strong></p>","null","neutral_feedback","0","test","28","","","","","","","",""
"","","","","","","","","","","","html-button-response","63","2.0.0","131210","652abcf9a639f4cb5c294233","1","34","1254","","","","","","","","","<img src= ""rock_img/I_Diorite_08.jpg"" style=""width:8cm; height:6.37cm;""><p>What type of rock is this?</p>","2","class_response","0","test","29","Diorite","Diorite","08","true","3","3","",""
"","","","","","","","","","","","html-keyboard-response","64","2.0.0","131719","652abcf9a639f4cb5c294233","1","34","null","","","","","","","","","<p style='font-size: 30px;'><strong>Okay</strong></p>","null","neutral_feedback","0","test","29","","","","","","","",""
"","","","","","","","","","","","html-button-response","65","2.0.0","133566","652abcf9a639f4cb5c294233","1","34","1845","","","","","","","","","<img src= ""rock_img/I_Pumice_09.jpg"" style=""width:8cm; height:6.44cm;""><p>What type of rock is this?</p>","7","class_response","0","test","30","Pumice","Pumice","09","true","8","8","",""
"","","","","","","","","","","","html-keyboard-response","66","2.0.0","134068","652abcf9a639f4cb5c294233","1","34","null","","","","","","","","","<p style='font-size: 30px;'><strong>Okay</strong></p>","null","neutral_feedback","0","test","30","","","","","","","",""
"","","","","","","","","","","","html-button-response","67","2.0.0","135468","652abcf9a639f4cb5c294233","1","34","1398","","","","","","","","","<img src= ""rock_img/I_Pumice_15.jpg"" style=""width:8cm; height:7.86cm;""><p>What type of rock is this?</p>","7","class_response","0","test","31","Pumice","Pumice","15","true","8","8","",""
"","","","","","","","","","","","html-keyboard-response","68","2.0.0","135979","652abcf9a639f4cb5c294233","1","34","null","","","","","","","","","<p style='font-size: 30px;'><strong>Okay</strong></p>","null","neutral_feedback","0","test","31","","","","","","","",""
"","","","","","","","","","","","html-button-response","69","2.0.0","137262","652abcf9a639f4cb5c294233","1","34","1281","","","","","","","","","<img src= ""rock_img/I_Obsidian_05.jpg"" style=""width:8cm; height:6.33cm;""><p>What type of rock is this?</p>","4","class_response","0","test","32","Obsidian","Obsidian","05","true","5","5","",""
"","","","","","","","","","","","html-keyboard-response","70","2.0.0","137763","652abcf9a639f4cb5c294233","1","34","null","","","","","","","","","<p style='font-size: 30px;'><strong>Okay</strong></p>","null","neutral_feedback","0","test","32","","","","","","","",""
"","","","","","","","","","","","html-button-response","71","2.0.0","139312","652abcf9a639f4cb5c294233","1","34","1547","","","","","","","","","<img src= ""rock_img/I_Peridotite_12.jpg"" style=""width:8cm; height:4.54cm;""><p>What type of rock is this?</p>","6","class_response","0","test","33","Peridotite","Peridotite","12","true","7","7","",""
"","","","","","","","","","","","html-keyboard-response","72","2.0.0","139814","652abcf9a639f4cb5c294233","1","34","null","","","","","","","","","<p style='font-size: 30px;'><strong>Okay</strong></p>","null","neutral_feedback","0","test","33","","","","","","","",""
"","","","","","","","","","","","html-button-response","73","2.0.0","141216","652abcf9a639f4cb5c294233","1","34","1399","","","","","","","","","<img src= ""rock_img/I_Diorite_09.jpg"" style=""width:8cm; height:5.27cm;""><p>What type of rock is this?</p>","2","class_response","0","test","34","Diorite","Diorite","09","true","3","3","",""
"","","","","","","","","","","","html-keyboard-response","74","2.0.0","141723","652abcf9a639f4cb5c294233","1","34","null","","","","","","","","","<p style='font-size: 30px;'><strong>Okay</strong></p>","null","neutral_feedback","0","test","34","","","","","","","",""
"","","","","","","","","","","","html-button-response","75","2.0.0","143250","652abcf9a639f4cb5c294233","1","34","1525","","","","","","","","","<img src= ""rock_img/I_Pumice_03.jpg"" style=""width:8cm; height:6.64cm;""><p>What type of rock is this?</p>","7","class_response","0","test","35","Pumice","Pumice","03","true","8","8","",""
"","","","","","","","","","","","html-keyboard-response","76","2.0.0","143759","652abcf9a639f4cb5c294233","1","34","null","","","","","","","","","<p style='font-size: 30px;'><strong>Okay</strong></p>","null","neutral_feedback","0","test","35","","","","","","","",""
"","","","","","","","","","","","html-button-response","77","2.0.0","145036","652abcf9a639f4cb5c294233","1","34","1274","","","","","","","","","<img src= ""rock_img/I_Pumice_05.jpg"" style=""width:8cm; height:7.25cm;""><p>What type of rock is this?</p>","7","class_response","0","test","36","Pumice","Pumice","05","true","8","8","",""
"","","","","","","","","","","","html-keyboard-response","78","2.0.0","145541","652abcf9a639f4cb5c294233","1","34","null","","","","","","","","","<p style='font-size: 30px;'><strong>Okay</strong></p>","null","neutral_feedback","0","test","36","","","","","","","",""
"","","","","","","","","","","","html-button-response","79","2.0.0","146720","652abcf9a639f4cb5c294233","1","34","1177","","","","","","","","","<img src= ""rock_img/I_Gabbro_05.jpg"" style=""width:8cm; height:6cm;""><p>What type of rock is this?</p>","3","class_response","0","test","37","Gabbro","Gabbro","05","true","4","4","",""
"","","","","","","","","","","","html-keyboard-response","80","2.0.0","147222","652abcf9a639f4cb5c294233","1","34","null","","","","","","","","","<p style='font-size: 30px;'><strong>Okay</strong></p>","null","neutral_feedback","0","test","37","","","","","","","",""
"","","","","","","","","","","","html-button-response","81","2.0.0","148638","652abcf9a639f4cb5c294233","1","34","1414","","","","","","","","","<img src= ""rock_img/I_Peridotite_13.jpg"" style=""width:8cm; height:7.58cm;""><p>What type of rock is this?</p>","6","class_response","0","test","38","Peridotite","Peridotite","13","true","7","7","",""
"","","","","","","","","","","","html-keyboard-response","82","2.0.0","149144","652abcf9a639f4cb5c294233","1","34","null","","","","","","","","","<p style='font-size: 30px;'><strong>Okay</strong></p>","null","neutral_feedback","0","test","38","","","","","","","",""
"","","","","","","","","","","","html-button-response","83","2.0.0","150351","652abcf9a639f4cb5c294233","1","34","1205","","","","","","","","","<img src= ""rock_img/I_Diorite_10.jpg"" style=""width:8cm; height:5.949999999999999cm;""><p>What type of rock is this?</p>","2","class_response","0","test","39","Diorite","Diorite","10","true","3","3","",""
"","","","","","","","","","","","html-keyboard-response","84","2.0.0","150854","652abcf9a639f4cb5c294233","1","34","null","","","","","","","","","<p style='font-size: 30px;'><strong>Okay</strong></p>","null","neutral_feedback","0","test","39","","","","","","","",""
"","","","","","","","","","","","html-button-response","85","2.0.0","152154","652abcf9a639f4cb5c294233","1","34","1298","","","","","","","","","<img src= ""rock_img/I_Obsidian_10.jpg"" style=""width:8cm; height:6.260000000000001cm;""><p>What type of rock is this?</p>","4","class_response","0","test","40","Obsidian","Obsidian","10","true","5","5","",""
"","","","","","","","","","","","html-keyboard-response","86","2.0.0","152656","652abcf9a639f4cb5c294233","1","34","null","","","","","","","","","<p style='font-size: 30px;'><strong>Okay</strong></p>","null","neutral_feedback","0","test","40","","","","","","","",""
"","","","","","","","","","","","html-button-response","87","2.0.0","153781","652abcf9a639f4cb5c294233","1","34","1124","","","","","","","","","<img src= ""rock_img/I_Diorite_11.jpg"" style=""width:8cm; height:7.11cm;""><p>What type of rock is this?</p>","1","class_response","0","test","41","Basalt","Diorite","11","false","2","3","",""
"","","","","","","","","","","","html-keyboard-response","88","2.0.0","154284","652abcf9a639f4cb5c294233","1","34","null","","","","","","","","","<p style='font-size: 30px;'><strong>Okay</strong></p>","null","neutral_feedback","0","test","41","","","","","","","",""
"","","","","","","","","","","","html-button-response","89","2.0.0","155300","652abcf9a639f4cb5c294233","1","34","1014","","","","","","","","","<img src= ""rock_img/I_Andesite_07.jpg"" style=""width:8cm; height:5.93cm;""><p>What type of rock is this?</p>","5","class_response","0","test","42","Pegmatite","Andesite","07","false","6","1","",""
"","","","","","","","","","","","html-keyboard-response","90","2.0.0","155815","652abcf9a639f4cb5c294233","1","34","null","","","","","","","","","<p style='font-size: 30px;'><strong>Okay</strong></p>","null","neutral_feedback","0","test","42","","","","","","","",""
"","","","","","","","","","","","html-button-response","91","2.0.0","157078","652abcf9a639f4cb5c294233","1","34","1260","","","","","","","","","<img src= ""rock_img/I_Obsidian_12.jpg"" style=""width:8cm; height:6.53cm;""><p>What type of rock is this?</p>","4","class_response","0","test","43","Obsidian","Obsidian","12","true","5","5","",""
"","","","","","","","","","","","html-keyboard-response","92","2.0.0","157592","652abcf9a639f4cb5c294233","1","34","null","","","","","","","","","<p style='font-size: 30px;'><strong>Okay</strong></p>","null","neutral_feedback","0","test","43","","","","","","","",""
"","","","","","","","","","","","html-button-response","93","2.0.0","158431","652abcf9a639f4cb5c294233","1","34","837","","","","","","","","","<img src= ""rock_img/I_Obsidian_04.jpg"" style=""width:8cm; height:6.930000000000001cm;""><p>What type of rock is this?</p>","4","class_response","0","test","44","Obsidian","Obsidian","04","true","5","5","",""
"","","","","","","","","","","","html-keyboard-response","94","2.0.0","158947","652abcf9a639f4cb5c294233","1","34","null","","","","","","","","","<p style='font-size: 30px;'><strong>Okay</strong></p>","null","neutral_feedback","0","test","44","","","","","","","",""
"","","","","","","","","","","","html-button-response","95","2.0.0","160389","652abcf9a639f4cb5c294233","1","34","1441","","","","","","","","","<img src= ""rock_img/I_Peridotite_07.jpg"" style=""width:8cm; height:4.83cm;""><p>What type of rock is this?</p>","0","class_response","0","test","45","Andesite","Peridotite","07","false","1","7","",""
"","","","","","","","","","","","html-keyboard-response","96","2.0.0","160902","652abcf9a639f4cb5c294233","1","34","null","","","","","","","","","<p style='font-size: 30px;'><strong>Okay</strong></p>","null","neutral_feedback","0","test","45","","","","","","","",""
"","","","","","","","","","","","html-button-response","97","2.0.0","161862","652abcf9a639f4cb5c294233","1","34","957","","","","","","","","","<img src= ""rock_img/I_Andesite_10.jpg"" style=""width:8cm; height:4.16cm;""><p>What type of rock is this?</p>","1","class_response","0","test","46","Basalt","Andesite","10","false","2","1","",""
"","","","","","","","","","","","html-keyboard-response","98","2.0.0","162367","652abcf9a639f4cb5c294233","1","34","null","","","","","","","","","<p style='font-size: 30px;'><strong>Okay</strong></p>","null","neutral_feedback","0","test","46","","","","","","","",""
"","","","","","","","","","","","html-button-response","99","2.0.0","163748","652abcf9a639f4cb5c294233","1","34","1378","","","","","","","","","<img src= ""rock_img/I_Gabbro_09.jpg"" style=""width:8cm; height:7.279999999999999cm;""><p>What type of rock is this?</p>","2","class_response","0","test","47","Diorite","Gabbro","09","false","3","4","",""
"","","","","","","","","","","","html-keyboard-response","100","2.0.0","164250","652abcf9a639f4cb5c294233","1","34","null","","","","","","","","","<p style='font-size: 30px;'><strong>Okay</strong></p>","null","neutral_feedback","0","test","47","","","","","","","",""
"","","","","","","","","","","","html-button-response","101","2.0.0","165652","652abcf9a639f4cb5c294233","1","34","1399","","","","","","","","","<img src= ""rock_img/I_Obsidian_07.jpg"" style=""width:8cm; height:4.76cm;""><p>What type of rock is this?</p>","3","class_response","0","test","48","Gabbro","Obsidian","07","false","4","5","",""
"","","","","","","","","","","","html-keyboard-response","102","2.0.0","166153","652abcf9a639f4cb5c294233","1","34","null","","","","","","","","","<p style='font-size: 30px;'><strong>Okay</strong></p>","null","neutral_feedback","0","test","48","","","","","","","",""
"","","","","","","","","","","","instructions","103","2.0.0","181913","652abcf9a639f4cb5c294233","1","34","15721","","","","","","","","[{""page_index"":0,""viewing_time"":10843},{""page_index"":1,""viewing_time"":2490},{""page_index"":2,""viewing_time"":2388}]","","","","","","","","","","","","","",""
"","","","","","","","","","","","html-button-response","104","2.0.0","184151","652abcf9a639f4cb5c294233","1","34","2237","","","","","","","","","","0","start_train","","","","","","","","","","",""
"","","","","","","","","","","","html-button-response","105","2.0.0","186008","652abcf9a639f4cb5c294233","1","34","1854","","","","","","","","","<img src= ""rock_img/I_Obsidian_09.jpg"" style=""width:8cm; height:5cm;""><p>What type of rock is this?</p>","4","class_response","1","train","1","Obsidian","Obsidian","09","true","5","5","",""
"","","","","","","","","","","","html-button-response","106","2.0.0","187997","652abcf9a639f4cb5c294233","1","34","1988","","","","","","","","","<img src= rock_img/I_Obsidian_09.jpg style=""width:8cm; height:5cm;""><p style='font-size: 30px; color: green;'><strong>Correct!</strong></p><p style='font-size: 30px;'><strong>This rock is obsidian</strong></p>","0","corr_feedback","1","train","1","","","","","","","",""
"","","","","","","","","","","","html-button-response","107","2.0.0","189249","652abcf9a639f4cb5c294233","1","34","1251","","","","","","","","","<img src= ""rock_img/I_Obsidian_11.jpg"" style=""width:8cm; height:6.05cm;""><p>What type of rock is this?</p>","4","class_response","1","train","2","Obsidian","Obsidian","11","true","5","5","",""
"","","","","","","","","","","","html-button-response","108","2.0.0","190517","652abcf9a639f4cb5c294233","1","34","1267","","","","","","","","","<img src= rock_img/I_Obsidian_11.jpg style=""width:8cm; height:6.05cm;""><p style='font-size: 30px; color: green;'><strong>Correct!</strong></p><p style='font-size: 30px;'><strong>This rock is obsidian</strong></p>","0","corr_feedback","1","train","2","","","","","","","",""
"","","","","","","","","","","","html-button-response","109","2.0.0","192811","652abcf9a639f4cb5c294233","1","34","2293","","","","","","","","","<img src= ""rock_img/I_Pumice_16.jpg"" style=""width:8cm; height:6.79cm;""><p>What type of rock is this?</p>","7","class_response","1","train","3","Pumice","Pumice","16","true","8","8","",""
"","","","","","","","","","","","html-button-response","110","2.0.0","194299","652abcf9a639f4cb5c294233","1","34","1487","","","","","","","","","<img src= rock_img/I_Pumice_16.jpg style=""width:8cm; height:6.79cm;""><p style='font-size: 30px; color: green;'><strong>Correct!</strong></p><p style='font-size: 30px;'><strong>This rock is pumice</strong></p>","0","corr_feedback","1","train","3","","","","","","","",""
"","","","","","","","","","","","html-button-response","111","2.0.0","201151","652abcf9a639f4cb5c294233","1","34","6851","","","","","","","","","<img src= ""rock_img/I_Peridotite_16.jpg"" style=""width:8cm; height:6.989999999999999cm;""><p>What type of rock is this?</p>","0","class_response","1","train","4","Andesite","Peridotite","16","false","1","7","",""
"","","","","","","","","","","","html-button-response","112","2.0.0","207109","652abcf9a639f4cb5c294233","1","34","5957","","","","","","","","","<img src= rock_img/I_Peridotite_16.jpg style=""width:8cm; height:6.989999999999999cm;""><p style='font-size: 30px; color: red;'><strong>Incorrect!</strong></p><p style='font-size: 30px;'><strong>This rock is peridotite</strong></p>","0","corr_feedback","1","train","4","","","","","","","",""
"","","","","","","","","","","","html-button-response","113","2.0.0","208791","652abcf9a639f4cb5c294233","1","34","1681","","","","","","","","","<img src= ""rock_img/I_Pegmatite_08.jpg"" style=""width:8cm; height:7.68cm;""><p>What type of rock is this?</p>","2","class_response","1","train","5","Diorite","Pegmatite","08","false","3","6","",""
"","","","","","","","","","","","html-button-response","114","2.0.0","211587","652abcf9a639f4cb5c294233","1","34","2795","","","","","","","","","<img src= rock_img/I_Pegmatite_08.jpg style=""width:8cm; height:7.68cm;""><p style='font-size: 30px; color: red;'><strong>Incorrect!</strong></p><p style='font-size: 30px;'><strong>This rock is pegmatite</strong></p>","0","corr_feedback","1","train","5","","","","","","","",""
"","","","","","","","","","","","html-button-response","115","2.0.0","214343","652abcf9a639f4cb5c294233","1","34","2755","","","","","","","","","<img src= ""rock_img/I_Andesite_11.jpg"" style=""width:8cm; height:4.92cm;""><p>What type of rock is this?</p>","0","class_response","1","train","6","Andesite","Andesite","11","true","1","1","",""
"","","","","","","","","","","","html-button-response","116","2.0.0","219887","652abcf9a639f4cb5c294233","1","34","5542","","","","","","","","","<img src= rock_img/I_Andesite_11.jpg style=""width:8cm; height:4.92cm;""><p style='font-size: 30px; color: green;'><strong>Correct!</strong></p><p style='font-size: 30px;'><strong>This rock is andesite</strong></p>","0","corr_feedback","1","train","6","","","","","","","",""
"","","","","","","","","","","","html-button-response","117","2.0.0","221797","652abcf9a639f4cb5c294233","1","34","1909","","","","","","","","","<img src= ""rock_img/I_Basalt_16.jpg"" style=""width:8cm; height:7.659999999999999cm;""><p>What type of rock is this?</p>","1","class_response","1","train","7","Basalt","Basalt","16","true","2","2","",""
"","","","","","","","","","","","html-button-response","118","2.0.0","224155","652abcf9a639f4cb5c294233","1","34","2357","","","","","","","","","<img src= rock_img/I_Basalt_16.jpg style=""width:8cm; height:7.659999999999999cm;""><p style='font-size: 30px; color: green;'><strong>Correct!</strong></p><p style='font-size: 30px;'><strong>This rock is basalt</strong></p>","0","corr_feedback","1","train","7","","","","","","","",""
"","","","","","","","","","","","html-button-response","119","2.0.0","225939","652abcf9a639f4cb5c294233","1","34","1783","","","","","","","","","<img src= ""rock_img/I_Diorite_15.jpg"" style=""width:8cm; height:5.54cm;""><p>What type of rock is this?</p>","3","class_response","1","train","8","Gabbro","Diorite","15","false","4","3","",""
"","","","","","","","","","","","html-button-response","120","2.0.0","227983","652abcf9a639f4cb5c294233","1","34","2043","","","","","","","","","<img src= rock_img/I_Diorite_15.jpg style=""width:8cm; height:5.54cm;""><p style='font-size: 30px; color: red;'><strong>Incorrect!</strong></p><p style='font-size: 30px;'><strong>This rock is diorite</strong></p>","0","corr_feedback","1","train","8","","","","","","","",""
"","","","","","","","","","","","html-button-response","121","2.0.0","230347","652abcf9a639f4cb5c294233","1","34","2363","","","","","","","","","<img src= ""rock_img/I_Gabbro_14.jpg"" style=""width:8cm; height:8.48cm;""><p>What type of rock is this?</p>","3","class_response","1","train","9","Gabbro","Gabbro","14","true","4","4","",""
"","","","","","","","","","","","html-button-response","122","2.0.0","232069","652abcf9a639f4cb5c294233","1","34","1721","","","","","","","","","<img src= rock_img/I_Gabbro_14.jpg style=""width:8cm; height:8.48cm;""><p style='font-size: 30px; color: green;'><strong>Correct!</strong></p><p style='font-size: 30px;'><strong>This rock is gabbro</strong></p>","0","corr_feedback","1","train","9","","","","","","","",""
"","","","","","","","","","","","html-button-response","123","2.0.0","240055","652abcf9a639f4cb5c294233","1","34","7985","","","","","","","","","<img src= ""rock_img/I_Diorite_16.jpg"" style=""width:8cm; height:6.74cm;""><p>What type of rock is this?</p>","5","class_response","1","train","10","Pegmatite","Diorite","16","false","6","3","",""
"","","","","","","","","","","","html-button-response","124","2.0.0","241567","652abcf9a639f4cb5c294233","1","34","1511","","","","","","","","","<img src= rock_img/I_Diorite_16.jpg style=""width:8cm; height:6.74cm;""><p style='font-size: 30px; color: red;'><strong>Incorrect!</strong></p><p style='font-size: 30px;'><strong>This rock is diorite</strong></p>","0","corr_feedback","1","train","10","","","","","","","",""
"","","","","","","","","","","","html-button-response","125","2.0.0","244643","652abcf9a639f4cb5c294233","1","34","3075","","","","","","","","","<img src= ""rock_img/I_Peridotite_10.jpg"" style=""width:8cm; height:5.390000000000001cm;""><p>What type of rock is this?</p>","6","class_response","1","train","11","Peridotite","Peridotite","10","true","7","7","",""
"","","","","","","","","","","","html-button-response","126","2.0.0","246069","652abcf9a639f4cb5c294233","1","34","1425","","","","","","","","","<img src= rock_img/I_Peridotite_10.jpg style=""width:8cm; height:5.390000000000001cm;""><p style='font-size: 30px; color: green;'><strong>Correct!</strong></p><p style='font-size: 30px;'><strong>This rock is peridotite</strong></p>","0","corr_feedback","1","train","11","","","","","","","",""
"","","","","","","","","","","","html-button-response","127","2.0.0","250859","652abcf9a639f4cb5c294233","1","34","4789","","","","","","","","","<img src= ""rock_img/I_Peridotite_06.jpg"" style=""width:8cm; height:7.53cm;""><p>What type of rock is this?</p>","2","class_response","1","train","12","Diorite","Peridotite","06","false","3","7","",""
"","","","","","","","","","","","html-button-response","128","2.0.0","252793","652abcf9a639f4cb5c294233","1","34","1933","","","","","","","","","<img src= rock_img/I_Peridotite_06.jpg style=""width:8cm; height:7.53cm;""><p style='font-size: 30px; color: red;'><strong>Incorrect!</strong></p><p style='font-size: 30px;'><strong>This rock is peridotite</strong></p>","0","corr_feedback","1","train","12","","","","","","","",""
"","","","","","","","","","","","html-button-response","129","2.0.0","255433","652abcf9a639f4cb5c294233","1","34","2639","","","","","","","","","<img src= ""rock_img/I_Pumice_14.jpg"" style=""width:8cm; height:6.39cm;""><p>What type of rock is this?</p>","7","class_response","1","train","13","Pumice","Pumice","14","true","8","8","",""
"","","","","","","","","","","","html-button-response","130","2.0.0","256591","652abcf9a639f4cb5c294233","1","34","1156","","","","","","","","","<img src= rock_img/I_Pumice_14.jpg style=""width:8cm; height:6.39cm;""><p style='font-size: 30px; color: green;'><strong>Correct!</strong></p><p style='font-size: 30px;'><strong>This rock is pumice</strong></p>","0","corr_feedback","1","train","13","","","","","","","",""
"","","","","","","","","","","","html-button-response","131","2.0.0","257641","652abcf9a639f4cb5c294233","1","34","1049","","","","","","","","","<img src= ""rock_img/I_Pumice_04.jpg"" style=""width:8cm; height:6.819999999999999cm;""><p>What type of rock is this?</p>","7","class_response","1","train","14","Pumice","Pumice","04","true","8","8","",""
"","","","","","","","","","","","html-button-response","132","2.0.0","258563","652abcf9a639f4cb5c294233","1","34","921","","","","","","","","","<img src= rock_img/I_Pumice_04.jpg style=""width:8cm; height:6.819999999999999cm;""><p style='font-size: 30px; color: green;'><strong>Correct!</strong></p><p style='font-size: 30px;'><strong>This rock is pumice</strong></p>","0","corr_feedback","1","train","14","","","","","","","",""
"","","","","","","","","","","","html-button-response","133","2.0.0","260185","652abcf9a639f4cb5c294233","1","34","1621","","","","","","","","","<img src= ""rock_img/I_Diorite_06.jpg"" style=""width:8cm; height:6.03cm;""><p>What type of rock is this?</p>","2","class_response","1","train","15","Diorite","Diorite","06","true","3","3","",""
"","","","","","","","","","","","html-button-response","134","2.0.0","261241","652abcf9a639f4cb5c294233","1","34","1055","","","","","","","","","<img src= rock_img/I_Diorite_06.jpg style=""width:8cm; height:6.03cm;""><p style='font-size: 30px; color: green;'><strong>Correct!</strong></p><p style='font-size: 30px;'><strong>This rock is diorite</strong></p>","0","corr_feedback","1","train","15","","","","","","","",""
"","","","","","","","","","","","html-button-response","135","2.0.0","262353","652abcf9a639f4cb5c294233","1","34","1111","","","","","","","","","<img src= ""rock_img/I_Gabbro_03.jpg"" style=""width:8cm; height:8.52cm;""><p>What type of rock is this?</p>","2","class_response","1","train","16","Diorite","Gabbro","03","false","3","4","",""
"","","","","","","","","","","","html-button-response","136","2.0.0","264209","652abcf9a639f4cb5c294233","1","34","1855","","","","","","","","","<img src= rock_img/I_Gabbro_03.jpg style=""width:8cm; height:8.52cm;""><p style='font-size: 30px; color: red;'><strong>Incorrect!</strong></p><p style='font-size: 30px;'><strong>This rock is gabbro</strong></p>","0","corr_feedback","1","train","16","","","","","","","",""
"","","","","","","","","","","","html-button-response","137","2.0.0","267059","652abcf9a639f4cb5c294233","1","34","2849","","","","","","","","","<img src= ""rock_img/I_Andesite_14.jpg"" style=""width:8cm; height:5.449999999999999cm;""><p>What type of rock is this?</p>","0","class_response","1","train","17","Andesite","Andesite","14","true","1","1","",""
"","","","","","","","","","","","html-button-response","138","2.0.0","268607","652abcf9a639f4cb5c294233","1","34","1547","","","","","","","","","<img src= rock_img/I_Andesite_14.jpg style=""width:8cm; height:5.449999999999999cm;""><p style='font-size: 30px; color: green;'><strong>Correct!</strong></p><p style='font-size: 30px;'><strong>This rock is andesite</strong></p>","0","corr_feedback","1","train","17","","","","","","","",""
"","","","","","","","","","","","html-button-response","139","2.0.0","270065","652abcf9a639f4cb5c294233","1","34","1457","","","","","","","","","<img src= ""rock_img/I_Basalt_10.jpg"" style=""width:8cm; height:5.85cm;""><p>What type of rock is this?</p>","4","class_response","1","train","18","Obsidian","Basalt","10","false","5","2","",""
"","","","","","","","","","","","html-button-response","140","2.0.0","271357","652abcf9a639f4cb5c294233","1","34","1291","","","","","","","","","<img src= rock_img/I_Basalt_10.jpg style=""width:8cm; height:5.85cm;""><p style='font-size: 30px; color: red;'><strong>Incorrect!</strong></p><p style='font-size: 30px;'><strong>This rock is basalt</strong></p>","0","corr_feedback","1","train","18","","","","","","","",""
"","","","","","","","","","","","html-button-response","141","2.0.0","272773","652abcf9a639f4cb5c294233","1","34","1415","","","","","","","","","<img src= ""rock_img/I_Obsidian_02.jpg"" style=""width:8cm; height:7.51cm;""><p>What type of rock is this?</p>","4","class_response","1","train","19","Obsidian","Obsidian","02","true","5","5","",""
"","","","","","","","","","","","html-button-response","142","2.0.0","273729","652abcf9a639f4cb5c294233","1","34","954","","","","","","","","","<img src= rock_img/I_Obsidian_02.jpg style=""width:8cm; height:7.51cm;""><p style='font-size: 30px; color: green;'><strong>Correct!</strong></p><p style='font-size: 30px;'><strong>This rock is obsidian</strong></p>","0","corr_feedback","1","train","19","","","","","","","",""
"","","","","","","","","","","","html-button-response","143","2.0.0","282551","652abcf9a639f4cb5c294233","1","34","8821","","","","","","","","","<img src= ""rock_img/I_Basalt_11.jpg"" style=""width:8cm; height:5.359999999999999cm;""><p>What type of rock is this?</p>","7","class_response","1","train","20","Pumice","Basalt","11","false","8","2","",""
"","","","","","","","","","","","html-button-response","144","2.0.0","283695","652abcf9a639f4cb5c294233","1","34","1143","","","","","","","","","<img src= rock_img/I_Basalt_11.jpg style=""width:8cm; height:5.359999999999999cm;""><p style='font-size: 30px; color: red;'><strong>Incorrect!</strong></p><p style='font-size: 30px;'><strong>This rock is basalt</strong></p>","0","corr_feedback","1","train","20","","","","","","","",""
"","","","","","","","","","","","html-button-response","145","2.0.0","286371","652abcf9a639f4cb5c294233","1","34","2675","","","","","","","","","<img src= ""rock_img/I_Pegmatite_07.jpg"" style=""width:8cm; height:6.7cm;""><p>What type of rock is this?</p>","5","class_response","1","train","21","Pegmatite","Pegmatite","07","true","6","6","",""
"","","","","","","","","","","","html-button-response","146","2.0.0","287915","652abcf9a639f4cb5c294233","1","34","1543","","","","","","","","","<img src= rock_img/I_Pegmatite_07.jpg style=""width:8cm; height:6.7cm;""><p style='font-size: 30px; color: green;'><strong>Correct!</strong></p><p style='font-size: 30px;'><strong>This rock is pegmatite</strong></p>","0","corr_feedback","1","train","21","","","","","","","",""
"","","","","","","","","","","","html-button-response","147","2.0.0","294601","652abcf9a639f4cb5c294233","1","34","6685","","","","","","","","","<img src= ""rock_img/I_Gabbro_10.jpg"" style=""width:8cm; height:5.680000000000001cm;""><p>What type of rock is this?</p>","1","class_response","1","train","22","Basalt","Gabbro","10","false","2","4","",""
"","","","","","","","","","","","html-button-response","148","2.0.0","296189","652abcf9a639f4cb5c294233","1","34","1587","","","","","","","","","<img src= rock_img/I_Gabbro_10.jpg style=""width:8cm; height:5.680000000000001cm;""><p style='font-size: 30px; color: red;'><strong>Incorrect!</strong></p><p style='font-size: 30px;'><strong>This rock is gabbro</strong></p>","0","corr_feedback","1","train","22","","","","","","","",""
"","","","","","","","","","","","html-button-response","149","2.0.0","299477","652abcf9a639f4cb5c294233","1","34","3287","","","","","","","","","<img src= ""rock_img/I_Andesite_04.jpg"" style=""width:8cm; height:5.96cm;""><p>What type of rock is this?</p>","0","class_response","1","train","23","Andesite","Andesite","04","true","1","1","",""
"","","","","","","","","","","","html-button-response","150","2.0.0","300487","652abcf9a639f4cb5c294233","1","34","1009","","","","","","","","","<img src= rock_img/I_Andesite_04.jpg style=""width:8cm; height:5.96cm;""><p style='font-size: 30px; color: green;'><strong>Correct!</strong></p><p style='font-size: 30px;'><strong>This rock is andesite</strong></p>","0","corr_feedback","1","train","23","","","","","","","",""
"","","","","","","","","","","","html-button-response","151","2.0.0","301873","652abcf9a639f4cb5c294233","1","34","1385","","","","","","","","","<img src= ""rock_img/I_Obsidian_06.jpg"" style=""width:8cm; height:6.8cm;""><p>What type of rock is this?</p>","4","class_response","1","train","24","Obsidian","Obsidian","06","true","5","5","",""
"","","","","","","","","","","","html-button-response","152","2.0.0","302850","652abcf9a639f4cb5c294233","1","34","977","","","","","","","","","<img src= rock_img/I_Obsidian_06.jpg style=""width:8cm; height:6.8cm;""><p style='font-size: 30px; color: green;'><strong>Correct!</strong></p><p style='font-size: 30px;'><strong>This rock is obsidian</strong></p>","0","corr_feedback","1","train","24","","","","","","","",""
"","","","","","","","","","","","html-button-response","153","2.0.0","304371","652abcf9a639f4cb5c294233","1","34","1519","","","","","","","","","<img src= ""rock_img/I_Peridotite_02.jpg"" style=""width:8cm; height:5.859999999999999cm;""><p>What type of rock is this?</p>","6","class_response","1","train","25","Peridotite","Peridotite","02","true","7","7","",""
"","","","","","","","","","","","html-button-response","154","2.0.0","305348","652abcf9a639f4cb5c294233","1","34","977","","","","","","","","","<img src= rock_img/I_Peridotite_02.jpg style=""width:8cm; height:5.859999999999999cm;""><p style='font-size: 30px; color: green;'><strong>Correct!</strong></p><p style='font-size: 30px;'><strong>This rock is peridotite</strong></p>","0","corr_feedback","1","train","25","","","","","","","",""
"","","","","","","","","","","","html-button-response","155","2.0.0","306673","652abcf9a639f4cb5c294233","1","34","1323","","","","","","","","","<img src= ""rock_img/I_Diorite_02.jpg"" style=""width:8cm; height:6.27cm;""><p>What type of rock is this?</p>","2","class_response","1","train","26","Diorite","Diorite","02","true","3","3","",""
"","","","","","","","","","","","html-button-response","156","2.0.0","307524","652abcf9a639f4cb5c294233","1","34","851","","","","","","","","","<img src= rock_img/I_Diorite_02.jpg style=""width:8cm; height:6.27cm;""><p style='font-size: 30px; color: green;'><strong>Correct!</strong></p><p style='font-size: 30px;'><strong>This rock is diorite</strong></p>","0","corr_feedback","1","train","26","","","","","","","",""
"","","","","","","","","","","","html-button-response","157","2.0.0","309601","652abcf9a639f4cb5c294233","1","34","2075","","","","","","","","","<img src= ""rock_img/I_Pumice_13.jpg"" style=""width:8cm; height:8.200000000000001cm;""><p>What type of rock is this?</p>","3","class_response","1","train","27","Gabbro","Pumice","13","false","4","8","",""
"","","","","","","","","","","","html-button-response","158","2.0.0","310804","652abcf9a639f4cb5c294233","1","34","1203","","","","","","","","","<img src= rock_img/I_Pumice_13.jpg style=""width:8cm; height:8.200000000000001cm;""><p style='font-size: 30px; color: red;'><strong>Incorrect!</strong></p><p style='font-size: 30px;'><strong>This rock is pumice</strong></p>","0","corr_feedback","1","train","27","","","","","","","",""
"","","","","","","","","","","","html-button-response","159","2.0.0","314085","652abcf9a639f4cb5c294233","1","34","3279","","","","","","","","","<img src= ""rock_img/I_Gabbro_13.jpg"" style=""width:8cm; height:5.08cm;""><p>What type of rock is this?</p>","5","class_response","1","train","28","Pegmatite","Gabbro","13","false","6","4","",""
"","","","","","","","","","","","html-button-response","160","2.0.0","314978","652abcf9a639f4cb5c294233","1","34","893","","","","","","","","","<img src= rock_img/I_Gabbro_13.jpg style=""width:8cm; height:5.08cm;""><p style='font-size: 30px; color: red;'><strong>Incorrect!</strong></p><p style='font-size: 30px;'><strong>This rock is gabbro</strong></p>","0","corr_feedback","1","train","28","","","","","","","",""
"","","","","","","","","","","","html-button-response","161","2.0.0","316293","652abcf9a639f4cb5c294233","1","34","1313","","","","","","","","","<img src= ""rock_img/I_Pumice_08.jpg"" style=""width:8cm; height:6.67cm;""><p>What type of rock is this?</p>","7","class_response","1","train","29","Pumice","Pumice","08","true","8","8","",""
"","","","","","","","","","","","html-button-response","162","2.0.0","317264","652abcf9a639f4cb5c294233","1","34","971","","","","","","","","","<img src= rock_img/I_Pumice_08.jpg style=""width:8cm; height:6.67cm;""><p style='font-size: 30px; color: green;'><strong>Correct!</strong></p><p style='font-size: 30px;'><strong>This rock is pumice</strong></p>","0","corr_feedback","1","train","29","","","","","","","",""
"","","","","","","","","","","","html-button-response","163","2.0.0","318439","652abcf9a639f4cb5c294233","1","34","1173","","","","","","","","","<img src= ""rock_img/I_Obsidian_14.jpg"" style=""width:8cm; height:7.64cm;""><p>What type of rock is this?</p>","4","class_response","1","train","30","Obsidian","Obsidian","14","true","5","5","",""
"","","","","","","","","","","","html-button-response","164","2.0.0","319298","652abcf9a639f4cb5c294233","1","34","859","","","","","","","","","<img src= rock_img/I_Obsidian_14.jpg style=""width:8cm; height:7.64cm;""><p style='font-size: 30px; color: green;'><strong>Correct!</strong></p><p style='font-size: 30px;'><strong>This rock is obsidian</strong></p>","0","corr_feedback","1","train","30","","","","","","","",""
"","","","","","","","","","","","html-button-response","165","2.0.0","322433","652abcf9a639f4cb5c294233","1","34","3133","","","","","","","","","<img src= ""rock_img/I_Gabbro_01.jpg"" style=""width:8cm; height:5.21cm;""><p>What type of rock is this?</p>","5","class_response","1","train","31","Pegmatite","Gabbro","01","false","6","4","",""
"","","","","","","","","","","","html-button-response","166","2.0.0","323480","652abcf9a639f4cb5c294233","1","34","1046","","","","","","","","","<img src= rock_img/I_Gabbro_01.jpg style=""width:8cm; height:5.21cm;""><p style='font-size: 30px; color: red;'><strong>Incorrect!</strong></p><p style='font-size: 30px;'><strong>This rock is gabbro</strong></p>","0","corr_feedback","1","train","31","","","","","","","",""
"","","","","","","","","","","","html-button-response","167","2.0.0","326806","652abcf9a639f4cb5c294233","1","34","3325","","","","","","","","","<img src= ""rock_img/I_Basalt_09.jpg"" style=""width:8cm; height:6.2cm;""><p>What type of rock is this?</p>","1","class_response","1","train","32","Basalt","Basalt","09","true","2","2","",""
"","","","","","","","","","","","html-button-response","168","2.0.0","327894","652abcf9a639f4cb5c294233","1","34","1087","","","","","","","","","<img src= rock_img/I_Basalt_09.jpg style=""width:8cm; height:6.2cm;""><p style='font-size: 30px; color: green;'><strong>Correct!</strong></p><p style='font-size: 30px;'><strong>This rock is basalt</strong></p>","0","corr_feedback","1","train","32","","","","","","","",""
"","","","","","","","","","","","html-button-response","169","2.0.0","329892","652abcf9a639f4cb5c294233","1","34","1997","","","","","","","","","<img src= ""rock_img/I_Pumice_02.jpg"" style=""width:8cm; height:7.3999999999999995cm;""><p>What type of rock is this?</p>","7","class_response","1","train","33","Pumice","Pumice","02","true","8","8","",""
"","","","","","","","","","","","html-button-response","170","2.0.0","330871","652abcf9a639f4cb5c294233","1","34","977","","","","","","","","","<img src= rock_img/I_Pumice_02.jpg style=""width:8cm; height:7.3999999999999995cm;""><p style='font-size: 30px; color: green;'><strong>Correct!</strong></p><p style='font-size: 30px;'><strong>This rock is pumice</strong></p>","0","corr_feedback","1","train","33","","","","","","","",""
"","","","","","","","","","","","html-button-response","171","2.0.0","332490","652abcf9a639f4cb5c294233","1","34","1618","","","","","","","","","<img src= ""rock_img/I_Basalt_02.jpg"" style=""width:8cm; height:6.45cm;""><p>What type of rock is this?</p>","1","class_response","1","train","34","Basalt","Basalt","02","true","2","2","",""
"","","","","","","","","","","","html-button-response","172","2.0.0","333320","652abcf9a639f4cb5c294233","1","34","829","","","","","","","","","<img src= rock_img/I_Basalt_02.jpg style=""width:8cm; height:6.45cm;""><p style='font-size: 30px; color: green;'><strong>Correct!</strong></p><p style='font-size: 30px;'><strong>This rock is basalt</strong></p>","0","corr_feedback","1","train","34","","","","","","","",""
"","","","","","","","","","","","html-button-response","173","2.0.0","334878","652abcf9a639f4cb5c294233","1","34","1557","","","","","","","","","<img src= ""rock_img/I_Peridotite_05.jpg"" style=""width:8cm; height:7.1499999999999995cm;""><p>What type of rock is this?</p>","6","class_response","1","train","35","Peridotite","Peridotite","05","true","7","7","",""
"","","","","","","","","","","","html-button-response","174","2.0.0","335614","652abcf9a639f4cb5c294233","1","34","735","","","","","","","","","<img src= rock_img/I_Peridotite_05.jpg style=""width:8cm; height:7.1499999999999995cm;""><p style='font-size: 30px; color: green;'><strong>Correct!</strong></p><p style='font-size: 30px;'><strong>This rock is peridotite</strong></p>","0","corr_feedback","1","train","35","","","","","","","",""
"","","","","","","","","","","","html-button-response","175","2.0.0","337690","652abcf9a639f4cb5c294233","1","34","2075","","","","","","","","","<img src= ""rock_img/I_Andesite_06.jpg"" style=""width:8cm; height:6.840000000000001cm;""><p>What type of rock is this?</p>","0","class_response","1","train","36","Andesite","Andesite","06","true","1","1","",""
"","","","","","","","","","","","html-button-response","176","2.0.0","338582","652abcf9a639f4cb5c294233","1","34","891","","","","","","","","","<img src= rock_img/I_Andesite_06.jpg style=""width:8cm; height:6.840000000000001cm;""><p style='font-size: 30px; color: green;'><strong>Correct!</strong></p><p style='font-size: 30px;'><strong>This rock is andesite</strong></p>","0","corr_feedback","1","train","36","","","","","","","",""
"","","","","","","","","","","","html-button-response","177","2.0.0","339764","652abcf9a639f4cb5c294233","1","34","1181","","","","","","","","","<img src= ""rock_img/I_Diorite_13.jpg"" style=""width:8cm; height:6.29cm;""><p>What type of rock is this?</p>","2","class_response","1","train","37","Diorite","Diorite","13","true","3","3","",""
"","","","","","","","","","","","html-button-response","178","2.0.0","340460","652abcf9a639f4cb5c294233","1","34","695","","","","","","","","","<img src= rock_img/I_Diorite_13.jpg style=""width:8cm; height:6.29cm;""><p style='font-size: 30px; color: green;'><strong>Correct!</strong></p><p style='font-size: 30px;'><strong>This rock is diorite</strong></p>","0","corr_feedback","1","train","37","","","","","","","",""
"","","","","","","","","","","","html-button-response","179","2.0.0","342338","652abcf9a639f4cb5c294233","1","34","1877","","","","","","","","","<img src= ""rock_img/I_Pegmatite_03.jpg"" style=""width:8cm; height:5.239999999999999cm;""><p>What type of rock is this?</p>","0","class_response","1","train","38","Andesite","Pegmatite","03","false","1","6","",""
"","","","","","","","","","","","html-button-response","180","2.0.0","345642","652abcf9a639f4cb5c294233","1","34","3303","","","","","","","","","<img src= rock_img/I_Pegmatite_03.jpg style=""width:8cm; height:5.239999999999999cm;""><p style='font-size: 30px; color: red;'><strong>Incorrect!</strong></p><p style='font-size: 30px;'><strong>This rock is pegmatite</strong></p>","0","corr_feedback","1","train","38","","","","","","","",""
"","","","","","","","","","","","html-button-response","181","2.0.0","346990","652abcf9a639f4cb5c294233","1","34","1347","","","","","","","","","<img src= ""rock_img/I_Pegmatite_15.jpg"" style=""width:8cm; height:6cm;""><p>What type of rock is this?</p>","5","class_response","1","train","39","Pegmatite","Pegmatite","15","true","6","6","",""
"","","","","","","","","","","","html-button-response","182","2.0.0","348070","652abcf9a639f4cb5c294233","1","34","1079","","","","","","","","","<img src= rock_img/I_Pegmatite_15.jpg style=""width:8cm; height:6cm;""><p style='font-size: 30px; color: green;'><strong>Correct!</strong></p><p style='font-size: 30px;'><strong>This rock is pegmatite</strong></p>","0","corr_feedback","1","train","39","","","","","","","",""
"","","","","","","","","","","","html-button-response","183","2.0.0","349738","652abcf9a639f4cb5c294233","1","34","1667","","","","","","","","","<img src= ""rock_img/I_Peridotite_15.jpg"" style=""width:8cm; height:6cm;""><p>What type of rock is this?</p>","6","class_response","1","train","40","Peridotite","Peridotite","15","true","7","7","",""
"","","","","","","","","","","","html-button-response","184","2.0.0","350472","652abcf9a639f4cb5c294233","1","34","732","","","","","","","","","<img src= rock_img/I_Peridotite_15.jpg style=""width:8cm; height:6cm;""><p style='font-size: 30px; color: green;'><strong>Correct!</strong></p><p style='font-size: 30px;'><strong>This rock is peridotite</strong></p>","0","corr_feedback","1","train","40","","","","","","","",""
"","","","","","","","","","","","html-button-response","185","2.0.0","351960","652abcf9a639f4cb5c294233","1","34","1487","","","","","","","","","<img src= ""rock_img/I_Gabbro_11.jpg"" style=""width:8cm; height:6.2cm;""><p>What type of rock is this?</p>","1","class_response","1","train","41","Basalt","Gabbro","11","false","2","4","",""
"","","","","","","","","","","","html-button-response","186","2.0.0","353128","652abcf9a639f4cb5c294233","1","34","1167","","","","","","","","","<img src= rock_img/I_Gabbro_11.jpg style=""width:8cm; height:6.2cm;""><p style='font-size: 30px; color: red;'><strong>Incorrect!</strong></p><p style='font-size: 30px;'><strong>This rock is gabbro</strong></p>","0","corr_feedback","1","train","41","","","","","","","",""
"","","","","","","","","","","","html-button-response","187","2.0.0","355304","652abcf9a639f4cb5c294233","1","34","2175","","","","","","","","","<img src= ""rock_img/I_Andesite_02.jpg"" style=""width:8cm; height:8.5cm;""><p>What type of rock is this?</p>","0","class_response","1","train","42","Andesite","Andesite","02","true","1","1","",""
"","","","","","","","","","","","html-button-response","188","2.0.0","356190","652abcf9a639f4cb5c294233","1","34","884","","","","","","","","","<img src= rock_img/I_Andesite_02.jpg style=""width:8cm; height:8.5cm;""><p style='font-size: 30px; color: green;'><strong>Correct!</strong></p><p style='font-size: 30px;'><strong>This rock is andesite</strong></p>","0","corr_feedback","1","train","42","","","","","","","",""
"","","","","","","","","","","","html-button-response","189","2.0.0","357496","652abcf9a639f4cb5c294233","1","34","1305","","","","","","","","","<img src= ""rock_img/I_Diorite_07.jpg"" style=""width:8cm; height:5.239999999999999cm;""><p>What type of rock is this?</p>","2","class_response","1","train","43","Diorite","Diorite","07","true","3","3","",""
"","","","","","","","","","","","html-button-response","190","2.0.0","358278","652abcf9a639f4cb5c294233","1","34","781","","","","","","","","","<img src= rock_img/I_Diorite_07.jpg style=""width:8cm; height:5.239999999999999cm;""><p style='font-size: 30px; color: green;'><strong>Correct!</strong></p><p style='font-size: 30px;'><strong>This rock is diorite</strong></p>","0","corr_feedback","1","train","43","","","","","","","",""
"","","","","","","","","","","","html-button-response","191","2.0.0","359876","652abcf9a639f4cb5c294233","1","34","1597","","","","","","","","","<img src= ""rock_img/I_Basalt_04.jpg"" style=""width:8cm; height:7.53cm;""><p>What type of rock is this?</p>","1","class_response","1","train","44","Basalt","Basalt","04","true","2","2","",""
"","","","","","","","","","","","html-button-response","192","2.0.0","360862","652abcf9a639f4cb5c294233","1","34","985","","","","","","","","","<img src= rock_img/I_Basalt_04.jpg style=""width:8cm; height:7.53cm;""><p style='font-size: 30px; color: green;'><strong>Correct!</strong></p><p style='font-size: 30px;'><strong>This rock is basalt</strong></p>","0","corr_feedback","1","train","44","","","","","","","",""
"","","","","","","","","","","","html-button-response","193","2.0.0","362170","652abcf9a639f4cb5c294233","1","34","1307","","","","","","","","","<img src= ""rock_img/I_Obsidian_08.jpg"" style=""width:8cm; height:7.39cm;""><p>What type of rock is this?</p>","4","class_response","1","train","45","Obsidian","Obsidian","08","true","5","5","",""
"","","","","","","","","","","","html-button-response","194","2.0.0","363022","652abcf9a639f4cb5c294233","1","34","851","","","","","","","","","<img src= rock_img/I_Obsidian_08.jpg style=""width:8cm; height:7.39cm;""><p style='font-size: 30px; color: green;'><strong>Correct!</strong></p><p style='font-size: 30px;'><strong>This rock is obsidian</strong></p>","0","corr_feedback","1","train","45","","","","","","","",""
"","","","","","","","","","","","html-button-response","195","2.0.0","364338","652abcf9a639f4cb5c294233","1","34","1315","","","","","","","","","<img src= ""rock_img/I_Pegmatite_10.jpg"" style=""width:8cm; height:4.16cm;""><p>What type of rock is this?</p>","6","class_response","1","train","46","Peridotite","Pegmatite","10","false","7","6","",""
"","","","","","","","","","","","html-button-response","196","2.0.0","366232","652abcf9a639f4cb5c294233","1","34","1892","","","","","","","","","<img src= rock_img/I_Pegmatite_10.jpg style=""width:8cm; height:4.16cm;""><p style='font-size: 30px; color: red;'><strong>Incorrect!</strong></p><p style='font-size: 30px;'><strong>This rock is pegmatite</strong></p>","0","corr_feedback","1","train","46","","","","","","","",""
"","","","","","","","","","","","html-button-response","197","2.0.0","371908","652abcf9a639f4cb5c294233","1","34","5675","","","","","","","","","<img src= ""rock_img/I_Andesite_16.jpg"" style=""width:8cm; height:6.010000000000001cm;""><p>What type of rock is this?</p>","0","class_response","1","train","47","Andesite","Andesite","16","true","1","1","",""
"","","","","","","","","","","","html-button-response","198","2.0.0","372996","652abcf9a639f4cb5c294233","1","34","1087","","","","","","","","","<img src= rock_img/I_Andesite_16.jpg style=""width:8cm; height:6.010000000000001cm;""><p style='font-size: 30px; color: green;'><strong>Correct!</strong></p><p style='font-size: 30px;'><strong>This rock is andesite</strong></p>","0","corr_feedback","1","train","47","","","","","","","",""
"","","","","","","","","","","","html-button-response","199","2.0.0","374296","652abcf9a639f4cb5c294233","1","34","1299","","","","","","","","","<img src= ""rock_img/I_Pegmatite_05.jpg"" style=""width:8cm; height:7.300000000000001cm;""><p>What type of rock is this?</p>","2","class_response","1","train","48","Diorite","Pegmatite","05","false","3","6","",""
"","","","","","","","","","","","html-button-response","200","2.0.0","375634","652abcf9a639f4cb5c294233","1","34","1337","","","","","","","","","<img src= rock_img/I_Pegmatite_05.jpg style=""width:8cm; height:7.300000000000001cm;""><p style='font-size: 30px; color: red;'><strong>Incorrect!</strong></p><p style='font-size: 30px;'><strong>This rock is pegmatite</strong></p>","0","corr_feedback","1","train","48","","","","","","","",""
"","","","","","","","","","","","instructions","203","2.0.0","388702","652abcf9a639f4cb5c294233","1","34","13067","","","","","","","","[{""page_index"":0,""viewing_time"":4141},{""page_index"":1,""viewing_time"":8926}]","","","","","","","","","","","","","",""
"","","","","","","","","","","","html-button-response","204","2.0.0","389970","652abcf9a639f4cb5c294233","1","34","1267","","","","","","","","","","0","start_test","","","","","","","","","","",""
"","","","","","","","","","","","html-button-response","205","2.0.0","396774","652abcf9a639f4cb5c294233","1","34","6803","","","","","","","","","<img src= ""rock_img/I_Pegmatite_06.jpg"" style=""width:8cm; height:5.17cm;""><p>What type of rock is this?</p>","5","class_response","1","test","1","Pegmatite","Pegmatite","06","true","6","6","",""
"","","","","","","","","","","","html-keyboard-response","206","2.0.0","397284","652abcf9a639f4cb5c294233","1","34","null","","","","","","","","","<p style='font-size: 30px;'><strong>Okay</strong></p>","null","neutral_feedback","1","test","1","","","","","","","",""
"","","","","","","","","","","","html-button-response","207","2.0.0","398572","652abcf9a639f4cb5c294233","1","34","1286","","","","","","","","","<img src= ""rock_img/I_Pumice_09.jpg"" style=""width:8cm; height:6.44cm;""><p>What type of rock is this?</p>","7","class_response","1","test","2","Pumice","Pumice","09","true","8","8","",""
"","","","","","","","","","","","html-keyboard-response","208","2.0.0","399083","652abcf9a639f4cb5c294233","1","34","null","","","","","","","","","<p style='font-size: 30px;'><strong>Okay</strong></p>","null","neutral_feedback","1","test","2","","","","","","","",""
"","","","","","","","","","","","html-button-response","209","2.0.0","403192","652abcf9a639f4cb5c294233","1","34","4108","","","","","","","","","<img src= ""rock_img/I_Peridotite_12.jpg"" style=""width:8cm; height:4.54cm;""><p>What type of rock is this?</p>","3","class_response","1","test","3","Gabbro","Peridotite","12","false","4","7","",""
"","","","","","","","","","","","html-keyboard-response","210","2.0.0","403699","652abcf9a639f4cb5c294233","1","34","null","","","","","","","","","<p style='font-size: 30px;'><strong>Okay</strong></p>","null","neutral_feedback","1","test","3","","","","","","","",""
"","","","","","","","","","","","html-button-response","211","2.0.0","405368","652abcf9a639f4cb5c294233","1","34","1667","","","","","","","","","<img src= ""rock_img/I_Pumice_10.jpg"" style=""width:8cm; height:7.609999999999999cm;""><p>What type of rock is this?</p>","7","class_response","1","test","4","Pumice","Pumice","10","true","8","8","",""
"","","","","","","","","","","","html-keyboard-response","212","2.0.0","405883","652abcf9a639f4cb5c294233","1","34","null","","","","","","","","","<p style='font-size: 30px;'><strong>Okay</strong></p>","null","neutral_feedback","1","test","4","","","","","","","",""
"","","","","","","","","","","","html-button-response","213","2.0.0","407084","652abcf9a639f4cb5c294233","1","34","1199","","","","","","","","","<img src= ""rock_img/I_Obsidian_05.jpg"" style=""width:8cm; height:6.33cm;""><p>What type of rock is this?</p>","4","class_response","1","test","5","Obsidian","Obsidian","05","true","5","5","",""
"","","","","","","","","","","","html-keyboard-response","214","2.0.0","407593","652abcf9a639f4cb5c294233","1","34","null","","","","","","","","","<p style='font-size: 30px;'><strong>Okay</strong></p>","null","neutral_feedback","1","test","5","","","","","","","",""
"","","","","","","","","","","","html-button-response","215","2.0.0","413830","652abcf9a639f4cb5c294233","1","34","6235","","","","","","","","","<img src= ""rock_img/I_Peridotite_04.jpg"" style=""width:8cm; height:6.680000000000001cm;""><p>What type of rock is this?</p>","3","class_response","1","test","6","Gabbro","Peridotite","04","false","4","7","",""
"","","","","","","","","","","","html-keyboard-response","216","2.0.0","414344","652abcf9a639f4cb5c294233","1","34","null","","","","","","","","","<p style='font-size: 30px;'><strong>Okay</strong></p>","null","neutral_feedback","1","test","6","","","","","","","",""
"","","","","","","","","","","","html-button-response","217","2.0.0","417126","652abcf9a639f4cb5c294233","1","34","2780","","","","","","","","","<img src= ""rock_img/I_Peridotite_14.jpg"" style=""width:8cm; height:5.3cm;""><p>What type of rock is this?</p>","6","class_response","1","test","7","Peridotite","Peridotite","14","true","7","7","",""
"","","","","","","","","","","","html-keyboard-response","218","2.0.0","417638","652abcf9a639f4cb5c294233","1","34","null","","","","","","","","","<p style='font-size: 30px;'><strong>Okay</strong></p>","null","neutral_feedback","1","test","7","","","","","","","",""
"","","","","","","","","","","","html-button-response","219","2.0.0","419108","652abcf9a639f4cb5c294233","1","34","1468","","","","","","","","","<img src= ""rock_img/I_Basalt_05.jpg"" style=""width:8cm; height:8.18cm;""><p>What type of rock is this?</p>","1","class_response","1","test","8","Basalt","Basalt","05","true","2","2","",""
"","","","","","","","","","","","html-keyboard-response","220","2.0.0","419615","652abcf9a639f4cb5c294233","1","34","null","","","","","","","","","<p style='font-size: 30px;'><strong>Okay</strong></p>","null","neutral_feedback","1","test","8","","","","","","","",""
"","","","","","","","","","","","html-button-response","221","2.0.0","421276","652abcf9a639f4cb5c294233","1","34","1659","","","","","","","","","<img src= ""rock_img/I_Gabbro_09.jpg"" style=""width:8cm; height:7.279999999999999cm;""><p>What type of rock is this?</p>","1","class_response","1","test","9","Basalt","Gabbro","09","false","2","4","",""
"","","","","","","","","","","","html-keyboard-response","222","2.0.0","421785","652abcf9a639f4cb5c294233","1","34","null","","","","","","","","","<p style='font-size: 30px;'><strong>Okay</strong></p>","null","neutral_feedback","1","test","9","","","","","","","",""
"","","","","","","","","","","","html-button-response","223","2.0.0","422904","652abcf9a639f4cb5c294233","1","34","1117","","","","","","","","","<img src= ""rock_img/I_Basalt_01.jpg"" style=""width:8cm; height:7.880000000000001cm;""><p>What type of rock is this?</p>","1","class_response","1","test","10","Basalt","Basalt","01","true","2","2","",""
"","","","","","","","","","","","html-keyboard-response","224","2.0.0","423411","652abcf9a639f4cb5c294233","1","34","null","","","","","","","","","<p style='font-size: 30px;'><strong>Okay</strong></p>","null","neutral_feedback","1","test","10","","","","","","","",""
"","","","","","","","","","","","html-button-response","225","2.0.0","424720","652abcf9a639f4cb5c294233","1","34","1307","","","","","","","","","<img src= ""rock_img/I_Diorite_08.jpg"" style=""width:8cm; height:6.37cm;""><p>What type of rock is this?</p>","2","class_response","1","test","11","Diorite","Diorite","08","true","3","3","",""
"","","","","","","","","","","","html-keyboard-response","226","2.0.0","425223","652abcf9a639f4cb5c294233","1","34","null","","","","","","","","","<p style='font-size: 30px;'><strong>Okay</strong></p>","null","neutral_feedback","1","test","11","","","","","","","",""
"","","","","","","","","","","","html-button-response","227","2.0.0","428760","652abcf9a639f4cb5c294233","1","34","3535","","","","","","","","","<img src= ""rock_img/I_Diorite_10.jpg"" style=""width:8cm; height:5.949999999999999cm;""><p>What type of rock is this?</p>","3","class_response","1","test","12","Gabbro","Diorite","10","false","4","3","",""
"","","","","","","","","","","","html-keyboard-response","228","2.0.0","429267","652abcf9a639f4cb5c294233","1","34","null","","","","","","","","","<p style='font-size: 30px;'><strong>Okay</strong></p>","null","neutral_feedback","1","test","12","","","","","","","",""
"","","","","","","","","","","","html-button-response","229","2.0.0","430592","652abcf9a639f4cb5c294233","1","34","1323","","","","","","","","","<img src= ""rock_img/I_Obsidian_12.jpg"" style=""width:8cm; height:6.53cm;""><p>What type of rock is this?</p>","4","class_response","1","test","13","Obsidian","Obsidian","12","true","5","5","",""
"","","","","","","","","","","","html-keyboard-response","230","2.0.0","431108","652abcf9a639f4cb5c294233","1","34","null","","","","","","","","","<p style='font-size: 30px;'><strong>Okay</strong></p>","null","neutral_feedback","1","test","13","","","","","","","",""
"","","","","","","","","","","","html-button-response","231","2.0.0","432704","652abcf9a639f4cb5c294233","1","34","1594","","","","","","","","","<img src= ""rock_img/I_Pumice_06.jpg"" style=""width:8cm; height:6.9399999999999995cm;""><p>What type of rock is this?</p>","7","class_response","1","test","14","Pumice","Pumice","06","true","8","8","",""
"","","","","","","","","","","","html-keyboard-response","232","2.0.0","433206","652abcf9a639f4cb5c294233","1","34","null","","","","","","","","","<p style='font-size: 30px;'><strong>Okay</strong></p>","null","neutral_feedback","1","test","14","","","","","","","",""
"","","","","","","","","","","","html-button-response","233","2.0.0","434482","652abcf9a639f4cb5c294233","1","34","1274","","","","","","","","","<img src= ""rock_img/I_Basalt_08.jpg"" style=""width:8cm; height:10.44cm;""><p>What type of rock is this?</p>","1","class_response","1","test","15","Basalt","Basalt","08","true","2","2","",""
"","","","","","","","","","","","html-keyboard-response","234","2.0.0","434993","652abcf9a639f4cb5c294233","1","34","null","","","","","","","","","<p style='font-size: 30px;'><strong>Okay</strong></p>","null","neutral_feedback","1","test","15","","","","","","","",""
"","","","","","","","","","","","html-button-response","235","2.0.0","437808","652abcf9a639f4cb5c294233","1","34","2813","","","","","","","","","<img src= ""rock_img/I_Basalt_14.jpg"" style=""width:8cm; height:5.82cm;""><p>What type of rock is this?</p>","1","class_response","1","test","16","Basalt","Basalt","14","true","2","2","",""
"","","","","","","","","","","","html-keyboard-response","236","2.0.0","438318","652abcf9a639f4cb5c294233","1","34","null","","","","","","","","","<p style='font-size: 30px;'><strong>Okay</strong></p>","null","neutral_feedback","1","test","16","","","","","","","",""
"","","","","","","","","","","","html-button-response","237","2.0.0","443750","652abcf9a639f4cb5c294233","1","34","5430","","","","","","","","","<img src= ""rock_img/I_Pegmatite_12.jpg"" style=""width:8cm; height:5.7cm;""><p>What type of rock is this?</p>","2","class_response","1","test","17","Diorite","Pegmatite","12","false","3","6","",""
"","","","","","","","","","","","html-keyboard-response","238","2.0.0","444253","652abcf9a639f4cb5c294233","1","34","null","","","","","","","","","<p style='font-size: 30px;'><strong>Okay</strong></p>","null","neutral_feedback","1","test","17","","","","","","","",""
"","","","","","","","","","","","html-button-response","239","2.0.0","445552","652abcf9a639f4cb5c294233","1","34","1297","","","","","","","","","<img src= ""rock_img/I_Basalt_06.jpg"" style=""width:8cm; height:7.06cm;""><p>What type of rock is this?</p>","1","class_response","1","test","18","Basalt","Basalt","06","true","2","2","",""
"","","","","","","","","","","","html-keyboard-response","240","2.0.0","446054","652abcf9a639f4cb5c294233","1","34","null","","","","","","","","","<p style='font-size: 30px;'><strong>Okay</strong></p>","null","neutral_feedback","1","test","18","","","","","","","",""
"","","","","","","","","","","","html-button-response","241","2.0.0","452550","652abcf9a639f4cb5c294233","1","34","6493","","","","","","","","","<img src= ""rock_img/I_Pegmatite_13.jpg"" style=""width:8cm; height:4.95cm;""><p>What type of rock is this?</p>","0","class_response","1","test","19","Andesite","Pegmatite","13","false","1","6","",""
"","","","","","","","","","","","html-keyboard-response","242","2.0.0","453053","652abcf9a639f4cb5c294233","1","34","null","","","","","","","","","<p style='font-size: 30px;'><strong>Okay</strong></p>","null","neutral_feedback","1","test","19","","","","","","","",""
"","","","","","","","","","","","html-button-response","243","2.0.0","454484","652abcf9a639f4cb5c294233","1","34","1429","","","","","","","","","<img src= ""rock_img/I_Pegmatite_16.jpg"" style=""width:8cm; height:5.8cm;""><p>What type of rock is this?</p>","2","class_response","1","test","20","Diorite","Pegmatite","16","false","3","6","",""
"","","","","","","","","","","","html-keyboard-response","244","2.0.0","454993","652abcf9a639f4cb5c294233","1","34","null","","","","","","","","","<p style='font-size: 30px;'><strong>Okay</strong></p>","null","neutral_feedback","1","test","20","","","","","","","",""
"","","","","","","","","","","","html-button-response","245","2.0.0","456238","652abcf9a639f4cb5c294233","1","34","1242","","","","","","","","","<img src= ""rock_img/I_Obsidian_04.jpg"" style=""width:8cm; height:6.930000000000001cm;""><p>What type of rock is this?</p>","4","class_response","1","test","21","Obsidian","Obsidian","04","true","5","5","",""
"","","","","","","","","","","","html-keyboard-response","246","2.0.0","456750","652abcf9a639f4cb5c294233","1","34","null","","","","","","","","","<p style='font-size: 30px;'><strong>Okay</strong></p>","null","neutral_feedback","1","test","21","","","","","","","",""
"","","","","","","","","","","","html-button-response","247","2.0.0","458116","652abcf9a639f4cb5c294233","1","34","1363","","","","","","","","","<img src= ""rock_img/I_Pumice_05.jpg"" style=""width:8cm; height:7.25cm;""><p>What type of rock is this?</p>","7","class_response","1","test","22","Pumice","Pumice","05","true","8","8","",""
"","","","","","","","","","","","html-keyboard-response","248","2.0.0","458626","652abcf9a639f4cb5c294233","1","34","null","","","","","","","","","<p style='font-size: 30px;'><strong>Okay</strong></p>","null","neutral_feedback","1","test","22","","","","","","","",""
"","","","","","","","","","","","html-button-response","249","2.0.0","460533","652abcf9a639f4cb5c294233","1","34","1906","","","","","","","","","<img src= ""rock_img/I_Diorite_11.jpg"" style=""width:8cm; height:7.11cm;""><p>What type of rock is this?</p>","3","class_response","1","test","23","Gabbro","Diorite","11","false","4","3","",""
"","","","","","","","","","","","html-keyboard-response","250","2.0.0","461042","652abcf9a639f4cb5c294233","1","34","null","","","","","","","","","<p style='font-size: 30px;'><strong>Okay</strong></p>","null","neutral_feedback","1","test","23","","","","","","","",""
"","","","","","","","","","","","html-button-response","251","2.0.0","463908","652abcf9a639f4cb5c294233","1","34","2863","","","","","","","","","<img src= ""rock_img/I_Gabbro_12.jpg"" style=""width:8cm; height:7.800000000000001cm;""><p>What type of rock is this?</p>","3","class_response","1","test","24","Gabbro","Gabbro","12","true","4","4","",""
"","","","","","","","","","","","html-keyboard-response","252","2.0.0","464419","652abcf9a639f4cb5c294233","1","34","null","","","","","","","","","<p style='font-size: 30px;'><strong>Okay</strong></p>","null","neutral_feedback","1","test","24","","","","","","","",""
"","","","","","","","","","","","html-button-response","253","2.0.0","467226","652abcf9a639f4cb5c294233","1","34","2804","","","","","","","","","<img src= ""rock_img/I_Peridotite_08.jpg"" style=""width:8cm; height:6.7cm;""><p>What type of rock is this?</p>","6","class_response","1","test","25","Peridotite","Peridotite","08","true","7","7","",""
"","","","","","","","","","","","html-keyboard-response","254","2.0.0","467729","652abcf9a639f4cb5c294233","1","34","null","","","","","","","","","<p style='font-size: 30px;'><strong>Okay</strong></p>","null","neutral_feedback","1","test","25","","","","","","","",""
"","","","","","","","","","","","html-button-response","255","2.0.0","471422","652abcf9a639f4cb5c294233","1","34","3691","","","","","","","","","<img src= ""rock_img/I_Gabbro_16.jpg"" style=""width:8cm; height:6.44cm;""><p>What type of rock is this?</p>","1","class_response","1","test","26","Basalt","Gabbro","16","false","2","4","",""
"","","","","","","","","","","","html-keyboard-response","256","2.0.0","471923","652abcf9a639f4cb5c294233","1","34","null","","","","","","","","","<p style='font-size: 30px;'><strong>Okay</strong></p>","null","neutral_feedback","1","test","26","","","","","","","",""
"","","","","","","","","","","","html-button-response","257","2.0.0","473645","652abcf9a639f4cb5c294233","1","34","1720","","","","","","","","","<img src= ""rock_img/I_Andesite_07.jpg"" style=""width:8cm; height:5.93cm;""><p>What type of rock is this?</p>","2","class_response","1","test","27","Diorite","Andesite","07","false","3","1","",""
"","","","","","","","","","","","html-keyboard-response","258","2.0.0","474148","652abcf9a639f4cb5c294233","1","34","null","","","","","","","","","<p style='font-size: 30px;'><strong>Okay</strong></p>","null","neutral_feedback","1","test","27","","","","","","","",""
"","","","","","","","","","","","html-button-response","259","2.0.0","475547","652abcf9a639f4cb5c294233","1","34","1397","","","","","","","","","<img src= ""rock_img/I_Andesite_05.jpg"" style=""width:8cm; height:4.12cm;""><p>What type of rock is this?</p>","6","class_response","1","test","28","Peridotite","Andesite","05","false","7","1","",""
"","","","","","","","","","","","html-keyboard-response","260","2.0.0","476056","652abcf9a639f4cb5c294233","1","34","null","","","","","","","","","<p style='font-size: 30px;'><strong>Okay</strong></p>","null","neutral_feedback","1","test","28","","","","","","","",""
"","","","","","","","","","","","html-button-response","261","2.0.0","481143","652abcf9a639f4cb5c294233","1","34","5086","","","","","","","","","<img src= ""rock_img/I_Gabbro_05.jpg"" style=""width:8cm; height:6cm;""><p>What type of rock is this?</p>","5","class_response","1","test","29","Pegmatite","Gabbro","05","false","6","4","",""
"","","","","","","","","","","","html-keyboard-response","262","2.0.0","481647","652abcf9a639f4cb5c294233","1","34","null","","","","","","","","","<p style='font-size: 30px;'><strong>Okay</strong></p>","null","neutral_feedback","1","test","29","","","","","","","",""
"","","","","","","","","","","","html-button-response","263","2.0.0","486395","652abcf9a639f4cb5c294233","1","34","4746","","","","","","","","","<img src= ""rock_img/I_Andesite_09.jpg"" style=""width:8cm; height:6cm;""><p>What type of rock is this?</p>","2","class_response","1","test","30","Diorite","Andesite","09","false","3","1","",""
"","","","","","","","","","","","html-keyboard-response","264","2.0.0","486899","652abcf9a639f4cb5c294233","1","34","null","","","","","","","","","<p style='font-size: 30px;'><strong>Okay</strong></p>","null","neutral_feedback","1","test","30","","","","","","","",""
"","","","","","","","","","","","html-button-response","265","2.0.0","490012","652abcf9a639f4cb5c294233","1","34","3111","","","","","","","","","<img src= ""rock_img/I_Gabbro_15.jpg"" style=""width:8cm; height:6.29cm;""><p>What type of rock is this?</p>","3","class_response","1","test","31","Gabbro","Gabbro","15","true","4","4","",""
"","","","","","","","","","","","html-keyboard-response","266","2.0.0","490516","652abcf9a639f4cb5c294233","1","34","null","","","","","","","","","<p style='font-size: 30px;'><strong>Okay</strong></p>","null","neutral_feedback","1","test","31","","","","","","","",""
"","","","","","","","","","","","html-button-response","267","2.0.0","491805","652abcf9a639f4cb5c294233","1","34","1288","","","","","","","","","<img src= ""rock_img/I_Pegmatite_11.jpg"" style=""width:8cm; height:8.14cm;""><p>What type of rock is this?</p>","5","class_response","1","test","32","Pegmatite","Pegmatite","11","true","6","6","",""
"","","","","","","","","","","","html-keyboard-response","268","2.0.0","492312","652abcf9a639f4cb5c294233","1","34","null","","","","","","","","","<p style='font-size: 30px;'><strong>Okay</strong></p>","null","neutral_feedback","1","test","32","","","","","","","",""
"","","","","","","","","","","","html-button-response","269","2.0.0","495913","652abcf9a639f4cb5c294233","1","34","3600","","","","","","","","","<img src= ""rock_img/I_Gabbro_08.jpg"" style=""width:8cm; height:5.15cm;""><p>What type of rock is this?</p>","3","class_response","1","test","33","Gabbro","Gabbro","08","true","4","4","",""
"","","","","","","","","","","","html-keyboard-response","270","2.0.0","496420","652abcf9a639f4cb5c294233","1","34","null","","","","","","","","","<p style='font-size: 30px;'><strong>Okay</strong></p>","null","neutral_feedback","1","test","33","","","","","","","",""
"","","","","","","","","","","","html-button-response","271","2.0.0","497487","652abcf9a639f4cb5c294233","1","34","1065","","","","","","","","","<img src= ""rock_img/I_Diorite_09.jpg"" style=""width:8cm; height:5.27cm;""><p>What type of rock is this?</p>","2","class_response","1","test","34","Diorite","Diorite","09","true","3","3","",""
"","","","","","","","","","","","html-keyboard-response","272","2.0.0","497991","652abcf9a639f4cb5c294233","1","34","null","","","","","","","","","<p style='font-size: 30px;'><strong>Okay</strong></p>","null","neutral_feedback","1","test","34","","","","","","","",""
"","","","","","","","","","","","html-button-response","273","2.0.0","500407","652abcf9a639f4cb5c294233","1","34","2414","","","","","","","","","<img src= ""rock_img/I_Andesite_10.jpg"" style=""width:8cm; height:4.16cm;""><p>What type of rock is this?</p>","3","class_response","1","test","35","Gabbro","Andesite","10","false","4","1","",""
"","","","","","","","","","","","html-keyboard-response","274","2.0.0","500913","652abcf9a639f4cb5c294233","1","34","null","","","","","","","","","<p style='font-size: 30px;'><strong>Okay</strong></p>","null","neutral_feedback","1","test","35","","","","","","","",""
"","","","","","","","","","","","html-button-response","275","2.0.0","502097","652abcf9a639f4cb5c294233","1","34","1182","","","","","","","","","<img src= ""rock_img/I_Obsidian_10.jpg"" style=""width:8cm; height:6.260000000000001cm;""><p>What type of rock is this?</p>","4","class_response","1","test","36","Obsidian","Obsidian","10","true","5","5","",""
"","","","","","","","","","","","html-keyboard-response","276","2.0.0","502611","652abcf9a639f4cb5c294233","1","34","null","","","","","","","","","<p style='font-size: 30px;'><strong>Okay</strong></p>","null","neutral_feedback","1","test","36","","","","","","","",""
"","","","","","","","","","","","html-button-response","277","2.0.0","504015","652abcf9a639f4cb5c294233","1","34","1403","","","","","","","","","<img src= ""rock_img/I_Obsidian_07.jpg"" style=""width:8cm; height:4.76cm;""><p>What type of rock is this?</p>","4","class_response","1","test","37","Obsidian","Obsidian","07","true","5","5","",""
"","","","","","","","","","","","html-keyboard-response","278","2.0.0","504526","652abcf9a639f4cb5c294233","1","34","null","","","","","","","","","<p style='font-size: 30px;'><strong>Okay</strong></p>","null","neutral_feedback","1","test","37","","","","","","","",""
"","","","","","","","","","","","html-button-response","279","2.0.0","507459","652abcf9a639f4cb5c294233","1","34","2932","","","","","","","","","<img src= ""rock_img/I_Andesite_03.jpg"" style=""width:8cm; height:5.73cm;""><p>What type of rock is this?</p>","6","class_response","1","test","38","Peridotite","Andesite","03","false","7","1","",""
"","","","","","","","","","","","html-keyboard-response","280","2.0.0","507960","652abcf9a639f4cb5c294233","1","34","null","","","","","","","","","<p style='font-size: 30px;'><strong>Okay</strong></p>","null","neutral_feedback","1","test","38","","","","","","","",""
"","","","","","","","","","","","html-button-response","281","2.0.0","510957","652abcf9a639f4cb5c294233","1","34","2995","","","","","","","","","<img src= ""rock_img/I_Basalt_12.jpg"" style=""width:8cm; height:6.010000000000001cm;""><p>What type of rock is this?</p>","7","class_response","1","test","39","Pumice","Basalt","12","false","8","2","",""
"","","","","","","","","","","","html-keyboard-response","282","2.0.0","511467","652abcf9a639f4cb5c294233","1","34","null","","","","","","","","","<p style='font-size: 30px;'><strong>Okay</strong></p>","null","neutral_feedback","1","test","39","","","","","","","",""
"","","","","","","","","","","","html-button-response","283","2.0.0","512961","652abcf9a639f4cb5c294233","1","34","1492","","","","","","","","","<img src= ""rock_img/I_Pegmatite_09.jpg"" style=""width:8cm; height:4.03cm;""><p>What type of rock is this?</p>","5","class_response","1","test","40","Pegmatite","Pegmatite","09","true","6","6","",""
"","","","","","","","","","","","html-keyboard-response","284","2.0.0","513467","652abcf9a639f4cb5c294233","1","34","null","","","","","","","","","<p style='font-size: 30px;'><strong>Okay</strong></p>","null","neutral_feedback","1","test","40","","","","","","","",""
"","","","","","","","","","","","html-button-response","285","2.0.0","515105","652abcf9a639f4cb5c294233","1","34","1636","","","","","","","","","<img src= ""rock_img/I_Peridotite_13.jpg"" style=""width:8cm; height:7.58cm;""><p>What type of rock is this?</p>","6","class_response","1","test","41","Peridotite","Peridotite","13","true","7","7","",""
"","","","","","","","","","","","html-keyboard-response","286","2.0.0","515607","652abcf9a639f4cb5c294233","1","34","null","","","","","","","","","<p style='font-size: 30px;'><strong>Okay</strong></p>","null","neutral_feedback","1","test","41","","","","","","","",""
"","","","","","","","","","","","html-button-response","287","2.0.0","517289","652abcf9a639f4cb5c294233","1","34","1680","","","","","","","","","<img src= ""rock_img/I_Peridotite_07.jpg"" style=""width:8cm; height:4.83cm;""><p>What type of rock is this?</p>","3","class_response","1","test","42","Gabbro","Peridotite","07","false","4","7","",""
"","","","","","","","","","","","html-keyboard-response","288","2.0.0","517801","652abcf9a639f4cb5c294233","1","34","null","","","","","","","","","<p style='font-size: 30px;'><strong>Okay</strong></p>","null","neutral_feedback","1","test","42","","","","","","","",""
"","","","","","","","","","","","html-button-response","289","2.0.0","518895","652abcf9a639f4cb5c294233","1","34","1093","","","","","","","","","<img src= ""rock_img/I_Diorite_14.jpg"" style=""width:8cm; height:5.71cm;""><p>What type of rock is this?</p>","2","class_response","1","test","43","Diorite","Diorite","14","true","3","3","",""
"","","","","","","","","","","","html-keyboard-response","290","2.0.0","519407","652abcf9a639f4cb5c294233","1","34","null","","","","","","","","","<p style='font-size: 30px;'><strong>Okay</strong></p>","null","neutral_feedback","1","test","43","","","","","","","",""
"","","","","","","","","","","","html-button-response","291","2.0.0","524827","652abcf9a639f4cb5c294233","1","34","5419","","","","","","","","","<img src= ""rock_img/I_Diorite_12.jpg"" style=""width:8cm; height:4.88cm;""><p>What type of rock is this?</p>","3","class_response","1","test","44","Gabbro","Diorite","12","false","4","3","",""
"","","","","","","","","","","","html-keyboard-response","292","2.0.0","525329","652abcf9a639f4cb5c294233","1","34","null","","","","","","","","","<p style='font-size: 30px;'><strong>Okay</strong></p>","null","neutral_feedback","1","test","44","","","","","","","",""
"","","","","","","","","","","","html-button-response","293","2.0.0","526509","652abcf9a639f4cb5c294233","1","34","1178","","","","","","","","","<img src= ""rock_img/I_Pumice_15.jpg"" style=""width:8cm; height:7.86cm;""><p>What type of rock is this?</p>","7","class_response","1","test","45","Pumice","Pumice","15","true","8","8","",""
"","","","","","","","","","","","html-keyboard-response","294","2.0.0","527022","652abcf9a639f4cb5c294233","1","34","null","","","","","","","","","<p style='font-size: 30px;'><strong>Okay</strong></p>","null","neutral_feedback","1","test","45","","","","","","","",""
"","","","","","","","","","","","html-button-response","295","2.0.0","528137","652abcf9a639f4cb5c294233","1","34","1113","","","","","","","","","<img src= ""rock_img/I_Obsidian_16.jpg"" style=""width:8cm; height:9.3cm;""><p>What type of rock is this?</p>","4","class_response","1","test","46","Obsidian","Obsidian","16","true","5","5","",""
"","","","","","","","","","","","html-keyboard-response","296","2.0.0","528649","652abcf9a639f4cb5c294233","1","34","null","","","","","","","","","<p style='font-size: 30px;'><strong>Okay</strong></p>","null","neutral_feedback","1","test","46","","","","","","","",""
"","","","","","","","","","","","html-button-response","297","2.0.0","530299","652abcf9a639f4cb5c294233","1","34","1648","","","","","","","","","<img src= ""rock_img/I_Pumice_03.jpg"" style=""width:8cm; height:6.64cm;""><p>What type of rock is this?</p>","7","class_response","1","test","47","Pumice","Pumice","03","true","8","8","",""
"","","","","","","","","","","","html-keyboard-response","298","2.0.0","530813","652abcf9a639f4cb5c294233","1","34","null","","","","","","","","","<p style='font-size: 30px;'><strong>Okay</strong></p>","null","neutral_feedback","1","test","47","","","","","","","",""
"","","","","","","","","","","","html-button-response","299","2.0.0","533037","652abcf9a639f4cb5c294233","1","34","2222","","","","","","","","","<img src= ""rock_img/I_Andesite_01.jpg"" style=""width:8cm; height:5.87cm;""><p>What type of rock is this?</p>","2","class_response","1","test","48","Diorite","Andesite","01","false","3","1","",""
"","","","","","","","","","","","html-keyboard-response","300","2.0.0","533542","652abcf9a639f4cb5c294233","1","34","null","","","","","","","","","<p style='font-size: 30px;'><strong>Okay</strong></p>","null","neutral_feedback","1","test","48","","","","","","","",""
"","","","","","","","","","","","html-button-response","301","2.0.0","563471","652abcf9a639f4cb5c294233","1","34","","","","","","","","","","","","cycle_feedback","","","","","","","","","","12879.199999988079","17039.900000035763"
"","","","","","","","","","","","html-button-response","303","2.0.0","565287","652abcf9a639f4cb5c294233","1","34","1815","","","","","","","","","","0","start_train","","","","","","","","","","",""
"","","","","","","","","","","","html-button-response","304","2.0.0","569835","652abcf9a639f4cb5c294233","1","34","4547","","","","","","","","","<img src= ""rock_img/I_Pegmatite_05.jpg"" style=""width:8cm; height:7.300000000000001cm;""><p>What type of rock is this?</p>","2","class_response","2","train","1","Diorite","Pegmatite","05","false","3","6","",""
