"width","height","webaudio","browser","browser_version","mobile","os","fullscreen","vsync_rate","webcam","microphone","trial_type","trial_index","plugin_version","time_elapsed","subjID","condition","stimID","rt","url","success","value","timeout","failed_images","failed_audio","failed_video","view_history","stimulus","response","trialType","cycle","phase","trial","resp","cat","token","corr","resp_num","cat_num","time_fb1","time_fb2"
"1536","695","true","chrome","130.0.0","false","Windows 10","true","144.96","true","true","browser-check","0","2.0.0","422","6718367356f7417faba214b3","1","9","","","","","","","","","","","","","","","","","","","","","","",""
"","","","","","","","","","","","external-html","1","2.0.0","296270","6718367356f7417faba214b3","1","9","295764","consent_form.html","","","","","","","","","","","","","","","","","","","","",""
"","","","","","","","","","","","fullscreen","2","2.0.0","300169","6718367356f7417faba214b3","1","9","2892","","true","","","","","","","","","","","","","","","","","","","",""
"","","","","","","","","","","","call-function","3","2.0.0","300171","6718367356f7417faba214b3","1","9","","","","{}","","","","","","","","","","","","","","","","","","",""
"","","","","","","","","","","","preload","4","2.0.0","302845","6718367356f7417faba214b3","1","9","","","true","","false","[]","[]","[]","","","","","","","","","","","","","","",""
"","","","","","","","","","","","instructions","5","2.0.0","352675","6718367356f7417faba214b3","1","9","49830","","","","","","","","[{""page_index"":0,""viewing_time"":7039},{""page_index"":1,""viewing_time"":24207},{""page_index"":2,""viewing_time"":18584}]","","","","","","","","","","","","","",""
"","","","","","","","","","","","html-button-response","6","2.0.0","355532","6718367356f7417faba214b3","1","9","2855","","","","","","","","","","0","start_test","","","","","","","","","","",""
"","","","","","","","","","","","html-button-response","7","2.0.0","358732","6718367356f7417faba214b3","1","9","3198","","","","","","","","","<img src= ""rock_img/I_Diorite_08.jpg"" style=""width:8cm; height:6.37cm;""><p>What type of rock is this?</p>","1","class_response","0","test","1","Basalt","Diorite","08","false","2","3","",""
"","","","","","","","","","","","html-keyboard-response","8","2.0.0","359243","6718367356f7417faba214b3","1","9","null","","","","","","","","","<p style='font-size: 30px;'><strong>Okay</strong></p>","null","neutral_feedback","0","test","1","","","","","","","",""
"","","","","","","","","","","","html-button-response","9","2.0.0","367363","6718367356f7417faba214b3","1","9","8119","","","","","","","","","<img src= ""rock_img/I_Pegmatite_13.jpg"" style=""width:8cm; height:4.95cm;""><p>What type of rock is this?</p>","3","class_response","0","test","2","Gabbro","Pegmatite","13","false","4","6","",""
"","","","","","","","","","","","html-keyboard-response","10","2.0.0","367869","6718367356f7417faba214b3","1","9","null","","","","","","","","","<p style='font-size: 30px;'><strong>Okay</strong></p>","null","neutral_feedback","0","test","2","","","","","","","",""
"","","","","","","","","","","","html-button-response","11","2.0.0","372292","6718367356f7417faba214b3","1","9","4422","","","","","","","","","<img src= ""rock_img/I_Obsidian_14.jpg"" style=""width:8cm; height:7.64cm;""><p>What type of rock is this?</p>","4","class_response","0","test","3","Obsidian","Obsidian","14","true","5","5","",""
"","","","","","","","","","","","html-keyboard-response","12","2.0.0","372794","6718367356f7417faba214b3","1","9","null","","","","","","","","","<p style='font-size: 30px;'><strong>Okay</strong></p>","null","neutral_feedback","0","test","3","","","","","","","",""
"","","","","","","","","","","","html-button-response","13","2.0.0","376099","6718367356f7417faba214b3","1","9","3304","","","","","","","","","<img src= ""rock_img/I_Andesite_07.jpg"" style=""width:8cm; height:5.93cm;""><p>What type of rock is this?</p>","2","class_response","0","test","4","Diorite","Andesite","07","false","3","1","",""
"","","","","","","","","","","","html-keyboard-response","14","2.0.0","376601","6718367356f7417faba214b3","1","9","null","","","","","","","","","<p style='font-size: 30px;'><strong>Okay</strong></p>","null","neutral_feedback","0","test","4","","","","","","","",""
"","","","","","","","","","","","html-button-response","15","2.0.0","378531","6718367356f7417faba214b3","1","9","1929","","","","","","","","","<img src= ""rock_img/I_Pegmatite_10.jpg"" style=""width:8cm; height:4.16cm;""><p>What type of rock is this?</p>","0","class_response","0","test","5","Andesite","Pegmatite","10","false","1","6","",""
"","","","","","","","","","","","html-keyboard-response","16","2.0.0","379035","6718367356f7417faba214b3","1","9","null","","","","","","","","","<p style='font-size: 30px;'><strong>Okay</strong></p>","null","neutral_feedback","0","test","5","","","","","","","",""
"","","","","","","","","","","","html-button-response","17","2.0.0","381699","6718367356f7417faba214b3","1","9","2663","","","","","","","","","<img src= ""rock_img/I_Diorite_10.jpg"" style=""width:8cm; height:5.949999999999999cm;""><p>What type of rock is this?</p>","7","class_response","0","test","6","Pumice","Diorite","10","false","8","3","",""
"","","","","","","","","","","","html-keyboard-response","18","2.0.0","382215","6718367356f7417faba214b3","1","9","null","","","","","","","","","<p style='font-size: 30px;'><strong>Okay</strong></p>","null","neutral_feedback","0","test","6","","","","","","","",""
"","","","","","","","","","","","html-button-response","19","2.0.0","384948","6718367356f7417faba214b3","1","9","2732","","","","","","","","","<img src= ""rock_img/I_Peridotite_12.jpg"" style=""width:8cm; height:4.54cm;""><p>What type of rock is this?</p>","5","class_response","0","test","7","Pegmatite","Peridotite","12","false","6","7","",""
"","","","","","","","","","","","html-keyboard-response","20","2.0.0","385461","6718367356f7417faba214b3","1","9","null","","","","","","","","","<p style='font-size: 30px;'><strong>Okay</strong></p>","null","neutral_feedback","0","test","7","","","","","","","",""
"","","","","","","","","","","","html-button-response","21","2.0.0","390187","6718367356f7417faba214b3","1","9","4725","","","","","","","","","<img src= ""rock_img/I_Diorite_07.jpg"" style=""width:8cm; height:5.239999999999999cm;""><p>What type of rock is this?</p>","6","class_response","0","test","8","Peridotite","Diorite","07","false","7","3","",""
"","","","","","","","","","","","html-keyboard-response","22","2.0.0","390688","6718367356f7417faba214b3","1","9","null","","","","","","","","","<p style='font-size: 30px;'><strong>Okay</strong></p>","null","neutral_feedback","0","test","8","","","","","","","",""
"","","","","","","","","","","","html-button-response","23","2.0.0","393644","6718367356f7417faba214b3","1","9","2954","","","","","","","","","<img src= ""rock_img/I_Peridotite_07.jpg"" style=""width:8cm; height:4.83cm;""><p>What type of rock is this?</p>","1","class_response","0","test","9","Basalt","Peridotite","07","false","2","7","",""
"","","","","","","","","","","","html-keyboard-response","24","2.0.0","394146","6718367356f7417faba214b3","1","9","null","","","","","","","","","<p style='font-size: 30px;'><strong>Okay</strong></p>","null","neutral_feedback","0","test","9","","","","","","","",""
"","","","","","","","","","","","html-button-response","25","2.0.0","398900","6718367356f7417faba214b3","1","9","4753","","","","","","","","","<img src= ""rock_img/I_Pegmatite_06.jpg"" style=""width:8cm; height:5.17cm;""><p>What type of rock is this?</p>","2","class_response","0","test","10","Diorite","Pegmatite","06","false","3","6","",""
"","","","","","","","","","","","html-keyboard-response","26","2.0.0","399415","6718367356f7417faba214b3","1","9","null","","","","","","","","","<p style='font-size: 30px;'><strong>Okay</strong></p>","null","neutral_feedback","0","test","10","","","","","","","",""
"","","","","","","","","","","","html-button-response","27","2.0.0","401779","6718367356f7417faba214b3","1","9","2364","","","","","","","","","<img src= ""rock_img/I_Obsidian_11.jpg"" style=""width:8cm; height:6.05cm;""><p>What type of rock is this?</p>","4","class_response","0","test","11","Obsidian","Obsidian","11","true","5","5","",""
"","","","","","","","","","","","html-keyboard-response","28","2.0.0","402281","6718367356f7417faba214b3","1","9","null","","","","","","","","","<p style='font-size: 30px;'><strong>Okay</strong></p>","null","neutral_feedback","0","test","11","","","","","","","",""
"","","","","","","","","","","","html-button-response","29","2.0.0","406140","6718367356f7417faba214b3","1","9","3858","","","","","","","","","<img src= ""rock_img/I_Peridotite_16.jpg"" style=""width:8cm; height:6.989999999999999cm;""><p>What type of rock is this?</p>","1","class_response","0","test","12","Basalt","Peridotite","16","false","2","7","",""
"","","","","","","","","","","","html-keyboard-response","30","2.0.0","406643","6718367356f7417faba214b3","1","9","null","","","","","","","","","<p style='font-size: 30px;'><strong>Okay</strong></p>","null","neutral_feedback","0","test","12","","","","","","","",""
"","","","","","","","","","","","html-button-response","31","2.0.0","410636","6718367356f7417faba214b3","1","9","3992","","","","","","","","","<img src= ""rock_img/I_Pumice_15.jpg"" style=""width:8cm; height:7.86cm;""><p>What type of rock is this?</p>","3","class_response","0","test","13","Gabbro","Pumice","15","false","4","8","",""
"","","","","","","","","","","","html-keyboard-response","32","2.0.0","411138","6718367356f7417faba214b3","1","9","null","","","","","","","","","<p style='font-size: 30px;'><strong>Okay</strong></p>","null","neutral_feedback","0","test","13","","","","","","","",""
"","","","","","","","","","","","html-button-response","33","2.0.0","414123","6718367356f7417faba214b3","1","9","2984","","","","","","","","","<img src= ""rock_img/I_Basalt_14.jpg"" style=""width:8cm; height:5.82cm;""><p>What type of rock is this?</p>","2","class_response","0","test","14","Diorite","Basalt","14","false","3","2","",""
"","","","","","","","","","","","html-keyboard-response","34","2.0.0","414626","6718367356f7417faba214b3","1","9","null","","","","","","","","","<p style='font-size: 30px;'><strong>Okay</strong></p>","null","neutral_feedback","0","test","14","","","","","","","",""
"","","","","","","","","","","","html-button-response","35","2.0.0","416548","6718367356f7417faba214b3","1","9","1920","","","","","","","","","<img src= ""rock_img/I_Gabbro_16.jpg"" style=""width:8cm; height:6.44cm;""><p>What type of rock is this?</p>","6","class_response","0","test","15","Peridotite","Gabbro","16","false","7","4","",""
"","","","","","","","","","","","html-keyboard-response","36","2.0.0","417050","6718367356f7417faba214b3","1","9","null","","","","","","","","","<p style='font-size: 30px;'><strong>Okay</strong></p>","null","neutral_feedback","0","test","15","","","","","","","",""
"","","","","","","","","","","","html-button-response","37","2.0.0","423475","6718367356f7417faba214b3","1","9","6424","","","","","","","","","<img src= ""rock_img/I_Gabbro_10.jpg"" style=""width:8cm; height:5.680000000000001cm;""><p>What type of rock is this?</p>","5","class_response","0","test","16","Pegmatite","Gabbro","10","false","6","4","",""
"","","","","","","","","","","","html-keyboard-response","38","2.0.0","423991","6718367356f7417faba214b3","1","9","null","","","","","","","","","<p style='font-size: 30px;'><strong>Okay</strong></p>","null","neutral_feedback","0","test","16","","","","","","","",""
"","","","","","","","","","","","html-button-response","39","2.0.0","432427","6718367356f7417faba214b3","1","9","8435","","","","","","","","","<img src= ""rock_img/I_Pumice_06.jpg"" style=""width:8cm; height:6.9399999999999995cm;""><p>What type of rock is this?</p>","6","class_response","0","test","17","Peridotite","Pumice","06","false","7","8","",""
"","","","","","","","","","","","html-keyboard-response","40","2.0.0","432928","6718367356f7417faba214b3","1","9","null","","","","","","","","","<p style='font-size: 30px;'><strong>Okay</strong></p>","null","neutral_feedback","0","test","17","","","","","","","",""
"","","","","","","","","","","","html-button-response","41","2.0.0","435363","6718367356f7417faba214b3","1","9","2434","","","","","","","","","<img src= ""rock_img/I_Peridotite_14.jpg"" style=""width:8cm; height:5.3cm;""><p>What type of rock is this?</p>","5","class_response","0","test","18","Pegmatite","Peridotite","14","false","6","7","",""
"","","","","","","","","","","","html-keyboard-response","42","2.0.0","435865","6718367356f7417faba214b3","1","9","null","","","","","","","","","<p style='font-size: 30px;'><strong>Okay</strong></p>","null","neutral_feedback","0","test","18","","","","","","","",""
"","","","","","","","","","","","html-button-response","43","2.0.0","439668","6718367356f7417faba214b3","1","9","3801","","","","","","","","","<img src= ""rock_img/I_Gabbro_13.jpg"" style=""width:8cm; height:5.08cm;""><p>What type of rock is this?</p>","3","class_response","0","test","19","Gabbro","Gabbro","13","true","4","4","",""
"","","","","","","","","","","","html-keyboard-response","44","2.0.0","440171","6718367356f7417faba214b3","1","9","null","","","","","","","","","<p style='font-size: 30px;'><strong>Okay</strong></p>","null","neutral_feedback","0","test","19","","","","","","","",""
"","","","","","","","","","","","html-button-response","45","2.0.0","443355","6718367356f7417faba214b3","1","9","3184","","","","","","","","","<img src= ""rock_img/I_Peridotite_10.jpg"" style=""width:8cm; height:5.390000000000001cm;""><p>What type of rock is this?</p>","0","class_response","0","test","20","Andesite","Peridotite","10","false","1","7","",""
"","","","","","","","","","","","html-keyboard-response","46","2.0.0","443871","6718367356f7417faba214b3","1","9","null","","","","","","","","","<p style='font-size: 30px;'><strong>Okay</strong></p>","null","neutral_feedback","0","test","20","","","","","","","",""
"","","","","","","","","","","","html-button-response","47","2.0.0","445109","6718367356f7417faba214b3","1","9","1236","","","","","","","","","<img src= ""rock_img/I_Pumice_03.jpg"" style=""width:8cm; height:6.64cm;""><p>What type of rock is this?</p>","1","class_response","0","test","21","Basalt","Pumice","03","false","2","8","",""
"","","","","","","","","","","","html-keyboard-response","48","2.0.0","445612","6718367356f7417faba214b3","1","9","null","","","","","","","","","<p style='font-size: 30px;'><strong>Okay</strong></p>","null","neutral_feedback","0","test","21","","","","","","","",""
"","","","","","","","","","","","html-button-response","49","2.0.0","449267","6718367356f7417faba214b3","1","9","3654","","","","","","","","","<img src= ""rock_img/I_Basalt_02.jpg"" style=""width:8cm; height:6.45cm;""><p>What type of rock is this?</p>","2","class_response","0","test","22","Diorite","Basalt","02","false","3","2","",""
"","","","","","","","","","","","html-keyboard-response","50","2.0.0","449768","6718367356f7417faba214b3","1","9","null","","","","","","","","","<p style='font-size: 30px;'><strong>Okay</strong></p>","null","neutral_feedback","0","test","22","","","","","","","",""
"","","","","","","","","","","","html-button-response","51","2.0.0","453004","6718367356f7417faba214b3","1","9","3234","","","","","","","","","<img src= ""rock_img/I_Pegmatite_15.jpg"" style=""width:8cm; height:6cm;""><p>What type of rock is this?</p>","7","class_response","0","test","23","Pumice","Pegmatite","15","false","8","6","",""
"","","","","","","","","","","","html-keyboard-response","52","2.0.0","453505","6718367356f7417faba214b3","1","9","null","","","","","","","","","<p style='font-size: 30px;'><strong>Okay</strong></p>","null","neutral_feedback","0","test","23","","","","","","","",""
"","","","","","","","","","","","html-button-response","53","2.0.0","455404","6718367356f7417faba214b3","1","9","1898","","","","","","","","","<img src= ""rock_img/I_Pumice_08.jpg"" style=""width:8cm; height:6.67cm;""><p>What type of rock is this?</p>","7","class_response","0","test","24","Pumice","Pumice","08","true","8","8","",""
"","","","","","","","","","","","html-keyboard-response","54","2.0.0","455907","6718367356f7417faba214b3","1","9","null","","","","","","","","","<p style='font-size: 30px;'><strong>Okay</strong></p>","null","neutral_feedback","0","test","24","","","","","","","",""
"","","","","","","","","","","","html-button-response","55","2.0.0","459021","6718367356f7417faba214b3","1","9","3112","","","","","","","","","<img src= ""rock_img/I_Peridotite_02.jpg"" style=""width:8cm; height:5.859999999999999cm;""><p>What type of rock is this?</p>","1","class_response","0","test","25","Basalt","Peridotite","02","false","2","7","",""
"","","","","","","","","","","","html-keyboard-response","56","2.0.0","459532","6718367356f7417faba214b3","1","9","null","","","","","","","","","<p style='font-size: 30px;'><strong>Okay</strong></p>","null","neutral_feedback","0","test","25","","","","","","","",""
"","","","","","","","","","","","html-button-response","57","2.0.0","461372","6718367356f7417faba214b3","1","9","1839","","","","","","","","","<img src= ""rock_img/I_Andesite_05.jpg"" style=""width:8cm; height:4.12cm;""><p>What type of rock is this?</p>","2","class_response","0","test","26","Diorite","Andesite","05","false","3","1","",""
"","","","","","","","","","","","html-keyboard-response","58","2.0.0","461883","6718367356f7417faba214b3","1","9","null","","","","","","","","","<p style='font-size: 30px;'><strong>Okay</strong></p>","null","neutral_feedback","0","test","26","","","","","","","",""
"","","","","","","","","","","","html-button-response","59","2.0.0","464836","6718367356f7417faba214b3","1","9","2952","","","","","","","","","<img src= ""rock_img/I_Andesite_03.jpg"" style=""width:8cm; height:5.73cm;""><p>What type of rock is this?</p>","5","class_response","0","test","27","Pegmatite","Andesite","03","false","6","1","",""
"","","","","","","","","","","","html-keyboard-response","60","2.0.0","465352","6718367356f7417faba214b3","1","9","null","","","","","","","","","<p style='font-size: 30px;'><strong>Okay</strong></p>","null","neutral_feedback","0","test","27","","","","","","","",""
"","","","","","","","","","","","html-button-response","61","2.0.0","470092","6718367356f7417faba214b3","1","9","4738","","","","","","","","","<img src= ""rock_img/I_Andesite_11.jpg"" style=""width:8cm; height:4.92cm;""><p>What type of rock is this?</p>","6","class_response","0","test","28","Peridotite","Andesite","11","false","7","1","",""
"","","","","","","","","","","","html-keyboard-response","62","2.0.0","470596","6718367356f7417faba214b3","1","9","null","","","","","","","","","<p style='font-size: 30px;'><strong>Okay</strong></p>","null","neutral_feedback","0","test","28","","","","","","","",""
"","","","","","","","","","","","html-button-response","63","2.0.0","472924","6718367356f7417faba214b3","1","9","2327","","","","","","","","","<img src= ""rock_img/I_Basalt_08.jpg"" style=""width:8cm; height:10.44cm;""><p>What type of rock is this?</p>","0","class_response","0","test","29","Andesite","Basalt","08","false","1","2","",""
"","","","","","","","","","","","html-keyboard-response","64","2.0.0","473436","6718367356f7417faba214b3","1","9","null","","","","","","","","","<p style='font-size: 30px;'><strong>Okay</strong></p>","null","neutral_feedback","0","test","29","","","","","","","",""
"","","","","","","","","","","","html-button-response","65","2.0.0","475341","6718367356f7417faba214b3","1","9","1903","","","","","","","","","<img src= ""rock_img/I_Pegmatite_05.jpg"" style=""width:8cm; height:7.300000000000001cm;""><p>What type of rock is this?</p>","4","class_response","0","test","30","Obsidian","Pegmatite","05","false","5","6","",""
"","","","","","","","","","","","html-keyboard-response","66","2.0.0","475848","6718367356f7417faba214b3","1","9","null","","","","","","","","","<p style='font-size: 30px;'><strong>Okay</strong></p>","null","neutral_feedback","0","test","30","","","","","","","",""
"","","","","","","","","","","","html-button-response","67","2.0.0","477508","6718367356f7417faba214b3","1","9","1659","","","","","","","","","<img src= ""rock_img/I_Obsidian_08.jpg"" style=""width:8cm; height:7.39cm;""><p>What type of rock is this?</p>","4","class_response","0","test","31","Obsidian","Obsidian","08","true","5","5","",""
"","","","","","","","","","","","html-keyboard-response","68","2.0.0","478010","6718367356f7417faba214b3","1","9","null","","","","","","","","","<p style='font-size: 30px;'><strong>Okay</strong></p>","null","neutral_feedback","0","test","31","","","","","","","",""
"","","","","","","","","","","","html-button-response","69","2.0.0","481716","6718367356f7417faba214b3","1","9","3705","","","","","","","","","<img src= ""rock_img/I_Gabbro_15.jpg"" style=""width:8cm; height:6.29cm;""><p>What type of rock is this?</p>","1","class_response","0","test","32","Basalt","Gabbro","15","false","2","4","",""
"","","","","","","","","","","","html-keyboard-response","70","2.0.0","482232","6718367356f7417faba214b3","1","9","null","","","","","","","","","<p style='font-size: 30px;'><strong>Okay</strong></p>","null","neutral_feedback","0","test","32","","","","","","","",""
"","","","","","","","","","","","html-button-response","71","2.0.0","484316","6718367356f7417faba214b3","1","9","2084","","","","","","","","","<img src= ""rock_img/I_Basalt_04.jpg"" style=""width:8cm; height:7.53cm;""><p>What type of rock is this?</p>","7","class_response","0","test","33","Pumice","Basalt","04","false","8","2","",""
"","","","","","","","","","","","html-keyboard-response","72","2.0.0","484817","6718367356f7417faba214b3","1","9","null","","","","","","","","","<p style='font-size: 30px;'><strong>Okay</strong></p>","null","neutral_feedback","0","test","33","","","","","","","",""
"","","","","","","","","","","","html-button-response","73","2.0.0","487124","6718367356f7417faba214b3","1","9","2306","","","","","","","","","<img src= ""rock_img/I_Gabbro_01.jpg"" style=""width:8cm; height:5.21cm;""><p>What type of rock is this?</p>","6","class_response","0","test","34","Peridotite","Gabbro","01","false","7","4","",""
"","","","","","","","","","","","html-keyboard-response","74","2.0.0","487628","6718367356f7417faba214b3","1","9","null","","","","","","","","","<p style='font-size: 30px;'><strong>Okay</strong></p>","null","neutral_feedback","0","test","34","","","","","","","",""
"","","","","","","","","","","","html-button-response","75","2.0.0","489683","6718367356f7417faba214b3","1","9","2054","","","","","","","","","<img src= ""rock_img/I_Diorite_11.jpg"" style=""width:8cm; height:7.11cm;""><p>What type of rock is this?</p>","2","class_response","0","test","35","Diorite","Diorite","11","true","3","3","",""
"","","","","","","","","","","","html-keyboard-response","76","2.0.0","490191","6718367356f7417faba214b3","1","9","null","","","","","","","","","<p style='font-size: 30px;'><strong>Okay</strong></p>","null","neutral_feedback","0","test","35","","","","","","","",""
"","","","","","","","","","","","html-button-response","77","2.0.0","491316","6718367356f7417faba214b3","1","9","1124","","","","","","","","","<img src= ""rock_img/I_Obsidian_04.jpg"" style=""width:8cm; height:6.930000000000001cm;""><p>What type of rock is this?</p>","4","class_response","0","test","36","Obsidian","Obsidian","04","true","5","5","",""
"","","","","","","","","","","","html-keyboard-response","78","2.0.0","491829","6718367356f7417faba214b3","1","9","null","","","","","","","","","<p style='font-size: 30px;'><strong>Okay</strong></p>","null","neutral_feedback","0","test","36","","","","","","","",""
"","","","","","","","","","","","html-button-response","79","2.0.0","494851","6718367356f7417faba214b3","1","9","3021","","","","","","","","","<img src= ""rock_img/I_Andesite_09.jpg"" style=""width:8cm; height:6cm;""><p>What type of rock is this?</p>","5","class_response","0","test","37","Pegmatite","Andesite","09","false","6","1","",""
"","","","","","","","","","","","html-keyboard-response","80","2.0.0","495355","6718367356f7417faba214b3","1","9","null","","","","","","","","","<p style='font-size: 30px;'><strong>Okay</strong></p>","null","neutral_feedback","0","test","37","","","","","","","",""
"","","","","","","","","","","","html-button-response","81","2.0.0","496460","6718367356f7417faba214b3","1","9","1104","","","","","","","","","<img src= ""rock_img/I_Basalt_12.jpg"" style=""width:8cm; height:6.010000000000001cm;""><p>What type of rock is this?</p>","5","class_response","0","test","38","Pegmatite","Basalt","12","false","6","2","",""
"","","","","","","","","","","","html-keyboard-response","82","2.0.0","496965","6718367356f7417faba214b3","1","9","null","","","","","","","","","<p style='font-size: 30px;'><strong>Okay</strong></p>","null","neutral_feedback","0","test","38","","","","","","","",""
"","","","","","","","","","","","html-button-response","83","2.0.0","498459","6718367356f7417faba214b3","1","9","1493","","","","","","","","","<img src= ""rock_img/I_Pegmatite_11.jpg"" style=""width:8cm; height:8.14cm;""><p>What type of rock is this?</p>","4","class_response","0","test","39","Obsidian","Pegmatite","11","false","5","6","",""
"","","","","","","","","","","","html-keyboard-response","84","2.0.0","498973","6718367356f7417faba214b3","1","9","null","","","","","","","","","<p style='font-size: 30px;'><strong>Okay</strong></p>","null","neutral_feedback","0","test","39","","","","","","","",""
"","","","","","","","","","","","html-button-response","85","2.0.0","500651","6718367356f7417faba214b3","1","9","1677","","","","","","","","","<img src= ""rock_img/I_Obsidian_05.jpg"" style=""width:8cm; height:6.33cm;""><p>What type of rock is this?</p>","4","class_response","0","test","40","Obsidian","Obsidian","05","true","5","5","",""
"","","","","","","","","","","","html-keyboard-response","86","2.0.0","501152","6718367356f7417faba214b3","1","9","null","","","","","","","","","<p style='font-size: 30px;'><strong>Okay</strong></p>","null","neutral_feedback","0","test","40","","","","","","","",""
"","","","","","","","","","","","html-button-response","87","2.0.0","502852","6718367356f7417faba214b3","1","9","1699","","","","","","","","","<img src= ""rock_img/I_Pumice_10.jpg"" style=""width:8cm; height:7.609999999999999cm;""><p>What type of rock is this?</p>","7","class_response","0","test","41","Pumice","Pumice","10","true","8","8","",""
"","","","","","","","","","","","html-keyboard-response","88","2.0.0","503353","6718367356f7417faba214b3","1","9","null","","","","","","","","","<p style='font-size: 30px;'><strong>Okay</strong></p>","null","neutral_feedback","0","test","41","","","","","","","",""
"","","","","","","","","","","","html-button-response","89","2.0.0","504820","6718367356f7417faba214b3","1","9","1465","","","","","","","","","<img src= ""rock_img/I_Pumice_13.jpg"" style=""width:8cm; height:8.200000000000001cm;""><p>What type of rock is this?</p>","1","class_response","0","test","42","Basalt","Pumice","13","false","2","8","",""
"","","","","","","","","","","","html-keyboard-response","90","2.0.0","505332","6718367356f7417faba214b3","1","9","null","","","","","","","","","<p style='font-size: 30px;'><strong>Okay</strong></p>","null","neutral_feedback","0","test","42","","","","","","","",""
"","","","","","","","","","","","html-button-response","91","2.0.0","507747","6718367356f7417faba214b3","1","9","2414","","","","","","","","","<img src= ""rock_img/I_Basalt_06.jpg"" style=""width:8cm; height:7.06cm;""><p>What type of rock is this?</p>","2","class_response","0","test","43","Diorite","Basalt","06","false","3","2","",""
"","","","","","","","","","","","html-keyboard-response","92","2.0.0","508250","6718367356f7417faba214b3","1","9","null","","","","","","","","","<p style='font-size: 30px;'><strong>Okay</strong></p>","null","neutral_feedback","0","test","43","","","","","","","",""
"","","","","","","","","","","","html-button-response","93","2.0.0","509755","6718367356f7417faba214b3","1","9","1504","","","","","","","","","<img src= ""rock_img/I_Obsidian_06.jpg"" style=""width:8cm; height:6.8cm;""><p>What type of rock is this?</p>","4","class_response","0","test","44","Obsidian","Obsidian","06","true","5","5","",""
"","","","","","","","","","","","html-keyboard-response","94","2.0.0","510270","6718367356f7417faba214b3","1","9","null","","","","","","","","","<p style='font-size: 30px;'><strong>Okay</strong></p>","null","neutral_feedback","0","test","44","","","","","","","",""
"","","","","","","","","","","","html-button-response","95","2.0.0","511780","6718367356f7417faba214b3","1","9","1509","","","","","","","","","<img src= ""rock_img/I_Diorite_13.jpg"" style=""width:8cm; height:6.29cm;""><p>What type of rock is this?</p>","1","class_response","0","test","45","Basalt","Diorite","13","false","2","3","",""
"","","","","","","","","","","","html-keyboard-response","96","2.0.0","512296","6718367356f7417faba214b3","1","9","null","","","","","","","","","<p style='font-size: 30px;'><strong>Okay</strong></p>","null","neutral_feedback","0","test","45","","","","","","","",""
"","","","","","","","","","","","html-button-response","97","2.0.0","514691","6718367356f7417faba214b3","1","9","2395","","","","","","","","","<img src= ""rock_img/I_Gabbro_12.jpg"" style=""width:8cm; height:7.800000000000001cm;""><p>What type of rock is this?</p>","3","class_response","0","test","46","Gabbro","Gabbro","12","true","4","4","",""
"","","","","","","","","","","","html-keyboard-response","98","2.0.0","515204","6718367356f7417faba214b3","1","9","null","","","","","","","","","<p style='font-size: 30px;'><strong>Okay</strong></p>","null","neutral_feedback","0","test","46","","","","","","","",""
"","","","","","","","","","","","html-button-response","99","2.0.0","519548","6718367356f7417faba214b3","1","9","4343","","","","","","","","","<img src= ""rock_img/I_Diorite_09.jpg"" style=""width:8cm; height:5.27cm;""><p>What type of rock is this?</p>","1","class_response","0","test","47","Basalt","Diorite","09","false","2","3","",""
"","","","","","","","","","","","html-keyboard-response","100","2.0.0","520050","6718367356f7417faba214b3","1","9","null","","","","","","","","","<p style='font-size: 30px;'><strong>Okay</strong></p>","null","neutral_feedback","0","test","47","","","","","","","",""
"","","","","","","","","","","","html-button-response","101","2.0.0","521964","6718367356f7417faba214b3","1","9","1913","","","","","","","","","<img src= ""rock_img/I_Andesite_14.jpg"" style=""width:8cm; height:5.449999999999999cm;""><p>What type of rock is this?</p>","2","class_response","0","test","48","Diorite","Andesite","14","false","3","1","",""
"","","","","","","","","","","","html-keyboard-response","102","2.0.0","522465","6718367356f7417faba214b3","1","9","null","","","","","","","","","<p style='font-size: 30px;'><strong>Okay</strong></p>","null","neutral_feedback","0","test","48","","","","","","","",""
"","","","","","","","","","","","instructions","103","2.0.0","545996","6718367356f7417faba214b3","1","9","23516","","","","","","","","[{""page_index"":0,""viewing_time"":13907},{""page_index"":1,""viewing_time"":4696},{""page_index"":2,""viewing_time"":4912}]","","","","","","","","","","","","","",""
"","","","","","","","","","","","html-button-response","104","2.0.0","548436","6718367356f7417faba214b3","1","9","2439","","","","","","","","","","0","start_train","","","","","","","","","","",""
"","","","","","","","","","","","html-button-response","105","2.0.0","553459","6718367356f7417faba214b3","1","9","5022","","","","","","","","","<img src= ""rock_img/I_Basalt_05.jpg"" style=""width:8cm; height:8.18cm;""><p>What type of rock is this?</p>","6","class_response","1","train","1","Peridotite","Basalt","05","false","7","2","",""
"","","","","","","","","","","","html-button-response","106","2.0.0","567172","6718367356f7417faba214b3","1","9","13712","","","","","","","","","<img src= rock_img/I_Basalt_05.jpg style=""width:8cm; height:8.18cm;""><p style='font-size: 30px; color: red;'><strong>Incorrect!</strong></p><p style='font-size: 30px;'><strong>This rock is basalt</strong></p>","0","corr_feedback","1","train","1","","","","","","","",""
"","","","","","","","","","","","html-button-response","107","2.0.0","568924","6718367356f7417faba214b3","1","9","1750","","","","","","","","","<img src= ""rock_img/I_Pegmatite_08.jpg"" style=""width:8cm; height:7.68cm;""><p>What type of rock is this?</p>","4","class_response","1","train","2","Obsidian","Pegmatite","08","false","5","6","",""
"","","","","","","","","","","","html-button-response","108","2.0.0","571085","6718367356f7417faba214b3","1","9","2160","","","","","","","","","<img src= rock_img/I_Pegmatite_08.jpg style=""width:8cm; height:7.68cm;""><p style='font-size: 30px; color: red;'><strong>Incorrect!</strong></p><p style='font-size: 30px;'><strong>This rock is pegmatite</strong></p>","0","corr_feedback","1","train","2","","","","","","","",""
"","","","","","","","","","","","html-button-response","109","2.0.0","577011","6718367356f7417faba214b3","1","9","5925","","","","","","","","","<img src= ""rock_img/I_Andesite_04.jpg"" style=""width:8cm; height:5.96cm;""><p>What type of rock is this?</p>","3","class_response","1","train","3","Gabbro","Andesite","04","false","4","1","",""
"","","","","","","","","","","","html-button-response","110","2.0.0","579267","6718367356f7417faba214b3","1","9","2255","","","","","","","","","<img src= rock_img/I_Andesite_04.jpg style=""width:8cm; height:5.96cm;""><p style='font-size: 30px; color: red;'><strong>Incorrect!</strong></p><p style='font-size: 30px;'><strong>This rock is andesite</strong></p>","0","corr_feedback","1","train","3","","","","","","","",""
"","","","","","","","","","","","html-button-response","111","2.0.0","580739","6718367356f7417faba214b3","1","9","1470","","","","","","","","","<img src= ""rock_img/I_Basalt_09.jpg"" style=""width:8cm; height:6.2cm;""><p>What type of rock is this?</p>","7","class_response","1","train","4","Pumice","Basalt","09","false","8","2","",""
"","","","","","","","","","","","html-button-response","112","2.0.0","581875","6718367356f7417faba214b3","1","9","1135","","","","","","","","","<img src= rock_img/I_Basalt_09.jpg style=""width:8cm; height:6.2cm;""><p style='font-size: 30px; color: red;'><strong>Incorrect!</strong></p><p style='font-size: 30px;'><strong>This rock is basalt</strong></p>","0","corr_feedback","1","train","4","","","","","","","",""
"","","","","","","","","","","","html-button-response","113","2.0.0","583515","6718367356f7417faba214b3","1","9","1639","","","","","","","","","<img src= ""rock_img/I_Diorite_12.jpg"" style=""width:8cm; height:4.88cm;""><p>What type of rock is this?</p>","5","class_response","1","train","5","Pegmatite","Diorite","12","false","6","3","",""
"","","","","","","","","","","","html-button-response","114","2.0.0","584500","6718367356f7417faba214b3","1","9","983","","","","","","","","","<img src= rock_img/I_Diorite_12.jpg style=""width:8cm; height:4.88cm;""><p style='font-size: 30px; color: red;'><strong>Incorrect!</strong></p><p style='font-size: 30px;'><strong>This rock is diorite</strong></p>","0","corr_feedback","1","train","5","","","","","","","",""
"","","","","","","","","","","","html-button-response","115","2.0.0","586955","6718367356f7417faba214b3","1","9","2455","","","","","","","","","<img src= ""rock_img/I_Pumice_04.jpg"" style=""width:8cm; height:6.819999999999999cm;""><p>What type of rock is this?</p>","1","class_response","1","train","6","Basalt","Pumice","04","false","2","8","",""
"","","","","","","","","","","","html-button-response","116","2.0.0","588244","6718367356f7417faba214b3","1","9","1287","","","","","","","","","<img src= rock_img/I_Pumice_04.jpg style=""width:8cm; height:6.819999999999999cm;""><p style='font-size: 30px; color: red;'><strong>Incorrect!</strong></p><p style='font-size: 30px;'><strong>This rock is pumice</strong></p>","0","corr_feedback","1","train","6","","","","","","","",""
"","","","","","","","","","","","html-button-response","117","2.0.0","590523","6718367356f7417faba214b3","1","9","2278","","","","","","","","","<img src= ""rock_img/I_Andesite_02.jpg"" style=""width:8cm; height:8.5cm;""><p>What type of rock is this?</p>","2","class_response","1","train","7","Diorite","Andesite","02","false","3","1","",""
"","","","","","","","","","","","html-button-response","118","2.0.0","591564","6718367356f7417faba214b3","1","9","1040","","","","","","","","","<img src= rock_img/I_Andesite_02.jpg style=""width:8cm; height:8.5cm;""><p style='font-size: 30px; color: red;'><strong>Incorrect!</strong></p><p style='font-size: 30px;'><strong>This rock is andesite</strong></p>","0","corr_feedback","1","train","7","","","","","","","",""
"","","","","","","","","","","","html-button-response","119","2.0.0","593251","6718367356f7417faba214b3","1","9","1686","","","","","","","","","<img src= ""rock_img/I_Peridotite_05.jpg"" style=""width:8cm; height:7.1499999999999995cm;""><p>What type of rock is this?</p>","6","class_response","1","train","8","Peridotite","Peridotite","05","true","7","7","",""
"","","","","","","","","","","","html-button-response","120","2.0.0","594756","6718367356f7417faba214b3","1","9","1504","","","","","","","","","<img src= rock_img/I_Peridotite_05.jpg style=""width:8cm; height:7.1499999999999995cm;""><p style='font-size: 30px; color: green;'><strong>Correct!</strong></p><p style='font-size: 30px;'><strong>This rock is peridotite</strong></p>","0","corr_feedback","1","train","8","","","","","","","",""
"","","","","","","","","","","","html-button-response","121","2.0.0","595891","6718367356f7417faba214b3","1","9","1134","","","","","","","","","<img src= ""rock_img/I_Obsidian_09.jpg"" style=""width:8cm; height:5cm;""><p>What type of rock is this?</p>","4","class_response","1","train","9","Obsidian","Obsidian","09","true","5","5","",""
"","","","","","","","","","","","html-button-response","122","2.0.0","596876","6718367356f7417faba214b3","1","9","983","","","","","","","","","<img src= rock_img/I_Obsidian_09.jpg style=""width:8cm; height:5cm;""><p style='font-size: 30px; color: green;'><strong>Correct!</strong></p><p style='font-size: 30px;'><strong>This rock is obsidian</strong></p>","0","corr_feedback","1","train","9","","","","","","","",""
"","","","","","","","","","","","html-button-response","123","2.0.0","598755","6718367356f7417faba214b3","1","9","1879","","","","","","","","","<img src= ""rock_img/I_Andesite_06.jpg"" style=""width:8cm; height:6.840000000000001cm;""><p>What type of rock is this?</p>","1","class_response","1","train","10","Basalt","Andesite","06","false","2","1","",""
"","","","","","","","","","","","html-button-response","124","2.0.0","599867","6718367356f7417faba214b3","1","9","1111","","","","","","","","","<img src= rock_img/I_Andesite_06.jpg style=""width:8cm; height:6.840000000000001cm;""><p style='font-size: 30px; color: red;'><strong>Incorrect!</strong></p><p style='font-size: 30px;'><strong>This rock is andesite</strong></p>","0","corr_feedback","1","train","10","","","","","","","",""
"","","","","","","","","","","","html-button-response","125","2.0.0","602212","6718367356f7417faba214b3","1","9","2343","","","","","","","","","<img src= ""rock_img/I_Gabbro_14.jpg"" style=""width:8cm; height:8.48cm;""><p>What type of rock is this?</p>","5","class_response","1","train","11","Pegmatite","Gabbro","14","false","6","4","",""
"","","","","","","","","","","","html-button-response","126","2.0.0","603332","6718367356f7417faba214b3","1","9","1119","","","","","","","","","<img src= rock_img/I_Gabbro_14.jpg style=""width:8cm; height:8.48cm;""><p style='font-size: 30px; color: red;'><strong>Incorrect!</strong></p><p style='font-size: 30px;'><strong>This rock is gabbro</strong></p>","0","corr_feedback","1","train","11","","","","","","","",""
"","","","","","","","","","","","html-button-response","127","2.0.0","604628","6718367356f7417faba214b3","1","9","1295","","","","","","","","","<img src= ""rock_img/I_Obsidian_10.jpg"" style=""width:8cm; height:6.260000000000001cm;""><p>What type of rock is this?</p>","4","class_response","1","train","12","Obsidian","Obsidian","10","true","5","5","",""
"","","","","","","","","","","","html-button-response","128","2.0.0","605404","6718367356f7417faba214b3","1","9","774","","","","","","","","","<img src= rock_img/I_Obsidian_10.jpg style=""width:8cm; height:6.260000000000001cm;""><p style='font-size: 30px; color: green;'><strong>Correct!</strong></p><p style='font-size: 30px;'><strong>This rock is obsidian</strong></p>","0","corr_feedback","1","train","12","","","","","","","",""
"","","","","","","","","","","","html-button-response","129","2.0.0","622811","6718367356f7417faba214b3","1","9","17406","","","","","","","","","<img src= ""rock_img/I_Pegmatite_09.jpg"" style=""width:8cm; height:4.03cm;""><p>What type of rock is this?</p>","6","class_response","1","train","13","Peridotite","Pegmatite","09","false","7","6","",""
"","","","","","","","","","","","html-button-response","130","2.0.0","623788","6718367356f7417faba214b3","1","9","976","","","","","","","","","<img src= rock_img/I_Pegmatite_09.jpg style=""width:8cm; height:4.03cm;""><p style='font-size: 30px; color: red;'><strong>Incorrect!</strong></p><p style='font-size: 30px;'><strong>This rock is pegmatite</strong></p>","0","corr_feedback","1","train","13","","","","","","","",""
"","","","","","","","","","","","html-button-response","131","2.0.0","625636","6718367356f7417faba214b3","1","9","1847","","","","","","","","","<img src= ""rock_img/I_Peridotite_04.jpg"" style=""width:8cm; height:6.680000000000001cm;""><p>What type of rock is this?</p>","2","class_response","1","train","14","Diorite","Peridotite","04","false","3","7","",""
"","","","","","","","","","","","html-button-response","132","2.0.0","626460","6718367356f7417faba214b3","1","9","823","","","","","","","","","<img src= rock_img/I_Peridotite_04.jpg style=""width:8cm; height:6.680000000000001cm;""><p style='font-size: 30px; color: red;'><strong>Incorrect!</strong></p><p style='font-size: 30px;'><strong>This rock is peridotite</strong></p>","0","corr_feedback","1","train","14","","","","","","","",""
"","","","","","","","","","","","html-button-response","133","2.0.0","628099","6718367356f7417faba214b3","1","9","1639","","","","","","","","","<img src= ""rock_img/I_Basalt_01.jpg"" style=""width:8cm; height:7.880000000000001cm;""><p>What type of rock is this?</p>","1","class_response","1","train","15","Basalt","Basalt","01","true","2","2","",""
"","","","","","","","","","","","html-button-response","134","2.0.0","628820","6718367356f7417faba214b3","1","9","719","","","","","","","","","<img src= rock_img/I_Basalt_01.jpg style=""width:8cm; height:7.880000000000001cm;""><p style='font-size: 30px; color: green;'><strong>Correct!</strong></p><p style='font-size: 30px;'><strong>This rock is basalt</strong></p>","0","corr_feedback","1","train","15","","","","","","","",""
"","","","","","","","","","","","html-button-response","135","2.0.0","630243","6718367356f7417faba214b3","1","9","1422","","","","","","","","","<img src= ""rock_img/I_Gabbro_08.jpg"" style=""width:8cm; height:5.15cm;""><p>What type of rock is this?</p>","1","class_response","1","train","16","Basalt","Gabbro","08","false","2","4","",""
"","","","","","","","","","","","html-button-response","136","2.0.0","631139","6718367356f7417faba214b3","1","9","896","","","","","","","","","<img src= rock_img/I_Gabbro_08.jpg style=""width:8cm; height:5.15cm;""><p style='font-size: 30px; color: red;'><strong>Incorrect!</strong></p><p style='font-size: 30px;'><strong>This rock is gabbro</strong></p>","0","corr_feedback","1","train","16","","","","","","","",""
"","","","","","","","","","","","html-button-response","137","2.0.0","632315","6718367356f7417faba214b3","1","9","1175","","","","","","","","","<img src= ""rock_img/I_Basalt_10.jpg"" style=""width:8cm; height:5.85cm;""><p>What type of rock is this?</p>","3","class_response","1","train","17","Gabbro","Basalt","10","false","4","2","",""
"","","","","","","","","","","","html-button-response","138","2.0.0","633211","6718367356f7417faba214b3","1","9","895","","","","","","","","","<img src= rock_img/I_Basalt_10.jpg style=""width:8cm; height:5.85cm;""><p style='font-size: 30px; color: red;'><strong>Incorrect!</strong></p><p style='font-size: 30px;'><strong>This rock is basalt</strong></p>","0","corr_feedback","1","train","17","","","","","","","",""
"","","","","","","","","","","","html-button-response","139","2.0.0","634595","6718367356f7417faba214b3","1","9","1383","","","","","","","","","<img src= ""rock_img/I_Peridotite_06.jpg"" style=""width:8cm; height:7.53cm;""><p>What type of rock is this?</p>","1","class_response","1","train","18","Basalt","Peridotite","06","false","2","7","",""
"","","","","","","","","","","","html-button-response","140","2.0.0","635323","6718367356f7417faba214b3","1","9","727","","","","","","","","","<img src= rock_img/I_Peridotite_06.jpg style=""width:8cm; height:7.53cm;""><p style='font-size: 30px; color: red;'><strong>Incorrect!</strong></p><p style='font-size: 30px;'><strong>This rock is peridotite</strong></p>","0","corr_feedback","1","train","18","","","","","","","",""
"","","","","","","","","","","","html-button-response","141","2.0.0","636347","6718367356f7417faba214b3","1","9","1022","","","","","","","","","<img src= ""rock_img/I_Obsidian_07.jpg"" style=""width:8cm; height:4.76cm;""><p>What type of rock is this?</p>","4","class_response","1","train","19","Obsidian","Obsidian","07","true","5","5","",""
"","","","","","","","","","","","html-button-response","142","2.0.0","636867","6718367356f7417faba214b3","1","9","519","","","","","","","","","<img src= rock_img/I_Obsidian_07.jpg style=""width:8cm; height:4.76cm;""><p style='font-size: 30px; color: green;'><strong>Correct!</strong></p><p style='font-size: 30px;'><strong>This rock is obsidian</strong></p>","0","corr_feedback","1","train","19","","","","","","","",""
"","","","","","","","","","","","html-button-response","143","2.0.0","638155","6718367356f7417faba214b3","1","9","1287","","","","","","","","","<img src= ""rock_img/I_Pumice_09.jpg"" style=""width:8cm; height:6.44cm;""><p>What type of rock is this?</p>","7","class_response","1","train","20","Pumice","Pumice","09","true","8","8","",""
"","","","","","","","","","","","html-button-response","144","2.0.0","638795","6718367356f7417faba214b3","1","9","639","","","","","","","","","<img src= rock_img/I_Pumice_09.jpg style=""width:8cm; height:6.44cm;""><p style='font-size: 30px; color: green;'><strong>Correct!</strong></p><p style='font-size: 30px;'><strong>This rock is pumice</strong></p>","0","corr_feedback","1","train","20","","","","","","","",""
"","","","","","","","","","","","html-button-response","145","2.0.0","640132","6718367356f7417faba214b3","1","9","1335","","","","","","","","","<img src= ""rock_img/I_Pumice_05.jpg"" style=""width:8cm; height:7.25cm;""><p>What type of rock is this?</p>","7","class_response","1","train","21","Pumice","Pumice","05","true","8","8","",""
"","","","","","","","","","","","html-button-response","146","2.0.0","640740","6718367356f7417faba214b3","1","9","607","","","","","","","","","<img src= rock_img/I_Pumice_05.jpg style=""width:8cm; height:7.25cm;""><p style='font-size: 30px; color: green;'><strong>Correct!</strong></p><p style='font-size: 30px;'><strong>This rock is pumice</strong></p>","0","corr_feedback","1","train","21","","","","","","","",""
"","","","","","","","","","","","html-button-response","147","2.0.0","644475","6718367356f7417faba214b3","1","9","3734","","","","","","","","","<img src= ""rock_img/I_Pegmatite_03.jpg"" style=""width:8cm; height:5.239999999999999cm;""><p>What type of rock is this?</p>","0","class_response","1","train","22","Andesite","Pegmatite","03","false","1","6","",""
"","","","","","","","","","","","html-button-response","148","2.0.0","645388","6718367356f7417faba214b3","1","9","912","","","","","","","","","<img src= rock_img/I_Pegmatite_03.jpg style=""width:8cm; height:5.239999999999999cm;""><p style='font-size: 30px; color: red;'><strong>Incorrect!</strong></p><p style='font-size: 30px;'><strong>This rock is pegmatite</strong></p>","0","corr_feedback","1","train","22","","","","","","","",""
"","","","","","","","","","","","html-button-response","149","2.0.0","647323","6718367356f7417faba214b3","1","9","1934","","","","","","","","","<img src= ""rock_img/I_Andesite_01.jpg"" style=""width:8cm; height:5.87cm;""><p>What type of rock is this?</p>","5","class_response","1","train","23","Pegmatite","Andesite","01","false","6","1","",""
"","","","","","","","","","","","html-button-response","150","2.0.0","648028","6718367356f7417faba214b3","1","9","703","","","","","","","","","<img src= rock_img/I_Andesite_01.jpg style=""width:8cm; height:5.87cm;""><p style='font-size: 30px; color: red;'><strong>Incorrect!</strong></p><p style='font-size: 30px;'><strong>This rock is andesite</strong></p>","0","corr_feedback","1","train","23","","","","","","","",""
"","","","","","","","","","","","html-button-response","151","2.0.0","650259","6718367356f7417faba214b3","1","9","2230","","","","","","","","","<img src= ""rock_img/I_Andesite_16.jpg"" style=""width:8cm; height:6.010000000000001cm;""><p>What type of rock is this?</p>","6","class_response","1","train","24","Peridotite","Andesite","16","false","7","1","",""
"","","","","","","","","","","","html-button-response","152","2.0.0","651156","6718367356f7417faba214b3","1","9","896","","","","","","","","","<img src= rock_img/I_Andesite_16.jpg style=""width:8cm; height:6.010000000000001cm;""><p style='font-size: 30px; color: red;'><strong>Incorrect!</strong></p><p style='font-size: 30px;'><strong>This rock is andesite</strong></p>","0","corr_feedback","1","train","24","","","","","","","",""
"","","","","","","","","","","","html-button-response","153","2.0.0","652371","6718367356f7417faba214b3","1","9","1214","","","","","","","","","<img src= ""rock_img/I_Diorite_06.jpg"" style=""width:8cm; height:6.03cm;""><p>What type of rock is this?</p>","0","class_response","1","train","25","Andesite","Diorite","06","false","1","3","",""
"","","","","","","","","","","","html-button-response","154","2.0.0","653068","6718367356f7417faba214b3","1","9","696","","","","","","","","","<img src= rock_img/I_Diorite_06.jpg style=""width:8cm; height:6.03cm;""><p style='font-size: 30px; color: red;'><strong>Incorrect!</strong></p><p style='font-size: 30px;'><strong>This rock is diorite</strong></p>","0","corr_feedback","1","train","25","","","","","","","",""
"","","","","","","","","","","","html-button-response","155","2.0.0","656891","6718367356f7417faba214b3","1","9","3822","","","","","","","","","<img src= ""rock_img/I_Diorite_15.jpg"" style=""width:8cm; height:5.54cm;""><p>What type of rock is this?</p>","3","class_response","1","train","26","Gabbro","Diorite","15","false","4","3","",""
"","","","","","","","","","","","html-button-response","156","2.0.0","657652","6718367356f7417faba214b3","1","9","760","","","","","","","","","<img src= rock_img/I_Diorite_15.jpg style=""width:8cm; height:5.54cm;""><p style='font-size: 30px; color: red;'><strong>Incorrect!</strong></p><p style='font-size: 30px;'><strong>This rock is diorite</strong></p>","0","corr_feedback","1","train","26","","","","","","","",""
"","","","","","","","","","","","html-button-response","157","2.0.0","659587","6718367356f7417faba214b3","1","9","1934","","","","","","","","","<img src= ""rock_img/I_Gabbro_03.jpg"" style=""width:8cm; height:8.52cm;""><p>What type of rock is this?</p>","2","class_response","1","train","27","Diorite","Gabbro","03","false","3","4","",""
"","","","","","","","","","","","html-button-response","158","2.0.0","660363","6718367356f7417faba214b3","1","9","775","","","","","","","","","<img src= rock_img/I_Gabbro_03.jpg style=""width:8cm; height:8.52cm;""><p style='font-size: 30px; color: red;'><strong>Incorrect!</strong></p><p style='font-size: 30px;'><strong>This rock is gabbro</strong></p>","0","corr_feedback","1","train","27","","","","","","","",""
"","","","","","","","","","","","html-button-response","159","2.0.0","661939","6718367356f7417faba214b3","1","9","1575","","","","","","","","","<img src= ""rock_img/I_Pegmatite_16.jpg"" style=""width:8cm; height:5.8cm;""><p>What type of rock is this?</p>","4","class_response","1","train","28","Obsidian","Pegmatite","16","false","5","6","",""
"","","","","","","","","","","","html-button-response","160","2.0.0","663147","6718367356f7417faba214b3","1","9","1207","","","","","","","","","<img src= rock_img/I_Pegmatite_16.jpg style=""width:8cm; height:5.8cm;""><p style='font-size: 30px; color: red;'><strong>Incorrect!</strong></p><p style='font-size: 30px;'><strong>This rock is pegmatite</strong></p>","0","corr_feedback","1","train","28","","","","","","","",""
"","","","","","","","","","","","html-button-response","161","2.0.0","664188","6718367356f7417faba214b3","1","9","1039","","","","","","","","","<img src= ""rock_img/I_Obsidian_16.jpg"" style=""width:8cm; height:9.3cm;""><p>What type of rock is this?</p>","4","class_response","1","train","29","Obsidian","Obsidian","16","true","5","5","",""
"","","","","","","","","","","","html-button-response","162","2.0.0","664731","6718367356f7417faba214b3","1","9","542","","","","","","","","","<img src= rock_img/I_Obsidian_16.jpg style=""width:8cm; height:9.3cm;""><p style='font-size: 30px; color: green;'><strong>Correct!</strong></p><p style='font-size: 30px;'><strong>This rock is obsidian</strong></p>","0","corr_feedback","1","train","29","","","","","","","",""
"","","","","","","","","","","","html-button-response","163","2.0.0","666596","6718367356f7417faba214b3","1","9","1863","","","","","","","","","<img src= ""rock_img/I_Pumice_02.jpg"" style=""width:8cm; height:7.3999999999999995cm;""><p>What type of rock is this?</p>","7","class_response","1","train","30","Pumice","Pumice","02","true","8","8","",""
"","","","","","","","","","","","html-button-response","164","2.0.0","667315","6718367356f7417faba214b3","1","9","718","","","","","","","","","<img src= rock_img/I_Pumice_02.jpg style=""width:8cm; height:7.3999999999999995cm;""><p style='font-size: 30px; color: green;'><strong>Correct!</strong></p><p style='font-size: 30px;'><strong>This rock is pumice</strong></p>","0","corr_feedback","1","train","30","","","","","","","",""
"","","","","","","","","","","","html-button-response","165","2.0.0","669684","6718367356f7417faba214b3","1","9","2367","","","","","","","","","<img src= ""rock_img/I_Gabbro_05.jpg"" style=""width:8cm; height:6cm;""><p>What type of rock is this?</p>","5","class_response","1","train","31","Pegmatite","Gabbro","05","false","6","4","",""
"","","","","","","","","","","","html-button-response","166","2.0.0","670420","6718367356f7417faba214b3","1","9","735","","","","","","","","","<img src= rock_img/I_Gabbro_05.jpg style=""width:8cm; height:6cm;""><p style='font-size: 30px; color: red;'><strong>Incorrect!</strong></p><p style='font-size: 30px;'><strong>This rock is gabbro</strong></p>","0","corr_feedback","1","train","31","","","","","","","",""
"","","","","","","","","","","","html-button-response","167","2.0.0","672412","6718367356f7417faba214b3","1","9","1991","","","","","","","","","<img src= ""rock_img/I_Peridotite_15.jpg"" style=""width:8cm; height:6cm;""><p>What type of rock is this?</p>","2","class_response","1","train","32","Diorite","Peridotite","15","false","3","7","",""
"","","","","","","","","","","","html-button-response","168","2.0.0","673028","6718367356f7417faba214b3","1","9","616","","","","","","","","","<img src= rock_img/I_Peridotite_15.jpg style=""width:8cm; height:6cm;""><p style='font-size: 30px; color: red;'><strong>Incorrect!</strong></p><p style='font-size: 30px;'><strong>This rock is peridotite</strong></p>","0","corr_feedback","1","train","32","","","","","","","",""
"","","","","","","","","","","","html-button-response","169","2.0.0","674251","6718367356f7417faba214b3","1","9","1222","","","","","","","","","<img src= ""rock_img/I_Andesite_10.jpg"" style=""width:8cm; height:4.16cm;""><p>What type of rock is this?</p>","6","class_response","1","train","33","Peridotite","Andesite","10","false","7","1","",""
"","","","","","","","","","","","html-button-response","170","2.0.0","674756","6718367356f7417faba214b3","1","9","504","","","","","","","","","<img src= rock_img/I_Andesite_10.jpg style=""width:8cm; height:4.16cm;""><p style='font-size: 30px; color: red;'><strong>Incorrect!</strong></p><p style='font-size: 30px;'><strong>This rock is andesite</strong></p>","0","corr_feedback","1","train","33","","","","","","","",""
"","","","","","","","","","","","html-button-response","171","2.0.0","675635","6718367356f7417faba214b3","1","9","878","","","","","","","","","<img src= ""rock_img/I_Diorite_14.jpg"" style=""width:8cm; height:5.71cm;""><p>What type of rock is this?</p>","1","class_response","1","train","34","Basalt","Diorite","14","false","2","3","",""
"","","","","","","","","","","","html-button-response","172","2.0.0","676549","6718367356f7417faba214b3","1","9","912","","","","","","","","","<img src= rock_img/I_Diorite_14.jpg style=""width:8cm; height:5.71cm;""><p style='font-size: 30px; color: red;'><strong>Incorrect!</strong></p><p style='font-size: 30px;'><strong>This rock is diorite</strong></p>","0","corr_feedback","1","train","34","","","","","","","",""
"","","","","","","","","","","","html-button-response","173","2.0.0","677452","6718367356f7417faba214b3","1","9","902","","","","","","","","","<img src= ""rock_img/I_Peridotite_08.jpg"" style=""width:8cm; height:6.7cm;""><p>What type of rock is this?</p>","5","class_response","1","train","35","Pegmatite","Peridotite","08","false","6","7","",""
"","","","","","","","","","","","html-button-response","174","2.0.0","678020","6718367356f7417faba214b3","1","9","568","","","","","","","","","<img src= rock_img/I_Peridotite_08.jpg style=""width:8cm; height:6.7cm;""><p style='font-size: 30px; color: red;'><strong>Incorrect!</strong></p><p style='font-size: 30px;'><strong>This rock is peridotite</strong></p>","0","corr_feedback","1","train","35","","","","","","","",""
"","","","","","","","","","","","html-button-response","175","2.0.0","679331","6718367356f7417faba214b3","1","9","1310","","","","","","","","","<img src= ""rock_img/I_Diorite_16.jpg"" style=""width:8cm; height:6.74cm;""><p>What type of rock is this?</p>","2","class_response","1","train","36","Diorite","Diorite","16","true","3","3","",""
"","","","","","","","","","","","html-button-response","176","2.0.0","680140","6718367356f7417faba214b3","1","9","808","","","","","","","","","<img src= rock_img/I_Diorite_16.jpg style=""width:8cm; height:6.74cm;""><p style='font-size: 30px; color: green;'><strong>Correct!</strong></p><p style='font-size: 30px;'><strong>This rock is diorite</strong></p>","0","corr_feedback","1","train","36","","","","","","","",""
"","","","","","","","","","","","html-button-response","177","2.0.0","680747","6718367356f7417faba214b3","1","9","606","","","","","","","","","<img src= ""rock_img/I_Gabbro_09.jpg"" style=""width:8cm; height:7.279999999999999cm;""><p>What type of rock is this?</p>","2","class_response","1","train","37","Diorite","Gabbro","09","false","3","4","",""
"","","","","","","","","","","","html-button-response","178","2.0.0","681316","6718367356f7417faba214b3","1","9","568","","","","","","","","","<img src= rock_img/I_Gabbro_09.jpg style=""width:8cm; height:7.279999999999999cm;""><p style='font-size: 30px; color: red;'><strong>Incorrect!</strong></p><p style='font-size: 30px;'><strong>This rock is gabbro</strong></p>","0","corr_feedback","1","train","37","","","","","","","",""
"","","","","","","","","","","","html-button-response","179","2.0.0","681780","6718367356f7417faba214b3","1","9","463","","","","","","","","","<img src= ""rock_img/I_Pegmatite_12.jpg"" style=""width:8cm; height:5.7cm;""><p>What type of rock is this?</p>","6","class_response","1","train","38","Peridotite","Pegmatite","12","false","7","6","",""
"","","","","","","","","","","","html-button-response","180","2.0.0","682275","6718367356f7417faba214b3","1","9","494","","","","","","","","","<img src= rock_img/I_Pegmatite_12.jpg style=""width:8cm; height:5.7cm;""><p style='font-size: 30px; color: red;'><strong>Incorrect!</strong></p><p style='font-size: 30px;'><strong>This rock is pegmatite</strong></p>","0","corr_feedback","1","train","38","","","","","","","",""
"","","","","","","","","","","","html-button-response","181","2.0.0","682908","6718367356f7417faba214b3","1","9","631","","","","","","","","","<img src= ""rock_img/I_Peridotite_13.jpg"" style=""width:8cm; height:7.58cm;""><p>What type of rock is this?</p>","3","class_response","1","train","39","Gabbro","Peridotite","13","false","4","7","",""
"","","","","","","","","","","","html-button-response","182","2.0.0","683403","6718367356f7417faba214b3","1","9","495","","","","","","","","","<img src= rock_img/I_Peridotite_13.jpg style=""width:8cm; height:7.58cm;""><p style='font-size: 30px; color: red;'><strong>Incorrect!</strong></p><p style='font-size: 30px;'><strong>This rock is peridotite</strong></p>","0","corr_feedback","1","train","39","","","","","","","",""
"","","","","","","","","","","","html-button-response","183","2.0.0","684347","6718367356f7417faba214b3","1","9","943","","","","","","","","","<img src= ""rock_img/I_Diorite_02.jpg"" style=""width:8cm; height:6.27cm;""><p>What type of rock is this?</p>","1","class_response","1","train","40","Basalt","Diorite","02","false","2","3","",""
"","","","","","","","","","","","html-button-response","184","2.0.0","684820","6718367356f7417faba214b3","1","9","472","","","","","","","","","<img src= rock_img/I_Diorite_02.jpg style=""width:8cm; height:6.27cm;""><p style='font-size: 30px; color: red;'><strong>Incorrect!</strong></p><p style='font-size: 30px;'><strong>This rock is diorite</strong></p>","0","corr_feedback","1","train","40","","","","","","","",""
"","","","","","","","","","","","html-button-response","185","2.0.0","685396","6718367356f7417faba214b3","1","9","575","","","","","","","","","<img src= ""rock_img/I_Pegmatite_07.jpg"" style=""width:8cm; height:6.7cm;""><p>What type of rock is this?</p>","5","class_response","1","train","41","Pegmatite","Pegmatite","07","true","6","6","",""
"","","","","","","","","","","","html-button-response","186","2.0.0","686116","6718367356f7417faba214b3","1","9","719","","","","","","","","","<img src= rock_img/I_Pegmatite_07.jpg style=""width:8cm; height:6.7cm;""><p style='font-size: 30px; color: green;'><strong>Correct!</strong></p><p style='font-size: 30px;'><strong>This rock is pegmatite</strong></p>","0","corr_feedback","1","train","41","","","","","","","",""
"","","","","","","","","","","","html-button-response","187","2.0.0","687083","6718367356f7417faba214b3","1","9","966","","","","","","","","","<img src= ""rock_img/I_Obsidian_12.jpg"" style=""width:8cm; height:6.53cm;""><p>What type of rock is this?</p>","4","class_response","1","train","42","Obsidian","Obsidian","12","true","5","5","",""
"","","","","","","","","","","","html-button-response","188","2.0.0","687547","6718367356f7417faba214b3","1","9","463","","","","","","","","","<img src= rock_img/I_Obsidian_12.jpg style=""width:8cm; height:6.53cm;""><p style='font-size: 30px; color: green;'><strong>Correct!</strong></p><p style='font-size: 30px;'><strong>This rock is obsidian</strong></p>","0","corr_feedback","1","train","42","","","","","","","",""
"","","","","","","","","","","","html-button-response","189","2.0.0","688763","6718367356f7417faba214b3","1","9","1215","","","","","","","","","<img src= ""rock_img/I_Pumice_14.jpg"" style=""width:8cm; height:6.39cm;""><p>What type of rock is this?</p>","7","class_response","1","train","43","Pumice","Pumice","14","true","8","8","",""
"","","","","","","","","","","","html-button-response","190","2.0.0","689235","6718367356f7417faba214b3","1","9","471","","","","","","","","","<img src= rock_img/I_Pumice_14.jpg style=""width:8cm; height:6.39cm;""><p style='font-size: 30px; color: green;'><strong>Correct!</strong></p><p style='font-size: 30px;'><strong>This rock is pumice</strong></p>","0","corr_feedback","1","train","43","","","","","","","",""
"","","","","","","","","","","","html-button-response","191","2.0.0","690924","6718367356f7417faba214b3","1","9","1687","","","","","","","","","<img src= ""rock_img/I_Basalt_16.jpg"" style=""width:8cm; height:7.659999999999999cm;""><p>What type of rock is this?</p>","3","class_response","1","train","44","Gabbro","Basalt","16","false","4","2","",""
"","","","","","","","","","","","html-button-response","192","2.0.0","691779","6718367356f7417faba214b3","1","9","855","","","","","","","","","<img src= rock_img/I_Basalt_16.jpg style=""width:8cm; height:7.659999999999999cm;""><p style='font-size: 30px; color: red;'><strong>Incorrect!</strong></p><p style='font-size: 30px;'><strong>This rock is basalt</strong></p>","0","corr_feedback","1","train","44","","","","","","","",""
"","","","","","","","","","","","html-button-response","193","2.0.0","695611","6718367356f7417faba214b3","1","9","3831","","","","","","","","","<img src= ""rock_img/I_Pumice_16.jpg"" style=""width:8cm; height:6.79cm;""><p>What type of rock is this?</p>","2","class_response","1","train","45","Diorite","Pumice","16","false","3","8","",""
"","","","","","","","","","","","html-button-response","194","2.0.0","696427","6718367356f7417faba214b3","1","9","815","","","","","","","","","<img src= rock_img/I_Pumice_16.jpg style=""width:8cm; height:6.79cm;""><p style='font-size: 30px; color: red;'><strong>Incorrect!</strong></p><p style='font-size: 30px;'><strong>This rock is pumice</strong></p>","0","corr_feedback","1","train","45","","","","","","","",""
"","","","","","","","","","","","html-button-response","195","2.0.0","700172","6718367356f7417faba214b3","1","9","3743","","","","","","","","","<img src= ""rock_img/I_Gabbro_11.jpg"" style=""width:8cm; height:6.2cm;""><p>What type of rock is this?</p>","1","class_response","1","train","46","Basalt","Gabbro","11","false","2","4","",""
"","","","","","","","","","","","html-button-response","196","2.0.0","700828","6718367356f7417faba214b3","1","9","656","","","","","","","","","<img src= rock_img/I_Gabbro_11.jpg style=""width:8cm; height:6.2cm;""><p style='font-size: 30px; color: red;'><strong>Incorrect!</strong></p><p style='font-size: 30px;'><strong>This rock is gabbro</strong></p>","0","corr_feedback","1","train","46","","","","","","","",""
"","","","","","","","","","","","html-button-response","197","2.0.0","701741","6718367356f7417faba214b3","1","9","912","","","","","","","","","<img src= ""rock_img/I_Obsidian_02.jpg"" style=""width:8cm; height:7.51cm;""><p>What type of rock is this?</p>","4","class_response","1","train","47","Obsidian","Obsidian","02","true","5","5","",""
"","","","","","","","","","","","html-button-response","198","2.0.0","702508","6718367356f7417faba214b3","1","9","765","","","","","","","","","<img src= rock_img/I_Obsidian_02.jpg style=""width:8cm; height:7.51cm;""><p style='font-size: 30px; color: green;'><strong>Correct!</strong></p><p style='font-size: 30px;'><strong>This rock is obsidian</strong></p>","0","corr_feedback","1","train","47","","","","","","","",""
"","","","","","","","","","","","html-button-response","199","2.0.0","706436","6718367356f7417faba214b3","1","9","3927","","","","","","","","","<img src= ""rock_img/I_Basalt_11.jpg"" style=""width:8cm; height:5.359999999999999cm;""><p>What type of rock is this?</p>","7","class_response","1","train","48","Pumice","Basalt","11","false","8","2","",""
"","","","","","","","","","","","html-button-response","200","2.0.0","707068","6718367356f7417faba214b3","1","9","631","","","","","","","","","<img src= rock_img/I_Basalt_11.jpg style=""width:8cm; height:5.359999999999999cm;""><p style='font-size: 30px; color: red;'><strong>Incorrect!</strong></p><p style='font-size: 30px;'><strong>This rock is basalt</strong></p>","0","corr_feedback","1","train","48","","","","","","","",""
"","","","","","","","","","","","instructions","203","2.0.0","715548","6718367356f7417faba214b3","1","9","8479","","","","","","","","[{""page_index"":0,""viewing_time"":3343},{""page_index"":1,""viewing_time"":5136}]","","","","","","","","","","","","","",""
"","","","","","","","","","","","html-button-response","204","2.0.0","716820","6718367356f7417faba214b3","1","9","1271","","","","","","","","","","0","start_test","","","","","","","","","","",""
"","","","","","","","","","","","html-button-response","205","2.0.0","717916","6718367356f7417faba214b3","1","9","1095","","","","","","","","","<img src= ""rock_img/I_Obsidian_04.jpg"" style=""width:8cm; height:6.930000000000001cm;""><p>What type of rock is this?</p>","4","class_response","1","test","1","Obsidian","Obsidian","04","true","5","5","",""
"","","","","","","","","","","","html-keyboard-response","206","2.0.0","718429","6718367356f7417faba214b3","1","9","null","","","","","","","","","<p style='font-size: 30px;'><strong>Okay</strong></p>","null","neutral_feedback","1","test","1","","","","","","","",""
"","","","","","","","","","","","html-button-response","207","2.0.0","775164","6718367356f7417faba214b3","1","9","56733","","","","","","","","","<img src= ""rock_img/I_Basalt_04.jpg"" style=""width:8cm; height:7.53cm;""><p>What type of rock is this?</p>","1","class_response","1","test","2","Basalt","Basalt","04","true","2","2","",""
"","","","","","","","","","","","html-keyboard-response","208","2.0.0","775676","6718367356f7417faba214b3","1","9","null","","","","","","","","","<p style='font-size: 30px;'><strong>Okay</strong></p>","null","neutral_feedback","1","test","2","","","","","","","",""
"","","","","","","","","","","","html-button-response","209","2.0.0","805469","6718367356f7417faba214b3","1","9","29792","","","","","","","","","<img src= ""rock_img/I_Basalt_08.jpg"" style=""width:8cm; height:10.44cm;""><p>What type of rock is this?</p>","1","class_response","1","test","3","Basalt","Basalt","08","true","2","2","",""
"","","","","","","","","","","","html-keyboard-response","210","2.0.0","805972","6718367356f7417faba214b3","1","9","null","","","","","","","","","<p style='font-size: 30px;'><strong>Okay</strong></p>","null","neutral_feedback","1","test","3","","","","","","","",""
"","","","","","","","","","","","html-button-response","211","2.0.0","815564","6718367356f7417faba214b3","1","9","9591","","","","","","","","","<img src= ""rock_img/I_Peridotite_07.jpg"" style=""width:8cm; height:4.83cm;""><p>What type of rock is this?</p>","2","class_response","1","test","4","Diorite","Peridotite","07","false","3","7","",""
"","","","","","","","","","","","html-keyboard-response","212","2.0.0","816075","6718367356f7417faba214b3","1","9","null","","","","","","","","","<p style='font-size: 30px;'><strong>Okay</strong></p>","null","neutral_feedback","1","test","4","","","","","","","",""
"","","","","","","","","","","","html-button-response","213","2.0.0","822981","6718367356f7417faba214b3","1","9","6905","","","","","","","","","<img src= ""rock_img/I_Andesite_03.jpg"" style=""width:8cm; height:5.73cm;""><p>What type of rock is this?</p>","6","class_response","1","test","5","Peridotite","Andesite","03","false","7","1","",""
"","","","","","","","","","","","html-keyboard-response","214","2.0.0","823485","6718367356f7417faba214b3","1","9","null","","","","","","","","","<p style='font-size: 30px;'><strong>Okay</strong></p>","null","neutral_feedback","1","test","5","","","","","","","",""
"","","","","","","","","","","","html-button-response","215","2.0.0","971444","6718367356f7417faba214b3","1","9","147958","","","","","","","","","<img src= ""rock_img/I_Pumice_03.jpg"" style=""width:8cm; height:6.64cm;""><p>What type of rock is this?</p>","7","class_response","1","test","6","Pumice","Pumice","03","true","8","8","",""
"","","","","","","","","","","","html-keyboard-response","216","2.0.0","971946","6718367356f7417faba214b3","1","9","null","","","","","","","","","<p style='font-size: 30px;'><strong>Okay</strong></p>","null","neutral_feedback","1","test","6","","","","","","","",""
"","","","","","","","","","","","html-button-response","217","2.0.0","981444","6718367356f7417faba214b3","1","9","9497","","","","","","","","","<img src= ""rock_img/I_Peridotite_14.jpg"" style=""width:8cm; height:5.3cm;""><p>What type of rock is this?</p>","5","class_response","1","test","7","Pegmatite","Peridotite","14","false","6","7","",""
"","","","","","","","","","","","html-keyboard-response","218","2.0.0","981948","6718367356f7417faba214b3","1","9","null","","","","","","","","","<p style='font-size: 30px;'><strong>Okay</strong></p>","null","neutral_feedback","1","test","7","","","","","","","",""
"","","","","","","","","","","","html-button-response","219","2.0.0","990356","6718367356f7417faba214b3","1","9","8407","","","","","","","","","<img src= ""rock_img/I_Andesite_14.jpg"" style=""width:8cm; height:5.449999999999999cm;""><p>What type of rock is this?</p>","0","class_response","1","test","8","Andesite","Andesite","14","true","1","1","",""
"","","","","","","","","","","","html-keyboard-response","220","2.0.0","990869","6718367356f7417faba214b3","1","9","null","","","","","","","","","<p style='font-size: 30px;'><strong>Okay</strong></p>","null","neutral_feedback","1","test","8","","","","","","","",""
"","","","","","","","","","","","html-button-response","221","2.0.0","995036","6718367356f7417faba214b3","1","9","4166","","","","","","","","","<img src= ""rock_img/I_Andesite_07.jpg"" style=""width:8cm; height:5.93cm;""><p>What type of rock is this?</p>","6","class_response","1","test","9","Peridotite","Andesite","07","false","7","1","",""
"","","","","","","","","","","","html-keyboard-response","222","2.0.0","995539","6718367356f7417faba214b3","1","9","null","","","","","","","","","<p style='font-size: 30px;'><strong>Okay</strong></p>","null","neutral_feedback","1","test","9","","","","","","","",""
"","","","","","","","","","","","html-button-response","223","2.0.0","1002988","6718367356f7417faba214b3","1","9","7448","","","","","","","","","<img src= ""rock_img/I_Diorite_08.jpg"" style=""width:8cm; height:6.37cm;""><p>What type of rock is this?</p>","2","class_response","1","test","10","Diorite","Diorite","08","true","3","3","",""
"","","","","","","","","","","","html-keyboard-response","224","2.0.0","1003504","6718367356f7417faba214b3","1","9","null","","","","","","","","","<p style='font-size: 30px;'><strong>Okay</strong></p>","null","neutral_feedback","1","test","10","","","","","","","",""
"","","","","","","","","","","","html-button-response","225","2.0.0","1233492","6718367356f7417faba214b3","1","9","229986","","","","","","","","","<img src= ""rock_img/I_Pegmatite_10.jpg"" style=""width:8cm; height:4.16cm;""><p>What type of rock is this?</p>","6","class_response","1","test","11","Peridotite","Pegmatite","10","false","7","6","",""
"","","","","","","","","","","","html-keyboard-response","226","2.0.0","1233995","6718367356f7417faba214b3","1","9","null","","","","","","","","","<p style='font-size: 30px;'><strong>Okay</strong></p>","null","neutral_feedback","1","test","11","","","","","","","",""
"","","","","","","","","","","","html-button-response","227","2.0.0","1237276","6718367356f7417faba214b3","1","9","3280","","","","","","","","","<img src= ""rock_img/I_Obsidian_06.jpg"" style=""width:8cm; height:6.8cm;""><p>What type of rock is this?</p>","4","class_response","1","test","12","Obsidian","Obsidian","06","true","5","5","",""
"","","","","","","","","","","","html-keyboard-response","228","2.0.0","1237784","6718367356f7417faba214b3","1","9","null","","","","","","","","","<p style='font-size: 30px;'><strong>Okay</strong></p>","null","neutral_feedback","1","test","12","","","","","","","",""
"","","","","","","","","","","","html-button-response","229","2.0.0","1262924","6718367356f7417faba214b3","1","9","25138","","","","","","","","","<img src= ""rock_img/I_Pumice_10.jpg"" style=""width:8cm; height:7.609999999999999cm;""><p>What type of rock is this?</p>","7","class_response","1","test","13","Pumice","Pumice","10","true","8","8","",""
"","","","","","","","","","","","html-keyboard-response","230","2.0.0","1263428","6718367356f7417faba214b3","1","9","null","","","","","","","","","<p style='font-size: 30px;'><strong>Okay</strong></p>","null","neutral_feedback","1","test","13","","","","","","","",""
"","","","","","","","","","","","html-button-response","231","2.0.0","1264644","6718367356f7417faba214b3","1","9","1215","","","","","","","","","<img src= ""rock_img/I_Obsidian_08.jpg"" style=""width:8cm; height:7.39cm;""><p>What type of rock is this?</p>","4","class_response","1","test","14","Obsidian","Obsidian","08","true","5","5","",""
"","","","","","","","","","","","html-keyboard-response","232","2.0.0","1265147","6718367356f7417faba214b3","1","9","null","","","","","","","","","<p style='font-size: 30px;'><strong>Okay</strong></p>","null","neutral_feedback","1","test","14","","","","","","","",""
"","","","","","","","","","","","html-button-response","233","2.0.0","1351668","6718367356f7417faba214b3","1","9","86519","","","","","","","","","<img src= ""rock_img/I_Pegmatite_15.jpg"" style=""width:8cm; height:6cm;""><p>What type of rock is this?</p>","5","class_response","1","test","15","Pegmatite","Pegmatite","15","true","6","6","",""
"","","","","","","","","","","","html-keyboard-response","234","2.0.0","1352175","6718367356f7417faba214b3","1","9","null","","","","","","","","","<p style='font-size: 30px;'><strong>Okay</strong></p>","null","neutral_feedback","1","test","15","","","","","","","",""
"","","","","","","","","","","","html-button-response","235","2.0.0","1431387","6718367356f7417faba214b3","1","9","79212","","","","","","","","","<img src= ""rock_img/I_Diorite_09.jpg"" style=""width:8cm; height:5.27cm;""><p>What type of rock is this?</p>","5","class_response","1","test","16","Pegmatite","Diorite","09","false","6","3","",""
"","","","","","","","","","","","html-keyboard-response","236","2.0.0","1431888","6718367356f7417faba214b3","1","9","null","","","","","","","","","<p style='font-size: 30px;'><strong>Okay</strong></p>","null","neutral_feedback","1","test","16","","","","","","","",""
"","","","","","","","","","","","html-button-response","237","2.0.0","1463092","6718367356f7417faba214b3","1","9","31203","","","","","","","","","<img src= ""rock_img/I_Pumice_08.jpg"" style=""width:8cm; height:6.67cm;""><p>What type of rock is this?</p>","7","class_response","1","test","17","Pumice","Pumice","08","true","8","8","",""
"","","","","","","","","","","","html-keyboard-response","238","2.0.0","1463593","6718367356f7417faba214b3","1","9","null","","","","","","","","","<p style='font-size: 30px;'><strong>Okay</strong></p>","null","neutral_feedback","1","test","17","","","","","","","",""
"","","","","","","","","","","","html-button-response","239","2.0.0","1491347","6718367356f7417faba214b3","1","9","27753","","","","","","","","","<img src= ""rock_img/I_Diorite_13.jpg"" style=""width:8cm; height:6.29cm;""><p>What type of rock is this?</p>","2","class_response","1","test","18","Diorite","Diorite","13","true","3","3","",""
"","","","","","","","","","","","html-keyboard-response","240","2.0.0","1491851","6718367356f7417faba214b3","1","9","null","","","","","","","","","<p style='font-size: 30px;'><strong>Okay</strong></p>","null","neutral_feedback","1","test","18","","","","","","","",""
"","","","","","","","","","","","html-button-response","241","2.0.0","1517395","6718367356f7417faba214b3","1","9","25543","","","","","","","","","<img src= ""rock_img/I_Gabbro_01.jpg"" style=""width:8cm; height:5.21cm;""><p>What type of rock is this?</p>","2","class_response","1","test","19","Diorite","Gabbro","01","false","3","4","",""
"","","","","","","","","","","","html-keyboard-response","242","2.0.0","1517909","6718367356f7417faba214b3","1","9","null","","","","","","","","","<p style='font-size: 30px;'><strong>Okay</strong></p>","null","neutral_feedback","1","test","19","","","","","","","",""
"","","","","","","","","","","","html-button-response","243","2.0.0","1786356","6718367356f7417faba214b3","1","9","268444","","","","","","","","","<img src= ""rock_img/I_Andesite_05.jpg"" style=""width:8cm; height:4.12cm;""><p>What type of rock is this?</p>","1","class_response","1","test","20","Basalt","Andesite","05","false","2","1","",""
"","","","","","","","","","","","html-keyboard-response","244","2.0.0","1786860","6718367356f7417faba214b3","1","9","null","","","","","","","","","<p style='font-size: 30px;'><strong>Okay</strong></p>","null","neutral_feedback","1","test","20","","","","","","","",""
"","","","","","","","","","","","html-button-response","245","2.0.0","1884155","6718367356f7417faba214b3","1","9","97295","","","","","","","","","<img src= ""rock_img/I_Gabbro_15.jpg"" style=""width:8cm; height:6.29cm;""><p>What type of rock is this?</p>","2","class_response","1","test","21","Diorite","Gabbro","15","false","3","4","",""
"","","","","","","","","","","","html-keyboard-response","246","2.0.0","1884663","6718367356f7417faba214b3","1","9","null","","","","","","","","","<p style='font-size: 30px;'><strong>Okay</strong></p>","null","neutral_feedback","1","test","21","","","","","","","",""
"","","","","","","","","","","","html-button-response","247","2.0.0","1959931","6718367356f7417faba214b3","1","9","75267","","","","","","","","","<img src= ""rock_img/I_Peridotite_02.jpg"" style=""width:8cm; height:5.859999999999999cm;""><p>What type of rock is this?</p>","1","class_response","1","test","22","Basalt","Peridotite","02","false","2","7","",""
"","","","","","","","","","","","html-keyboard-response","248","2.0.0","1960435","6718367356f7417faba214b3","1","9","null","","","","","","","","","<p style='font-size: 30px;'><strong>Okay</strong></p>","null","neutral_feedback","1","test","22","","","","","","","",""
"","","","","","","","","","","","html-button-response","249","2.0.0","2242156","6718367356f7417faba214b3","1","9","281720","","","","","","","","","<img src= ""rock_img/I_Gabbro_10.jpg"" style=""width:8cm; height:5.680000000000001cm;""><p>What type of rock is this?</p>","0","class_response","1","test","23","Andesite","Gabbro","10","false","1","4","",""
"","","","","","","","","","","","html-keyboard-response","250","2.0.0","2242657","6718367356f7417faba214b3","1","9","null","","","","","","","","","<p style='font-size: 30px;'><strong>Okay</strong></p>","null","neutral_feedback","1","test","23","","","","","","","",""
"","","","","","","","","","","","html-button-response","251","2.0.0","2244476","6718367356f7417faba214b3","1","9","1817","","","","","","","","","<img src= ""rock_img/I_Gabbro_13.jpg"" style=""width:8cm; height:5.08cm;""><p>What type of rock is this?</p>","2","class_response","1","test","24","Diorite","Gabbro","13","false","3","4","",""
"","","","","","","","","","","","html-keyboard-response","252","2.0.0","2244991","6718367356f7417faba214b3","1","9","null","","","","","","","","","<p style='font-size: 30px;'><strong>Okay</strong></p>","null","neutral_feedback","1","test","24","","","","","","","",""
"","","","","","","","","","","","html-button-response","253","2.0.0","2247908","6718367356f7417faba214b3","1","9","2916","","","","","","","","","<img src= ""rock_img/I_Diorite_10.jpg"" style=""width:8cm; height:5.949999999999999cm;""><p>What type of rock is this?</p>","6","class_response","1","test","25","Peridotite","Diorite","10","false","7","3","",""
"","","","","","","","","","","","html-keyboard-response","254","2.0.0","2248424","6718367356f7417faba214b3","1","9","null","","","","","","","","","<p style='font-size: 30px;'><strong>Okay</strong></p>","null","neutral_feedback","1","test","25","","","","","","","",""
"","","","","","","","","","","","html-button-response","255","2.0.0","2250532","6718367356f7417faba214b3","1","9","2106","","","","","","","","","<img src= ""rock_img/I_Andesite_11.jpg"" style=""width:8cm; height:4.92cm;""><p>What type of rock is this?</p>","1","class_response","1","test","26","Basalt","Andesite","11","false","2","1","",""
"","","","","","","","","","","","html-keyboard-response","256","2.0.0","2251034","6718367356f7417faba214b3","1","9","null","","","","","","","","","<p style='font-size: 30px;'><strong>Okay</strong></p>","null","neutral_feedback","1","test","26","","","","","","","",""
"","","","","","","","","","","","html-button-response","257","2.0.0","2252012","6718367356f7417faba214b3","1","9","977","","","","","","","","","<img src= ""rock_img/I_Gabbro_12.jpg"" style=""width:8cm; height:7.800000000000001cm;""><p>What type of rock is this?</p>","1","class_response","1","test","27","Basalt","Gabbro","12","false","2","4","",""
"","","","","","","","","","","","html-keyboard-response","258","2.0.0","2252522","6718367356f7417faba214b3","1","9","null","","","","","","","","","<p style='font-size: 30px;'><strong>Okay</strong></p>","null","neutral_feedback","1","test","27","","","","","","","",""
"","","","","","","","","","","","html-button-response","259","2.0.0","2258364","6718367356f7417faba214b3","1","9","5840","","","","","","","","","<img src= ""rock_img/I_Diorite_07.jpg"" style=""width:8cm; height:5.239999999999999cm;""><p>What type of rock is this?</p>","0","class_response","1","test","28","Andesite","Diorite","07","false","1","3","",""
"","","","","","","","","","","","html-keyboard-response","260","2.0.0","2258873","6718367356f7417faba214b3","1","9","null","","","","","","","","","<p style='font-size: 30px;'><strong>Okay</strong></p>","null","neutral_feedback","1","test","28","","","","","","","",""
"","","","","","","","","","","","html-button-response","261","2.0.0","2260292","6718367356f7417faba214b3","1","9","1419","","","","","","","","","<img src= ""rock_img/I_Pegmatite_11.jpg"" style=""width:8cm; height:8.14cm;""><p>What type of rock is this?</p>","4","class_response","1","test","29","Obsidian","Pegmatite","11","false","5","6","",""
"","","","","","","","","","","","html-keyboard-response","262","2.0.0","2260795","6718367356f7417faba214b3","1","9","null","","","","","","","","","<p style='font-size: 30px;'><strong>Okay</strong></p>","null","neutral_feedback","1","test","29","","","","","","","",""
"","","","","","","","","","","","html-button-response","263","2.0.0","2262846","6718367356f7417faba214b3","1","9","2050","","","","","","","","","<img src= ""rock_img/I_Diorite_11.jpg"" style=""width:8cm; height:7.11cm;""><p>What type of rock is this?</p>","2","class_response","1","test","30","Diorite","Diorite","11","true","3","3","",""
"","","","","","","","","","","","html-keyboard-response","264","2.0.0","2263356","6718367356f7417faba214b3","1","9","null","","","","","","","","","<p style='font-size: 30px;'><strong>Okay</strong></p>","null","neutral_feedback","1","test","30","","","","","","","",""
"","","","","","","","","","","","html-button-response","265","2.0.0","2281420","6718367356f7417faba214b3","1","9","18062","","","","","","","","","<img src= ""rock_img/I_Peridotite_16.jpg"" style=""width:8cm; height:6.989999999999999cm;""><p>What type of rock is this?</p>","5","class_response","1","test","31","Pegmatite","Peridotite","16","false","6","7","",""
"","","","","","","","","","","","html-keyboard-response","266","2.0.0","2281931","6718367356f7417faba214b3","1","9","null","","","","","","","","","<p style='font-size: 30px;'><strong>Okay</strong></p>","null","neutral_feedback","1","test","31","","","","","","","",""
"","","","","","","","","","","","html-button-response","267","2.0.0","2286044","6718367356f7417faba214b3","1","9","4112","","","","","","","","","<img src= ""rock_img/I_Pumice_06.jpg"" style=""width:8cm; height:6.9399999999999995cm;""><p>What type of rock is this?</p>","7","class_response","1","test","32","Pumice","Pumice","06","true","8","8","",""
"","","","","","","","","","","","html-keyboard-response","268","2.0.0","2286552","6718367356f7417faba214b3","1","9","null","","","","","","","","","<p style='font-size: 30px;'><strong>Okay</strong></p>","null","neutral_feedback","1","test","32","","","","","","","",""
"","","","","","","","","","","","html-button-response","269","2.0.0","2288796","6718367356f7417faba214b3","1","9","2242","","","","","","","","","<img src= ""rock_img/I_Basalt_06.jpg"" style=""width:8cm; height:7.06cm;""><p>What type of rock is this?</p>","1","class_response","1","test","33","Basalt","Basalt","06","true","2","2","",""
"","","","","","","","","","","","html-keyboard-response","270","2.0.0","2289309","6718367356f7417faba214b3","1","9","null","","","","","","","","","<p style='font-size: 30px;'><strong>Okay</strong></p>","null","neutral_feedback","1","test","33","","","","","","","",""
"","","","","","","","","","","","html-button-response","271","2.0.0","2292484","6718367356f7417faba214b3","1","9","3173","","","","","","","","","<img src= ""rock_img/I_Peridotite_10.jpg"" style=""width:8cm; height:5.390000000000001cm;""><p>What type of rock is this?</p>","6","class_response","1","test","34","Peridotite","Peridotite","10","true","7","7","",""
"","","","","","","","","","","","html-keyboard-response","272","2.0.0","2292986","6718367356f7417faba214b3","1","9","null","","","","","","","","","<p style='font-size: 30px;'><strong>Okay</strong></p>","null","neutral_feedback","1","test","34","","","","","","","",""
"","","","","","","","","","","","html-button-response","273","2.0.0","2294196","6718367356f7417faba214b3","1","9","1208","","","","","","","","","<img src= ""rock_img/I_Pegmatite_05.jpg"" style=""width:8cm; height:7.300000000000001cm;""><p>What type of rock is this?</p>","4","class_response","1","test","35","Obsidian","Pegmatite","05","false","5","6","",""
"","","","","","","","","","","","html-keyboard-response","274","2.0.0","2294711","6718367356f7417faba214b3","1","9","null","","","","","","","","","<p style='font-size: 30px;'><strong>Okay</strong></p>","null","neutral_feedback","1","test","35","","","","","","","",""
"","","","","","","","","","","","html-button-response","275","2.0.0","2297035","6718367356f7417faba214b3","1","9","2324","","","","","","","","","<img src= ""rock_img/I_Pumice_13.jpg"" style=""width:8cm; height:8.200000000000001cm;""><p>What type of rock is this?</p>","3","class_response","1","test","36","Gabbro","Pumice","13","false","4","8","",""
"","","","","","","","","","","","html-keyboard-response","276","2.0.0","2297540","6718367356f7417faba214b3","1","9","null","","","","","","","","","<p style='font-size: 30px;'><strong>Okay</strong></p>","null","neutral_feedback","1","test","36","","","","","","","",""
"","","","","","","","","","","","html-button-response","277","2.0.0","2298900","6718367356f7417faba214b3","1","9","1359","","","","","","","","","<img src= ""rock_img/I_Gabbro_16.jpg"" style=""width:8cm; height:6.44cm;""><p>What type of rock is this?</p>","3","class_response","1","test","37","Gabbro","Gabbro","16","true","4","4","",""
"","","","","","","","","","","","html-keyboard-response","278","2.0.0","2299411","6718367356f7417faba214b3","1","9","null","","","","","","","","","<p style='font-size: 30px;'><strong>Okay</strong></p>","null","neutral_feedback","1","test","37","","","","","","","",""
"","","","","","","","","","","","html-button-response","279","2.0.0","2302708","6718367356f7417faba214b3","1","9","3295","","","","","","","","","<img src= ""rock_img/I_Pegmatite_06.jpg"" style=""width:8cm; height:5.17cm;""><p>What type of rock is this?</p>","6","class_response","1","test","38","Peridotite","Pegmatite","06","false","7","6","",""
"","","","","","","","","","","","html-keyboard-response","280","2.0.0","2303211","6718367356f7417faba214b3","1","9","null","","","","","","","","","<p style='font-size: 30px;'><strong>Okay</strong></p>","null","neutral_feedback","1","test","38","","","","","","","",""
"","","","","","","","","","","","html-button-response","281","2.0.0","2304556","6718367356f7417faba214b3","1","9","1343","","","","","","","","","<img src= ""rock_img/I_Basalt_02.jpg"" style=""width:8cm; height:6.45cm;""><p>What type of rock is this?</p>","1","class_response","1","test","39","Basalt","Basalt","02","true","2","2","",""
"","","","","","","","","","","","html-keyboard-response","282","2.0.0","2305063","6718367356f7417faba214b3","1","9","null","","","","","","","","","<p style='font-size: 30px;'><strong>Okay</strong></p>","null","neutral_feedback","1","test","39","","","","","","","",""
"","","","","","","","","","","","html-button-response","283","2.0.0","2306964","6718367356f7417faba214b3","1","9","1900","","","","","","","","","<img src= ""rock_img/I_Andesite_09.jpg"" style=""width:8cm; height:6cm;""><p>What type of rock is this?</p>","2","class_response","1","test","40","Diorite","Andesite","09","false","3","1","",""
"","","","","","","","","","","","html-keyboard-response","284","2.0.0","2307468","6718367356f7417faba214b3","1","9","null","","","","","","","","","<p style='font-size: 30px;'><strong>Okay</strong></p>","null","neutral_feedback","1","test","40","","","","","","","",""
"","","","","","","","","","","","html-button-response","285","2.0.0","2311915","6718367356f7417faba214b3","1","9","4447","","","","","","","","","<img src= ""rock_img/I_Pegmatite_13.jpg"" style=""width:8cm; height:4.95cm;""><p>What type of rock is this?</p>","0","class_response","1","test","41","Andesite","Pegmatite","13","false","1","6","",""
"","","","","","","","","","","","html-keyboard-response","286","2.0.0","2312417","6718367356f7417faba214b3","1","9","null","","","","","","","","","<p style='font-size: 30px;'><strong>Okay</strong></p>","null","neutral_feedback","1","test","41","","","","","","","",""
"","","","","","","","","","","","html-button-response","287","2.0.0","2313772","6718367356f7417faba214b3","1","9","1354","","","","","","","","","<img src= ""rock_img/I_Obsidian_05.jpg"" style=""width:8cm; height:6.33cm;""><p>What type of rock is this?</p>","4","class_response","1","test","42","Obsidian","Obsidian","05","true","5","5","",""
"","","","","","","","","","","","html-keyboard-response","288","2.0.0","2314275","6718367356f7417faba214b3","1","9","null","","","","","","","","","<p style='font-size: 30px;'><strong>Okay</strong></p>","null","neutral_feedback","1","test","42","","","","","","","",""
"","","","","","","","","","","","html-button-response","289","2.0.0","2317460","6718367356f7417faba214b3","1","9","3184","","","","","","","","","<img src= ""rock_img/I_Basalt_12.jpg"" style=""width:8cm; height:6.010000000000001cm;""><p>What type of rock is this?</p>","2","class_response","1","test","43","Diorite","Basalt","12","false","3","2","",""
"","","","","","","","","","","","html-keyboard-response","290","2.0.0","2317972","6718367356f7417faba214b3","1","9","null","","","","","","","","","<p style='font-size: 30px;'><strong>Okay</strong></p>","null","neutral_feedback","1","test","43","","","","","","","",""
"","","","","","","","","","","","html-button-response","291","2.0.0","2319820","6718367356f7417faba214b3","1","9","1847","","","","","","","","","<img src= ""rock_img/I_Obsidian_14.jpg"" style=""width:8cm; height:7.64cm;""><p>What type of rock is this?</p>","4","class_response","1","test","44","Obsidian","Obsidian","14","true","5","5","",""
"","","","","","","","","","","","html-keyboard-response","292","2.0.0","2320336","6718367356f7417faba214b3","1","9","null","","","","","","","","","<p style='font-size: 30px;'><strong>Okay</strong></p>","null","neutral_feedback","1","test","44","","","","","","","",""
"","","","","","","","","","","","html-button-response","293","2.0.0","2326652","6718367356f7417faba214b3","1","9","6314","","","","","","","","","<img src= ""rock_img/I_Peridotite_12.jpg"" style=""width:8cm; height:4.54cm;""><p>What type of rock is this?</p>","6","class_response","1","test","45","Peridotite","Peridotite","12","true","7","7","",""
"","","","","","","","","","","","html-keyboard-response","294","2.0.0","2327162","6718367356f7417faba214b3","1","9","null","","","","","","","","","<p style='font-size: 30px;'><strong>Okay</strong></p>","null","neutral_feedback","1","test","45","","","","","","","",""
"","","","","","","","","","","","html-button-response","295","2.0.0","2331931","6718367356f7417faba214b3","1","9","4768","","","","","","","","","<img src= ""rock_img/I_Basalt_14.jpg"" style=""width:8cm; height:5.82cm;""><p>What type of rock is this?</p>","3","class_response","1","test","46","Gabbro","Basalt","14","false","4","2","",""
"","","","","","","","","","","","html-keyboard-response","296","2.0.0","2332445","6718367356f7417faba214b3","1","9","null","","","","","","","","","<p style='font-size: 30px;'><strong>Okay</strong></p>","null","neutral_feedback","1","test","46","","","","","","","",""
"","","","","","","","","","","","html-button-response","297","2.0.0","2333661","6718367356f7417faba214b3","1","9","1215","","","","","","","","","<img src= ""rock_img/I_Pumice_15.jpg"" style=""width:8cm; height:7.86cm;""><p>What type of rock is this?</p>","7","class_response","1","test","47","Pumice","Pumice","15","true","8","8","",""
"","","","","","","","","","","","html-keyboard-response","298","2.0.0","2334162","6718367356f7417faba214b3","1","9","null","","","","","","","","","<p style='font-size: 30px;'><strong>Okay</strong></p>","null","neutral_feedback","1","test","47","","","","","","","",""
"","","","","","","","","","","","html-button-response","299","2.0.0","2335388","6718367356f7417faba214b3","1","9","1226","","","","","","","","","<img src= ""rock_img/I_Obsidian_11.jpg"" style=""width:8cm; height:6.05cm;""><p>What type of rock is this?</p>","4","class_response","1","test","48","Obsidian","Obsidian","11","true","5","5","",""
"","","","","","","","","","","","html-keyboard-response","300","2.0.0","2335891","6718367356f7417faba214b3","1","9","null","","","","","","","","","<p style='font-size: 30px;'><strong>Okay</strong></p>","null","neutral_feedback","1","test","48","","","","","","","",""
"","","","","","","","","","","","html-button-response","301","2.0.0","2344460","6718367356f7417faba214b3","1","9","","","","","","","","","","","","cycle_feedback","","","","","","","","","","6742.400000035763","1823.7999999523163"
"","","","","","","","","","","","html-button-response","303","2.0.0","2345380","6718367356f7417faba214b3","1","9","919","","","","","","","","","","0","start_train","","","","","","","","","","",""
"","","","","","","","","","","","html-button-response","304","2.0.0","2346427","6718367356f7417faba214b3","1","9","1046","","","","","","","","","<img src= ""rock_img/I_Gabbro_14.jpg"" style=""width:8cm; height:8.48cm;""><p>What type of rock is this?</p>","2","class_response","2","train","1","Diorite","Gabbro","14","false","3","4","",""
"","","","","","","","","","","","html-button-response","305","2.0.0","2347403","6718367356f7417faba214b3","1","9","975","","","","","","","","","<img src= rock_img/I_Gabbro_14.jpg style=""width:8cm; height:8.48cm;""><p style='font-size: 30px; color: red;'><strong>Incorrect!</strong></p><p style='font-size: 30px;'><strong>This rock is gabbro</strong></p>","0","corr_feedback","2","train","1","","","","","","","",""
