"width","height","webaudio","browser","browser_version","mobile","os","fullscreen","vsync_rate","webcam","microphone","trial_type","trial_index","plugin_version","time_elapsed","subjID","condition","stimID","rt","url","success","value","timeout","failed_images","failed_audio","failed_video","view_history","stimulus","response","trialType","cycle","phase","trial","resp","cat","token","corr","resp_num","cat_num","time_fb1","time_fb2"
"1173","509","true","chrome","131.0.0","false","Windows 10","true","60.77","true","true","browser-check","0","2.0.0","997","55b3120cfdf99b6ef6263a71","1","23","","","","","","","","","","","","","","","","","","","","","","",""
"","","","","","","","","","","","external-html","1","2.0.0","2000348","55b3120cfdf99b6ef6263a71","1","23","1999259","consent_form.html","","","","","","","","","","","","","","","","","","","","",""
"","","","","","","","","","","","fullscreen","2","2.0.0","2003540","55b3120cfdf99b6ef6263a71","1","23","2174","","true","","","","","","","","","","","","","","","","","","","",""
"","","","","","","","","","","","call-function","3","2.0.0","2003543","55b3120cfdf99b6ef6263a71","1","23","","","","{}","","","","","","","","","","","","","","","","","","",""
"","","","","","","","","","","","preload","4","2.0.0","2007447","55b3120cfdf99b6ef6263a71","1","23","","","true","","false","[]","[]","[]","","","","","","","","","","","","","","",""
"","","","","","","","","","","","instructions","5","2.0.0","2687404","55b3120cfdf99b6ef6263a71","1","23","679955","","","","","","","","[{""page_index"":0,""viewing_time"":7374},{""page_index"":1,""viewing_time"":661470},{""page_index"":2,""viewing_time"":11111}]","","","","","","","","","","","","","",""
"","","","","","","","","","","","html-button-response","6","2.0.0","2689215","55b3120cfdf99b6ef6263a71","1","23","1808","","","","","","","","","","0","start_test","","","","","","","","","","",""
"","","","","","","","","","","","html-button-response","7","2.0.0","2698783","55b3120cfdf99b6ef6263a71","1","23","9565","","","","","","","","","<img src= ""rock_img/I_Diorite_12.jpg"" style=""width:8cm; height:4.88cm;""><p>What type of rock is this?</p>","3","class_response","0","test","1","Gabbro","Diorite","12","false","4","3","",""
"","","","","","","","","","","","html-keyboard-response","8","2.0.0","2699287","55b3120cfdf99b6ef6263a71","1","23","null","","","","","","","","","<p style='font-size: 30px;'><strong>Okay</strong></p>","null","neutral_feedback","0","test","1","","","","","","","",""
"","","","","","","","","","","","html-button-response","9","2.0.0","2705261","55b3120cfdf99b6ef6263a71","1","23","5971","","","","","","","","","<img src= ""rock_img/I_Pegmatite_13.jpg"" style=""width:8cm; height:4.95cm;""><p>What type of rock is this?</p>","2","class_response","0","test","2","Diorite","Pegmatite","13","false","3","6","",""
"","","","","","","","","","","","html-keyboard-response","10","2.0.0","2705773","55b3120cfdf99b6ef6263a71","1","23","null","","","","","","","","","<p style='font-size: 30px;'><strong>Okay</strong></p>","null","neutral_feedback","0","test","2","","","","","","","",""
"","","","","","","","","","","","html-button-response","11","2.0.0","2714330","55b3120cfdf99b6ef6263a71","1","23","8555","","","","","","","","","<img src= ""rock_img/I_Obsidian_14.jpg"" style=""width:8cm; height:7.64cm;""><p>What type of rock is this?</p>","5","class_response","0","test","3","Pegmatite","Obsidian","14","false","6","5","",""
"","","","","","","","","","","","html-keyboard-response","12","2.0.0","2714844","55b3120cfdf99b6ef6263a71","1","23","null","","","","","","","","","<p style='font-size: 30px;'><strong>Okay</strong></p>","null","neutral_feedback","0","test","3","","","","","","","",""
"","","","","","","","","","","","html-button-response","13","2.0.0","2721663","55b3120cfdf99b6ef6263a71","1","23","6816","","","","","","","","","<img src= ""rock_img/I_Andesite_09.jpg"" style=""width:8cm; height:6cm;""><p>What type of rock is this?</p>","0","class_response","0","test","4","Andesite","Andesite","09","true","1","1","",""
"","","","","","","","","","","","html-keyboard-response","14","2.0.0","2722175","55b3120cfdf99b6ef6263a71","1","23","null","","","","","","","","","<p style='font-size: 30px;'><strong>Okay</strong></p>","null","neutral_feedback","0","test","4","","","","","","","",""
"","","","","","","","","","","","html-button-response","15","2.0.0","2730782","55b3120cfdf99b6ef6263a71","1","23","8606","","","","","","","","","<img src= ""rock_img/I_Pegmatite_08.jpg"" style=""width:8cm; height:7.68cm;""><p>What type of rock is this?</p>","5","class_response","0","test","5","Pegmatite","Pegmatite","08","true","6","6","",""
"","","","","","","","","","","","html-keyboard-response","16","2.0.0","2731285","55b3120cfdf99b6ef6263a71","1","23","null","","","","","","","","","<p style='font-size: 30px;'><strong>Okay</strong></p>","null","neutral_feedback","0","test","5","","","","","","","",""
"","","","","","","","","","","","html-button-response","17","2.0.0","2736114","55b3120cfdf99b6ef6263a71","1","23","4827","","","","","","","","","<img src= ""rock_img/I_Andesite_02.jpg"" style=""width:8cm; height:8.5cm;""><p>What type of rock is this?</p>","7","class_response","0","test","6","Pumice","Andesite","02","false","8","1","",""
"","","","","","","","","","","","html-keyboard-response","18","2.0.0","2736631","55b3120cfdf99b6ef6263a71","1","23","null","","","","","","","","","<p style='font-size: 30px;'><strong>Okay</strong></p>","null","neutral_feedback","0","test","6","","","","","","","",""
"","","","","","","","","","","","html-button-response","19","2.0.0","2744268","55b3120cfdf99b6ef6263a71","1","23","7635","","","","","","","","","<img src= ""rock_img/I_Diorite_06.jpg"" style=""width:8cm; height:6.03cm;""><p>What type of rock is this?</p>","0","class_response","0","test","7","Andesite","Diorite","06","false","1","3","",""
"","","","","","","","","","","","html-keyboard-response","20","2.0.0","2744777","55b3120cfdf99b6ef6263a71","1","23","null","","","","","","","","","<p style='font-size: 30px;'><strong>Okay</strong></p>","null","neutral_feedback","0","test","7","","","","","","","",""
"","","","","","","","","","","","html-button-response","21","2.0.0","2750249","55b3120cfdf99b6ef6263a71","1","23","5470","","","","","","","","","<img src= ""rock_img/I_Pumice_13.jpg"" style=""width:8cm; height:8.200000000000001cm;""><p>What type of rock is this?</p>","5","class_response","0","test","8","Pegmatite","Pumice","13","false","6","8","",""
"","","","","","","","","","","","html-keyboard-response","22","2.0.0","2750764","55b3120cfdf99b6ef6263a71","1","23","null","","","","","","","","","<p style='font-size: 30px;'><strong>Okay</strong></p>","null","neutral_feedback","0","test","8","","","","","","","",""
"","","","","","","","","","","","html-button-response","23","2.0.0","2752456","55b3120cfdf99b6ef6263a71","1","23","1690","","","","","","","","","<img src= ""rock_img/I_Pumice_10.jpg"" style=""width:8cm; height:7.609999999999999cm;""><p>What type of rock is this?</p>","7","class_response","0","test","9","Pumice","Pumice","10","true","8","8","",""
"","","","","","","","","","","","html-keyboard-response","24","2.0.0","2752969","55b3120cfdf99b6ef6263a71","1","23","null","","","","","","","","","<p style='font-size: 30px;'><strong>Okay</strong></p>","null","neutral_feedback","0","test","9","","","","","","","",""
"","","","","","","","","","","","html-button-response","25","2.0.0","2757795","55b3120cfdf99b6ef6263a71","1","23","4824","","","","","","","","","<img src= ""rock_img/I_Basalt_12.jpg"" style=""width:8cm; height:6.010000000000001cm;""><p>What type of rock is this?</p>","2","class_response","0","test","10","Diorite","Basalt","12","false","3","2","",""
"","","","","","","","","","","","html-keyboard-response","26","2.0.0","2758306","55b3120cfdf99b6ef6263a71","1","23","null","","","","","","","","","<p style='font-size: 30px;'><strong>Okay</strong></p>","null","neutral_feedback","0","test","10","","","","","","","",""
"","","","","","","","","","","","html-button-response","27","2.0.0","2759709","55b3120cfdf99b6ef6263a71","1","23","1401","","","","","","","","","<img src= ""rock_img/I_Obsidian_08.jpg"" style=""width:8cm; height:7.39cm;""><p>What type of rock is this?</p>","4","class_response","0","test","11","Obsidian","Obsidian","08","true","5","5","",""
"","","","","","","","","","","","html-keyboard-response","28","2.0.0","2760212","55b3120cfdf99b6ef6263a71","1","23","null","","","","","","","","","<p style='font-size: 30px;'><strong>Okay</strong></p>","null","neutral_feedback","0","test","11","","","","","","","",""
"","","","","","","","","","","","html-button-response","29","2.0.0","2763153","55b3120cfdf99b6ef6263a71","1","23","2939","","","","","","","","","<img src= ""rock_img/I_Gabbro_15.jpg"" style=""width:8cm; height:6.29cm;""><p>What type of rock is this?</p>","5","class_response","0","test","12","Pegmatite","Gabbro","15","false","6","4","",""
"","","","","","","","","","","","html-keyboard-response","30","2.0.0","2763668","55b3120cfdf99b6ef6263a71","1","23","null","","","","","","","","","<p style='font-size: 30px;'><strong>Okay</strong></p>","null","neutral_feedback","0","test","12","","","","","","","",""
"","","","","","","","","","","","html-button-response","31","2.0.0","2765183","55b3120cfdf99b6ef6263a71","1","23","1514","","","","","","","","","<img src= ""rock_img/I_Peridotite_16.jpg"" style=""width:8cm; height:6.989999999999999cm;""><p>What type of rock is this?</p>","6","class_response","0","test","13","Peridotite","Peridotite","16","true","7","7","",""
"","","","","","","","","","","","html-keyboard-response","32","2.0.0","2765686","55b3120cfdf99b6ef6263a71","1","23","null","","","","","","","","","<p style='font-size: 30px;'><strong>Okay</strong></p>","null","neutral_feedback","0","test","13","","","","","","","",""
"","","","","","","","","","","","html-button-response","33","2.0.0","2769161","55b3120cfdf99b6ef6263a71","1","23","3473","","","","","","","","","<img src= ""rock_img/I_Basalt_05.jpg"" style=""width:8cm; height:8.18cm;""><p>What type of rock is this?</p>","1","class_response","0","test","14","Basalt","Basalt","05","true","2","2","",""
"","","","","","","","","","","","html-keyboard-response","34","2.0.0","2769669","55b3120cfdf99b6ef6263a71","1","23","null","","","","","","","","","<p style='font-size: 30px;'><strong>Okay</strong></p>","null","neutral_feedback","0","test","14","","","","","","","",""
"","","","","","","","","","","","html-button-response","35","2.0.0","2771392","55b3120cfdf99b6ef6263a71","1","23","1721","","","","","","","","","<img src= ""rock_img/I_Peridotite_04.jpg"" style=""width:8cm; height:6.680000000000001cm;""><p>What type of rock is this?</p>","0","class_response","0","test","15","Andesite","Peridotite","04","false","1","7","",""
"","","","","","","","","","","","html-keyboard-response","36","2.0.0","2771895","55b3120cfdf99b6ef6263a71","1","23","null","","","","","","","","","<p style='font-size: 30px;'><strong>Okay</strong></p>","null","neutral_feedback","0","test","15","","","","","","","",""
"","","","","","","","","","","","html-button-response","37","2.0.0","2777165","55b3120cfdf99b6ef6263a71","1","23","5269","","","","","","","","","<img src= ""rock_img/I_Peridotite_07.jpg"" style=""width:8cm; height:4.83cm;""><p>What type of rock is this?</p>","2","class_response","0","test","16","Diorite","Peridotite","07","false","3","7","",""
"","","","","","","","","","","","html-keyboard-response","38","2.0.0","2777675","55b3120cfdf99b6ef6263a71","1","23","null","","","","","","","","","<p style='font-size: 30px;'><strong>Okay</strong></p>","null","neutral_feedback","0","test","16","","","","","","","",""
"","","","","","","","","","","","html-button-response","39","2.0.0","2778980","55b3120cfdf99b6ef6263a71","1","23","1304","","","","","","","","","<img src= ""rock_img/I_Andesite_03.jpg"" style=""width:8cm; height:5.73cm;""><p>What type of rock is this?</p>","6","class_response","0","test","17","Peridotite","Andesite","03","false","7","1","",""
"","","","","","","","","","","","html-keyboard-response","40","2.0.0","2779493","55b3120cfdf99b6ef6263a71","1","23","null","","","","","","","","","<p style='font-size: 30px;'><strong>Okay</strong></p>","null","neutral_feedback","0","test","17","","","","","","","",""
"","","","","","","","","","","","html-button-response","41","2.0.0","2780714","55b3120cfdf99b6ef6263a71","1","23","1218","","","","","","","","","<img src= ""rock_img/I_Obsidian_02.jpg"" style=""width:8cm; height:7.51cm;""><p>What type of rock is this?</p>","4","class_response","0","test","18","Obsidian","Obsidian","02","true","5","5","",""
"","","","","","","","","","","","html-keyboard-response","42","2.0.0","2781228","55b3120cfdf99b6ef6263a71","1","23","null","","","","","","","","","<p style='font-size: 30px;'><strong>Okay</strong></p>","null","neutral_feedback","0","test","18","","","","","","","",""
"","","","","","","","","","","","html-button-response","43","2.0.0","2784310","55b3120cfdf99b6ef6263a71","1","23","3080","","","","","","","","","<img src= ""rock_img/I_Basalt_02.jpg"" style=""width:8cm; height:6.45cm;""><p>What type of rock is this?</p>","3","class_response","0","test","19","Gabbro","Basalt","02","false","4","2","",""
"","","","","","","","","","","","html-keyboard-response","44","2.0.0","2784822","55b3120cfdf99b6ef6263a71","1","23","null","","","","","","","","","<p style='font-size: 30px;'><strong>Okay</strong></p>","null","neutral_feedback","0","test","19","","","","","","","",""
"","","","","","","","","","","","html-button-response","45","2.0.0","2787786","55b3120cfdf99b6ef6263a71","1","23","2962","","","","","","","","","<img src= ""rock_img/I_Diorite_10.jpg"" style=""width:8cm; height:5.949999999999999cm;""><p>What type of rock is this?</p>","2","class_response","0","test","20","Diorite","Diorite","10","true","3","3","",""
"","","","","","","","","","","","html-keyboard-response","46","2.0.0","2788296","55b3120cfdf99b6ef6263a71","1","23","null","","","","","","","","","<p style='font-size: 30px;'><strong>Okay</strong></p>","null","neutral_feedback","0","test","20","","","","","","","",""
"","","","","","","","","","","","html-button-response","47","2.0.0","2793486","55b3120cfdf99b6ef6263a71","1","23","5187","","","","","","","","","<img src= ""rock_img/I_Pegmatite_09.jpg"" style=""width:8cm; height:4.03cm;""><p>What type of rock is this?</p>","6","class_response","0","test","21","Peridotite","Pegmatite","09","false","7","6","",""
"","","","","","","","","","","","html-keyboard-response","48","2.0.0","2794007","55b3120cfdf99b6ef6263a71","1","23","null","","","","","","","","","<p style='font-size: 30px;'><strong>Okay</strong></p>","null","neutral_feedback","0","test","21","","","","","","","",""
"","","","","","","","","","","","html-button-response","49","2.0.0","2799471","55b3120cfdf99b6ef6263a71","1","23","5461","","","","","","","","","<img src= ""rock_img/I_Gabbro_03.jpg"" style=""width:8cm; height:8.52cm;""><p>What type of rock is this?</p>","3","class_response","0","test","22","Gabbro","Gabbro","03","true","4","4","",""
"","","","","","","","","","","","html-keyboard-response","50","2.0.0","2799973","55b3120cfdf99b6ef6263a71","1","23","null","","","","","","","","","<p style='font-size: 30px;'><strong>Okay</strong></p>","null","neutral_feedback","0","test","22","","","","","","","",""
"","","","","","","","","","","","html-button-response","51","2.0.0","2801555","55b3120cfdf99b6ef6263a71","1","23","1581","","","","","","","","","<img src= ""rock_img/I_Andesite_05.jpg"" style=""width:8cm; height:4.12cm;""><p>What type of rock is this?</p>","6","class_response","0","test","23","Peridotite","Andesite","05","false","7","1","",""
"","","","","","","","","","","","html-keyboard-response","52","2.0.0","2802059","55b3120cfdf99b6ef6263a71","1","23","null","","","","","","","","","<p style='font-size: 30px;'><strong>Okay</strong></p>","null","neutral_feedback","0","test","23","","","","","","","",""
"","","","","","","","","","","","html-button-response","53","2.0.0","2803193","55b3120cfdf99b6ef6263a71","1","23","1132","","","","","","","","","<img src= ""rock_img/I_Obsidian_12.jpg"" style=""width:8cm; height:6.53cm;""><p>What type of rock is this?</p>","4","class_response","0","test","24","Obsidian","Obsidian","12","true","5","5","",""
"","","","","","","","","","","","html-keyboard-response","54","2.0.0","2803696","55b3120cfdf99b6ef6263a71","1","23","null","","","","","","","","","<p style='font-size: 30px;'><strong>Okay</strong></p>","null","neutral_feedback","0","test","24","","","","","","","",""
"","","","","","","","","","","","html-button-response","55","2.0.0","2806002","55b3120cfdf99b6ef6263a71","1","23","2304","","","","","","","","","<img src= ""rock_img/I_Andesite_14.jpg"" style=""width:8cm; height:5.449999999999999cm;""><p>What type of rock is this?</p>","1","class_response","0","test","25","Basalt","Andesite","14","false","2","1","",""
"","","","","","","","","","","","html-keyboard-response","56","2.0.0","2806507","55b3120cfdf99b6ef6263a71","1","23","null","","","","","","","","","<p style='font-size: 30px;'><strong>Okay</strong></p>","null","neutral_feedback","0","test","25","","","","","","","",""
"","","","","","","","","","","","html-button-response","57","2.0.0","2812161","55b3120cfdf99b6ef6263a71","1","23","5652","","","","","","","","","<img src= ""rock_img/I_Pumice_16.jpg"" style=""width:8cm; height:6.79cm;""><p>What type of rock is this?</p>","3","class_response","0","test","26","Gabbro","Pumice","16","false","4","8","",""
"","","","","","","","","","","","html-keyboard-response","58","2.0.0","2812671","55b3120cfdf99b6ef6263a71","1","23","null","","","","","","","","","<p style='font-size: 30px;'><strong>Okay</strong></p>","null","neutral_feedback","0","test","26","","","","","","","",""
"","","","","","","","","","","","html-button-response","59","2.0.0","2815243","55b3120cfdf99b6ef6263a71","1","23","2571","","","","","","","","","<img src= ""rock_img/I_Peridotite_05.jpg"" style=""width:8cm; height:7.1499999999999995cm;""><p>What type of rock is this?</p>","2","class_response","0","test","27","Diorite","Peridotite","05","false","3","7","",""
"","","","","","","","","","","","html-keyboard-response","60","2.0.0","2815762","55b3120cfdf99b6ef6263a71","1","23","null","","","","","","","","","<p style='font-size: 30px;'><strong>Okay</strong></p>","null","neutral_feedback","0","test","27","","","","","","","",""
"","","","","","","","","","","","html-button-response","61","2.0.0","2819292","55b3120cfdf99b6ef6263a71","1","23","3528","","","","","","","","","<img src= ""rock_img/I_Diorite_16.jpg"" style=""width:8cm; height:6.74cm;""><p>What type of rock is this?</p>","0","class_response","0","test","28","Andesite","Diorite","16","false","1","3","",""
"","","","","","","","","","","","html-keyboard-response","62","2.0.0","2819804","55b3120cfdf99b6ef6263a71","1","23","null","","","","","","","","","<p style='font-size: 30px;'><strong>Okay</strong></p>","null","neutral_feedback","0","test","28","","","","","","","",""
"","","","","","","","","","","","html-button-response","63","2.0.0","2820868","55b3120cfdf99b6ef6263a71","1","23","1062","","","","","","","","","<img src= ""rock_img/I_Obsidian_16.jpg"" style=""width:8cm; height:9.3cm;""><p>What type of rock is this?</p>","4","class_response","0","test","29","Obsidian","Obsidian","16","true","5","5","",""
"","","","","","","","","","","","html-keyboard-response","64","2.0.0","2821375","55b3120cfdf99b6ef6263a71","1","23","null","","","","","","","","","<p style='font-size: 30px;'><strong>Okay</strong></p>","null","neutral_feedback","0","test","29","","","","","","","",""
"","","","","","","","","","","","html-button-response","65","2.0.0","2828316","55b3120cfdf99b6ef6263a71","1","23","6939","","","","","","","","","<img src= ""rock_img/I_Basalt_10.jpg"" style=""width:8cm; height:5.85cm;""><p>What type of rock is this?</p>","5","class_response","0","test","30","Pegmatite","Basalt","10","false","6","2","",""
"","","","","","","","","","","","html-keyboard-response","66","2.0.0","2828821","55b3120cfdf99b6ef6263a71","1","23","null","","","","","","","","","<p style='font-size: 30px;'><strong>Okay</strong></p>","null","neutral_feedback","0","test","30","","","","","","","",""
"","","","","","","","","","","","html-button-response","67","2.0.0","2831524","55b3120cfdf99b6ef6263a71","1","23","2700","","","","","","","","","<img src= ""rock_img/I_Gabbro_10.jpg"" style=""width:8cm; height:5.680000000000001cm;""><p>What type of rock is this?</p>","3","class_response","0","test","31","Gabbro","Gabbro","10","true","4","4","",""
"","","","","","","","","","","","html-keyboard-response","68","2.0.0","2832026","55b3120cfdf99b6ef6263a71","1","23","null","","","","","","","","","<p style='font-size: 30px;'><strong>Okay</strong></p>","null","neutral_feedback","0","test","31","","","","","","","",""
"","","","","","","","","","","","html-button-response","69","2.0.0","2834212","55b3120cfdf99b6ef6263a71","1","23","2183","","","","","","","","","<img src= ""rock_img/I_Pumice_09.jpg"" style=""width:8cm; height:6.44cm;""><p>What type of rock is this?</p>","7","class_response","0","test","32","Pumice","Pumice","09","true","8","8","",""
"","","","","","","","","","","","html-keyboard-response","70","2.0.0","2834716","55b3120cfdf99b6ef6263a71","1","23","null","","","","","","","","","<p style='font-size: 30px;'><strong>Okay</strong></p>","null","neutral_feedback","0","test","32","","","","","","","",""
"","","","","","","","","","","","html-button-response","71","2.0.0","2836645","55b3120cfdf99b6ef6263a71","1","23","1927","","","","","","","","","<img src= ""rock_img/I_Basalt_16.jpg"" style=""width:8cm; height:7.659999999999999cm;""><p>What type of rock is this?</p>","2","class_response","0","test","33","Diorite","Basalt","16","false","3","2","",""
"","","","","","","","","","","","html-keyboard-response","72","2.0.0","2837158","55b3120cfdf99b6ef6263a71","1","23","null","","","","","","","","","<p style='font-size: 30px;'><strong>Okay</strong></p>","null","neutral_feedback","0","test","33","","","","","","","",""
"","","","","","","","","","","","html-button-response","73","2.0.0","2839751","55b3120cfdf99b6ef6263a71","1","23","2592","","","","","","","","","<img src= ""rock_img/I_Pegmatite_16.jpg"" style=""width:8cm; height:5.8cm;""><p>What type of rock is this?</p>","1","class_response","0","test","34","Basalt","Pegmatite","16","false","2","6","",""
"","","","","","","","","","","","html-keyboard-response","74","2.0.0","2840265","55b3120cfdf99b6ef6263a71","1","23","null","","","","","","","","","<p style='font-size: 30px;'><strong>Okay</strong></p>","null","neutral_feedback","0","test","34","","","","","","","",""
"","","","","","","","","","","","html-button-response","75","2.0.0","2843452","55b3120cfdf99b6ef6263a71","1","23","3185","","","","","","","","","<img src= ""rock_img/I_Pumice_03.jpg"" style=""width:8cm; height:6.64cm;""><p>What type of rock is this?</p>","7","class_response","0","test","35","Pumice","Pumice","03","true","8","8","",""
"","","","","","","","","","","","html-keyboard-response","76","2.0.0","2843961","55b3120cfdf99b6ef6263a71","1","23","null","","","","","","","","","<p style='font-size: 30px;'><strong>Okay</strong></p>","null","neutral_feedback","0","test","35","","","","","","","",""
"","","","","","","","","","","","html-button-response","77","2.0.0","2847762","55b3120cfdf99b6ef6263a71","1","23","3799","","","","","","","","","<img src= ""rock_img/I_Pegmatite_06.jpg"" style=""width:8cm; height:5.17cm;""><p>What type of rock is this?</p>","5","class_response","0","test","36","Pegmatite","Pegmatite","06","true","6","6","",""
"","","","","","","","","","","","html-keyboard-response","78","2.0.0","2848270","55b3120cfdf99b6ef6263a71","1","23","null","","","","","","","","","<p style='font-size: 30px;'><strong>Okay</strong></p>","null","neutral_feedback","0","test","36","","","","","","","",""
"","","","","","","","","","","","html-button-response","79","2.0.0","2850631","55b3120cfdf99b6ef6263a71","1","23","2359","","","","","","","","","<img src= ""rock_img/I_Gabbro_13.jpg"" style=""width:8cm; height:5.08cm;""><p>What type of rock is this?</p>","3","class_response","0","test","37","Gabbro","Gabbro","13","true","4","4","",""
"","","","","","","","","","","","html-keyboard-response","80","2.0.0","2851145","55b3120cfdf99b6ef6263a71","1","23","null","","","","","","","","","<p style='font-size: 30px;'><strong>Okay</strong></p>","null","neutral_feedback","0","test","37","","","","","","","",""
"","","","","","","","","","","","html-button-response","81","2.0.0","2852953","55b3120cfdf99b6ef6263a71","1","23","1806","","","","","","","","","<img src= ""rock_img/I_Gabbro_08.jpg"" style=""width:8cm; height:5.15cm;""><p>What type of rock is this?</p>","2","class_response","0","test","38","Diorite","Gabbro","08","false","3","4","",""
"","","","","","","","","","","","html-keyboard-response","82","2.0.0","2853466","55b3120cfdf99b6ef6263a71","1","23","null","","","","","","","","","<p style='font-size: 30px;'><strong>Okay</strong></p>","null","neutral_feedback","0","test","38","","","","","","","",""
"","","","","","","","","","","","html-button-response","83","2.0.0","2854433","55b3120cfdf99b6ef6263a71","1","23","965","","","","","","","","","<img src= ""rock_img/I_Peridotite_12.jpg"" style=""width:8cm; height:4.54cm;""><p>What type of rock is this?</p>","6","class_response","0","test","39","Peridotite","Peridotite","12","true","7","7","",""
"","","","","","","","","","","","html-keyboard-response","84","2.0.0","2854954","55b3120cfdf99b6ef6263a71","1","23","null","","","","","","","","","<p style='font-size: 30px;'><strong>Okay</strong></p>","null","neutral_feedback","0","test","39","","","","","","","",""
"","","","","","","","","","","","html-button-response","85","2.0.0","2856765","55b3120cfdf99b6ef6263a71","1","23","1809","","","","","","","","","<img src= ""rock_img/I_Diorite_07.jpg"" style=""width:8cm; height:5.239999999999999cm;""><p>What type of rock is this?</p>","1","class_response","0","test","40","Basalt","Diorite","07","false","2","3","",""
"","","","","","","","","","","","html-keyboard-response","86","2.0.0","2857275","55b3120cfdf99b6ef6263a71","1","23","null","","","","","","","","","<p style='font-size: 30px;'><strong>Okay</strong></p>","null","neutral_feedback","0","test","40","","","","","","","",""
"","","","","","","","","","","","html-button-response","87","2.0.0","2860307","55b3120cfdf99b6ef6263a71","1","23","3030","","","","","","","","","<img src= ""rock_img/I_Gabbro_11.jpg"" style=""width:8cm; height:6.2cm;""><p>What type of rock is this?</p>","3","class_response","0","test","41","Gabbro","Gabbro","11","true","4","4","",""
"","","","","","","","","","","","html-keyboard-response","88","2.0.0","2860815","55b3120cfdf99b6ef6263a71","1","23","null","","","","","","","","","<p style='font-size: 30px;'><strong>Okay</strong></p>","null","neutral_feedback","0","test","41","","","","","","","",""
"","","","","","","","","","","","html-button-response","89","2.0.0","2862065","55b3120cfdf99b6ef6263a71","1","23","1248","","","","","","","","","<img src= ""rock_img/I_Pumice_08.jpg"" style=""width:8cm; height:6.67cm;""><p>What type of rock is this?</p>","7","class_response","0","test","42","Pumice","Pumice","08","true","8","8","",""
"","","","","","","","","","","","html-keyboard-response","90","2.0.0","2862573","55b3120cfdf99b6ef6263a71","1","23","null","","","","","","","","","<p style='font-size: 30px;'><strong>Okay</strong></p>","null","neutral_feedback","0","test","42","","","","","","","",""
"","","","","","","","","","","","html-button-response","91","2.0.0","2863612","55b3120cfdf99b6ef6263a71","1","23","1038","","","","","","","","","<img src= ""rock_img/I_Obsidian_07.jpg"" style=""width:8cm; height:4.76cm;""><p>What type of rock is this?</p>","4","class_response","0","test","43","Obsidian","Obsidian","07","true","5","5","",""
"","","","","","","","","","","","html-keyboard-response","92","2.0.0","2864126","55b3120cfdf99b6ef6263a71","1","23","null","","","","","","","","","<p style='font-size: 30px;'><strong>Okay</strong></p>","null","neutral_feedback","0","test","43","","","","","","","",""
"","","","","","","","","","","","html-button-response","93","2.0.0","2866703","55b3120cfdf99b6ef6263a71","1","23","2575","","","","","","","","","<img src= ""rock_img/I_Andesite_06.jpg"" style=""width:8cm; height:6.840000000000001cm;""><p>What type of rock is this?</p>","2","class_response","0","test","44","Diorite","Andesite","06","false","3","1","",""
"","","","","","","","","","","","html-keyboard-response","94","2.0.0","2867215","55b3120cfdf99b6ef6263a71","1","23","null","","","","","","","","","<p style='font-size: 30px;'><strong>Okay</strong></p>","null","neutral_feedback","0","test","44","","","","","","","",""
"","","","","","","","","","","","html-button-response","95","2.0.0","2870015","55b3120cfdf99b6ef6263a71","1","23","2798","","","","","","","","","<img src= ""rock_img/I_Diorite_02.jpg"" style=""width:8cm; height:6.27cm;""><p>What type of rock is this?</p>","6","class_response","0","test","45","Peridotite","Diorite","02","false","7","3","",""
"","","","","","","","","","","","html-keyboard-response","96","2.0.0","2870524","55b3120cfdf99b6ef6263a71","1","23","null","","","","","","","","","<p style='font-size: 30px;'><strong>Okay</strong></p>","null","neutral_feedback","0","test","45","","","","","","","",""
"","","","","","","","","","","","html-button-response","97","2.0.0","2872355","55b3120cfdf99b6ef6263a71","1","23","1830","","","","","","","","","<img src= ""rock_img/I_Peridotite_06.jpg"" style=""width:8cm; height:7.53cm;""><p>What type of rock is this?</p>","6","class_response","0","test","46","Peridotite","Peridotite","06","true","7","7","",""
"","","","","","","","","","","","html-keyboard-response","98","2.0.0","2872866","55b3120cfdf99b6ef6263a71","1","23","null","","","","","","","","","<p style='font-size: 30px;'><strong>Okay</strong></p>","null","neutral_feedback","0","test","46","","","","","","","",""
"","","","","","","","","","","","html-button-response","99","2.0.0","2874592","55b3120cfdf99b6ef6263a71","1","23","1724","","","","","","","","","<img src= ""rock_img/I_Basalt_09.jpg"" style=""width:8cm; height:6.2cm;""><p>What type of rock is this?</p>","5","class_response","0","test","47","Pegmatite","Basalt","09","false","6","2","",""
"","","","","","","","","","","","html-keyboard-response","100","2.0.0","2875094","55b3120cfdf99b6ef6263a71","1","23","null","","","","","","","","","<p style='font-size: 30px;'><strong>Okay</strong></p>","null","neutral_feedback","0","test","47","","","","","","","",""
"","","","","","","","","","","","html-button-response","101","2.0.0","2877828","55b3120cfdf99b6ef6263a71","1","23","2732","","","","","","","","","<img src= ""rock_img/I_Pegmatite_07.jpg"" style=""width:8cm; height:6.7cm;""><p>What type of rock is this?</p>","5","class_response","0","test","48","Pegmatite","Pegmatite","07","true","6","6","",""
"","","","","","","","","","","","html-keyboard-response","102","2.0.0","2878329","55b3120cfdf99b6ef6263a71","1","23","null","","","","","","","","","<p style='font-size: 30px;'><strong>Okay</strong></p>","null","neutral_feedback","0","test","48","","","","","","","",""
"","","","","","","","","","","","instructions","103","2.0.0","2897329","55b3120cfdf99b6ef6263a71","1","23","18969","","","","","","","","[{""page_index"":0,""viewing_time"":12198},{""page_index"":1,""viewing_time"":2797},{""page_index"":2,""viewing_time"":3973}]","","","","","","","","","","","","","",""
"","","","","","","","","","","","html-button-response","104","2.0.0","2899162","55b3120cfdf99b6ef6263a71","1","23","1831","","","","","","","","","","0","start_train","","","","","","","","","","",""
"","","","","","","","","","","","html-button-response","105","2.0.0","2901812","55b3120cfdf99b6ef6263a71","1","23","2648","","","","","","","","","<img src= ""rock_img/I_Diorite_09.jpg"" style=""width:8cm; height:5.27cm;""><p>What type of rock is this?</p>","1","class_response","1","train","1","Basalt","Diorite","09","false","2","3","",""
"","","","","","","","","","","","html-button-response","106","2.0.0","2904741","55b3120cfdf99b6ef6263a71","1","23","2927","","","","","","","","","<img src= rock_img/I_Diorite_09.jpg style=""width:8cm; height:5.27cm;""><p style='font-size: 30px; color: red;'><strong>Incorrect!</strong></p><p style='font-size: 30px;'><strong>This rock is diorite</strong></p>","0","corr_feedback","1","train","1","","","","","","","",""
"","","","","","","","","","","","html-button-response","107","2.0.0","2907364","55b3120cfdf99b6ef6263a71","1","23","2622","","","","","","","","","<img src= ""rock_img/I_Peridotite_10.jpg"" style=""width:8cm; height:5.390000000000001cm;""><p>What type of rock is this?</p>","6","class_response","1","train","2","Peridotite","Peridotite","10","true","7","7","",""
"","","","","","","","","","","","html-button-response","108","2.0.0","2909695","55b3120cfdf99b6ef6263a71","1","23","2329","","","","","","","","","<img src= rock_img/I_Peridotite_10.jpg style=""width:8cm; height:5.390000000000001cm;""><p style='font-size: 30px; color: green;'><strong>Correct!</strong></p><p style='font-size: 30px;'><strong>This rock is peridotite</strong></p>","0","corr_feedback","1","train","2","","","","","","","",""
"","","","","","","","","","","","html-button-response","109","2.0.0","2912723","55b3120cfdf99b6ef6263a71","1","23","3027","","","","","","","","","<img src= ""rock_img/I_Gabbro_14.jpg"" style=""width:8cm; height:8.48cm;""><p>What type of rock is this?</p>","5","class_response","1","train","3","Pegmatite","Gabbro","14","false","6","4","",""
"","","","","","","","","","","","html-button-response","110","2.0.0","2914604","55b3120cfdf99b6ef6263a71","1","23","1879","","","","","","","","","<img src= rock_img/I_Gabbro_14.jpg style=""width:8cm; height:8.48cm;""><p style='font-size: 30px; color: red;'><strong>Incorrect!</strong></p><p style='font-size: 30px;'><strong>This rock is gabbro</strong></p>","0","corr_feedback","1","train","3","","","","","","","",""
"","","","","","","","","","","","html-button-response","111","2.0.0","2916142","55b3120cfdf99b6ef6263a71","1","23","1536","","","","","","","","","<img src= ""rock_img/I_Obsidian_10.jpg"" style=""width:8cm; height:6.260000000000001cm;""><p>What type of rock is this?</p>","4","class_response","1","train","4","Obsidian","Obsidian","10","true","5","5","",""
"","","","","","","","","","","","html-button-response","112","2.0.0","2917818","55b3120cfdf99b6ef6263a71","1","23","1674","","","","","","","","","<img src= rock_img/I_Obsidian_10.jpg style=""width:8cm; height:6.260000000000001cm;""><p style='font-size: 30px; color: green;'><strong>Correct!</strong></p><p style='font-size: 30px;'><strong>This rock is obsidian</strong></p>","0","corr_feedback","1","train","4","","","","","","","",""
"","","","","","","","","","","","html-button-response","113","2.0.0","2925764","55b3120cfdf99b6ef6263a71","1","23","7944","","","","","","","","","<img src= ""rock_img/I_Gabbro_01.jpg"" style=""width:8cm; height:5.21cm;""><p>What type of rock is this?</p>","3","class_response","1","train","5","Gabbro","Gabbro","01","true","4","4","",""
"","","","","","","","","","","","html-button-response","114","2.0.0","2927095","55b3120cfdf99b6ef6263a71","1","23","1329","","","","","","","","","<img src= rock_img/I_Gabbro_01.jpg style=""width:8cm; height:5.21cm;""><p style='font-size: 30px; color: green;'><strong>Correct!</strong></p><p style='font-size: 30px;'><strong>This rock is gabbro</strong></p>","0","corr_feedback","1","train","5","","","","","","","",""
"","","","","","","","","","","","html-button-response","115","2.0.0","2929070","55b3120cfdf99b6ef6263a71","1","23","1974","","","","","","","","","<img src= ""rock_img/I_Pegmatite_05.jpg"" style=""width:8cm; height:7.300000000000001cm;""><p>What type of rock is this?</p>","5","class_response","1","train","6","Pegmatite","Pegmatite","05","true","6","6","",""
"","","","","","","","","","","","html-button-response","116","2.0.0","2931289","55b3120cfdf99b6ef6263a71","1","23","2217","","","","","","","","","<img src= rock_img/I_Pegmatite_05.jpg style=""width:8cm; height:7.300000000000001cm;""><p style='font-size: 30px; color: green;'><strong>Correct!</strong></p><p style='font-size: 30px;'><strong>This rock is pegmatite</strong></p>","0","corr_feedback","1","train","6","","","","","","","",""
"","","","","","","","","","","","html-button-response","117","2.0.0","2933700","55b3120cfdf99b6ef6263a71","1","23","2409","","","","","","","","","<img src= ""rock_img/I_Andesite_11.jpg"" style=""width:8cm; height:4.92cm;""><p>What type of rock is this?</p>","1","class_response","1","train","7","Basalt","Andesite","11","false","2","1","",""
"","","","","","","","","","","","html-button-response","118","2.0.0","2935370","55b3120cfdf99b6ef6263a71","1","23","1669","","","","","","","","","<img src= rock_img/I_Andesite_11.jpg style=""width:8cm; height:4.92cm;""><p style='font-size: 30px; color: red;'><strong>Incorrect!</strong></p><p style='font-size: 30px;'><strong>This rock is andesite</strong></p>","0","corr_feedback","1","train","7","","","","","","","",""
"","","","","","","","","","","","html-button-response","119","2.0.0","2936613","55b3120cfdf99b6ef6263a71","1","23","1241","","","","","","","","","<img src= ""rock_img/I_Obsidian_06.jpg"" style=""width:8cm; height:6.8cm;""><p>What type of rock is this?</p>","4","class_response","1","train","8","Obsidian","Obsidian","06","true","5","5","",""
"","","","","","","","","","","","html-button-response","120","2.0.0","2937489","55b3120cfdf99b6ef6263a71","1","23","875","","","","","","","","","<img src= rock_img/I_Obsidian_06.jpg style=""width:8cm; height:6.8cm;""><p style='font-size: 30px; color: green;'><strong>Correct!</strong></p><p style='font-size: 30px;'><strong>This rock is obsidian</strong></p>","0","corr_feedback","1","train","8","","","","","","","",""
"","","","","","","","","","","","html-button-response","121","2.0.0","2938899","55b3120cfdf99b6ef6263a71","1","23","1409","","","","","","","","","<img src= ""rock_img/I_Peridotite_13.jpg"" style=""width:8cm; height:7.58cm;""><p>What type of rock is this?</p>","6","class_response","1","train","9","Peridotite","Peridotite","13","true","7","7","",""
"","","","","","","","","","","","html-button-response","122","2.0.0","2939696","55b3120cfdf99b6ef6263a71","1","23","795","","","","","","","","","<img src= rock_img/I_Peridotite_13.jpg style=""width:8cm; height:7.58cm;""><p style='font-size: 30px; color: green;'><strong>Correct!</strong></p><p style='font-size: 30px;'><strong>This rock is peridotite</strong></p>","0","corr_feedback","1","train","9","","","","","","","",""
"","","","","","","","","","","","html-button-response","123","2.0.0","2941813","55b3120cfdf99b6ef6263a71","1","23","2115","","","","","","","","","<img src= ""rock_img/I_Basalt_06.jpg"" style=""width:8cm; height:7.06cm;""><p>What type of rock is this?</p>","1","class_response","1","train","10","Basalt","Basalt","06","true","2","2","",""
"","","","","","","","","","","","html-button-response","124","2.0.0","2943421","55b3120cfdf99b6ef6263a71","1","23","1606","","","","","","","","","<img src= rock_img/I_Basalt_06.jpg style=""width:8cm; height:7.06cm;""><p style='font-size: 30px; color: green;'><strong>Correct!</strong></p><p style='font-size: 30px;'><strong>This rock is basalt</strong></p>","0","corr_feedback","1","train","10","","","","","","","",""
"","","","","","","","","","","","html-button-response","125","2.0.0","2944860","55b3120cfdf99b6ef6263a71","1","23","1438","","","","","","","","","<img src= ""rock_img/I_Pumice_06.jpg"" style=""width:8cm; height:6.9399999999999995cm;""><p>What type of rock is this?</p>","7","class_response","1","train","11","Pumice","Pumice","06","true","8","8","",""
"","","","","","","","","","","","html-button-response","126","2.0.0","2945836","55b3120cfdf99b6ef6263a71","1","23","974","","","","","","","","","<img src= rock_img/I_Pumice_06.jpg style=""width:8cm; height:6.9399999999999995cm;""><p style='font-size: 30px; color: green;'><strong>Correct!</strong></p><p style='font-size: 30px;'><strong>This rock is pumice</strong></p>","0","corr_feedback","1","train","11","","","","","","","",""
"","","","","","","","","","","","html-button-response","127","2.0.0","2948820","55b3120cfdf99b6ef6263a71","1","23","2981","","","","","","","","","<img src= ""rock_img/I_Gabbro_09.jpg"" style=""width:8cm; height:7.279999999999999cm;""><p>What type of rock is this?</p>","1","class_response","1","train","12","Basalt","Gabbro","09","false","2","4","",""
"","","","","","","","","","","","html-button-response","128","2.0.0","2949874","55b3120cfdf99b6ef6263a71","1","23","1052","","","","","","","","","<img src= rock_img/I_Gabbro_09.jpg style=""width:8cm; height:7.279999999999999cm;""><p style='font-size: 30px; color: red;'><strong>Incorrect!</strong></p><p style='font-size: 30px;'><strong>This rock is gabbro</strong></p>","0","corr_feedback","1","train","12","","","","","","","",""
"","","","","","","","","","","","html-button-response","129","2.0.0","2950936","55b3120cfdf99b6ef6263a71","1","23","1061","","","","","","","","","<img src= ""rock_img/I_Obsidian_09.jpg"" style=""width:8cm; height:5cm;""><p>What type of rock is this?</p>","4","class_response","1","train","13","Obsidian","Obsidian","09","true","5","5","",""
"","","","","","","","","","","","html-button-response","130","2.0.0","2951846","55b3120cfdf99b6ef6263a71","1","23","908","","","","","","","","","<img src= rock_img/I_Obsidian_09.jpg style=""width:8cm; height:5cm;""><p style='font-size: 30px; color: green;'><strong>Correct!</strong></p><p style='font-size: 30px;'><strong>This rock is obsidian</strong></p>","0","corr_feedback","1","train","13","","","","","","","",""
"","","","","","","","","","","","html-button-response","131","2.0.0","2956528","55b3120cfdf99b6ef6263a71","1","23","4680","","","","","","","","","<img src= ""rock_img/I_Basalt_14.jpg"" style=""width:8cm; height:5.82cm;""><p>What type of rock is this?</p>","5","class_response","1","train","14","Pegmatite","Basalt","14","false","6","2","",""
"","","","","","","","","","","","html-button-response","132","2.0.0","2957508","55b3120cfdf99b6ef6263a71","1","23","978","","","","","","","","","<img src= rock_img/I_Basalt_14.jpg style=""width:8cm; height:5.82cm;""><p style='font-size: 30px; color: red;'><strong>Incorrect!</strong></p><p style='font-size: 30px;'><strong>This rock is basalt</strong></p>","0","corr_feedback","1","train","14","","","","","","","",""
"","","","","","","","","","","","html-button-response","133","2.0.0","2962569","55b3120cfdf99b6ef6263a71","1","23","5060","","","","","","","","","<img src= ""rock_img/I_Diorite_08.jpg"" style=""width:8cm; height:6.37cm;""><p>What type of rock is this?</p>","5","class_response","1","train","15","Pegmatite","Diorite","08","false","6","3","",""
"","","","","","","","","","","","html-button-response","134","2.0.0","2963492","55b3120cfdf99b6ef6263a71","1","23","921","","","","","","","","","<img src= rock_img/I_Diorite_08.jpg style=""width:8cm; height:6.37cm;""><p style='font-size: 30px; color: red;'><strong>Incorrect!</strong></p><p style='font-size: 30px;'><strong>This rock is diorite</strong></p>","0","corr_feedback","1","train","15","","","","","","","",""
"","","","","","","","","","","","html-button-response","135","2.0.0","2964936","55b3120cfdf99b6ef6263a71","1","23","1442","","","","","","","","","<img src= ""rock_img/I_Obsidian_04.jpg"" style=""width:8cm; height:6.930000000000001cm;""><p>What type of rock is this?</p>","4","class_response","1","train","16","Obsidian","Obsidian","04","true","5","5","",""
"","","","","","","","","","","","html-button-response","136","2.0.0","2966095","55b3120cfdf99b6ef6263a71","1","23","1158","","","","","","","","","<img src= rock_img/I_Obsidian_04.jpg style=""width:8cm; height:6.930000000000001cm;""><p style='font-size: 30px; color: green;'><strong>Correct!</strong></p><p style='font-size: 30px;'><strong>This rock is obsidian</strong></p>","0","corr_feedback","1","train","16","","","","","","","",""
"","","","","","","","","","","","html-button-response","137","2.0.0","2967694","55b3120cfdf99b6ef6263a71","1","23","1596","","","","","","","","","<img src= ""rock_img/I_Basalt_01.jpg"" style=""width:8cm; height:7.880000000000001cm;""><p>What type of rock is this?</p>","3","class_response","1","train","17","Gabbro","Basalt","01","false","4","2","",""
"","","","","","","","","","","","html-button-response","138","2.0.0","2968580","55b3120cfdf99b6ef6263a71","1","23","885","","","","","","","","","<img src= rock_img/I_Basalt_01.jpg style=""width:8cm; height:7.880000000000001cm;""><p style='font-size: 30px; color: red;'><strong>Incorrect!</strong></p><p style='font-size: 30px;'><strong>This rock is basalt</strong></p>","0","corr_feedback","1","train","17","","","","","","","",""
"","","","","","","","","","","","html-button-response","139","2.0.0","2969896","55b3120cfdf99b6ef6263a71","1","23","1314","","","","","","","","","<img src= ""rock_img/I_Peridotite_14.jpg"" style=""width:8cm; height:5.3cm;""><p>What type of rock is this?</p>","6","class_response","1","train","18","Peridotite","Peridotite","14","true","7","7","",""
"","","","","","","","","","","","html-button-response","140","2.0.0","2970624","55b3120cfdf99b6ef6263a71","1","23","726","","","","","","","","","<img src= rock_img/I_Peridotite_14.jpg style=""width:8cm; height:5.3cm;""><p style='font-size: 30px; color: green;'><strong>Correct!</strong></p><p style='font-size: 30px;'><strong>This rock is peridotite</strong></p>","0","corr_feedback","1","train","18","","","","","","","",""
"","","","","","","","","","","","html-button-response","141","2.0.0","2971611","55b3120cfdf99b6ef6263a71","1","23","985","","","","","","","","","<img src= ""rock_img/I_Pegmatite_10.jpg"" style=""width:8cm; height:4.16cm;""><p>What type of rock is this?</p>","6","class_response","1","train","19","Peridotite","Pegmatite","10","false","7","6","",""
"","","","","","","","","","","","html-button-response","142","2.0.0","2973127","55b3120cfdf99b6ef6263a71","1","23","1514","","","","","","","","","<img src= rock_img/I_Pegmatite_10.jpg style=""width:8cm; height:4.16cm;""><p style='font-size: 30px; color: red;'><strong>Incorrect!</strong></p><p style='font-size: 30px;'><strong>This rock is pegmatite</strong></p>","0","corr_feedback","1","train","19","","","","","","","",""
"","","","","","","","","","","","html-button-response","143","2.0.0","2974696","55b3120cfdf99b6ef6263a71","1","23","1567","","","","","","","","","<img src= ""rock_img/I_Pumice_02.jpg"" style=""width:8cm; height:7.3999999999999995cm;""><p>What type of rock is this?</p>","7","class_response","1","train","20","Pumice","Pumice","02","true","8","8","",""
"","","","","","","","","","","","html-button-response","144","2.0.0","2975391","55b3120cfdf99b6ef6263a71","1","23","693","","","","","","","","","<img src= rock_img/I_Pumice_02.jpg style=""width:8cm; height:7.3999999999999995cm;""><p style='font-size: 30px; color: green;'><strong>Correct!</strong></p><p style='font-size: 30px;'><strong>This rock is pumice</strong></p>","0","corr_feedback","1","train","20","","","","","","","",""
"","","","","","","","","","","","html-button-response","145","2.0.0","2976462","55b3120cfdf99b6ef6263a71","1","23","1069","","","","","","","","","<img src= ""rock_img/I_Pumice_14.jpg"" style=""width:8cm; height:6.39cm;""><p>What type of rock is this?</p>","7","class_response","1","train","21","Pumice","Pumice","14","true","8","8","",""
"","","","","","","","","","","","html-button-response","146","2.0.0","2977144","55b3120cfdf99b6ef6263a71","1","23","680","","","","","","","","","<img src= rock_img/I_Pumice_14.jpg style=""width:8cm; height:6.39cm;""><p style='font-size: 30px; color: green;'><strong>Correct!</strong></p><p style='font-size: 30px;'><strong>This rock is pumice</strong></p>","0","corr_feedback","1","train","21","","","","","","","",""
"","","","","","","","","","","","html-button-response","147","2.0.0","2979569","55b3120cfdf99b6ef6263a71","1","23","2423","","","","","","","","","<img src= ""rock_img/I_Andesite_01.jpg"" style=""width:8cm; height:5.87cm;""><p>What type of rock is this?</p>","2","class_response","1","train","22","Diorite","Andesite","01","false","3","1","",""
"","","","","","","","","","","","html-button-response","148","2.0.0","2980752","55b3120cfdf99b6ef6263a71","1","23","1182","","","","","","","","","<img src= rock_img/I_Andesite_01.jpg style=""width:8cm; height:5.87cm;""><p style='font-size: 30px; color: red;'><strong>Incorrect!</strong></p><p style='font-size: 30px;'><strong>This rock is andesite</strong></p>","0","corr_feedback","1","train","22","","","","","","","",""
"","","","","","","","","","","","html-button-response","149","2.0.0","2982757","55b3120cfdf99b6ef6263a71","1","23","2003","","","","","","","","","<img src= ""rock_img/I_Obsidian_05.jpg"" style=""width:8cm; height:6.33cm;""><p>What type of rock is this?</p>","4","class_response","1","train","23","Obsidian","Obsidian","05","true","5","5","",""
"","","","","","","","","","","","html-button-response","150","2.0.0","2983428","55b3120cfdf99b6ef6263a71","1","23","670","","","","","","","","","<img src= rock_img/I_Obsidian_05.jpg style=""width:8cm; height:6.33cm;""><p style='font-size: 30px; color: green;'><strong>Correct!</strong></p><p style='font-size: 30px;'><strong>This rock is obsidian</strong></p>","0","corr_feedback","1","train","23","","","","","","","",""
"","","","","","","","","","","","html-button-response","151","2.0.0","2985947","55b3120cfdf99b6ef6263a71","1","23","2517","","","","","","","","","<img src= ""rock_img/I_Gabbro_05.jpg"" style=""width:8cm; height:6cm;""><p>What type of rock is this?</p>","3","class_response","1","train","24","Gabbro","Gabbro","05","true","4","4","",""
"","","","","","","","","","","","html-button-response","152","2.0.0","2986777","55b3120cfdf99b6ef6263a71","1","23","828","","","","","","","","","<img src= rock_img/I_Gabbro_05.jpg style=""width:8cm; height:6cm;""><p style='font-size: 30px; color: green;'><strong>Correct!</strong></p><p style='font-size: 30px;'><strong>This rock is gabbro</strong></p>","0","corr_feedback","1","train","24","","","","","","","",""
"","","","","","","","","","","","html-button-response","153","2.0.0","2988634","55b3120cfdf99b6ef6263a71","1","23","1856","","","","","","","","","<img src= ""rock_img/I_Gabbro_12.jpg"" style=""width:8cm; height:7.800000000000001cm;""><p>What type of rock is this?</p>","3","class_response","1","train","25","Gabbro","Gabbro","12","true","4","4","",""
"","","","","","","","","","","","html-button-response","154","2.0.0","2989496","55b3120cfdf99b6ef6263a71","1","23","861","","","","","","","","","<img src= rock_img/I_Gabbro_12.jpg style=""width:8cm; height:7.800000000000001cm;""><p style='font-size: 30px; color: green;'><strong>Correct!</strong></p><p style='font-size: 30px;'><strong>This rock is gabbro</strong></p>","0","corr_feedback","1","train","25","","","","","","","",""
"","","","","","","","","","","","html-button-response","155","2.0.0","2992371","55b3120cfdf99b6ef6263a71","1","23","2872","","","","","","","","","<img src= ""rock_img/I_Basalt_08.jpg"" style=""width:8cm; height:10.44cm;""><p>What type of rock is this?</p>","2","class_response","1","train","26","Diorite","Basalt","08","false","3","2","",""
"","","","","","","","","","","","html-button-response","156","2.0.0","2993202","55b3120cfdf99b6ef6263a71","1","23","829","","","","","","","","","<img src= rock_img/I_Basalt_08.jpg style=""width:8cm; height:10.44cm;""><p style='font-size: 30px; color: red;'><strong>Incorrect!</strong></p><p style='font-size: 30px;'><strong>This rock is basalt</strong></p>","0","corr_feedback","1","train","26","","","","","","","",""
"","","","","","","","","","","","html-button-response","157","2.0.0","2994854","55b3120cfdf99b6ef6263a71","1","23","1650","","","","","","","","","<img src= ""rock_img/I_Pumice_05.jpg"" style=""width:8cm; height:7.25cm;""><p>What type of rock is this?</p>","7","class_response","1","train","27","Pumice","Pumice","05","true","8","8","",""
"","","","","","","","","","","","html-button-response","158","2.0.0","2995490","55b3120cfdf99b6ef6263a71","1","23","635","","","","","","","","","<img src= rock_img/I_Pumice_05.jpg style=""width:8cm; height:7.25cm;""><p style='font-size: 30px; color: green;'><strong>Correct!</strong></p><p style='font-size: 30px;'><strong>This rock is pumice</strong></p>","0","corr_feedback","1","train","27","","","","","","","",""
"","","","","","","","","","","","html-button-response","159","2.0.0","2996400","55b3120cfdf99b6ef6263a71","1","23","908","","","","","","","","","<img src= ""rock_img/I_Peridotite_15.jpg"" style=""width:8cm; height:6cm;""><p>What type of rock is this?</p>","6","class_response","1","train","28","Peridotite","Peridotite","15","true","7","7","",""
"","","","","","","","","","","","html-button-response","160","2.0.0","2997001","55b3120cfdf99b6ef6263a71","1","23","599","","","","","","","","","<img src= rock_img/I_Peridotite_15.jpg style=""width:8cm; height:6cm;""><p style='font-size: 30px; color: green;'><strong>Correct!</strong></p><p style='font-size: 30px;'><strong>This rock is peridotite</strong></p>","0","corr_feedback","1","train","28","","","","","","","",""
"","","","","","","","","","","","html-button-response","161","2.0.0","3001632","55b3120cfdf99b6ef6263a71","1","23","4630","","","","","","","","","<img src= ""rock_img/I_Andesite_16.jpg"" style=""width:8cm; height:6.010000000000001cm;""><p>What type of rock is this?</p>","0","class_response","1","train","29","Andesite","Andesite","16","true","1","1","",""
"","","","","","","","","","","","html-button-response","162","2.0.0","3002473","55b3120cfdf99b6ef6263a71","1","23","839","","","","","","","","","<img src= rock_img/I_Andesite_16.jpg style=""width:8cm; height:6.010000000000001cm;""><p style='font-size: 30px; color: green;'><strong>Correct!</strong></p><p style='font-size: 30px;'><strong>This rock is andesite</strong></p>","0","corr_feedback","1","train","29","","","","","","","",""
"","","","","","","","","","","","html-button-response","163","2.0.0","3007350","55b3120cfdf99b6ef6263a71","1","23","4875","","","","","","","","","<img src= ""rock_img/I_Basalt_11.jpg"" style=""width:8cm; height:5.359999999999999cm;""><p>What type of rock is this?</p>","2","class_response","1","train","30","Diorite","Basalt","11","false","3","2","",""
"","","","","","","","","","","","html-button-response","164","2.0.0","3008294","55b3120cfdf99b6ef6263a71","1","23","943","","","","","","","","","<img src= rock_img/I_Basalt_11.jpg style=""width:8cm; height:5.359999999999999cm;""><p style='font-size: 30px; color: red;'><strong>Incorrect!</strong></p><p style='font-size: 30px;'><strong>This rock is basalt</strong></p>","0","corr_feedback","1","train","30","","","","","","","",""
"","","","","","","","","","","","html-button-response","165","2.0.0","3009989","55b3120cfdf99b6ef6263a71","1","23","1694","","","","","","","","","<img src= ""rock_img/I_Peridotite_02.jpg"" style=""width:8cm; height:5.859999999999999cm;""><p>What type of rock is this?</p>","6","class_response","1","train","31","Peridotite","Peridotite","02","true","7","7","",""
"","","","","","","","","","","","html-button-response","166","2.0.0","3010726","55b3120cfdf99b6ef6263a71","1","23","735","","","","","","","","","<img src= rock_img/I_Peridotite_02.jpg style=""width:8cm; height:5.859999999999999cm;""><p style='font-size: 30px; color: green;'><strong>Correct!</strong></p><p style='font-size: 30px;'><strong>This rock is peridotite</strong></p>","0","corr_feedback","1","train","31","","","","","","","",""
"","","","","","","","","","","","html-button-response","167","2.0.0","3015715","55b3120cfdf99b6ef6263a71","1","23","4987","","","","","","","","","<img src= ""rock_img/I_Andesite_10.jpg"" style=""width:8cm; height:4.16cm;""><p>What type of rock is this?</p>","3","class_response","1","train","32","Gabbro","Andesite","10","false","4","1","",""
"","","","","","","","","","","","html-button-response","168","2.0.0","3016626","55b3120cfdf99b6ef6263a71","1","23","910","","","","","","","","","<img src= rock_img/I_Andesite_10.jpg style=""width:8cm; height:4.16cm;""><p style='font-size: 30px; color: red;'><strong>Incorrect!</strong></p><p style='font-size: 30px;'><strong>This rock is andesite</strong></p>","0","corr_feedback","1","train","32","","","","","","","",""
"","","","","","","","","","","","html-button-response","169","2.0.0","3020137","55b3120cfdf99b6ef6263a71","1","23","3509","","","","","","","","","<img src= ""rock_img/I_Peridotite_08.jpg"" style=""width:8cm; height:6.7cm;""><p>What type of rock is this?</p>","2","class_response","1","train","33","Diorite","Peridotite","08","false","3","7","",""
"","","","","","","","","","","","html-button-response","170","2.0.0","3021123","55b3120cfdf99b6ef6263a71","1","23","984","","","","","","","","","<img src= rock_img/I_Peridotite_08.jpg style=""width:8cm; height:6.7cm;""><p style='font-size: 30px; color: red;'><strong>Incorrect!</strong></p><p style='font-size: 30px;'><strong>This rock is peridotite</strong></p>","0","corr_feedback","1","train","33","","","","","","","",""
"","","","","","","","","","","","html-button-response","171","2.0.0","3023651","55b3120cfdf99b6ef6263a71","1","23","2527","","","","","","","","","<img src= ""rock_img/I_Pegmatite_11.jpg"" style=""width:8cm; height:8.14cm;""><p>What type of rock is this?</p>","4","class_response","1","train","34","Obsidian","Pegmatite","11","false","5","6","",""
"","","","","","","","","","","","html-button-response","172","2.0.0","3025129","55b3120cfdf99b6ef6263a71","1","23","1476","","","","","","","","","<img src= rock_img/I_Pegmatite_11.jpg style=""width:8cm; height:8.14cm;""><p style='font-size: 30px; color: red;'><strong>Incorrect!</strong></p><p style='font-size: 30px;'><strong>This rock is pegmatite</strong></p>","0","corr_feedback","1","train","34","","","","","","","",""
"","","","","","","","","","","","html-button-response","173","2.0.0","3027110","55b3120cfdf99b6ef6263a71","1","23","1979","","","","","","","","","<img src= ""rock_img/I_Pegmatite_03.jpg"" style=""width:8cm; height:5.239999999999999cm;""><p>What type of rock is this?</p>","6","class_response","1","train","35","Peridotite","Pegmatite","03","false","7","6","",""
"","","","","","","","","","","","html-button-response","174","2.0.0","3027678","55b3120cfdf99b6ef6263a71","1","23","567","","","","","","","","","<img src= rock_img/I_Pegmatite_03.jpg style=""width:8cm; height:5.239999999999999cm;""><p style='font-size: 30px; color: red;'><strong>Incorrect!</strong></p><p style='font-size: 30px;'><strong>This rock is pegmatite</strong></p>","0","corr_feedback","1","train","35","","","","","","","",""
"","","","","","","","","","","","html-button-response","175","2.0.0","3029431","55b3120cfdf99b6ef6263a71","1","23","1750","","","","","","","","","<img src= ""rock_img/I_Pumice_15.jpg"" style=""width:8cm; height:7.86cm;""><p>What type of rock is this?</p>","7","class_response","1","train","36","Pumice","Pumice","15","true","8","8","",""
"","","","","","","","","","","","html-button-response","176","2.0.0","3030079","55b3120cfdf99b6ef6263a71","1","23","647","","","","","","","","","<img src= rock_img/I_Pumice_15.jpg style=""width:8cm; height:7.86cm;""><p style='font-size: 30px; color: green;'><strong>Correct!</strong></p><p style='font-size: 30px;'><strong>This rock is pumice</strong></p>","0","corr_feedback","1","train","36","","","","","","","",""
"","","","","","","","","","","","html-button-response","177","2.0.0","3031275","55b3120cfdf99b6ef6263a71","1","23","1194","","","","","","","","","<img src= ""rock_img/I_Pumice_04.jpg"" style=""width:8cm; height:6.819999999999999cm;""><p>What type of rock is this?</p>","7","class_response","1","train","37","Pumice","Pumice","04","true","8","8","",""
"","","","","","","","","","","","html-button-response","178","2.0.0","3031773","55b3120cfdf99b6ef6263a71","1","23","497","","","","","","","","","<img src= rock_img/I_Pumice_04.jpg style=""width:8cm; height:6.819999999999999cm;""><p style='font-size: 30px; color: green;'><strong>Correct!</strong></p><p style='font-size: 30px;'><strong>This rock is pumice</strong></p>","0","corr_feedback","1","train","37","","","","","","","",""
"","","","","","","","","","","","html-button-response","179","2.0.0","3033532","55b3120cfdf99b6ef6263a71","1","23","1758","","","","","","","","","<img src= ""rock_img/I_Pegmatite_12.jpg"" style=""width:8cm; height:5.7cm;""><p>What type of rock is this?</p>","1","class_response","1","train","38","Basalt","Pegmatite","12","false","2","6","",""
"","","","","","","","","","","","html-button-response","180","2.0.0","3034580","55b3120cfdf99b6ef6263a71","1","23","1046","","","","","","","","","<img src= rock_img/I_Pegmatite_12.jpg style=""width:8cm; height:5.7cm;""><p style='font-size: 30px; color: red;'><strong>Incorrect!</strong></p><p style='font-size: 30px;'><strong>This rock is pegmatite</strong></p>","0","corr_feedback","1","train","38","","","","","","","",""
"","","","","","","","","","","","html-button-response","181","2.0.0","3036104","55b3120cfdf99b6ef6263a71","1","23","1522","","","","","","","","","<img src= ""rock_img/I_Diorite_13.jpg"" style=""width:8cm; height:6.29cm;""><p>What type of rock is this?</p>","5","class_response","1","train","39","Pegmatite","Diorite","13","false","6","3","",""
"","","","","","","","","","","","html-button-response","182","2.0.0","3037173","55b3120cfdf99b6ef6263a71","1","23","1067","","","","","","","","","<img src= rock_img/I_Diorite_13.jpg style=""width:8cm; height:6.29cm;""><p style='font-size: 30px; color: red;'><strong>Incorrect!</strong></p><p style='font-size: 30px;'><strong>This rock is diorite</strong></p>","0","corr_feedback","1","train","39","","","","","","","",""
"","","","","","","","","","","","html-button-response","183","2.0.0","3038981","55b3120cfdf99b6ef6263a71","1","23","1807","","","","","","","","","<img src= ""rock_img/I_Diorite_15.jpg"" style=""width:8cm; height:5.54cm;""><p>What type of rock is this?</p>","2","class_response","1","train","40","Diorite","Diorite","15","true","3","3","",""
"","","","","","","","","","","","html-button-response","184","2.0.0","3039835","55b3120cfdf99b6ef6263a71","1","23","852","","","","","","","","","<img src= rock_img/I_Diorite_15.jpg style=""width:8cm; height:5.54cm;""><p style='font-size: 30px; color: green;'><strong>Correct!</strong></p><p style='font-size: 30px;'><strong>This rock is diorite</strong></p>","0","corr_feedback","1","train","40","","","","","","","",""
"","","","","","","","","","","","html-button-response","185","2.0.0","3043790","55b3120cfdf99b6ef6263a71","1","23","3952","","","","","","","","","<img src= ""rock_img/I_Gabbro_16.jpg"" style=""width:8cm; height:6.44cm;""><p>What type of rock is this?</p>","5","class_response","1","train","41","Pegmatite","Gabbro","16","false","6","4","",""
"","","","","","","","","","","","html-button-response","186","2.0.0","3044676","55b3120cfdf99b6ef6263a71","1","23","885","","","","","","","","","<img src= rock_img/I_Gabbro_16.jpg style=""width:8cm; height:6.44cm;""><p style='font-size: 30px; color: red;'><strong>Incorrect!</strong></p><p style='font-size: 30px;'><strong>This rock is gabbro</strong></p>","0","corr_feedback","1","train","41","","","","","","","",""
"","","","","","","","","","","","html-button-response","187","2.0.0","3046876","55b3120cfdf99b6ef6263a71","1","23","2198","","","","","","","","","<img src= ""rock_img/I_Diorite_11.jpg"" style=""width:8cm; height:7.11cm;""><p>What type of rock is this?</p>","2","class_response","1","train","42","Diorite","Diorite","11","true","3","3","",""
"","","","","","","","","","","","html-button-response","188","2.0.0","3047730","55b3120cfdf99b6ef6263a71","1","23","853","","","","","","","","","<img src= rock_img/I_Diorite_11.jpg style=""width:8cm; height:7.11cm;""><p style='font-size: 30px; color: green;'><strong>Correct!</strong></p><p style='font-size: 30px;'><strong>This rock is diorite</strong></p>","0","corr_feedback","1","train","42","","","","","","","",""
"","","","","","","","","","","","html-button-response","189","2.0.0","3048777","55b3120cfdf99b6ef6263a71","1","23","1045","","","","","","","","","<img src= ""rock_img/I_Obsidian_11.jpg"" style=""width:8cm; height:6.05cm;""><p>What type of rock is this?</p>","4","class_response","1","train","43","Obsidian","Obsidian","11","true","5","5","",""
"","","","","","","","","","","","html-button-response","190","2.0.0","3049426","55b3120cfdf99b6ef6263a71","1","23","647","","","","","","","","","<img src= rock_img/I_Obsidian_11.jpg style=""width:8cm; height:6.05cm;""><p style='font-size: 30px; color: green;'><strong>Correct!</strong></p><p style='font-size: 30px;'><strong>This rock is obsidian</strong></p>","0","corr_feedback","1","train","43","","","","","","","",""
"","","","","","","","","","","","html-button-response","191","2.0.0","3052630","55b3120cfdf99b6ef6263a71","1","23","3202","","","","","","","","","<img src= ""rock_img/I_Pegmatite_15.jpg"" style=""width:8cm; height:6cm;""><p>What type of rock is this?</p>","1","class_response","1","train","44","Basalt","Pegmatite","15","false","2","6","",""
"","","","","","","","","","","","html-button-response","192","2.0.0","3053702","55b3120cfdf99b6ef6263a71","1","23","1070","","","","","","","","","<img src= rock_img/I_Pegmatite_15.jpg style=""width:8cm; height:6cm;""><p style='font-size: 30px; color: red;'><strong>Incorrect!</strong></p><p style='font-size: 30px;'><strong>This rock is pegmatite</strong></p>","0","corr_feedback","1","train","44","","","","","","","",""
"","","","","","","","","","","","html-button-response","193","2.0.0","3058689","55b3120cfdf99b6ef6263a71","1","23","4985","","","","","","","","","<img src= ""rock_img/I_Diorite_14.jpg"" style=""width:8cm; height:5.71cm;""><p>What type of rock is this?</p>","1","class_response","1","train","45","Basalt","Diorite","14","false","2","3","",""
"","","","","","","","","","","","html-button-response","194","2.0.0","3059848","55b3120cfdf99b6ef6263a71","1","23","1158","","","","","","","","","<img src= rock_img/I_Diorite_14.jpg style=""width:8cm; height:5.71cm;""><p style='font-size: 30px; color: red;'><strong>Incorrect!</strong></p><p style='font-size: 30px;'><strong>This rock is diorite</strong></p>","0","corr_feedback","1","train","45","","","","","","","",""
"","","","","","","","","","","","html-button-response","195","2.0.0","3061068","55b3120cfdf99b6ef6263a71","1","23","1218","","","","","","","","","<img src= ""rock_img/I_Andesite_07.jpg"" style=""width:8cm; height:5.93cm;""><p>What type of rock is this?</p>","2","class_response","1","train","46","Diorite","Andesite","07","false","3","1","",""
"","","","","","","","","","","","html-button-response","196","2.0.0","3062240","55b3120cfdf99b6ef6263a71","1","23","1171","","","","","","","","","<img src= rock_img/I_Andesite_07.jpg style=""width:8cm; height:5.93cm;""><p style='font-size: 30px; color: red;'><strong>Incorrect!</strong></p><p style='font-size: 30px;'><strong>This rock is andesite</strong></p>","0","corr_feedback","1","train","46","","","","","","","",""
"","","","","","","","","","","","html-button-response","197","2.0.0","3064448","55b3120cfdf99b6ef6263a71","1","23","2207","","","","","","","","","<img src= ""rock_img/I_Basalt_04.jpg"" style=""width:8cm; height:7.53cm;""><p>What type of rock is this?</p>","3","class_response","1","train","47","Gabbro","Basalt","04","false","4","2","",""
"","","","","","","","","","","","html-button-response","198","2.0.0","3065308","55b3120cfdf99b6ef6263a71","1","23","859","","","","","","","","","<img src= rock_img/I_Basalt_04.jpg style=""width:8cm; height:7.53cm;""><p style='font-size: 30px; color: red;'><strong>Incorrect!</strong></p><p style='font-size: 30px;'><strong>This rock is basalt</strong></p>","0","corr_feedback","1","train","47","","","","","","","",""
"","","","","","","","","","","","html-button-response","199","2.0.0","3068297","55b3120cfdf99b6ef6263a71","1","23","2987","","","","","","","","","<img src= ""rock_img/I_Andesite_04.jpg"" style=""width:8cm; height:5.96cm;""><p>What type of rock is this?</p>","0","class_response","1","train","48","Andesite","Andesite","04","true","1","1","",""
"","","","","","","","","","","","html-button-response","200","2.0.0","3069367","55b3120cfdf99b6ef6263a71","1","23","1069","","","","","","","","","<img src= rock_img/I_Andesite_04.jpg style=""width:8cm; height:5.96cm;""><p style='font-size: 30px; color: green;'><strong>Correct!</strong></p><p style='font-size: 30px;'><strong>This rock is andesite</strong></p>","0","corr_feedback","1","train","48","","","","","","","",""
"","","","","","","","","","","","instructions","203","2.0.0","3094771","55b3120cfdf99b6ef6263a71","1","23","25401","","","","","","","","[{""page_index"":0,""viewing_time"":8117},{""page_index"":1,""viewing_time"":17284}]","","","","","","","","","","","","","",""
"","","","","","","","","","","","html-button-response","204","2.0.0","3096015","55b3120cfdf99b6ef6263a71","1","23","1244","","","","","","","","","","0","start_test","","","","","","","","","","",""
"","","","","","","","","","","","html-button-response","205","2.0.0","3097129","55b3120cfdf99b6ef6263a71","1","23","1112","","","","","","","","","<img src= ""rock_img/I_Obsidian_08.jpg"" style=""width:8cm; height:7.39cm;""><p>What type of rock is this?</p>","4","class_response","1","test","1","Obsidian","Obsidian","08","true","5","5","",""
"","","","","","","","","","","","html-keyboard-response","206","2.0.0","3097643","55b3120cfdf99b6ef6263a71","1","23","null","","","","","","","","","<p style='font-size: 30px;'><strong>Okay</strong></p>","null","neutral_feedback","1","test","1","","","","","","","",""
"","","","","","","","","","","","html-button-response","207","2.0.0","3100976","55b3120cfdf99b6ef6263a71","1","23","3331","","","","","","","","","<img src= ""rock_img/I_Pumice_13.jpg"" style=""width:8cm; height:8.200000000000001cm;""><p>What type of rock is this?</p>","7","class_response","1","test","2","Pumice","Pumice","13","true","8","8","",""
"","","","","","","","","","","","html-keyboard-response","208","2.0.0","3101479","55b3120cfdf99b6ef6263a71","1","23","null","","","","","","","","","<p style='font-size: 30px;'><strong>Okay</strong></p>","null","neutral_feedback","1","test","2","","","","","","","",""
"","","","","","","","","","","","html-button-response","209","2.0.0","3102591","55b3120cfdf99b6ef6263a71","1","23","1110","","","","","","","","","<img src= ""rock_img/I_Peridotite_16.jpg"" style=""width:8cm; height:6.989999999999999cm;""><p>What type of rock is this?</p>","6","class_response","1","test","3","Peridotite","Peridotite","16","true","7","7","",""
"","","","","","","","","","","","html-keyboard-response","210","2.0.0","3103104","55b3120cfdf99b6ef6263a71","1","23","null","","","","","","","","","<p style='font-size: 30px;'><strong>Okay</strong></p>","null","neutral_feedback","1","test","3","","","","","","","",""
"","","","","","","","","","","","html-button-response","211","2.0.0","3106141","55b3120cfdf99b6ef6263a71","1","23","3036","","","","","","","","","<img src= ""rock_img/I_Diorite_10.jpg"" style=""width:8cm; height:5.949999999999999cm;""><p>What type of rock is this?</p>","2","class_response","1","test","4","Diorite","Diorite","10","true","3","3","",""
"","","","","","","","","","","","html-keyboard-response","212","2.0.0","3106653","55b3120cfdf99b6ef6263a71","1","23","null","","","","","","","","","<p style='font-size: 30px;'><strong>Okay</strong></p>","null","neutral_feedback","1","test","4","","","","","","","",""
"","","","","","","","","","","","html-button-response","213","2.0.0","3108742","55b3120cfdf99b6ef6263a71","1","23","2086","","","","","","","","","<img src= ""rock_img/I_Peridotite_12.jpg"" style=""width:8cm; height:4.54cm;""><p>What type of rock is this?</p>","6","class_response","1","test","5","Peridotite","Peridotite","12","true","7","7","",""
"","","","","","","","","","","","html-keyboard-response","214","2.0.0","3109245","55b3120cfdf99b6ef6263a71","1","23","null","","","","","","","","","<p style='font-size: 30px;'><strong>Okay</strong></p>","null","neutral_feedback","1","test","5","","","","","","","",""
"","","","","","","","","","","","html-button-response","215","2.0.0","3112643","55b3120cfdf99b6ef6263a71","1","23","3395","","","","","","","","","<img src= ""rock_img/I_Andesite_03.jpg"" style=""width:8cm; height:5.73cm;""><p>What type of rock is this?</p>","5","class_response","1","test","6","Pegmatite","Andesite","03","false","6","1","",""
"","","","","","","","","","","","html-keyboard-response","216","2.0.0","3113152","55b3120cfdf99b6ef6263a71","1","23","null","","","","","","","","","<p style='font-size: 30px;'><strong>Okay</strong></p>","null","neutral_feedback","1","test","6","","","","","","","",""
"","","","","","","","","","","","html-button-response","217","2.0.0","3114293","55b3120cfdf99b6ef6263a71","1","23","1139","","","","","","","","","<img src= ""rock_img/I_Obsidian_14.jpg"" style=""width:8cm; height:7.64cm;""><p>What type of rock is this?</p>","4","class_response","1","test","7","Obsidian","Obsidian","14","true","5","5","",""
"","","","","","","","","","","","html-keyboard-response","218","2.0.0","3114807","55b3120cfdf99b6ef6263a71","1","23","null","","","","","","","","","<p style='font-size: 30px;'><strong>Okay</strong></p>","null","neutral_feedback","1","test","7","","","","","","","",""
"","","","","","","","","","","","html-button-response","219","2.0.0","3119227","55b3120cfdf99b6ef6263a71","1","23","4419","","","","","","","","","<img src= ""rock_img/I_Gabbro_11.jpg"" style=""width:8cm; height:6.2cm;""><p>What type of rock is this?</p>","3","class_response","1","test","8","Gabbro","Gabbro","11","true","4","4","",""
"","","","","","","","","","","","html-keyboard-response","220","2.0.0","3119742","55b3120cfdf99b6ef6263a71","1","23","null","","","","","","","","","<p style='font-size: 30px;'><strong>Okay</strong></p>","null","neutral_feedback","1","test","8","","","","","","","",""
"","","","","","","","","","","","html-button-response","221","2.0.0","3120757","55b3120cfdf99b6ef6263a71","1","23","1013","","","","","","","","","<img src= ""rock_img/I_Obsidian_02.jpg"" style=""width:8cm; height:7.51cm;""><p>What type of rock is this?</p>","4","class_response","1","test","9","Obsidian","Obsidian","02","true","5","5","",""
"","","","","","","","","","","","html-keyboard-response","222","2.0.0","3121262","55b3120cfdf99b6ef6263a71","1","23","null","","","","","","","","","<p style='font-size: 30px;'><strong>Okay</strong></p>","null","neutral_feedback","1","test","9","","","","","","","",""
"","","","","","","","","","","","html-button-response","223","2.0.0","3126803","55b3120cfdf99b6ef6263a71","1","23","5541","","","","","","","","","<img src= ""rock_img/I_Basalt_02.jpg"" style=""width:8cm; height:6.45cm;""><p>What type of rock is this?</p>","2","class_response","1","test","10","Diorite","Basalt","02","false","3","2","",""
"","","","","","","","","","","","html-keyboard-response","224","2.0.0","3127305","55b3120cfdf99b6ef6263a71","1","23","null","","","","","","","","","<p style='font-size: 30px;'><strong>Okay</strong></p>","null","neutral_feedback","1","test","10","","","","","","","",""
"","","","","","","","","","","","html-button-response","225","2.0.0","3131200","55b3120cfdf99b6ef6263a71","1","23","3893","","","","","","","","","<img src= ""rock_img/I_Gabbro_03.jpg"" style=""width:8cm; height:8.52cm;""><p>What type of rock is this?</p>","1","class_response","1","test","11","Basalt","Gabbro","03","false","2","4","",""
"","","","","","","","","","","","html-keyboard-response","226","2.0.0","3131702","55b3120cfdf99b6ef6263a71","1","23","null","","","","","","","","","<p style='font-size: 30px;'><strong>Okay</strong></p>","null","neutral_feedback","1","test","11","","","","","","","",""
"","","","","","","","","","","","html-button-response","227","2.0.0","3132888","55b3120cfdf99b6ef6263a71","1","23","1184","","","","","","","","","<img src= ""rock_img/I_Pumice_08.jpg"" style=""width:8cm; height:6.67cm;""><p>What type of rock is this?</p>","7","class_response","1","test","12","Pumice","Pumice","08","true","8","8","",""
"","","","","","","","","","","","html-keyboard-response","228","2.0.0","3133391","55b3120cfdf99b6ef6263a71","1","23","null","","","","","","","","","<p style='font-size: 30px;'><strong>Okay</strong></p>","null","neutral_feedback","1","test","12","","","","","","","",""
"","","","","","","","","","","","html-button-response","229","2.0.0","3134583","55b3120cfdf99b6ef6263a71","1","23","1190","","","","","","","","","<img src= ""rock_img/I_Pumice_09.jpg"" style=""width:8cm; height:6.44cm;""><p>What type of rock is this?</p>","7","class_response","1","test","13","Pumice","Pumice","09","true","8","8","",""
"","","","","","","","","","","","html-keyboard-response","230","2.0.0","3135093","55b3120cfdf99b6ef6263a71","1","23","null","","","","","","","","","<p style='font-size: 30px;'><strong>Okay</strong></p>","null","neutral_feedback","1","test","13","","","","","","","",""
"","","","","","","","","","","","html-button-response","231","2.0.0","3140286","55b3120cfdf99b6ef6263a71","1","23","5191","","","","","","","","","<img src= ""rock_img/I_Andesite_09.jpg"" style=""width:8cm; height:6cm;""><p>What type of rock is this?</p>","0","class_response","1","test","14","Andesite","Andesite","09","true","1","1","",""
"","","","","","","","","","","","html-keyboard-response","232","2.0.0","3140797","55b3120cfdf99b6ef6263a71","1","23","null","","","","","","","","","<p style='font-size: 30px;'><strong>Okay</strong></p>","null","neutral_feedback","1","test","14","","","","","","","",""
"","","","","","","","","","","","html-button-response","233","2.0.0","3142357","55b3120cfdf99b6ef6263a71","1","23","1558","","","","","","","","","<img src= ""rock_img/I_Gabbro_10.jpg"" style=""width:8cm; height:5.680000000000001cm;""><p>What type of rock is this?</p>","3","class_response","1","test","15","Gabbro","Gabbro","10","true","4","4","",""
"","","","","","","","","","","","html-keyboard-response","234","2.0.0","3142868","55b3120cfdf99b6ef6263a71","1","23","null","","","","","","","","","<p style='font-size: 30px;'><strong>Okay</strong></p>","null","neutral_feedback","1","test","15","","","","","","","",""
"","","","","","","","","","","","html-button-response","235","2.0.0","3145048","55b3120cfdf99b6ef6263a71","1","23","2179","","","","","","","","","<img src= ""rock_img/I_Diorite_07.jpg"" style=""width:8cm; height:5.239999999999999cm;""><p>What type of rock is this?</p>","1","class_response","1","test","16","Basalt","Diorite","07","false","2","3","",""
"","","","","","","","","","","","html-keyboard-response","236","2.0.0","3145553","55b3120cfdf99b6ef6263a71","1","23","null","","","","","","","","","<p style='font-size: 30px;'><strong>Okay</strong></p>","null","neutral_feedback","1","test","16","","","","","","","",""
"","","","","","","","","","","","html-button-response","237","2.0.0","3146517","55b3120cfdf99b6ef6263a71","1","23","962","","","","","","","","","<img src= ""rock_img/I_Obsidian_07.jpg"" style=""width:8cm; height:4.76cm;""><p>What type of rock is this?</p>","4","class_response","1","test","17","Obsidian","Obsidian","07","true","5","5","",""
"","","","","","","","","","","","html-keyboard-response","238","2.0.0","3147024","55b3120cfdf99b6ef6263a71","1","23","null","","","","","","","","","<p style='font-size: 30px;'><strong>Okay</strong></p>","null","neutral_feedback","1","test","17","","","","","","","",""
"","","","","","","","","","","","html-button-response","239","2.0.0","3149635","55b3120cfdf99b6ef6263a71","1","23","2609","","","","","","","","","<img src= ""rock_img/I_Gabbro_15.jpg"" style=""width:8cm; height:6.29cm;""><p>What type of rock is this?</p>","2","class_response","1","test","18","Diorite","Gabbro","15","false","3","4","",""
"","","","","","","","","","","","html-keyboard-response","240","2.0.0","3150148","55b3120cfdf99b6ef6263a71","1","23","null","","","","","","","","","<p style='font-size: 30px;'><strong>Okay</strong></p>","null","neutral_feedback","1","test","18","","","","","","","",""
"","","","","","","","","","","","html-button-response","241","2.0.0","3154583","55b3120cfdf99b6ef6263a71","1","23","4433","","","","","","","","","<img src= ""rock_img/I_Peridotite_05.jpg"" style=""width:8cm; height:7.1499999999999995cm;""><p>What type of rock is this?</p>","3","class_response","1","test","19","Gabbro","Peridotite","05","false","4","7","",""
"","","","","","","","","","","","html-keyboard-response","242","2.0.0","3155103","55b3120cfdf99b6ef6263a71","1","23","null","","","","","","","","","<p style='font-size: 30px;'><strong>Okay</strong></p>","null","neutral_feedback","1","test","19","","","","","","","",""
"","","","","","","","","","","","html-button-response","243","2.0.0","3156120","55b3120cfdf99b6ef6263a71","1","23","1015","","","","","","","","","<img src= ""rock_img/I_Obsidian_12.jpg"" style=""width:8cm; height:6.53cm;""><p>What type of rock is this?</p>","4","class_response","1","test","20","Obsidian","Obsidian","12","true","5","5","",""
"","","","","","","","","","","","html-keyboard-response","244","2.0.0","3156637","55b3120cfdf99b6ef6263a71","1","23","null","","","","","","","","","<p style='font-size: 30px;'><strong>Okay</strong></p>","null","neutral_feedback","1","test","20","","","","","","","",""
"","","","","","","","","","","","html-button-response","245","2.0.0","3164801","55b3120cfdf99b6ef6263a71","1","23","8162","","","","","","","","","<img src= ""rock_img/I_Peridotite_04.jpg"" style=""width:8cm; height:6.680000000000001cm;""><p>What type of rock is this?</p>","0","class_response","1","test","21","Andesite","Peridotite","04","false","1","7","",""
"","","","","","","","","","","","html-keyboard-response","246","2.0.0","3165317","55b3120cfdf99b6ef6263a71","1","23","null","","","","","","","","","<p style='font-size: 30px;'><strong>Okay</strong></p>","null","neutral_feedback","1","test","21","","","","","","","",""
"","","","","","","","","","","","html-button-response","247","2.0.0","3168168","55b3120cfdf99b6ef6263a71","1","23","2849","","","","","","","","","<img src= ""rock_img/I_Basalt_05.jpg"" style=""width:8cm; height:8.18cm;""><p>What type of rock is this?</p>","3","class_response","1","test","22","Gabbro","Basalt","05","false","4","2","",""
"","","","","","","","","","","","html-keyboard-response","248","2.0.0","3168671","55b3120cfdf99b6ef6263a71","1","23","null","","","","","","","","","<p style='font-size: 30px;'><strong>Okay</strong></p>","null","neutral_feedback","1","test","22","","","","","","","",""
"","","","","","","","","","","","html-button-response","249","2.0.0","3173435","55b3120cfdf99b6ef6263a71","1","23","4762","","","","","","","","","<img src= ""rock_img/I_Diorite_12.jpg"" style=""width:8cm; height:4.88cm;""><p>What type of rock is this?</p>","1","class_response","1","test","23","Basalt","Diorite","12","false","2","3","",""
"","","","","","","","","","","","html-keyboard-response","250","2.0.0","3173936","55b3120cfdf99b6ef6263a71","1","23","null","","","","","","","","","<p style='font-size: 30px;'><strong>Okay</strong></p>","null","neutral_feedback","1","test","23","","","","","","","",""
"","","","","","","","","","","","html-button-response","251","2.0.0","3175211","55b3120cfdf99b6ef6263a71","1","23","1272","","","","","","","","","<img src= ""rock_img/I_Andesite_02.jpg"" style=""width:8cm; height:8.5cm;""><p>What type of rock is this?</p>","7","class_response","1","test","24","Pumice","Andesite","02","false","8","1","",""
"","","","","","","","","","","","html-keyboard-response","252","2.0.0","3175718","55b3120cfdf99b6ef6263a71","1","23","null","","","","","","","","","<p style='font-size: 30px;'><strong>Okay</strong></p>","null","neutral_feedback","1","test","24","","","","","","","",""
"","","","","","","","","","","","html-button-response","253","2.0.0","3176995","55b3120cfdf99b6ef6263a71","1","23","1275","","","","","","","","","<img src= ""rock_img/I_Andesite_05.jpg"" style=""width:8cm; height:4.12cm;""><p>What type of rock is this?</p>","6","class_response","1","test","25","Peridotite","Andesite","05","false","7","1","",""
"","","","","","","","","","","","html-keyboard-response","254","2.0.0","3177506","55b3120cfdf99b6ef6263a71","1","23","null","","","","","","","","","<p style='font-size: 30px;'><strong>Okay</strong></p>","null","neutral_feedback","1","test","25","","","","","","","",""
"","","","","","","","","","","","html-button-response","255","2.0.0","3178518","55b3120cfdf99b6ef6263a71","1","23","1010","","","","","","","","","<img src= ""rock_img/I_Peridotite_06.jpg"" style=""width:8cm; height:7.53cm;""><p>What type of rock is this?</p>","6","class_response","1","test","26","Peridotite","Peridotite","06","true","7","7","",""
"","","","","","","","","","","","html-keyboard-response","256","2.0.0","3179031","55b3120cfdf99b6ef6263a71","1","23","null","","","","","","","","","<p style='font-size: 30px;'><strong>Okay</strong></p>","null","neutral_feedback","1","test","26","","","","","","","",""
"","","","","","","","","","","","html-button-response","257","2.0.0","3181602","55b3120cfdf99b6ef6263a71","1","23","2569","","","","","","","","","<img src= ""rock_img/I_Gabbro_13.jpg"" style=""width:8cm; height:5.08cm;""><p>What type of rock is this?</p>","2","class_response","1","test","27","Diorite","Gabbro","13","false","3","4","",""
"","","","","","","","","","","","html-keyboard-response","258","2.0.0","3182117","55b3120cfdf99b6ef6263a71","1","23","null","","","","","","","","","<p style='font-size: 30px;'><strong>Okay</strong></p>","null","neutral_feedback","1","test","27","","","","","","","",""
"","","","","","","","","","","","html-button-response","259","2.0.0","3183842","55b3120cfdf99b6ef6263a71","1","23","1724","","","","","","","","","<img src= ""rock_img/I_Diorite_02.jpg"" style=""width:8cm; height:6.27cm;""><p>What type of rock is this?</p>","5","class_response","1","test","28","Pegmatite","Diorite","02","false","6","3","",""
"","","","","","","","","","","","html-keyboard-response","260","2.0.0","3184359","55b3120cfdf99b6ef6263a71","1","23","null","","","","","","","","","<p style='font-size: 30px;'><strong>Okay</strong></p>","null","neutral_feedback","1","test","28","","","","","","","",""
"","","","","","","","","","","","html-button-response","261","2.0.0","3185630","55b3120cfdf99b6ef6263a71","1","23","1269","","","","","","","","","<img src= ""rock_img/I_Andesite_14.jpg"" style=""width:8cm; height:5.449999999999999cm;""><p>What type of rock is this?</p>","5","class_response","1","test","29","Pegmatite","Andesite","14","false","6","1","",""
"","","","","","","","","","","","html-keyboard-response","262","2.0.0","3186131","55b3120cfdf99b6ef6263a71","1","23","null","","","","","","","","","<p style='font-size: 30px;'><strong>Okay</strong></p>","null","neutral_feedback","1","test","29","","","","","","","",""
"","","","","","","","","","","","html-button-response","263","2.0.0","3190303","55b3120cfdf99b6ef6263a71","1","23","4170","","","","","","","","","<img src= ""rock_img/I_Pegmatite_07.jpg"" style=""width:8cm; height:6.7cm;""><p>What type of rock is this?</p>","5","class_response","1","test","30","Pegmatite","Pegmatite","07","true","6","6","",""
"","","","","","","","","","","","html-keyboard-response","264","2.0.0","3190809","55b3120cfdf99b6ef6263a71","1","23","null","","","","","","","","","<p style='font-size: 30px;'><strong>Okay</strong></p>","null","neutral_feedback","1","test","30","","","","","","","",""
"","","","","","","","","","","","html-button-response","265","2.0.0","3194610","55b3120cfdf99b6ef6263a71","1","23","3798","","","","","","","","","<img src= ""rock_img/I_Andesite_06.jpg"" style=""width:8cm; height:6.840000000000001cm;""><p>What type of rock is this?</p>","1","class_response","1","test","31","Basalt","Andesite","06","false","2","1","",""
"","","","","","","","","","","","html-keyboard-response","266","2.0.0","3195119","55b3120cfdf99b6ef6263a71","1","23","null","","","","","","","","","<p style='font-size: 30px;'><strong>Okay</strong></p>","null","neutral_feedback","1","test","31","","","","","","","",""
"","","","","","","","","","","","html-button-response","267","2.0.0","3197171","55b3120cfdf99b6ef6263a71","1","23","2050","","","","","","","","","<img src= ""rock_img/I_Basalt_09.jpg"" style=""width:8cm; height:6.2cm;""><p>What type of rock is this?</p>","3","class_response","1","test","32","Gabbro","Basalt","09","false","4","2","",""
"","","","","","","","","","","","html-keyboard-response","268","2.0.0","3197688","55b3120cfdf99b6ef6263a71","1","23","null","","","","","","","","","<p style='font-size: 30px;'><strong>Okay</strong></p>","null","neutral_feedback","1","test","32","","","","","","","",""
"","","","","","","","","","","","html-button-response","269","2.0.0","3200054","55b3120cfdf99b6ef6263a71","1","23","2365","","","","","","","","","<img src= ""rock_img/I_Diorite_06.jpg"" style=""width:8cm; height:6.03cm;""><p>What type of rock is this?</p>","5","class_response","1","test","33","Pegmatite","Diorite","06","false","6","3","",""
"","","","","","","","","","","","html-keyboard-response","270","2.0.0","3200569","55b3120cfdf99b6ef6263a71","1","23","null","","","","","","","","","<p style='font-size: 30px;'><strong>Okay</strong></p>","null","neutral_feedback","1","test","33","","","","","","","",""
"","","","","","","","","","","","html-button-response","271","2.0.0","3205184","55b3120cfdf99b6ef6263a71","1","23","4613","","","","","","","","","<img src= ""rock_img/I_Basalt_12.jpg"" style=""width:8cm; height:6.010000000000001cm;""><p>What type of rock is this?</p>","1","class_response","1","test","34","Basalt","Basalt","12","true","2","2","",""
"","","","","","","","","","","","html-keyboard-response","272","2.0.0","3205692","55b3120cfdf99b6ef6263a71","1","23","null","","","","","","","","","<p style='font-size: 30px;'><strong>Okay</strong></p>","null","neutral_feedback","1","test","34","","","","","","","",""
"","","","","","","","","","","","html-button-response","273","2.0.0","3207222","55b3120cfdf99b6ef6263a71","1","23","1528","","","","","","","","","<img src= ""rock_img/I_Peridotite_07.jpg"" style=""width:8cm; height:4.83cm;""><p>What type of rock is this?</p>","2","class_response","1","test","35","Diorite","Peridotite","07","false","3","7","",""
"","","","","","","","","","","","html-keyboard-response","274","2.0.0","3207733","55b3120cfdf99b6ef6263a71","1","23","null","","","","","","","","","<p style='font-size: 30px;'><strong>Okay</strong></p>","null","neutral_feedback","1","test","35","","","","","","","",""
"","","","","","","","","","","","html-button-response","275","2.0.0","3213535","55b3120cfdf99b6ef6263a71","1","23","5798","","","","","","","","","<img src= ""rock_img/I_Pegmatite_16.jpg"" style=""width:8cm; height:5.8cm;""><p>What type of rock is this?</p>","5","class_response","1","test","36","Pegmatite","Pegmatite","16","true","6","6","",""
"","","","","","","","","","","","html-keyboard-response","276","2.0.0","3214041","55b3120cfdf99b6ef6263a71","1","23","null","","","","","","","","","<p style='font-size: 30px;'><strong>Okay</strong></p>","null","neutral_feedback","1","test","36","","","","","","","",""
"","","","","","","","","","","","html-button-response","277","2.0.0","3216497","55b3120cfdf99b6ef6263a71","1","23","2454","","","","","","","","","<img src= ""rock_img/I_Pegmatite_13.jpg"" style=""width:8cm; height:4.95cm;""><p>What type of rock is this?</p>","5","class_response","1","test","37","Pegmatite","Pegmatite","13","true","6","6","",""
"","","","","","","","","","","","html-keyboard-response","278","2.0.0","3217016","55b3120cfdf99b6ef6263a71","1","23","null","","","","","","","","","<p style='font-size: 30px;'><strong>Okay</strong></p>","null","neutral_feedback","1","test","37","","","","","","","",""
"","","","","","","","","","","","html-button-response","279","2.0.0","3218089","55b3120cfdf99b6ef6263a71","1","23","1071","","","","","","","","","<img src= ""rock_img/I_Pumice_03.jpg"" style=""width:8cm; height:6.64cm;""><p>What type of rock is this?</p>","7","class_response","1","test","38","Pumice","Pumice","03","true","8","8","",""
"","","","","","","","","","","","html-keyboard-response","280","2.0.0","3218603","55b3120cfdf99b6ef6263a71","1","23","null","","","","","","","","","<p style='font-size: 30px;'><strong>Okay</strong></p>","null","neutral_feedback","1","test","38","","","","","","","",""
"","","","","","","","","","","","html-button-response","281","2.0.0","3222978","55b3120cfdf99b6ef6263a71","1","23","4373","","","","","","","","","<img src= ""rock_img/I_Pegmatite_06.jpg"" style=""width:8cm; height:5.17cm;""><p>What type of rock is this?</p>","5","class_response","1","test","39","Pegmatite","Pegmatite","06","true","6","6","",""
"","","","","","","","","","","","html-keyboard-response","282","2.0.0","3223481","55b3120cfdf99b6ef6263a71","1","23","null","","","","","","","","","<p style='font-size: 30px;'><strong>Okay</strong></p>","null","neutral_feedback","1","test","39","","","","","","","",""
"","","","","","","","","","","","html-button-response","283","2.0.0","3226673","55b3120cfdf99b6ef6263a71","1","23","3190","","","","","","","","","<img src= ""rock_img/I_Gabbro_08.jpg"" style=""width:8cm; height:5.15cm;""><p>What type of rock is this?</p>","2","class_response","1","test","40","Diorite","Gabbro","08","false","3","4","",""
"","","","","","","","","","","","html-keyboard-response","284","2.0.0","3227181","55b3120cfdf99b6ef6263a71","1","23","null","","","","","","","","","<p style='font-size: 30px;'><strong>Okay</strong></p>","null","neutral_feedback","1","test","40","","","","","","","",""
"","","","","","","","","","","","html-button-response","285","2.0.0","3232547","55b3120cfdf99b6ef6263a71","1","23","5364","","","","","","","","","<img src= ""rock_img/I_Basalt_16.jpg"" style=""width:8cm; height:7.659999999999999cm;""><p>What type of rock is this?</p>","3","class_response","1","test","41","Gabbro","Basalt","16","false","4","2","",""
"","","","","","","","","","","","html-keyboard-response","286","2.0.0","3233064","55b3120cfdf99b6ef6263a71","1","23","null","","","","","","","","","<p style='font-size: 30px;'><strong>Okay</strong></p>","null","neutral_feedback","1","test","41","","","","","","","",""
"","","","","","","","","","","","html-button-response","287","2.0.0","3235027","55b3120cfdf99b6ef6263a71","1","23","1962","","","","","","","","","<img src= ""rock_img/I_Pumice_16.jpg"" style=""width:8cm; height:6.79cm;""><p>What type of rock is this?</p>","7","class_response","1","test","42","Pumice","Pumice","16","true","8","8","",""
"","","","","","","","","","","","html-keyboard-response","288","2.0.0","3235535","55b3120cfdf99b6ef6263a71","1","23","null","","","","","","","","","<p style='font-size: 30px;'><strong>Okay</strong></p>","null","neutral_feedback","1","test","42","","","","","","","",""
"","","","","","","","","","","","html-button-response","289","2.0.0","3239158","55b3120cfdf99b6ef6263a71","1","23","3621","","","","","","","","","<img src= ""rock_img/I_Pegmatite_08.jpg"" style=""width:8cm; height:7.68cm;""><p>What type of rock is this?</p>","1","class_response","1","test","43","Basalt","Pegmatite","08","false","2","6","",""
"","","","","","","","","","","","html-keyboard-response","290","2.0.0","3239660","55b3120cfdf99b6ef6263a71","1","23","null","","","","","","","","","<p style='font-size: 30px;'><strong>Okay</strong></p>","null","neutral_feedback","1","test","43","","","","","","","",""
"","","","","","","","","","","","html-button-response","291","2.0.0","3242705","55b3120cfdf99b6ef6263a71","1","23","3043","","","","","","","","","<img src= ""rock_img/I_Diorite_16.jpg"" style=""width:8cm; height:6.74cm;""><p>What type of rock is this?</p>","5","class_response","1","test","44","Pegmatite","Diorite","16","false","6","3","",""
"","","","","","","","","","","","html-keyboard-response","292","2.0.0","3243222","55b3120cfdf99b6ef6263a71","1","23","null","","","","","","","","","<p style='font-size: 30px;'><strong>Okay</strong></p>","null","neutral_feedback","1","test","44","","","","","","","",""
"","","","","","","","","","","","html-button-response","293","2.0.0","3244329","55b3120cfdf99b6ef6263a71","1","23","1106","","","","","","","","","<img src= ""rock_img/I_Obsidian_16.jpg"" style=""width:8cm; height:9.3cm;""><p>What type of rock is this?</p>","4","class_response","1","test","45","Obsidian","Obsidian","16","true","5","5","",""
"","","","","","","","","","","","html-keyboard-response","294","2.0.0","3244841","55b3120cfdf99b6ef6263a71","1","23","null","","","","","","","","","<p style='font-size: 30px;'><strong>Okay</strong></p>","null","neutral_feedback","1","test","45","","","","","","","",""
"","","","","","","","","","","","html-button-response","295","2.0.0","3246049","55b3120cfdf99b6ef6263a71","1","23","1206","","","","","","","","","<img src= ""rock_img/I_Pumice_10.jpg"" style=""width:8cm; height:7.609999999999999cm;""><p>What type of rock is this?</p>","7","class_response","1","test","46","Pumice","Pumice","10","true","8","8","",""
"","","","","","","","","","","","html-keyboard-response","296","2.0.0","3246552","55b3120cfdf99b6ef6263a71","1","23","null","","","","","","","","","<p style='font-size: 30px;'><strong>Okay</strong></p>","null","neutral_feedback","1","test","46","","","","","","","",""
"","","","","","","","","","","","html-button-response","297","2.0.0","3250939","55b3120cfdf99b6ef6263a71","1","23","4384","","","","","","","","","<img src= ""rock_img/I_Basalt_10.jpg"" style=""width:8cm; height:5.85cm;""><p>What type of rock is this?</p>","3","class_response","1","test","47","Gabbro","Basalt","10","false","4","2","",""
"","","","","","","","","","","","html-keyboard-response","298","2.0.0","3251450","55b3120cfdf99b6ef6263a71","1","23","null","","","","","","","","","<p style='font-size: 30px;'><strong>Okay</strong></p>","null","neutral_feedback","1","test","47","","","","","","","",""
"","","","","","","","","","","","html-button-response","299","2.0.0","3253523","55b3120cfdf99b6ef6263a71","1","23","2071","","","","","","","","","<img src= ""rock_img/I_Pegmatite_09.jpg"" style=""width:8cm; height:4.03cm;""><p>What type of rock is this?</p>","6","class_response","1","test","48","Peridotite","Pegmatite","09","false","7","6","",""
"","","","","","","","","","","","html-keyboard-response","300","2.0.0","3254026","55b3120cfdf99b6ef6263a71","1","23","null","","","","","","","","","<p style='font-size: 30px;'><strong>Okay</strong></p>","null","neutral_feedback","1","test","48","","","","","","","",""
"","","","","","","","","","","","html-button-response","301","2.0.0","3363970","55b3120cfdf99b6ef6263a71","1","23","","","","","","","","","","","","cycle_feedback","","","","","","","","","","77115.19999998808","32818.60000002384"
"","","","","","","","","","","","html-button-response","303","2.0.0","3367593","55b3120cfdf99b6ef6263a71","1","23","3620","","","","","","","","","","0","start_train","","","","","","","","","","",""
