"width","height","webaudio","browser","browser_version","mobile","os","fullscreen","vsync_rate","webcam","microphone","trial_type","trial_index","plugin_version","time_elapsed","subjID","condition","stimID","rt","url","success","value","timeout","failed_images","failed_audio","failed_video","view_history","stimulus","response","trialType","cycle","phase","trial","resp","cat","token","corr","resp_num","cat_num","time_fb1","time_fb2"
"1366","633","true","chrome","131.0.0","false","Windows 10","true","52.62","true","true","browser-check","0","2.0.0","1173","66a005727145a4b4a60ba5d8","1","37","","","","","","","","","","","","","","","","","","","","","","",""
"","","","","","","","","","","","external-html","1","2.0.0","63146","66a005727145a4b4a60ba5d8","1","37","60672","consent_form.html","","","","","","","","","","","","","","","","","","","","",""
"","","","","","","","","","","","fullscreen","2","2.0.0","65684","66a005727145a4b4a60ba5d8","1","37","1529","","true","","","","","","","","","","","","","","","","","","","",""
"","","","","","","","","","","","call-function","3","2.0.0","65689","66a005727145a4b4a60ba5d8","1","37","","","","{}","","","","","","","","","","","","","","","","","","",""
"","","","","","","","","","","","preload","4","2.0.0","362675","66a005727145a4b4a60ba5d8","1","37","","","true","","false","[]","[]","[]","","","","","","","","","","","","","","",""
"","","","","","","","","","","","instructions","5","2.0.0","693426","66a005727145a4b4a60ba5d8","1","37","330748","","","","","","","","[{""page_index"":0,""viewing_time"":18214},{""page_index"":1,""viewing_time"":195159},{""page_index"":2,""viewing_time"":3328},{""page_index"":1,""viewing_time"":85621},{""page_index"":2,""viewing_time"":28426}]","","","","","","","","","","","","","",""
"","","","","","","","","","","","html-button-response","6","2.0.0","696528","66a005727145a4b4a60ba5d8","1","37","3098","","","","","","","","","","0","start_test","","","","","","","","","","",""
"","","","","","","","","","","","html-button-response","7","2.0.0","713368","66a005727145a4b4a60ba5d8","1","37","16838","","","","","","","","","<img src= ""rock_img/I_Andesite_03.jpg"" style=""width:8cm; height:5.73cm;""><p>What type of rock is this?</p>","0","class_response","0","test","1","Andesite","Andesite","03","true","1","1","",""
"","","","","","","","","","","","html-keyboard-response","8","2.0.0","713886","66a005727145a4b4a60ba5d8","1","37","null","","","","","","","","","<p style='font-size: 30px;'><strong>Okay</strong></p>","null","neutral_feedback","0","test","1","","","","","","","",""
"","","","","","","","","","","","html-button-response","9","2.0.0","737782","66a005727145a4b4a60ba5d8","1","37","23893","","","","","","","","","<img src= ""rock_img/I_Gabbro_10.jpg"" style=""width:8cm; height:5.680000000000001cm;""><p>What type of rock is this?</p>","1","class_response","0","test","2","Basalt","Gabbro","10","false","2","4","",""
"","","","","","","","","","","","html-keyboard-response","10","2.0.0","738286","66a005727145a4b4a60ba5d8","1","37","null","","","","","","","","","<p style='font-size: 30px;'><strong>Okay</strong></p>","null","neutral_feedback","0","test","2","","","","","","","",""
"","","","","","","","","","","","html-button-response","11","2.0.0","744621","66a005727145a4b4a60ba5d8","1","37","6331","","","","","","","","","<img src= ""rock_img/I_Obsidian_14.jpg"" style=""width:8cm; height:7.64cm;""><p>What type of rock is this?</p>","4","class_response","0","test","3","Obsidian","Obsidian","14","true","5","5","",""
"","","","","","","","","","","","html-keyboard-response","12","2.0.0","745128","66a005727145a4b4a60ba5d8","1","37","null","","","","","","","","","<p style='font-size: 30px;'><strong>Okay</strong></p>","null","neutral_feedback","0","test","3","","","","","","","",""
"","","","","","","","","","","","html-button-response","13","2.0.0","750351","66a005727145a4b4a60ba5d8","1","37","5219","","","","","","","","","<img src= ""rock_img/I_Diorite_13.jpg"" style=""width:8cm; height:6.29cm;""><p>What type of rock is this?</p>","5","class_response","0","test","4","Pegmatite","Diorite","13","false","6","3","",""
"","","","","","","","","","","","html-keyboard-response","14","2.0.0","750854","66a005727145a4b4a60ba5d8","1","37","null","","","","","","","","","<p style='font-size: 30px;'><strong>Okay</strong></p>","null","neutral_feedback","0","test","4","","","","","","","",""
"","","","","","","","","","","","html-button-response","15","2.0.0","754424","66a005727145a4b4a60ba5d8","1","37","3567","","","","","","","","","<img src= ""rock_img/I_Peridotite_14.jpg"" style=""width:8cm; height:5.3cm;""><p>What type of rock is this?</p>","6","class_response","0","test","5","Peridotite","Peridotite","14","true","7","7","",""
"","","","","","","","","","","","html-keyboard-response","16","2.0.0","754930","66a005727145a4b4a60ba5d8","1","37","null","","","","","","","","","<p style='font-size: 30px;'><strong>Okay</strong></p>","null","neutral_feedback","0","test","5","","","","","","","",""
"","","","","","","","","","","","html-button-response","17","2.0.0","756822","66a005727145a4b4a60ba5d8","1","37","1889","","","","","","","","","<img src= ""rock_img/I_Pumice_13.jpg"" style=""width:8cm; height:8.200000000000001cm;""><p>What type of rock is this?</p>","7","class_response","0","test","6","Pumice","Pumice","13","true","8","8","",""
"","","","","","","","","","","","html-keyboard-response","18","2.0.0","757337","66a005727145a4b4a60ba5d8","1","37","null","","","","","","","","","<p style='font-size: 30px;'><strong>Okay</strong></p>","null","neutral_feedback","0","test","6","","","","","","","",""
"","","","","","","","","","","","html-button-response","19","2.0.0","759238","66a005727145a4b4a60ba5d8","1","37","1897","","","","","","","","","<img src= ""rock_img/I_Obsidian_07.jpg"" style=""width:8cm; height:4.76cm;""><p>What type of rock is this?</p>","4","class_response","0","test","7","Obsidian","Obsidian","07","true","5","5","",""
"","","","","","","","","","","","html-keyboard-response","20","2.0.0","759743","66a005727145a4b4a60ba5d8","1","37","null","","","","","","","","","<p style='font-size: 30px;'><strong>Okay</strong></p>","null","neutral_feedback","0","test","7","","","","","","","",""
"","","","","","","","","","","","html-button-response","21","2.0.0","762111","66a005727145a4b4a60ba5d8","1","37","2366","","","","","","","","","<img src= ""rock_img/I_Pumice_04.jpg"" style=""width:8cm; height:6.819999999999999cm;""><p>What type of rock is this?</p>","1","class_response","0","test","8","Basalt","Pumice","04","false","2","8","",""
"","","","","","","","","","","","html-keyboard-response","22","2.0.0","762625","66a005727145a4b4a60ba5d8","1","37","null","","","","","","","","","<p style='font-size: 30px;'><strong>Okay</strong></p>","null","neutral_feedback","0","test","8","","","","","","","",""
"","","","","","","","","","","","html-button-response","23","2.0.0","764057","66a005727145a4b4a60ba5d8","1","37","1430","","","","","","","","","<img src= ""rock_img/I_Pumice_10.jpg"" style=""width:8cm; height:7.609999999999999cm;""><p>What type of rock is this?</p>","1","class_response","0","test","9","Basalt","Pumice","10","false","2","8","",""
"","","","","","","","","","","","html-keyboard-response","24","2.0.0","764563","66a005727145a4b4a60ba5d8","1","37","null","","","","","","","","","<p style='font-size: 30px;'><strong>Okay</strong></p>","null","neutral_feedback","0","test","9","","","","","","","",""
"","","","","","","","","","","","html-button-response","25","2.0.0","768647","66a005727145a4b4a60ba5d8","1","37","4082","","","","","","","","","<img src= ""rock_img/I_Obsidian_10.jpg"" style=""width:8cm; height:6.260000000000001cm;""><p>What type of rock is this?</p>","4","class_response","0","test","10","Obsidian","Obsidian","10","true","5","5","",""
"","","","","","","","","","","","html-keyboard-response","26","2.0.0","769150","66a005727145a4b4a60ba5d8","1","37","null","","","","","","","","","<p style='font-size: 30px;'><strong>Okay</strong></p>","null","neutral_feedback","0","test","10","","","","","","","",""
"","","","","","","","","","","","html-button-response","27","2.0.0","773219","66a005727145a4b4a60ba5d8","1","37","4065","","","","","","","","","<img src= ""rock_img/I_Peridotite_04.jpg"" style=""width:8cm; height:6.680000000000001cm;""><p>What type of rock is this?</p>","5","class_response","0","test","11","Pegmatite","Peridotite","04","false","6","7","",""
"","","","","","","","","","","","html-keyboard-response","28","2.0.0","773734","66a005727145a4b4a60ba5d8","1","37","null","","","","","","","","","<p style='font-size: 30px;'><strong>Okay</strong></p>","null","neutral_feedback","0","test","11","","","","","","","",""
"","","","","","","","","","","","html-button-response","29","2.0.0","777395","66a005727145a4b4a60ba5d8","1","37","3658","","","","","","","","","<img src= ""rock_img/I_Pegmatite_13.jpg"" style=""width:8cm; height:4.95cm;""><p>What type of rock is this?</p>","5","class_response","0","test","12","Pegmatite","Pegmatite","13","true","6","6","",""
"","","","","","","","","","","","html-keyboard-response","30","2.0.0","777900","66a005727145a4b4a60ba5d8","1","37","null","","","","","","","","","<p style='font-size: 30px;'><strong>Okay</strong></p>","null","neutral_feedback","0","test","12","","","","","","","",""
"","","","","","","","","","","","html-button-response","31","2.0.0","792076","66a005727145a4b4a60ba5d8","1","37","14174","","","","","","","","","<img src= ""rock_img/I_Gabbro_11.jpg"" style=""width:8cm; height:6.2cm;""><p>What type of rock is this?</p>","0","class_response","0","test","13","Andesite","Gabbro","11","false","1","4","",""
"","","","","","","","","","","","html-keyboard-response","32","2.0.0","792579","66a005727145a4b4a60ba5d8","1","37","null","","","","","","","","","<p style='font-size: 30px;'><strong>Okay</strong></p>","null","neutral_feedback","0","test","13","","","","","","","",""
"","","","","","","","","","","","html-button-response","33","2.0.0","804607","66a005727145a4b4a60ba5d8","1","37","12025","","","","","","","","","<img src= ""rock_img/I_Peridotite_07.jpg"" style=""width:8cm; height:4.83cm;""><p>What type of rock is this?</p>","1","class_response","0","test","14","Basalt","Peridotite","07","false","2","7","",""
"","","","","","","","","","","","html-keyboard-response","34","2.0.0","805117","66a005727145a4b4a60ba5d8","1","37","null","","","","","","","","","<p style='font-size: 30px;'><strong>Okay</strong></p>","null","neutral_feedback","0","test","14","","","","","","","",""
"","","","","","","","","","","","html-button-response","35","2.0.0","823425","66a005727145a4b4a60ba5d8","1","37","18306","","","","","","","","","<img src= ""rock_img/I_Pegmatite_08.jpg"" style=""width:8cm; height:7.68cm;""><p>What type of rock is this?</p>","5","class_response","0","test","15","Pegmatite","Pegmatite","08","true","6","6","",""
"","","","","","","","","","","","html-keyboard-response","36","2.0.0","823936","66a005727145a4b4a60ba5d8","1","37","null","","","","","","","","","<p style='font-size: 30px;'><strong>Okay</strong></p>","null","neutral_feedback","0","test","15","","","","","","","",""
"","","","","","","","","","","","html-button-response","37","2.0.0","828586","66a005727145a4b4a60ba5d8","1","37","4647","","","","","","","","","<img src= ""rock_img/I_Pumice_16.jpg"" style=""width:8cm; height:6.79cm;""><p>What type of rock is this?</p>","7","class_response","0","test","16","Pumice","Pumice","16","true","8","8","",""
"","","","","","","","","","","","html-keyboard-response","38","2.0.0","829095","66a005727145a4b4a60ba5d8","1","37","null","","","","","","","","","<p style='font-size: 30px;'><strong>Okay</strong></p>","null","neutral_feedback","0","test","16","","","","","","","",""
"","","","","","","","","","","","html-button-response","39","2.0.0","835488","66a005727145a4b4a60ba5d8","1","37","6390","","","","","","","","","<img src= ""rock_img/I_Andesite_16.jpg"" style=""width:8cm; height:6.010000000000001cm;""><p>What type of rock is this?</p>","6","class_response","0","test","17","Peridotite","Andesite","16","false","7","1","",""
"","","","","","","","","","","","html-keyboard-response","40","2.0.0","835997","66a005727145a4b4a60ba5d8","1","37","null","","","","","","","","","<p style='font-size: 30px;'><strong>Okay</strong></p>","null","neutral_feedback","0","test","17","","","","","","","",""
"","","","","","","","","","","","html-button-response","41","2.0.0","841107","66a005727145a4b4a60ba5d8","1","37","5108","","","","","","","","","<img src= ""rock_img/I_Diorite_16.jpg"" style=""width:8cm; height:6.74cm;""><p>What type of rock is this?</p>","3","class_response","0","test","18","Gabbro","Diorite","16","false","4","3","",""
"","","","","","","","","","","","html-keyboard-response","42","2.0.0","841616","66a005727145a4b4a60ba5d8","1","37","null","","","","","","","","","<p style='font-size: 30px;'><strong>Okay</strong></p>","null","neutral_feedback","0","test","18","","","","","","","",""
"","","","","","","","","","","","html-button-response","43","2.0.0","844132","66a005727145a4b4a60ba5d8","1","37","2514","","","","","","","","","<img src= ""rock_img/I_Pegmatite_09.jpg"" style=""width:8cm; height:4.03cm;""><p>What type of rock is this?</p>","2","class_response","0","test","19","Diorite","Pegmatite","09","false","3","6","",""
"","","","","","","","","","","","html-keyboard-response","44","2.0.0","844640","66a005727145a4b4a60ba5d8","1","37","null","","","","","","","","","<p style='font-size: 30px;'><strong>Okay</strong></p>","null","neutral_feedback","0","test","19","","","","","","","",""
"","","","","","","","","","","","html-button-response","45","2.0.0","846902","66a005727145a4b4a60ba5d8","1","37","2260","","","","","","","","","<img src= ""rock_img/I_Andesite_10.jpg"" style=""width:8cm; height:4.16cm;""><p>What type of rock is this?</p>","0","class_response","0","test","20","Andesite","Andesite","10","true","1","1","",""
"","","","","","","","","","","","html-keyboard-response","46","2.0.0","847404","66a005727145a4b4a60ba5d8","1","37","null","","","","","","","","","<p style='font-size: 30px;'><strong>Okay</strong></p>","null","neutral_feedback","0","test","20","","","","","","","",""
"","","","","","","","","","","","html-button-response","47","2.0.0","851593","66a005727145a4b4a60ba5d8","1","37","4187","","","","","","","","","<img src= ""rock_img/I_Diorite_10.jpg"" style=""width:8cm; height:5.949999999999999cm;""><p>What type of rock is this?</p>","3","class_response","0","test","21","Gabbro","Diorite","10","false","4","3","",""
"","","","","","","","","","","","html-keyboard-response","48","2.0.0","852104","66a005727145a4b4a60ba5d8","1","37","null","","","","","","","","","<p style='font-size: 30px;'><strong>Okay</strong></p>","null","neutral_feedback","0","test","21","","","","","","","",""
"","","","","","","","","","","","html-button-response","49","2.0.0","853510","66a005727145a4b4a60ba5d8","1","37","1403","","","","","","","","","<img src= ""rock_img/I_Andesite_05.jpg"" style=""width:8cm; height:4.12cm;""><p>What type of rock is this?</p>","3","class_response","0","test","22","Gabbro","Andesite","05","false","4","1","",""
"","","","","","","","","","","","html-keyboard-response","50","2.0.0","854014","66a005727145a4b4a60ba5d8","1","37","null","","","","","","","","","<p style='font-size: 30px;'><strong>Okay</strong></p>","null","neutral_feedback","0","test","22","","","","","","","",""
"","","","","","","","","","","","html-button-response","51","2.0.0","857773","66a005727145a4b4a60ba5d8","1","37","3756","","","","","","","","","<img src= ""rock_img/I_Diorite_15.jpg"" style=""width:8cm; height:5.54cm;""><p>What type of rock is this?</p>","3","class_response","0","test","23","Gabbro","Diorite","15","false","4","3","",""
"","","","","","","","","","","","html-keyboard-response","52","2.0.0","858281","66a005727145a4b4a60ba5d8","1","37","null","","","","","","","","","<p style='font-size: 30px;'><strong>Okay</strong></p>","null","neutral_feedback","0","test","23","","","","","","","",""
"","","","","","","","","","","","html-button-response","53","2.0.0","862520","66a005727145a4b4a60ba5d8","1","37","4236","","","","","","","","","<img src= ""rock_img/I_Obsidian_12.jpg"" style=""width:8cm; height:6.53cm;""><p>What type of rock is this?</p>","4","class_response","0","test","24","Obsidian","Obsidian","12","true","5","5","",""
"","","","","","","","","","","","html-keyboard-response","54","2.0.0","863023","66a005727145a4b4a60ba5d8","1","37","null","","","","","","","","","<p style='font-size: 30px;'><strong>Okay</strong></p>","null","neutral_feedback","0","test","24","","","","","","","",""
"","","","","","","","","","","","html-button-response","55","2.0.0","868058","66a005727145a4b4a60ba5d8","1","37","5033","","","","","","","","","<img src= ""rock_img/I_Basalt_06.jpg"" style=""width:8cm; height:7.06cm;""><p>What type of rock is this?</p>","1","class_response","0","test","25","Basalt","Basalt","06","true","2","2","",""
"","","","","","","","","","","","html-keyboard-response","56","2.0.0","868570","66a005727145a4b4a60ba5d8","1","37","null","","","","","","","","","<p style='font-size: 30px;'><strong>Okay</strong></p>","null","neutral_feedback","0","test","25","","","","","","","",""
"","","","","","","","","","","","html-button-response","57","2.0.0","882053","66a005727145a4b4a60ba5d8","1","37","13480","","","","","","","","","<img src= ""rock_img/I_Peridotite_06.jpg"" style=""width:8cm; height:7.53cm;""><p>What type of rock is this?</p>","3","class_response","0","test","26","Gabbro","Peridotite","06","false","4","7","",""
"","","","","","","","","","","","html-keyboard-response","58","2.0.0","882558","66a005727145a4b4a60ba5d8","1","37","null","","","","","","","","","<p style='font-size: 30px;'><strong>Okay</strong></p>","null","neutral_feedback","0","test","26","","","","","","","",""
"","","","","","","","","","","","html-button-response","59","2.0.0","886641","66a005727145a4b4a60ba5d8","1","37","4080","","","","","","","","","<img src= ""rock_img/I_Peridotite_13.jpg"" style=""width:8cm; height:7.58cm;""><p>What type of rock is this?</p>","6","class_response","0","test","27","Peridotite","Peridotite","13","true","7","7","",""
"","","","","","","","","","","","html-keyboard-response","60","2.0.0","887147","66a005727145a4b4a60ba5d8","1","37","null","","","","","","","","","<p style='font-size: 30px;'><strong>Okay</strong></p>","null","neutral_feedback","0","test","27","","","","","","","",""
"","","","","","","","","","","","html-button-response","61","2.0.0","889517","66a005727145a4b4a60ba5d8","1","37","2367","","","","","","","","","<img src= ""rock_img/I_Basalt_11.jpg"" style=""width:8cm; height:5.359999999999999cm;""><p>What type of rock is this?</p>","1","class_response","0","test","28","Basalt","Basalt","11","true","2","2","",""
"","","","","","","","","","","","html-keyboard-response","62","2.0.0","890020","66a005727145a4b4a60ba5d8","1","37","null","","","","","","","","","<p style='font-size: 30px;'><strong>Okay</strong></p>","null","neutral_feedback","0","test","28","","","","","","","",""
"","","","","","","","","","","","html-button-response","63","2.0.0","891696","66a005727145a4b4a60ba5d8","1","37","1673","","","","","","","","","<img src= ""rock_img/I_Pumice_05.jpg"" style=""width:8cm; height:7.25cm;""><p>What type of rock is this?</p>","7","class_response","0","test","29","Pumice","Pumice","05","true","8","8","",""
"","","","","","","","","","","","html-keyboard-response","64","2.0.0","892201","66a005727145a4b4a60ba5d8","1","37","null","","","","","","","","","<p style='font-size: 30px;'><strong>Okay</strong></p>","null","neutral_feedback","0","test","29","","","","","","","",""
"","","","","","","","","","","","html-button-response","65","2.0.0","899085","66a005727145a4b4a60ba5d8","1","37","6881","","","","","","","","","<img src= ""rock_img/I_Diorite_12.jpg"" style=""width:8cm; height:4.88cm;""><p>What type of rock is this?</p>","3","class_response","0","test","30","Gabbro","Diorite","12","false","4","3","",""
"","","","","","","","","","","","html-keyboard-response","66","2.0.0","899601","66a005727145a4b4a60ba5d8","1","37","null","","","","","","","","","<p style='font-size: 30px;'><strong>Okay</strong></p>","null","neutral_feedback","0","test","30","","","","","","","",""
"","","","","","","","","","","","html-button-response","67","2.0.0","908421","66a005727145a4b4a60ba5d8","1","37","8818","","","","","","","","","<img src= ""rock_img/I_Peridotite_08.jpg"" style=""width:8cm; height:6.7cm;""><p>What type of rock is this?</p>","6","class_response","0","test","31","Peridotite","Peridotite","08","true","7","7","",""
"","","","","","","","","","","","html-keyboard-response","68","2.0.0","908931","66a005727145a4b4a60ba5d8","1","37","null","","","","","","","","","<p style='font-size: 30px;'><strong>Okay</strong></p>","null","neutral_feedback","0","test","31","","","","","","","",""
"","","","","","","","","","","","html-button-response","69","2.0.0","910169","66a005727145a4b4a60ba5d8","1","37","1235","","","","","","","","","<img src= ""rock_img/I_Pumice_15.jpg"" style=""width:8cm; height:7.86cm;""><p>What type of rock is this?</p>","7","class_response","0","test","32","Pumice","Pumice","15","true","8","8","",""
"","","","","","","","","","","","html-keyboard-response","70","2.0.0","910680","66a005727145a4b4a60ba5d8","1","37","null","","","","","","","","","<p style='font-size: 30px;'><strong>Okay</strong></p>","null","neutral_feedback","0","test","32","","","","","","","",""
"","","","","","","","","","","","html-button-response","71","2.0.0","917625","66a005727145a4b4a60ba5d8","1","37","6942","","","","","","","","","<img src= ""rock_img/I_Andesite_06.jpg"" style=""width:8cm; height:6.840000000000001cm;""><p>What type of rock is this?</p>","3","class_response","0","test","33","Gabbro","Andesite","06","false","4","1","",""
"","","","","","","","","","","","html-keyboard-response","72","2.0.0","918137","66a005727145a4b4a60ba5d8","1","37","null","","","","","","","","","<p style='font-size: 30px;'><strong>Okay</strong></p>","null","neutral_feedback","0","test","33","","","","","","","",""
"","","","","","","","","","","","html-button-response","73","2.0.0","922841","66a005727145a4b4a60ba5d8","1","37","4701","","","","","","","","","<img src= ""rock_img/I_Gabbro_16.jpg"" style=""width:8cm; height:6.44cm;""><p>What type of rock is this?</p>","1","class_response","0","test","34","Basalt","Gabbro","16","false","2","4","",""
"","","","","","","","","","","","html-keyboard-response","74","2.0.0","923346","66a005727145a4b4a60ba5d8","1","37","null","","","","","","","","","<p style='font-size: 30px;'><strong>Okay</strong></p>","null","neutral_feedback","0","test","34","","","","","","","",""
"","","","","","","","","","","","html-button-response","75","2.0.0","951005","66a005727145a4b4a60ba5d8","1","37","27657","","","","","","","","","<img src= ""rock_img/I_Pegmatite_16.jpg"" style=""width:8cm; height:5.8cm;""><p>What type of rock is this?</p>","2","class_response","0","test","35","Diorite","Pegmatite","16","false","3","6","",""
"","","","","","","","","","","","html-keyboard-response","76","2.0.0","951508","66a005727145a4b4a60ba5d8","1","37","null","","","","","","","","","<p style='font-size: 30px;'><strong>Okay</strong></p>","null","neutral_feedback","0","test","35","","","","","","","",""
"","","","","","","","","","","","html-button-response","77","2.0.0","952986","66a005727145a4b4a60ba5d8","1","37","1476","","","","","","","","","<img src= ""rock_img/I_Pegmatite_03.jpg"" style=""width:8cm; height:5.239999999999999cm;""><p>What type of rock is this?</p>","2","class_response","0","test","36","Diorite","Pegmatite","03","false","3","6","",""
"","","","","","","","","","","","html-keyboard-response","78","2.0.0","953494","66a005727145a4b4a60ba5d8","1","37","null","","","","","","","","","<p style='font-size: 30px;'><strong>Okay</strong></p>","null","neutral_feedback","0","test","36","","","","","","","",""
"","","","","","","","","","","","html-button-response","79","2.0.0","961146","66a005727145a4b4a60ba5d8","1","37","7650","","","","","","","","","<img src= ""rock_img/I_Andesite_04.jpg"" style=""width:8cm; height:5.96cm;""><p>What type of rock is this?</p>","3","class_response","0","test","37","Gabbro","Andesite","04","false","4","1","",""
"","","","","","","","","","","","html-keyboard-response","80","2.0.0","961650","66a005727145a4b4a60ba5d8","1","37","null","","","","","","","","","<p style='font-size: 30px;'><strong>Okay</strong></p>","null","neutral_feedback","0","test","37","","","","","","","",""
"","","","","","","","","","","","html-button-response","81","2.0.0","965611","66a005727145a4b4a60ba5d8","1","37","3958","","","","","","","","","<img src= ""rock_img/I_Basalt_08.jpg"" style=""width:8cm; height:10.44cm;""><p>What type of rock is this?</p>","1","class_response","0","test","38","Basalt","Basalt","08","true","2","2","",""
"","","","","","","","","","","","html-keyboard-response","82","2.0.0","966121","66a005727145a4b4a60ba5d8","1","37","null","","","","","","","","","<p style='font-size: 30px;'><strong>Okay</strong></p>","null","neutral_feedback","0","test","38","","","","","","","",""
"","","","","","","","","","","","html-button-response","83","2.0.0","977277","66a005727145a4b4a60ba5d8","1","37","11154","","","","","","","","","<img src= ""rock_img/I_Pegmatite_07.jpg"" style=""width:8cm; height:6.7cm;""><p>What type of rock is this?</p>","5","class_response","0","test","39","Pegmatite","Pegmatite","07","true","6","6","",""
"","","","","","","","","","","","html-keyboard-response","84","2.0.0","977782","66a005727145a4b4a60ba5d8","1","37","null","","","","","","","","","<p style='font-size: 30px;'><strong>Okay</strong></p>","null","neutral_feedback","0","test","39","","","","","","","",""
"","","","","","","","","","","","html-button-response","85","2.0.0","982119","66a005727145a4b4a60ba5d8","1","37","4334","","","","","","","","","<img src= ""rock_img/I_Gabbro_05.jpg"" style=""width:8cm; height:6cm;""><p>What type of rock is this?</p>","3","class_response","0","test","40","Gabbro","Gabbro","05","true","4","4","",""
"","","","","","","","","","","","html-keyboard-response","86","2.0.0","982630","66a005727145a4b4a60ba5d8","1","37","null","","","","","","","","","<p style='font-size: 30px;'><strong>Okay</strong></p>","null","neutral_feedback","0","test","40","","","","","","","",""
"","","","","","","","","","","","html-button-response","87","2.0.0","983951","66a005727145a4b4a60ba5d8","1","37","1318","","","","","","","","","<img src= ""rock_img/I_Basalt_09.jpg"" style=""width:8cm; height:6.2cm;""><p>What type of rock is this?</p>","1","class_response","0","test","41","Basalt","Basalt","09","true","2","2","",""
"","","","","","","","","","","","html-keyboard-response","88","2.0.0","984460","66a005727145a4b4a60ba5d8","1","37","null","","","","","","","","","<p style='font-size: 30px;'><strong>Okay</strong></p>","null","neutral_feedback","0","test","41","","","","","","","",""
"","","","","","","","","","","","html-button-response","89","2.0.0","986645","66a005727145a4b4a60ba5d8","1","37","2182","","","","","","","","","<img src= ""rock_img/I_Gabbro_12.jpg"" style=""width:8cm; height:7.800000000000001cm;""><p>What type of rock is this?</p>","1","class_response","0","test","42","Basalt","Gabbro","12","false","2","4","",""
"","","","","","","","","","","","html-keyboard-response","90","2.0.0","987150","66a005727145a4b4a60ba5d8","1","37","null","","","","","","","","","<p style='font-size: 30px;'><strong>Okay</strong></p>","null","neutral_feedback","0","test","42","","","","","","","",""
"","","","","","","","","","","","html-button-response","91","2.0.0","989051","66a005727145a4b4a60ba5d8","1","37","1899","","","","","","","","","<img src= ""rock_img/I_Basalt_12.jpg"" style=""width:8cm; height:6.010000000000001cm;""><p>What type of rock is this?</p>","7","class_response","0","test","43","Pumice","Basalt","12","false","8","2","",""
"","","","","","","","","","","","html-keyboard-response","92","2.0.0","989558","66a005727145a4b4a60ba5d8","1","37","null","","","","","","","","","<p style='font-size: 30px;'><strong>Okay</strong></p>","null","neutral_feedback","0","test","43","","","","","","","",""
"","","","","","","","","","","","html-button-response","93","2.0.0","993649","66a005727145a4b4a60ba5d8","1","37","4087","","","","","","","","","<img src= ""rock_img/I_Obsidian_16.jpg"" style=""width:8cm; height:9.3cm;""><p>What type of rock is this?</p>","4","class_response","0","test","44","Obsidian","Obsidian","16","true","5","5","",""
"","","","","","","","","","","","html-keyboard-response","94","2.0.0","994161","66a005727145a4b4a60ba5d8","1","37","null","","","","","","","","","<p style='font-size: 30px;'><strong>Okay</strong></p>","null","neutral_feedback","0","test","44","","","","","","","",""
"","","","","","","","","","","","html-button-response","95","2.0.0","995536","66a005727145a4b4a60ba5d8","1","37","1373","","","","","","","","","<img src= ""rock_img/I_Basalt_14.jpg"" style=""width:8cm; height:5.82cm;""><p>What type of rock is this?</p>","7","class_response","0","test","45","Pumice","Basalt","14","false","8","2","",""
"","","","","","","","","","","","html-keyboard-response","96","2.0.0","996054","66a005727145a4b4a60ba5d8","1","37","null","","","","","","","","","<p style='font-size: 30px;'><strong>Okay</strong></p>","null","neutral_feedback","0","test","45","","","","","","","",""
"","","","","","","","","","","","html-button-response","97","2.0.0","999486","66a005727145a4b4a60ba5d8","1","37","3429","","","","","","","","","<img src= ""rock_img/I_Gabbro_15.jpg"" style=""width:8cm; height:6.29cm;""><p>What type of rock is this?</p>","3","class_response","0","test","46","Gabbro","Gabbro","15","true","4","4","",""
"","","","","","","","","","","","html-keyboard-response","98","2.0.0","999995","66a005727145a4b4a60ba5d8","1","37","null","","","","","","","","","<p style='font-size: 30px;'><strong>Okay</strong></p>","null","neutral_feedback","0","test","46","","","","","","","",""
"","","","","","","","","","","","html-button-response","99","2.0.0","1001285","66a005727145a4b4a60ba5d8","1","37","1288","","","","","","","","","<img src= ""rock_img/I_Obsidian_04.jpg"" style=""width:8cm; height:6.930000000000001cm;""><p>What type of rock is this?</p>","4","class_response","0","test","47","Obsidian","Obsidian","04","true","5","5","",""
"","","","","","","","","","","","html-keyboard-response","100","2.0.0","1001788","66a005727145a4b4a60ba5d8","1","37","null","","","","","","","","","<p style='font-size: 30px;'><strong>Okay</strong></p>","null","neutral_feedback","0","test","47","","","","","","","",""
"","","","","","","","","","","","html-button-response","101","2.0.0","1004863","66a005727145a4b4a60ba5d8","1","37","3073","","","","","","","","","<img src= ""rock_img/I_Diorite_06.jpg"" style=""width:8cm; height:6.03cm;""><p>What type of rock is this?</p>","2","class_response","0","test","48","Diorite","Diorite","06","true","3","3","",""
"","","","","","","","","","","","html-keyboard-response","102","2.0.0","1005370","66a005727145a4b4a60ba5d8","1","37","null","","","","","","","","","<p style='font-size: 30px;'><strong>Okay</strong></p>","null","neutral_feedback","0","test","48","","","","","","","",""
"","","","","","","","","","","","instructions","103","2.0.0","1132190","66a005727145a4b4a60ba5d8","1","37","126757","","","","","","","","[{""page_index"":0,""viewing_time"":43696},{""page_index"":1,""viewing_time"":78408},{""page_index"":2,""viewing_time"":4653}]","","","","","","","","","","","","","",""
"","","","","","","","","","","","html-button-response","104","2.0.0","1134942","66a005727145a4b4a60ba5d8","1","37","2751","","","","","","","","","","0","start_train","","","","","","","","","","",""
"","","","","","","","","","","","html-button-response","105","2.0.0","1141569","66a005727145a4b4a60ba5d8","1","37","6624","","","","","","","","","<img src= ""rock_img/I_Basalt_10.jpg"" style=""width:8cm; height:5.85cm;""><p>What type of rock is this?</p>","1","class_response","1","train","1","Basalt","Basalt","10","true","2","2","",""
"","","","","","","","","","","","html-button-response","106","2.0.0","1161234","66a005727145a4b4a60ba5d8","1","37","19662","","","","","","","","","<img src= rock_img/I_Basalt_10.jpg style=""width:8cm; height:5.85cm;""><p style='font-size: 30px; color: green;'><strong>Correct!</strong></p><p style='font-size: 30px;'><strong>This rock is basalt</strong></p>","0","corr_feedback","1","train","1","","","","","","","",""
"","","","","","","","","","","","html-button-response","107","2.0.0","1183338","66a005727145a4b4a60ba5d8","1","37","22102","","","","","","","","","<img src= ""rock_img/I_Gabbro_08.jpg"" style=""width:8cm; height:5.15cm;""><p>What type of rock is this?</p>","7","class_response","1","train","2","Pumice","Gabbro","08","false","8","4","",""
"","","","","","","","","","","","html-button-response","108","2.0.0","1190304","66a005727145a4b4a60ba5d8","1","37","6965","","","","","","","","","<img src= rock_img/I_Gabbro_08.jpg style=""width:8cm; height:5.15cm;""><p style='font-size: 30px; color: red;'><strong>Incorrect!</strong></p><p style='font-size: 30px;'><strong>This rock is gabbro</strong></p>","0","corr_feedback","1","train","2","","","","","","","",""
"","","","","","","","","","","","html-button-response","109","2.0.0","1191697","66a005727145a4b4a60ba5d8","1","37","1391","","","","","","","","","<img src= ""rock_img/I_Gabbro_14.jpg"" style=""width:8cm; height:8.48cm;""><p>What type of rock is this?</p>","6","class_response","1","train","3","Peridotite","Gabbro","14","false","7","4","",""
"","","","","","","","","","","","html-button-response","110","2.0.0","1198394","66a005727145a4b4a60ba5d8","1","37","6695","","","","","","","","","<img src= rock_img/I_Gabbro_14.jpg style=""width:8cm; height:8.48cm;""><p style='font-size: 30px; color: red;'><strong>Incorrect!</strong></p><p style='font-size: 30px;'><strong>This rock is gabbro</strong></p>","0","corr_feedback","1","train","3","","","","","","","",""
"","","","","","","","","","","","html-button-response","111","2.0.0","1200103","66a005727145a4b4a60ba5d8","1","37","1708","","","","","","","","","<img src= ""rock_img/I_Obsidian_11.jpg"" style=""width:8cm; height:6.05cm;""><p>What type of rock is this?</p>","4","class_response","1","train","4","Obsidian","Obsidian","11","true","5","5","",""
"","","","","","","","","","","","html-button-response","112","2.0.0","1201590","66a005727145a4b4a60ba5d8","1","37","1485","","","","","","","","","<img src= rock_img/I_Obsidian_11.jpg style=""width:8cm; height:6.05cm;""><p style='font-size: 30px; color: green;'><strong>Correct!</strong></p><p style='font-size: 30px;'><strong>This rock is obsidian</strong></p>","0","corr_feedback","1","train","4","","","","","","","",""
"","","","","","","","","","","","html-button-response","113","2.0.0","1205758","66a005727145a4b4a60ba5d8","1","37","4166","","","","","","","","","<img src= ""rock_img/I_Peridotite_15.jpg"" style=""width:8cm; height:6cm;""><p>What type of rock is this?</p>","6","class_response","1","train","5","Peridotite","Peridotite","15","true","7","7","",""
"","","","","","","","","","","","html-button-response","114","2.0.0","1206616","66a005727145a4b4a60ba5d8","1","37","857","","","","","","","","","<img src= rock_img/I_Peridotite_15.jpg style=""width:8cm; height:6cm;""><p style='font-size: 30px; color: green;'><strong>Correct!</strong></p><p style='font-size: 30px;'><strong>This rock is peridotite</strong></p>","0","corr_feedback","1","train","5","","","","","","","",""
"","","","","","","","","","","","html-button-response","115","2.0.0","1213188","66a005727145a4b4a60ba5d8","1","37","6569","","","","","","","","","<img src= ""rock_img/I_Gabbro_03.jpg"" style=""width:8cm; height:8.52cm;""><p>What type of rock is this?</p>","6","class_response","1","train","6","Peridotite","Gabbro","03","false","7","4","",""
"","","","","","","","","","","","html-button-response","116","2.0.0","1214473","66a005727145a4b4a60ba5d8","1","37","1284","","","","","","","","","<img src= rock_img/I_Gabbro_03.jpg style=""width:8cm; height:8.52cm;""><p style='font-size: 30px; color: red;'><strong>Incorrect!</strong></p><p style='font-size: 30px;'><strong>This rock is gabbro</strong></p>","0","corr_feedback","1","train","6","","","","","","","",""
"","","","","","","","","","","","html-button-response","117","2.0.0","1216189","66a005727145a4b4a60ba5d8","1","37","1713","","","","","","","","","<img src= ""rock_img/I_Gabbro_01.jpg"" style=""width:8cm; height:5.21cm;""><p>What type of rock is this?</p>","3","class_response","1","train","7","Gabbro","Gabbro","01","true","4","4","",""
"","","","","","","","","","","","html-button-response","118","2.0.0","1217152","66a005727145a4b4a60ba5d8","1","37","961","","","","","","","","","<img src= rock_img/I_Gabbro_01.jpg style=""width:8cm; height:5.21cm;""><p style='font-size: 30px; color: green;'><strong>Correct!</strong></p><p style='font-size: 30px;'><strong>This rock is gabbro</strong></p>","0","corr_feedback","1","train","7","","","","","","","",""
"","","","","","","","","","","","html-button-response","119","2.0.0","1221690","66a005727145a4b4a60ba5d8","1","37","4535","","","","","","","","","<img src= ""rock_img/I_Andesite_02.jpg"" style=""width:8cm; height:8.5cm;""><p>What type of rock is this?</p>","6","class_response","1","train","8","Peridotite","Andesite","02","false","7","1","",""
"","","","","","","","","","","","html-button-response","120","2.0.0","1229480","66a005727145a4b4a60ba5d8","1","37","7788","","","","","","","","","<img src= rock_img/I_Andesite_02.jpg style=""width:8cm; height:8.5cm;""><p style='font-size: 30px; color: red;'><strong>Incorrect!</strong></p><p style='font-size: 30px;'><strong>This rock is andesite</strong></p>","0","corr_feedback","1","train","8","","","","","","","",""
"","","","","","","","","","","","html-button-response","121","2.0.0","1236011","66a005727145a4b4a60ba5d8","1","37","6530","","","","","","","","","<img src= ""rock_img/I_Diorite_14.jpg"" style=""width:8cm; height:5.71cm;""><p>What type of rock is this?</p>","2","class_response","1","train","9","Diorite","Diorite","14","true","3","3","",""
"","","","","","","","","","","","html-button-response","122","2.0.0","1236828","66a005727145a4b4a60ba5d8","1","37","814","","","","","","","","","<img src= rock_img/I_Diorite_14.jpg style=""width:8cm; height:5.71cm;""><p style='font-size: 30px; color: green;'><strong>Correct!</strong></p><p style='font-size: 30px;'><strong>This rock is diorite</strong></p>","0","corr_feedback","1","train","9","","","","","","","",""
"","","","","","","","","","","","html-button-response","123","2.0.0","1242859","66a005727145a4b4a60ba5d8","1","37","6028","","","","","","","","","<img src= ""rock_img/I_Pegmatite_10.jpg"" style=""width:8cm; height:4.16cm;""><p>What type of rock is this?</p>","6","class_response","1","train","10","Peridotite","Pegmatite","10","false","7","6","",""
"","","","","","","","","","","","html-button-response","124","2.0.0","1253583","66a005727145a4b4a60ba5d8","1","37","10723","","","","","","","","","<img src= rock_img/I_Pegmatite_10.jpg style=""width:8cm; height:4.16cm;""><p style='font-size: 30px; color: red;'><strong>Incorrect!</strong></p><p style='font-size: 30px;'><strong>This rock is pegmatite</strong></p>","0","corr_feedback","1","train","10","","","","","","","",""
"","","","","","","","","","","","html-button-response","125","2.0.0","1272729","66a005727145a4b4a60ba5d8","1","37","19145","","","","","","","","","<img src= ""rock_img/I_Diorite_11.jpg"" style=""width:8cm; height:7.11cm;""><p>What type of rock is this?</p>","2","class_response","1","train","11","Diorite","Diorite","11","true","3","3","",""
"","","","","","","","","","","","html-button-response","126","2.0.0","1273438","66a005727145a4b4a60ba5d8","1","37","707","","","","","","","","","<img src= rock_img/I_Diorite_11.jpg style=""width:8cm; height:7.11cm;""><p style='font-size: 30px; color: green;'><strong>Correct!</strong></p><p style='font-size: 30px;'><strong>This rock is diorite</strong></p>","0","corr_feedback","1","train","11","","","","","","","",""
"","","","","","","","","","","","html-button-response","127","2.0.0","1275278","66a005727145a4b4a60ba5d8","1","37","1837","","","","","","","","","<img src= ""rock_img/I_Gabbro_09.jpg"" style=""width:8cm; height:7.279999999999999cm;""><p>What type of rock is this?</p>","4","class_response","1","train","12","Obsidian","Gabbro","09","false","5","4","",""
"","","","","","","","","","","","html-button-response","128","2.0.0","1276216","66a005727145a4b4a60ba5d8","1","37","936","","","","","","","","","<img src= rock_img/I_Gabbro_09.jpg style=""width:8cm; height:7.279999999999999cm;""><p style='font-size: 30px; color: red;'><strong>Incorrect!</strong></p><p style='font-size: 30px;'><strong>This rock is gabbro</strong></p>","0","corr_feedback","1","train","12","","","","","","","",""
"","","","","","","","","","","","html-button-response","129","2.0.0","1277642","66a005727145a4b4a60ba5d8","1","37","1424","","","","","","","","","<img src= ""rock_img/I_Pumice_06.jpg"" style=""width:8cm; height:6.9399999999999995cm;""><p>What type of rock is this?</p>","7","class_response","1","train","13","Pumice","Pumice","06","true","8","8","",""
"","","","","","","","","","","","html-button-response","130","2.0.0","1279117","66a005727145a4b4a60ba5d8","1","37","1471","","","","","","","","","<img src= rock_img/I_Pumice_06.jpg style=""width:8cm; height:6.9399999999999995cm;""><p style='font-size: 30px; color: green;'><strong>Correct!</strong></p><p style='font-size: 30px;'><strong>This rock is pumice</strong></p>","0","corr_feedback","1","train","13","","","","","","","",""
"","","","","","","","","","","","html-button-response","131","2.0.0","1281483","66a005727145a4b4a60ba5d8","1","37","2364","","","","","","","","","<img src= ""rock_img/I_Peridotite_16.jpg"" style=""width:8cm; height:6.989999999999999cm;""><p>What type of rock is this?</p>","5","class_response","1","train","14","Pegmatite","Peridotite","16","false","6","7","",""
"","","","","","","","","","","","html-button-response","132","2.0.0","1282399","66a005727145a4b4a60ba5d8","1","37","914","","","","","","","","","<img src= rock_img/I_Peridotite_16.jpg style=""width:8cm; height:6.989999999999999cm;""><p style='font-size: 30px; color: red;'><strong>Incorrect!</strong></p><p style='font-size: 30px;'><strong>This rock is peridotite</strong></p>","0","corr_feedback","1","train","14","","","","","","","",""
"","","","","","","","","","","","html-button-response","133","2.0.0","1284253","66a005727145a4b4a60ba5d8","1","37","1852","","","","","","","","","<img src= ""rock_img/I_Basalt_05.jpg"" style=""width:8cm; height:8.18cm;""><p>What type of rock is this?</p>","1","class_response","1","train","15","Basalt","Basalt","05","true","2","2","",""
"","","","","","","","","","","","html-button-response","134","2.0.0","1284814","66a005727145a4b4a60ba5d8","1","37","559","","","","","","","","","<img src= rock_img/I_Basalt_05.jpg style=""width:8cm; height:8.18cm;""><p style='font-size: 30px; color: green;'><strong>Correct!</strong></p><p style='font-size: 30px;'><strong>This rock is basalt</strong></p>","0","corr_feedback","1","train","15","","","","","","","",""
"","","","","","","","","","","","html-button-response","135","2.0.0","1285884","66a005727145a4b4a60ba5d8","1","37","1066","","","","","","","","","<img src= ""rock_img/I_Basalt_04.jpg"" style=""width:8cm; height:7.53cm;""><p>What type of rock is this?</p>","1","class_response","1","train","16","Basalt","Basalt","04","true","2","2","",""
"","","","","","","","","","","","html-button-response","136","2.0.0","1286461","66a005727145a4b4a60ba5d8","1","37","574","","","","","","","","","<img src= rock_img/I_Basalt_04.jpg style=""width:8cm; height:7.53cm;""><p style='font-size: 30px; color: green;'><strong>Correct!</strong></p><p style='font-size: 30px;'><strong>This rock is basalt</strong></p>","0","corr_feedback","1","train","16","","","","","","","",""
"","","","","","","","","","","","html-button-response","137","2.0.0","1289484","66a005727145a4b4a60ba5d8","1","37","3022","","","","","","","","","<img src= ""rock_img/I_Gabbro_13.jpg"" style=""width:8cm; height:5.08cm;""><p>What type of rock is this?</p>","0","class_response","1","train","17","Andesite","Gabbro","13","false","1","4","",""
"","","","","","","","","","","","html-button-response","138","2.0.0","1290314","66a005727145a4b4a60ba5d8","1","37","828","","","","","","","","","<img src= rock_img/I_Gabbro_13.jpg style=""width:8cm; height:5.08cm;""><p style='font-size: 30px; color: red;'><strong>Incorrect!</strong></p><p style='font-size: 30px;'><strong>This rock is gabbro</strong></p>","0","corr_feedback","1","train","17","","","","","","","",""
"","","","","","","","","","","","html-button-response","139","2.0.0","1291516","66a005727145a4b4a60ba5d8","1","37","1199","","","","","","","","","<img src= ""rock_img/I_Obsidian_09.jpg"" style=""width:8cm; height:5cm;""><p>What type of rock is this?</p>","4","class_response","1","train","18","Obsidian","Obsidian","09","true","5","5","",""
"","","","","","","","","","","","html-button-response","140","2.0.0","1292646","66a005727145a4b4a60ba5d8","1","37","1126","","","","","","","","","<img src= rock_img/I_Obsidian_09.jpg style=""width:8cm; height:5cm;""><p style='font-size: 30px; color: green;'><strong>Correct!</strong></p><p style='font-size: 30px;'><strong>This rock is obsidian</strong></p>","0","corr_feedback","1","train","18","","","","","","","",""
"","","","","","","","","","","","html-button-response","141","2.0.0","1298381","66a005727145a4b4a60ba5d8","1","37","5733","","","","","","","","","<img src= ""rock_img/I_Pegmatite_15.jpg"" style=""width:8cm; height:6cm;""><p>What type of rock is this?</p>","3","class_response","1","train","19","Gabbro","Pegmatite","15","false","4","6","",""
"","","","","","","","","","","","html-button-response","142","2.0.0","1299472","66a005727145a4b4a60ba5d8","1","37","1088","","","","","","","","","<img src= rock_img/I_Pegmatite_15.jpg style=""width:8cm; height:6cm;""><p style='font-size: 30px; color: red;'><strong>Incorrect!</strong></p><p style='font-size: 30px;'><strong>This rock is pegmatite</strong></p>","0","corr_feedback","1","train","19","","","","","","","",""
"","","","","","","","","","","","html-button-response","143","2.0.0","1303712","66a005727145a4b4a60ba5d8","1","37","4238","","","","","","","","","<img src= ""rock_img/I_Andesite_14.jpg"" style=""width:8cm; height:5.449999999999999cm;""><p>What type of rock is this?</p>","6","class_response","1","train","20","Peridotite","Andesite","14","false","7","1","",""
"","","","","","","","","","","","html-button-response","144","2.0.0","1305048","66a005727145a4b4a60ba5d8","1","37","1335","","","","","","","","","<img src= rock_img/I_Andesite_14.jpg style=""width:8cm; height:5.449999999999999cm;""><p style='font-size: 30px; color: red;'><strong>Incorrect!</strong></p><p style='font-size: 30px;'><strong>This rock is andesite</strong></p>","0","corr_feedback","1","train","20","","","","","","","",""
"","","","","","","","","","","","html-button-response","145","2.0.0","1308421","66a005727145a4b4a60ba5d8","1","37","3371","","","","","","","","","<img src= ""rock_img/I_Pegmatite_12.jpg"" style=""width:8cm; height:5.7cm;""><p>What type of rock is this?</p>","3","class_response","1","train","21","Gabbro","Pegmatite","12","false","4","6","",""
"","","","","","","","","","","","html-button-response","146","2.0.0","1316158","66a005727145a4b4a60ba5d8","1","37","7736","","","","","","","","","<img src= rock_img/I_Pegmatite_12.jpg style=""width:8cm; height:5.7cm;""><p style='font-size: 30px; color: red;'><strong>Incorrect!</strong></p><p style='font-size: 30px;'><strong>This rock is pegmatite</strong></p>","0","corr_feedback","1","train","21","","","","","","","",""
"","","","","","","","","","","","html-button-response","147","2.0.0","1318507","66a005727145a4b4a60ba5d8","1","37","2348","","","","","","","","","<img src= ""rock_img/I_Obsidian_05.jpg"" style=""width:8cm; height:6.33cm;""><p>What type of rock is this?</p>","5","class_response","1","train","22","Pegmatite","Obsidian","05","false","6","5","",""
"","","","","","","","","","","","html-button-response","148","2.0.0","1319649","66a005727145a4b4a60ba5d8","1","37","1140","","","","","","","","","<img src= rock_img/I_Obsidian_05.jpg style=""width:8cm; height:6.33cm;""><p style='font-size: 30px; color: red;'><strong>Incorrect!</strong></p><p style='font-size: 30px;'><strong>This rock is obsidian</strong></p>","0","corr_feedback","1","train","22","","","","","","","",""
"","","","","","","","","","","","html-button-response","149","2.0.0","1333467","66a005727145a4b4a60ba5d8","1","37","13817","","","","","","","","","<img src= ""rock_img/I_Peridotite_12.jpg"" style=""width:8cm; height:4.54cm;""><p>What type of rock is this?</p>","6","class_response","1","train","23","Peridotite","Peridotite","12","true","7","7","",""
"","","","","","","","","","","","html-button-response","150","2.0.0","1334116","66a005727145a4b4a60ba5d8","1","37","647","","","","","","","","","<img src= rock_img/I_Peridotite_12.jpg style=""width:8cm; height:4.54cm;""><p style='font-size: 30px; color: green;'><strong>Correct!</strong></p><p style='font-size: 30px;'><strong>This rock is peridotite</strong></p>","0","corr_feedback","1","train","23","","","","","","","",""
"","","","","","","","","","","","html-button-response","151","2.0.0","1340433","66a005727145a4b4a60ba5d8","1","37","6314","","","","","","","","","<img src= ""rock_img/I_Pumice_08.jpg"" style=""width:8cm; height:6.67cm;""><p>What type of rock is this?</p>","0","class_response","1","train","24","Andesite","Pumice","08","false","1","8","",""
"","","","","","","","","","","","html-button-response","152","2.0.0","1341254","66a005727145a4b4a60ba5d8","1","37","820","","","","","","","","","<img src= rock_img/I_Pumice_08.jpg style=""width:8cm; height:6.67cm;""><p style='font-size: 30px; color: red;'><strong>Incorrect!</strong></p><p style='font-size: 30px;'><strong>This rock is pumice</strong></p>","0","corr_feedback","1","train","24","","","","","","","",""
"","","","","","","","","","","","html-button-response","153","2.0.0","1347274","66a005727145a4b4a60ba5d8","1","37","6018","","","","","","","","","<img src= ""rock_img/I_Diorite_07.jpg"" style=""width:8cm; height:5.239999999999999cm;""><p>What type of rock is this?</p>","3","class_response","1","train","25","Gabbro","Diorite","07","false","4","3","",""
"","","","","","","","","","","","html-button-response","154","2.0.0","1348163","66a005727145a4b4a60ba5d8","1","37","887","","","","","","","","","<img src= rock_img/I_Diorite_07.jpg style=""width:8cm; height:5.239999999999999cm;""><p style='font-size: 30px; color: red;'><strong>Incorrect!</strong></p><p style='font-size: 30px;'><strong>This rock is diorite</strong></p>","0","corr_feedback","1","train","25","","","","","","","",""
"","","","","","","","","","","","html-button-response","155","2.0.0","1350092","66a005727145a4b4a60ba5d8","1","37","1927","","","","","","","","","<img src= ""rock_img/I_Obsidian_06.jpg"" style=""width:8cm; height:6.8cm;""><p>What type of rock is this?</p>","4","class_response","1","train","26","Obsidian","Obsidian","06","true","5","5","",""
"","","","","","","","","","","","html-button-response","156","2.0.0","1350710","66a005727145a4b4a60ba5d8","1","37","616","","","","","","","","","<img src= rock_img/I_Obsidian_06.jpg style=""width:8cm; height:6.8cm;""><p style='font-size: 30px; color: green;'><strong>Correct!</strong></p><p style='font-size: 30px;'><strong>This rock is obsidian</strong></p>","0","corr_feedback","1","train","26","","","","","","","",""
"","","","","","","","","","","","html-button-response","157","2.0.0","1352228","66a005727145a4b4a60ba5d8","1","37","1516","","","","","","","","","<img src= ""rock_img/I_Pumice_03.jpg"" style=""width:8cm; height:6.64cm;""><p>What type of rock is this?</p>","7","class_response","1","train","27","Pumice","Pumice","03","true","8","8","",""
"","","","","","","","","","","","html-button-response","158","2.0.0","1352807","66a005727145a4b4a60ba5d8","1","37","576","","","","","","","","","<img src= rock_img/I_Pumice_03.jpg style=""width:8cm; height:6.64cm;""><p style='font-size: 30px; color: green;'><strong>Correct!</strong></p><p style='font-size: 30px;'><strong>This rock is pumice</strong></p>","0","corr_feedback","1","train","27","","","","","","","",""
"","","","","","","","","","","","html-button-response","159","2.0.0","1354434","66a005727145a4b4a60ba5d8","1","37","1623","","","","","","","","","<img src= ""rock_img/I_Andesite_09.jpg"" style=""width:8cm; height:6cm;""><p>What type of rock is this?</p>","1","class_response","1","train","28","Basalt","Andesite","09","false","2","1","",""
"","","","","","","","","","","","html-button-response","160","2.0.0","1355289","66a005727145a4b4a60ba5d8","1","37","852","","","","","","","","","<img src= rock_img/I_Andesite_09.jpg style=""width:8cm; height:6cm;""><p style='font-size: 30px; color: red;'><strong>Incorrect!</strong></p><p style='font-size: 30px;'><strong>This rock is andesite</strong></p>","0","corr_feedback","1","train","28","","","","","","","",""
"","","","","","","","","","","","html-button-response","161","2.0.0","1360577","66a005727145a4b4a60ba5d8","1","37","5286","","","","","","","","","<img src= ""rock_img/I_Diorite_09.jpg"" style=""width:8cm; height:5.27cm;""><p>What type of rock is this?</p>","2","class_response","1","train","29","Diorite","Diorite","09","true","3","3","",""
"","","","","","","","","","","","html-button-response","162","2.0.0","1361113","66a005727145a4b4a60ba5d8","1","37","534","","","","","","","","","<img src= rock_img/I_Diorite_09.jpg style=""width:8cm; height:5.27cm;""><p style='font-size: 30px; color: green;'><strong>Correct!</strong></p><p style='font-size: 30px;'><strong>This rock is diorite</strong></p>","0","corr_feedback","1","train","29","","","","","","","",""
"","","","","","","","","","","","html-button-response","163","2.0.0","1362892","66a005727145a4b4a60ba5d8","1","37","1776","","","","","","","","","<img src= ""rock_img/I_Pumice_02.jpg"" style=""width:8cm; height:7.3999999999999995cm;""><p>What type of rock is this?</p>","0","class_response","1","train","30","Andesite","Pumice","02","false","1","8","",""
"","","","","","","","","","","","html-button-response","164","2.0.0","1363651","66a005727145a4b4a60ba5d8","1","37","757","","","","","","","","","<img src= rock_img/I_Pumice_02.jpg style=""width:8cm; height:7.3999999999999995cm;""><p style='font-size: 30px; color: red;'><strong>Incorrect!</strong></p><p style='font-size: 30px;'><strong>This rock is pumice</strong></p>","0","corr_feedback","1","train","30","","","","","","","",""
"","","","","","","","","","","","html-button-response","165","2.0.0","1367248","66a005727145a4b4a60ba5d8","1","37","3596","","","","","","","","","<img src= ""rock_img/I_Diorite_08.jpg"" style=""width:8cm; height:6.37cm;""><p>What type of rock is this?</p>","2","class_response","1","train","31","Diorite","Diorite","08","true","3","3","",""
"","","","","","","","","","","","html-button-response","166","2.0.0","1367852","66a005727145a4b4a60ba5d8","1","37","603","","","","","","","","","<img src= rock_img/I_Diorite_08.jpg style=""width:8cm; height:6.37cm;""><p style='font-size: 30px; color: green;'><strong>Correct!</strong></p><p style='font-size: 30px;'><strong>This rock is diorite</strong></p>","0","corr_feedback","1","train","31","","","","","","","",""
"","","","","","","","","","","","html-button-response","167","2.0.0","1374347","66a005727145a4b4a60ba5d8","1","37","6492","","","","","","","","","<img src= ""rock_img/I_Peridotite_02.jpg"" style=""width:8cm; height:5.859999999999999cm;""><p>What type of rock is this?</p>","6","class_response","1","train","32","Peridotite","Peridotite","02","true","7","7","",""
"","","","","","","","","","","","html-button-response","168","2.0.0","1375051","66a005727145a4b4a60ba5d8","1","37","702","","","","","","","","","<img src= rock_img/I_Peridotite_02.jpg style=""width:8cm; height:5.859999999999999cm;""><p style='font-size: 30px; color: green;'><strong>Correct!</strong></p><p style='font-size: 30px;'><strong>This rock is peridotite</strong></p>","0","corr_feedback","1","train","32","","","","","","","",""
"","","","","","","","","","","","html-button-response","169","2.0.0","1376489","66a005727145a4b4a60ba5d8","1","37","1435","","","","","","","","","<img src= ""rock_img/I_Andesite_11.jpg"" style=""width:8cm; height:4.92cm;""><p>What type of rock is this?</p>","1","class_response","1","train","33","Basalt","Andesite","11","false","2","1","",""
"","","","","","","","","","","","html-button-response","170","2.0.0","1377373","66a005727145a4b4a60ba5d8","1","37","881","","","","","","","","","<img src= rock_img/I_Andesite_11.jpg style=""width:8cm; height:4.92cm;""><p style='font-size: 30px; color: red;'><strong>Incorrect!</strong></p><p style='font-size: 30px;'><strong>This rock is andesite</strong></p>","0","corr_feedback","1","train","33","","","","","","","",""
"","","","","","","","","","","","html-button-response","171","2.0.0","1378547","66a005727145a4b4a60ba5d8","1","37","1172","","","","","","","","","<img src= ""rock_img/I_Peridotite_10.jpg"" style=""width:8cm; height:5.390000000000001cm;""><p>What type of rock is this?</p>","6","class_response","1","train","34","Peridotite","Peridotite","10","true","7","7","",""
"","","","","","","","","","","","html-button-response","172","2.0.0","1379020","66a005727145a4b4a60ba5d8","1","37","471","","","","","","","","","<img src= rock_img/I_Peridotite_10.jpg style=""width:8cm; height:5.390000000000001cm;""><p style='font-size: 30px; color: green;'><strong>Correct!</strong></p><p style='font-size: 30px;'><strong>This rock is peridotite</strong></p>","0","corr_feedback","1","train","34","","","","","","","",""
"","","","","","","","","","","","html-button-response","173","2.0.0","1385603","66a005727145a4b4a60ba5d8","1","37","6582","","","","","","","","","<img src= ""rock_img/I_Pegmatite_05.jpg"" style=""width:8cm; height:7.300000000000001cm;""><p>What type of rock is this?</p>","4","class_response","1","train","35","Obsidian","Pegmatite","05","false","5","6","",""
"","","","","","","","","","","","html-button-response","174","2.0.0","1386616","66a005727145a4b4a60ba5d8","1","37","1011","","","","","","","","","<img src= rock_img/I_Pegmatite_05.jpg style=""width:8cm; height:7.300000000000001cm;""><p style='font-size: 30px; color: red;'><strong>Incorrect!</strong></p><p style='font-size: 30px;'><strong>This rock is pegmatite</strong></p>","0","corr_feedback","1","train","35","","","","","","","",""
"","","","","","","","","","","","html-button-response","175","2.0.0","1388553","66a005727145a4b4a60ba5d8","1","37","1935","","","","","","","","","<img src= ""rock_img/I_Andesite_01.jpg"" style=""width:8cm; height:5.87cm;""><p>What type of rock is this?</p>","1","class_response","1","train","36","Basalt","Andesite","01","false","2","1","",""
"","","","","","","","","","","","html-button-response","176","2.0.0","1389430","66a005727145a4b4a60ba5d8","1","37","874","","","","","","","","","<img src= rock_img/I_Andesite_01.jpg style=""width:8cm; height:5.87cm;""><p style='font-size: 30px; color: red;'><strong>Incorrect!</strong></p><p style='font-size: 30px;'><strong>This rock is andesite</strong></p>","0","corr_feedback","1","train","36","","","","","","","",""
"","","","","","","","","","","","html-button-response","177","2.0.0","1393386","66a005727145a4b4a60ba5d8","1","37","3954","","","","","","","","","<img src= ""rock_img/I_Pegmatite_06.jpg"" style=""width:8cm; height:5.17cm;""><p>What type of rock is this?</p>","5","class_response","1","train","37","Pegmatite","Pegmatite","06","true","6","6","",""
"","","","","","","","","","","","html-button-response","178","2.0.0","1394418","66a005727145a4b4a60ba5d8","1","37","1030","","","","","","","","","<img src= rock_img/I_Pegmatite_06.jpg style=""width:8cm; height:5.17cm;""><p style='font-size: 30px; color: green;'><strong>Correct!</strong></p><p style='font-size: 30px;'><strong>This rock is pegmatite</strong></p>","0","corr_feedback","1","train","37","","","","","","","",""
"","","","","","","","","","","","html-button-response","179","2.0.0","1395423","66a005727145a4b4a60ba5d8","1","37","1002","","","","","","","","","<img src= ""rock_img/I_Obsidian_02.jpg"" style=""width:8cm; height:7.51cm;""><p>What type of rock is this?</p>","4","class_response","1","train","38","Obsidian","Obsidian","02","true","5","5","",""
"","","","","","","","","","","","html-button-response","180","2.0.0","1395949","66a005727145a4b4a60ba5d8","1","37","525","","","","","","","","","<img src= rock_img/I_Obsidian_02.jpg style=""width:8cm; height:7.51cm;""><p style='font-size: 30px; color: green;'><strong>Correct!</strong></p><p style='font-size: 30px;'><strong>This rock is obsidian</strong></p>","0","corr_feedback","1","train","38","","","","","","","",""
"","","","","","","","","","","","html-button-response","181","2.0.0","1402103","66a005727145a4b4a60ba5d8","1","37","6151","","","","","","","","","<img src= ""rock_img/I_Andesite_07.jpg"" style=""width:8cm; height:5.93cm;""><p>What type of rock is this?</p>","2","class_response","1","train","39","Diorite","Andesite","07","false","3","1","",""
"","","","","","","","","","","","html-button-response","182","2.0.0","1403228","66a005727145a4b4a60ba5d8","1","37","1124","","","","","","","","","<img src= rock_img/I_Andesite_07.jpg style=""width:8cm; height:5.93cm;""><p style='font-size: 30px; color: red;'><strong>Incorrect!</strong></p><p style='font-size: 30px;'><strong>This rock is andesite</strong></p>","0","corr_feedback","1","train","39","","","","","","","",""
"","","","","","","","","","","","html-button-response","183","2.0.0","1404324","66a005727145a4b4a60ba5d8","1","37","1093","","","","","","","","","<img src= ""rock_img/I_Obsidian_08.jpg"" style=""width:8cm; height:7.39cm;""><p>What type of rock is this?</p>","4","class_response","1","train","40","Obsidian","Obsidian","08","true","5","5","",""
"","","","","","","","","","","","html-button-response","184","2.0.0","1404828","66a005727145a4b4a60ba5d8","1","37","502","","","","","","","","","<img src= rock_img/I_Obsidian_08.jpg style=""width:8cm; height:7.39cm;""><p style='font-size: 30px; color: green;'><strong>Correct!</strong></p><p style='font-size: 30px;'><strong>This rock is obsidian</strong></p>","0","corr_feedback","1","train","40","","","","","","","",""
"","","","","","","","","","","","html-button-response","185","2.0.0","1406090","66a005727145a4b4a60ba5d8","1","37","1259","","","","","","","","","<img src= ""rock_img/I_Basalt_01.jpg"" style=""width:8cm; height:7.880000000000001cm;""><p>What type of rock is this?</p>","1","class_response","1","train","41","Basalt","Basalt","01","true","2","2","",""
"","","","","","","","","","","","html-button-response","186","2.0.0","1406560","66a005727145a4b4a60ba5d8","1","37","468","","","","","","","","","<img src= rock_img/I_Basalt_01.jpg style=""width:8cm; height:7.880000000000001cm;""><p style='font-size: 30px; color: green;'><strong>Correct!</strong></p><p style='font-size: 30px;'><strong>This rock is basalt</strong></p>","0","corr_feedback","1","train","41","","","","","","","",""
"","","","","","","","","","","","html-button-response","187","2.0.0","1408074","66a005727145a4b4a60ba5d8","1","37","1512","","","","","","","","","<img src= ""rock_img/I_Peridotite_05.jpg"" style=""width:8cm; height:7.1499999999999995cm;""><p>What type of rock is this?</p>","6","class_response","1","train","42","Peridotite","Peridotite","05","true","7","7","",""
"","","","","","","","","","","","html-button-response","188","2.0.0","1408673","66a005727145a4b4a60ba5d8","1","37","596","","","","","","","","","<img src= rock_img/I_Peridotite_05.jpg style=""width:8cm; height:7.1499999999999995cm;""><p style='font-size: 30px; color: green;'><strong>Correct!</strong></p><p style='font-size: 30px;'><strong>This rock is peridotite</strong></p>","0","corr_feedback","1","train","42","","","","","","","",""
"","","","","","","","","","","","html-button-response","189","2.0.0","1416271","66a005727145a4b4a60ba5d8","1","37","7595","","","","","","","","","<img src= ""rock_img/I_Pegmatite_11.jpg"" style=""width:8cm; height:8.14cm;""><p>What type of rock is this?</p>","3","class_response","1","train","43","Gabbro","Pegmatite","11","false","4","6","",""
"","","","","","","","","","","","html-button-response","190","2.0.0","1417106","66a005727145a4b4a60ba5d8","1","37","833","","","","","","","","","<img src= rock_img/I_Pegmatite_11.jpg style=""width:8cm; height:8.14cm;""><p style='font-size: 30px; color: red;'><strong>Incorrect!</strong></p><p style='font-size: 30px;'><strong>This rock is pegmatite</strong></p>","0","corr_feedback","1","train","43","","","","","","","",""
"","","","","","","","","","","","html-button-response","191","2.0.0","1418826","66a005727145a4b4a60ba5d8","1","37","1717","","","","","","","","","<img src= ""rock_img/I_Basalt_02.jpg"" style=""width:8cm; height:6.45cm;""><p>What type of rock is this?</p>","1","class_response","1","train","44","Basalt","Basalt","02","true","2","2","",""
"","","","","","","","","","","","html-button-response","192","2.0.0","1419490","66a005727145a4b4a60ba5d8","1","37","661","","","","","","","","","<img src= rock_img/I_Basalt_02.jpg style=""width:8cm; height:6.45cm;""><p style='font-size: 30px; color: green;'><strong>Correct!</strong></p><p style='font-size: 30px;'><strong>This rock is basalt</strong></p>","0","corr_feedback","1","train","44","","","","","","","",""
"","","","","","","","","","","","html-button-response","193","2.0.0","1420533","66a005727145a4b4a60ba5d8","1","37","1040","","","","","","","","","<img src= ""rock_img/I_Basalt_16.jpg"" style=""width:8cm; height:7.659999999999999cm;""><p>What type of rock is this?</p>","7","class_response","1","train","45","Pumice","Basalt","16","false","8","2","",""
"","","","","","","","","","","","html-button-response","194","2.0.0","1421600","66a005727145a4b4a60ba5d8","1","37","1066","","","","","","","","","<img src= rock_img/I_Basalt_16.jpg style=""width:8cm; height:7.659999999999999cm;""><p style='font-size: 30px; color: red;'><strong>Incorrect!</strong></p><p style='font-size: 30px;'><strong>This rock is basalt</strong></p>","0","corr_feedback","1","train","45","","","","","","","",""
"","","","","","","","","","","","html-button-response","195","2.0.0","1425038","66a005727145a4b4a60ba5d8","1","37","3436","","","","","","","","","<img src= ""rock_img/I_Diorite_02.jpg"" style=""width:8cm; height:6.27cm;""><p>What type of rock is this?</p>","6","class_response","1","train","46","Peridotite","Diorite","02","false","7","3","",""
"","","","","","","","","","","","html-button-response","196","2.0.0","1426002","66a005727145a4b4a60ba5d8","1","37","962","","","","","","","","","<img src= rock_img/I_Diorite_02.jpg style=""width:8cm; height:6.27cm;""><p style='font-size: 30px; color: red;'><strong>Incorrect!</strong></p><p style='font-size: 30px;'><strong>This rock is diorite</strong></p>","0","corr_feedback","1","train","46","","","","","","","",""
"","","","","","","","","","","","html-button-response","197","2.0.0","1428220","66a005727145a4b4a60ba5d8","1","37","2213","","","","","","","","","<img src= ""rock_img/I_Pumice_09.jpg"" style=""width:8cm; height:6.44cm;""><p>What type of rock is this?</p>","6","class_response","1","train","47","Peridotite","Pumice","09","false","7","8","",""
"","","","","","","","","","","","html-button-response","198","2.0.0","1428949","66a005727145a4b4a60ba5d8","1","37","726","","","","","","","","","<img src= rock_img/I_Pumice_09.jpg style=""width:8cm; height:6.44cm;""><p style='font-size: 30px; color: red;'><strong>Incorrect!</strong></p><p style='font-size: 30px;'><strong>This rock is pumice</strong></p>","0","corr_feedback","1","train","47","","","","","","","",""
"","","","","","","","","","","","html-button-response","199","2.0.0","1430104","66a005727145a4b4a60ba5d8","1","37","1153","","","","","","","","","<img src= ""rock_img/I_Pumice_14.jpg"" style=""width:8cm; height:6.39cm;""><p>What type of rock is this?</p>","7","class_response","1","train","48","Pumice","Pumice","14","true","8","8","",""
"","","","","","","","","","","","html-button-response","200","2.0.0","1430702","66a005727145a4b4a60ba5d8","1","37","594","","","","","","","","","<img src= rock_img/I_Pumice_14.jpg style=""width:8cm; height:6.39cm;""><p style='font-size: 30px; color: green;'><strong>Correct!</strong></p><p style='font-size: 30px;'><strong>This rock is pumice</strong></p>","0","corr_feedback","1","train","48","","","","","","","",""
"","","","","","","","","","","","instructions","203","2.0.0","1468460","66a005727145a4b4a60ba5d8","1","37","37755","","","","","","","","[{""page_index"":0,""viewing_time"":12357},{""page_index"":1,""viewing_time"":25398}]","","","","","","","","","","","","","",""
"","","","","","","","","","","","html-button-response","204","2.0.0","1474748","66a005727145a4b4a60ba5d8","1","37","6285","","","","","","","","","","0","start_test","","","","","","","","","","",""
"","","","","","","","","","","","html-button-response","205","2.0.0","1476537","66a005727145a4b4a60ba5d8","1","37","1787","","","","","","","","","<img src= ""rock_img/I_Pumice_16.jpg"" style=""width:8cm; height:6.79cm;""><p>What type of rock is this?</p>","7","class_response","1","test","1","Pumice","Pumice","16","true","8","8","",""
"","","","","","","","","","","","html-keyboard-response","206","2.0.0","1477046","66a005727145a4b4a60ba5d8","1","37","null","","","","","","","","","<p style='font-size: 30px;'><strong>Okay</strong></p>","null","neutral_feedback","1","test","1","","","","","","","",""
"","","","","","","","","","","","html-button-response","207","2.0.0","1479808","66a005727145a4b4a60ba5d8","1","37","2759","","","","","","","","","<img src= ""rock_img/I_Peridotite_04.jpg"" style=""width:8cm; height:6.680000000000001cm;""><p>What type of rock is this?</p>","0","class_response","1","test","2","Andesite","Peridotite","04","false","1","7","",""
"","","","","","","","","","","","html-keyboard-response","208","2.0.0","1480316","66a005727145a4b4a60ba5d8","1","37","null","","","","","","","","","<p style='font-size: 30px;'><strong>Okay</strong></p>","null","neutral_feedback","1","test","2","","","","","","","",""
"","","","","","","","","","","","html-button-response","209","2.0.0","1484832","66a005727145a4b4a60ba5d8","1","37","4514","","","","","","","","","<img src= ""rock_img/I_Pegmatite_08.jpg"" style=""width:8cm; height:7.68cm;""><p>What type of rock is this?</p>","3","class_response","1","test","3","Gabbro","Pegmatite","08","false","4","6","",""
"","","","","","","","","","","","html-keyboard-response","210","2.0.0","1485345","66a005727145a4b4a60ba5d8","1","37","null","","","","","","","","","<p style='font-size: 30px;'><strong>Okay</strong></p>","null","neutral_feedback","1","test","3","","","","","","","",""
"","","","","","","","","","","","html-button-response","211","2.0.0","1491589","66a005727145a4b4a60ba5d8","1","37","6241","","","","","","","","","<img src= ""rock_img/I_Diorite_12.jpg"" style=""width:8cm; height:4.88cm;""><p>What type of rock is this?</p>","2","class_response","1","test","4","Diorite","Diorite","12","true","3","3","",""
"","","","","","","","","","","","html-keyboard-response","212","2.0.0","1492098","66a005727145a4b4a60ba5d8","1","37","null","","","","","","","","","<p style='font-size: 30px;'><strong>Okay</strong></p>","null","neutral_feedback","1","test","4","","","","","","","",""
"","","","","","","","","","","","html-button-response","213","2.0.0","1493069","66a005727145a4b4a60ba5d8","1","37","968","","","","","","","","","<img src= ""rock_img/I_Diorite_10.jpg"" style=""width:8cm; height:5.949999999999999cm;""><p>What type of rock is this?</p>","2","class_response","1","test","5","Diorite","Diorite","10","true","3","3","",""
"","","","","","","","","","","","html-keyboard-response","214","2.0.0","1493577","66a005727145a4b4a60ba5d8","1","37","null","","","","","","","","","<p style='font-size: 30px;'><strong>Okay</strong></p>","null","neutral_feedback","1","test","5","","","","","","","",""
"","","","","","","","","","","","html-button-response","215","2.0.0","1495039","66a005727145a4b4a60ba5d8","1","37","1459","","","","","","","","","<img src= ""rock_img/I_Basalt_14.jpg"" style=""width:8cm; height:5.82cm;""><p>What type of rock is this?</p>","7","class_response","1","test","6","Pumice","Basalt","14","false","8","2","",""
"","","","","","","","","","","","html-keyboard-response","216","2.0.0","1495545","66a005727145a4b4a60ba5d8","1","37","null","","","","","","","","","<p style='font-size: 30px;'><strong>Okay</strong></p>","null","neutral_feedback","1","test","6","","","","","","","",""
"","","","","","","","","","","","html-button-response","217","2.0.0","1503821","66a005727145a4b4a60ba5d8","1","37","8273","","","","","","","","","<img src= ""rock_img/I_Pegmatite_13.jpg"" style=""width:8cm; height:4.95cm;""><p>What type of rock is this?</p>","5","class_response","1","test","7","Pegmatite","Pegmatite","13","true","6","6","",""
"","","","","","","","","","","","html-keyboard-response","218","2.0.0","1504334","66a005727145a4b4a60ba5d8","1","37","null","","","","","","","","","<p style='font-size: 30px;'><strong>Okay</strong></p>","null","neutral_feedback","1","test","7","","","","","","","",""
"","","","","","","","","","","","html-button-response","219","2.0.0","1507422","66a005727145a4b4a60ba5d8","1","37","3086","","","","","","","","","<img src= ""rock_img/I_Pumice_05.jpg"" style=""width:8cm; height:7.25cm;""><p>What type of rock is this?</p>","0","class_response","1","test","8","Andesite","Pumice","05","false","1","8","",""
"","","","","","","","","","","","html-keyboard-response","220","2.0.0","1507934","66a005727145a4b4a60ba5d8","1","37","null","","","","","","","","","<p style='font-size: 30px;'><strong>Okay</strong></p>","null","neutral_feedback","1","test","8","","","","","","","",""
"","","","","","","","","","","","html-button-response","221","2.0.0","1511780","66a005727145a4b4a60ba5d8","1","37","3844","","","","","","","","","<img src= ""rock_img/I_Gabbro_10.jpg"" style=""width:8cm; height:5.680000000000001cm;""><p>What type of rock is this?</p>","4","class_response","1","test","9","Obsidian","Gabbro","10","false","5","4","",""
"","","","","","","","","","","","html-keyboard-response","222","2.0.0","1512290","66a005727145a4b4a60ba5d8","1","37","null","","","","","","","","","<p style='font-size: 30px;'><strong>Okay</strong></p>","null","neutral_feedback","1","test","9","","","","","","","",""
"","","","","","","","","","","","html-button-response","223","2.0.0","1533000","66a005727145a4b4a60ba5d8","1","37","20708","","","","","","","","","<img src= ""rock_img/I_Pumice_10.jpg"" style=""width:8cm; height:7.609999999999999cm;""><p>What type of rock is this?</p>","7","class_response","1","test","10","Pumice","Pumice","10","true","8","8","",""
"","","","","","","","","","","","html-keyboard-response","224","2.0.0","1533507","66a005727145a4b4a60ba5d8","1","37","null","","","","","","","","","<p style='font-size: 30px;'><strong>Okay</strong></p>","null","neutral_feedback","1","test","10","","","","","","","",""
"","","","","","","","","","","","html-button-response","225","2.0.0","1544702","66a005727145a4b4a60ba5d8","1","37","11192","","","","","","","","","<img src= ""rock_img/I_Diorite_06.jpg"" style=""width:8cm; height:6.03cm;""><p>What type of rock is this?</p>","2","class_response","1","test","11","Diorite","Diorite","06","true","3","3","",""
"","","","","","","","","","","","html-keyboard-response","226","2.0.0","1545210","66a005727145a4b4a60ba5d8","1","37","null","","","","","","","","","<p style='font-size: 30px;'><strong>Okay</strong></p>","null","neutral_feedback","1","test","11","","","","","","","",""
"","","","","","","","","","","","html-button-response","227","2.0.0","1554906","66a005727145a4b4a60ba5d8","1","37","9694","","","","","","","","","<img src= ""rock_img/I_Pegmatite_09.jpg"" style=""width:8cm; height:4.03cm;""><p>What type of rock is this?</p>","6","class_response","1","test","12","Peridotite","Pegmatite","09","false","7","6","",""
"","","","","","","","","","","","html-keyboard-response","228","2.0.0","1555417","66a005727145a4b4a60ba5d8","1","37","null","","","","","","","","","<p style='font-size: 30px;'><strong>Okay</strong></p>","null","neutral_feedback","1","test","12","","","","","","","",""
"","","","","","","","","","","","html-button-response","229","2.0.0","1556501","66a005727145a4b4a60ba5d8","1","37","1081","","","","","","","","","<img src= ""rock_img/I_Obsidian_14.jpg"" style=""width:8cm; height:7.64cm;""><p>What type of rock is this?</p>","4","class_response","1","test","13","Obsidian","Obsidian","14","true","5","5","",""
"","","","","","","","","","","","html-keyboard-response","230","2.0.0","1557010","66a005727145a4b4a60ba5d8","1","37","null","","","","","","","","","<p style='font-size: 30px;'><strong>Okay</strong></p>","null","neutral_feedback","1","test","13","","","","","","","",""
"","","","","","","","","","","","html-button-response","231","2.0.0","1559355","66a005727145a4b4a60ba5d8","1","37","2343","","","","","","","","","<img src= ""rock_img/I_Basalt_11.jpg"" style=""width:8cm; height:5.359999999999999cm;""><p>What type of rock is this?</p>","3","class_response","1","test","14","Gabbro","Basalt","11","false","4","2","",""
"","","","","","","","","","","","html-keyboard-response","232","2.0.0","1559865","66a005727145a4b4a60ba5d8","1","37","null","","","","","","","","","<p style='font-size: 30px;'><strong>Okay</strong></p>","null","neutral_feedback","1","test","14","","","","","","","",""
"","","","","","","","","","","","html-button-response","233","2.0.0","1560941","66a005727145a4b4a60ba5d8","1","37","1074","","","","","","","","","<img src= ""rock_img/I_Obsidian_04.jpg"" style=""width:8cm; height:6.930000000000001cm;""><p>What type of rock is this?</p>","4","class_response","1","test","15","Obsidian","Obsidian","04","true","5","5","",""
"","","","","","","","","","","","html-keyboard-response","234","2.0.0","1561451","66a005727145a4b4a60ba5d8","1","37","null","","","","","","","","","<p style='font-size: 30px;'><strong>Okay</strong></p>","null","neutral_feedback","1","test","15","","","","","","","",""
"","","","","","","","","","","","html-button-response","235","2.0.0","1562349","66a005727145a4b4a60ba5d8","1","37","895","","","","","","","","","<img src= ""rock_img/I_Obsidian_12.jpg"" style=""width:8cm; height:6.53cm;""><p>What type of rock is this?</p>","4","class_response","1","test","16","Obsidian","Obsidian","12","true","5","5","",""
"","","","","","","","","","","","html-keyboard-response","236","2.0.0","1562862","66a005727145a4b4a60ba5d8","1","37","null","","","","","","","","","<p style='font-size: 30px;'><strong>Okay</strong></p>","null","neutral_feedback","1","test","16","","","","","","","",""
"","","","","","","","","","","","html-button-response","237","2.0.0","1565944","66a005727145a4b4a60ba5d8","1","37","3081","","","","","","","","","<img src= ""rock_img/I_Andesite_06.jpg"" style=""width:8cm; height:6.840000000000001cm;""><p>What type of rock is this?</p>","0","class_response","1","test","17","Andesite","Andesite","06","true","1","1","",""
"","","","","","","","","","","","html-keyboard-response","238","2.0.0","1566446","66a005727145a4b4a60ba5d8","1","37","null","","","","","","","","","<p style='font-size: 30px;'><strong>Okay</strong></p>","null","neutral_feedback","1","test","17","","","","","","","",""
"","","","","","","","","","","","html-button-response","239","2.0.0","1569684","66a005727145a4b4a60ba5d8","1","37","3236","","","","","","","","","<img src= ""rock_img/I_Peridotite_14.jpg"" style=""width:8cm; height:5.3cm;""><p>What type of rock is this?</p>","6","class_response","1","test","18","Peridotite","Peridotite","14","true","7","7","",""
"","","","","","","","","","","","html-keyboard-response","240","2.0.0","1570200","66a005727145a4b4a60ba5d8","1","37","null","","","","","","","","","<p style='font-size: 30px;'><strong>Okay</strong></p>","null","neutral_feedback","1","test","18","","","","","","","",""
"","","","","","","","","","","","html-button-response","241","2.0.0","1571770","66a005727145a4b4a60ba5d8","1","37","1568","","","","","","","","","<img src= ""rock_img/I_Andesite_03.jpg"" style=""width:8cm; height:5.73cm;""><p>What type of rock is this?</p>","1","class_response","1","test","19","Basalt","Andesite","03","false","2","1","",""
"","","","","","","","","","","","html-keyboard-response","242","2.0.0","1572278","66a005727145a4b4a60ba5d8","1","37","null","","","","","","","","","<p style='font-size: 30px;'><strong>Okay</strong></p>","null","neutral_feedback","1","test","19","","","","","","","",""
"","","","","","","","","","","","html-button-response","243","2.0.0","1573820","66a005727145a4b4a60ba5d8","1","37","1538","","","","","","","","","<img src= ""rock_img/I_Gabbro_05.jpg"" style=""width:8cm; height:6cm;""><p>What type of rock is this?</p>","6","class_response","1","test","20","Peridotite","Gabbro","05","false","7","4","",""
"","","","","","","","","","","","html-keyboard-response","244","2.0.0","1574327","66a005727145a4b4a60ba5d8","1","37","null","","","","","","","","","<p style='font-size: 30px;'><strong>Okay</strong></p>","null","neutral_feedback","1","test","20","","","","","","","",""
"","","","","","","","","","","","html-button-response","245","2.0.0","1575955","66a005727145a4b4a60ba5d8","1","37","1626","","","","","","","","","<img src= ""rock_img/I_Andesite_04.jpg"" style=""width:8cm; height:5.96cm;""><p>What type of rock is this?</p>","7","class_response","1","test","21","Pumice","Andesite","04","false","8","1","",""
"","","","","","","","","","","","html-keyboard-response","246","2.0.0","1576459","66a005727145a4b4a60ba5d8","1","37","null","","","","","","","","","<p style='font-size: 30px;'><strong>Okay</strong></p>","null","neutral_feedback","1","test","21","","","","","","","",""
"","","","","","","","","","","","html-button-response","247","2.0.0","1579735","66a005727145a4b4a60ba5d8","1","37","3273","","","","","","","","","<img src= ""rock_img/I_Andesite_10.jpg"" style=""width:8cm; height:4.16cm;""><p>What type of rock is this?</p>","5","class_response","1","test","22","Pegmatite","Andesite","10","false","6","1","",""
"","","","","","","","","","","","html-keyboard-response","248","2.0.0","1580244","66a005727145a4b4a60ba5d8","1","37","null","","","","","","","","","<p style='font-size: 30px;'><strong>Okay</strong></p>","null","neutral_feedback","1","test","22","","","","","","","",""
"","","","","","","","","","","","html-button-response","249","2.0.0","1586689","66a005727145a4b4a60ba5d8","1","37","6443","","","","","","","","","<img src= ""rock_img/I_Andesite_05.jpg"" style=""width:8cm; height:4.12cm;""><p>What type of rock is this?</p>","3","class_response","1","test","23","Gabbro","Andesite","05","false","4","1","",""
"","","","","","","","","","","","html-keyboard-response","250","2.0.0","1587198","66a005727145a4b4a60ba5d8","1","37","null","","","","","","","","","<p style='font-size: 30px;'><strong>Okay</strong></p>","null","neutral_feedback","1","test","23","","","","","","","",""
"","","","","","","","","","","","html-button-response","251","2.0.0","1588234","66a005727145a4b4a60ba5d8","1","37","1033","","","","","","","","","<img src= ""rock_img/I_Pumice_13.jpg"" style=""width:8cm; height:8.200000000000001cm;""><p>What type of rock is this?</p>","7","class_response","1","test","24","Pumice","Pumice","13","true","8","8","",""
"","","","","","","","","","","","html-keyboard-response","252","2.0.0","1588741","66a005727145a4b4a60ba5d8","1","37","null","","","","","","","","","<p style='font-size: 30px;'><strong>Okay</strong></p>","null","neutral_feedback","1","test","24","","","","","","","",""
"","","","","","","","","","","","html-button-response","253","2.0.0","1594306","66a005727145a4b4a60ba5d8","1","37","5561","","","","","","","","","<img src= ""rock_img/I_Pegmatite_03.jpg"" style=""width:8cm; height:5.239999999999999cm;""><p>What type of rock is this?</p>","6","class_response","1","test","25","Peridotite","Pegmatite","03","false","7","6","",""
"","","","","","","","","","","","html-keyboard-response","254","2.0.0","1594824","66a005727145a4b4a60ba5d8","1","37","null","","","","","","","","","<p style='font-size: 30px;'><strong>Okay</strong></p>","null","neutral_feedback","1","test","25","","","","","","","",""
"","","","","","","","","","","","html-button-response","255","2.0.0","1596074","66a005727145a4b4a60ba5d8","1","37","1247","","","","","","","","","<img src= ""rock_img/I_Basalt_06.jpg"" style=""width:8cm; height:7.06cm;""><p>What type of rock is this?</p>","1","class_response","1","test","26","Basalt","Basalt","06","true","2","2","",""
"","","","","","","","","","","","html-keyboard-response","256","2.0.0","1596581","66a005727145a4b4a60ba5d8","1","37","null","","","","","","","","","<p style='font-size: 30px;'><strong>Okay</strong></p>","null","neutral_feedback","1","test","26","","","","","","","",""
"","","","","","","","","","","","html-button-response","257","2.0.0","1598108","66a005727145a4b4a60ba5d8","1","37","1524","","","","","","","","","<img src= ""rock_img/I_Basalt_12.jpg"" style=""width:8cm; height:6.010000000000001cm;""><p>What type of rock is this?</p>","3","class_response","1","test","27","Gabbro","Basalt","12","false","4","2","",""
"","","","","","","","","","","","html-keyboard-response","258","2.0.0","1598611","66a005727145a4b4a60ba5d8","1","37","null","","","","","","","","","<p style='font-size: 30px;'><strong>Okay</strong></p>","null","neutral_feedback","1","test","27","","","","","","","",""
"","","","","","","","","","","","html-button-response","259","2.0.0","1599673","66a005727145a4b4a60ba5d8","1","37","1059","","","","","","","","","<img src= ""rock_img/I_Pumice_15.jpg"" style=""width:8cm; height:7.86cm;""><p>What type of rock is this?</p>","7","class_response","1","test","28","Pumice","Pumice","15","true","8","8","",""
"","","","","","","","","","","","html-keyboard-response","260","2.0.0","1600179","66a005727145a4b4a60ba5d8","1","37","null","","","","","","","","","<p style='font-size: 30px;'><strong>Okay</strong></p>","null","neutral_feedback","1","test","28","","","","","","","",""
"","","","","","","","","","","","html-button-response","261","2.0.0","1601633","66a005727145a4b4a60ba5d8","1","37","1451","","","","","","","","","<img src= ""rock_img/I_Obsidian_07.jpg"" style=""width:8cm; height:4.76cm;""><p>What type of rock is this?</p>","4","class_response","1","test","29","Obsidian","Obsidian","07","true","5","5","",""
"","","","","","","","","","","","html-keyboard-response","262","2.0.0","1602146","66a005727145a4b4a60ba5d8","1","37","null","","","","","","","","","<p style='font-size: 30px;'><strong>Okay</strong></p>","null","neutral_feedback","1","test","29","","","","","","","",""
"","","","","","","","","","","","html-button-response","263","2.0.0","1603260","66a005727145a4b4a60ba5d8","1","37","1111","","","","","","","","","<img src= ""rock_img/I_Pumice_04.jpg"" style=""width:8cm; height:6.819999999999999cm;""><p>What type of rock is this?</p>","7","class_response","1","test","30","Pumice","Pumice","04","true","8","8","",""
"","","","","","","","","","","","html-keyboard-response","264","2.0.0","1603768","66a005727145a4b4a60ba5d8","1","37","null","","","","","","","","","<p style='font-size: 30px;'><strong>Okay</strong></p>","null","neutral_feedback","1","test","30","","","","","","","",""
"","","","","","","","","","","","html-button-response","265","2.0.0","1606785","66a005727145a4b4a60ba5d8","1","37","3014","","","","","","","","","<img src= ""rock_img/I_Gabbro_15.jpg"" style=""width:8cm; height:6.29cm;""><p>What type of rock is this?</p>","0","class_response","1","test","31","Andesite","Gabbro","15","false","1","4","",""
"","","","","","","","","","","","html-keyboard-response","266","2.0.0","1607287","66a005727145a4b4a60ba5d8","1","37","null","","","","","","","","","<p style='font-size: 30px;'><strong>Okay</strong></p>","null","neutral_feedback","1","test","31","","","","","","","",""
"","","","","","","","","","","","html-button-response","267","2.0.0","1610230","66a005727145a4b4a60ba5d8","1","37","2940","","","","","","","","","<img src= ""rock_img/I_Andesite_16.jpg"" style=""width:8cm; height:6.010000000000001cm;""><p>What type of rock is this?</p>","3","class_response","1","test","32","Gabbro","Andesite","16","false","4","1","",""
"","","","","","","","","","","","html-keyboard-response","268","2.0.0","1610742","66a005727145a4b4a60ba5d8","1","37","null","","","","","","","","","<p style='font-size: 30px;'><strong>Okay</strong></p>","null","neutral_feedback","1","test","32","","","","","","","",""
"","","","","","","","","","","","html-button-response","269","2.0.0","1612633","66a005727145a4b4a60ba5d8","1","37","1889","","","","","","","","","<img src= ""rock_img/I_Diorite_15.jpg"" style=""width:8cm; height:5.54cm;""><p>What type of rock is this?</p>","3","class_response","1","test","33","Gabbro","Diorite","15","false","4","3","",""
"","","","","","","","","","","","html-keyboard-response","270","2.0.0","1613140","66a005727145a4b4a60ba5d8","1","37","null","","","","","","","","","<p style='font-size: 30px;'><strong>Okay</strong></p>","null","neutral_feedback","1","test","33","","","","","","","",""
"","","","","","","","","","","","html-button-response","271","2.0.0","1616247","66a005727145a4b4a60ba5d8","1","37","3105","","","","","","","","","<img src= ""rock_img/I_Peridotite_13.jpg"" style=""width:8cm; height:7.58cm;""><p>What type of rock is this?</p>","6","class_response","1","test","34","Peridotite","Peridotite","13","true","7","7","",""
"","","","","","","","","","","","html-keyboard-response","272","2.0.0","1616761","66a005727145a4b4a60ba5d8","1","37","null","","","","","","","","","<p style='font-size: 30px;'><strong>Okay</strong></p>","null","neutral_feedback","1","test","34","","","","","","","",""
"","","","","","","","","","","","html-button-response","273","2.0.0","1622490","66a005727145a4b4a60ba5d8","1","37","5727","","","","","","","","","<img src= ""rock_img/I_Diorite_16.jpg"" style=""width:8cm; height:6.74cm;""><p>What type of rock is this?</p>","2","class_response","1","test","35","Diorite","Diorite","16","true","3","3","",""
"","","","","","","","","","","","html-keyboard-response","274","2.0.0","1622997","66a005727145a4b4a60ba5d8","1","37","null","","","","","","","","","<p style='font-size: 30px;'><strong>Okay</strong></p>","null","neutral_feedback","1","test","35","","","","","","","",""
"","","","","","","","","","","","html-button-response","275","2.0.0","1626635","66a005727145a4b4a60ba5d8","1","37","3636","","","","","","","","","<img src= ""rock_img/I_Diorite_13.jpg"" style=""width:8cm; height:6.29cm;""><p>What type of rock is this?</p>","3","class_response","1","test","36","Gabbro","Diorite","13","false","4","3","",""
"","","","","","","","","","","","html-keyboard-response","276","2.0.0","1627150","66a005727145a4b4a60ba5d8","1","37","null","","","","","","","","","<p style='font-size: 30px;'><strong>Okay</strong></p>","null","neutral_feedback","1","test","36","","","","","","","",""
"","","","","","","","","","","","html-button-response","277","2.0.0","1628482","66a005727145a4b4a60ba5d8","1","37","1330","","","","","","","","","<img src= ""rock_img/I_Peridotite_08.jpg"" style=""width:8cm; height:6.7cm;""><p>What type of rock is this?</p>","6","class_response","1","test","37","Peridotite","Peridotite","08","true","7","7","",""
"","","","","","","","","","","","html-keyboard-response","278","2.0.0","1628998","66a005727145a4b4a60ba5d8","1","37","null","","","","","","","","","<p style='font-size: 30px;'><strong>Okay</strong></p>","null","neutral_feedback","1","test","37","","","","","","","",""
"","","","","","","","","","","","html-button-response","279","2.0.0","1629846","66a005727145a4b4a60ba5d8","1","37","845","","","","","","","","","<img src= ""rock_img/I_Obsidian_16.jpg"" style=""width:8cm; height:9.3cm;""><p>What type of rock is this?</p>","4","class_response","1","test","38","Obsidian","Obsidian","16","true","5","5","",""
"","","","","","","","","","","","html-keyboard-response","280","2.0.0","1630358","66a005727145a4b4a60ba5d8","1","37","null","","","","","","","","","<p style='font-size: 30px;'><strong>Okay</strong></p>","null","neutral_feedback","1","test","38","","","","","","","",""
"","","","","","","","","","","","html-button-response","281","2.0.0","1631460","66a005727145a4b4a60ba5d8","1","37","1099","","","","","","","","","<img src= ""rock_img/I_Gabbro_12.jpg"" style=""width:8cm; height:7.800000000000001cm;""><p>What type of rock is this?</p>","1","class_response","1","test","39","Basalt","Gabbro","12","false","2","4","",""
"","","","","","","","","","","","html-keyboard-response","282","2.0.0","1631975","66a005727145a4b4a60ba5d8","1","37","null","","","","","","","","","<p style='font-size: 30px;'><strong>Okay</strong></p>","null","neutral_feedback","1","test","39","","","","","","","",""
"","","","","","","","","","","","html-button-response","283","2.0.0","1632877","66a005727145a4b4a60ba5d8","1","37","900","","","","","","","","","<img src= ""rock_img/I_Basalt_09.jpg"" style=""width:8cm; height:6.2cm;""><p>What type of rock is this?</p>","1","class_response","1","test","40","Basalt","Basalt","09","true","2","2","",""
"","","","","","","","","","","","html-keyboard-response","284","2.0.0","1633387","66a005727145a4b4a60ba5d8","1","37","null","","","","","","","","","<p style='font-size: 30px;'><strong>Okay</strong></p>","null","neutral_feedback","1","test","40","","","","","","","",""
"","","","","","","","","","","","html-button-response","285","2.0.0","1634334","66a005727145a4b4a60ba5d8","1","37","945","","","","","","","","","<img src= ""rock_img/I_Obsidian_10.jpg"" style=""width:8cm; height:6.260000000000001cm;""><p>What type of rock is this?</p>","4","class_response","1","test","41","Obsidian","Obsidian","10","true","5","5","",""
"","","","","","","","","","","","html-keyboard-response","286","2.0.0","1634841","66a005727145a4b4a60ba5d8","1","37","null","","","","","","","","","<p style='font-size: 30px;'><strong>Okay</strong></p>","null","neutral_feedback","1","test","41","","","","","","","",""
"","","","","","","","","","","","html-button-response","287","2.0.0","1635699","66a005727145a4b4a60ba5d8","1","37","855","","","","","","","","","<img src= ""rock_img/I_Gabbro_11.jpg"" style=""width:8cm; height:6.2cm;""><p>What type of rock is this?</p>","1","class_response","1","test","42","Basalt","Gabbro","11","false","2","4","",""
"","","","","","","","","","","","html-keyboard-response","288","2.0.0","1636209","66a005727145a4b4a60ba5d8","1","37","null","","","","","","","","","<p style='font-size: 30px;'><strong>Okay</strong></p>","null","neutral_feedback","1","test","42","","","","","","","",""
"","","","","","","","","","","","html-button-response","289","2.0.0","1655307","66a005727145a4b4a60ba5d8","1","37","19096","","","","","","","","","<img src= ""rock_img/I_Pegmatite_16.jpg"" style=""width:8cm; height:5.8cm;""><p>What type of rock is this?</p>","3","class_response","1","test","43","Gabbro","Pegmatite","16","false","4","6","",""
"","","","","","","","","","","","html-keyboard-response","290","2.0.0","1655810","66a005727145a4b4a60ba5d8","1","37","null","","","","","","","","","<p style='font-size: 30px;'><strong>Okay</strong></p>","null","neutral_feedback","1","test","43","","","","","","","",""
"","","","","","","","","","","","html-button-response","291","2.0.0","1657071","66a005727145a4b4a60ba5d8","1","37","1258","","","","","","","","","<img src= ""rock_img/I_Peridotite_07.jpg"" style=""width:8cm; height:4.83cm;""><p>What type of rock is this?</p>","6","class_response","1","test","44","Peridotite","Peridotite","07","true","7","7","",""
"","","","","","","","","","","","html-keyboard-response","292","2.0.0","1657585","66a005727145a4b4a60ba5d8","1","37","null","","","","","","","","","<p style='font-size: 30px;'><strong>Okay</strong></p>","null","neutral_feedback","1","test","44","","","","","","","",""
"","","","","","","","","","","","html-button-response","293","2.0.0","1659773","66a005727145a4b4a60ba5d8","1","37","2185","","","","","","","","","<img src= ""rock_img/I_Gabbro_16.jpg"" style=""width:8cm; height:6.44cm;""><p>What type of rock is this?</p>","3","class_response","1","test","45","Gabbro","Gabbro","16","true","4","4","",""
"","","","","","","","","","","","html-keyboard-response","294","2.0.0","1660280","66a005727145a4b4a60ba5d8","1","37","null","","","","","","","","","<p style='font-size: 30px;'><strong>Okay</strong></p>","null","neutral_feedback","1","test","45","","","","","","","",""
"","","","","","","","","","","","html-button-response","295","2.0.0","1666926","66a005727145a4b4a60ba5d8","1","37","6643","","","","","","","","","<img src= ""rock_img/I_Peridotite_06.jpg"" style=""width:8cm; height:7.53cm;""><p>What type of rock is this?</p>","6","class_response","1","test","46","Peridotite","Peridotite","06","true","7","7","",""
"","","","","","","","","","","","html-keyboard-response","296","2.0.0","1667434","66a005727145a4b4a60ba5d8","1","37","null","","","","","","","","","<p style='font-size: 30px;'><strong>Okay</strong></p>","null","neutral_feedback","1","test","46","","","","","","","",""
"","","","","","","","","","","","html-button-response","297","2.0.0","1668476","66a005727145a4b4a60ba5d8","1","37","1040","","","","","","","","","<img src= ""rock_img/I_Basalt_08.jpg"" style=""width:8cm; height:10.44cm;""><p>What type of rock is this?</p>","1","class_response","1","test","47","Basalt","Basalt","08","true","2","2","",""
"","","","","","","","","","","","html-keyboard-response","298","2.0.0","1668981","66a005727145a4b4a60ba5d8","1","37","null","","","","","","","","","<p style='font-size: 30px;'><strong>Okay</strong></p>","null","neutral_feedback","1","test","47","","","","","","","",""
"","","","","","","","","","","","html-button-response","299","2.0.0","1673086","66a005727145a4b4a60ba5d8","1","37","4103","","","","","","","","","<img src= ""rock_img/I_Pegmatite_07.jpg"" style=""width:8cm; height:6.7cm;""><p>What type of rock is this?</p>","0","class_response","1","test","48","Andesite","Pegmatite","07","false","1","6","",""
"","","","","","","","","","","","html-keyboard-response","300","2.0.0","1673602","66a005727145a4b4a60ba5d8","1","37","null","","","","","","","","","<p style='font-size: 30px;'><strong>Okay</strong></p>","null","neutral_feedback","1","test","48","","","","","","","",""
"","","","","","","","","","","","html-button-response","301","2.0.0","1693207","66a005727145a4b4a60ba5d8","1","37","","","","","","","","","","","","cycle_feedback","","","","","","","","","","9686.900000035763","9905.699999988079"
"","","","","","","","","","","","html-button-response","303","2.0.0","1694458","66a005727145a4b4a60ba5d8","1","37","1248","","","","","","","","","","0","start_train","","","","","","","","","","",""
