"width","height","webaudio","browser","browser_version","mobile","os","fullscreen","vsync_rate","webcam","microphone","trial_type","trial_index","plugin_version","time_elapsed","subjID","condition","stimID","rt","url","success","value","timeout","failed_images","failed_audio","failed_video","view_history","stimulus","response","trialType","cycle","phase","trial","resp","cat","token","corr","resp_num","cat_num","time_fb1","time_fb2"
"1536","730","true","chrome","131.0.0","false","Windows 10","true","60.96","false","false","browser-check","0","2.0.0","1021","669ecaf71fc12b3e8b8cd191","1","38","","","","","","","","","","","","","","","","","","","","","","",""
"","","","","","","","","","","","external-html","1","2.0.0","63111","669ecaf71fc12b3e8b8cd191","1","38","62015","consent_form.html","","","","","","","","","","","","","","","","","","","","",""
"","","","","","","","","","","","fullscreen","2","2.0.0","68139","669ecaf71fc12b3e8b8cd191","1","38","4021","","true","","","","","","","","","","","","","","","","","","","",""
"","","","","","","","","","","","call-function","3","2.0.0","68141","669ecaf71fc12b3e8b8cd191","1","38","","","","{}","","","","","","","","","","","","","","","","","","",""
"","","","","","","","","","","","preload","4","2.0.0","70285","669ecaf71fc12b3e8b8cd191","1","38","","","true","","false","[]","[]","[]","","","","","","","","","","","","","","",""
"","","","","","","","","","","","instructions","5","2.0.0","111904","669ecaf71fc12b3e8b8cd191","1","38","41617","","","","","","","","[{""page_index"":0,""viewing_time"":6927},{""page_index"":1,""viewing_time"":24586},{""page_index"":2,""viewing_time"":10104}]","","","","","","","","","","","","","",""
"","","","","","","","","","","","html-button-response","6","2.0.0","113461","669ecaf71fc12b3e8b8cd191","1","38","1555","","","","","","","","","","0","start_test","","","","","","","","","","",""
"","","","","","","","","","","","html-button-response","7","2.0.0","121489","669ecaf71fc12b3e8b8cd191","1","38","8025","","","","","","","","","<img src= ""rock_img/I_Basalt_12.jpg"" style=""width:8cm; height:6.010000000000001cm;""><p>What type of rock is this?</p>","7","class_response","0","test","1","Pumice","Basalt","12","false","8","2","",""
"","","","","","","","","","","","html-keyboard-response","8","2.0.0","122006","669ecaf71fc12b3e8b8cd191","1","38","null","","","","","","","","","<p style='font-size: 30px;'><strong>Okay</strong></p>","null","neutral_feedback","0","test","1","","","","","","","",""
"","","","","","","","","","","","html-button-response","9","2.0.0","128340","669ecaf71fc12b3e8b8cd191","1","38","6331","","","","","","","","","<img src= ""rock_img/I_Pegmatite_06.jpg"" style=""width:8cm; height:5.17cm;""><p>What type of rock is this?</p>","6","class_response","0","test","2","Peridotite","Pegmatite","06","false","7","6","",""
"","","","","","","","","","","","html-keyboard-response","10","2.0.0","128856","669ecaf71fc12b3e8b8cd191","1","38","null","","","","","","","","","<p style='font-size: 30px;'><strong>Okay</strong></p>","null","neutral_feedback","0","test","2","","","","","","","",""
"","","","","","","","","","","","html-button-response","11","2.0.0","133729","669ecaf71fc12b3e8b8cd191","1","38","4871","","","","","","","","","<img src= ""rock_img/I_Andesite_10.jpg"" style=""width:8cm; height:4.16cm;""><p>What type of rock is this?</p>","0","class_response","0","test","3","Andesite","Andesite","10","true","1","1","",""
"","","","","","","","","","","","html-keyboard-response","12","2.0.0","134239","669ecaf71fc12b3e8b8cd191","1","38","null","","","","","","","","","<p style='font-size: 30px;'><strong>Okay</strong></p>","null","neutral_feedback","0","test","3","","","","","","","",""
"","","","","","","","","","","","html-button-response","13","2.0.0","138195","669ecaf71fc12b3e8b8cd191","1","38","3955","","","","","","","","","<img src= ""rock_img/I_Peridotite_16.jpg"" style=""width:8cm; height:6.989999999999999cm;""><p>What type of rock is this?</p>","1","class_response","0","test","4","Basalt","Peridotite","16","false","2","7","",""
"","","","","","","","","","","","html-keyboard-response","14","2.0.0","138697","669ecaf71fc12b3e8b8cd191","1","38","null","","","","","","","","","<p style='font-size: 30px;'><strong>Okay</strong></p>","null","neutral_feedback","0","test","4","","","","","","","",""
"","","","","","","","","","","","html-button-response","15","2.0.0","143070","669ecaf71fc12b3e8b8cd191","1","38","4372","","","","","","","","","<img src= ""rock_img/I_Andesite_14.jpg"" style=""width:8cm; height:5.449999999999999cm;""><p>What type of rock is this?</p>","6","class_response","0","test","5","Peridotite","Andesite","14","false","7","1","",""
"","","","","","","","","","","","html-keyboard-response","16","2.0.0","143582","669ecaf71fc12b3e8b8cd191","1","38","null","","","","","","","","","<p style='font-size: 30px;'><strong>Okay</strong></p>","null","neutral_feedback","0","test","5","","","","","","","",""
"","","","","","","","","","","","html-button-response","17","2.0.0","146467","669ecaf71fc12b3e8b8cd191","1","38","2883","","","","","","","","","<img src= ""rock_img/I_Diorite_13.jpg"" style=""width:8cm; height:6.29cm;""><p>What type of rock is this?</p>","2","class_response","0","test","6","Diorite","Diorite","13","true","3","3","",""
"","","","","","","","","","","","html-keyboard-response","18","2.0.0","146975","669ecaf71fc12b3e8b8cd191","1","38","null","","","","","","","","","<p style='font-size: 30px;'><strong>Okay</strong></p>","null","neutral_feedback","0","test","6","","","","","","","",""
"","","","","","","","","","","","html-button-response","19","2.0.0","150242","669ecaf71fc12b3e8b8cd191","1","38","3265","","","","","","","","","<img src= ""rock_img/I_Basalt_06.jpg"" style=""width:8cm; height:7.06cm;""><p>What type of rock is this?</p>","4","class_response","0","test","7","Obsidian","Basalt","06","false","5","2","",""
"","","","","","","","","","","","html-keyboard-response","20","2.0.0","150751","669ecaf71fc12b3e8b8cd191","1","38","null","","","","","","","","","<p style='font-size: 30px;'><strong>Okay</strong></p>","null","neutral_feedback","0","test","7","","","","","","","",""
"","","","","","","","","","","","html-button-response","21","2.0.0","153281","669ecaf71fc12b3e8b8cd191","1","38","2528","","","","","","","","","<img src= ""rock_img/I_Basalt_05.jpg"" style=""width:8cm; height:8.18cm;""><p>What type of rock is this?</p>","7","class_response","0","test","8","Pumice","Basalt","05","false","8","2","",""
"","","","","","","","","","","","html-keyboard-response","22","2.0.0","153790","669ecaf71fc12b3e8b8cd191","1","38","null","","","","","","","","","<p style='font-size: 30px;'><strong>Okay</strong></p>","null","neutral_feedback","0","test","8","","","","","","","",""
"","","","","","","","","","","","html-button-response","23","2.0.0","155940","669ecaf71fc12b3e8b8cd191","1","38","2148","","","","","","","","","<img src= ""rock_img/I_Peridotite_10.jpg"" style=""width:8cm; height:5.390000000000001cm;""><p>What type of rock is this?</p>","3","class_response","0","test","9","Gabbro","Peridotite","10","false","4","7","",""
"","","","","","","","","","","","html-keyboard-response","24","2.0.0","156449","669ecaf71fc12b3e8b8cd191","1","38","null","","","","","","","","","<p style='font-size: 30px;'><strong>Okay</strong></p>","null","neutral_feedback","0","test","9","","","","","","","",""
"","","","","","","","","","","","html-button-response","25","2.0.0","159817","669ecaf71fc12b3e8b8cd191","1","38","3367","","","","","","","","","<img src= ""rock_img/I_Diorite_10.jpg"" style=""width:8cm; height:5.949999999999999cm;""><p>What type of rock is this?</p>","5","class_response","0","test","10","Pegmatite","Diorite","10","false","6","3","",""
"","","","","","","","","","","","html-keyboard-response","26","2.0.0","160325","669ecaf71fc12b3e8b8cd191","1","38","null","","","","","","","","","<p style='font-size: 30px;'><strong>Okay</strong></p>","null","neutral_feedback","0","test","10","","","","","","","",""
"","","","","","","","","","","","html-button-response","27","2.0.0","162041","669ecaf71fc12b3e8b8cd191","1","38","1714","","","","","","","","","<img src= ""rock_img/I_Peridotite_02.jpg"" style=""width:8cm; height:5.859999999999999cm;""><p>What type of rock is this?</p>","5","class_response","0","test","11","Pegmatite","Peridotite","02","false","6","7","",""
"","","","","","","","","","","","html-keyboard-response","28","2.0.0","162549","669ecaf71fc12b3e8b8cd191","1","38","null","","","","","","","","","<p style='font-size: 30px;'><strong>Okay</strong></p>","null","neutral_feedback","0","test","11","","","","","","","",""
"","","","","","","","","","","","html-button-response","29","2.0.0","164366","669ecaf71fc12b3e8b8cd191","1","38","1815","","","","","","","","","<img src= ""rock_img/I_Basalt_08.jpg"" style=""width:8cm; height:10.44cm;""><p>What type of rock is this?</p>","4","class_response","0","test","12","Obsidian","Basalt","08","false","5","2","",""
"","","","","","","","","","","","html-keyboard-response","30","2.0.0","164880","669ecaf71fc12b3e8b8cd191","1","38","null","","","","","","","","","<p style='font-size: 30px;'><strong>Okay</strong></p>","null","neutral_feedback","0","test","12","","","","","","","",""
"","","","","","","","","","","","html-button-response","31","2.0.0","166978","669ecaf71fc12b3e8b8cd191","1","38","2096","","","","","","","","","<img src= ""rock_img/I_Gabbro_14.jpg"" style=""width:8cm; height:8.48cm;""><p>What type of rock is this?</p>","0","class_response","0","test","13","Andesite","Gabbro","14","false","1","4","",""
"","","","","","","","","","","","html-keyboard-response","32","2.0.0","167485","669ecaf71fc12b3e8b8cd191","1","38","null","","","","","","","","","<p style='font-size: 30px;'><strong>Okay</strong></p>","null","neutral_feedback","0","test","13","","","","","","","",""
"","","","","","","","","","","","html-button-response","33","2.0.0","169267","669ecaf71fc12b3e8b8cd191","1","38","1780","","","","","","","","","<img src= ""rock_img/I_Obsidian_14.jpg"" style=""width:8cm; height:7.64cm;""><p>What type of rock is this?</p>","4","class_response","0","test","14","Obsidian","Obsidian","14","true","5","5","",""
"","","","","","","","","","","","html-keyboard-response","34","2.0.0","169773","669ecaf71fc12b3e8b8cd191","1","38","null","","","","","","","","","<p style='font-size: 30px;'><strong>Okay</strong></p>","null","neutral_feedback","0","test","14","","","","","","","",""
"","","","","","","","","","","","html-button-response","35","2.0.0","172171","669ecaf71fc12b3e8b8cd191","1","38","2396","","","","","","","","","<img src= ""rock_img/I_Basalt_11.jpg"" style=""width:8cm; height:5.359999999999999cm;""><p>What type of rock is this?</p>","3","class_response","0","test","15","Gabbro","Basalt","11","false","4","2","",""
"","","","","","","","","","","","html-keyboard-response","36","2.0.0","172673","669ecaf71fc12b3e8b8cd191","1","38","null","","","","","","","","","<p style='font-size: 30px;'><strong>Okay</strong></p>","null","neutral_feedback","0","test","15","","","","","","","",""
"","","","","","","","","","","","html-button-response","37","2.0.0","174342","669ecaf71fc12b3e8b8cd191","1","38","1668","","","","","","","","","<img src= ""rock_img/I_Pegmatite_03.jpg"" style=""width:8cm; height:5.239999999999999cm;""><p>What type of rock is this?</p>","6","class_response","0","test","16","Peridotite","Pegmatite","03","false","7","6","",""
"","","","","","","","","","","","html-keyboard-response","38","2.0.0","174844","669ecaf71fc12b3e8b8cd191","1","38","null","","","","","","","","","<p style='font-size: 30px;'><strong>Okay</strong></p>","null","neutral_feedback","0","test","16","","","","","","","",""
"","","","","","","","","","","","html-button-response","39","2.0.0","178015","669ecaf71fc12b3e8b8cd191","1","38","3170","","","","","","","","","<img src= ""rock_img/I_Gabbro_11.jpg"" style=""width:8cm; height:6.2cm;""><p>What type of rock is this?</p>","7","class_response","0","test","17","Pumice","Gabbro","11","false","8","4","",""
"","","","","","","","","","","","html-keyboard-response","40","2.0.0","178523","669ecaf71fc12b3e8b8cd191","1","38","null","","","","","","","","","<p style='font-size: 30px;'><strong>Okay</strong></p>","null","neutral_feedback","0","test","17","","","","","","","",""
"","","","","","","","","","","","html-button-response","41","2.0.0","180354","669ecaf71fc12b3e8b8cd191","1","38","1829","","","","","","","","","<img src= ""rock_img/I_Obsidian_16.jpg"" style=""width:8cm; height:9.3cm;""><p>What type of rock is this?</p>","4","class_response","0","test","18","Obsidian","Obsidian","16","true","5","5","",""
"","","","","","","","","","","","html-keyboard-response","42","2.0.0","180863","669ecaf71fc12b3e8b8cd191","1","38","null","","","","","","","","","<p style='font-size: 30px;'><strong>Okay</strong></p>","null","neutral_feedback","0","test","18","","","","","","","",""
"","","","","","","","","","","","html-button-response","43","2.0.0","183172","669ecaf71fc12b3e8b8cd191","1","38","2307","","","","","","","","","<img src= ""rock_img/I_Gabbro_01.jpg"" style=""width:8cm; height:5.21cm;""><p>What type of rock is this?</p>","7","class_response","0","test","19","Pumice","Gabbro","01","false","8","4","",""
"","","","","","","","","","","","html-keyboard-response","44","2.0.0","183681","669ecaf71fc12b3e8b8cd191","1","38","null","","","","","","","","","<p style='font-size: 30px;'><strong>Okay</strong></p>","null","neutral_feedback","0","test","19","","","","","","","",""
"","","","","","","","","","","","html-button-response","45","2.0.0","185342","669ecaf71fc12b3e8b8cd191","1","38","1659","","","","","","","","","<img src= ""rock_img/I_Pumice_15.jpg"" style=""width:8cm; height:7.86cm;""><p>What type of rock is this?</p>","2","class_response","0","test","20","Diorite","Pumice","15","false","3","8","",""
"","","","","","","","","","","","html-keyboard-response","46","2.0.0","185848","669ecaf71fc12b3e8b8cd191","1","38","null","","","","","","","","","<p style='font-size: 30px;'><strong>Okay</strong></p>","null","neutral_feedback","0","test","20","","","","","","","",""
"","","","","","","","","","","","html-button-response","47","2.0.0","187812","669ecaf71fc12b3e8b8cd191","1","38","1962","","","","","","","","","<img src= ""rock_img/I_Pumice_09.jpg"" style=""width:8cm; height:6.44cm;""><p>What type of rock is this?</p>","1","class_response","0","test","21","Basalt","Pumice","09","false","2","8","",""
"","","","","","","","","","","","html-keyboard-response","48","2.0.0","188321","669ecaf71fc12b3e8b8cd191","1","38","null","","","","","","","","","<p style='font-size: 30px;'><strong>Okay</strong></p>","null","neutral_feedback","0","test","21","","","","","","","",""
"","","","","","","","","","","","html-button-response","49","2.0.0","190693","669ecaf71fc12b3e8b8cd191","1","38","2370","","","","","","","","","<img src= ""rock_img/I_Pegmatite_07.jpg"" style=""width:8cm; height:6.7cm;""><p>What type of rock is this?</p>","0","class_response","0","test","22","Andesite","Pegmatite","07","false","1","6","",""
"","","","","","","","","","","","html-keyboard-response","50","2.0.0","191208","669ecaf71fc12b3e8b8cd191","1","38","null","","","","","","","","","<p style='font-size: 30px;'><strong>Okay</strong></p>","null","neutral_feedback","0","test","22","","","","","","","",""
"","","","","","","","","","","","html-button-response","51","2.0.0","192967","669ecaf71fc12b3e8b8cd191","1","38","1757","","","","","","","","","<img src= ""rock_img/I_Pumice_06.jpg"" style=""width:8cm; height:6.9399999999999995cm;""><p>What type of rock is this?</p>","3","class_response","0","test","23","Gabbro","Pumice","06","false","4","8","",""
"","","","","","","","","","","","html-keyboard-response","52","2.0.0","193482","669ecaf71fc12b3e8b8cd191","1","38","null","","","","","","","","","<p style='font-size: 30px;'><strong>Okay</strong></p>","null","neutral_feedback","0","test","23","","","","","","","",""
"","","","","","","","","","","","html-button-response","53","2.0.0","195715","669ecaf71fc12b3e8b8cd191","1","38","2231","","","","","","","","","<img src= ""rock_img/I_Gabbro_09.jpg"" style=""width:8cm; height:7.279999999999999cm;""><p>What type of rock is this?</p>","4","class_response","0","test","24","Obsidian","Gabbro","09","false","5","4","",""
"","","","","","","","","","","","html-keyboard-response","54","2.0.0","196226","669ecaf71fc12b3e8b8cd191","1","38","null","","","","","","","","","<p style='font-size: 30px;'><strong>Okay</strong></p>","null","neutral_feedback","0","test","24","","","","","","","",""
"","","","","","","","","","","","html-button-response","55","2.0.0","198453","669ecaf71fc12b3e8b8cd191","1","38","2225","","","","","","","","","<img src= ""rock_img/I_Pegmatite_10.jpg"" style=""width:8cm; height:4.16cm;""><p>What type of rock is this?</p>","6","class_response","0","test","25","Peridotite","Pegmatite","10","false","7","6","",""
"","","","","","","","","","","","html-keyboard-response","56","2.0.0","198957","669ecaf71fc12b3e8b8cd191","1","38","null","","","","","","","","","<p style='font-size: 30px;'><strong>Okay</strong></p>","null","neutral_feedback","0","test","25","","","","","","","",""
"","","","","","","","","","","","html-button-response","57","2.0.0","200950","669ecaf71fc12b3e8b8cd191","1","38","1991","","","","","","","","","<img src= ""rock_img/I_Pumice_13.jpg"" style=""width:8cm; height:8.200000000000001cm;""><p>What type of rock is this?</p>","2","class_response","0","test","26","Diorite","Pumice","13","false","3","8","",""
"","","","","","","","","","","","html-keyboard-response","58","2.0.0","201452","669ecaf71fc12b3e8b8cd191","1","38","null","","","","","","","","","<p style='font-size: 30px;'><strong>Okay</strong></p>","null","neutral_feedback","0","test","26","","","","","","","",""
"","","","","","","","","","","","html-button-response","59","2.0.0","206353","669ecaf71fc12b3e8b8cd191","1","38","4899","","","","","","","","","<img src= ""rock_img/I_Peridotite_04.jpg"" style=""width:8cm; height:6.680000000000001cm;""><p>What type of rock is this?</p>","1","class_response","0","test","27","Basalt","Peridotite","04","false","2","7","",""
"","","","","","","","","","","","html-keyboard-response","60","2.0.0","206859","669ecaf71fc12b3e8b8cd191","1","38","null","","","","","","","","","<p style='font-size: 30px;'><strong>Okay</strong></p>","null","neutral_feedback","0","test","27","","","","","","","",""
"","","","","","","","","","","","html-button-response","61","2.0.0","208784","669ecaf71fc12b3e8b8cd191","1","38","1923","","","","","","","","","<img src= ""rock_img/I_Pumice_04.jpg"" style=""width:8cm; height:6.819999999999999cm;""><p>What type of rock is this?</p>","3","class_response","0","test","28","Gabbro","Pumice","04","false","4","8","",""
"","","","","","","","","","","","html-keyboard-response","62","2.0.0","209298","669ecaf71fc12b3e8b8cd191","1","38","null","","","","","","","","","<p style='font-size: 30px;'><strong>Okay</strong></p>","null","neutral_feedback","0","test","28","","","","","","","",""
"","","","","","","","","","","","html-button-response","63","2.0.0","211897","669ecaf71fc12b3e8b8cd191","1","38","2597","","","","","","","","","<img src= ""rock_img/I_Obsidian_06.jpg"" style=""width:8cm; height:6.8cm;""><p>What type of rock is this?</p>","5","class_response","0","test","29","Pegmatite","Obsidian","06","false","6","5","",""
"","","","","","","","","","","","html-keyboard-response","64","2.0.0","212413","669ecaf71fc12b3e8b8cd191","1","38","null","","","","","","","","","<p style='font-size: 30px;'><strong>Okay</strong></p>","null","neutral_feedback","0","test","29","","","","","","","",""
"","","","","","","","","","","","html-button-response","65","2.0.0","218103","669ecaf71fc12b3e8b8cd191","1","38","5688","","","","","","","","","<img src= ""rock_img/I_Peridotite_06.jpg"" style=""width:8cm; height:7.53cm;""><p>What type of rock is this?</p>","6","class_response","0","test","30","Peridotite","Peridotite","06","true","7","7","",""
"","","","","","","","","","","","html-keyboard-response","66","2.0.0","218609","669ecaf71fc12b3e8b8cd191","1","38","null","","","","","","","","","<p style='font-size: 30px;'><strong>Okay</strong></p>","null","neutral_feedback","0","test","30","","","","","","","",""
"","","","","","","","","","","","html-button-response","67","2.0.0","220362","669ecaf71fc12b3e8b8cd191","1","38","1750","","","","","","","","","<img src= ""rock_img/I_Andesite_04.jpg"" style=""width:8cm; height:5.96cm;""><p>What type of rock is this?</p>","2","class_response","0","test","31","Diorite","Andesite","04","false","3","1","",""
"","","","","","","","","","","","html-keyboard-response","68","2.0.0","220870","669ecaf71fc12b3e8b8cd191","1","38","null","","","","","","","","","<p style='font-size: 30px;'><strong>Okay</strong></p>","null","neutral_feedback","0","test","31","","","","","","","",""
"","","","","","","","","","","","html-button-response","69","2.0.0","223395","669ecaf71fc12b3e8b8cd191","1","38","2523","","","","","","","","","<img src= ""rock_img/I_Andesite_07.jpg"" style=""width:8cm; height:5.93cm;""><p>What type of rock is this?</p>","1","class_response","0","test","32","Basalt","Andesite","07","false","2","1","",""
"","","","","","","","","","","","html-keyboard-response","70","2.0.0","223905","669ecaf71fc12b3e8b8cd191","1","38","null","","","","","","","","","<p style='font-size: 30px;'><strong>Okay</strong></p>","null","neutral_feedback","0","test","32","","","","","","","",""
"","","","","","","","","","","","html-button-response","71","2.0.0","226299","669ecaf71fc12b3e8b8cd191","1","38","2392","","","","","","","","","<img src= ""rock_img/I_Gabbro_12.jpg"" style=""width:8cm; height:7.800000000000001cm;""><p>What type of rock is this?</p>","5","class_response","0","test","33","Pegmatite","Gabbro","12","false","6","4","",""
"","","","","","","","","","","","html-keyboard-response","72","2.0.0","226805","669ecaf71fc12b3e8b8cd191","1","38","null","","","","","","","","","<p style='font-size: 30px;'><strong>Okay</strong></p>","null","neutral_feedback","0","test","33","","","","","","","",""
"","","","","","","","","","","","html-button-response","73","2.0.0","229140","669ecaf71fc12b3e8b8cd191","1","38","2333","","","","","","","","","<img src= ""rock_img/I_Diorite_06.jpg"" style=""width:8cm; height:6.03cm;""><p>What type of rock is this?</p>","3","class_response","0","test","34","Gabbro","Diorite","06","false","4","3","",""
"","","","","","","","","","","","html-keyboard-response","74","2.0.0","229654","669ecaf71fc12b3e8b8cd191","1","38","null","","","","","","","","","<p style='font-size: 30px;'><strong>Okay</strong></p>","null","neutral_feedback","0","test","34","","","","","","","",""
"","","","","","","","","","","","html-button-response","75","2.0.0","232449","669ecaf71fc12b3e8b8cd191","1","38","2793","","","","","","","","","<img src= ""rock_img/I_Diorite_09.jpg"" style=""width:8cm; height:5.27cm;""><p>What type of rock is this?</p>","0","class_response","0","test","35","Andesite","Diorite","09","false","1","3","",""
"","","","","","","","","","","","html-keyboard-response","76","2.0.0","232965","669ecaf71fc12b3e8b8cd191","1","38","null","","","","","","","","","<p style='font-size: 30px;'><strong>Okay</strong></p>","null","neutral_feedback","0","test","35","","","","","","","",""
"","","","","","","","","","","","html-button-response","77","2.0.0","235249","669ecaf71fc12b3e8b8cd191","1","38","2282","","","","","","","","","<img src= ""rock_img/I_Pegmatite_13.jpg"" style=""width:8cm; height:4.95cm;""><p>What type of rock is this?</p>","4","class_response","0","test","36","Obsidian","Pegmatite","13","false","5","6","",""
"","","","","","","","","","","","html-keyboard-response","78","2.0.0","235758","669ecaf71fc12b3e8b8cd191","1","38","null","","","","","","","","","<p style='font-size: 30px;'><strong>Okay</strong></p>","null","neutral_feedback","0","test","36","","","","","","","",""
"","","","","","","","","","","","html-button-response","79","2.0.0","237813","669ecaf71fc12b3e8b8cd191","1","38","2053","","","","","","","","","<img src= ""rock_img/I_Diorite_14.jpg"" style=""width:8cm; height:5.71cm;""><p>What type of rock is this?</p>","2","class_response","0","test","37","Diorite","Diorite","14","true","3","3","",""
"","","","","","","","","","","","html-keyboard-response","80","2.0.0","238317","669ecaf71fc12b3e8b8cd191","1","38","null","","","","","","","","","<p style='font-size: 30px;'><strong>Okay</strong></p>","null","neutral_feedback","0","test","37","","","","","","","",""
"","","","","","","","","","","","html-button-response","81","2.0.0","239933","669ecaf71fc12b3e8b8cd191","1","38","1613","","","","","","","","","<img src= ""rock_img/I_Obsidian_08.jpg"" style=""width:8cm; height:7.39cm;""><p>What type of rock is this?</p>","4","class_response","0","test","38","Obsidian","Obsidian","08","true","5","5","",""
"","","","","","","","","","","","html-keyboard-response","82","2.0.0","240436","669ecaf71fc12b3e8b8cd191","1","38","null","","","","","","","","","<p style='font-size: 30px;'><strong>Okay</strong></p>","null","neutral_feedback","0","test","38","","","","","","","",""
"","","","","","","","","","","","html-button-response","83","2.0.0","242788","669ecaf71fc12b3e8b8cd191","1","38","2350","","","","","","","","","<img src= ""rock_img/I_Pegmatite_08.jpg"" style=""width:8cm; height:7.68cm;""><p>What type of rock is this?</p>","5","class_response","0","test","39","Pegmatite","Pegmatite","08","true","6","6","",""
"","","","","","","","","","","","html-keyboard-response","84","2.0.0","243296","669ecaf71fc12b3e8b8cd191","1","38","null","","","","","","","","","<p style='font-size: 30px;'><strong>Okay</strong></p>","null","neutral_feedback","0","test","39","","","","","","","",""
"","","","","","","","","","","","html-button-response","85","2.0.0","244906","669ecaf71fc12b3e8b8cd191","1","38","1607","","","","","","","","","<img src= ""rock_img/I_Andesite_09.jpg"" style=""width:8cm; height:6cm;""><p>What type of rock is this?</p>","7","class_response","0","test","40","Pumice","Andesite","09","false","8","1","",""
"","","","","","","","","","","","html-keyboard-response","86","2.0.0","245420","669ecaf71fc12b3e8b8cd191","1","38","null","","","","","","","","","<p style='font-size: 30px;'><strong>Okay</strong></p>","null","neutral_feedback","0","test","40","","","","","","","",""
"","","","","","","","","","","","html-button-response","87","2.0.0","247405","669ecaf71fc12b3e8b8cd191","1","38","1982","","","","","","","","","<img src= ""rock_img/I_Diorite_02.jpg"" style=""width:8cm; height:6.27cm;""><p>What type of rock is this?</p>","6","class_response","0","test","41","Peridotite","Diorite","02","false","7","3","",""
"","","","","","","","","","","","html-keyboard-response","88","2.0.0","247920","669ecaf71fc12b3e8b8cd191","1","38","null","","","","","","","","","<p style='font-size: 30px;'><strong>Okay</strong></p>","null","neutral_feedback","0","test","41","","","","","","","",""
"","","","","","","","","","","","html-button-response","89","2.0.0","249583","669ecaf71fc12b3e8b8cd191","1","38","1661","","","","","","","","","<img src= ""rock_img/I_Peridotite_14.jpg"" style=""width:8cm; height:5.3cm;""><p>What type of rock is this?</p>","3","class_response","0","test","42","Gabbro","Peridotite","14","false","4","7","",""
"","","","","","","","","","","","html-keyboard-response","90","2.0.0","250090","669ecaf71fc12b3e8b8cd191","1","38","null","","","","","","","","","<p style='font-size: 30px;'><strong>Okay</strong></p>","null","neutral_feedback","0","test","42","","","","","","","",""
"","","","","","","","","","","","html-button-response","91","2.0.0","253127","669ecaf71fc12b3e8b8cd191","1","38","3035","","","","","","","","","<img src= ""rock_img/I_Andesite_11.jpg"" style=""width:8cm; height:4.92cm;""><p>What type of rock is this?</p>","2","class_response","0","test","43","Diorite","Andesite","11","false","3","1","",""
"","","","","","","","","","","","html-keyboard-response","92","2.0.0","253641","669ecaf71fc12b3e8b8cd191","1","38","null","","","","","","","","","<p style='font-size: 30px;'><strong>Okay</strong></p>","null","neutral_feedback","0","test","43","","","","","","","",""
"","","","","","","","","","","","html-button-response","93","2.0.0","255411","669ecaf71fc12b3e8b8cd191","1","38","1768","","","","","","","","","<img src= ""rock_img/I_Gabbro_05.jpg"" style=""width:8cm; height:6cm;""><p>What type of rock is this?</p>","5","class_response","0","test","44","Pegmatite","Gabbro","05","false","6","4","",""
"","","","","","","","","","","","html-keyboard-response","94","2.0.0","255916","669ecaf71fc12b3e8b8cd191","1","38","null","","","","","","","","","<p style='font-size: 30px;'><strong>Okay</strong></p>","null","neutral_feedback","0","test","44","","","","","","","",""
"","","","","","","","","","","","html-button-response","95","2.0.0","257099","669ecaf71fc12b3e8b8cd191","1","38","1181","","","","","","","","","<img src= ""rock_img/I_Obsidian_04.jpg"" style=""width:8cm; height:6.930000000000001cm;""><p>What type of rock is this?</p>","4","class_response","0","test","45","Obsidian","Obsidian","04","true","5","5","",""
"","","","","","","","","","","","html-keyboard-response","96","2.0.0","257616","669ecaf71fc12b3e8b8cd191","1","38","null","","","","","","","","","<p style='font-size: 30px;'><strong>Okay</strong></p>","null","neutral_feedback","0","test","45","","","","","","","",""
"","","","","","","","","","","","html-button-response","97","2.0.0","258845","669ecaf71fc12b3e8b8cd191","1","38","1228","","","","","","","","","<img src= ""rock_img/I_Obsidian_09.jpg"" style=""width:8cm; height:5cm;""><p>What type of rock is this?</p>","4","class_response","0","test","46","Obsidian","Obsidian","09","true","5","5","",""
"","","","","","","","","","","","html-keyboard-response","98","2.0.0","259360","669ecaf71fc12b3e8b8cd191","1","38","null","","","","","","","","","<p style='font-size: 30px;'><strong>Okay</strong></p>","null","neutral_feedback","0","test","46","","","","","","","",""
"","","","","","","","","","","","html-button-response","99","2.0.0","261918","669ecaf71fc12b3e8b8cd191","1","38","2556","","","","","","","","","<img src= ""rock_img/I_Pumice_10.jpg"" style=""width:8cm; height:7.609999999999999cm;""><p>What type of rock is this?</p>","2","class_response","0","test","47","Diorite","Pumice","10","false","3","8","",""
"","","","","","","","","","","","html-keyboard-response","100","2.0.0","262428","669ecaf71fc12b3e8b8cd191","1","38","null","","","","","","","","","<p style='font-size: 30px;'><strong>Okay</strong></p>","null","neutral_feedback","0","test","47","","","","","","","",""
"","","","","","","","","","","","html-button-response","101","2.0.0","264392","669ecaf71fc12b3e8b8cd191","1","38","1962","","","","","","","","","<img src= ""rock_img/I_Basalt_14.jpg"" style=""width:8cm; height:5.82cm;""><p>What type of rock is this?</p>","6","class_response","0","test","48","Peridotite","Basalt","14","false","7","2","",""
"","","","","","","","","","","","html-keyboard-response","102","2.0.0","264898","669ecaf71fc12b3e8b8cd191","1","38","null","","","","","","","","","<p style='font-size: 30px;'><strong>Okay</strong></p>","null","neutral_feedback","0","test","48","","","","","","","",""
"","","","","","","","","","","","instructions","103","2.0.0","288509","669ecaf71fc12b3e8b8cd191","1","38","23594","","","","","","","","[{""page_index"":0,""viewing_time"":11790},{""page_index"":1,""viewing_time"":6008},{""page_index"":2,""viewing_time"":5796}]","","","","","","","","","","","","","",""
"","","","","","","","","","","","html-button-response","104","2.0.0","293615","669ecaf71fc12b3e8b8cd191","1","38","5104","","","","","","","","","","0","start_train","","","","","","","","","","",""
"","","","","","","","","","","","html-button-response","105","2.0.0","298642","669ecaf71fc12b3e8b8cd191","1","38","5025","","","","","","","","","<img src= ""rock_img/I_Andesite_06.jpg"" style=""width:8cm; height:6.840000000000001cm;""><p>What type of rock is this?</p>","6","class_response","1","train","1","Peridotite","Andesite","06","false","7","1","",""
"","","","","","","","","","","","html-button-response","106","2.0.0","311258","669ecaf71fc12b3e8b8cd191","1","38","12614","","","","","","","","","<img src= rock_img/I_Andesite_06.jpg style=""width:8cm; height:6.840000000000001cm;""><p style='font-size: 30px; color: red;'><strong>Incorrect!</strong></p><p style='font-size: 30px;'><strong>This rock is andesite</strong></p>","0","corr_feedback","1","train","1","","","","","","","",""
"","","","","","","","","","","","html-button-response","107","2.0.0","313134","669ecaf71fc12b3e8b8cd191","1","38","1874","","","","","","","","","<img src= ""rock_img/I_Pumice_02.jpg"" style=""width:8cm; height:7.3999999999999995cm;""><p>What type of rock is this?</p>","2","class_response","1","train","2","Diorite","Pumice","02","false","3","8","",""
"","","","","","","","","","","","html-button-response","108","2.0.0","318671","669ecaf71fc12b3e8b8cd191","1","38","5536","","","","","","","","","<img src= rock_img/I_Pumice_02.jpg style=""width:8cm; height:7.3999999999999995cm;""><p style='font-size: 30px; color: red;'><strong>Incorrect!</strong></p><p style='font-size: 30px;'><strong>This rock is pumice</strong></p>","0","corr_feedback","1","train","2","","","","","","","",""
"","","","","","","","","","","","html-button-response","109","2.0.0","320885","669ecaf71fc12b3e8b8cd191","1","38","2212","","","","","","","","","<img src= ""rock_img/I_Basalt_01.jpg"" style=""width:8cm; height:7.880000000000001cm;""><p>What type of rock is this?</p>","3","class_response","1","train","3","Gabbro","Basalt","01","false","4","2","",""
"","","","","","","","","","","","html-button-response","110","2.0.0","325667","669ecaf71fc12b3e8b8cd191","1","38","4780","","","","","","","","","<img src= rock_img/I_Basalt_01.jpg style=""width:8cm; height:7.880000000000001cm;""><p style='font-size: 30px; color: red;'><strong>Incorrect!</strong></p><p style='font-size: 30px;'><strong>This rock is basalt</strong></p>","0","corr_feedback","1","train","3","","","","","","","",""
"","","","","","","","","","","","html-button-response","111","2.0.0","328241","669ecaf71fc12b3e8b8cd191","1","38","2572","","","","","","","","","<img src= ""rock_img/I_Pegmatite_05.jpg"" style=""width:8cm; height:7.300000000000001cm;""><p>What type of rock is this?</p>","5","class_response","1","train","4","Pegmatite","Pegmatite","05","true","6","6","",""
"","","","","","","","","","","","html-button-response","112","2.0.0","332322","669ecaf71fc12b3e8b8cd191","1","38","4080","","","","","","","","","<img src= rock_img/I_Pegmatite_05.jpg style=""width:8cm; height:7.300000000000001cm;""><p style='font-size: 30px; color: green;'><strong>Correct!</strong></p><p style='font-size: 30px;'><strong>This rock is pegmatite</strong></p>","0","corr_feedback","1","train","4","","","","","","","",""
"","","","","","","","","","","","html-button-response","113","2.0.0","335311","669ecaf71fc12b3e8b8cd191","1","38","2987","","","","","","","","","<img src= ""rock_img/I_Basalt_02.jpg"" style=""width:8cm; height:6.45cm;""><p>What type of rock is this?</p>","7","class_response","1","train","5","Pumice","Basalt","02","false","8","2","",""
"","","","","","","","","","","","html-button-response","114","2.0.0","338869","669ecaf71fc12b3e8b8cd191","1","38","3557","","","","","","","","","<img src= rock_img/I_Basalt_02.jpg style=""width:8cm; height:6.45cm;""><p style='font-size: 30px; color: red;'><strong>Incorrect!</strong></p><p style='font-size: 30px;'><strong>This rock is basalt</strong></p>","0","corr_feedback","1","train","5","","","","","","","",""
"","","","","","","","","","","","html-button-response","115","2.0.0","340649","669ecaf71fc12b3e8b8cd191","1","38","1777","","","","","","","","","<img src= ""rock_img/I_Obsidian_02.jpg"" style=""width:8cm; height:7.51cm;""><p>What type of rock is this?</p>","4","class_response","1","train","6","Obsidian","Obsidian","02","true","5","5","",""
"","","","","","","","","","","","html-button-response","116","2.0.0","343743","669ecaf71fc12b3e8b8cd191","1","38","3093","","","","","","","","","<img src= rock_img/I_Obsidian_02.jpg style=""width:8cm; height:7.51cm;""><p style='font-size: 30px; color: green;'><strong>Correct!</strong></p><p style='font-size: 30px;'><strong>This rock is obsidian</strong></p>","0","corr_feedback","1","train","6","","","","","","","",""
"","","","","","","","","","","","html-button-response","117","2.0.0","346954","669ecaf71fc12b3e8b8cd191","1","38","3209","","","","","","","","","<img src= ""rock_img/I_Pegmatite_11.jpg"" style=""width:8cm; height:8.14cm;""><p>What type of rock is this?</p>","4","class_response","1","train","7","Obsidian","Pegmatite","11","false","5","6","",""
"","","","","","","","","","","","html-button-response","118","2.0.0","350634","669ecaf71fc12b3e8b8cd191","1","38","3678","","","","","","","","","<img src= rock_img/I_Pegmatite_11.jpg style=""width:8cm; height:8.14cm;""><p style='font-size: 30px; color: red;'><strong>Incorrect!</strong></p><p style='font-size: 30px;'><strong>This rock is pegmatite</strong></p>","0","corr_feedback","1","train","7","","","","","","","",""
"","","","","","","","","","","","html-button-response","119","2.0.0","352864","669ecaf71fc12b3e8b8cd191","1","38","2229","","","","","","","","","<img src= ""rock_img/I_Pumice_16.jpg"" style=""width:8cm; height:6.79cm;""><p>What type of rock is this?</p>","3","class_response","1","train","8","Gabbro","Pumice","16","false","4","8","",""
"","","","","","","","","","","","html-button-response","120","2.0.0","356576","669ecaf71fc12b3e8b8cd191","1","38","3710","","","","","","","","","<img src= rock_img/I_Pumice_16.jpg style=""width:8cm; height:6.79cm;""><p style='font-size: 30px; color: red;'><strong>Incorrect!</strong></p><p style='font-size: 30px;'><strong>This rock is pumice</strong></p>","0","corr_feedback","1","train","8","","","","","","","",""
"","","","","","","","","","","","html-button-response","121","2.0.0","359371","669ecaf71fc12b3e8b8cd191","1","38","2793","","","","","","","","","<img src= ""rock_img/I_Pegmatite_16.jpg"" style=""width:8cm; height:5.8cm;""><p>What type of rock is this?</p>","0","class_response","1","train","9","Andesite","Pegmatite","16","false","1","6","",""
"","","","","","","","","","","","html-button-response","122","2.0.0","362944","669ecaf71fc12b3e8b8cd191","1","38","3571","","","","","","","","","<img src= rock_img/I_Pegmatite_16.jpg style=""width:8cm; height:5.8cm;""><p style='font-size: 30px; color: red;'><strong>Incorrect!</strong></p><p style='font-size: 30px;'><strong>This rock is pegmatite</strong></p>","0","corr_feedback","1","train","9","","","","","","","",""
"","","","","","","","","","","","html-button-response","123","2.0.0","364600","669ecaf71fc12b3e8b8cd191","1","38","1654","","","","","","","","","<img src= ""rock_img/I_Peridotite_05.jpg"" style=""width:8cm; height:7.1499999999999995cm;""><p>What type of rock is this?</p>","7","class_response","1","train","10","Pumice","Peridotite","05","false","8","7","",""
"","","","","","","","","","","","html-button-response","124","2.0.0","368117","669ecaf71fc12b3e8b8cd191","1","38","3515","","","","","","","","","<img src= rock_img/I_Peridotite_05.jpg style=""width:8cm; height:7.1499999999999995cm;""><p style='font-size: 30px; color: red;'><strong>Incorrect!</strong></p><p style='font-size: 30px;'><strong>This rock is peridotite</strong></p>","0","corr_feedback","1","train","10","","","","","","","",""
"","","","","","","","","","","","html-button-response","125","2.0.0","369978","669ecaf71fc12b3e8b8cd191","1","38","1859","","","","","","","","","<img src= ""rock_img/I_Andesite_16.jpg"" style=""width:8cm; height:6.010000000000001cm;""><p>What type of rock is this?</p>","6","class_response","1","train","11","Peridotite","Andesite","16","false","7","1","",""
"","","","","","","","","","","","html-button-response","126","2.0.0","373353","669ecaf71fc12b3e8b8cd191","1","38","3374","","","","","","","","","<img src= rock_img/I_Andesite_16.jpg style=""width:8cm; height:6.010000000000001cm;""><p style='font-size: 30px; color: red;'><strong>Incorrect!</strong></p><p style='font-size: 30px;'><strong>This rock is andesite</strong></p>","0","corr_feedback","1","train","11","","","","","","","",""
"","","","","","","","","","","","html-button-response","127","2.0.0","375129","669ecaf71fc12b3e8b8cd191","1","38","1774","","","","","","","","","<img src= ""rock_img/I_Andesite_03.jpg"" style=""width:8cm; height:5.73cm;""><p>What type of rock is this?</p>","6","class_response","1","train","12","Peridotite","Andesite","03","false","7","1","",""
"","","","","","","","","","","","html-button-response","128","2.0.0","378163","669ecaf71fc12b3e8b8cd191","1","38","3032","","","","","","","","","<img src= rock_img/I_Andesite_03.jpg style=""width:8cm; height:5.73cm;""><p style='font-size: 30px; color: red;'><strong>Incorrect!</strong></p><p style='font-size: 30px;'><strong>This rock is andesite</strong></p>","0","corr_feedback","1","train","12","","","","","","","",""
"","","","","","","","","","","","html-button-response","129","2.0.0","380383","669ecaf71fc12b3e8b8cd191","1","38","2219","","","","","","","","","<img src= ""rock_img/I_Diorite_11.jpg"" style=""width:8cm; height:7.11cm;""><p>What type of rock is this?</p>","7","class_response","1","train","13","Pumice","Diorite","11","false","8","3","",""
"","","","","","","","","","","","html-button-response","130","2.0.0","383854","669ecaf71fc12b3e8b8cd191","1","38","3469","","","","","","","","","<img src= rock_img/I_Diorite_11.jpg style=""width:8cm; height:7.11cm;""><p style='font-size: 30px; color: red;'><strong>Incorrect!</strong></p><p style='font-size: 30px;'><strong>This rock is diorite</strong></p>","0","corr_feedback","1","train","13","","","","","","","",""
"","","","","","","","","","","","html-button-response","131","2.0.0","388501","669ecaf71fc12b3e8b8cd191","1","38","4645","","","","","","","","","<img src= ""rock_img/I_Peridotite_12.jpg"" style=""width:8cm; height:4.54cm;""><p>What type of rock is this?</p>","1","class_response","1","train","14","Basalt","Peridotite","12","false","2","7","",""
"","","","","","","","","","","","html-button-response","132","2.0.0","391551","669ecaf71fc12b3e8b8cd191","1","38","3048","","","","","","","","","<img src= rock_img/I_Peridotite_12.jpg style=""width:8cm; height:4.54cm;""><p style='font-size: 30px; color: red;'><strong>Incorrect!</strong></p><p style='font-size: 30px;'><strong>This rock is peridotite</strong></p>","0","corr_feedback","1","train","14","","","","","","","",""
"","","","","","","","","","","","html-button-response","133","2.0.0","405419","669ecaf71fc12b3e8b8cd191","1","38","13866","","","","","","","","","<img src= ""rock_img/I_Andesite_05.jpg"" style=""width:8cm; height:4.12cm;""><p>What type of rock is this?</p>","6","class_response","1","train","15","Peridotite","Andesite","05","false","7","1","",""
"","","","","","","","","","","","html-button-response","134","2.0.0","406441","669ecaf71fc12b3e8b8cd191","1","38","1020","","","","","","","","","<img src= rock_img/I_Andesite_05.jpg style=""width:8cm; height:4.12cm;""><p style='font-size: 30px; color: red;'><strong>Incorrect!</strong></p><p style='font-size: 30px;'><strong>This rock is andesite</strong></p>","0","corr_feedback","1","train","15","","","","","","","",""
"","","","","","","","","","","","html-button-response","135","2.0.0","408777","669ecaf71fc12b3e8b8cd191","1","38","2334","","","","","","","","","<img src= ""rock_img/I_Peridotite_13.jpg"" style=""width:8cm; height:7.58cm;""><p>What type of rock is this?</p>","2","class_response","1","train","16","Diorite","Peridotite","13","false","3","7","",""
"","","","","","","","","","","","html-button-response","136","2.0.0","409884","669ecaf71fc12b3e8b8cd191","1","38","1105","","","","","","","","","<img src= rock_img/I_Peridotite_13.jpg style=""width:8cm; height:7.58cm;""><p style='font-size: 30px; color: red;'><strong>Incorrect!</strong></p><p style='font-size: 30px;'><strong>This rock is peridotite</strong></p>","0","corr_feedback","1","train","16","","","","","","","",""
"","","","","","","","","","","","html-button-response","137","2.0.0","411962","669ecaf71fc12b3e8b8cd191","1","38","2076","","","","","","","","","<img src= ""rock_img/I_Diorite_08.jpg"" style=""width:8cm; height:6.37cm;""><p>What type of rock is this?</p>","6","class_response","1","train","17","Peridotite","Diorite","08","false","7","3","",""
"","","","","","","","","","","","html-button-response","138","2.0.0","412958","669ecaf71fc12b3e8b8cd191","1","38","994","","","","","","","","","<img src= rock_img/I_Diorite_08.jpg style=""width:8cm; height:6.37cm;""><p style='font-size: 30px; color: red;'><strong>Incorrect!</strong></p><p style='font-size: 30px;'><strong>This rock is diorite</strong></p>","0","corr_feedback","1","train","17","","","","","","","",""
"","","","","","","","","","","","html-button-response","139","2.0.0","415090","669ecaf71fc12b3e8b8cd191","1","38","2130","","","","","","","","","<img src= ""rock_img/I_Andesite_01.jpg"" style=""width:8cm; height:5.87cm;""><p>What type of rock is this?</p>","1","class_response","1","train","18","Basalt","Andesite","01","false","2","1","",""
"","","","","","","","","","","","html-button-response","140","2.0.0","416140","669ecaf71fc12b3e8b8cd191","1","38","1048","","","","","","","","","<img src= rock_img/I_Andesite_01.jpg style=""width:8cm; height:5.87cm;""><p style='font-size: 30px; color: red;'><strong>Incorrect!</strong></p><p style='font-size: 30px;'><strong>This rock is andesite</strong></p>","0","corr_feedback","1","train","18","","","","","","","",""
"","","","","","","","","","","","html-button-response","141","2.0.0","417885","669ecaf71fc12b3e8b8cd191","1","38","1743","","","","","","","","","<img src= ""rock_img/I_Diorite_15.jpg"" style=""width:8cm; height:5.54cm;""><p>What type of rock is this?</p>","2","class_response","1","train","19","Diorite","Diorite","15","true","3","3","",""
"","","","","","","","","","","","html-button-response","142","2.0.0","419064","669ecaf71fc12b3e8b8cd191","1","38","1177","","","","","","","","","<img src= rock_img/I_Diorite_15.jpg style=""width:8cm; height:5.54cm;""><p style='font-size: 30px; color: green;'><strong>Correct!</strong></p><p style='font-size: 30px;'><strong>This rock is diorite</strong></p>","0","corr_feedback","1","train","19","","","","","","","",""
"","","","","","","","","","","","html-button-response","143","2.0.0","420931","669ecaf71fc12b3e8b8cd191","1","38","1865","","","","","","","","","<img src= ""rock_img/I_Basalt_10.jpg"" style=""width:8cm; height:5.85cm;""><p>What type of rock is this?</p>","4","class_response","1","train","20","Obsidian","Basalt","10","false","5","2","",""
"","","","","","","","","","","","html-button-response","144","2.0.0","421870","669ecaf71fc12b3e8b8cd191","1","38","938","","","","","","","","","<img src= rock_img/I_Basalt_10.jpg style=""width:8cm; height:5.85cm;""><p style='font-size: 30px; color: red;'><strong>Incorrect!</strong></p><p style='font-size: 30px;'><strong>This rock is basalt</strong></p>","0","corr_feedback","1","train","20","","","","","","","",""
"","","","","","","","","","","","html-button-response","145","2.0.0","423176","669ecaf71fc12b3e8b8cd191","1","38","1304","","","","","","","","","<img src= ""rock_img/I_Pumice_14.jpg"" style=""width:8cm; height:6.39cm;""><p>What type of rock is this?</p>","7","class_response","1","train","21","Pumice","Pumice","14","true","8","8","",""
"","","","","","","","","","","","html-button-response","146","2.0.0","424103","669ecaf71fc12b3e8b8cd191","1","38","925","","","","","","","","","<img src= rock_img/I_Pumice_14.jpg style=""width:8cm; height:6.39cm;""><p style='font-size: 30px; color: green;'><strong>Correct!</strong></p><p style='font-size: 30px;'><strong>This rock is pumice</strong></p>","0","corr_feedback","1","train","21","","","","","","","",""
"","","","","","","","","","","","html-button-response","147","2.0.0","426822","669ecaf71fc12b3e8b8cd191","1","38","2717","","","","","","","","","<img src= ""rock_img/I_Peridotite_08.jpg"" style=""width:8cm; height:6.7cm;""><p>What type of rock is this?</p>","2","class_response","1","train","22","Diorite","Peridotite","08","false","3","7","",""
"","","","","","","","","","","","html-button-response","148","2.0.0","427848","669ecaf71fc12b3e8b8cd191","1","38","1024","","","","","","","","","<img src= rock_img/I_Peridotite_08.jpg style=""width:8cm; height:6.7cm;""><p style='font-size: 30px; color: red;'><strong>Incorrect!</strong></p><p style='font-size: 30px;'><strong>This rock is peridotite</strong></p>","0","corr_feedback","1","train","22","","","","","","","",""
"","","","","","","","","","","","html-button-response","149","2.0.0","429476","669ecaf71fc12b3e8b8cd191","1","38","1627","","","","","","","","","<img src= ""rock_img/I_Peridotite_15.jpg"" style=""width:8cm; height:6cm;""><p>What type of rock is this?</p>","2","class_response","1","train","23","Diorite","Peridotite","15","false","3","7","",""
"","","","","","","","","","","","html-button-response","150","2.0.0","430272","669ecaf71fc12b3e8b8cd191","1","38","795","","","","","","","","","<img src= rock_img/I_Peridotite_15.jpg style=""width:8cm; height:6cm;""><p style='font-size: 30px; color: red;'><strong>Incorrect!</strong></p><p style='font-size: 30px;'><strong>This rock is peridotite</strong></p>","0","corr_feedback","1","train","23","","","","","","","",""
"","","","","","","","","","","","html-button-response","151","2.0.0","431632","669ecaf71fc12b3e8b8cd191","1","38","1358","","","","","","","","","<img src= ""rock_img/I_Gabbro_16.jpg"" style=""width:8cm; height:6.44cm;""><p>What type of rock is this?</p>","6","class_response","1","train","24","Peridotite","Gabbro","16","false","7","4","",""
"","","","","","","","","","","","html-button-response","152","2.0.0","432539","669ecaf71fc12b3e8b8cd191","1","38","905","","","","","","","","","<img src= rock_img/I_Gabbro_16.jpg style=""width:8cm; height:6.44cm;""><p style='font-size: 30px; color: red;'><strong>Incorrect!</strong></p><p style='font-size: 30px;'><strong>This rock is gabbro</strong></p>","0","corr_feedback","1","train","24","","","","","","","",""
"","","","","","","","","","","","html-button-response","153","2.0.0","434906","669ecaf71fc12b3e8b8cd191","1","38","2366","","","","","","","","","<img src= ""rock_img/I_Gabbro_10.jpg"" style=""width:8cm; height:5.680000000000001cm;""><p>What type of rock is this?</p>","2","class_response","1","train","25","Diorite","Gabbro","10","false","3","4","",""
"","","","","","","","","","","","html-button-response","154","2.0.0","435731","669ecaf71fc12b3e8b8cd191","1","38","824","","","","","","","","","<img src= rock_img/I_Gabbro_10.jpg style=""width:8cm; height:5.680000000000001cm;""><p style='font-size: 30px; color: red;'><strong>Incorrect!</strong></p><p style='font-size: 30px;'><strong>This rock is gabbro</strong></p>","0","corr_feedback","1","train","25","","","","","","","",""
"","","","","","","","","","","","html-button-response","155","2.0.0","437607","669ecaf71fc12b3e8b8cd191","1","38","1874","","","","","","","","","<img src= ""rock_img/I_Diorite_12.jpg"" style=""width:8cm; height:4.88cm;""><p>What type of rock is this?</p>","6","class_response","1","train","26","Peridotite","Diorite","12","false","7","3","",""
"","","","","","","","","","","","html-button-response","156","2.0.0","438593","669ecaf71fc12b3e8b8cd191","1","38","985","","","","","","","","","<img src= rock_img/I_Diorite_12.jpg style=""width:8cm; height:4.88cm;""><p style='font-size: 30px; color: red;'><strong>Incorrect!</strong></p><p style='font-size: 30px;'><strong>This rock is diorite</strong></p>","0","corr_feedback","1","train","26","","","","","","","",""
"","","","","","","","","","","","html-button-response","157","2.0.0","440521","669ecaf71fc12b3e8b8cd191","1","38","1926","","","","","","","","","<img src= ""rock_img/I_Basalt_04.jpg"" style=""width:8cm; height:7.53cm;""><p>What type of rock is this?</p>","1","class_response","1","train","27","Basalt","Basalt","04","true","2","2","",""
"","","","","","","","","","","","html-button-response","158","2.0.0","441419","669ecaf71fc12b3e8b8cd191","1","38","897","","","","","","","","","<img src= rock_img/I_Basalt_04.jpg style=""width:8cm; height:7.53cm;""><p style='font-size: 30px; color: green;'><strong>Correct!</strong></p><p style='font-size: 30px;'><strong>This rock is basalt</strong></p>","0","corr_feedback","1","train","27","","","","","","","",""
"","","","","","","","","","","","html-button-response","159","2.0.0","442796","669ecaf71fc12b3e8b8cd191","1","38","1375","","","","","","","","","<img src= ""rock_img/I_Obsidian_12.jpg"" style=""width:8cm; height:6.53cm;""><p>What type of rock is this?</p>","4","class_response","1","train","28","Obsidian","Obsidian","12","true","5","5","",""
"","","","","","","","","","","","html-button-response","160","2.0.0","443486","669ecaf71fc12b3e8b8cd191","1","38","688","","","","","","","","","<img src= rock_img/I_Obsidian_12.jpg style=""width:8cm; height:6.53cm;""><p style='font-size: 30px; color: green;'><strong>Correct!</strong></p><p style='font-size: 30px;'><strong>This rock is obsidian</strong></p>","0","corr_feedback","1","train","28","","","","","","","",""
"","","","","","","","","","","","html-button-response","161","2.0.0","447044","669ecaf71fc12b3e8b8cd191","1","38","3556","","","","","","","","","<img src= ""rock_img/I_Obsidian_07.jpg"" style=""width:8cm; height:4.76cm;""><p>What type of rock is this?</p>","3","class_response","1","train","29","Gabbro","Obsidian","07","false","4","5","",""
"","","","","","","","","","","","html-button-response","162","2.0.0","448274","669ecaf71fc12b3e8b8cd191","1","38","1228","","","","","","","","","<img src= rock_img/I_Obsidian_07.jpg style=""width:8cm; height:4.76cm;""><p style='font-size: 30px; color: red;'><strong>Incorrect!</strong></p><p style='font-size: 30px;'><strong>This rock is obsidian</strong></p>","0","corr_feedback","1","train","29","","","","","","","",""
"","","","","","","","","","","","html-button-response","163","2.0.0","449585","669ecaf71fc12b3e8b8cd191","1","38","1309","","","","","","","","","<img src= ""rock_img/I_Obsidian_05.jpg"" style=""width:8cm; height:6.33cm;""><p>What type of rock is this?</p>","4","class_response","1","train","30","Obsidian","Obsidian","05","true","5","5","",""
"","","","","","","","","","","","html-button-response","164","2.0.0","450546","669ecaf71fc12b3e8b8cd191","1","38","959","","","","","","","","","<img src= rock_img/I_Obsidian_05.jpg style=""width:8cm; height:6.33cm;""><p style='font-size: 30px; color: green;'><strong>Correct!</strong></p><p style='font-size: 30px;'><strong>This rock is obsidian</strong></p>","0","corr_feedback","1","train","30","","","","","","","",""
"","","","","","","","","","","","html-button-response","165","2.0.0","452092","669ecaf71fc12b3e8b8cd191","1","38","1544","","","","","","","","","<img src= ""rock_img/I_Gabbro_08.jpg"" style=""width:8cm; height:5.15cm;""><p>What type of rock is this?</p>","6","class_response","1","train","31","Peridotite","Gabbro","08","false","7","4","",""
"","","","","","","","","","","","html-button-response","166","2.0.0","452980","669ecaf71fc12b3e8b8cd191","1","38","887","","","","","","","","","<img src= rock_img/I_Gabbro_08.jpg style=""width:8cm; height:5.15cm;""><p style='font-size: 30px; color: red;'><strong>Incorrect!</strong></p><p style='font-size: 30px;'><strong>This rock is gabbro</strong></p>","0","corr_feedback","1","train","31","","","","","","","",""
"","","","","","","","","","","","html-button-response","167","2.0.0","454412","669ecaf71fc12b3e8b8cd191","1","38","1431","","","","","","","","","<img src= ""rock_img/I_Basalt_16.jpg"" style=""width:8cm; height:7.659999999999999cm;""><p>What type of rock is this?</p>","2","class_response","1","train","32","Diorite","Basalt","16","false","3","2","",""
"","","","","","","","","","","","html-button-response","168","2.0.0","455266","669ecaf71fc12b3e8b8cd191","1","38","852","","","","","","","","","<img src= rock_img/I_Basalt_16.jpg style=""width:8cm; height:7.659999999999999cm;""><p style='font-size: 30px; color: red;'><strong>Incorrect!</strong></p><p style='font-size: 30px;'><strong>This rock is basalt</strong></p>","0","corr_feedback","1","train","32","","","","","","","",""
"","","","","","","","","","","","html-button-response","169","2.0.0","456595","669ecaf71fc12b3e8b8cd191","1","38","1327","","","","","","","","","<img src= ""rock_img/I_Gabbro_15.jpg"" style=""width:8cm; height:6.29cm;""><p>What type of rock is this?</p>","2","class_response","1","train","33","Diorite","Gabbro","15","false","3","4","",""
"","","","","","","","","","","","html-button-response","170","2.0.0","457450","669ecaf71fc12b3e8b8cd191","1","38","853","","","","","","","","","<img src= rock_img/I_Gabbro_15.jpg style=""width:8cm; height:6.29cm;""><p style='font-size: 30px; color: red;'><strong>Incorrect!</strong></p><p style='font-size: 30px;'><strong>This rock is gabbro</strong></p>","0","corr_feedback","1","train","33","","","","","","","",""
"","","","","","","","","","","","html-button-response","171","2.0.0","458729","669ecaf71fc12b3e8b8cd191","1","38","1276","","","","","","","","","<img src= ""rock_img/I_Pegmatite_15.jpg"" style=""width:8cm; height:6cm;""><p>What type of rock is this?</p>","2","class_response","1","train","34","Diorite","Pegmatite","15","false","3","6","",""
"","","","","","","","","","","","html-button-response","172","2.0.0","459633","669ecaf71fc12b3e8b8cd191","1","38","903","","","","","","","","","<img src= rock_img/I_Pegmatite_15.jpg style=""width:8cm; height:6cm;""><p style='font-size: 30px; color: red;'><strong>Incorrect!</strong></p><p style='font-size: 30px;'><strong>This rock is pegmatite</strong></p>","0","corr_feedback","1","train","34","","","","","","","",""
"","","","","","","","","","","","html-button-response","173","2.0.0","460873","669ecaf71fc12b3e8b8cd191","1","38","1238","","","","","","","","","<img src= ""rock_img/I_Obsidian_11.jpg"" style=""width:8cm; height:6.05cm;""><p>What type of rock is this?</p>","4","class_response","1","train","35","Obsidian","Obsidian","11","true","5","5","",""
"","","","","","","","","","","","html-button-response","174","2.0.0","461609","669ecaf71fc12b3e8b8cd191","1","38","734","","","","","","","","","<img src= rock_img/I_Obsidian_11.jpg style=""width:8cm; height:6.05cm;""><p style='font-size: 30px; color: green;'><strong>Correct!</strong></p><p style='font-size: 30px;'><strong>This rock is obsidian</strong></p>","0","corr_feedback","1","train","35","","","","","","","",""
"","","","","","","","","","","","html-button-response","175","2.0.0","463377","669ecaf71fc12b3e8b8cd191","1","38","1766","","","","","","","","","<img src= ""rock_img/I_Pumice_08.jpg"" style=""width:8cm; height:6.67cm;""><p>What type of rock is this?</p>","7","class_response","1","train","36","Pumice","Pumice","08","true","8","8","",""
"","","","","","","","","","","","html-button-response","176","2.0.0","464251","669ecaf71fc12b3e8b8cd191","1","38","872","","","","","","","","","<img src= rock_img/I_Pumice_08.jpg style=""width:8cm; height:6.67cm;""><p style='font-size: 30px; color: green;'><strong>Correct!</strong></p><p style='font-size: 30px;'><strong>This rock is pumice</strong></p>","0","corr_feedback","1","train","36","","","","","","","",""
"","","","","","","","","","","","html-button-response","177","2.0.0","466837","669ecaf71fc12b3e8b8cd191","1","38","2585","","","","","","","","","<img src= ""rock_img/I_Pegmatite_12.jpg"" style=""width:8cm; height:5.7cm;""><p>What type of rock is this?</p>","2","class_response","1","train","37","Diorite","Pegmatite","12","false","3","6","",""
"","","","","","","","","","","","html-button-response","178","2.0.0","467833","669ecaf71fc12b3e8b8cd191","1","38","994","","","","","","","","","<img src= rock_img/I_Pegmatite_12.jpg style=""width:8cm; height:5.7cm;""><p style='font-size: 30px; color: red;'><strong>Incorrect!</strong></p><p style='font-size: 30px;'><strong>This rock is pegmatite</strong></p>","0","corr_feedback","1","train","37","","","","","","","",""
"","","","","","","","","","","","html-button-response","179","2.0.0","469348","669ecaf71fc12b3e8b8cd191","1","38","1513","","","","","","","","","<img src= ""rock_img/I_Gabbro_03.jpg"" style=""width:8cm; height:8.52cm;""><p>What type of rock is this?</p>","6","class_response","1","train","38","Peridotite","Gabbro","03","false","7","4","",""
"","","","","","","","","","","","html-button-response","180","2.0.0","470271","669ecaf71fc12b3e8b8cd191","1","38","922","","","","","","","","","<img src= rock_img/I_Gabbro_03.jpg style=""width:8cm; height:8.52cm;""><p style='font-size: 30px; color: red;'><strong>Incorrect!</strong></p><p style='font-size: 30px;'><strong>This rock is gabbro</strong></p>","0","corr_feedback","1","train","38","","","","","","","",""
"","","","","","","","","","","","html-button-response","181","2.0.0","471718","669ecaf71fc12b3e8b8cd191","1","38","1445","","","","","","","","","<img src= ""rock_img/I_Peridotite_07.jpg"" style=""width:8cm; height:4.83cm;""><p>What type of rock is this?</p>","2","class_response","1","train","39","Diorite","Peridotite","07","false","3","7","",""
"","","","","","","","","","","","html-button-response","182","2.0.0","472629","669ecaf71fc12b3e8b8cd191","1","38","910","","","","","","","","","<img src= rock_img/I_Peridotite_07.jpg style=""width:8cm; height:4.83cm;""><p style='font-size: 30px; color: red;'><strong>Incorrect!</strong></p><p style='font-size: 30px;'><strong>This rock is peridotite</strong></p>","0","corr_feedback","1","train","39","","","","","","","",""
"","","","","","","","","","","","html-button-response","183","2.0.0","473867","669ecaf71fc12b3e8b8cd191","1","38","1236","","","","","","","","","<img src= ""rock_img/I_Andesite_02.jpg"" style=""width:8cm; height:8.5cm;""><p>What type of rock is this?</p>","6","class_response","1","train","40","Peridotite","Andesite","02","false","7","1","",""
"","","","","","","","","","","","html-button-response","184","2.0.0","474669","669ecaf71fc12b3e8b8cd191","1","38","800","","","","","","","","","<img src= rock_img/I_Andesite_02.jpg style=""width:8cm; height:8.5cm;""><p style='font-size: 30px; color: red;'><strong>Incorrect!</strong></p><p style='font-size: 30px;'><strong>This rock is andesite</strong></p>","0","corr_feedback","1","train","40","","","","","","","",""
"","","","","","","","","","","","html-button-response","185","2.0.0","476669","669ecaf71fc12b3e8b8cd191","1","38","1998","","","","","","","","","<img src= ""rock_img/I_Pumice_03.jpg"" style=""width:8cm; height:6.64cm;""><p>What type of rock is this?</p>","7","class_response","1","train","41","Pumice","Pumice","03","true","8","8","",""
"","","","","","","","","","","","html-button-response","186","2.0.0","477474","669ecaf71fc12b3e8b8cd191","1","38","804","","","","","","","","","<img src= rock_img/I_Pumice_03.jpg style=""width:8cm; height:6.64cm;""><p style='font-size: 30px; color: green;'><strong>Correct!</strong></p><p style='font-size: 30px;'><strong>This rock is pumice</strong></p>","0","corr_feedback","1","train","41","","","","","","","",""
"","","","","","","","","","","","html-button-response","187","2.0.0","478959","669ecaf71fc12b3e8b8cd191","1","38","1483","","","","","","","","","<img src= ""rock_img/I_Diorite_07.jpg"" style=""width:8cm; height:5.239999999999999cm;""><p>What type of rock is this?</p>","2","class_response","1","train","42","Diorite","Diorite","07","true","3","3","",""
"","","","","","","","","","","","html-button-response","188","2.0.0","479945","669ecaf71fc12b3e8b8cd191","1","38","984","","","","","","","","","<img src= rock_img/I_Diorite_07.jpg style=""width:8cm; height:5.239999999999999cm;""><p style='font-size: 30px; color: green;'><strong>Correct!</strong></p><p style='font-size: 30px;'><strong>This rock is diorite</strong></p>","0","corr_feedback","1","train","42","","","","","","","",""
"","","","","","","","","","","","html-button-response","189","2.0.0","481617","669ecaf71fc12b3e8b8cd191","1","38","1670","","","","","","","","","<img src= ""rock_img/I_Pumice_05.jpg"" style=""width:8cm; height:7.25cm;""><p>What type of rock is this?</p>","7","class_response","1","train","43","Pumice","Pumice","05","true","8","8","",""
"","","","","","","","","","","","html-button-response","190","2.0.0","482360","669ecaf71fc12b3e8b8cd191","1","38","741","","","","","","","","","<img src= rock_img/I_Pumice_05.jpg style=""width:8cm; height:7.25cm;""><p style='font-size: 30px; color: green;'><strong>Correct!</strong></p><p style='font-size: 30px;'><strong>This rock is pumice</strong></p>","0","corr_feedback","1","train","43","","","","","","","",""
"","","","","","","","","","","","html-button-response","191","2.0.0","487896","669ecaf71fc12b3e8b8cd191","1","38","5534","","","","","","","","","<img src= ""rock_img/I_Basalt_09.jpg"" style=""width:8cm; height:6.2cm;""><p>What type of rock is this?</p>","1","class_response","1","train","44","Basalt","Basalt","09","true","2","2","",""
"","","","","","","","","","","","html-button-response","192","2.0.0","488652","669ecaf71fc12b3e8b8cd191","1","38","755","","","","","","","","","<img src= rock_img/I_Basalt_09.jpg style=""width:8cm; height:6.2cm;""><p style='font-size: 30px; color: green;'><strong>Correct!</strong></p><p style='font-size: 30px;'><strong>This rock is basalt</strong></p>","0","corr_feedback","1","train","44","","","","","","","",""
"","","","","","","","","","","","html-button-response","193","2.0.0","490815","669ecaf71fc12b3e8b8cd191","1","38","2161","","","","","","","","","<img src= ""rock_img/I_Diorite_16.jpg"" style=""width:8cm; height:6.74cm;""><p>What type of rock is this?</p>","6","class_response","1","train","45","Peridotite","Diorite","16","false","7","3","",""
"","","","","","","","","","","","html-button-response","194","2.0.0","491674","669ecaf71fc12b3e8b8cd191","1","38","857","","","","","","","","","<img src= rock_img/I_Diorite_16.jpg style=""width:8cm; height:6.74cm;""><p style='font-size: 30px; color: red;'><strong>Incorrect!</strong></p><p style='font-size: 30px;'><strong>This rock is diorite</strong></p>","0","corr_feedback","1","train","45","","","","","","","",""
"","","","","","","","","","","","html-button-response","195","2.0.0","493096","669ecaf71fc12b3e8b8cd191","1","38","1420","","","","","","","","","<img src= ""rock_img/I_Obsidian_10.jpg"" style=""width:8cm; height:6.260000000000001cm;""><p>What type of rock is this?</p>","4","class_response","1","train","46","Obsidian","Obsidian","10","true","5","5","",""
"","","","","","","","","","","","html-button-response","196","2.0.0","493827","669ecaf71fc12b3e8b8cd191","1","38","729","","","","","","","","","<img src= rock_img/I_Obsidian_10.jpg style=""width:8cm; height:6.260000000000001cm;""><p style='font-size: 30px; color: green;'><strong>Correct!</strong></p><p style='font-size: 30px;'><strong>This rock is obsidian</strong></p>","0","corr_feedback","1","train","46","","","","","","","",""
"","","","","","","","","","","","html-button-response","197","2.0.0","495812","669ecaf71fc12b3e8b8cd191","1","38","1983","","","","","","","","","<img src= ""rock_img/I_Pegmatite_09.jpg"" style=""width:8cm; height:4.03cm;""><p>What type of rock is this?</p>","6","class_response","1","train","47","Peridotite","Pegmatite","09","false","7","6","",""
"","","","","","","","","","","","html-button-response","198","2.0.0","496630","669ecaf71fc12b3e8b8cd191","1","38","816","","","","","","","","","<img src= rock_img/I_Pegmatite_09.jpg style=""width:8cm; height:4.03cm;""><p style='font-size: 30px; color: red;'><strong>Incorrect!</strong></p><p style='font-size: 30px;'><strong>This rock is pegmatite</strong></p>","0","corr_feedback","1","train","47","","","","","","","",""
"","","","","","","","","","","","html-button-response","199","2.0.0","498284","669ecaf71fc12b3e8b8cd191","1","38","1652","","","","","","","","","<img src= ""rock_img/I_Gabbro_13.jpg"" style=""width:8cm; height:5.08cm;""><p>What type of rock is this?</p>","6","class_response","1","train","48","Peridotite","Gabbro","13","false","7","4","",""
"","","","","","","","","","","","html-button-response","200","2.0.0","499060","669ecaf71fc12b3e8b8cd191","1","38","774","","","","","","","","","<img src= rock_img/I_Gabbro_13.jpg style=""width:8cm; height:5.08cm;""><p style='font-size: 30px; color: red;'><strong>Incorrect!</strong></p><p style='font-size: 30px;'><strong>This rock is gabbro</strong></p>","0","corr_feedback","1","train","48","","","","","","","",""
"","","","","","","","","","","","instructions","203","2.0.0","581600","669ecaf71fc12b3e8b8cd191","1","38","82539","","","","","","","","[{""page_index"":0,""viewing_time"":7266},{""page_index"":1,""viewing_time"":75273}]","","","","","","","","","","","","","",""
"","","","","","","","","","","","html-button-response","204","2.0.0","583290","669ecaf71fc12b3e8b8cd191","1","38","1688","","","","","","","","","","0","start_test","","","","","","","","","","",""
"","","","","","","","","","","","html-button-response","205","2.0.0","585187","669ecaf71fc12b3e8b8cd191","1","38","1895","","","","","","","","","<img src= ""rock_img/I_Pumice_15.jpg"" style=""width:8cm; height:7.86cm;""><p>What type of rock is this?</p>","7","class_response","1","test","1","Pumice","Pumice","15","true","8","8","",""
"","","","","","","","","","","","html-keyboard-response","206","2.0.0","585695","669ecaf71fc12b3e8b8cd191","1","38","null","","","","","","","","","<p style='font-size: 30px;'><strong>Okay</strong></p>","null","neutral_feedback","1","test","1","","","","","","","",""
"","","","","","","","","","","","html-button-response","207","2.0.0","587633","669ecaf71fc12b3e8b8cd191","1","38","1936","","","","","","","","","<img src= ""rock_img/I_Basalt_06.jpg"" style=""width:8cm; height:7.06cm;""><p>What type of rock is this?</p>","1","class_response","1","test","2","Basalt","Basalt","06","true","2","2","",""
"","","","","","","","","","","","html-keyboard-response","208","2.0.0","588140","669ecaf71fc12b3e8b8cd191","1","38","null","","","","","","","","","<p style='font-size: 30px;'><strong>Okay</strong></p>","null","neutral_feedback","1","test","2","","","","","","","",""
"","","","","","","","","","","","html-button-response","209","2.0.0","593500","669ecaf71fc12b3e8b8cd191","1","38","5359","","","","","","","","","<img src= ""rock_img/I_Diorite_10.jpg"" style=""width:8cm; height:5.949999999999999cm;""><p>What type of rock is this?</p>","2","class_response","1","test","3","Diorite","Diorite","10","true","3","3","",""
"","","","","","","","","","","","html-keyboard-response","210","2.0.0","594002","669ecaf71fc12b3e8b8cd191","1","38","null","","","","","","","","","<p style='font-size: 30px;'><strong>Okay</strong></p>","null","neutral_feedback","1","test","3","","","","","","","",""
"","","","","","","","","","","","html-button-response","211","2.0.0","600245","669ecaf71fc12b3e8b8cd191","1","38","6241","","","","","","","","","<img src= ""rock_img/I_Diorite_13.jpg"" style=""width:8cm; height:6.29cm;""><p>What type of rock is this?</p>","6","class_response","1","test","4","Peridotite","Diorite","13","false","7","3","",""
"","","","","","","","","","","","html-keyboard-response","212","2.0.0","600749","669ecaf71fc12b3e8b8cd191","1","38","null","","","","","","","","","<p style='font-size: 30px;'><strong>Okay</strong></p>","null","neutral_feedback","1","test","4","","","","","","","",""
"","","","","","","","","","","","html-button-response","213","2.0.0","606033","669ecaf71fc12b3e8b8cd191","1","38","5283","","","","","","","","","<img src= ""rock_img/I_Diorite_14.jpg"" style=""width:8cm; height:5.71cm;""><p>What type of rock is this?</p>","0","class_response","1","test","5","Andesite","Diorite","14","false","1","3","",""
"","","","","","","","","","","","html-keyboard-response","214","2.0.0","606545","669ecaf71fc12b3e8b8cd191","1","38","null","","","","","","","","","<p style='font-size: 30px;'><strong>Okay</strong></p>","null","neutral_feedback","1","test","5","","","","","","","",""
"","","","","","","","","","","","html-button-response","215","2.0.0","608027","669ecaf71fc12b3e8b8cd191","1","38","1480","","","","","","","","","<img src= ""rock_img/I_Obsidian_04.jpg"" style=""width:8cm; height:6.930000000000001cm;""><p>What type of rock is this?</p>","4","class_response","1","test","6","Obsidian","Obsidian","04","true","5","5","",""
"","","","","","","","","","","","html-keyboard-response","216","2.0.0","608544","669ecaf71fc12b3e8b8cd191","1","38","null","","","","","","","","","<p style='font-size: 30px;'><strong>Okay</strong></p>","null","neutral_feedback","1","test","6","","","","","","","",""
"","","","","","","","","","","","html-button-response","217","2.0.0","624074","669ecaf71fc12b3e8b8cd191","1","38","15529","","","","","","","","","<img src= ""rock_img/I_Peridotite_02.jpg"" style=""width:8cm; height:5.859999999999999cm;""><p>What type of rock is this?</p>","0","class_response","1","test","7","Andesite","Peridotite","02","false","1","7","",""
"","","","","","","","","","","","html-keyboard-response","218","2.0.0","624577","669ecaf71fc12b3e8b8cd191","1","38","null","","","","","","","","","<p style='font-size: 30px;'><strong>Okay</strong></p>","null","neutral_feedback","1","test","7","","","","","","","",""
"","","","","","","","","","","","html-button-response","219","2.0.0","629319","669ecaf71fc12b3e8b8cd191","1","38","4741","","","","","","","","","<img src= ""rock_img/I_Andesite_10.jpg"" style=""width:8cm; height:4.16cm;""><p>What type of rock is this?</p>","0","class_response","1","test","8","Andesite","Andesite","10","true","1","1","",""
"","","","","","","","","","","","html-keyboard-response","220","2.0.0","629823","669ecaf71fc12b3e8b8cd191","1","38","null","","","","","","","","","<p style='font-size: 30px;'><strong>Okay</strong></p>","null","neutral_feedback","1","test","8","","","","","","","",""
"","","","","","","","","","","","html-button-response","221","2.0.0","636926","669ecaf71fc12b3e8b8cd191","1","38","7101","","","","","","","","","<img src= ""rock_img/I_Pegmatite_10.jpg"" style=""width:8cm; height:4.16cm;""><p>What type of rock is this?</p>","5","class_response","1","test","9","Pegmatite","Pegmatite","10","true","6","6","",""
"","","","","","","","","","","","html-keyboard-response","222","2.0.0","637431","669ecaf71fc12b3e8b8cd191","1","38","null","","","","","","","","","<p style='font-size: 30px;'><strong>Okay</strong></p>","null","neutral_feedback","1","test","9","","","","","","","",""
"","","","","","","","","","","","html-button-response","223","2.0.0","643574","669ecaf71fc12b3e8b8cd191","1","38","6142","","","","","","","","","<img src= ""rock_img/I_Basalt_14.jpg"" style=""width:8cm; height:5.82cm;""><p>What type of rock is this?</p>","7","class_response","1","test","10","Pumice","Basalt","14","false","8","2","",""
"","","","","","","","","","","","html-keyboard-response","224","2.0.0","644076","669ecaf71fc12b3e8b8cd191","1","38","null","","","","","","","","","<p style='font-size: 30px;'><strong>Okay</strong></p>","null","neutral_feedback","1","test","10","","","","","","","",""
"","","","","","","","","","","","html-button-response","225","2.0.0","649149","669ecaf71fc12b3e8b8cd191","1","38","5071","","","","","","","","","<img src= ""rock_img/I_Pegmatite_06.jpg"" style=""width:8cm; height:5.17cm;""><p>What type of rock is this?</p>","5","class_response","1","test","11","Pegmatite","Pegmatite","06","true","6","6","",""
"","","","","","","","","","","","html-keyboard-response","226","2.0.0","649658","669ecaf71fc12b3e8b8cd191","1","38","null","","","","","","","","","<p style='font-size: 30px;'><strong>Okay</strong></p>","null","neutral_feedback","1","test","11","","","","","","","",""
"","","","","","","","","","","","html-button-response","227","2.0.0","651075","669ecaf71fc12b3e8b8cd191","1","38","1415","","","","","","","","","<img src= ""rock_img/I_Obsidian_06.jpg"" style=""width:8cm; height:6.8cm;""><p>What type of rock is this?</p>","4","class_response","1","test","12","Obsidian","Obsidian","06","true","5","5","",""
"","","","","","","","","","","","html-keyboard-response","228","2.0.0","651579","669ecaf71fc12b3e8b8cd191","1","38","null","","","","","","","","","<p style='font-size: 30px;'><strong>Okay</strong></p>","null","neutral_feedback","1","test","12","","","","","","","",""
"","","","","","","","","","","","html-button-response","229","2.0.0","652949","669ecaf71fc12b3e8b8cd191","1","38","1368","","","","","","","","","<img src= ""rock_img/I_Pumice_09.jpg"" style=""width:8cm; height:6.44cm;""><p>What type of rock is this?</p>","7","class_response","1","test","13","Pumice","Pumice","09","true","8","8","",""
"","","","","","","","","","","","html-keyboard-response","230","2.0.0","653456","669ecaf71fc12b3e8b8cd191","1","38","null","","","","","","","","","<p style='font-size: 30px;'><strong>Okay</strong></p>","null","neutral_feedback","1","test","13","","","","","","","",""
"","","","","","","","","","","","html-button-response","231","2.0.0","658562","669ecaf71fc12b3e8b8cd191","1","38","5104","","","","","","","","","<img src= ""rock_img/I_Pegmatite_13.jpg"" style=""width:8cm; height:4.95cm;""><p>What type of rock is this?</p>","5","class_response","1","test","14","Pegmatite","Pegmatite","13","true","6","6","",""
"","","","","","","","","","","","html-keyboard-response","232","2.0.0","659076","669ecaf71fc12b3e8b8cd191","1","38","null","","","","","","","","","<p style='font-size: 30px;'><strong>Okay</strong></p>","null","neutral_feedback","1","test","14","","","","","","","",""
"","","","","","","","","","","","html-button-response","233","2.0.0","666455","669ecaf71fc12b3e8b8cd191","1","38","7378","","","","","","","","","<img src= ""rock_img/I_Gabbro_14.jpg"" style=""width:8cm; height:8.48cm;""><p>What type of rock is this?</p>","2","class_response","1","test","15","Diorite","Gabbro","14","false","3","4","",""
"","","","","","","","","","","","html-keyboard-response","234","2.0.0","666963","669ecaf71fc12b3e8b8cd191","1","38","null","","","","","","","","","<p style='font-size: 30px;'><strong>Okay</strong></p>","null","neutral_feedback","1","test","15","","","","","","","",""
"","","","","","","","","","","","html-button-response","235","2.0.0","668674","669ecaf71fc12b3e8b8cd191","1","38","1709","","","","","","","","","<img src= ""rock_img/I_Peridotite_04.jpg"" style=""width:8cm; height:6.680000000000001cm;""><p>What type of rock is this?</p>","6","class_response","1","test","16","Peridotite","Peridotite","04","true","7","7","",""
"","","","","","","","","","","","html-keyboard-response","236","2.0.0","669180","669ecaf71fc12b3e8b8cd191","1","38","null","","","","","","","","","<p style='font-size: 30px;'><strong>Okay</strong></p>","null","neutral_feedback","1","test","16","","","","","","","",""
"","","","","","","","","","","","html-button-response","237","2.0.0","687006","669ecaf71fc12b3e8b8cd191","1","38","17824","","","","","","","","","<img src= ""rock_img/I_Gabbro_12.jpg"" style=""width:8cm; height:7.800000000000001cm;""><p>What type of rock is this?</p>","0","class_response","1","test","17","Andesite","Gabbro","12","false","1","4","",""
"","","","","","","","","","","","html-keyboard-response","238","2.0.0","687512","669ecaf71fc12b3e8b8cd191","1","38","null","","","","","","","","","<p style='font-size: 30px;'><strong>Okay</strong></p>","null","neutral_feedback","1","test","17","","","","","","","",""
"","","","","","","","","","","","html-button-response","239","2.0.0","690349","669ecaf71fc12b3e8b8cd191","1","38","2835","","","","","","","","","<img src= ""rock_img/I_Basalt_05.jpg"" style=""width:8cm; height:8.18cm;""><p>What type of rock is this?</p>","4","class_response","1","test","18","Obsidian","Basalt","05","false","5","2","",""
"","","","","","","","","","","","html-keyboard-response","240","2.0.0","690861","669ecaf71fc12b3e8b8cd191","1","38","null","","","","","","","","","<p style='font-size: 30px;'><strong>Okay</strong></p>","null","neutral_feedback","1","test","18","","","","","","","",""
"","","","","","","","","","","","html-button-response","241","2.0.0","704708","669ecaf71fc12b3e8b8cd191","1","38","13845","","","","","","","","","<img src= ""rock_img/I_Gabbro_09.jpg"" style=""width:8cm; height:7.279999999999999cm;""><p>What type of rock is this?</p>","0","class_response","1","test","19","Andesite","Gabbro","09","false","1","4","",""
"","","","","","","","","","","","html-keyboard-response","242","2.0.0","705219","669ecaf71fc12b3e8b8cd191","1","38","null","","","","","","","","","<p style='font-size: 30px;'><strong>Okay</strong></p>","null","neutral_feedback","1","test","19","","","","","","","",""
"","","","","","","","","","","","html-button-response","243","2.0.0","706626","669ecaf71fc12b3e8b8cd191","1","38","1406","","","","","","","","","<img src= ""rock_img/I_Pumice_06.jpg"" style=""width:8cm; height:6.9399999999999995cm;""><p>What type of rock is this?</p>","7","class_response","1","test","20","Pumice","Pumice","06","true","8","8","",""
"","","","","","","","","","","","html-keyboard-response","244","2.0.0","707131","669ecaf71fc12b3e8b8cd191","1","38","null","","","","","","","","","<p style='font-size: 30px;'><strong>Okay</strong></p>","null","neutral_feedback","1","test","20","","","","","","","",""
"","","","","","","","","","","","html-button-response","245","2.0.0","711084","669ecaf71fc12b3e8b8cd191","1","38","3952","","","","","","","","","<img src= ""rock_img/I_Diorite_09.jpg"" style=""width:8cm; height:5.27cm;""><p>What type of rock is this?</p>","2","class_response","1","test","21","Diorite","Diorite","09","true","3","3","",""
"","","","","","","","","","","","html-keyboard-response","246","2.0.0","711585","669ecaf71fc12b3e8b8cd191","1","38","null","","","","","","","","","<p style='font-size: 30px;'><strong>Okay</strong></p>","null","neutral_feedback","1","test","21","","","","","","","",""
"","","","","","","","","","","","html-button-response","247","2.0.0","713673","669ecaf71fc12b3e8b8cd191","1","38","2086","","","","","","","","","<img src= ""rock_img/I_Peridotite_16.jpg"" style=""width:8cm; height:6.989999999999999cm;""><p>What type of rock is this?</p>","6","class_response","1","test","22","Peridotite","Peridotite","16","true","7","7","",""
"","","","","","","","","","","","html-keyboard-response","248","2.0.0","714180","669ecaf71fc12b3e8b8cd191","1","38","null","","","","","","","","","<p style='font-size: 30px;'><strong>Okay</strong></p>","null","neutral_feedback","1","test","22","","","","","","","",""
"","","","","","","","","","","","html-button-response","249","2.0.0","715488","669ecaf71fc12b3e8b8cd191","1","38","1306","","","","","","","","","<img src= ""rock_img/I_Obsidian_16.jpg"" style=""width:8cm; height:9.3cm;""><p>What type of rock is this?</p>","4","class_response","1","test","23","Obsidian","Obsidian","16","true","5","5","",""
"","","","","","","","","","","","html-keyboard-response","250","2.0.0","716000","669ecaf71fc12b3e8b8cd191","1","38","null","","","","","","","","","<p style='font-size: 30px;'><strong>Okay</strong></p>","null","neutral_feedback","1","test","23","","","","","","","",""
"","","","","","","","","","","","html-button-response","251","2.0.0","717964","669ecaf71fc12b3e8b8cd191","1","38","1963","","","","","","","","","<img src= ""rock_img/I_Basalt_11.jpg"" style=""width:8cm; height:5.359999999999999cm;""><p>What type of rock is this?</p>","7","class_response","1","test","24","Pumice","Basalt","11","false","8","2","",""
"","","","","","","","","","","","html-keyboard-response","252","2.0.0","718467","669ecaf71fc12b3e8b8cd191","1","38","null","","","","","","","","","<p style='font-size: 30px;'><strong>Okay</strong></p>","null","neutral_feedback","1","test","24","","","","","","","",""
"","","","","","","","","","","","html-button-response","253","2.0.0","719702","669ecaf71fc12b3e8b8cd191","1","38","1233","","","","","","","","","<img src= ""rock_img/I_Basalt_12.jpg"" style=""width:8cm; height:6.010000000000001cm;""><p>What type of rock is this?</p>","7","class_response","1","test","25","Pumice","Basalt","12","false","8","2","",""
"","","","","","","","","","","","html-keyboard-response","254","2.0.0","720215","669ecaf71fc12b3e8b8cd191","1","38","null","","","","","","","","","<p style='font-size: 30px;'><strong>Okay</strong></p>","null","neutral_feedback","1","test","25","","","","","","","",""
"","","","","","","","","","","","html-button-response","255","2.0.0","721976","669ecaf71fc12b3e8b8cd191","1","38","1759","","","","","","","","","<img src= ""rock_img/I_Gabbro_01.jpg"" style=""width:8cm; height:5.21cm;""><p>What type of rock is this?</p>","3","class_response","1","test","26","Gabbro","Gabbro","01","true","4","4","",""
"","","","","","","","","","","","html-keyboard-response","256","2.0.0","722478","669ecaf71fc12b3e8b8cd191","1","38","null","","","","","","","","","<p style='font-size: 30px;'><strong>Okay</strong></p>","null","neutral_feedback","1","test","26","","","","","","","",""
"","","","","","","","","","","","html-button-response","257","2.0.0","723979","669ecaf71fc12b3e8b8cd191","1","38","1499","","","","","","","","","<img src= ""rock_img/I_Obsidian_14.jpg"" style=""width:8cm; height:7.64cm;""><p>What type of rock is this?</p>","4","class_response","1","test","27","Obsidian","Obsidian","14","true","5","5","",""
"","","","","","","","","","","","html-keyboard-response","258","2.0.0","724492","669ecaf71fc12b3e8b8cd191","1","38","null","","","","","","","","","<p style='font-size: 30px;'><strong>Okay</strong></p>","null","neutral_feedback","1","test","27","","","","","","","",""
"","","","","","","","","","","","html-button-response","259","2.0.0","728155","669ecaf71fc12b3e8b8cd191","1","38","3662","","","","","","","","","<img src= ""rock_img/I_Andesite_07.jpg"" style=""width:8cm; height:5.93cm;""><p>What type of rock is this?</p>","2","class_response","1","test","28","Diorite","Andesite","07","false","3","1","",""
"","","","","","","","","","","","html-keyboard-response","260","2.0.0","728664","669ecaf71fc12b3e8b8cd191","1","38","null","","","","","","","","","<p style='font-size: 30px;'><strong>Okay</strong></p>","null","neutral_feedback","1","test","28","","","","","","","",""
"","","","","","","","","","","","html-button-response","261","2.0.0","729887","669ecaf71fc12b3e8b8cd191","1","38","1221","","","","","","","","","<img src= ""rock_img/I_Pumice_04.jpg"" style=""width:8cm; height:6.819999999999999cm;""><p>What type of rock is this?</p>","7","class_response","1","test","29","Pumice","Pumice","04","true","8","8","",""
"","","","","","","","","","","","html-keyboard-response","262","2.0.0","730389","669ecaf71fc12b3e8b8cd191","1","38","null","","","","","","","","","<p style='font-size: 30px;'><strong>Okay</strong></p>","null","neutral_feedback","1","test","29","","","","","","","",""
"","","","","","","","","","","","html-button-response","263","2.0.0","737523","669ecaf71fc12b3e8b8cd191","1","38","7133","","","","","","","","","<img src= ""rock_img/I_Pegmatite_07.jpg"" style=""width:8cm; height:6.7cm;""><p>What type of rock is this?</p>","5","class_response","1","test","30","Pegmatite","Pegmatite","07","true","6","6","",""
"","","","","","","","","","","","html-keyboard-response","264","2.0.0","738037","669ecaf71fc12b3e8b8cd191","1","38","null","","","","","","","","","<p style='font-size: 30px;'><strong>Okay</strong></p>","null","neutral_feedback","1","test","30","","","","","","","",""
"","","","","","","","","","","","html-button-response","265","2.0.0","745370","669ecaf71fc12b3e8b8cd191","1","38","7331","","","","","","","","","<img src= ""rock_img/I_Pegmatite_03.jpg"" style=""width:8cm; height:5.239999999999999cm;""><p>What type of rock is this?</p>","5","class_response","1","test","31","Pegmatite","Pegmatite","03","true","6","6","",""
"","","","","","","","","","","","html-keyboard-response","266","2.0.0","745877","669ecaf71fc12b3e8b8cd191","1","38","null","","","","","","","","","<p style='font-size: 30px;'><strong>Okay</strong></p>","null","neutral_feedback","1","test","31","","","","","","","",""
"","","","","","","","","","","","html-button-response","267","2.0.0","747712","669ecaf71fc12b3e8b8cd191","1","38","1834","","","","","","","","","<img src= ""rock_img/I_Peridotite_14.jpg"" style=""width:8cm; height:5.3cm;""><p>What type of rock is this?</p>","2","class_response","1","test","32","Diorite","Peridotite","14","false","3","7","",""
"","","","","","","","","","","","html-keyboard-response","268","2.0.0","748215","669ecaf71fc12b3e8b8cd191","1","38","null","","","","","","","","","<p style='font-size: 30px;'><strong>Okay</strong></p>","null","neutral_feedback","1","test","32","","","","","","","",""
"","","","","","","","","","","","html-button-response","269","2.0.0","749638","669ecaf71fc12b3e8b8cd191","1","38","1421","","","","","","","","","<img src= ""rock_img/I_Diorite_02.jpg"" style=""width:8cm; height:6.27cm;""><p>What type of rock is this?</p>","6","class_response","1","test","33","Peridotite","Diorite","02","false","7","3","",""
"","","","","","","","","","","","html-keyboard-response","270","2.0.0","750154","669ecaf71fc12b3e8b8cd191","1","38","null","","","","","","","","","<p style='font-size: 30px;'><strong>Okay</strong></p>","null","neutral_feedback","1","test","33","","","","","","","",""
"","","","","","","","","","","","html-button-response","271","2.0.0","751304","669ecaf71fc12b3e8b8cd191","1","38","1148","","","","","","","","","<img src= ""rock_img/I_Diorite_06.jpg"" style=""width:8cm; height:6.03cm;""><p>What type of rock is this?</p>","6","class_response","1","test","34","Peridotite","Diorite","06","false","7","3","",""
"","","","","","","","","","","","html-keyboard-response","272","2.0.0","751820","669ecaf71fc12b3e8b8cd191","1","38","null","","","","","","","","","<p style='font-size: 30px;'><strong>Okay</strong></p>","null","neutral_feedback","1","test","34","","","","","","","",""
"","","","","","","","","","","","html-button-response","273","2.0.0","753383","669ecaf71fc12b3e8b8cd191","1","38","1561","","","","","","","","","<img src= ""rock_img/I_Andesite_04.jpg"" style=""width:8cm; height:5.96cm;""><p>What type of rock is this?</p>","3","class_response","1","test","35","Gabbro","Andesite","04","false","4","1","",""
"","","","","","","","","","","","html-keyboard-response","274","2.0.0","753886","669ecaf71fc12b3e8b8cd191","1","38","null","","","","","","","","","<p style='font-size: 30px;'><strong>Okay</strong></p>","null","neutral_feedback","1","test","35","","","","","","","",""
"","","","","","","","","","","","html-button-response","275","2.0.0","755408","669ecaf71fc12b3e8b8cd191","1","38","1520","","","","","","","","","<img src= ""rock_img/I_Gabbro_11.jpg"" style=""width:8cm; height:6.2cm;""><p>What type of rock is this?</p>","3","class_response","1","test","36","Gabbro","Gabbro","11","true","4","4","",""
"","","","","","","","","","","","html-keyboard-response","276","2.0.0","755909","669ecaf71fc12b3e8b8cd191","1","38","null","","","","","","","","","<p style='font-size: 30px;'><strong>Okay</strong></p>","null","neutral_feedback","1","test","36","","","","","","","",""
"","","","","","","","","","","","html-button-response","277","2.0.0","757929","669ecaf71fc12b3e8b8cd191","1","38","2018","","","","","","","","","<img src= ""rock_img/I_Pumice_13.jpg"" style=""width:8cm; height:8.200000000000001cm;""><p>What type of rock is this?</p>","7","class_response","1","test","37","Pumice","Pumice","13","true","8","8","",""
"","","","","","","","","","","","html-keyboard-response","278","2.0.0","758432","669ecaf71fc12b3e8b8cd191","1","38","null","","","","","","","","","<p style='font-size: 30px;'><strong>Okay</strong></p>","null","neutral_feedback","1","test","37","","","","","","","",""
"","","","","","","","","","","","html-button-response","279","2.0.0","760412","669ecaf71fc12b3e8b8cd191","1","38","1977","","","","","","","","","<img src= ""rock_img/I_Andesite_11.jpg"" style=""width:8cm; height:4.92cm;""><p>What type of rock is this?</p>","2","class_response","1","test","38","Diorite","Andesite","11","false","3","1","",""
"","","","","","","","","","","","html-keyboard-response","280","2.0.0","760916","669ecaf71fc12b3e8b8cd191","1","38","null","","","","","","","","","<p style='font-size: 30px;'><strong>Okay</strong></p>","null","neutral_feedback","1","test","38","","","","","","","",""
"","","","","","","","","","","","html-button-response","281","2.0.0","762342","669ecaf71fc12b3e8b8cd191","1","38","1424","","","","","","","","","<img src= ""rock_img/I_Basalt_08.jpg"" style=""width:8cm; height:10.44cm;""><p>What type of rock is this?</p>","4","class_response","1","test","39","Obsidian","Basalt","08","false","5","2","",""
"","","","","","","","","","","","html-keyboard-response","282","2.0.0","762857","669ecaf71fc12b3e8b8cd191","1","38","null","","","","","","","","","<p style='font-size: 30px;'><strong>Okay</strong></p>","null","neutral_feedback","1","test","39","","","","","","","",""
"","","","","","","","","","","","html-button-response","283","2.0.0","766155","669ecaf71fc12b3e8b8cd191","1","38","3296","","","","","","","","","<img src= ""rock_img/I_Pegmatite_08.jpg"" style=""width:8cm; height:7.68cm;""><p>What type of rock is this?</p>","5","class_response","1","test","40","Pegmatite","Pegmatite","08","true","6","6","",""
"","","","","","","","","","","","html-keyboard-response","284","2.0.0","766668","669ecaf71fc12b3e8b8cd191","1","38","null","","","","","","","","","<p style='font-size: 30px;'><strong>Okay</strong></p>","null","neutral_feedback","1","test","40","","","","","","","",""
"","","","","","","","","","","","html-button-response","285","2.0.0","768289","669ecaf71fc12b3e8b8cd191","1","38","1619","","","","","","","","","<img src= ""rock_img/I_Gabbro_05.jpg"" style=""width:8cm; height:6cm;""><p>What type of rock is this?</p>","2","class_response","1","test","41","Diorite","Gabbro","05","false","3","4","",""
"","","","","","","","","","","","html-keyboard-response","286","2.0.0","768800","669ecaf71fc12b3e8b8cd191","1","38","null","","","","","","","","","<p style='font-size: 30px;'><strong>Okay</strong></p>","null","neutral_feedback","1","test","41","","","","","","","",""
"","","","","","","","","","","","html-button-response","287","2.0.0","770128","669ecaf71fc12b3e8b8cd191","1","38","1326","","","","","","","","","<img src= ""rock_img/I_Obsidian_08.jpg"" style=""width:8cm; height:7.39cm;""><p>What type of rock is this?</p>","4","class_response","1","test","42","Obsidian","Obsidian","08","true","5","5","",""
"","","","","","","","","","","","html-keyboard-response","288","2.0.0","770644","669ecaf71fc12b3e8b8cd191","1","38","null","","","","","","","","","<p style='font-size: 30px;'><strong>Okay</strong></p>","null","neutral_feedback","1","test","42","","","","","","","",""
"","","","","","","","","","","","html-button-response","289","2.0.0","772293","669ecaf71fc12b3e8b8cd191","1","38","1647","","","","","","","","","<img src= ""rock_img/I_Peridotite_10.jpg"" style=""width:8cm; height:5.390000000000001cm;""><p>What type of rock is this?</p>","6","class_response","1","test","43","Peridotite","Peridotite","10","true","7","7","",""
"","","","","","","","","","","","html-keyboard-response","290","2.0.0","772807","669ecaf71fc12b3e8b8cd191","1","38","null","","","","","","","","","<p style='font-size: 30px;'><strong>Okay</strong></p>","null","neutral_feedback","1","test","43","","","","","","","",""
"","","","","","","","","","","","html-button-response","291","2.0.0","774037","669ecaf71fc12b3e8b8cd191","1","38","1228","","","","","","","","","<img src= ""rock_img/I_Peridotite_06.jpg"" style=""width:8cm; height:7.53cm;""><p>What type of rock is this?</p>","2","class_response","1","test","44","Diorite","Peridotite","06","false","3","7","",""
"","","","","","","","","","","","html-keyboard-response","292","2.0.0","774539","669ecaf71fc12b3e8b8cd191","1","38","null","","","","","","","","","<p style='font-size: 30px;'><strong>Okay</strong></p>","null","neutral_feedback","1","test","44","","","","","","","",""
"","","","","","","","","","","","html-button-response","293","2.0.0","775605","669ecaf71fc12b3e8b8cd191","1","38","1065","","","","","","","","","<img src= ""rock_img/I_Andesite_14.jpg"" style=""width:8cm; height:5.449999999999999cm;""><p>What type of rock is this?</p>","6","class_response","1","test","45","Peridotite","Andesite","14","false","7","1","",""
"","","","","","","","","","","","html-keyboard-response","294","2.0.0","776113","669ecaf71fc12b3e8b8cd191","1","38","null","","","","","","","","","<p style='font-size: 30px;'><strong>Okay</strong></p>","null","neutral_feedback","1","test","45","","","","","","","",""
"","","","","","","","","","","","html-button-response","295","2.0.0","777462","669ecaf71fc12b3e8b8cd191","1","38","1347","","","","","","","","","<img src= ""rock_img/I_Pumice_10.jpg"" style=""width:8cm; height:7.609999999999999cm;""><p>What type of rock is this?</p>","7","class_response","1","test","46","Pumice","Pumice","10","true","8","8","",""
"","","","","","","","","","","","html-keyboard-response","296","2.0.0","777974","669ecaf71fc12b3e8b8cd191","1","38","null","","","","","","","","","<p style='font-size: 30px;'><strong>Okay</strong></p>","null","neutral_feedback","1","test","46","","","","","","","",""
"","","","","","","","","","","","html-button-response","297","2.0.0","779239","669ecaf71fc12b3e8b8cd191","1","38","1263","","","","","","","","","<img src= ""rock_img/I_Obsidian_09.jpg"" style=""width:8cm; height:5cm;""><p>What type of rock is this?</p>","4","class_response","1","test","47","Obsidian","Obsidian","09","true","5","5","",""
"","","","","","","","","","","","html-keyboard-response","298","2.0.0","779741","669ecaf71fc12b3e8b8cd191","1","38","null","","","","","","","","","<p style='font-size: 30px;'><strong>Okay</strong></p>","null","neutral_feedback","1","test","47","","","","","","","",""
"","","","","","","","","","","","html-button-response","299","2.0.0","781193","669ecaf71fc12b3e8b8cd191","1","38","1450","","","","","","","","","<img src= ""rock_img/I_Andesite_09.jpg"" style=""width:8cm; height:6cm;""><p>What type of rock is this?</p>","3","class_response","1","test","48","Gabbro","Andesite","09","false","4","1","",""
"","","","","","","","","","","","html-keyboard-response","300","2.0.0","781698","669ecaf71fc12b3e8b8cd191","1","38","null","","","","","","","","","<p style='font-size: 30px;'><strong>Okay</strong></p>","null","neutral_feedback","1","test","48","","","","","","","",""
"","","","","","","","","","","","html-button-response","301","2.0.0","800537","669ecaf71fc12b3e8b8cd191","1","38","","","","","","","","","","","","cycle_feedback","","","","","","","","","","7830.700000047684","11002.899999976158"
"","","","","","","","","","","","html-button-response","303","2.0.0","802015","669ecaf71fc12b3e8b8cd191","1","38","1475","","","","","","","","","","0","start_train","","","","","","","","","","",""
"","","","","","","","","","","","html-button-response","304","2.0.0","811392","669ecaf71fc12b3e8b8cd191","1","38","9375","","","","","","","","","<img src= ""rock_img/I_Gabbro_15.jpg"" style=""width:8cm; height:6.29cm;""><p>What type of rock is this?</p>","2","class_response","2","train","1","Diorite","Gabbro","15","false","3","4","",""
