"width","height","webaudio","browser","browser_version","mobile","os","fullscreen","vsync_rate","webcam","microphone","trial_type","trial_index","plugin_version","time_elapsed","subjID","condition","stimID","rt","url","success","value","timeout","failed_images","failed_audio","failed_video","view_history","stimulus","response","trialType","cycle","phase","trial","resp","cat","token","corr","resp_num","cat_num","time_fb1","time_fb2"
"1280","585","true","chrome","130.0.0","false","Windows 10","true","60.13","false","false","browser-check","0","2.0.0","1014","670e3e1821e1e62133cfe0a9","1","19","","","","","","","","","","","","","","","","","","","","","","",""
"","","","","","","","","","","","external-html","1","2.0.0","412560","670e3e1821e1e62133cfe0a9","1","19","411048","consent_form.html","","","","","","","","","","","","","","","","","","","","",""
"","","","","","","","","","","","fullscreen","2","2.0.0","445770","670e3e1821e1e62133cfe0a9","1","19","32196","","true","","","","","","","","","","","","","","","","","","","",""
"","","","","","","","","","","","call-function","3","2.0.0","445775","670e3e1821e1e62133cfe0a9","1","19","","","","{}","","","","","","","","","","","","","","","","","","",""
"","","","","","","","","","","","preload","4","2.0.0","475940","670e3e1821e1e62133cfe0a9","1","19","","","true","","false","[]","[]","[]","","","","","","","","","","","","","","",""
"","","","","","","","","","","","instructions","5","2.0.0","620456","670e3e1821e1e62133cfe0a9","1","19","144514","","","","","","","","[{""page_index"":0,""viewing_time"":24982},{""page_index"":1,""viewing_time"":55899},{""page_index"":2,""viewing_time"":63633}]","","","","","","","","","","","","","",""
"","","","","","","","","","","","html-button-response","6","2.0.0","624457","670e3e1821e1e62133cfe0a9","1","19","3999","","","","","","","","","","0","start_test","","","","","","","","","","",""
"","","","","","","","","","","","html-button-response","7","2.0.0","632299","670e3e1821e1e62133cfe0a9","1","19","7839","","","","","","","","","<img src= ""rock_img/I_Andesite_14.jpg"" style=""width:8cm; height:5.449999999999999cm;""><p>What type of rock is this?</p>","6","class_response","0","test","1","Peridotite","Andesite","14","false","7","1","",""
"","","","","","","","","","","","html-keyboard-response","8","2.0.0","632810","670e3e1821e1e62133cfe0a9","1","19","null","","","","","","","","","<p style='font-size: 30px;'><strong>Okay</strong></p>","null","neutral_feedback","0","test","1","","","","","","","",""
"","","","","","","","","","","","html-button-response","9","2.0.0","636397","670e3e1821e1e62133cfe0a9","1","19","3585","","","","","","","","","<img src= ""rock_img/I_Pegmatite_05.jpg"" style=""width:8cm; height:7.300000000000001cm;""><p>What type of rock is this?</p>","2","class_response","0","test","2","Diorite","Pegmatite","05","false","3","6","",""
"","","","","","","","","","","","html-keyboard-response","10","2.0.0","636908","670e3e1821e1e62133cfe0a9","1","19","null","","","","","","","","","<p style='font-size: 30px;'><strong>Okay</strong></p>","null","neutral_feedback","0","test","2","","","","","","","",""
"","","","","","","","","","","","html-button-response","11","2.0.0","643000","670e3e1821e1e62133cfe0a9","1","19","6089","","","","","","","","","<img src= ""rock_img/I_Basalt_10.jpg"" style=""width:8cm; height:5.85cm;""><p>What type of rock is this?</p>","3","class_response","0","test","3","Gabbro","Basalt","10","false","4","2","",""
"","","","","","","","","","","","html-keyboard-response","12","2.0.0","643503","670e3e1821e1e62133cfe0a9","1","19","null","","","","","","","","","<p style='font-size: 30px;'><strong>Okay</strong></p>","null","neutral_feedback","0","test","3","","","","","","","",""
"","","","","","","","","","","","html-button-response","13","2.0.0","645424","670e3e1821e1e62133cfe0a9","1","19","1915","","","","","","","","","<img src= ""rock_img/I_Obsidian_16.jpg"" style=""width:8cm; height:9.3cm;""><p>What type of rock is this?</p>","4","class_response","0","test","4","Obsidian","Obsidian","16","true","5","5","",""
"","","","","","","","","","","","html-keyboard-response","14","2.0.0","645927","670e3e1821e1e62133cfe0a9","1","19","null","","","","","","","","","<p style='font-size: 30px;'><strong>Okay</strong></p>","null","neutral_feedback","0","test","4","","","","","","","",""
"","","","","","","","","","","","html-button-response","15","2.0.0","649392","670e3e1821e1e62133cfe0a9","1","19","3462","","","","","","","","","<img src= ""rock_img/I_Gabbro_14.jpg"" style=""width:8cm; height:8.48cm;""><p>What type of rock is this?</p>","3","class_response","0","test","5","Gabbro","Gabbro","14","true","4","4","",""
"","","","","","","","","","","","html-keyboard-response","16","2.0.0","649902","670e3e1821e1e62133cfe0a9","1","19","null","","","","","","","","","<p style='font-size: 30px;'><strong>Okay</strong></p>","null","neutral_feedback","0","test","5","","","","","","","",""
"","","","","","","","","","","","html-button-response","17","2.0.0","652085","670e3e1821e1e62133cfe0a9","1","19","2181","","","","","","","","","<img src= ""rock_img/I_Diorite_10.jpg"" style=""width:8cm; height:5.949999999999999cm;""><p>What type of rock is this?</p>","6","class_response","0","test","6","Peridotite","Diorite","10","false","7","3","",""
"","","","","","","","","","","","html-keyboard-response","18","2.0.0","652592","670e3e1821e1e62133cfe0a9","1","19","null","","","","","","","","","<p style='font-size: 30px;'><strong>Okay</strong></p>","null","neutral_feedback","0","test","6","","","","","","","",""
"","","","","","","","","","","","html-button-response","19","2.0.0","654300","670e3e1821e1e62133cfe0a9","1","19","1706","","","","","","","","","<img src= ""rock_img/I_Pegmatite_13.jpg"" style=""width:8cm; height:4.95cm;""><p>What type of rock is this?</p>","0","class_response","0","test","7","Andesite","Pegmatite","13","false","1","6","",""
"","","","","","","","","","","","html-keyboard-response","20","2.0.0","654827","670e3e1821e1e62133cfe0a9","1","19","null","","","","","","","","","<p style='font-size: 30px;'><strong>Okay</strong></p>","null","neutral_feedback","0","test","7","","","","","","","",""
"","","","","","","","","","","","html-button-response","21","2.0.0","660039","670e3e1821e1e62133cfe0a9","1","19","5208","","","","","","","","","<img src= ""rock_img/I_Pumice_02.jpg"" style=""width:8cm; height:7.3999999999999995cm;""><p>What type of rock is this?</p>","7","class_response","0","test","8","Pumice","Pumice","02","true","8","8","",""
"","","","","","","","","","","","html-keyboard-response","22","2.0.0","660542","670e3e1821e1e62133cfe0a9","1","19","null","","","","","","","","","<p style='font-size: 30px;'><strong>Okay</strong></p>","null","neutral_feedback","0","test","8","","","","","","","",""
"","","","","","","","","","","","html-button-response","23","2.0.0","662342","670e3e1821e1e62133cfe0a9","1","19","1797","","","","","","","","","<img src= ""rock_img/I_Andesite_10.jpg"" style=""width:8cm; height:4.16cm;""><p>What type of rock is this?</p>","1","class_response","0","test","9","Basalt","Andesite","10","false","2","1","",""
"","","","","","","","","","","","html-keyboard-response","24","2.0.0","662845","670e3e1821e1e62133cfe0a9","1","19","null","","","","","","","","","<p style='font-size: 30px;'><strong>Okay</strong></p>","null","neutral_feedback","0","test","9","","","","","","","",""
"","","","","","","","","","","","html-button-response","25","2.0.0","665351","670e3e1821e1e62133cfe0a9","1","19","2504","","","","","","","","","<img src= ""rock_img/I_Peridotite_06.jpg"" style=""width:8cm; height:7.53cm;""><p>What type of rock is this?</p>","2","class_response","0","test","10","Diorite","Peridotite","06","false","3","7","",""
"","","","","","","","","","","","html-keyboard-response","26","2.0.0","665860","670e3e1821e1e62133cfe0a9","1","19","null","","","","","","","","","<p style='font-size: 30px;'><strong>Okay</strong></p>","null","neutral_feedback","0","test","10","","","","","","","",""
"","","","","","","","","","","","html-button-response","27","2.0.0","668343","670e3e1821e1e62133cfe0a9","1","19","2481","","","","","","","","","<img src= ""rock_img/I_Pegmatite_10.jpg"" style=""width:8cm; height:4.16cm;""><p>What type of rock is this?</p>","2","class_response","0","test","11","Diorite","Pegmatite","10","false","3","6","",""
"","","","","","","","","","","","html-keyboard-response","28","2.0.0","668855","670e3e1821e1e62133cfe0a9","1","19","null","","","","","","","","","<p style='font-size: 30px;'><strong>Okay</strong></p>","null","neutral_feedback","0","test","11","","","","","","","",""
"","","","","","","","","","","","html-button-response","29","2.0.0","671894","670e3e1821e1e62133cfe0a9","1","19","3036","","","","","","","","","<img src= ""rock_img/I_Andesite_07.jpg"" style=""width:8cm; height:5.93cm;""><p>What type of rock is this?</p>","3","class_response","0","test","12","Gabbro","Andesite","07","false","4","1","",""
"","","","","","","","","","","","html-keyboard-response","30","2.0.0","672408","670e3e1821e1e62133cfe0a9","1","19","null","","","","","","","","","<p style='font-size: 30px;'><strong>Okay</strong></p>","null","neutral_feedback","0","test","12","","","","","","","",""
"","","","","","","","","","","","html-button-response","31","2.0.0","675178","670e3e1821e1e62133cfe0a9","1","19","2768","","","","","","","","","<img src= ""rock_img/I_Pegmatite_15.jpg"" style=""width:8cm; height:6cm;""><p>What type of rock is this?</p>","1","class_response","0","test","13","Basalt","Pegmatite","15","false","2","6","",""
"","","","","","","","","","","","html-keyboard-response","32","2.0.0","675684","670e3e1821e1e62133cfe0a9","1","19","null","","","","","","","","","<p style='font-size: 30px;'><strong>Okay</strong></p>","null","neutral_feedback","0","test","13","","","","","","","",""
"","","","","","","","","","","","html-button-response","33","2.0.0","677591","670e3e1821e1e62133cfe0a9","1","19","1904","","","","","","","","","<img src= ""rock_img/I_Diorite_09.jpg"" style=""width:8cm; height:5.27cm;""><p>What type of rock is this?</p>","6","class_response","0","test","14","Peridotite","Diorite","09","false","7","3","",""
"","","","","","","","","","","","html-keyboard-response","34","2.0.0","678103","670e3e1821e1e62133cfe0a9","1","19","null","","","","","","","","","<p style='font-size: 30px;'><strong>Okay</strong></p>","null","neutral_feedback","0","test","14","","","","","","","",""
"","","","","","","","","","","","html-button-response","35","2.0.0","679960","670e3e1821e1e62133cfe0a9","1","19","1854","","","","","","","","","<img src= ""rock_img/I_Obsidian_06.jpg"" style=""width:8cm; height:6.8cm;""><p>What type of rock is this?</p>","4","class_response","0","test","15","Obsidian","Obsidian","06","true","5","5","",""
"","","","","","","","","","","","html-keyboard-response","36","2.0.0","680467","670e3e1821e1e62133cfe0a9","1","19","null","","","","","","","","","<p style='font-size: 30px;'><strong>Okay</strong></p>","null","neutral_feedback","0","test","15","","","","","","","",""
"","","","","","","","","","","","html-button-response","37","2.0.0","681998","670e3e1821e1e62133cfe0a9","1","19","1528","","","","","","","","","<img src= ""rock_img/I_Obsidian_07.jpg"" style=""width:8cm; height:4.76cm;""><p>What type of rock is this?</p>","4","class_response","0","test","16","Obsidian","Obsidian","07","true","5","5","",""
"","","","","","","","","","","","html-keyboard-response","38","2.0.0","682505","670e3e1821e1e62133cfe0a9","1","19","null","","","","","","","","","<p style='font-size: 30px;'><strong>Okay</strong></p>","null","neutral_feedback","0","test","16","","","","","","","",""
"","","","","","","","","","","","html-button-response","39","2.0.0","683891","670e3e1821e1e62133cfe0a9","1","19","1383","","","","","","","","","<img src= ""rock_img/I_Obsidian_11.jpg"" style=""width:8cm; height:6.05cm;""><p>What type of rock is this?</p>","4","class_response","0","test","17","Obsidian","Obsidian","11","true","5","5","",""
"","","","","","","","","","","","html-keyboard-response","40","2.0.0","684399","670e3e1821e1e62133cfe0a9","1","19","null","","","","","","","","","<p style='font-size: 30px;'><strong>Okay</strong></p>","null","neutral_feedback","0","test","17","","","","","","","",""
"","","","","","","","","","","","html-button-response","41","2.0.0","686728","670e3e1821e1e62133cfe0a9","1","19","2327","","","","","","","","","<img src= ""rock_img/I_Andesite_04.jpg"" style=""width:8cm; height:5.96cm;""><p>What type of rock is this?</p>","0","class_response","0","test","18","Andesite","Andesite","04","true","1","1","",""
"","","","","","","","","","","","html-keyboard-response","42","2.0.0","687238","670e3e1821e1e62133cfe0a9","1","19","null","","","","","","","","","<p style='font-size: 30px;'><strong>Okay</strong></p>","null","neutral_feedback","0","test","18","","","","","","","",""
"","","","","","","","","","","","html-button-response","43","2.0.0","689429","670e3e1821e1e62133cfe0a9","1","19","2188","","","","","","","","","<img src= ""rock_img/I_Peridotite_07.jpg"" style=""width:8cm; height:4.83cm;""><p>What type of rock is this?</p>","7","class_response","0","test","19","Pumice","Peridotite","07","false","8","7","",""
"","","","","","","","","","","","html-keyboard-response","44","2.0.0","689937","670e3e1821e1e62133cfe0a9","1","19","null","","","","","","","","","<p style='font-size: 30px;'><strong>Okay</strong></p>","null","neutral_feedback","0","test","19","","","","","","","",""
"","","","","","","","","","","","html-button-response","45","2.0.0","691563","670e3e1821e1e62133cfe0a9","1","19","1623","","","","","","","","","<img src= ""rock_img/I_Peridotite_16.jpg"" style=""width:8cm; height:6.989999999999999cm;""><p>What type of rock is this?</p>","1","class_response","0","test","20","Basalt","Peridotite","16","false","2","7","",""
"","","","","","","","","","","","html-keyboard-response","46","2.0.0","692071","670e3e1821e1e62133cfe0a9","1","19","null","","","","","","","","","<p style='font-size: 30px;'><strong>Okay</strong></p>","null","neutral_feedback","0","test","20","","","","","","","",""
"","","","","","","","","","","","html-button-response","47","2.0.0","694571","670e3e1821e1e62133cfe0a9","1","19","2497","","","","","","","","","<img src= ""rock_img/I_Pumice_08.jpg"" style=""width:8cm; height:6.67cm;""><p>What type of rock is this?</p>","6","class_response","0","test","21","Peridotite","Pumice","08","false","7","8","",""
"","","","","","","","","","","","html-keyboard-response","48","2.0.0","695078","670e3e1821e1e62133cfe0a9","1","19","null","","","","","","","","","<p style='font-size: 30px;'><strong>Okay</strong></p>","null","neutral_feedback","0","test","21","","","","","","","",""
"","","","","","","","","","","","html-button-response","49","2.0.0","723834","670e3e1821e1e62133cfe0a9","1","19","28753","","","","","","","","","<img src= ""rock_img/I_Gabbro_01.jpg"" style=""width:8cm; height:5.21cm;""><p>What type of rock is this?</p>","6","class_response","0","test","22","Peridotite","Gabbro","01","false","7","4","",""
"","","","","","","","","","","","html-keyboard-response","50","2.0.0","724341","670e3e1821e1e62133cfe0a9","1","19","null","","","","","","","","","<p style='font-size: 30px;'><strong>Okay</strong></p>","null","neutral_feedback","0","test","22","","","","","","","",""
"","","","","","","","","","","","html-button-response","51","2.0.0","726098","670e3e1821e1e62133cfe0a9","1","19","1754","","","","","","","","","<img src= ""rock_img/I_Pumice_05.jpg"" style=""width:8cm; height:7.25cm;""><p>What type of rock is this?</p>","7","class_response","0","test","23","Pumice","Pumice","05","true","8","8","",""
"","","","","","","","","","","","html-keyboard-response","52","2.0.0","726615","670e3e1821e1e62133cfe0a9","1","19","null","","","","","","","","","<p style='font-size: 30px;'><strong>Okay</strong></p>","null","neutral_feedback","0","test","23","","","","","","","",""
"","","","","","","","","","","","html-button-response","53","2.0.0","728238","670e3e1821e1e62133cfe0a9","1","19","1621","","","","","","","","","<img src= ""rock_img/I_Basalt_09.jpg"" style=""width:8cm; height:6.2cm;""><p>What type of rock is this?</p>","1","class_response","0","test","24","Basalt","Basalt","09","true","2","2","",""
"","","","","","","","","","","","html-keyboard-response","54","2.0.0","728753","670e3e1821e1e62133cfe0a9","1","19","null","","","","","","","","","<p style='font-size: 30px;'><strong>Okay</strong></p>","null","neutral_feedback","0","test","24","","","","","","","",""
"","","","","","","","","","","","html-button-response","55","2.0.0","730514","670e3e1821e1e62133cfe0a9","1","19","1757","","","","","","","","","<img src= ""rock_img/I_Basalt_01.jpg"" style=""width:8cm; height:7.880000000000001cm;""><p>What type of rock is this?</p>","1","class_response","0","test","25","Basalt","Basalt","01","true","2","2","",""
"","","","","","","","","","","","html-keyboard-response","56","2.0.0","731023","670e3e1821e1e62133cfe0a9","1","19","null","","","","","","","","","<p style='font-size: 30px;'><strong>Okay</strong></p>","null","neutral_feedback","0","test","25","","","","","","","",""
"","","","","","","","","","","","html-button-response","57","2.0.0","733359","670e3e1821e1e62133cfe0a9","1","19","2333","","","","","","","","","<img src= ""rock_img/I_Pumice_13.jpg"" style=""width:8cm; height:8.200000000000001cm;""><p>What type of rock is this?</p>","6","class_response","0","test","26","Peridotite","Pumice","13","false","7","8","",""
"","","","","","","","","","","","html-keyboard-response","58","2.0.0","733861","670e3e1821e1e62133cfe0a9","1","19","null","","","","","","","","","<p style='font-size: 30px;'><strong>Okay</strong></p>","null","neutral_feedback","0","test","26","","","","","","","",""
"","","","","","","","","","","","html-button-response","59","2.0.0","735419","670e3e1821e1e62133cfe0a9","1","19","1555","","","","","","","","","<img src= ""rock_img/I_Gabbro_10.jpg"" style=""width:8cm; height:5.680000000000001cm;""><p>What type of rock is this?</p>","0","class_response","0","test","27","Andesite","Gabbro","10","false","1","4","",""
"","","","","","","","","","","","html-keyboard-response","60","2.0.0","735931","670e3e1821e1e62133cfe0a9","1","19","null","","","","","","","","","<p style='font-size: 30px;'><strong>Okay</strong></p>","null","neutral_feedback","0","test","27","","","","","","","",""
"","","","","","","","","","","","html-button-response","61","2.0.0","737585","670e3e1821e1e62133cfe0a9","1","19","1652","","","","","","","","","<img src= ""rock_img/I_Pumice_09.jpg"" style=""width:8cm; height:6.44cm;""><p>What type of rock is this?</p>","3","class_response","0","test","28","Gabbro","Pumice","09","false","4","8","",""
"","","","","","","","","","","","html-keyboard-response","62","2.0.0","738095","670e3e1821e1e62133cfe0a9","1","19","null","","","","","","","","","<p style='font-size: 30px;'><strong>Okay</strong></p>","null","neutral_feedback","0","test","28","","","","","","","",""
"","","","","","","","","","","","html-button-response","63","2.0.0","740783","670e3e1821e1e62133cfe0a9","1","19","2685","","","","","","","","","<img src= ""rock_img/I_Gabbro_13.jpg"" style=""width:8cm; height:5.08cm;""><p>What type of rock is this?</p>","2","class_response","0","test","29","Diorite","Gabbro","13","false","3","4","",""
"","","","","","","","","","","","html-keyboard-response","64","2.0.0","741289","670e3e1821e1e62133cfe0a9","1","19","null","","","","","","","","","<p style='font-size: 30px;'><strong>Okay</strong></p>","null","neutral_feedback","0","test","29","","","","","","","",""
"","","","","","","","","","","","html-button-response","65","2.0.0","743214","670e3e1821e1e62133cfe0a9","1","19","1922","","","","","","","","","<img src= ""rock_img/I_Andesite_02.jpg"" style=""width:8cm; height:8.5cm;""><p>What type of rock is this?</p>","5","class_response","0","test","30","Pegmatite","Andesite","02","false","6","1","",""
"","","","","","","","","","","","html-keyboard-response","66","2.0.0","743727","670e3e1821e1e62133cfe0a9","1","19","null","","","","","","","","","<p style='font-size: 30px;'><strong>Okay</strong></p>","null","neutral_feedback","0","test","30","","","","","","","",""
"","","","","","","","","","","","html-button-response","67","2.0.0","745064","670e3e1821e1e62133cfe0a9","1","19","1334","","","","","","","","","<img src= ""rock_img/I_Diorite_13.jpg"" style=""width:8cm; height:6.29cm;""><p>What type of rock is this?</p>","6","class_response","0","test","31","Peridotite","Diorite","13","false","7","3","",""
"","","","","","","","","","","","html-keyboard-response","68","2.0.0","745572","670e3e1821e1e62133cfe0a9","1","19","null","","","","","","","","","<p style='font-size: 30px;'><strong>Okay</strong></p>","null","neutral_feedback","0","test","31","","","","","","","",""
"","","","","","","","","","","","html-button-response","69","2.0.0","747027","670e3e1821e1e62133cfe0a9","1","19","1453","","","","","","","","","<img src= ""rock_img/I_Andesite_11.jpg"" style=""width:8cm; height:4.92cm;""><p>What type of rock is this?</p>","1","class_response","0","test","32","Basalt","Andesite","11","false","2","1","",""
"","","","","","","","","","","","html-keyboard-response","70","2.0.0","747533","670e3e1821e1e62133cfe0a9","1","19","null","","","","","","","","","<p style='font-size: 30px;'><strong>Okay</strong></p>","null","neutral_feedback","0","test","32","","","","","","","",""
"","","","","","","","","","","","html-button-response","71","2.0.0","749832","670e3e1821e1e62133cfe0a9","1","19","2296","","","","","","","","","<img src= ""rock_img/I_Diorite_12.jpg"" style=""width:8cm; height:4.88cm;""><p>What type of rock is this?</p>","6","class_response","0","test","33","Peridotite","Diorite","12","false","7","3","",""
"","","","","","","","","","","","html-keyboard-response","72","2.0.0","750348","670e3e1821e1e62133cfe0a9","1","19","null","","","","","","","","","<p style='font-size: 30px;'><strong>Okay</strong></p>","null","neutral_feedback","0","test","33","","","","","","","",""
"","","","","","","","","","","","html-button-response","73","2.0.0","753753","670e3e1821e1e62133cfe0a9","1","19","3401","","","","","","","","","<img src= ""rock_img/I_Basalt_06.jpg"" style=""width:8cm; height:7.06cm;""><p>What type of rock is this?</p>","0","class_response","0","test","34","Andesite","Basalt","06","false","1","2","",""
"","","","","","","","","","","","html-keyboard-response","74","2.0.0","754268","670e3e1821e1e62133cfe0a9","1","19","null","","","","","","","","","<p style='font-size: 30px;'><strong>Okay</strong></p>","null","neutral_feedback","0","test","34","","","","","","","",""
"","","","","","","","","","","","html-button-response","75","2.0.0","755788","670e3e1821e1e62133cfe0a9","1","19","1518","","","","","","","","","<img src= ""rock_img/I_Peridotite_08.jpg"" style=""width:8cm; height:6.7cm;""><p>What type of rock is this?</p>","2","class_response","0","test","35","Diorite","Peridotite","08","false","3","7","",""
"","","","","","","","","","","","html-keyboard-response","76","2.0.0","756293","670e3e1821e1e62133cfe0a9","1","19","null","","","","","","","","","<p style='font-size: 30px;'><strong>Okay</strong></p>","null","neutral_feedback","0","test","35","","","","","","","",""
"","","","","","","","","","","","html-button-response","77","2.0.0","757764","670e3e1821e1e62133cfe0a9","1","19","1467","","","","","","","","","<img src= ""rock_img/I_Obsidian_08.jpg"" style=""width:8cm; height:7.39cm;""><p>What type of rock is this?</p>","4","class_response","0","test","36","Obsidian","Obsidian","08","true","5","5","",""
"","","","","","","","","","","","html-keyboard-response","78","2.0.0","758273","670e3e1821e1e62133cfe0a9","1","19","null","","","","","","","","","<p style='font-size: 30px;'><strong>Okay</strong></p>","null","neutral_feedback","0","test","36","","","","","","","",""
"","","","","","","","","","","","html-button-response","79","2.0.0","760520","670e3e1821e1e62133cfe0a9","1","19","2245","","","","","","","","","<img src= ""rock_img/I_Basalt_04.jpg"" style=""width:8cm; height:7.53cm;""><p>What type of rock is this?</p>","1","class_response","0","test","37","Basalt","Basalt","04","true","2","2","",""
"","","","","","","","","","","","html-keyboard-response","80","2.0.0","761026","670e3e1821e1e62133cfe0a9","1","19","null","","","","","","","","","<p style='font-size: 30px;'><strong>Okay</strong></p>","null","neutral_feedback","0","test","37","","","","","","","",""
"","","","","","","","","","","","html-button-response","81","2.0.0","762214","670e3e1821e1e62133cfe0a9","1","19","1187","","","","","","","","","<img src= ""rock_img/I_Peridotite_12.jpg"" style=""width:8cm; height:4.54cm;""><p>What type of rock is this?</p>","5","class_response","0","test","38","Pegmatite","Peridotite","12","false","6","7","",""
"","","","","","","","","","","","html-keyboard-response","82","2.0.0","762721","670e3e1821e1e62133cfe0a9","1","19","null","","","","","","","","","<p style='font-size: 30px;'><strong>Okay</strong></p>","null","neutral_feedback","0","test","38","","","","","","","",""
"","","","","","","","","","","","html-button-response","83","2.0.0","764688","670e3e1821e1e62133cfe0a9","1","19","1966","","","","","","","","","<img src= ""rock_img/I_Basalt_14.jpg"" style=""width:8cm; height:5.82cm;""><p>What type of rock is this?</p>","7","class_response","0","test","39","Pumice","Basalt","14","false","8","2","",""
"","","","","","","","","","","","html-keyboard-response","84","2.0.0","765199","670e3e1821e1e62133cfe0a9","1","19","null","","","","","","","","","<p style='font-size: 30px;'><strong>Okay</strong></p>","null","neutral_feedback","0","test","39","","","","","","","",""
"","","","","","","","","","","","html-button-response","85","2.0.0","766777","670e3e1821e1e62133cfe0a9","1","19","1576","","","","","","","","","<img src= ""rock_img/I_Pumice_15.jpg"" style=""width:8cm; height:7.86cm;""><p>What type of rock is this?</p>","7","class_response","0","test","40","Pumice","Pumice","15","true","8","8","",""
"","","","","","","","","","","","html-keyboard-response","86","2.0.0","767284","670e3e1821e1e62133cfe0a9","1","19","null","","","","","","","","","<p style='font-size: 30px;'><strong>Okay</strong></p>","null","neutral_feedback","0","test","40","","","","","","","",""
"","","","","","","","","","","","html-button-response","87","2.0.0","768997","670e3e1821e1e62133cfe0a9","1","19","1710","","","","","","","","","<img src= ""rock_img/I_Diorite_16.jpg"" style=""width:8cm; height:6.74cm;""><p>What type of rock is this?</p>","2","class_response","0","test","41","Diorite","Diorite","16","true","3","3","",""
"","","","","","","","","","","","html-keyboard-response","88","2.0.0","769503","670e3e1821e1e62133cfe0a9","1","19","null","","","","","","","","","<p style='font-size: 30px;'><strong>Okay</strong></p>","null","neutral_feedback","0","test","41","","","","","","","",""
"","","","","","","","","","","","html-button-response","89","2.0.0","770813","670e3e1821e1e62133cfe0a9","1","19","1307","","","","","","","","","<img src= ""rock_img/I_Diorite_08.jpg"" style=""width:8cm; height:6.37cm;""><p>What type of rock is this?</p>","2","class_response","0","test","42","Diorite","Diorite","08","true","3","3","",""
"","","","","","","","","","","","html-keyboard-response","90","2.0.0","771317","670e3e1821e1e62133cfe0a9","1","19","null","","","","","","","","","<p style='font-size: 30px;'><strong>Okay</strong></p>","null","neutral_feedback","0","test","42","","","","","","","",""
"","","","","","","","","","","","html-button-response","91","2.0.0","772770","670e3e1821e1e62133cfe0a9","1","19","1451","","","","","","","","","<img src= ""rock_img/I_Peridotite_05.jpg"" style=""width:8cm; height:7.1499999999999995cm;""><p>What type of rock is this?</p>","1","class_response","0","test","43","Basalt","Peridotite","05","false","2","7","",""
"","","","","","","","","","","","html-keyboard-response","92","2.0.0","773275","670e3e1821e1e62133cfe0a9","1","19","null","","","","","","","","","<p style='font-size: 30px;'><strong>Okay</strong></p>","null","neutral_feedback","0","test","43","","","","","","","",""
"","","","","","","","","","","","html-button-response","93","2.0.0","774677","670e3e1821e1e62133cfe0a9","1","19","1398","","","","","","","","","<img src= ""rock_img/I_Obsidian_04.jpg"" style=""width:8cm; height:6.930000000000001cm;""><p>What type of rock is this?</p>","4","class_response","0","test","44","Obsidian","Obsidian","04","true","5","5","",""
"","","","","","","","","","","","html-keyboard-response","94","2.0.0","775180","670e3e1821e1e62133cfe0a9","1","19","null","","","","","","","","","<p style='font-size: 30px;'><strong>Okay</strong></p>","null","neutral_feedback","0","test","44","","","","","","","",""
"","","","","","","","","","","","html-button-response","95","2.0.0","777402","670e3e1821e1e62133cfe0a9","1","19","2220","","","","","","","","","<img src= ""rock_img/I_Pegmatite_08.jpg"" style=""width:8cm; height:7.68cm;""><p>What type of rock is this?</p>","5","class_response","0","test","45","Pegmatite","Pegmatite","08","true","6","6","",""
"","","","","","","","","","","","html-keyboard-response","96","2.0.0","777916","670e3e1821e1e62133cfe0a9","1","19","null","","","","","","","","","<p style='font-size: 30px;'><strong>Okay</strong></p>","null","neutral_feedback","0","test","45","","","","","","","",""
"","","","","","","","","","","","html-button-response","97","2.0.0","779206","670e3e1821e1e62133cfe0a9","1","19","1288","","","","","","","","","<img src= ""rock_img/I_Gabbro_03.jpg"" style=""width:8cm; height:8.52cm;""><p>What type of rock is this?</p>","1","class_response","0","test","46","Basalt","Gabbro","03","false","2","4","",""
"","","","","","","","","","","","html-keyboard-response","98","2.0.0","779715","670e3e1821e1e62133cfe0a9","1","19","null","","","","","","","","","<p style='font-size: 30px;'><strong>Okay</strong></p>","null","neutral_feedback","0","test","46","","","","","","","",""
"","","","","","","","","","","","html-button-response","99","2.0.0","782691","670e3e1821e1e62133cfe0a9","1","19","2974","","","","","","","","","<img src= ""rock_img/I_Gabbro_09.jpg"" style=""width:8cm; height:7.279999999999999cm;""><p>What type of rock is this?</p>","2","class_response","0","test","47","Diorite","Gabbro","09","false","3","4","",""
"","","","","","","","","","","","html-keyboard-response","100","2.0.0","783201","670e3e1821e1e62133cfe0a9","1","19","null","","","","","","","","","<p style='font-size: 30px;'><strong>Okay</strong></p>","null","neutral_feedback","0","test","47","","","","","","","",""
"","","","","","","","","","","","html-button-response","101","2.0.0","785672","670e3e1821e1e62133cfe0a9","1","19","2469","","","","","","","","","<img src= ""rock_img/I_Pegmatite_03.jpg"" style=""width:8cm; height:5.239999999999999cm;""><p>What type of rock is this?</p>","5","class_response","0","test","48","Pegmatite","Pegmatite","03","true","6","6","",""
"","","","","","","","","","","","html-keyboard-response","102","2.0.0","786176","670e3e1821e1e62133cfe0a9","1","19","null","","","","","","","","","<p style='font-size: 30px;'><strong>Okay</strong></p>","null","neutral_feedback","0","test","48","","","","","","","",""
"","","","","","","","","","","","instructions","103","2.0.0","924055","670e3e1821e1e62133cfe0a9","1","19","137859","","","","","","","","[{""page_index"":0,""viewing_time"":94016},{""page_index"":1,""viewing_time"":16949},{""page_index"":2,""viewing_time"":26894}]","","","","","","","","","","","","","",""
"","","","","","","","","","","","html-button-response","104","2.0.0","926516","670e3e1821e1e62133cfe0a9","1","19","2458","","","","","","","","","","0","start_train","","","","","","","","","","",""
"","","","","","","","","","","","html-button-response","105","2.0.0","929172","670e3e1821e1e62133cfe0a9","1","19","2654","","","","","","","","","<img src= ""rock_img/I_Basalt_05.jpg"" style=""width:8cm; height:8.18cm;""><p>What type of rock is this?</p>","1","class_response","1","train","1","Basalt","Basalt","05","true","2","2","",""
"","","","","","","","","","","","html-button-response","106","2.0.0","932845","670e3e1821e1e62133cfe0a9","1","19","3670","","","","","","","","","<img src= rock_img/I_Basalt_05.jpg style=""width:8cm; height:8.18cm;""><p style='font-size: 30px; color: green;'><strong>Correct!</strong></p><p style='font-size: 30px;'><strong>This rock is basalt</strong></p>","0","corr_feedback","1","train","1","","","","","","","",""
"","","","","","","","","","","","html-button-response","107","2.0.0","934718","670e3e1821e1e62133cfe0a9","1","19","1869","","","","","","","","","<img src= ""rock_img/I_Pumice_03.jpg"" style=""width:8cm; height:6.64cm;""><p>What type of rock is this?</p>","7","class_response","1","train","2","Pumice","Pumice","03","true","8","8","",""
"","","","","","","","","","","","html-button-response","108","2.0.0","937074","670e3e1821e1e62133cfe0a9","1","19","2354","","","","","","","","","<img src= rock_img/I_Pumice_03.jpg style=""width:8cm; height:6.64cm;""><p style='font-size: 30px; color: green;'><strong>Correct!</strong></p><p style='font-size: 30px;'><strong>This rock is pumice</strong></p>","0","corr_feedback","1","train","2","","","","","","","",""
"","","","","","","","","","","","html-button-response","109","2.0.0","939634","670e3e1821e1e62133cfe0a9","1","19","2558","","","","","","","","","<img src= ""rock_img/I_Diorite_07.jpg"" style=""width:8cm; height:5.239999999999999cm;""><p>What type of rock is this?</p>","2","class_response","1","train","3","Diorite","Diorite","07","true","3","3","",""
"","","","","","","","","","","","html-button-response","110","2.0.0","942467","670e3e1821e1e62133cfe0a9","1","19","2830","","","","","","","","","<img src= rock_img/I_Diorite_07.jpg style=""width:8cm; height:5.239999999999999cm;""><p style='font-size: 30px; color: green;'><strong>Correct!</strong></p><p style='font-size: 30px;'><strong>This rock is diorite</strong></p>","0","corr_feedback","1","train","3","","","","","","","",""
"","","","","","","","","","","","html-button-response","111","2.0.0","944158","670e3e1821e1e62133cfe0a9","1","19","1688","","","","","","","","","<img src= ""rock_img/I_Obsidian_10.jpg"" style=""width:8cm; height:6.260000000000001cm;""><p>What type of rock is this?</p>","4","class_response","1","train","4","Obsidian","Obsidian","10","true","5","5","",""
"","","","","","","","","","","","html-button-response","112","2.0.0","946804","670e3e1821e1e62133cfe0a9","1","19","2644","","","","","","","","","<img src= rock_img/I_Obsidian_10.jpg style=""width:8cm; height:6.260000000000001cm;""><p style='font-size: 30px; color: green;'><strong>Correct!</strong></p><p style='font-size: 30px;'><strong>This rock is obsidian</strong></p>","0","corr_feedback","1","train","4","","","","","","","",""
"","","","","","","","","","","","html-button-response","113","2.0.0","949898","670e3e1821e1e62133cfe0a9","1","19","3091","","","","","","","","","<img src= ""rock_img/I_Peridotite_04.jpg"" style=""width:8cm; height:6.680000000000001cm;""><p>What type of rock is this?</p>","5","class_response","1","train","5","Pegmatite","Peridotite","04","false","6","7","",""
"","","","","","","","","","","","html-button-response","114","2.0.0","954095","670e3e1821e1e62133cfe0a9","1","19","4194","","","","","","","","","<img src= rock_img/I_Peridotite_04.jpg style=""width:8cm; height:6.680000000000001cm;""><p style='font-size: 30px; color: red;'><strong>Incorrect!</strong></p><p style='font-size: 30px;'><strong>This rock is peridotite</strong></p>","0","corr_feedback","1","train","5","","","","","","","",""
"","","","","","","","","","","","html-button-response","115","2.0.0","956516","670e3e1821e1e62133cfe0a9","1","19","2419","","","","","","","","","<img src= ""rock_img/I_Obsidian_05.jpg"" style=""width:8cm; height:6.33cm;""><p>What type of rock is this?</p>","4","class_response","1","train","6","Obsidian","Obsidian","05","true","5","5","",""
"","","","","","","","","","","","html-button-response","116","2.0.0","958450","670e3e1821e1e62133cfe0a9","1","19","1932","","","","","","","","","<img src= rock_img/I_Obsidian_05.jpg style=""width:8cm; height:6.33cm;""><p style='font-size: 30px; color: green;'><strong>Correct!</strong></p><p style='font-size: 30px;'><strong>This rock is obsidian</strong></p>","0","corr_feedback","1","train","6","","","","","","","",""
"","","","","","","","","","","","html-button-response","117","2.0.0","962700","670e3e1821e1e62133cfe0a9","1","19","4248","","","","","","","","","<img src= ""rock_img/I_Pegmatite_06.jpg"" style=""width:8cm; height:5.17cm;""><p>What type of rock is this?</p>","5","class_response","1","train","7","Pegmatite","Pegmatite","06","true","6","6","",""
"","","","","","","","","","","","html-button-response","118","2.0.0","964764","670e3e1821e1e62133cfe0a9","1","19","2062","","","","","","","","","<img src= rock_img/I_Pegmatite_06.jpg style=""width:8cm; height:5.17cm;""><p style='font-size: 30px; color: green;'><strong>Correct!</strong></p><p style='font-size: 30px;'><strong>This rock is pegmatite</strong></p>","0","corr_feedback","1","train","7","","","","","","","",""
"","","","","","","","","","","","html-button-response","119","2.0.0","966325","670e3e1821e1e62133cfe0a9","1","19","1559","","","","","","","","","<img src= ""rock_img/I_Obsidian_02.jpg"" style=""width:8cm; height:7.51cm;""><p>What type of rock is this?</p>","4","class_response","1","train","8","Obsidian","Obsidian","02","true","5","5","",""
"","","","","","","","","","","","html-button-response","120","2.0.0","968042","670e3e1821e1e62133cfe0a9","1","19","1715","","","","","","","","","<img src= rock_img/I_Obsidian_02.jpg style=""width:8cm; height:7.51cm;""><p style='font-size: 30px; color: green;'><strong>Correct!</strong></p><p style='font-size: 30px;'><strong>This rock is obsidian</strong></p>","0","corr_feedback","1","train","8","","","","","","","",""
"","","","","","","","","","","","html-button-response","121","2.0.0","974317","670e3e1821e1e62133cfe0a9","1","19","6273","","","","","","","","","<img src= ""rock_img/I_Andesite_01.jpg"" style=""width:8cm; height:5.87cm;""><p>What type of rock is this?</p>","0","class_response","1","train","9","Andesite","Andesite","01","true","1","1","",""
"","","","","","","","","","","","html-button-response","122","2.0.0","977131","670e3e1821e1e62133cfe0a9","1","19","2812","","","","","","","","","<img src= rock_img/I_Andesite_01.jpg style=""width:8cm; height:5.87cm;""><p style='font-size: 30px; color: green;'><strong>Correct!</strong></p><p style='font-size: 30px;'><strong>This rock is andesite</strong></p>","0","corr_feedback","1","train","9","","","","","","","",""
"","","","","","","","","","","","html-button-response","123","2.0.0","980895","670e3e1821e1e62133cfe0a9","1","19","3761","","","","","","","","","<img src= ""rock_img/I_Diorite_15.jpg"" style=""width:8cm; height:5.54cm;""><p>What type of rock is this?</p>","3","class_response","1","train","10","Gabbro","Diorite","15","false","4","3","",""
"","","","","","","","","","","","html-button-response","124","2.0.0","983345","670e3e1821e1e62133cfe0a9","1","19","2449","","","","","","","","","<img src= rock_img/I_Diorite_15.jpg style=""width:8cm; height:5.54cm;""><p style='font-size: 30px; color: red;'><strong>Incorrect!</strong></p><p style='font-size: 30px;'><strong>This rock is diorite</strong></p>","0","corr_feedback","1","train","10","","","","","","","",""
"","","","","","","","","","","","html-button-response","125","2.0.0","986545","670e3e1821e1e62133cfe0a9","1","19","3198","","","","","","","","","<img src= ""rock_img/I_Basalt_08.jpg"" style=""width:8cm; height:10.44cm;""><p>What type of rock is this?</p>","1","class_response","1","train","11","Basalt","Basalt","08","true","2","2","",""
"","","","","","","","","","","","html-button-response","126","2.0.0","988230","670e3e1821e1e62133cfe0a9","1","19","1683","","","","","","","","","<img src= rock_img/I_Basalt_08.jpg style=""width:8cm; height:10.44cm;""><p style='font-size: 30px; color: green;'><strong>Correct!</strong></p><p style='font-size: 30px;'><strong>This rock is basalt</strong></p>","0","corr_feedback","1","train","11","","","","","","","",""
"","","","","","","","","","","","html-button-response","127","2.0.0","993336","670e3e1821e1e62133cfe0a9","1","19","5104","","","","","","","","","<img src= ""rock_img/I_Gabbro_08.jpg"" style=""width:8cm; height:5.15cm;""><p>What type of rock is this?</p>","2","class_response","1","train","12","Diorite","Gabbro","08","false","3","4","",""
"","","","","","","","","","","","html-button-response","128","2.0.0","995233","670e3e1821e1e62133cfe0a9","1","19","1895","","","","","","","","","<img src= rock_img/I_Gabbro_08.jpg style=""width:8cm; height:5.15cm;""><p style='font-size: 30px; color: red;'><strong>Incorrect!</strong></p><p style='font-size: 30px;'><strong>This rock is gabbro</strong></p>","0","corr_feedback","1","train","12","","","","","","","",""
"","","","","","","","","","","","html-button-response","129","2.0.0","1004315","670e3e1821e1e62133cfe0a9","1","19","9080","","","","","","","","","<img src= ""rock_img/I_Gabbro_16.jpg"" style=""width:8cm; height:6.44cm;""><p>What type of rock is this?</p>","2","class_response","1","train","13","Diorite","Gabbro","16","false","3","4","",""
"","","","","","","","","","","","html-button-response","130","2.0.0","1006028","670e3e1821e1e62133cfe0a9","1","19","1710","","","","","","","","","<img src= rock_img/I_Gabbro_16.jpg style=""width:8cm; height:6.44cm;""><p style='font-size: 30px; color: red;'><strong>Incorrect!</strong></p><p style='font-size: 30px;'><strong>This rock is gabbro</strong></p>","0","corr_feedback","1","train","13","","","","","","","",""
"","","","","","","","","","","","html-button-response","131","2.0.0","1008408","670e3e1821e1e62133cfe0a9","1","19","2379","","","","","","","","","<img src= ""rock_img/I_Pumice_10.jpg"" style=""width:8cm; height:7.609999999999999cm;""><p>What type of rock is this?</p>","7","class_response","1","train","14","Pumice","Pumice","10","true","8","8","",""
"","","","","","","","","","","","html-button-response","132","2.0.0","1010126","670e3e1821e1e62133cfe0a9","1","19","1716","","","","","","","","","<img src= rock_img/I_Pumice_10.jpg style=""width:8cm; height:7.609999999999999cm;""><p style='font-size: 30px; color: green;'><strong>Correct!</strong></p><p style='font-size: 30px;'><strong>This rock is pumice</strong></p>","0","corr_feedback","1","train","14","","","","","","","",""
"","","","","","","","","","","","html-button-response","133","2.0.0","1014629","670e3e1821e1e62133cfe0a9","1","19","4500","","","","","","","","","<img src= ""rock_img/I_Gabbro_15.jpg"" style=""width:8cm; height:6.29cm;""><p>What type of rock is this?</p>","3","class_response","1","train","15","Gabbro","Gabbro","15","true","4","4","",""
"","","","","","","","","","","","html-button-response","134","2.0.0","1016297","670e3e1821e1e62133cfe0a9","1","19","1667","","","","","","","","","<img src= rock_img/I_Gabbro_15.jpg style=""width:8cm; height:6.29cm;""><p style='font-size: 30px; color: green;'><strong>Correct!</strong></p><p style='font-size: 30px;'><strong>This rock is gabbro</strong></p>","0","corr_feedback","1","train","15","","","","","","","",""
"","","","","","","","","","","","html-button-response","135","2.0.0","1022329","670e3e1821e1e62133cfe0a9","1","19","6030","","","","","","","","","<img src= ""rock_img/I_Gabbro_05.jpg"" style=""width:8cm; height:6cm;""><p>What type of rock is this?</p>","2","class_response","1","train","16","Diorite","Gabbro","05","false","3","4","",""
"","","","","","","","","","","","html-button-response","136","2.0.0","1024152","670e3e1821e1e62133cfe0a9","1","19","1820","","","","","","","","","<img src= rock_img/I_Gabbro_05.jpg style=""width:8cm; height:6cm;""><p style='font-size: 30px; color: red;'><strong>Incorrect!</strong></p><p style='font-size: 30px;'><strong>This rock is gabbro</strong></p>","0","corr_feedback","1","train","16","","","","","","","",""
"","","","","","","","","","","","html-button-response","137","2.0.0","1031546","670e3e1821e1e62133cfe0a9","1","19","7391","","","","","","","","","<img src= ""rock_img/I_Gabbro_11.jpg"" style=""width:8cm; height:6.2cm;""><p>What type of rock is this?</p>","2","class_response","1","train","17","Diorite","Gabbro","11","false","3","4","",""
"","","","","","","","","","","","html-button-response","138","2.0.0","1033037","670e3e1821e1e62133cfe0a9","1","19","1489","","","","","","","","","<img src= rock_img/I_Gabbro_11.jpg style=""width:8cm; height:6.2cm;""><p style='font-size: 30px; color: red;'><strong>Incorrect!</strong></p><p style='font-size: 30px;'><strong>This rock is gabbro</strong></p>","0","corr_feedback","1","train","17","","","","","","","",""
"","","","","","","","","","","","html-button-response","139","2.0.0","1037501","670e3e1821e1e62133cfe0a9","1","19","4461","","","","","","","","","<img src= ""rock_img/I_Andesite_09.jpg"" style=""width:8cm; height:6cm;""><p>What type of rock is this?</p>","7","class_response","1","train","18","Pumice","Andesite","09","false","8","1","",""
"","","","","","","","","","","","html-button-response","140","2.0.0","1039456","670e3e1821e1e62133cfe0a9","1","19","1953","","","","","","","","","<img src= rock_img/I_Andesite_09.jpg style=""width:8cm; height:6cm;""><p style='font-size: 30px; color: red;'><strong>Incorrect!</strong></p><p style='font-size: 30px;'><strong>This rock is andesite</strong></p>","0","corr_feedback","1","train","18","","","","","","","",""
"","","","","","","","","","","","html-button-response","141","2.0.0","1043521","670e3e1821e1e62133cfe0a9","1","19","4063","","","","","","","","","<img src= ""rock_img/I_Basalt_16.jpg"" style=""width:8cm; height:7.659999999999999cm;""><p>What type of rock is this?</p>","1","class_response","1","train","19","Basalt","Basalt","16","true","2","2","",""
"","","","","","","","","","","","html-button-response","142","2.0.0","1045206","670e3e1821e1e62133cfe0a9","1","19","1683","","","","","","","","","<img src= rock_img/I_Basalt_16.jpg style=""width:8cm; height:7.659999999999999cm;""><p style='font-size: 30px; color: green;'><strong>Correct!</strong></p><p style='font-size: 30px;'><strong>This rock is basalt</strong></p>","0","corr_feedback","1","train","19","","","","","","","",""
"","","","","","","","","","","","html-button-response","143","2.0.0","1047362","670e3e1821e1e62133cfe0a9","1","19","2155","","","","","","","","","<img src= ""rock_img/I_Pumice_06.jpg"" style=""width:8cm; height:6.9399999999999995cm;""><p>What type of rock is this?</p>","7","class_response","1","train","20","Pumice","Pumice","06","true","8","8","",""
"","","","","","","","","","","","html-button-response","144","2.0.0","1048786","670e3e1821e1e62133cfe0a9","1","19","1422","","","","","","","","","<img src= rock_img/I_Pumice_06.jpg style=""width:8cm; height:6.9399999999999995cm;""><p style='font-size: 30px; color: green;'><strong>Correct!</strong></p><p style='font-size: 30px;'><strong>This rock is pumice</strong></p>","0","corr_feedback","1","train","20","","","","","","","",""
"","","","","","","","","","","","html-button-response","145","2.0.0","1051155","670e3e1821e1e62133cfe0a9","1","19","2367","","","","","","","","","<img src= ""rock_img/I_Pumice_04.jpg"" style=""width:8cm; height:6.819999999999999cm;""><p>What type of rock is this?</p>","7","class_response","1","train","21","Pumice","Pumice","04","true","8","8","",""
"","","","","","","","","","","","html-button-response","146","2.0.0","1052566","670e3e1821e1e62133cfe0a9","1","19","1408","","","","","","","","","<img src= rock_img/I_Pumice_04.jpg style=""width:8cm; height:6.819999999999999cm;""><p style='font-size: 30px; color: green;'><strong>Correct!</strong></p><p style='font-size: 30px;'><strong>This rock is pumice</strong></p>","0","corr_feedback","1","train","21","","","","","","","",""
"","","","","","","","","","","","html-button-response","147","2.0.0","1059566","670e3e1821e1e62133cfe0a9","1","19","6999","","","","","","","","","<img src= ""rock_img/I_Gabbro_12.jpg"" style=""width:8cm; height:7.800000000000001cm;""><p>What type of rock is this?</p>","6","class_response","1","train","22","Peridotite","Gabbro","12","false","7","4","",""
"","","","","","","","","","","","html-button-response","148","2.0.0","1061203","670e3e1821e1e62133cfe0a9","1","19","1634","","","","","","","","","<img src= rock_img/I_Gabbro_12.jpg style=""width:8cm; height:7.800000000000001cm;""><p style='font-size: 30px; color: red;'><strong>Incorrect!</strong></p><p style='font-size: 30px;'><strong>This rock is gabbro</strong></p>","0","corr_feedback","1","train","22","","","","","","","",""
"","","","","","","","","","","","html-button-response","149","2.0.0","1063244","670e3e1821e1e62133cfe0a9","1","19","2039","","","","","","","","","<img src= ""rock_img/I_Peridotite_10.jpg"" style=""width:8cm; height:5.390000000000001cm;""><p>What type of rock is this?</p>","2","class_response","1","train","23","Diorite","Peridotite","10","false","3","7","",""
"","","","","","","","","","","","html-button-response","150","2.0.0","1064937","670e3e1821e1e62133cfe0a9","1","19","1691","","","","","","","","","<img src= rock_img/I_Peridotite_10.jpg style=""width:8cm; height:5.390000000000001cm;""><p style='font-size: 30px; color: red;'><strong>Incorrect!</strong></p><p style='font-size: 30px;'><strong>This rock is peridotite</strong></p>","0","corr_feedback","1","train","23","","","","","","","",""
"","","","","","","","","","","","html-button-response","151","2.0.0","1067096","670e3e1821e1e62133cfe0a9","1","19","2156","","","","","","","","","<img src= ""rock_img/I_Andesite_16.jpg"" style=""width:8cm; height:6.010000000000001cm;""><p>What type of rock is this?</p>","2","class_response","1","train","24","Diorite","Andesite","16","false","3","1","",""
"","","","","","","","","","","","html-button-response","152","2.0.0","1068654","670e3e1821e1e62133cfe0a9","1","19","1556","","","","","","","","","<img src= rock_img/I_Andesite_16.jpg style=""width:8cm; height:6.010000000000001cm;""><p style='font-size: 30px; color: red;'><strong>Incorrect!</strong></p><p style='font-size: 30px;'><strong>This rock is andesite</strong></p>","0","corr_feedback","1","train","24","","","","","","","",""
"","","","","","","","","","","","html-button-response","153","2.0.0","1072295","670e3e1821e1e62133cfe0a9","1","19","3639","","","","","","","","","<img src= ""rock_img/I_Pegmatite_09.jpg"" style=""width:8cm; height:4.03cm;""><p>What type of rock is this?</p>","5","class_response","1","train","25","Pegmatite","Pegmatite","09","true","6","6","",""
"","","","","","","","","","","","html-button-response","154","2.0.0","1074459","670e3e1821e1e62133cfe0a9","1","19","2163","","","","","","","","","<img src= rock_img/I_Pegmatite_09.jpg style=""width:8cm; height:4.03cm;""><p style='font-size: 30px; color: green;'><strong>Correct!</strong></p><p style='font-size: 30px;'><strong>This rock is pegmatite</strong></p>","0","corr_feedback","1","train","25","","","","","","","",""
"","","","","","","","","","","","html-button-response","155","2.0.0","1076626","670e3e1821e1e62133cfe0a9","1","19","2164","","","","","","","","","<img src= ""rock_img/I_Pegmatite_07.jpg"" style=""width:8cm; height:6.7cm;""><p>What type of rock is this?</p>","5","class_response","1","train","26","Pegmatite","Pegmatite","07","true","6","6","",""
"","","","","","","","","","","","html-button-response","156","2.0.0","1078106","670e3e1821e1e62133cfe0a9","1","19","1477","","","","","","","","","<img src= rock_img/I_Pegmatite_07.jpg style=""width:8cm; height:6.7cm;""><p style='font-size: 30px; color: green;'><strong>Correct!</strong></p><p style='font-size: 30px;'><strong>This rock is pegmatite</strong></p>","0","corr_feedback","1","train","26","","","","","","","",""
"","","","","","","","","","","","html-button-response","157","2.0.0","1081001","670e3e1821e1e62133cfe0a9","1","19","2894","","","","","","","","","<img src= ""rock_img/I_Peridotite_13.jpg"" style=""width:8cm; height:7.58cm;""><p>What type of rock is this?</p>","2","class_response","1","train","27","Diorite","Peridotite","13","false","3","7","",""
"","","","","","","","","","","","html-button-response","158","2.0.0","1082837","670e3e1821e1e62133cfe0a9","1","19","1834","","","","","","","","","<img src= rock_img/I_Peridotite_13.jpg style=""width:8cm; height:7.58cm;""><p style='font-size: 30px; color: red;'><strong>Incorrect!</strong></p><p style='font-size: 30px;'><strong>This rock is peridotite</strong></p>","0","corr_feedback","1","train","27","","","","","","","",""
"","","","","","","","","","","","html-button-response","159","2.0.0","1085717","670e3e1821e1e62133cfe0a9","1","19","2878","","","","","","","","","<img src= ""rock_img/I_Andesite_06.jpg"" style=""width:8cm; height:6.840000000000001cm;""><p>What type of rock is this?</p>","0","class_response","1","train","28","Andesite","Andesite","06","true","1","1","",""
"","","","","","","","","","","","html-button-response","160","2.0.0","1087408","670e3e1821e1e62133cfe0a9","1","19","1688","","","","","","","","","<img src= rock_img/I_Andesite_06.jpg style=""width:8cm; height:6.840000000000001cm;""><p style='font-size: 30px; color: green;'><strong>Correct!</strong></p><p style='font-size: 30px;'><strong>This rock is andesite</strong></p>","0","corr_feedback","1","train","28","","","","","","","",""
"","","","","","","","","","","","html-button-response","161","2.0.0","1092451","670e3e1821e1e62133cfe0a9","1","19","5041","","","","","","","","","<img src= ""rock_img/I_Peridotite_14.jpg"" style=""width:8cm; height:5.3cm;""><p>What type of rock is this?</p>","2","class_response","1","train","29","Diorite","Peridotite","14","false","3","7","",""
"","","","","","","","","","","","html-button-response","162","2.0.0","1094223","670e3e1821e1e62133cfe0a9","1","19","1769","","","","","","","","","<img src= rock_img/I_Peridotite_14.jpg style=""width:8cm; height:5.3cm;""><p style='font-size: 30px; color: red;'><strong>Incorrect!</strong></p><p style='font-size: 30px;'><strong>This rock is peridotite</strong></p>","0","corr_feedback","1","train","29","","","","","","","",""
"","","","","","","","","","","","html-button-response","163","2.0.0","1101596","670e3e1821e1e62133cfe0a9","1","19","7371","","","","","","","","","<img src= ""rock_img/I_Peridotite_02.jpg"" style=""width:8cm; height:5.859999999999999cm;""><p>What type of rock is this?</p>","5","class_response","1","train","30","Pegmatite","Peridotite","02","false","6","7","",""
"","","","","","","","","","","","html-button-response","164","2.0.0","1103262","670e3e1821e1e62133cfe0a9","1","19","1664","","","","","","","","","<img src= rock_img/I_Peridotite_02.jpg style=""width:8cm; height:5.859999999999999cm;""><p style='font-size: 30px; color: red;'><strong>Incorrect!</strong></p><p style='font-size: 30px;'><strong>This rock is peridotite</strong></p>","0","corr_feedback","1","train","30","","","","","","","",""
"","","","","","","","","","","","html-button-response","165","2.0.0","1107607","670e3e1821e1e62133cfe0a9","1","19","4341","","","","","","","","","<img src= ""rock_img/I_Diorite_14.jpg"" style=""width:8cm; height:5.71cm;""><p>What type of rock is this?</p>","0","class_response","1","train","31","Andesite","Diorite","14","false","1","3","",""
"","","","","","","","","","","","html-button-response","166","2.0.0","1109392","670e3e1821e1e62133cfe0a9","1","19","1783","","","","","","","","","<img src= rock_img/I_Diorite_14.jpg style=""width:8cm; height:5.71cm;""><p style='font-size: 30px; color: red;'><strong>Incorrect!</strong></p><p style='font-size: 30px;'><strong>This rock is diorite</strong></p>","0","corr_feedback","1","train","31","","","","","","","",""
"","","","","","","","","","","","html-button-response","167","2.0.0","1111280","670e3e1821e1e62133cfe0a9","1","19","1886","","","","","","","","","<img src= ""rock_img/I_Pumice_16.jpg"" style=""width:8cm; height:6.79cm;""><p>What type of rock is this?</p>","7","class_response","1","train","32","Pumice","Pumice","16","true","8","8","",""
"","","","","","","","","","","","html-button-response","168","2.0.0","1112799","670e3e1821e1e62133cfe0a9","1","19","1517","","","","","","","","","<img src= rock_img/I_Pumice_16.jpg style=""width:8cm; height:6.79cm;""><p style='font-size: 30px; color: green;'><strong>Correct!</strong></p><p style='font-size: 30px;'><strong>This rock is pumice</strong></p>","0","corr_feedback","1","train","32","","","","","","","",""
"","","","","","","","","","","","html-button-response","169","2.0.0","1114384","670e3e1821e1e62133cfe0a9","1","19","1582","","","","","","","","","<img src= ""rock_img/I_Obsidian_12.jpg"" style=""width:8cm; height:6.53cm;""><p>What type of rock is this?</p>","4","class_response","1","train","33","Obsidian","Obsidian","12","true","5","5","",""
"","","","","","","","","","","","html-button-response","170","2.0.0","1115960","670e3e1821e1e62133cfe0a9","1","19","1574","","","","","","","","","<img src= rock_img/I_Obsidian_12.jpg style=""width:8cm; height:6.53cm;""><p style='font-size: 30px; color: green;'><strong>Correct!</strong></p><p style='font-size: 30px;'><strong>This rock is obsidian</strong></p>","0","corr_feedback","1","train","33","","","","","","","",""
"","","","","","","","","","","","html-button-response","171","2.0.0","1117783","670e3e1821e1e62133cfe0a9","1","19","1821","","","","","","","","","<img src= ""rock_img/I_Basalt_02.jpg"" style=""width:8cm; height:6.45cm;""><p>What type of rock is this?</p>","1","class_response","1","train","34","Basalt","Basalt","02","true","2","2","",""
"","","","","","","","","","","","html-button-response","172","2.0.0","1119213","670e3e1821e1e62133cfe0a9","1","19","1428","","","","","","","","","<img src= rock_img/I_Basalt_02.jpg style=""width:8cm; height:6.45cm;""><p style='font-size: 30px; color: green;'><strong>Correct!</strong></p><p style='font-size: 30px;'><strong>This rock is basalt</strong></p>","0","corr_feedback","1","train","34","","","","","","","",""
"","","","","","","","","","","","html-button-response","173","2.0.0","1121137","670e3e1821e1e62133cfe0a9","1","19","1921","","","","","","","","","<img src= ""rock_img/I_Obsidian_14.jpg"" style=""width:8cm; height:7.64cm;""><p>What type of rock is this?</p>","4","class_response","1","train","35","Obsidian","Obsidian","14","true","5","5","",""
"","","","","","","","","","","","html-button-response","174","2.0.0","1122705","670e3e1821e1e62133cfe0a9","1","19","1565","","","","","","","","","<img src= rock_img/I_Obsidian_14.jpg style=""width:8cm; height:7.64cm;""><p style='font-size: 30px; color: green;'><strong>Correct!</strong></p><p style='font-size: 30px;'><strong>This rock is obsidian</strong></p>","0","corr_feedback","1","train","35","","","","","","","",""
"","","","","","","","","","","","html-button-response","175","2.0.0","1126250","670e3e1821e1e62133cfe0a9","1","19","3543","","","","","","","","","<img src= ""rock_img/I_Andesite_05.jpg"" style=""width:8cm; height:4.12cm;""><p>What type of rock is this?</p>","0","class_response","1","train","36","Andesite","Andesite","05","true","1","1","",""
"","","","","","","","","","","","html-button-response","176","2.0.0","1127817","670e3e1821e1e62133cfe0a9","1","19","1564","","","","","","","","","<img src= rock_img/I_Andesite_05.jpg style=""width:8cm; height:4.12cm;""><p style='font-size: 30px; color: green;'><strong>Correct!</strong></p><p style='font-size: 30px;'><strong>This rock is andesite</strong></p>","0","corr_feedback","1","train","36","","","","","","","",""
"","","","","","","","","","","","html-button-response","177","2.0.0","1129777","670e3e1821e1e62133cfe0a9","1","19","1958","","","","","","","","","<img src= ""rock_img/I_Andesite_03.jpg"" style=""width:8cm; height:5.73cm;""><p>What type of rock is this?</p>","3","class_response","1","train","37","Gabbro","Andesite","03","false","4","1","",""
"","","","","","","","","","","","html-button-response","178","2.0.0","1131438","670e3e1821e1e62133cfe0a9","1","19","1659","","","","","","","","","<img src= rock_img/I_Andesite_03.jpg style=""width:8cm; height:5.73cm;""><p style='font-size: 30px; color: red;'><strong>Incorrect!</strong></p><p style='font-size: 30px;'><strong>This rock is andesite</strong></p>","0","corr_feedback","1","train","37","","","","","","","",""
"","","","","","","","","","","","html-button-response","179","2.0.0","1139404","670e3e1821e1e62133cfe0a9","1","19","7963","","","","","","","","","<img src= ""rock_img/I_Diorite_11.jpg"" style=""width:8cm; height:7.11cm;""><p>What type of rock is this?</p>","5","class_response","1","train","38","Pegmatite","Diorite","11","false","6","3","",""
"","","","","","","","","","","","html-button-response","180","2.0.0","1140822","670e3e1821e1e62133cfe0a9","1","19","1414","","","","","","","","","<img src= rock_img/I_Diorite_11.jpg style=""width:8cm; height:7.11cm;""><p style='font-size: 30px; color: red;'><strong>Incorrect!</strong></p><p style='font-size: 30px;'><strong>This rock is diorite</strong></p>","0","corr_feedback","1","train","38","","","","","","","",""
"","","","","","","","","","","","html-button-response","181","2.0.0","1143084","670e3e1821e1e62133cfe0a9","1","19","2259","","","","","","","","","<img src= ""rock_img/I_Diorite_06.jpg"" style=""width:8cm; height:6.03cm;""><p>What type of rock is this?</p>","2","class_response","1","train","39","Diorite","Diorite","06","true","3","3","",""
"","","","","","","","","","","","html-button-response","182","2.0.0","1144501","670e3e1821e1e62133cfe0a9","1","19","1415","","","","","","","","","<img src= rock_img/I_Diorite_06.jpg style=""width:8cm; height:6.03cm;""><p style='font-size: 30px; color: green;'><strong>Correct!</strong></p><p style='font-size: 30px;'><strong>This rock is diorite</strong></p>","0","corr_feedback","1","train","39","","","","","","","",""
"","","","","","","","","","","","html-button-response","183","2.0.0","1146347","670e3e1821e1e62133cfe0a9","1","19","1845","","","","","","","","","<img src= ""rock_img/I_Pegmatite_12.jpg"" style=""width:8cm; height:5.7cm;""><p>What type of rock is this?</p>","5","class_response","1","train","40","Pegmatite","Pegmatite","12","true","6","6","",""
"","","","","","","","","","","","html-button-response","184","2.0.0","1147909","670e3e1821e1e62133cfe0a9","1","19","1560","","","","","","","","","<img src= rock_img/I_Pegmatite_12.jpg style=""width:8cm; height:5.7cm;""><p style='font-size: 30px; color: green;'><strong>Correct!</strong></p><p style='font-size: 30px;'><strong>This rock is pegmatite</strong></p>","0","corr_feedback","1","train","40","","","","","","","",""
"","","","","","","","","","","","html-button-response","185","2.0.0","1150748","670e3e1821e1e62133cfe0a9","1","19","2836","","","","","","","","","<img src= ""rock_img/I_Basalt_11.jpg"" style=""width:8cm; height:5.359999999999999cm;""><p>What type of rock is this?</p>","1","class_response","1","train","41","Basalt","Basalt","11","true","2","2","",""
"","","","","","","","","","","","html-button-response","186","2.0.0","1152298","670e3e1821e1e62133cfe0a9","1","19","1549","","","","","","","","","<img src= rock_img/I_Basalt_11.jpg style=""width:8cm; height:5.359999999999999cm;""><p style='font-size: 30px; color: green;'><strong>Correct!</strong></p><p style='font-size: 30px;'><strong>This rock is basalt</strong></p>","0","corr_feedback","1","train","41","","","","","","","",""
"","","","","","","","","","","","html-button-response","187","2.0.0","1155233","670e3e1821e1e62133cfe0a9","1","19","2933","","","","","","","","","<img src= ""rock_img/I_Pegmatite_11.jpg"" style=""width:8cm; height:8.14cm;""><p>What type of rock is this?</p>","5","class_response","1","train","42","Pegmatite","Pegmatite","11","true","6","6","",""
"","","","","","","","","","","","html-button-response","188","2.0.0","1156772","670e3e1821e1e62133cfe0a9","1","19","1537","","","","","","","","","<img src= rock_img/I_Pegmatite_11.jpg style=""width:8cm; height:8.14cm;""><p style='font-size: 30px; color: green;'><strong>Correct!</strong></p><p style='font-size: 30px;'><strong>This rock is pegmatite</strong></p>","0","corr_feedback","1","train","42","","","","","","","",""
"","","","","","","","","","","","html-button-response","189","2.0.0","1159643","670e3e1821e1e62133cfe0a9","1","19","2868","","","","","","","","","<img src= ""rock_img/I_Basalt_12.jpg"" style=""width:8cm; height:6.010000000000001cm;""><p>What type of rock is this?</p>","1","class_response","1","train","43","Basalt","Basalt","12","true","2","2","",""
"","","","","","","","","","","","html-button-response","190","2.0.0","1161189","670e3e1821e1e62133cfe0a9","1","19","1543","","","","","","","","","<img src= rock_img/I_Basalt_12.jpg style=""width:8cm; height:6.010000000000001cm;""><p style='font-size: 30px; color: green;'><strong>Correct!</strong></p><p style='font-size: 30px;'><strong>This rock is basalt</strong></p>","0","corr_feedback","1","train","43","","","","","","","",""
"","","","","","","","","","","","html-button-response","191","2.0.0","1167883","670e3e1821e1e62133cfe0a9","1","19","6691","","","","","","","","","<img src= ""rock_img/I_Peridotite_15.jpg"" style=""width:8cm; height:6cm;""><p>What type of rock is this?</p>","3","class_response","1","train","44","Gabbro","Peridotite","15","false","4","7","",""
"","","","","","","","","","","","html-button-response","192","2.0.0","1169463","670e3e1821e1e62133cfe0a9","1","19","1577","","","","","","","","","<img src= rock_img/I_Peridotite_15.jpg style=""width:8cm; height:6cm;""><p style='font-size: 30px; color: red;'><strong>Incorrect!</strong></p><p style='font-size: 30px;'><strong>This rock is peridotite</strong></p>","0","corr_feedback","1","train","44","","","","","","","",""
"","","","","","","","","","","","html-button-response","193","2.0.0","1171657","670e3e1821e1e62133cfe0a9","1","19","2192","","","","","","","","","<img src= ""rock_img/I_Diorite_02.jpg"" style=""width:8cm; height:6.27cm;""><p>What type of rock is this?</p>","2","class_response","1","train","45","Diorite","Diorite","02","true","3","3","",""
"","","","","","","","","","","","html-button-response","194","2.0.0","1173199","670e3e1821e1e62133cfe0a9","1","19","1540","","","","","","","","","<img src= rock_img/I_Diorite_02.jpg style=""width:8cm; height:6.27cm;""><p style='font-size: 30px; color: green;'><strong>Correct!</strong></p><p style='font-size: 30px;'><strong>This rock is diorite</strong></p>","0","corr_feedback","1","train","45","","","","","","","",""
"","","","","","","","","","","","html-button-response","195","2.0.0","1174782","670e3e1821e1e62133cfe0a9","1","19","1581","","","","","","","","","<img src= ""rock_img/I_Obsidian_09.jpg"" style=""width:8cm; height:5cm;""><p>What type of rock is this?</p>","4","class_response","1","train","46","Obsidian","Obsidian","09","true","5","5","",""
"","","","","","","","","","","","html-button-response","196","2.0.0","1176461","670e3e1821e1e62133cfe0a9","1","19","1677","","","","","","","","","<img src= rock_img/I_Obsidian_09.jpg style=""width:8cm; height:5cm;""><p style='font-size: 30px; color: green;'><strong>Correct!</strong></p><p style='font-size: 30px;'><strong>This rock is obsidian</strong></p>","0","corr_feedback","1","train","46","","","","","","","",""
"","","","","","","","","","","","html-button-response","197","2.0.0","1178281","670e3e1821e1e62133cfe0a9","1","19","1817","","","","","","","","","<img src= ""rock_img/I_Pumice_14.jpg"" style=""width:8cm; height:6.39cm;""><p>What type of rock is this?</p>","7","class_response","1","train","47","Pumice","Pumice","14","true","8","8","",""
"","","","","","","","","","","","html-button-response","198","2.0.0","1179775","670e3e1821e1e62133cfe0a9","1","19","1492","","","","","","","","","<img src= rock_img/I_Pumice_14.jpg style=""width:8cm; height:6.39cm;""><p style='font-size: 30px; color: green;'><strong>Correct!</strong></p><p style='font-size: 30px;'><strong>This rock is pumice</strong></p>","0","corr_feedback","1","train","47","","","","","","","",""
"","","","","","","","","","","","html-button-response","199","2.0.0","1181612","670e3e1821e1e62133cfe0a9","1","19","1835","","","","","","","","","<img src= ""rock_img/I_Pegmatite_16.jpg"" style=""width:8cm; height:5.8cm;""><p>What type of rock is this?</p>","5","class_response","1","train","48","Pegmatite","Pegmatite","16","true","6","6","",""
"","","","","","","","","","","","html-button-response","200","2.0.0","1182911","670e3e1821e1e62133cfe0a9","1","19","1297","","","","","","","","","<img src= rock_img/I_Pegmatite_16.jpg style=""width:8cm; height:5.8cm;""><p style='font-size: 30px; color: green;'><strong>Correct!</strong></p><p style='font-size: 30px;'><strong>This rock is pegmatite</strong></p>","0","corr_feedback","1","train","48","","","","","","","",""
"","","","","","","","","","","","instructions","203","2.0.0","1226018","670e3e1821e1e62133cfe0a9","1","19","43106","","","","","","","","[{""page_index"":0,""viewing_time"":16117},{""page_index"":1,""viewing_time"":26989}]","","","","","","","","","","","","","",""
"","","","","","","","","","","","html-button-response","204","2.0.0","1227473","670e3e1821e1e62133cfe0a9","1","19","1453","","","","","","","","","","0","start_test","","","","","","","","","","",""
"","","","","","","","","","","","html-button-response","205","2.0.0","1230598","670e3e1821e1e62133cfe0a9","1","19","3123","","","","","","","","","<img src= ""rock_img/I_Pumice_08.jpg"" style=""width:8cm; height:6.67cm;""><p>What type of rock is this?</p>","7","class_response","1","test","1","Pumice","Pumice","08","true","8","8","",""
"","","","","","","","","","","","html-keyboard-response","206","2.0.0","1231120","670e3e1821e1e62133cfe0a9","1","19","null","","","","","","","","","<p style='font-size: 30px;'><strong>Okay</strong></p>","null","neutral_feedback","1","test","1","","","","","","","",""
"","","","","","","","","","","","html-button-response","207","2.0.0","1240670","670e3e1821e1e62133cfe0a9","1","19","9548","","","","","","","","","<img src= ""rock_img/I_Gabbro_14.jpg"" style=""width:8cm; height:8.48cm;""><p>What type of rock is this?</p>","0","class_response","1","test","2","Andesite","Gabbro","14","false","1","4","",""
"","","","","","","","","","","","html-keyboard-response","208","2.0.0","1241175","670e3e1821e1e62133cfe0a9","1","19","null","","","","","","","","","<p style='font-size: 30px;'><strong>Okay</strong></p>","null","neutral_feedback","1","test","2","","","","","","","",""
"","","","","","","","","","","","html-button-response","209","2.0.0","1245411","670e3e1821e1e62133cfe0a9","1","19","4234","","","","","","","","","<img src= ""rock_img/I_Andesite_14.jpg"" style=""width:8cm; height:5.449999999999999cm;""><p>What type of rock is this?</p>","3","class_response","1","test","3","Gabbro","Andesite","14","false","4","1","",""
"","","","","","","","","","","","html-keyboard-response","210","2.0.0","1245918","670e3e1821e1e62133cfe0a9","1","19","null","","","","","","","","","<p style='font-size: 30px;'><strong>Okay</strong></p>","null","neutral_feedback","1","test","3","","","","","","","",""
"","","","","","","","","","","","html-button-response","211","2.0.0","1247885","670e3e1821e1e62133cfe0a9","1","19","1964","","","","","","","","","<img src= ""rock_img/I_Pegmatite_10.jpg"" style=""width:8cm; height:4.16cm;""><p>What type of rock is this?</p>","5","class_response","1","test","4","Pegmatite","Pegmatite","10","true","6","6","",""
"","","","","","","","","","","","html-keyboard-response","212","2.0.0","1248391","670e3e1821e1e62133cfe0a9","1","19","null","","","","","","","","","<p style='font-size: 30px;'><strong>Okay</strong></p>","null","neutral_feedback","1","test","4","","","","","","","",""
"","","","","","","","","","","","html-button-response","213","2.0.0","1253087","670e3e1821e1e62133cfe0a9","1","19","4693","","","","","","","","","<img src= ""rock_img/I_Gabbro_09.jpg"" style=""width:8cm; height:7.279999999999999cm;""><p>What type of rock is this?</p>","6","class_response","1","test","5","Peridotite","Gabbro","09","false","7","4","",""
"","","","","","","","","","","","html-keyboard-response","214","2.0.0","1253594","670e3e1821e1e62133cfe0a9","1","19","null","","","","","","","","","<p style='font-size: 30px;'><strong>Okay</strong></p>","null","neutral_feedback","1","test","5","","","","","","","",""
"","","","","","","","","","","","html-button-response","215","2.0.0","1256513","670e3e1821e1e62133cfe0a9","1","19","2915","","","","","","","","","<img src= ""rock_img/I_Basalt_04.jpg"" style=""width:8cm; height:7.53cm;""><p>What type of rock is this?</p>","1","class_response","1","test","6","Basalt","Basalt","04","true","2","2","",""
"","","","","","","","","","","","html-keyboard-response","216","2.0.0","1257020","670e3e1821e1e62133cfe0a9","1","19","null","","","","","","","","","<p style='font-size: 30px;'><strong>Okay</strong></p>","null","neutral_feedback","1","test","6","","","","","","","",""
"","","","","","","","","","","","html-button-response","217","2.0.0","1259088","670e3e1821e1e62133cfe0a9","1","19","2065","","","","","","","","","<img src= ""rock_img/I_Basalt_10.jpg"" style=""width:8cm; height:5.85cm;""><p>What type of rock is this?</p>","1","class_response","1","test","7","Basalt","Basalt","10","true","2","2","",""
"","","","","","","","","","","","html-keyboard-response","218","2.0.0","1259591","670e3e1821e1e62133cfe0a9","1","19","null","","","","","","","","","<p style='font-size: 30px;'><strong>Okay</strong></p>","null","neutral_feedback","1","test","7","","","","","","","",""
"","","","","","","","","","","","html-button-response","219","2.0.0","1264878","670e3e1821e1e62133cfe0a9","1","19","5284","","","","","","","","","<img src= ""rock_img/I_Andesite_11.jpg"" style=""width:8cm; height:4.92cm;""><p>What type of rock is this?</p>","2","class_response","1","test","8","Diorite","Andesite","11","false","3","1","",""
"","","","","","","","","","","","html-keyboard-response","220","2.0.0","1265380","670e3e1821e1e62133cfe0a9","1","19","null","","","","","","","","","<p style='font-size: 30px;'><strong>Okay</strong></p>","null","neutral_feedback","1","test","8","","","","","","","",""
"","","","","","","","","","","","html-button-response","221","2.0.0","1267491","670e3e1821e1e62133cfe0a9","1","19","2109","","","","","","","","","<img src= ""rock_img/I_Basalt_01.jpg"" style=""width:8cm; height:7.880000000000001cm;""><p>What type of rock is this?</p>","1","class_response","1","test","9","Basalt","Basalt","01","true","2","2","",""
"","","","","","","","","","","","html-keyboard-response","222","2.0.0","1267999","670e3e1821e1e62133cfe0a9","1","19","null","","","","","","","","","<p style='font-size: 30px;'><strong>Okay</strong></p>","null","neutral_feedback","1","test","9","","","","","","","",""
"","","","","","","","","","","","html-button-response","223","2.0.0","1270279","670e3e1821e1e62133cfe0a9","1","19","2277","","","","","","","","","<img src= ""rock_img/I_Gabbro_10.jpg"" style=""width:8cm; height:5.680000000000001cm;""><p>What type of rock is this?</p>","0","class_response","1","test","10","Andesite","Gabbro","10","false","1","4","",""
"","","","","","","","","","","","html-keyboard-response","224","2.0.0","1270786","670e3e1821e1e62133cfe0a9","1","19","null","","","","","","","","","<p style='font-size: 30px;'><strong>Okay</strong></p>","null","neutral_feedback","1","test","10","","","","","","","",""
"","","","","","","","","","","","html-button-response","225","2.0.0","1274248","670e3e1821e1e62133cfe0a9","1","19","3459","","","","","","","","","<img src= ""rock_img/I_Pumice_02.jpg"" style=""width:8cm; height:7.3999999999999995cm;""><p>What type of rock is this?</p>","7","class_response","1","test","11","Pumice","Pumice","02","true","8","8","",""
"","","","","","","","","","","","html-keyboard-response","226","2.0.0","1274760","670e3e1821e1e62133cfe0a9","1","19","null","","","","","","","","","<p style='font-size: 30px;'><strong>Okay</strong></p>","null","neutral_feedback","1","test","11","","","","","","","",""
"","","","","","","","","","","","html-button-response","227","2.0.0","1276385","670e3e1821e1e62133cfe0a9","1","19","1623","","","","","","","","","<img src= ""rock_img/I_Pumice_09.jpg"" style=""width:8cm; height:6.44cm;""><p>What type of rock is this?</p>","7","class_response","1","test","12","Pumice","Pumice","09","true","8","8","",""
"","","","","","","","","","","","html-keyboard-response","228","2.0.0","1276900","670e3e1821e1e62133cfe0a9","1","19","null","","","","","","","","","<p style='font-size: 30px;'><strong>Okay</strong></p>","null","neutral_feedback","1","test","12","","","","","","","",""
"","","","","","","","","","","","html-button-response","229","2.0.0","1281733","670e3e1821e1e62133cfe0a9","1","19","4829","","","","","","","","","<img src= ""rock_img/I_Gabbro_13.jpg"" style=""width:8cm; height:5.08cm;""><p>What type of rock is this?</p>","5","class_response","1","test","13","Pegmatite","Gabbro","13","false","6","4","",""
"","","","","","","","","","","","html-keyboard-response","230","2.0.0","1282241","670e3e1821e1e62133cfe0a9","1","19","null","","","","","","","","","<p style='font-size: 30px;'><strong>Okay</strong></p>","null","neutral_feedback","1","test","13","","","","","","","",""
"","","","","","","","","","","","html-button-response","231","2.0.0","1283938","670e3e1821e1e62133cfe0a9","1","19","1694","","","","","","","","","<img src= ""rock_img/I_Obsidian_04.jpg"" style=""width:8cm; height:6.930000000000001cm;""><p>What type of rock is this?</p>","4","class_response","1","test","14","Obsidian","Obsidian","04","true","5","5","",""
"","","","","","","","","","","","html-keyboard-response","232","2.0.0","1284450","670e3e1821e1e62133cfe0a9","1","19","null","","","","","","","","","<p style='font-size: 30px;'><strong>Okay</strong></p>","null","neutral_feedback","1","test","14","","","","","","","",""
"","","","","","","","","","","","html-button-response","233","2.0.0","1287205","670e3e1821e1e62133cfe0a9","1","19","2751","","","","","","","","","<img src= ""rock_img/I_Diorite_12.jpg"" style=""width:8cm; height:4.88cm;""><p>What type of rock is this?</p>","3","class_response","1","test","15","Gabbro","Diorite","12","false","4","3","",""
"","","","","","","","","","","","html-keyboard-response","234","2.0.0","1287707","670e3e1821e1e62133cfe0a9","1","19","null","","","","","","","","","<p style='font-size: 30px;'><strong>Okay</strong></p>","null","neutral_feedback","1","test","15","","","","","","","",""
"","","","","","","","","","","","html-button-response","235","2.0.0","1290463","670e3e1821e1e62133cfe0a9","1","19","2753","","","","","","","","","<img src= ""rock_img/I_Diorite_16.jpg"" style=""width:8cm; height:6.74cm;""><p>What type of rock is this?</p>","3","class_response","1","test","16","Gabbro","Diorite","16","false","4","3","",""
"","","","","","","","","","","","html-keyboard-response","236","2.0.0","1290973","670e3e1821e1e62133cfe0a9","1","19","null","","","","","","","","","<p style='font-size: 30px;'><strong>Okay</strong></p>","null","neutral_feedback","1","test","16","","","","","","","",""
"","","","","","","","","","","","html-button-response","237","2.0.0","1292987","670e3e1821e1e62133cfe0a9","1","19","2013","","","","","","","","","<img src= ""rock_img/I_Pegmatite_03.jpg"" style=""width:8cm; height:5.239999999999999cm;""><p>What type of rock is this?</p>","5","class_response","1","test","17","Pegmatite","Pegmatite","03","true","6","6","",""
"","","","","","","","","","","","html-keyboard-response","238","2.0.0","1293490","670e3e1821e1e62133cfe0a9","1","19","null","","","","","","","","","<p style='font-size: 30px;'><strong>Okay</strong></p>","null","neutral_feedback","1","test","17","","","","","","","",""
"","","","","","","","","","","","html-button-response","239","2.0.0","1294676","670e3e1821e1e62133cfe0a9","1","19","1183","","","","","","","","","<img src= ""rock_img/I_Pegmatite_15.jpg"" style=""width:8cm; height:6cm;""><p>What type of rock is this?</p>","5","class_response","1","test","18","Pegmatite","Pegmatite","15","true","6","6","",""
"","","","","","","","","","","","html-keyboard-response","240","2.0.0","1295188","670e3e1821e1e62133cfe0a9","1","19","null","","","","","","","","","<p style='font-size: 30px;'><strong>Okay</strong></p>","null","neutral_feedback","1","test","18","","","","","","","",""
"","","","","","","","","","","","html-button-response","241","2.0.0","1296753","670e3e1821e1e62133cfe0a9","1","19","1562","","","","","","","","","<img src= ""rock_img/I_Obsidian_16.jpg"" style=""width:8cm; height:9.3cm;""><p>What type of rock is this?</p>","4","class_response","1","test","19","Obsidian","Obsidian","16","true","5","5","",""
"","","","","","","","","","","","html-keyboard-response","242","2.0.0","1297259","670e3e1821e1e62133cfe0a9","1","19","null","","","","","","","","","<p style='font-size: 30px;'><strong>Okay</strong></p>","null","neutral_feedback","1","test","19","","","","","","","",""
"","","","","","","","","","","","html-button-response","243","2.0.0","1301048","670e3e1821e1e62133cfe0a9","1","19","3787","","","","","","","","","<img src= ""rock_img/I_Pegmatite_05.jpg"" style=""width:8cm; height:7.300000000000001cm;""><p>What type of rock is this?</p>","5","class_response","1","test","20","Pegmatite","Pegmatite","05","true","6","6","",""
"","","","","","","","","","","","html-keyboard-response","244","2.0.0","1301554","670e3e1821e1e62133cfe0a9","1","19","null","","","","","","","","","<p style='font-size: 30px;'><strong>Okay</strong></p>","null","neutral_feedback","1","test","20","","","","","","","",""
"","","","","","","","","","","","html-button-response","245","2.0.0","1304808","670e3e1821e1e62133cfe0a9","1","19","3251","","","","","","","","","<img src= ""rock_img/I_Andesite_10.jpg"" style=""width:8cm; height:4.16cm;""><p>What type of rock is this?</p>","1","class_response","1","test","21","Basalt","Andesite","10","false","2","1","",""
"","","","","","","","","","","","html-keyboard-response","246","2.0.0","1305311","670e3e1821e1e62133cfe0a9","1","19","null","","","","","","","","","<p style='font-size: 30px;'><strong>Okay</strong></p>","null","neutral_feedback","1","test","21","","","","","","","",""
"","","","","","","","","","","","html-button-response","247","2.0.0","1307402","670e3e1821e1e62133cfe0a9","1","19","2089","","","","","","","","","<img src= ""rock_img/I_Basalt_14.jpg"" style=""width:8cm; height:5.82cm;""><p>What type of rock is this?</p>","1","class_response","1","test","22","Basalt","Basalt","14","true","2","2","",""
"","","","","","","","","","","","html-keyboard-response","248","2.0.0","1307904","670e3e1821e1e62133cfe0a9","1","19","null","","","","","","","","","<p style='font-size: 30px;'><strong>Okay</strong></p>","null","neutral_feedback","1","test","22","","","","","","","",""
"","","","","","","","","","","","html-button-response","249","2.0.0","1310269","670e3e1821e1e62133cfe0a9","1","19","2361","","","","","","","","","<img src= ""rock_img/I_Andesite_04.jpg"" style=""width:8cm; height:5.96cm;""><p>What type of rock is this?</p>","2","class_response","1","test","23","Diorite","Andesite","04","false","3","1","",""
"","","","","","","","","","","","html-keyboard-response","250","2.0.0","1310784","670e3e1821e1e62133cfe0a9","1","19","null","","","","","","","","","<p style='font-size: 30px;'><strong>Okay</strong></p>","null","neutral_feedback","1","test","23","","","","","","","",""
"","","","","","","","","","","","html-button-response","251","2.0.0","1313021","670e3e1821e1e62133cfe0a9","1","19","2234","","","","","","","","","<img src= ""rock_img/I_Andesite_07.jpg"" style=""width:8cm; height:5.93cm;""><p>What type of rock is this?</p>","2","class_response","1","test","24","Diorite","Andesite","07","false","3","1","",""
"","","","","","","","","","","","html-keyboard-response","252","2.0.0","1313527","670e3e1821e1e62133cfe0a9","1","19","null","","","","","","","","","<p style='font-size: 30px;'><strong>Okay</strong></p>","null","neutral_feedback","1","test","24","","","","","","","",""
"","","","","","","","","","","","html-button-response","253","2.0.0","1318993","670e3e1821e1e62133cfe0a9","1","19","5463","","","","","","","","","<img src= ""rock_img/I_Andesite_02.jpg"" style=""width:8cm; height:8.5cm;""><p>What type of rock is this?</p>","0","class_response","1","test","25","Andesite","Andesite","02","true","1","1","",""
"","","","","","","","","","","","html-keyboard-response","254","2.0.0","1319499","670e3e1821e1e62133cfe0a9","1","19","null","","","","","","","","","<p style='font-size: 30px;'><strong>Okay</strong></p>","null","neutral_feedback","1","test","25","","","","","","","",""
"","","","","","","","","","","","html-button-response","255","2.0.0","1321491","670e3e1821e1e62133cfe0a9","1","19","1989","","","","","","","","","<img src= ""rock_img/I_Peridotite_06.jpg"" style=""width:8cm; height:7.53cm;""><p>What type of rock is this?</p>","5","class_response","1","test","26","Pegmatite","Peridotite","06","false","6","7","",""
"","","","","","","","","","","","html-keyboard-response","256","2.0.0","1322013","670e3e1821e1e62133cfe0a9","1","19","null","","","","","","","","","<p style='font-size: 30px;'><strong>Okay</strong></p>","null","neutral_feedback","1","test","26","","","","","","","",""
"","","","","","","","","","","","html-button-response","257","2.0.0","1323841","670e3e1821e1e62133cfe0a9","1","19","1825","","","","","","","","","<img src= ""rock_img/I_Obsidian_07.jpg"" style=""width:8cm; height:4.76cm;""><p>What type of rock is this?</p>","4","class_response","1","test","27","Obsidian","Obsidian","07","true","5","5","",""
"","","","","","","","","","","","html-keyboard-response","258","2.0.0","1324353","670e3e1821e1e62133cfe0a9","1","19","null","","","","","","","","","<p style='font-size: 30px;'><strong>Okay</strong></p>","null","neutral_feedback","1","test","27","","","","","","","",""
"","","","","","","","","","","","html-button-response","259","2.0.0","1327587","670e3e1821e1e62133cfe0a9","1","19","3231","","","","","","","","","<img src= ""rock_img/I_Diorite_10.jpg"" style=""width:8cm; height:5.949999999999999cm;""><p>What type of rock is this?</p>","6","class_response","1","test","28","Peridotite","Diorite","10","false","7","3","",""
"","","","","","","","","","","","html-keyboard-response","260","2.0.0","1328093","670e3e1821e1e62133cfe0a9","1","19","null","","","","","","","","","<p style='font-size: 30px;'><strong>Okay</strong></p>","null","neutral_feedback","1","test","28","","","","","","","",""
"","","","","","","","","","","","html-button-response","261","2.0.0","1329816","670e3e1821e1e62133cfe0a9","1","19","1719","","","","","","","","","<img src= ""rock_img/I_Pumice_05.jpg"" style=""width:8cm; height:7.25cm;""><p>What type of rock is this?</p>","7","class_response","1","test","29","Pumice","Pumice","05","true","8","8","",""
"","","","","","","","","","","","html-keyboard-response","262","2.0.0","1330330","670e3e1821e1e62133cfe0a9","1","19","null","","","","","","","","","<p style='font-size: 30px;'><strong>Okay</strong></p>","null","neutral_feedback","1","test","29","","","","","","","",""
"","","","","","","","","","","","html-button-response","263","2.0.0","1332007","670e3e1821e1e62133cfe0a9","1","19","1674","","","","","","","","","<img src= ""rock_img/I_Obsidian_06.jpg"" style=""width:8cm; height:6.8cm;""><p>What type of rock is this?</p>","4","class_response","1","test","30","Obsidian","Obsidian","06","true","5","5","",""
"","","","","","","","","","","","html-keyboard-response","264","2.0.0","1332513","670e3e1821e1e62133cfe0a9","1","19","null","","","","","","","","","<p style='font-size: 30px;'><strong>Okay</strong></p>","null","neutral_feedback","1","test","30","","","","","","","",""
"","","","","","","","","","","","html-button-response","265","2.0.0","1336186","670e3e1821e1e62133cfe0a9","1","19","3670","","","","","","","","","<img src= ""rock_img/I_Gabbro_01.jpg"" style=""width:8cm; height:5.21cm;""><p>What type of rock is this?</p>","5","class_response","1","test","31","Pegmatite","Gabbro","01","false","6","4","",""
"","","","","","","","","","","","html-keyboard-response","266","2.0.0","1336690","670e3e1821e1e62133cfe0a9","1","19","null","","","","","","","","","<p style='font-size: 30px;'><strong>Okay</strong></p>","null","neutral_feedback","1","test","31","","","","","","","",""
"","","","","","","","","","","","html-button-response","267","2.0.0","1339540","670e3e1821e1e62133cfe0a9","1","19","2847","","","","","","","","","<img src= ""rock_img/I_Pumice_13.jpg"" style=""width:8cm; height:8.200000000000001cm;""><p>What type of rock is this?</p>","1","class_response","1","test","32","Basalt","Pumice","13","false","2","8","",""
"","","","","","","","","","","","html-keyboard-response","268","2.0.0","1340046","670e3e1821e1e62133cfe0a9","1","19","null","","","","","","","","","<p style='font-size: 30px;'><strong>Okay</strong></p>","null","neutral_feedback","1","test","32","","","","","","","",""
"","","","","","","","","","","","html-button-response","269","2.0.0","1342057","670e3e1821e1e62133cfe0a9","1","19","2008","","","","","","","","","<img src= ""rock_img/I_Peridotite_12.jpg"" style=""width:8cm; height:4.54cm;""><p>What type of rock is this?</p>","6","class_response","1","test","33","Peridotite","Peridotite","12","true","7","7","",""
"","","","","","","","","","","","html-keyboard-response","270","2.0.0","1342559","670e3e1821e1e62133cfe0a9","1","19","null","","","","","","","","","<p style='font-size: 30px;'><strong>Okay</strong></p>","null","neutral_feedback","1","test","33","","","","","","","",""
"","","","","","","","","","","","html-button-response","271","2.0.0","1344445","670e3e1821e1e62133cfe0a9","1","19","1883","","","","","","","","","<img src= ""rock_img/I_Pegmatite_08.jpg"" style=""width:8cm; height:7.68cm;""><p>What type of rock is this?</p>","5","class_response","1","test","34","Pegmatite","Pegmatite","08","true","6","6","",""
"","","","","","","","","","","","html-keyboard-response","272","2.0.0","1344946","670e3e1821e1e62133cfe0a9","1","19","null","","","","","","","","","<p style='font-size: 30px;'><strong>Okay</strong></p>","null","neutral_feedback","1","test","34","","","","","","","",""
"","","","","","","","","","","","html-button-response","273","2.0.0","1346530","670e3e1821e1e62133cfe0a9","1","19","1582","","","","","","","","","<img src= ""rock_img/I_Obsidian_08.jpg"" style=""width:8cm; height:7.39cm;""><p>What type of rock is this?</p>","4","class_response","1","test","35","Obsidian","Obsidian","08","true","5","5","",""
"","","","","","","","","","","","html-keyboard-response","274","2.0.0","1347034","670e3e1821e1e62133cfe0a9","1","19","null","","","","","","","","","<p style='font-size: 30px;'><strong>Okay</strong></p>","null","neutral_feedback","1","test","35","","","","","","","",""
"","","","","","","","","","","","html-button-response","275","2.0.0","1350622","670e3e1821e1e62133cfe0a9","1","19","3585","","","","","","","","","<img src= ""rock_img/I_Diorite_13.jpg"" style=""width:8cm; height:6.29cm;""><p>What type of rock is this?</p>","0","class_response","1","test","36","Andesite","Diorite","13","false","1","3","",""
"","","","","","","","","","","","html-keyboard-response","276","2.0.0","1351125","670e3e1821e1e62133cfe0a9","1","19","null","","","","","","","","","<p style='font-size: 30px;'><strong>Okay</strong></p>","null","neutral_feedback","1","test","36","","","","","","","",""
"","","","","","","","","","","","html-button-response","277","2.0.0","1354802","670e3e1821e1e62133cfe0a9","1","19","3674","","","","","","","","","<img src= ""rock_img/I_Gabbro_03.jpg"" style=""width:8cm; height:8.52cm;""><p>What type of rock is this?</p>","3","class_response","1","test","37","Gabbro","Gabbro","03","true","4","4","",""
"","","","","","","","","","","","html-keyboard-response","278","2.0.0","1355312","670e3e1821e1e62133cfe0a9","1","19","null","","","","","","","","","<p style='font-size: 30px;'><strong>Okay</strong></p>","null","neutral_feedback","1","test","37","","","","","","","",""
"","","","","","","","","","","","html-button-response","279","2.0.0","1357890","670e3e1821e1e62133cfe0a9","1","19","2575","","","","","","","","","<img src= ""rock_img/I_Peridotite_07.jpg"" style=""width:8cm; height:4.83cm;""><p>What type of rock is this?</p>","2","class_response","1","test","38","Diorite","Peridotite","07","false","3","7","",""
"","","","","","","","","","","","html-keyboard-response","280","2.0.0","1358397","670e3e1821e1e62133cfe0a9","1","19","null","","","","","","","","","<p style='font-size: 30px;'><strong>Okay</strong></p>","null","neutral_feedback","1","test","38","","","","","","","",""
"","","","","","","","","","","","html-button-response","281","2.0.0","1360030","670e3e1821e1e62133cfe0a9","1","19","1631","","","","","","","","","<img src= ""rock_img/I_Peridotite_05.jpg"" style=""width:8cm; height:7.1499999999999995cm;""><p>What type of rock is this?</p>","2","class_response","1","test","39","Diorite","Peridotite","05","false","3","7","",""
"","","","","","","","","","","","html-keyboard-response","282","2.0.0","1360540","670e3e1821e1e62133cfe0a9","1","19","null","","","","","","","","","<p style='font-size: 30px;'><strong>Okay</strong></p>","null","neutral_feedback","1","test","39","","","","","","","",""
"","","","","","","","","","","","html-button-response","283","2.0.0","1361748","670e3e1821e1e62133cfe0a9","1","19","1205","","","","","","","","","<img src= ""rock_img/I_Peridotite_16.jpg"" style=""width:8cm; height:6.989999999999999cm;""><p>What type of rock is this?</p>","2","class_response","1","test","40","Diorite","Peridotite","16","false","3","7","",""
"","","","","","","","","","","","html-keyboard-response","284","2.0.0","1362259","670e3e1821e1e62133cfe0a9","1","19","null","","","","","","","","","<p style='font-size: 30px;'><strong>Okay</strong></p>","null","neutral_feedback","1","test","40","","","","","","","",""
"","","","","","","","","","","","html-button-response","285","2.0.0","1364544","670e3e1821e1e62133cfe0a9","1","19","2282","","","","","","","","","<img src= ""rock_img/I_Diorite_09.jpg"" style=""width:8cm; height:5.27cm;""><p>What type of rock is this?</p>","3","class_response","1","test","41","Gabbro","Diorite","09","false","4","3","",""
"","","","","","","","","","","","html-keyboard-response","286","2.0.0","1365050","670e3e1821e1e62133cfe0a9","1","19","null","","","","","","","","","<p style='font-size: 30px;'><strong>Okay</strong></p>","null","neutral_feedback","1","test","41","","","","","","","",""
"","","","","","","","","","","","html-button-response","287","2.0.0","1367026","670e3e1821e1e62133cfe0a9","1","19","1972","","","","","","","","","<img src= ""rock_img/I_Basalt_06.jpg"" style=""width:8cm; height:7.06cm;""><p>What type of rock is this?</p>","1","class_response","1","test","42","Basalt","Basalt","06","true","2","2","",""
"","","","","","","","","","","","html-keyboard-response","288","2.0.0","1367536","670e3e1821e1e62133cfe0a9","1","19","null","","","","","","","","","<p style='font-size: 30px;'><strong>Okay</strong></p>","null","neutral_feedback","1","test","42","","","","","","","",""
"","","","","","","","","","","","html-button-response","289","2.0.0","1372730","670e3e1821e1e62133cfe0a9","1","19","5191","","","","","","","","","<img src= ""rock_img/I_Diorite_08.jpg"" style=""width:8cm; height:6.37cm;""><p>What type of rock is this?</p>","3","class_response","1","test","43","Gabbro","Diorite","08","false","4","3","",""
"","","","","","","","","","","","html-keyboard-response","290","2.0.0","1373240","670e3e1821e1e62133cfe0a9","1","19","null","","","","","","","","","<p style='font-size: 30px;'><strong>Okay</strong></p>","null","neutral_feedback","1","test","43","","","","","","","",""
"","","","","","","","","","","","html-button-response","291","2.0.0","1375219","670e3e1821e1e62133cfe0a9","1","19","1975","","","","","","","","","<img src= ""rock_img/I_Pegmatite_13.jpg"" style=""width:8cm; height:4.95cm;""><p>What type of rock is this?</p>","5","class_response","1","test","44","Pegmatite","Pegmatite","13","true","6","6","",""
"","","","","","","","","","","","html-keyboard-response","292","2.0.0","1375729","670e3e1821e1e62133cfe0a9","1","19","null","","","","","","","","","<p style='font-size: 30px;'><strong>Okay</strong></p>","null","neutral_feedback","1","test","44","","","","","","","",""
"","","","","","","","","","","","html-button-response","293","2.0.0","1377319","670e3e1821e1e62133cfe0a9","1","19","1587","","","","","","","","","<img src= ""rock_img/I_Obsidian_11.jpg"" style=""width:8cm; height:6.05cm;""><p>What type of rock is this?</p>","4","class_response","1","test","45","Obsidian","Obsidian","11","true","5","5","",""
"","","","","","","","","","","","html-keyboard-response","294","2.0.0","1377824","670e3e1821e1e62133cfe0a9","1","19","null","","","","","","","","","<p style='font-size: 30px;'><strong>Okay</strong></p>","null","neutral_feedback","1","test","45","","","","","","","",""
"","","","","","","","","","","","html-button-response","295","2.0.0","1379654","670e3e1821e1e62133cfe0a9","1","19","1827","","","","","","","","","<img src= ""rock_img/I_Basalt_09.jpg"" style=""width:8cm; height:6.2cm;""><p>What type of rock is this?</p>","1","class_response","1","test","46","Basalt","Basalt","09","true","2","2","",""
"","","","","","","","","","","","html-keyboard-response","296","2.0.0","1380164","670e3e1821e1e62133cfe0a9","1","19","null","","","","","","","","","<p style='font-size: 30px;'><strong>Okay</strong></p>","null","neutral_feedback","1","test","46","","","","","","","",""
"","","","","","","","","","","","html-button-response","297","2.0.0","1384106","670e3e1821e1e62133cfe0a9","1","19","3942","","","","","","","","","<img src= ""rock_img/I_Peridotite_08.jpg"" style=""width:8cm; height:6.7cm;""><p>What type of rock is this?</p>","6","class_response","1","test","47","Peridotite","Peridotite","08","true","7","7","",""
"","","","","","","","","","","","html-keyboard-response","298","2.0.0","1384611","670e3e1821e1e62133cfe0a9","1","19","null","","","","","","","","","<p style='font-size: 30px;'><strong>Okay</strong></p>","null","neutral_feedback","1","test","47","","","","","","","",""
"","","","","","","","","","","","html-button-response","299","2.0.0","1386456","670e3e1821e1e62133cfe0a9","1","19","1842","","","","","","","","","<img src= ""rock_img/I_Pumice_15.jpg"" style=""width:8cm; height:7.86cm;""><p>What type of rock is this?</p>","7","class_response","1","test","48","Pumice","Pumice","15","true","8","8","",""
"","","","","","","","","","","","html-keyboard-response","300","2.0.0","1386966","670e3e1821e1e62133cfe0a9","1","19","null","","","","","","","","","<p style='font-size: 30px;'><strong>Okay</strong></p>","null","neutral_feedback","1","test","48","","","","","","","",""
"","","","","","","","","","","","html-button-response","301","2.0.0","1406968","670e3e1821e1e62133cfe0a9","1","19","","","","","","","","","","","","cycle_feedback","","","","","","","","","","12356.700000047684","7638.599999904633"
"","","","","","","","","","","","html-button-response","303","2.0.0","1413065","670e3e1821e1e62133cfe0a9","1","19","6094","","","","","","","","","","0","start_train","","","","","","","","","","",""
"","","","","","","","","","","","html-button-response","304","2.0.0","1418859","670e3e1821e1e62133cfe0a9","1","19","5789","","","","","","","","","<img src= ""rock_img/I_Basalt_12.jpg"" style=""width:8cm; height:6.010000000000001cm;""><p>What type of rock is this?</p>","0","class_response","2","train","1","Andesite","Basalt","12","false","1","2","",""
