"width","height","webaudio","browser","browser_version","mobile","os","fullscreen","vsync_rate","webcam","microphone","trial_type","trial_index","plugin_version","time_elapsed","subjID","condition","stimID","rt","url","success","value","timeout","failed_images","failed_audio","failed_video","view_history","stimulus","response","trialType","cycle","phase","trial","resp","cat","token","corr","resp_num","cat_num","time_fb1","time_fb2"
"1536","776","true","chrome","131.0.0","false","Windows 10","true","60.16","true","true","browser-check","0","2.0.0","1015","632b9d9bc38454f47019295c","1","28","","","","","","","","","","","","","","","","","","","","","","",""
"","","","","","","","","","","","external-html","1","2.0.0","27192","632b9d9bc38454f47019295c","1","28","26097","consent_form.html","","","","","","","","","","","","","","","","","","","","",""
"","","","","","","","","","","","fullscreen","2","2.0.0","30297","632b9d9bc38454f47019295c","1","28","2086","","true","","","","","","","","","","","","","","","","","","","",""
"","","","","","","","","","","","call-function","3","2.0.0","30300","632b9d9bc38454f47019295c","1","28","","","","{}","","","","","","","","","","","","","","","","","","",""
"","","","","","","","","","","","preload","4","2.0.0","37136","632b9d9bc38454f47019295c","1","28","","","true","","false","[]","[]","[]","","","","","","","","","","","","","","",""
"","","","","","","","","","","","instructions","5","2.0.0","100371","632b9d9bc38454f47019295c","1","28","63234","","","","","","","","[{""page_index"":0,""viewing_time"":11194},{""page_index"":1,""viewing_time"":39420},{""page_index"":2,""viewing_time"":12620}]","","","","","","","","","","","","","",""
"","","","","","","","","","","","html-button-response","6","2.0.0","104200","632b9d9bc38454f47019295c","1","28","3827","","","","","","","","","","0","start_test","","","","","","","","","","",""
"","","","","","","","","","","","html-button-response","7","2.0.0","115843","632b9d9bc38454f47019295c","1","28","11641","","","","","","","","","<img src= ""rock_img/I_Gabbro_09.jpg"" style=""width:8cm; height:7.279999999999999cm;""><p>What type of rock is this?</p>","6","class_response","0","test","1","Peridotite","Gabbro","09","false","7","4","",""
"","","","","","","","","","","","html-keyboard-response","8","2.0.0","116346","632b9d9bc38454f47019295c","1","28","null","","","","","","","","","<p style='font-size: 30px;'><strong>Okay</strong></p>","null","neutral_feedback","0","test","1","","","","","","","",""
"","","","","","","","","","","","html-button-response","9","2.0.0","127031","632b9d9bc38454f47019295c","1","28","10683","","","","","","","","","<img src= ""rock_img/I_Basalt_16.jpg"" style=""width:8cm; height:7.659999999999999cm;""><p>What type of rock is this?</p>","0","class_response","0","test","2","Andesite","Basalt","16","false","1","2","",""
"","","","","","","","","","","","html-keyboard-response","10","2.0.0","127543","632b9d9bc38454f47019295c","1","28","null","","","","","","","","","<p style='font-size: 30px;'><strong>Okay</strong></p>","null","neutral_feedback","0","test","2","","","","","","","",""
"","","","","","","","","","","","html-button-response","11","2.0.0","130904","632b9d9bc38454f47019295c","1","28","3358","","","","","","","","","<img src= ""rock_img/I_Basalt_02.jpg"" style=""width:8cm; height:6.45cm;""><p>What type of rock is this?</p>","1","class_response","0","test","3","Basalt","Basalt","02","true","2","2","",""
"","","","","","","","","","","","html-keyboard-response","12","2.0.0","131408","632b9d9bc38454f47019295c","1","28","null","","","","","","","","","<p style='font-size: 30px;'><strong>Okay</strong></p>","null","neutral_feedback","0","test","3","","","","","","","",""
"","","","","","","","","","","","html-button-response","13","2.0.0","140251","632b9d9bc38454f47019295c","1","28","8842","","","","","","","","","<img src= ""rock_img/I_Pegmatite_16.jpg"" style=""width:8cm; height:5.8cm;""><p>What type of rock is this?</p>","5","class_response","0","test","4","Pegmatite","Pegmatite","16","true","6","6","",""
"","","","","","","","","","","","html-keyboard-response","14","2.0.0","140759","632b9d9bc38454f47019295c","1","28","null","","","","","","","","","<p style='font-size: 30px;'><strong>Okay</strong></p>","null","neutral_feedback","0","test","4","","","","","","","",""
"","","","","","","","","","","","html-button-response","15","2.0.0","144163","632b9d9bc38454f47019295c","1","28","3403","","","","","","","","","<img src= ""rock_img/I_Obsidian_05.jpg"" style=""width:8cm; height:6.33cm;""><p>What type of rock is this?</p>","4","class_response","0","test","5","Obsidian","Obsidian","05","true","5","5","",""
"","","","","","","","","","","","html-keyboard-response","16","2.0.0","144673","632b9d9bc38454f47019295c","1","28","null","","","","","","","","","<p style='font-size: 30px;'><strong>Okay</strong></p>","null","neutral_feedback","0","test","5","","","","","","","",""
"","","","","","","","","","","","html-button-response","17","2.0.0","150602","632b9d9bc38454f47019295c","1","28","5928","","","","","","","","","<img src= ""rock_img/I_Obsidian_09.jpg"" style=""width:8cm; height:5cm;""><p>What type of rock is this?</p>","4","class_response","0","test","6","Obsidian","Obsidian","09","true","5","5","",""
"","","","","","","","","","","","html-keyboard-response","18","2.0.0","151106","632b9d9bc38454f47019295c","1","28","null","","","","","","","","","<p style='font-size: 30px;'><strong>Okay</strong></p>","null","neutral_feedback","0","test","6","","","","","","","",""
"","","","","","","","","","","","html-button-response","19","2.0.0","153103","632b9d9bc38454f47019295c","1","28","1995","","","","","","","","","<img src= ""rock_img/I_Gabbro_12.jpg"" style=""width:8cm; height:7.800000000000001cm;""><p>What type of rock is this?</p>","1","class_response","0","test","7","Basalt","Gabbro","12","false","2","4","",""
"","","","","","","","","","","","html-keyboard-response","20","2.0.0","153606","632b9d9bc38454f47019295c","1","28","null","","","","","","","","","<p style='font-size: 30px;'><strong>Okay</strong></p>","null","neutral_feedback","0","test","7","","","","","","","",""
"","","","","","","","","","","","html-button-response","21","2.0.0","155443","632b9d9bc38454f47019295c","1","28","1836","","","","","","","","","<img src= ""rock_img/I_Pumice_10.jpg"" style=""width:8cm; height:7.609999999999999cm;""><p>What type of rock is this?</p>","7","class_response","0","test","8","Pumice","Pumice","10","true","8","8","",""
"","","","","","","","","","","","html-keyboard-response","22","2.0.0","155946","632b9d9bc38454f47019295c","1","28","null","","","","","","","","","<p style='font-size: 30px;'><strong>Okay</strong></p>","null","neutral_feedback","0","test","8","","","","","","","",""
"","","","","","","","","","","","html-button-response","23","2.0.0","164639","632b9d9bc38454f47019295c","1","28","8692","","","","","","","","","<img src= ""rock_img/I_Diorite_16.jpg"" style=""width:8cm; height:6.74cm;""><p>What type of rock is this?</p>","3","class_response","0","test","9","Gabbro","Diorite","16","false","4","3","",""
"","","","","","","","","","","","html-keyboard-response","24","2.0.0","165153","632b9d9bc38454f47019295c","1","28","null","","","","","","","","","<p style='font-size: 30px;'><strong>Okay</strong></p>","null","neutral_feedback","0","test","9","","","","","","","",""
"","","","","","","","","","","","html-button-response","25","2.0.0","168635","632b9d9bc38454f47019295c","1","28","3480","","","","","","","","","<img src= ""rock_img/I_Andesite_16.jpg"" style=""width:8cm; height:6.010000000000001cm;""><p>What type of rock is this?</p>","0","class_response","0","test","10","Andesite","Andesite","16","true","1","1","",""
"","","","","","","","","","","","html-keyboard-response","26","2.0.0","169137","632b9d9bc38454f47019295c","1","28","null","","","","","","","","","<p style='font-size: 30px;'><strong>Okay</strong></p>","null","neutral_feedback","0","test","10","","","","","","","",""
"","","","","","","","","","","","html-button-response","27","2.0.0","172147","632b9d9bc38454f47019295c","1","28","3009","","","","","","","","","<img src= ""rock_img/I_Andesite_03.jpg"" style=""width:8cm; height:5.73cm;""><p>What type of rock is this?</p>","1","class_response","0","test","11","Basalt","Andesite","03","false","2","1","",""
"","","","","","","","","","","","html-keyboard-response","28","2.0.0","172655","632b9d9bc38454f47019295c","1","28","null","","","","","","","","","<p style='font-size: 30px;'><strong>Okay</strong></p>","null","neutral_feedback","0","test","11","","","","","","","",""
"","","","","","","","","","","","html-button-response","29","2.0.0","177543","632b9d9bc38454f47019295c","1","28","4886","","","","","","","","","<img src= ""rock_img/I_Peridotite_02.jpg"" style=""width:8cm; height:5.859999999999999cm;""><p>What type of rock is this?</p>","6","class_response","0","test","12","Peridotite","Peridotite","02","true","7","7","",""
"","","","","","","","","","","","html-keyboard-response","30","2.0.0","178054","632b9d9bc38454f47019295c","1","28","null","","","","","","","","","<p style='font-size: 30px;'><strong>Okay</strong></p>","null","neutral_feedback","0","test","12","","","","","","","",""
"","","","","","","","","","","","html-button-response","31","2.0.0","180363","632b9d9bc38454f47019295c","1","28","2307","","","","","","","","","<img src= ""rock_img/I_Pumice_05.jpg"" style=""width:8cm; height:7.25cm;""><p>What type of rock is this?</p>","7","class_response","0","test","13","Pumice","Pumice","05","true","8","8","",""
"","","","","","","","","","","","html-keyboard-response","32","2.0.0","180867","632b9d9bc38454f47019295c","1","28","null","","","","","","","","","<p style='font-size: 30px;'><strong>Okay</strong></p>","null","neutral_feedback","0","test","13","","","","","","","",""
"","","","","","","","","","","","html-button-response","33","2.0.0","187503","632b9d9bc38454f47019295c","1","28","6635","","","","","","","","","<img src= ""rock_img/I_Pegmatite_09.jpg"" style=""width:8cm; height:4.03cm;""><p>What type of rock is this?</p>","3","class_response","0","test","14","Gabbro","Pegmatite","09","false","4","6","",""
"","","","","","","","","","","","html-keyboard-response","34","2.0.0","188017","632b9d9bc38454f47019295c","1","28","null","","","","","","","","","<p style='font-size: 30px;'><strong>Okay</strong></p>","null","neutral_feedback","0","test","14","","","","","","","",""
"","","","","","","","","","","","html-button-response","35","2.0.0","191682","632b9d9bc38454f47019295c","1","28","3664","","","","","","","","","<img src= ""rock_img/I_Gabbro_16.jpg"" style=""width:8cm; height:6.44cm;""><p>What type of rock is this?</p>","2","class_response","0","test","15","Diorite","Gabbro","16","false","3","4","",""
"","","","","","","","","","","","html-keyboard-response","36","2.0.0","192186","632b9d9bc38454f47019295c","1","28","null","","","","","","","","","<p style='font-size: 30px;'><strong>Okay</strong></p>","null","neutral_feedback","0","test","15","","","","","","","",""
"","","","","","","","","","","","html-button-response","37","2.0.0","194622","632b9d9bc38454f47019295c","1","28","2435","","","","","","","","","<img src= ""rock_img/I_Pegmatite_13.jpg"" style=""width:8cm; height:4.95cm;""><p>What type of rock is this?</p>","0","class_response","0","test","16","Andesite","Pegmatite","13","false","1","6","",""
"","","","","","","","","","","","html-keyboard-response","38","2.0.0","195127","632b9d9bc38454f47019295c","1","28","null","","","","","","","","","<p style='font-size: 30px;'><strong>Okay</strong></p>","null","neutral_feedback","0","test","16","","","","","","","",""
"","","","","","","","","","","","html-button-response","39","2.0.0","199591","632b9d9bc38454f47019295c","1","28","4463","","","","","","","","","<img src= ""rock_img/I_Peridotite_15.jpg"" style=""width:8cm; height:6cm;""><p>What type of rock is this?</p>","5","class_response","0","test","17","Pegmatite","Peridotite","15","false","6","7","",""
"","","","","","","","","","","","html-keyboard-response","40","2.0.0","200095","632b9d9bc38454f47019295c","1","28","null","","","","","","","","","<p style='font-size: 30px;'><strong>Okay</strong></p>","null","neutral_feedback","0","test","17","","","","","","","",""
"","","","","","","","","","","","html-button-response","41","2.0.0","209290","632b9d9bc38454f47019295c","1","28","9195","","","","","","","","","<img src= ""rock_img/I_Pegmatite_15.jpg"" style=""width:8cm; height:6cm;""><p>What type of rock is this?</p>","5","class_response","0","test","18","Pegmatite","Pegmatite","15","true","6","6","",""
"","","","","","","","","","","","html-keyboard-response","42","2.0.0","209792","632b9d9bc38454f47019295c","1","28","null","","","","","","","","","<p style='font-size: 30px;'><strong>Okay</strong></p>","null","neutral_feedback","0","test","18","","","","","","","",""
"","","","","","","","","","","","html-button-response","43","2.0.0","212455","632b9d9bc38454f47019295c","1","28","2662","","","","","","","","","<img src= ""rock_img/I_Pumice_02.jpg"" style=""width:8cm; height:7.3999999999999995cm;""><p>What type of rock is this?</p>","7","class_response","0","test","19","Pumice","Pumice","02","true","8","8","",""
"","","","","","","","","","","","html-keyboard-response","44","2.0.0","212959","632b9d9bc38454f47019295c","1","28","null","","","","","","","","","<p style='font-size: 30px;'><strong>Okay</strong></p>","null","neutral_feedback","0","test","19","","","","","","","",""
"","","","","","","","","","","","html-button-response","45","2.0.0","215282","632b9d9bc38454f47019295c","1","28","2322","","","","","","","","","<img src= ""rock_img/I_Diorite_12.jpg"" style=""width:8cm; height:4.88cm;""><p>What type of rock is this?</p>","3","class_response","0","test","20","Gabbro","Diorite","12","false","4","3","",""
"","","","","","","","","","","","html-keyboard-response","46","2.0.0","215797","632b9d9bc38454f47019295c","1","28","null","","","","","","","","","<p style='font-size: 30px;'><strong>Okay</strong></p>","null","neutral_feedback","0","test","20","","","","","","","",""
"","","","","","","","","","","","html-button-response","47","2.0.0","218175","632b9d9bc38454f47019295c","1","28","2376","","","","","","","","","<img src= ""rock_img/I_Basalt_09.jpg"" style=""width:8cm; height:6.2cm;""><p>What type of rock is this?</p>","1","class_response","0","test","21","Basalt","Basalt","09","true","2","2","",""
"","","","","","","","","","","","html-keyboard-response","48","2.0.0","218685","632b9d9bc38454f47019295c","1","28","null","","","","","","","","","<p style='font-size: 30px;'><strong>Okay</strong></p>","null","neutral_feedback","0","test","21","","","","","","","",""
"","","","","","","","","","","","html-button-response","49","2.0.0","221338","632b9d9bc38454f47019295c","1","28","2650","","","","","","","","","<img src= ""rock_img/I_Obsidian_10.jpg"" style=""width:8cm; height:6.260000000000001cm;""><p>What type of rock is this?</p>","4","class_response","0","test","22","Obsidian","Obsidian","10","true","5","5","",""
"","","","","","","","","","","","html-keyboard-response","50","2.0.0","221848","632b9d9bc38454f47019295c","1","28","null","","","","","","","","","<p style='font-size: 30px;'><strong>Okay</strong></p>","null","neutral_feedback","0","test","22","","","","","","","",""
"","","","","","","","","","","","html-button-response","51","2.0.0","224830","632b9d9bc38454f47019295c","1","28","2980","","","","","","","","","<img src= ""rock_img/I_Pumice_16.jpg"" style=""width:8cm; height:6.79cm;""><p>What type of rock is this?</p>","7","class_response","0","test","23","Pumice","Pumice","16","true","8","8","",""
"","","","","","","","","","","","html-keyboard-response","52","2.0.0","225338","632b9d9bc38454f47019295c","1","28","null","","","","","","","","","<p style='font-size: 30px;'><strong>Okay</strong></p>","null","neutral_feedback","0","test","23","","","","","","","",""
"","","","","","","","","","","","html-button-response","53","2.0.0","229750","632b9d9bc38454f47019295c","1","28","4411","","","","","","","","","<img src= ""rock_img/I_Obsidian_07.jpg"" style=""width:8cm; height:4.76cm;""><p>What type of rock is this?</p>","0","class_response","0","test","24","Andesite","Obsidian","07","false","1","5","",""
"","","","","","","","","","","","html-keyboard-response","54","2.0.0","230261","632b9d9bc38454f47019295c","1","28","null","","","","","","","","","<p style='font-size: 30px;'><strong>Okay</strong></p>","null","neutral_feedback","0","test","24","","","","","","","",""
"","","","","","","","","","","","html-button-response","55","2.0.0","232666","632b9d9bc38454f47019295c","1","28","2404","","","","","","","","","<img src= ""rock_img/I_Diorite_09.jpg"" style=""width:8cm; height:5.27cm;""><p>What type of rock is this?</p>","5","class_response","0","test","25","Pegmatite","Diorite","09","false","6","3","",""
"","","","","","","","","","","","html-keyboard-response","56","2.0.0","233169","632b9d9bc38454f47019295c","1","28","null","","","","","","","","","<p style='font-size: 30px;'><strong>Okay</strong></p>","null","neutral_feedback","0","test","25","","","","","","","",""
"","","","","","","","","","","","html-button-response","57","2.0.0","235158","632b9d9bc38454f47019295c","1","28","1988","","","","","","","","","<img src= ""rock_img/I_Basalt_04.jpg"" style=""width:8cm; height:7.53cm;""><p>What type of rock is this?</p>","1","class_response","0","test","26","Basalt","Basalt","04","true","2","2","",""
"","","","","","","","","","","","html-keyboard-response","58","2.0.0","235674","632b9d9bc38454f47019295c","1","28","null","","","","","","","","","<p style='font-size: 30px;'><strong>Okay</strong></p>","null","neutral_feedback","0","test","26","","","","","","","",""
"","","","","","","","","","","","html-button-response","59","2.0.0","238958","632b9d9bc38454f47019295c","1","28","3283","","","","","","","","","<img src= ""rock_img/I_Andesite_02.jpg"" style=""width:8cm; height:8.5cm;""><p>What type of rock is this?</p>","2","class_response","0","test","27","Diorite","Andesite","02","false","3","1","",""
"","","","","","","","","","","","html-keyboard-response","60","2.0.0","239461","632b9d9bc38454f47019295c","1","28","null","","","","","","","","","<p style='font-size: 30px;'><strong>Okay</strong></p>","null","neutral_feedback","0","test","27","","","","","","","",""
"","","","","","","","","","","","html-button-response","61","2.0.0","241898","632b9d9bc38454f47019295c","1","28","2436","","","","","","","","","<img src= ""rock_img/I_Diorite_15.jpg"" style=""width:8cm; height:5.54cm;""><p>What type of rock is this?</p>","6","class_response","0","test","28","Peridotite","Diorite","15","false","7","3","",""
"","","","","","","","","","","","html-keyboard-response","62","2.0.0","242402","632b9d9bc38454f47019295c","1","28","null","","","","","","","","","<p style='font-size: 30px;'><strong>Okay</strong></p>","null","neutral_feedback","0","test","28","","","","","","","",""
"","","","","","","","","","","","html-button-response","63","2.0.0","245046","632b9d9bc38454f47019295c","1","28","2643","","","","","","","","","<img src= ""rock_img/I_Peridotite_07.jpg"" style=""width:8cm; height:4.83cm;""><p>What type of rock is this?</p>","3","class_response","0","test","29","Gabbro","Peridotite","07","false","4","7","",""
"","","","","","","","","","","","html-keyboard-response","64","2.0.0","245561","632b9d9bc38454f47019295c","1","28","null","","","","","","","","","<p style='font-size: 30px;'><strong>Okay</strong></p>","null","neutral_feedback","0","test","29","","","","","","","",""
"","","","","","","","","","","","html-button-response","65","2.0.0","248090","632b9d9bc38454f47019295c","1","28","2528","","","","","","","","","<img src= ""rock_img/I_Diorite_11.jpg"" style=""width:8cm; height:7.11cm;""><p>What type of rock is this?</p>","0","class_response","0","test","30","Andesite","Diorite","11","false","1","3","",""
"","","","","","","","","","","","html-keyboard-response","66","2.0.0","248594","632b9d9bc38454f47019295c","1","28","null","","","","","","","","","<p style='font-size: 30px;'><strong>Okay</strong></p>","null","neutral_feedback","0","test","30","","","","","","","",""
"","","","","","","","","","","","html-button-response","67","2.0.0","250522","632b9d9bc38454f47019295c","1","28","1927","","","","","","","","","<img src= ""rock_img/I_Basalt_01.jpg"" style=""width:8cm; height:7.880000000000001cm;""><p>What type of rock is this?</p>","1","class_response","0","test","31","Basalt","Basalt","01","true","2","2","",""
"","","","","","","","","","","","html-keyboard-response","68","2.0.0","251023","632b9d9bc38454f47019295c","1","28","null","","","","","","","","","<p style='font-size: 30px;'><strong>Okay</strong></p>","null","neutral_feedback","0","test","31","","","","","","","",""
"","","","","","","","","","","","html-button-response","69","2.0.0","252502","632b9d9bc38454f47019295c","1","28","1478","","","","","","","","","<img src= ""rock_img/I_Obsidian_11.jpg"" style=""width:8cm; height:6.05cm;""><p>What type of rock is this?</p>","4","class_response","0","test","32","Obsidian","Obsidian","11","true","5","5","",""
"","","","","","","","","","","","html-keyboard-response","70","2.0.0","253018","632b9d9bc38454f47019295c","1","28","null","","","","","","","","","<p style='font-size: 30px;'><strong>Okay</strong></p>","null","neutral_feedback","0","test","32","","","","","","","",""
"","","","","","","","","","","","html-button-response","71","2.0.0","261097","632b9d9bc38454f47019295c","1","28","8079","","","","","","","","","<img src= ""rock_img/I_Andesite_11.jpg"" style=""width:8cm; height:4.92cm;""><p>What type of rock is this?</p>","6","class_response","0","test","33","Peridotite","Andesite","11","false","7","1","",""
"","","","","","","","","","","","html-keyboard-response","72","2.0.0","261601","632b9d9bc38454f47019295c","1","28","null","","","","","","","","","<p style='font-size: 30px;'><strong>Okay</strong></p>","null","neutral_feedback","0","test","33","","","","","","","",""
"","","","","","","","","","","","html-button-response","73","2.0.0","263909","632b9d9bc38454f47019295c","1","28","2307","","","","","","","","","<img src= ""rock_img/I_Diorite_07.jpg"" style=""width:8cm; height:5.239999999999999cm;""><p>What type of rock is this?</p>","5","class_response","0","test","34","Pegmatite","Diorite","07","false","6","3","",""
"","","","","","","","","","","","html-keyboard-response","74","2.0.0","264411","632b9d9bc38454f47019295c","1","28","null","","","","","","","","","<p style='font-size: 30px;'><strong>Okay</strong></p>","null","neutral_feedback","0","test","34","","","","","","","",""
"","","","","","","","","","","","html-button-response","75","2.0.0","269261","632b9d9bc38454f47019295c","1","28","4849","","","","","","","","","<img src= ""rock_img/I_Peridotite_05.jpg"" style=""width:8cm; height:7.1499999999999995cm;""><p>What type of rock is this?</p>","2","class_response","0","test","35","Diorite","Peridotite","05","false","3","7","",""
"","","","","","","","","","","","html-keyboard-response","76","2.0.0","269775","632b9d9bc38454f47019295c","1","28","null","","","","","","","","","<p style='font-size: 30px;'><strong>Okay</strong></p>","null","neutral_feedback","0","test","35","","","","","","","",""
"","","","","","","","","","","","html-button-response","77","2.0.0","272185","632b9d9bc38454f47019295c","1","28","2408","","","","","","","","","<img src= ""rock_img/I_Pegmatite_08.jpg"" style=""width:8cm; height:7.68cm;""><p>What type of rock is this?</p>","0","class_response","0","test","36","Andesite","Pegmatite","08","false","1","6","",""
"","","","","","","","","","","","html-keyboard-response","78","2.0.0","272698","632b9d9bc38454f47019295c","1","28","null","","","","","","","","","<p style='font-size: 30px;'><strong>Okay</strong></p>","null","neutral_feedback","0","test","36","","","","","","","",""
"","","","","","","","","","","","html-button-response","79","2.0.0","274389","632b9d9bc38454f47019295c","1","28","1690","","","","","","","","","<img src= ""rock_img/I_Pumice_14.jpg"" style=""width:8cm; height:6.39cm;""><p>What type of rock is this?</p>","7","class_response","0","test","37","Pumice","Pumice","14","true","8","8","",""
"","","","","","","","","","","","html-keyboard-response","80","2.0.0","274894","632b9d9bc38454f47019295c","1","28","null","","","","","","","","","<p style='font-size: 30px;'><strong>Okay</strong></p>","null","neutral_feedback","0","test","37","","","","","","","",""
"","","","","","","","","","","","html-button-response","81","2.0.0","279145","632b9d9bc38454f47019295c","1","28","4250","","","","","","","","","<img src= ""rock_img/I_Peridotite_13.jpg"" style=""width:8cm; height:7.58cm;""><p>What type of rock is this?</p>","5","class_response","0","test","38","Pegmatite","Peridotite","13","false","6","7","",""
"","","","","","","","","","","","html-keyboard-response","82","2.0.0","279662","632b9d9bc38454f47019295c","1","28","null","","","","","","","","","<p style='font-size: 30px;'><strong>Okay</strong></p>","null","neutral_feedback","0","test","38","","","","","","","",""
"","","","","","","","","","","","html-button-response","83","2.0.0","282229","632b9d9bc38454f47019295c","1","28","2565","","","","","","","","","<img src= ""rock_img/I_Peridotite_14.jpg"" style=""width:8cm; height:5.3cm;""><p>What type of rock is this?</p>","3","class_response","0","test","39","Gabbro","Peridotite","14","false","4","7","",""
"","","","","","","","","","","","html-keyboard-response","84","2.0.0","282737","632b9d9bc38454f47019295c","1","28","null","","","","","","","","","<p style='font-size: 30px;'><strong>Okay</strong></p>","null","neutral_feedback","0","test","39","","","","","","","",""
"","","","","","","","","","","","html-button-response","85","2.0.0","285981","632b9d9bc38454f47019295c","1","28","3243","","","","","","","","","<img src= ""rock_img/I_Andesite_07.jpg"" style=""width:8cm; height:5.93cm;""><p>What type of rock is this?</p>","0","class_response","0","test","40","Andesite","Andesite","07","true","1","1","",""
"","","","","","","","","","","","html-keyboard-response","86","2.0.0","286485","632b9d9bc38454f47019295c","1","28","null","","","","","","","","","<p style='font-size: 30px;'><strong>Okay</strong></p>","null","neutral_feedback","0","test","40","","","","","","","",""
"","","","","","","","","","","","html-button-response","87","2.0.0","287773","632b9d9bc38454f47019295c","1","28","1287","","","","","","","","","<img src= ""rock_img/I_Pumice_04.jpg"" style=""width:8cm; height:6.819999999999999cm;""><p>What type of rock is this?</p>","7","class_response","0","test","41","Pumice","Pumice","04","true","8","8","",""
"","","","","","","","","","","","html-keyboard-response","88","2.0.0","288277","632b9d9bc38454f47019295c","1","28","null","","","","","","","","","<p style='font-size: 30px;'><strong>Okay</strong></p>","null","neutral_feedback","0","test","41","","","","","","","",""
"","","","","","","","","","","","html-button-response","89","2.0.0","292326","632b9d9bc38454f47019295c","1","28","4048","","","","","","","","","<img src= ""rock_img/I_Gabbro_08.jpg"" style=""width:8cm; height:5.15cm;""><p>What type of rock is this?</p>","5","class_response","0","test","42","Pegmatite","Gabbro","08","false","6","4","",""
"","","","","","","","","","","","html-keyboard-response","90","2.0.0","292831","632b9d9bc38454f47019295c","1","28","null","","","","","","","","","<p style='font-size: 30px;'><strong>Okay</strong></p>","null","neutral_feedback","0","test","42","","","","","","","",""
"","","","","","","","","","","","html-button-response","91","2.0.0","295065","632b9d9bc38454f47019295c","1","28","2233","","","","","","","","","<img src= ""rock_img/I_Andesite_01.jpg"" style=""width:8cm; height:5.87cm;""><p>What type of rock is this?</p>","1","class_response","0","test","43","Basalt","Andesite","01","false","2","1","",""
"","","","","","","","","","","","html-keyboard-response","92","2.0.0","295575","632b9d9bc38454f47019295c","1","28","null","","","","","","","","","<p style='font-size: 30px;'><strong>Okay</strong></p>","null","neutral_feedback","0","test","43","","","","","","","",""
"","","","","","","","","","","","html-button-response","93","2.0.0","297389","632b9d9bc38454f47019295c","1","28","1813","","","","","","","","","<img src= ""rock_img/I_Basalt_11.jpg"" style=""width:8cm; height:5.359999999999999cm;""><p>What type of rock is this?</p>","7","class_response","0","test","44","Pumice","Basalt","11","false","8","2","",""
"","","","","","","","","","","","html-keyboard-response","94","2.0.0","297902","632b9d9bc38454f47019295c","1","28","null","","","","","","","","","<p style='font-size: 30px;'><strong>Okay</strong></p>","null","neutral_feedback","0","test","44","","","","","","","",""
"","","","","","","","","","","","html-button-response","95","2.0.0","299941","632b9d9bc38454f47019295c","1","28","2038","","","","","","","","","<img src= ""rock_img/I_Obsidian_16.jpg"" style=""width:8cm; height:9.3cm;""><p>What type of rock is this?</p>","4","class_response","0","test","45","Obsidian","Obsidian","16","true","5","5","",""
"","","","","","","","","","","","html-keyboard-response","96","2.0.0","300457","632b9d9bc38454f47019295c","1","28","null","","","","","","","","","<p style='font-size: 30px;'><strong>Okay</strong></p>","null","neutral_feedback","0","test","45","","","","","","","",""
"","","","","","","","","","","","html-button-response","97","2.0.0","304637","632b9d9bc38454f47019295c","1","28","4179","","","","","","","","","<img src= ""rock_img/I_Gabbro_10.jpg"" style=""width:8cm; height:5.680000000000001cm;""><p>What type of rock is this?</p>","5","class_response","0","test","46","Pegmatite","Gabbro","10","false","6","4","",""
"","","","","","","","","","","","html-keyboard-response","98","2.0.0","305142","632b9d9bc38454f47019295c","1","28","null","","","","","","","","","<p style='font-size: 30px;'><strong>Okay</strong></p>","null","neutral_feedback","0","test","46","","","","","","","",""
"","","","","","","","","","","","html-button-response","99","2.0.0","310501","632b9d9bc38454f47019295c","1","28","5359","","","","","","","","","<img src= ""rock_img/I_Gabbro_15.jpg"" style=""width:8cm; height:6.29cm;""><p>What type of rock is this?</p>","6","class_response","0","test","47","Peridotite","Gabbro","15","false","7","4","",""
"","","","","","","","","","","","html-keyboard-response","100","2.0.0","311007","632b9d9bc38454f47019295c","1","28","null","","","","","","","","","<p style='font-size: 30px;'><strong>Okay</strong></p>","null","neutral_feedback","0","test","47","","","","","","","",""
"","","","","","","","","","","","html-button-response","101","2.0.0","313493","632b9d9bc38454f47019295c","1","28","2485","","","","","","","","","<img src= ""rock_img/I_Pegmatite_11.jpg"" style=""width:8cm; height:8.14cm;""><p>What type of rock is this?</p>","2","class_response","0","test","48","Diorite","Pegmatite","11","false","3","6","",""
"","","","","","","","","","","","html-keyboard-response","102","2.0.0","314006","632b9d9bc38454f47019295c","1","28","null","","","","","","","","","<p style='font-size: 30px;'><strong>Okay</strong></p>","null","neutral_feedback","0","test","48","","","","","","","",""
"","","","","","","","","","","","instructions","103","2.0.0","385944","632b9d9bc38454f47019295c","1","28","71901","","","","","","","","[{""page_index"":0,""viewing_time"":28097},{""page_index"":1,""viewing_time"":7196},{""page_index"":2,""viewing_time"":36607}]","","","","","","","","","","","","","",""
"","","","","","","","","","","","html-button-response","104","2.0.0","390782","632b9d9bc38454f47019295c","1","28","4836","","","","","","","","","","0","start_train","","","","","","","","","","",""
"","","","","","","","","","","","html-button-response","105","2.0.0","397688","632b9d9bc38454f47019295c","1","28","6906","","","","","","","","","<img src= ""rock_img/I_Peridotite_08.jpg"" style=""width:8cm; height:6.7cm;""><p>What type of rock is this?</p>","6","class_response","1","train","1","Peridotite","Peridotite","08","true","7","7","",""
"","","","","","","","","","","","html-button-response","106","2.0.0","415880","632b9d9bc38454f47019295c","1","28","18190","","","","","","","","","<img src= rock_img/I_Peridotite_08.jpg style=""width:8cm; height:6.7cm;""><p style='font-size: 30px; color: green;'><strong>Correct!</strong></p><p style='font-size: 30px;'><strong>This rock is peridotite</strong></p>","0","corr_feedback","1","train","1","","","","","","","",""
"","","","","","","","","","","","html-button-response","107","2.0.0","418531","632b9d9bc38454f47019295c","1","28","2651","","","","","","","","","<img src= ""rock_img/I_Pumice_08.jpg"" style=""width:8cm; height:6.67cm;""><p>What type of rock is this?</p>","7","class_response","1","train","2","Pumice","Pumice","08","true","8","8","",""
"","","","","","","","","","","","html-button-response","108","2.0.0","422428","632b9d9bc38454f47019295c","1","28","3895","","","","","","","","","<img src= rock_img/I_Pumice_08.jpg style=""width:8cm; height:6.67cm;""><p style='font-size: 30px; color: green;'><strong>Correct!</strong></p><p style='font-size: 30px;'><strong>This rock is pumice</strong></p>","0","corr_feedback","1","train","2","","","","","","","",""
"","","","","","","","","","","","html-button-response","109","2.0.0","431248","632b9d9bc38454f47019295c","1","28","8819","","","","","","","","","<img src= ""rock_img/I_Basalt_14.jpg"" style=""width:8cm; height:5.82cm;""><p>What type of rock is this?</p>","2","class_response","1","train","3","Diorite","Basalt","14","false","3","2","",""
"","","","","","","","","","","","html-button-response","110","2.0.0","447304","632b9d9bc38454f47019295c","1","28","16055","","","","","","","","","<img src= rock_img/I_Basalt_14.jpg style=""width:8cm; height:5.82cm;""><p style='font-size: 30px; color: red;'><strong>Incorrect!</strong></p><p style='font-size: 30px;'><strong>This rock is basalt</strong></p>","0","corr_feedback","1","train","3","","","","","","","",""
"","","","","","","","","","","","html-button-response","111","2.0.0","449120","632b9d9bc38454f47019295c","1","28","1814","","","","","","","","","<img src= ""rock_img/I_Obsidian_04.jpg"" style=""width:8cm; height:6.930000000000001cm;""><p>What type of rock is this?</p>","4","class_response","1","train","4","Obsidian","Obsidian","04","true","5","5","",""
"","","","","","","","","","","","html-button-response","112","2.0.0","451236","632b9d9bc38454f47019295c","1","28","2115","","","","","","","","","<img src= rock_img/I_Obsidian_04.jpg style=""width:8cm; height:6.930000000000001cm;""><p style='font-size: 30px; color: green;'><strong>Correct!</strong></p><p style='font-size: 30px;'><strong>This rock is obsidian</strong></p>","0","corr_feedback","1","train","4","","","","","","","",""
"","","","","","","","","","","","html-button-response","113","2.0.0","460291","632b9d9bc38454f47019295c","1","28","9055","","","","","","","","","<img src= ""rock_img/I_Pegmatite_05.jpg"" style=""width:8cm; height:7.300000000000001cm;""><p>What type of rock is this?</p>","0","class_response","1","train","5","Andesite","Pegmatite","05","false","1","6","",""
"","","","","","","","","","","","html-button-response","114","2.0.0","493667","632b9d9bc38454f47019295c","1","28","33375","","","","","","","","","<img src= rock_img/I_Pegmatite_05.jpg style=""width:8cm; height:7.300000000000001cm;""><p style='font-size: 30px; color: red;'><strong>Incorrect!</strong></p><p style='font-size: 30px;'><strong>This rock is pegmatite</strong></p>","0","corr_feedback","1","train","5","","","","","","","",""
"","","","","","","","","","","","html-button-response","115","2.0.0","495684","632b9d9bc38454f47019295c","1","28","2015","","","","","","","","","<img src= ""rock_img/I_Obsidian_08.jpg"" style=""width:8cm; height:7.39cm;""><p>What type of rock is this?</p>","4","class_response","1","train","6","Obsidian","Obsidian","08","true","5","5","",""
"","","","","","","","","","","","html-button-response","116","2.0.0","497319","632b9d9bc38454f47019295c","1","28","1634","","","","","","","","","<img src= rock_img/I_Obsidian_08.jpg style=""width:8cm; height:7.39cm;""><p style='font-size: 30px; color: green;'><strong>Correct!</strong></p><p style='font-size: 30px;'><strong>This rock is obsidian</strong></p>","0","corr_feedback","1","train","6","","","","","","","",""
"","","","","","","","","","","","html-button-response","117","2.0.0","500099","632b9d9bc38454f47019295c","1","28","2779","","","","","","","","","<img src= ""rock_img/I_Gabbro_03.jpg"" style=""width:8cm; height:8.52cm;""><p>What type of rock is this?</p>","1","class_response","1","train","7","Basalt","Gabbro","03","false","2","4","",""
"","","","","","","","","","","","html-button-response","118","2.0.0","524578","632b9d9bc38454f47019295c","1","28","24478","","","","","","","","","<img src= rock_img/I_Gabbro_03.jpg style=""width:8cm; height:8.52cm;""><p style='font-size: 30px; color: red;'><strong>Incorrect!</strong></p><p style='font-size: 30px;'><strong>This rock is gabbro</strong></p>","0","corr_feedback","1","train","7","","","","","","","",""
"","","","","","","","","","","","html-button-response","119","2.0.0","526315","632b9d9bc38454f47019295c","1","28","1735","","","","","","","","","<img src= ""rock_img/I_Obsidian_14.jpg"" style=""width:8cm; height:7.64cm;""><p>What type of rock is this?</p>","4","class_response","1","train","8","Obsidian","Obsidian","14","true","5","5","",""
"","","","","","","","","","","","html-button-response","120","2.0.0","527487","632b9d9bc38454f47019295c","1","28","1171","","","","","","","","","<img src= rock_img/I_Obsidian_14.jpg style=""width:8cm; height:7.64cm;""><p style='font-size: 30px; color: green;'><strong>Correct!</strong></p><p style='font-size: 30px;'><strong>This rock is obsidian</strong></p>","0","corr_feedback","1","train","8","","","","","","","",""
"","","","","","","","","","","","html-button-response","121","2.0.0","528974","632b9d9bc38454f47019295c","1","28","1486","","","","","","","","","<img src= ""rock_img/I_Basalt_06.jpg"" style=""width:8cm; height:7.06cm;""><p>What type of rock is this?</p>","1","class_response","1","train","9","Basalt","Basalt","06","true","2","2","",""
"","","","","","","","","","","","html-button-response","122","2.0.0","532735","632b9d9bc38454f47019295c","1","28","3760","","","","","","","","","<img src= rock_img/I_Basalt_06.jpg style=""width:8cm; height:7.06cm;""><p style='font-size: 30px; color: green;'><strong>Correct!</strong></p><p style='font-size: 30px;'><strong>This rock is basalt</strong></p>","0","corr_feedback","1","train","9","","","","","","","",""
"","","","","","","","","","","","html-button-response","123","2.0.0","534510","632b9d9bc38454f47019295c","1","28","1774","","","","","","","","","<img src= ""rock_img/I_Pumice_03.jpg"" style=""width:8cm; height:6.64cm;""><p>What type of rock is this?</p>","7","class_response","1","train","10","Pumice","Pumice","03","true","8","8","",""
"","","","","","","","","","","","html-button-response","124","2.0.0","536170","632b9d9bc38454f47019295c","1","28","1659","","","","","","","","","<img src= rock_img/I_Pumice_03.jpg style=""width:8cm; height:6.64cm;""><p style='font-size: 30px; color: green;'><strong>Correct!</strong></p><p style='font-size: 30px;'><strong>This rock is pumice</strong></p>","0","corr_feedback","1","train","10","","","","","","","",""
"","","","","","","","","","","","html-button-response","125","2.0.0","540390","632b9d9bc38454f47019295c","1","28","4219","","","","","","","","","<img src= ""rock_img/I_Peridotite_12.jpg"" style=""width:8cm; height:4.54cm;""><p>What type of rock is this?</p>","6","class_response","1","train","11","Peridotite","Peridotite","12","true","7","7","",""
"","","","","","","","","","","","html-button-response","126","2.0.0","541651","632b9d9bc38454f47019295c","1","28","1259","","","","","","","","","<img src= rock_img/I_Peridotite_12.jpg style=""width:8cm; height:4.54cm;""><p style='font-size: 30px; color: green;'><strong>Correct!</strong></p><p style='font-size: 30px;'><strong>This rock is peridotite</strong></p>","0","corr_feedback","1","train","11","","","","","","","",""
"","","","","","","","","","","","html-button-response","127","2.0.0","544446","632b9d9bc38454f47019295c","1","28","2794","","","","","","","","","<img src= ""rock_img/I_Peridotite_16.jpg"" style=""width:8cm; height:6.989999999999999cm;""><p>What type of rock is this?</p>","6","class_response","1","train","12","Peridotite","Peridotite","16","true","7","7","",""
"","","","","","","","","","","","html-button-response","128","2.0.0","547490","632b9d9bc38454f47019295c","1","28","3043","","","","","","","","","<img src= rock_img/I_Peridotite_16.jpg style=""width:8cm; height:6.989999999999999cm;""><p style='font-size: 30px; color: green;'><strong>Correct!</strong></p><p style='font-size: 30px;'><strong>This rock is peridotite</strong></p>","0","corr_feedback","1","train","12","","","","","","","",""
"","","","","","","","","","","","html-button-response","129","2.0.0","549435","632b9d9bc38454f47019295c","1","28","1943","","","","","","","","","<img src= ""rock_img/I_Basalt_08.jpg"" style=""width:8cm; height:10.44cm;""><p>What type of rock is this?</p>","1","class_response","1","train","13","Basalt","Basalt","08","true","2","2","",""
"","","","","","","","","","","","html-button-response","130","2.0.0","557255","632b9d9bc38454f47019295c","1","28","7819","","","","","","","","","<img src= rock_img/I_Basalt_08.jpg style=""width:8cm; height:10.44cm;""><p style='font-size: 30px; color: green;'><strong>Correct!</strong></p><p style='font-size: 30px;'><strong>This rock is basalt</strong></p>","0","corr_feedback","1","train","13","","","","","","","",""
"","","","","","","","","","","","html-button-response","131","2.0.0","566830","632b9d9bc38454f47019295c","1","28","9575","","","","","","","","","<img src= ""rock_img/I_Andesite_10.jpg"" style=""width:8cm; height:4.16cm;""><p>What type of rock is this?</p>","3","class_response","1","train","14","Gabbro","Andesite","10","false","4","1","",""
"","","","","","","","","","","","html-button-response","132","2.0.0","585682","632b9d9bc38454f47019295c","1","28","18851","","","","","","","","","<img src= rock_img/I_Andesite_10.jpg style=""width:8cm; height:4.16cm;""><p style='font-size: 30px; color: red;'><strong>Incorrect!</strong></p><p style='font-size: 30px;'><strong>This rock is andesite</strong></p>","0","corr_feedback","1","train","14","","","","","","","",""
"","","","","","","","","","","","html-button-response","133","2.0.0","587322","632b9d9bc38454f47019295c","1","28","1639","","","","","","","","","<img src= ""rock_img/I_Obsidian_06.jpg"" style=""width:8cm; height:6.8cm;""><p>What type of rock is this?</p>","4","class_response","1","train","15","Obsidian","Obsidian","06","true","5","5","",""
"","","","","","","","","","","","html-button-response","134","2.0.0","588606","632b9d9bc38454f47019295c","1","28","1283","","","","","","","","","<img src= rock_img/I_Obsidian_06.jpg style=""width:8cm; height:6.8cm;""><p style='font-size: 30px; color: green;'><strong>Correct!</strong></p><p style='font-size: 30px;'><strong>This rock is obsidian</strong></p>","0","corr_feedback","1","train","15","","","","","","","",""
"","","","","","","","","","","","html-button-response","135","2.0.0","591778","632b9d9bc38454f47019295c","1","28","3171","","","","","","","","","<img src= ""rock_img/I_Andesite_05.jpg"" style=""width:8cm; height:4.12cm;""><p>What type of rock is this?</p>","0","class_response","1","train","16","Andesite","Andesite","05","true","1","1","",""
"","","","","","","","","","","","html-button-response","136","2.0.0","607318","632b9d9bc38454f47019295c","1","28","15539","","","","","","","","","<img src= rock_img/I_Andesite_05.jpg style=""width:8cm; height:4.12cm;""><p style='font-size: 30px; color: green;'><strong>Correct!</strong></p><p style='font-size: 30px;'><strong>This rock is andesite</strong></p>","0","corr_feedback","1","train","16","","","","","","","",""
"","","","","","","","","","","","html-button-response","137","2.0.0","609690","632b9d9bc38454f47019295c","1","28","2371","","","","","","","","","<img src= ""rock_img/I_Andesite_09.jpg"" style=""width:8cm; height:6cm;""><p>What type of rock is this?</p>","1","class_response","1","train","17","Basalt","Andesite","09","false","2","1","",""
"","","","","","","","","","","","html-button-response","138","2.0.0","615846","632b9d9bc38454f47019295c","1","28","6154","","","","","","","","","<img src= rock_img/I_Andesite_09.jpg style=""width:8cm; height:6cm;""><p style='font-size: 30px; color: red;'><strong>Incorrect!</strong></p><p style='font-size: 30px;'><strong>This rock is andesite</strong></p>","0","corr_feedback","1","train","17","","","","","","","",""
"","","","","","","","","","","","html-button-response","139","2.0.0","623922","632b9d9bc38454f47019295c","1","28","8075","","","","","","","","","<img src= ""rock_img/I_Diorite_08.jpg"" style=""width:8cm; height:6.37cm;""><p>What type of rock is this?</p>","5","class_response","1","train","18","Pegmatite","Diorite","08","false","6","3","",""
"","","","","","","","","","","","html-button-response","140","2.0.0","655358","632b9d9bc38454f47019295c","1","28","31435","","","","","","","","","<img src= rock_img/I_Diorite_08.jpg style=""width:8cm; height:6.37cm;""><p style='font-size: 30px; color: red;'><strong>Incorrect!</strong></p><p style='font-size: 30px;'><strong>This rock is diorite</strong></p>","0","corr_feedback","1","train","18","","","","","","","",""
"","","","","","","","","","","","html-button-response","141","2.0.0","662777","632b9d9bc38454f47019295c","1","28","7418","","","","","","","","","<img src= ""rock_img/I_Diorite_14.jpg"" style=""width:8cm; height:5.71cm;""><p>What type of rock is this?</p>","5","class_response","1","train","19","Pegmatite","Diorite","14","false","6","3","",""
"","","","","","","","","","","","html-button-response","142","2.0.0","666425","632b9d9bc38454f47019295c","1","28","3647","","","","","","","","","<img src= rock_img/I_Diorite_14.jpg style=""width:8cm; height:5.71cm;""><p style='font-size: 30px; color: red;'><strong>Incorrect!</strong></p><p style='font-size: 30px;'><strong>This rock is diorite</strong></p>","0","corr_feedback","1","train","19","","","","","","","",""
"","","","","","","","","","","","html-button-response","143","2.0.0","668809","632b9d9bc38454f47019295c","1","28","2383","","","","","","","","","<img src= ""rock_img/I_Andesite_04.jpg"" style=""width:8cm; height:5.96cm;""><p>What type of rock is this?</p>","0","class_response","1","train","20","Andesite","Andesite","04","true","1","1","",""
"","","","","","","","","","","","html-button-response","144","2.0.0","670669","632b9d9bc38454f47019295c","1","28","1860","","","","","","","","","<img src= rock_img/I_Andesite_04.jpg style=""width:8cm; height:5.96cm;""><p style='font-size: 30px; color: green;'><strong>Correct!</strong></p><p style='font-size: 30px;'><strong>This rock is andesite</strong></p>","0","corr_feedback","1","train","20","","","","","","","",""
"","","","","","","","","","","","html-button-response","145","2.0.0","672449","632b9d9bc38454f47019295c","1","28","1779","","","","","","","","","<img src= ""rock_img/I_Obsidian_12.jpg"" style=""width:8cm; height:6.53cm;""><p>What type of rock is this?</p>","4","class_response","1","train","21","Obsidian","Obsidian","12","true","5","5","",""
"","","","","","","","","","","","html-button-response","146","2.0.0","673490","632b9d9bc38454f47019295c","1","28","1039","","","","","","","","","<img src= rock_img/I_Obsidian_12.jpg style=""width:8cm; height:6.53cm;""><p style='font-size: 30px; color: green;'><strong>Correct!</strong></p><p style='font-size: 30px;'><strong>This rock is obsidian</strong></p>","0","corr_feedback","1","train","21","","","","","","","",""
"","","","","","","","","","","","html-button-response","147","2.0.0","675265","632b9d9bc38454f47019295c","1","28","1774","","","","","","","","","<img src= ""rock_img/I_Gabbro_14.jpg"" style=""width:8cm; height:8.48cm;""><p>What type of rock is this?</p>","1","class_response","1","train","22","Basalt","Gabbro","14","false","2","4","",""
"","","","","","","","","","","","html-button-response","148","2.0.0","679786","632b9d9bc38454f47019295c","1","28","4520","","","","","","","","","<img src= rock_img/I_Gabbro_14.jpg style=""width:8cm; height:8.48cm;""><p style='font-size: 30px; color: red;'><strong>Incorrect!</strong></p><p style='font-size: 30px;'><strong>This rock is gabbro</strong></p>","0","corr_feedback","1","train","22","","","","","","","",""
"","","","","","","","","","","","html-button-response","149","2.0.0","682317","632b9d9bc38454f47019295c","1","28","2530","","","","","","","","","<img src= ""rock_img/I_Gabbro_13.jpg"" style=""width:8cm; height:5.08cm;""><p>What type of rock is this?</p>","3","class_response","1","train","23","Gabbro","Gabbro","13","true","4","4","",""
"","","","","","","","","","","","html-button-response","150","2.0.0","693698","632b9d9bc38454f47019295c","1","28","11380","","","","","","","","","<img src= rock_img/I_Gabbro_13.jpg style=""width:8cm; height:5.08cm;""><p style='font-size: 30px; color: green;'><strong>Correct!</strong></p><p style='font-size: 30px;'><strong>This rock is gabbro</strong></p>","0","corr_feedback","1","train","23","","","","","","","",""
"","","","","","","","","","","","html-button-response","151","2.0.0","700790","632b9d9bc38454f47019295c","1","28","7091","","","","","","","","","<img src= ""rock_img/I_Diorite_06.jpg"" style=""width:8cm; height:6.03cm;""><p>What type of rock is this?</p>","5","class_response","1","train","24","Pegmatite","Diorite","06","false","6","3","",""
"","","","","","","","","","","","html-button-response","152","2.0.0","705525","632b9d9bc38454f47019295c","1","28","4734","","","","","","","","","<img src= rock_img/I_Diorite_06.jpg style=""width:8cm; height:6.03cm;""><p style='font-size: 30px; color: red;'><strong>Incorrect!</strong></p><p style='font-size: 30px;'><strong>This rock is diorite</strong></p>","0","corr_feedback","1","train","24","","","","","","","",""
"","","","","","","","","","","","html-button-response","153","2.0.0","707634","632b9d9bc38454f47019295c","1","28","2107","","","","","","","","","<img src= ""rock_img/I_Peridotite_06.jpg"" style=""width:8cm; height:7.53cm;""><p>What type of rock is this?</p>","6","class_response","1","train","25","Peridotite","Peridotite","06","true","7","7","",""
"","","","","","","","","","","","html-button-response","154","2.0.0","708689","632b9d9bc38454f47019295c","1","28","1055","","","","","","","","","<img src= rock_img/I_Peridotite_06.jpg style=""width:8cm; height:7.53cm;""><p style='font-size: 30px; color: green;'><strong>Correct!</strong></p><p style='font-size: 30px;'><strong>This rock is peridotite</strong></p>","0","corr_feedback","1","train","25","","","","","","","",""
"","","","","","","","","","","","html-button-response","155","2.0.0","710541","632b9d9bc38454f47019295c","1","28","1851","","","","","","","","","<img src= ""rock_img/I_Pumice_13.jpg"" style=""width:8cm; height:8.200000000000001cm;""><p>What type of rock is this?</p>","7","class_response","1","train","26","Pumice","Pumice","13","true","8","8","",""
"","","","","","","","","","","","html-button-response","156","2.0.0","711469","632b9d9bc38454f47019295c","1","28","927","","","","","","","","","<img src= rock_img/I_Pumice_13.jpg style=""width:8cm; height:8.200000000000001cm;""><p style='font-size: 30px; color: green;'><strong>Correct!</strong></p><p style='font-size: 30px;'><strong>This rock is pumice</strong></p>","0","corr_feedback","1","train","26","","","","","","","",""
"","","","","","","","","","","","html-button-response","157","2.0.0","713522","632b9d9bc38454f47019295c","1","28","2051","","","","","","","","","<img src= ""rock_img/I_Pumice_06.jpg"" style=""width:8cm; height:6.9399999999999995cm;""><p>What type of rock is this?</p>","7","class_response","1","train","27","Pumice","Pumice","06","true","8","8","",""
"","","","","","","","","","","","html-button-response","158","2.0.0","714321","632b9d9bc38454f47019295c","1","28","799","","","","","","","","","<img src= rock_img/I_Pumice_06.jpg style=""width:8cm; height:6.9399999999999995cm;""><p style='font-size: 30px; color: green;'><strong>Correct!</strong></p><p style='font-size: 30px;'><strong>This rock is pumice</strong></p>","0","corr_feedback","1","train","27","","","","","","","",""
"","","","","","","","","","","","html-button-response","159","2.0.0","719681","632b9d9bc38454f47019295c","1","28","5359","","","","","","","","","<img src= ""rock_img/I_Diorite_02.jpg"" style=""width:8cm; height:6.27cm;""><p>What type of rock is this?</p>","5","class_response","1","train","28","Pegmatite","Diorite","02","false","6","3","",""
"","","","","","","","","","","","html-button-response","160","2.0.0","723421","632b9d9bc38454f47019295c","1","28","3739","","","","","","","","","<img src= rock_img/I_Diorite_02.jpg style=""width:8cm; height:6.27cm;""><p style='font-size: 30px; color: red;'><strong>Incorrect!</strong></p><p style='font-size: 30px;'><strong>This rock is diorite</strong></p>","0","corr_feedback","1","train","28","","","","","","","",""
"","","","","","","","","","","","html-button-response","161","2.0.0","724808","632b9d9bc38454f47019295c","1","28","1387","","","","","","","","","<img src= ""rock_img/I_Pumice_09.jpg"" style=""width:8cm; height:6.44cm;""><p>What type of rock is this?</p>","7","class_response","1","train","29","Pumice","Pumice","09","true","8","8","",""
"","","","","","","","","","","","html-button-response","162","2.0.0","726105","632b9d9bc38454f47019295c","1","28","1295","","","","","","","","","<img src= rock_img/I_Pumice_09.jpg style=""width:8cm; height:6.44cm;""><p style='font-size: 30px; color: green;'><strong>Correct!</strong></p><p style='font-size: 30px;'><strong>This rock is pumice</strong></p>","0","corr_feedback","1","train","29","","","","","","","",""
"","","","","","","","","","","","html-button-response","163","2.0.0","730617","632b9d9bc38454f47019295c","1","28","4511","","","","","","","","","<img src= ""rock_img/I_Andesite_06.jpg"" style=""width:8cm; height:6.840000000000001cm;""><p>What type of rock is this?</p>","0","class_response","1","train","30","Andesite","Andesite","06","true","1","1","",""
"","","","","","","","","","","","html-button-response","164","2.0.0","733020","632b9d9bc38454f47019295c","1","28","2402","","","","","","","","","<img src= rock_img/I_Andesite_06.jpg style=""width:8cm; height:6.840000000000001cm;""><p style='font-size: 30px; color: green;'><strong>Correct!</strong></p><p style='font-size: 30px;'><strong>This rock is andesite</strong></p>","0","corr_feedback","1","train","30","","","","","","","",""
"","","","","","","","","","","","html-button-response","165","2.0.0","747332","632b9d9bc38454f47019295c","1","28","14311","","","","","","","","","<img src= ""rock_img/I_Gabbro_01.jpg"" style=""width:8cm; height:5.21cm;""><p>What type of rock is this?</p>","5","class_response","1","train","31","Pegmatite","Gabbro","01","false","6","4","",""
"","","","","","","","","","","","html-button-response","166","2.0.0","751657","632b9d9bc38454f47019295c","1","28","4324","","","","","","","","","<img src= rock_img/I_Gabbro_01.jpg style=""width:8cm; height:5.21cm;""><p style='font-size: 30px; color: red;'><strong>Incorrect!</strong></p><p style='font-size: 30px;'><strong>This rock is gabbro</strong></p>","0","corr_feedback","1","train","31","","","","","","","",""
"","","","","","","","","","","","html-button-response","167","2.0.0","753772","632b9d9bc38454f47019295c","1","28","2114","","","","","","","","","<img src= ""rock_img/I_Peridotite_10.jpg"" style=""width:8cm; height:5.390000000000001cm;""><p>What type of rock is this?</p>","6","class_response","1","train","32","Peridotite","Peridotite","10","true","7","7","",""
"","","","","","","","","","","","html-button-response","168","2.0.0","755053","632b9d9bc38454f47019295c","1","28","1279","","","","","","","","","<img src= rock_img/I_Peridotite_10.jpg style=""width:8cm; height:5.390000000000001cm;""><p style='font-size: 30px; color: green;'><strong>Correct!</strong></p><p style='font-size: 30px;'><strong>This rock is peridotite</strong></p>","0","corr_feedback","1","train","32","","","","","","","",""
"","","","","","","","","","","","html-button-response","169","2.0.0","760237","632b9d9bc38454f47019295c","1","28","5183","","","","","","","","","<img src= ""rock_img/I_Diorite_10.jpg"" style=""width:8cm; height:5.949999999999999cm;""><p>What type of rock is this?</p>","2","class_response","1","train","33","Diorite","Diorite","10","true","3","3","",""
"","","","","","","","","","","","html-button-response","170","2.0.0","766320","632b9d9bc38454f47019295c","1","28","6083","","","","","","","","","<img src= rock_img/I_Diorite_10.jpg style=""width:8cm; height:5.949999999999999cm;""><p style='font-size: 30px; color: green;'><strong>Correct!</strong></p><p style='font-size: 30px;'><strong>This rock is diorite</strong></p>","0","corr_feedback","1","train","33","","","","","","","",""
"","","","","","","","","","","","html-button-response","171","2.0.0","770732","632b9d9bc38454f47019295c","1","28","4410","","","","","","","","","<img src= ""rock_img/I_Diorite_13.jpg"" style=""width:8cm; height:6.29cm;""><p>What type of rock is this?</p>","5","class_response","1","train","34","Pegmatite","Diorite","13","false","6","3","",""
"","","","","","","","","","","","html-button-response","172","2.0.0","772312","632b9d9bc38454f47019295c","1","28","1579","","","","","","","","","<img src= rock_img/I_Diorite_13.jpg style=""width:8cm; height:6.29cm;""><p style='font-size: 30px; color: red;'><strong>Incorrect!</strong></p><p style='font-size: 30px;'><strong>This rock is diorite</strong></p>","0","corr_feedback","1","train","34","","","","","","","",""
"","","","","","","","","","","","html-button-response","173","2.0.0","782304","632b9d9bc38454f47019295c","1","28","9991","","","","","","","","","<img src= ""rock_img/I_Andesite_14.jpg"" style=""width:8cm; height:5.449999999999999cm;""><p>What type of rock is this?</p>","3","class_response","1","train","35","Gabbro","Andesite","14","false","4","1","",""
"","","","","","","","","","","","html-button-response","174","2.0.0","786276","632b9d9bc38454f47019295c","1","28","3971","","","","","","","","","<img src= rock_img/I_Andesite_14.jpg style=""width:8cm; height:5.449999999999999cm;""><p style='font-size: 30px; color: red;'><strong>Incorrect!</strong></p><p style='font-size: 30px;'><strong>This rock is andesite</strong></p>","0","corr_feedback","1","train","35","","","","","","","",""
"","","","","","","","","","","","html-button-response","175","2.0.0","797772","632b9d9bc38454f47019295c","1","28","11495","","","","","","","","","<img src= ""rock_img/I_Peridotite_04.jpg"" style=""width:8cm; height:6.680000000000001cm;""><p>What type of rock is this?</p>","6","class_response","1","train","36","Peridotite","Peridotite","04","true","7","7","",""
"","","","","","","","","","","","html-button-response","176","2.0.0","826076","632b9d9bc38454f47019295c","1","28","28303","","","","","","","","","<img src= rock_img/I_Peridotite_04.jpg style=""width:8cm; height:6.680000000000001cm;""><p style='font-size: 30px; color: green;'><strong>Correct!</strong></p><p style='font-size: 30px;'><strong>This rock is peridotite</strong></p>","0","corr_feedback","1","train","36","","","","","","","",""
"","","","","","","","","","","","html-button-response","177","2.0.0","827600","632b9d9bc38454f47019295c","1","28","1523","","","","","","","","","<img src= ""rock_img/I_Obsidian_02.jpg"" style=""width:8cm; height:7.51cm;""><p>What type of rock is this?</p>","4","class_response","1","train","37","Obsidian","Obsidian","02","true","5","5","",""
"","","","","","","","","","","","html-button-response","178","2.0.0","828720","632b9d9bc38454f47019295c","1","28","1118","","","","","","","","","<img src= rock_img/I_Obsidian_02.jpg style=""width:8cm; height:7.51cm;""><p style='font-size: 30px; color: green;'><strong>Correct!</strong></p><p style='font-size: 30px;'><strong>This rock is obsidian</strong></p>","0","corr_feedback","1","train","37","","","","","","","",""
"","","","","","","","","","","","html-button-response","179","2.0.0","830098","632b9d9bc38454f47019295c","1","28","1377","","","","","","","","","<img src= ""rock_img/I_Basalt_05.jpg"" style=""width:8cm; height:8.18cm;""><p>What type of rock is this?</p>","1","class_response","1","train","38","Basalt","Basalt","05","true","2","2","",""
"","","","","","","","","","","","html-button-response","180","2.0.0","831076","632b9d9bc38454f47019295c","1","28","977","","","","","","","","","<img src= rock_img/I_Basalt_05.jpg style=""width:8cm; height:8.18cm;""><p style='font-size: 30px; color: green;'><strong>Correct!</strong></p><p style='font-size: 30px;'><strong>This rock is basalt</strong></p>","0","corr_feedback","1","train","38","","","","","","","",""
"","","","","","","","","","","","html-button-response","181","2.0.0","839519","632b9d9bc38454f47019295c","1","28","8443","","","","","","","","","<img src= ""rock_img/I_Pegmatite_10.jpg"" style=""width:8cm; height:4.16cm;""><p>What type of rock is this?</p>","6","class_response","1","train","39","Peridotite","Pegmatite","10","false","7","6","",""
"","","","","","","","","","","","html-button-response","182","2.0.0","845691","632b9d9bc38454f47019295c","1","28","6171","","","","","","","","","<img src= rock_img/I_Pegmatite_10.jpg style=""width:8cm; height:4.16cm;""><p style='font-size: 30px; color: red;'><strong>Incorrect!</strong></p><p style='font-size: 30px;'><strong>This rock is pegmatite</strong></p>","0","corr_feedback","1","train","39","","","","","","","",""
"","","","","","","","","","","","html-button-response","183","2.0.0","855959","632b9d9bc38454f47019295c","1","28","10267","","","","","","","","","<img src= ""rock_img/I_Gabbro_05.jpg"" style=""width:8cm; height:6cm;""><p>What type of rock is this?</p>","6","class_response","1","train","40","Peridotite","Gabbro","05","false","7","4","",""
"","","","","","","","","","","","html-button-response","184","2.0.0","859340","632b9d9bc38454f47019295c","1","28","3379","","","","","","","","","<img src= rock_img/I_Gabbro_05.jpg style=""width:8cm; height:6cm;""><p style='font-size: 30px; color: red;'><strong>Incorrect!</strong></p><p style='font-size: 30px;'><strong>This rock is gabbro</strong></p>","0","corr_feedback","1","train","40","","","","","","","",""
"","","","","","","","","","","","html-button-response","185","2.0.0","864763","632b9d9bc38454f47019295c","1","28","5423","","","","","","","","","<img src= ""rock_img/I_Pegmatite_07.jpg"" style=""width:8cm; height:6.7cm;""><p>What type of rock is this?</p>","6","class_response","1","train","41","Peridotite","Pegmatite","07","false","7","6","",""
"","","","","","","","","","","","html-button-response","186","2.0.0","869264","632b9d9bc38454f47019295c","1","28","4499","","","","","","","","","<img src= rock_img/I_Pegmatite_07.jpg style=""width:8cm; height:6.7cm;""><p style='font-size: 30px; color: red;'><strong>Incorrect!</strong></p><p style='font-size: 30px;'><strong>This rock is pegmatite</strong></p>","0","corr_feedback","1","train","41","","","","","","","",""
"","","","","","","","","","","","html-button-response","187","2.0.0","870683","632b9d9bc38454f47019295c","1","28","1419","","","","","","","","","<img src= ""rock_img/I_Basalt_10.jpg"" style=""width:8cm; height:5.85cm;""><p>What type of rock is this?</p>","1","class_response","1","train","42","Basalt","Basalt","10","true","2","2","",""
"","","","","","","","","","","","html-button-response","188","2.0.0","871659","632b9d9bc38454f47019295c","1","28","975","","","","","","","","","<img src= rock_img/I_Basalt_10.jpg style=""width:8cm; height:5.85cm;""><p style='font-size: 30px; color: green;'><strong>Correct!</strong></p><p style='font-size: 30px;'><strong>This rock is basalt</strong></p>","0","corr_feedback","1","train","42","","","","","","","",""
"","","","","","","","","","","","html-button-response","189","2.0.0","874423","632b9d9bc38454f47019295c","1","28","2763","","","","","","","","","<img src= ""rock_img/I_Gabbro_11.jpg"" style=""width:8cm; height:6.2cm;""><p>What type of rock is this?</p>","1","class_response","1","train","43","Basalt","Gabbro","11","false","2","4","",""
"","","","","","","","","","","","html-button-response","190","2.0.0","876092","632b9d9bc38454f47019295c","1","28","1668","","","","","","","","","<img src= rock_img/I_Gabbro_11.jpg style=""width:8cm; height:6.2cm;""><p style='font-size: 30px; color: red;'><strong>Incorrect!</strong></p><p style='font-size: 30px;'><strong>This rock is gabbro</strong></p>","0","corr_feedback","1","train","43","","","","","","","",""
"","","","","","","","","","","","html-button-response","191","2.0.0","877484","632b9d9bc38454f47019295c","1","28","1392","","","","","","","","","<img src= ""rock_img/I_Pumice_15.jpg"" style=""width:8cm; height:7.86cm;""><p>What type of rock is this?</p>","7","class_response","1","train","44","Pumice","Pumice","15","true","8","8","",""
"","","","","","","","","","","","html-button-response","192","2.0.0","878587","632b9d9bc38454f47019295c","1","28","1102","","","","","","","","","<img src= rock_img/I_Pumice_15.jpg style=""width:8cm; height:7.86cm;""><p style='font-size: 30px; color: green;'><strong>Correct!</strong></p><p style='font-size: 30px;'><strong>This rock is pumice</strong></p>","0","corr_feedback","1","train","44","","","","","","","",""
"","","","","","","","","","","","html-button-response","193","2.0.0","885488","632b9d9bc38454f47019295c","1","28","6899","","","","","","","","","<img src= ""rock_img/I_Pegmatite_12.jpg"" style=""width:8cm; height:5.7cm;""><p>What type of rock is this?</p>","0","class_response","1","train","45","Andesite","Pegmatite","12","false","1","6","",""
"","","","","","","","","","","","html-button-response","194","2.0.0","890400","632b9d9bc38454f47019295c","1","28","4911","","","","","","","","","<img src= rock_img/I_Pegmatite_12.jpg style=""width:8cm; height:5.7cm;""><p style='font-size: 30px; color: red;'><strong>Incorrect!</strong></p><p style='font-size: 30px;'><strong>This rock is pegmatite</strong></p>","0","corr_feedback","1","train","45","","","","","","","",""
"","","","","","","","","","","","html-button-response","195","2.0.0","892083","632b9d9bc38454f47019295c","1","28","1682","","","","","","","","","<img src= ""rock_img/I_Basalt_12.jpg"" style=""width:8cm; height:6.010000000000001cm;""><p>What type of rock is this?</p>","7","class_response","1","train","46","Pumice","Basalt","12","false","8","2","",""
"","","","","","","","","","","","html-button-response","196","2.0.0","896047","632b9d9bc38454f47019295c","1","28","3963","","","","","","","","","<img src= rock_img/I_Basalt_12.jpg style=""width:8cm; height:6.010000000000001cm;""><p style='font-size: 30px; color: red;'><strong>Incorrect!</strong></p><p style='font-size: 30px;'><strong>This rock is basalt</strong></p>","0","corr_feedback","1","train","46","","","","","","","",""
"","","","","","","","","","","","html-button-response","197","2.0.0","905887","632b9d9bc38454f47019295c","1","28","9839","","","","","","","","","<img src= ""rock_img/I_Pegmatite_06.jpg"" style=""width:8cm; height:5.17cm;""><p>What type of rock is this?</p>","6","class_response","1","train","47","Peridotite","Pegmatite","06","false","7","6","",""
"","","","","","","","","","","","html-button-response","198","2.0.0","909722","632b9d9bc38454f47019295c","1","28","3834","","","","","","","","","<img src= rock_img/I_Pegmatite_06.jpg style=""width:8cm; height:5.17cm;""><p style='font-size: 30px; color: red;'><strong>Incorrect!</strong></p><p style='font-size: 30px;'><strong>This rock is pegmatite</strong></p>","0","corr_feedback","1","train","47","","","","","","","",""
"","","","","","","","","","","","html-button-response","199","2.0.0","911399","632b9d9bc38454f47019295c","1","28","1676","","","","","","","","","<img src= ""rock_img/I_Pegmatite_03.jpg"" style=""width:8cm; height:5.239999999999999cm;""><p>What type of rock is this?</p>","6","class_response","1","train","48","Peridotite","Pegmatite","03","false","7","6","",""
"","","","","","","","","","","","html-button-response","200","2.0.0","912931","632b9d9bc38454f47019295c","1","28","1531","","","","","","","","","<img src= rock_img/I_Pegmatite_03.jpg style=""width:8cm; height:5.239999999999999cm;""><p style='font-size: 30px; color: red;'><strong>Incorrect!</strong></p><p style='font-size: 30px;'><strong>This rock is pegmatite</strong></p>","0","corr_feedback","1","train","48","","","","","","","",""
"","","","","","","","","","","","instructions","203","2.0.0","947379","632b9d9bc38454f47019295c","1","28","34447","","","","","","","","[{""page_index"":0,""viewing_time"":15707},{""page_index"":1,""viewing_time"":18740}]","","","","","","","","","","","","","",""
"","","","","","","","","","","","html-button-response","204","2.0.0","950543","632b9d9bc38454f47019295c","1","28","3163","","","","","","","","","","0","start_test","","","","","","","","","","",""
"","","","","","","","","","","","html-button-response","205","2.0.0","955375","632b9d9bc38454f47019295c","1","28","4831","","","","","","","","","<img src= ""rock_img/I_Peridotite_15.jpg"" style=""width:8cm; height:6cm;""><p>What type of rock is this?</p>","6","class_response","1","test","1","Peridotite","Peridotite","15","true","7","7","",""
"","","","","","","","","","","","html-keyboard-response","206","2.0.0","955877","632b9d9bc38454f47019295c","1","28","null","","","","","","","","","<p style='font-size: 30px;'><strong>Okay</strong></p>","null","neutral_feedback","1","test","1","","","","","","","",""
"","","","","","","","","","","","html-button-response","207","2.0.0","961134","632b9d9bc38454f47019295c","1","28","5256","","","","","","","","","<img src= ""rock_img/I_Andesite_01.jpg"" style=""width:8cm; height:5.87cm;""><p>What type of rock is this?</p>","3","class_response","1","test","2","Gabbro","Andesite","01","false","4","1","",""
"","","","","","","","","","","","html-keyboard-response","208","2.0.0","961637","632b9d9bc38454f47019295c","1","28","null","","","","","","","","","<p style='font-size: 30px;'><strong>Okay</strong></p>","null","neutral_feedback","1","test","2","","","","","","","",""
"","","","","","","","","","","","html-button-response","209","2.0.0","963194","632b9d9bc38454f47019295c","1","28","1556","","","","","","","","","<img src= ""rock_img/I_Basalt_09.jpg"" style=""width:8cm; height:6.2cm;""><p>What type of rock is this?</p>","1","class_response","1","test","3","Basalt","Basalt","09","true","2","2","",""
"","","","","","","","","","","","html-keyboard-response","210","2.0.0","963700","632b9d9bc38454f47019295c","1","28","null","","","","","","","","","<p style='font-size: 30px;'><strong>Okay</strong></p>","null","neutral_feedback","1","test","3","","","","","","","",""
"","","","","","","","","","","","html-button-response","211","2.0.0","969915","632b9d9bc38454f47019295c","1","28","6213","","","","","","","","","<img src= ""rock_img/I_Andesite_03.jpg"" style=""width:8cm; height:5.73cm;""><p>What type of rock is this?</p>","0","class_response","1","test","4","Andesite","Andesite","03","true","1","1","",""
"","","","","","","","","","","","html-keyboard-response","212","2.0.0","970418","632b9d9bc38454f47019295c","1","28","null","","","","","","","","","<p style='font-size: 30px;'><strong>Okay</strong></p>","null","neutral_feedback","1","test","4","","","","","","","",""
"","","","","","","","","","","","html-button-response","213","2.0.0","975778","632b9d9bc38454f47019295c","1","28","5359","","","","","","","","","<img src= ""rock_img/I_Andesite_07.jpg"" style=""width:8cm; height:5.93cm;""><p>What type of rock is this?</p>","5","class_response","1","test","5","Pegmatite","Andesite","07","false","6","1","",""
"","","","","","","","","","","","html-keyboard-response","214","2.0.0","976283","632b9d9bc38454f47019295c","1","28","null","","","","","","","","","<p style='font-size: 30px;'><strong>Okay</strong></p>","null","neutral_feedback","1","test","5","","","","","","","",""
"","","","","","","","","","","","html-button-response","215","2.0.0","978374","632b9d9bc38454f47019295c","1","28","2090","","","","","","","","","<img src= ""rock_img/I_Obsidian_11.jpg"" style=""width:8cm; height:6.05cm;""><p>What type of rock is this?</p>","4","class_response","1","test","6","Obsidian","Obsidian","11","true","5","5","",""
"","","","","","","","","","","","html-keyboard-response","216","2.0.0","978883","632b9d9bc38454f47019295c","1","28","null","","","","","","","","","<p style='font-size: 30px;'><strong>Okay</strong></p>","null","neutral_feedback","1","test","6","","","","","","","",""
"","","","","","","","","","","","html-button-response","217","2.0.0","987222","632b9d9bc38454f47019295c","1","28","8338","","","","","","","","","<img src= ""rock_img/I_Gabbro_09.jpg"" style=""width:8cm; height:7.279999999999999cm;""><p>What type of rock is this?</p>","2","class_response","1","test","7","Diorite","Gabbro","09","false","3","4","",""
"","","","","","","","","","","","html-keyboard-response","218","2.0.0","987727","632b9d9bc38454f47019295c","1","28","null","","","","","","","","","<p style='font-size: 30px;'><strong>Okay</strong></p>","null","neutral_feedback","1","test","7","","","","","","","",""
"","","","","","","","","","","","html-button-response","219","2.0.0","989670","632b9d9bc38454f47019295c","1","28","1943","","","","","","","","","<img src= ""rock_img/I_Pumice_05.jpg"" style=""width:8cm; height:7.25cm;""><p>What type of rock is this?</p>","7","class_response","1","test","8","Pumice","Pumice","05","true","8","8","",""
"","","","","","","","","","","","html-keyboard-response","220","2.0.0","990172","632b9d9bc38454f47019295c","1","28","null","","","","","","","","","<p style='font-size: 30px;'><strong>Okay</strong></p>","null","neutral_feedback","1","test","8","","","","","","","",""
"","","","","","","","","","","","html-button-response","221","2.0.0","993122","632b9d9bc38454f47019295c","1","28","2948","","","","","","","","","<img src= ""rock_img/I_Andesite_16.jpg"" style=""width:8cm; height:6.010000000000001cm;""><p>What type of rock is this?</p>","0","class_response","1","test","9","Andesite","Andesite","16","true","1","1","",""
"","","","","","","","","","","","html-keyboard-response","222","2.0.0","993627","632b9d9bc38454f47019295c","1","28","null","","","","","","","","","<p style='font-size: 30px;'><strong>Okay</strong></p>","null","neutral_feedback","1","test","9","","","","","","","",""
"","","","","","","","","","","","html-button-response","223","2.0.0","1012026","632b9d9bc38454f47019295c","1","28","18398","","","","","","","","","<img src= ""rock_img/I_Peridotite_05.jpg"" style=""width:8cm; height:7.1499999999999995cm;""><p>What type of rock is this?</p>","5","class_response","1","test","10","Pegmatite","Peridotite","05","false","6","7","",""
"","","","","","","","","","","","html-keyboard-response","224","2.0.0","1012535","632b9d9bc38454f47019295c","1","28","null","","","","","","","","","<p style='font-size: 30px;'><strong>Okay</strong></p>","null","neutral_feedback","1","test","10","","","","","","","",""
"","","","","","","","","","","","html-button-response","225","2.0.0","1026706","632b9d9bc38454f47019295c","1","28","14171","","","","","","","","","<img src= ""rock_img/I_Pegmatite_09.jpg"" style=""width:8cm; height:4.03cm;""><p>What type of rock is this?</p>","5","class_response","1","test","11","Pegmatite","Pegmatite","09","true","6","6","",""
"","","","","","","","","","","","html-keyboard-response","226","2.0.0","1027209","632b9d9bc38454f47019295c","1","28","null","","","","","","","","","<p style='font-size: 30px;'><strong>Okay</strong></p>","null","neutral_feedback","1","test","11","","","","","","","",""
"","","","","","","","","","","","html-button-response","227","2.0.0","1028694","632b9d9bc38454f47019295c","1","28","1483","","","","","","","","","<img src= ""rock_img/I_Obsidian_09.jpg"" style=""width:8cm; height:5cm;""><p>What type of rock is this?</p>","4","class_response","1","test","12","Obsidian","Obsidian","09","true","5","5","",""
"","","","","","","","","","","","html-keyboard-response","228","2.0.0","1029202","632b9d9bc38454f47019295c","1","28","null","","","","","","","","","<p style='font-size: 30px;'><strong>Okay</strong></p>","null","neutral_feedback","1","test","12","","","","","","","",""
"","","","","","","","","","","","html-button-response","229","2.0.0","1037130","632b9d9bc38454f47019295c","1","28","7927","","","","","","","","","<img src= ""rock_img/I_Pegmatite_15.jpg"" style=""width:8cm; height:6cm;""><p>What type of rock is this?</p>","2","class_response","1","test","13","Diorite","Pegmatite","15","false","3","6","",""
"","","","","","","","","","","","html-keyboard-response","230","2.0.0","1037637","632b9d9bc38454f47019295c","1","28","null","","","","","","","","","<p style='font-size: 30px;'><strong>Okay</strong></p>","null","neutral_feedback","1","test","13","","","","","","","",""
"","","","","","","","","","","","html-button-response","231","2.0.0","1053242","632b9d9bc38454f47019295c","1","28","15604","","","","","","","","","<img src= ""rock_img/I_Pegmatite_16.jpg"" style=""width:8cm; height:5.8cm;""><p>What type of rock is this?</p>","6","class_response","1","test","14","Peridotite","Pegmatite","16","false","7","6","",""
"","","","","","","","","","","","html-keyboard-response","232","2.0.0","1053749","632b9d9bc38454f47019295c","1","28","null","","","","","","","","","<p style='font-size: 30px;'><strong>Okay</strong></p>","null","neutral_feedback","1","test","14","","","","","","","",""
"","","","","","","","","","","","html-button-response","233","2.0.0","1063778","632b9d9bc38454f47019295c","1","28","10027","","","","","","","","","<img src= ""rock_img/I_Pegmatite_13.jpg"" style=""width:8cm; height:4.95cm;""><p>What type of rock is this?</p>","5","class_response","1","test","15","Pegmatite","Pegmatite","13","true","6","6","",""
"","","","","","","","","","","","html-keyboard-response","234","2.0.0","1064287","632b9d9bc38454f47019295c","1","28","null","","","","","","","","","<p style='font-size: 30px;'><strong>Okay</strong></p>","null","neutral_feedback","1","test","15","","","","","","","",""
"","","","","","","","","","","","html-button-response","235","2.0.0","1072970","632b9d9bc38454f47019295c","1","28","8682","","","","","","","","","<img src= ""rock_img/I_Peridotite_14.jpg"" style=""width:8cm; height:5.3cm;""><p>What type of rock is this?</p>","6","class_response","1","test","16","Peridotite","Peridotite","14","true","7","7","",""
"","","","","","","","","","","","html-keyboard-response","236","2.0.0","1073474","632b9d9bc38454f47019295c","1","28","null","","","","","","","","","<p style='font-size: 30px;'><strong>Okay</strong></p>","null","neutral_feedback","1","test","16","","","","","","","",""
"","","","","","","","","","","","html-button-response","237","2.0.0","1076294","632b9d9bc38454f47019295c","1","28","2819","","","","","","","","","<img src= ""rock_img/I_Obsidian_05.jpg"" style=""width:8cm; height:6.33cm;""><p>What type of rock is this?</p>","4","class_response","1","test","17","Obsidian","Obsidian","05","true","5","5","",""
"","","","","","","","","","","","html-keyboard-response","238","2.0.0","1076803","632b9d9bc38454f47019295c","1","28","null","","","","","","","","","<p style='font-size: 30px;'><strong>Okay</strong></p>","null","neutral_feedback","1","test","17","","","","","","","",""
"","","","","","","","","","","","html-button-response","239","2.0.0","1079146","632b9d9bc38454f47019295c","1","28","2342","","","","","","","","","<img src= ""rock_img/I_Gabbro_16.jpg"" style=""width:8cm; height:6.44cm;""><p>What type of rock is this?</p>","3","class_response","1","test","18","Gabbro","Gabbro","16","true","4","4","",""
"","","","","","","","","","","","html-keyboard-response","240","2.0.0","1079652","632b9d9bc38454f47019295c","1","28","null","","","","","","","","","<p style='font-size: 30px;'><strong>Okay</strong></p>","null","neutral_feedback","1","test","18","","","","","","","",""
"","","","","","","","","","","","html-button-response","241","2.0.0","1080969","632b9d9bc38454f47019295c","1","28","1317","","","","","","","","","<img src= ""rock_img/I_Pumice_10.jpg"" style=""width:8cm; height:7.609999999999999cm;""><p>What type of rock is this?</p>","7","class_response","1","test","19","Pumice","Pumice","10","true","8","8","",""
"","","","","","","","","","","","html-keyboard-response","242","2.0.0","1081483","632b9d9bc38454f47019295c","1","28","null","","","","","","","","","<p style='font-size: 30px;'><strong>Okay</strong></p>","null","neutral_feedback","1","test","19","","","","","","","",""
"","","","","","","","","","","","html-button-response","243","2.0.0","1083358","632b9d9bc38454f47019295c","1","28","1875","","","","","","","","","<img src= ""rock_img/I_Pumice_16.jpg"" style=""width:8cm; height:6.79cm;""><p>What type of rock is this?</p>","7","class_response","1","test","20","Pumice","Pumice","16","true","8","8","",""
"","","","","","","","","","","","html-keyboard-response","244","2.0.0","1083859","632b9d9bc38454f47019295c","1","28","null","","","","","","","","","<p style='font-size: 30px;'><strong>Okay</strong></p>","null","neutral_feedback","1","test","20","","","","","","","",""
"","","","","","","","","","","","html-button-response","245","2.0.0","1090457","632b9d9bc38454f47019295c","1","28","6597","","","","","","","","","<img src= ""rock_img/I_Basalt_16.jpg"" style=""width:8cm; height:7.659999999999999cm;""><p>What type of rock is this?</p>","1","class_response","1","test","21","Basalt","Basalt","16","true","2","2","",""
"","","","","","","","","","","","html-keyboard-response","246","2.0.0","1090968","632b9d9bc38454f47019295c","1","28","null","","","","","","","","","<p style='font-size: 30px;'><strong>Okay</strong></p>","null","neutral_feedback","1","test","21","","","","","","","",""
"","","","","","","","","","","","html-button-response","247","2.0.0","1093726","632b9d9bc38454f47019295c","1","28","2757","","","","","","","","","<img src= ""rock_img/I_Gabbro_08.jpg"" style=""width:8cm; height:5.15cm;""><p>What type of rock is this?</p>","3","class_response","1","test","22","Gabbro","Gabbro","08","true","4","4","",""
"","","","","","","","","","","","html-keyboard-response","248","2.0.0","1094235","632b9d9bc38454f47019295c","1","28","null","","","","","","","","","<p style='font-size: 30px;'><strong>Okay</strong></p>","null","neutral_feedback","1","test","22","","","","","","","",""
"","","","","","","","","","","","html-button-response","249","2.0.0","1096221","632b9d9bc38454f47019295c","1","28","1985","","","","","","","","","<img src= ""rock_img/I_Gabbro_12.jpg"" style=""width:8cm; height:7.800000000000001cm;""><p>What type of rock is this?</p>","1","class_response","1","test","23","Basalt","Gabbro","12","false","2","4","",""
"","","","","","","","","","","","html-keyboard-response","250","2.0.0","1096725","632b9d9bc38454f47019295c","1","28","null","","","","","","","","","<p style='font-size: 30px;'><strong>Okay</strong></p>","null","neutral_feedback","1","test","23","","","","","","","",""
"","","","","","","","","","","","html-button-response","251","2.0.0","1102521","632b9d9bc38454f47019295c","1","28","5794","","","","","","","","","<img src= ""rock_img/I_Gabbro_15.jpg"" style=""width:8cm; height:6.29cm;""><p>What type of rock is this?</p>","3","class_response","1","test","24","Gabbro","Gabbro","15","true","4","4","",""
"","","","","","","","","","","","html-keyboard-response","252","2.0.0","1103025","632b9d9bc38454f47019295c","1","28","null","","","","","","","","","<p style='font-size: 30px;'><strong>Okay</strong></p>","null","neutral_feedback","1","test","24","","","","","","","",""
"","","","","","","","","","","","html-button-response","253","2.0.0","1115398","632b9d9bc38454f47019295c","1","28","12372","","","","","","","","","<img src= ""rock_img/I_Diorite_15.jpg"" style=""width:8cm; height:5.54cm;""><p>What type of rock is this?</p>","2","class_response","1","test","25","Diorite","Diorite","15","true","3","3","",""
"","","","","","","","","","","","html-keyboard-response","254","2.0.0","1115901","632b9d9bc38454f47019295c","1","28","null","","","","","","","","","<p style='font-size: 30px;'><strong>Okay</strong></p>","null","neutral_feedback","1","test","25","","","","","","","",""
"","","","","","","","","","","","html-button-response","255","2.0.0","1117541","632b9d9bc38454f47019295c","1","28","1639","","","","","","","","","<img src= ""rock_img/I_Obsidian_16.jpg"" style=""width:8cm; height:9.3cm;""><p>What type of rock is this?</p>","4","class_response","1","test","26","Obsidian","Obsidian","16","true","5","5","",""
"","","","","","","","","","","","html-keyboard-response","256","2.0.0","1118051","632b9d9bc38454f47019295c","1","28","null","","","","","","","","","<p style='font-size: 30px;'><strong>Okay</strong></p>","null","neutral_feedback","1","test","26","","","","","","","",""
"","","","","","","","","","","","html-button-response","257","2.0.0","1120089","632b9d9bc38454f47019295c","1","28","2036","","","","","","","","","<img src= ""rock_img/I_Obsidian_10.jpg"" style=""width:8cm; height:6.260000000000001cm;""><p>What type of rock is this?</p>","4","class_response","1","test","27","Obsidian","Obsidian","10","true","5","5","",""
"","","","","","","","","","","","html-keyboard-response","258","2.0.0","1120598","632b9d9bc38454f47019295c","1","28","null","","","","","","","","","<p style='font-size: 30px;'><strong>Okay</strong></p>","null","neutral_feedback","1","test","27","","","","","","","",""
"","","","","","","","","","","","html-button-response","259","2.0.0","1124754","632b9d9bc38454f47019295c","1","28","4154","","","","","","","","","<img src= ""rock_img/I_Peridotite_07.jpg"" style=""width:8cm; height:4.83cm;""><p>What type of rock is this?</p>","6","class_response","1","test","28","Peridotite","Peridotite","07","true","7","7","",""
"","","","","","","","","","","","html-keyboard-response","260","2.0.0","1125264","632b9d9bc38454f47019295c","1","28","null","","","","","","","","","<p style='font-size: 30px;'><strong>Okay</strong></p>","null","neutral_feedback","1","test","28","","","","","","","",""
"","","","","","","","","","","","html-button-response","261","2.0.0","1126697","632b9d9bc38454f47019295c","1","28","1432","","","","","","","","","<img src= ""rock_img/I_Basalt_04.jpg"" style=""width:8cm; height:7.53cm;""><p>What type of rock is this?</p>","1","class_response","1","test","29","Basalt","Basalt","04","true","2","2","",""
"","","","","","","","","","","","html-keyboard-response","262","2.0.0","1127208","632b9d9bc38454f47019295c","1","28","null","","","","","","","","","<p style='font-size: 30px;'><strong>Okay</strong></p>","null","neutral_feedback","1","test","29","","","","","","","",""
"","","","","","","","","","","","html-button-response","263","2.0.0","1129005","632b9d9bc38454f47019295c","1","28","1795","","","","","","","","","<img src= ""rock_img/I_Basalt_02.jpg"" style=""width:8cm; height:6.45cm;""><p>What type of rock is this?</p>","1","class_response","1","test","30","Basalt","Basalt","02","true","2","2","",""
"","","","","","","","","","","","html-keyboard-response","264","2.0.0","1129510","632b9d9bc38454f47019295c","1","28","null","","","","","","","","","<p style='font-size: 30px;'><strong>Okay</strong></p>","null","neutral_feedback","1","test","30","","","","","","","",""
"","","","","","","","","","","","html-button-response","265","2.0.0","1133166","632b9d9bc38454f47019295c","1","28","3655","","","","","","","","","<img src= ""rock_img/I_Peridotite_13.jpg"" style=""width:8cm; height:7.58cm;""><p>What type of rock is this?</p>","6","class_response","1","test","31","Peridotite","Peridotite","13","true","7","7","",""
"","","","","","","","","","","","html-keyboard-response","266","2.0.0","1133669","632b9d9bc38454f47019295c","1","28","null","","","","","","","","","<p style='font-size: 30px;'><strong>Okay</strong></p>","null","neutral_feedback","1","test","31","","","","","","","",""
"","","","","","","","","","","","html-button-response","267","2.0.0","1136897","632b9d9bc38454f47019295c","1","28","3228","","","","","","","","","<img src= ""rock_img/I_Diorite_11.jpg"" style=""width:8cm; height:7.11cm;""><p>What type of rock is this?</p>","2","class_response","1","test","32","Diorite","Diorite","11","true","3","3","",""
"","","","","","","","","","","","html-keyboard-response","268","2.0.0","1137399","632b9d9bc38454f47019295c","1","28","null","","","","","","","","","<p style='font-size: 30px;'><strong>Okay</strong></p>","null","neutral_feedback","1","test","32","","","","","","","",""
"","","","","","","","","","","","html-button-response","269","2.0.0","1140125","632b9d9bc38454f47019295c","1","28","2725","","","","","","","","","<img src= ""rock_img/I_Andesite_02.jpg"" style=""width:8cm; height:8.5cm;""><p>What type of rock is this?</p>","0","class_response","1","test","33","Andesite","Andesite","02","true","1","1","",""
"","","","","","","","","","","","html-keyboard-response","270","2.0.0","1140636","632b9d9bc38454f47019295c","1","28","null","","","","","","","","","<p style='font-size: 30px;'><strong>Okay</strong></p>","null","neutral_feedback","1","test","33","","","","","","","",""
"","","","","","","","","","","","html-button-response","271","2.0.0","1142065","632b9d9bc38454f47019295c","1","28","1428","","","","","","","","","<img src= ""rock_img/I_Pumice_04.jpg"" style=""width:8cm; height:6.819999999999999cm;""><p>What type of rock is this?</p>","7","class_response","1","test","34","Pumice","Pumice","04","true","8","8","",""
"","","","","","","","","","","","html-keyboard-response","272","2.0.0","1142574","632b9d9bc38454f47019295c","1","28","null","","","","","","","","","<p style='font-size: 30px;'><strong>Okay</strong></p>","null","neutral_feedback","1","test","34","","","","","","","",""
"","","","","","","","","","","","html-button-response","273","2.0.0","1145741","632b9d9bc38454f47019295c","1","28","3165","","","","","","","","","<img src= ""rock_img/I_Obsidian_07.jpg"" style=""width:8cm; height:4.76cm;""><p>What type of rock is this?</p>","4","class_response","1","test","35","Obsidian","Obsidian","07","true","5","5","",""
"","","","","","","","","","","","html-keyboard-response","274","2.0.0","1146245","632b9d9bc38454f47019295c","1","28","null","","","","","","","","","<p style='font-size: 30px;'><strong>Okay</strong></p>","null","neutral_feedback","1","test","35","","","","","","","",""
"","","","","","","","","","","","html-button-response","275","2.0.0","1149881","632b9d9bc38454f47019295c","1","28","3635","","","","","","","","","<img src= ""rock_img/I_Basalt_11.jpg"" style=""width:8cm; height:5.359999999999999cm;""><p>What type of rock is this?</p>","1","class_response","1","test","36","Basalt","Basalt","11","true","2","2","",""
"","","","","","","","","","","","html-keyboard-response","276","2.0.0","1150385","632b9d9bc38454f47019295c","1","28","null","","","","","","","","","<p style='font-size: 30px;'><strong>Okay</strong></p>","null","neutral_feedback","1","test","36","","","","","","","",""
"","","","","","","","","","","","html-button-response","277","2.0.0","1152509","632b9d9bc38454f47019295c","1","28","2122","","","","","","","","","<img src= ""rock_img/I_Peridotite_02.jpg"" style=""width:8cm; height:5.859999999999999cm;""><p>What type of rock is this?</p>","6","class_response","1","test","37","Peridotite","Peridotite","02","true","7","7","",""
"","","","","","","","","","","","html-keyboard-response","278","2.0.0","1153013","632b9d9bc38454f47019295c","1","28","null","","","","","","","","","<p style='font-size: 30px;'><strong>Okay</strong></p>","null","neutral_feedback","1","test","37","","","","","","","",""
"","","","","","","","","","","","html-button-response","279","2.0.0","1159746","632b9d9bc38454f47019295c","1","28","6732","","","","","","","","","<img src= ""rock_img/I_Diorite_16.jpg"" style=""width:8cm; height:6.74cm;""><p>What type of rock is this?</p>","2","class_response","1","test","38","Diorite","Diorite","16","true","3","3","",""
"","","","","","","","","","","","html-keyboard-response","280","2.0.0","1160247","632b9d9bc38454f47019295c","1","28","null","","","","","","","","","<p style='font-size: 30px;'><strong>Okay</strong></p>","null","neutral_feedback","1","test","38","","","","","","","",""
"","","","","","","","","","","","html-button-response","281","2.0.0","1162461","632b9d9bc38454f47019295c","1","28","2212","","","","","","","","","<img src= ""rock_img/I_Gabbro_10.jpg"" style=""width:8cm; height:5.680000000000001cm;""><p>What type of rock is this?</p>","3","class_response","1","test","39","Gabbro","Gabbro","10","true","4","4","",""
"","","","","","","","","","","","html-keyboard-response","282","2.0.0","1162975","632b9d9bc38454f47019295c","1","28","null","","","","","","","","","<p style='font-size: 30px;'><strong>Okay</strong></p>","null","neutral_feedback","1","test","39","","","","","","","",""
"","","","","","","","","","","","html-button-response","283","2.0.0","1173181","632b9d9bc38454f47019295c","1","28","10204","","","","","","","","","<img src= ""rock_img/I_Diorite_09.jpg"" style=""width:8cm; height:5.27cm;""><p>What type of rock is this?</p>","2","class_response","1","test","40","Diorite","Diorite","09","true","3","3","",""
"","","","","","","","","","","","html-keyboard-response","284","2.0.0","1173683","632b9d9bc38454f47019295c","1","28","null","","","","","","","","","<p style='font-size: 30px;'><strong>Okay</strong></p>","null","neutral_feedback","1","test","40","","","","","","","",""
"","","","","","","","","","","","html-button-response","285","2.0.0","1176616","632b9d9bc38454f47019295c","1","28","2932","","","","","","","","","<img src= ""rock_img/I_Diorite_12.jpg"" style=""width:8cm; height:4.88cm;""><p>What type of rock is this?</p>","2","class_response","1","test","41","Diorite","Diorite","12","true","3","3","",""
"","","","","","","","","","","","html-keyboard-response","286","2.0.0","1177131","632b9d9bc38454f47019295c","1","28","null","","","","","","","","","<p style='font-size: 30px;'><strong>Okay</strong></p>","null","neutral_feedback","1","test","41","","","","","","","",""
"","","","","","","","","","","","html-button-response","287","2.0.0","1184333","632b9d9bc38454f47019295c","1","28","7201","","","","","","","","","<img src= ""rock_img/I_Pegmatite_11.jpg"" style=""width:8cm; height:8.14cm;""><p>What type of rock is this?</p>","5","class_response","1","test","42","Pegmatite","Pegmatite","11","true","6","6","",""
"","","","","","","","","","","","html-keyboard-response","288","2.0.0","1184836","632b9d9bc38454f47019295c","1","28","null","","","","","","","","","<p style='font-size: 30px;'><strong>Okay</strong></p>","null","neutral_feedback","1","test","42","","","","","","","",""
"","","","","","","","","","","","html-button-response","289","2.0.0","1188353","632b9d9bc38454f47019295c","1","28","3516","","","","","","","","","<img src= ""rock_img/I_Pegmatite_08.jpg"" style=""width:8cm; height:7.68cm;""><p>What type of rock is this?</p>","2","class_response","1","test","43","Diorite","Pegmatite","08","false","3","6","",""
"","","","","","","","","","","","html-keyboard-response","290","2.0.0","1188862","632b9d9bc38454f47019295c","1","28","null","","","","","","","","","<p style='font-size: 30px;'><strong>Okay</strong></p>","null","neutral_feedback","1","test","43","","","","","","","",""
"","","","","","","","","","","","html-button-response","291","2.0.0","1195156","632b9d9bc38454f47019295c","1","28","6294","","","","","","","","","<img src= ""rock_img/I_Diorite_07.jpg"" style=""width:8cm; height:5.239999999999999cm;""><p>What type of rock is this?</p>","2","class_response","1","test","44","Diorite","Diorite","07","true","3","3","",""
"","","","","","","","","","","","html-keyboard-response","292","2.0.0","1195662","632b9d9bc38454f47019295c","1","28","null","","","","","","","","","<p style='font-size: 30px;'><strong>Okay</strong></p>","null","neutral_feedback","1","test","44","","","","","","","",""
"","","","","","","","","","","","html-button-response","293","2.0.0","1197977","632b9d9bc38454f47019295c","1","28","2313","","","","","","","","","<img src= ""rock_img/I_Andesite_11.jpg"" style=""width:8cm; height:4.92cm;""><p>What type of rock is this?</p>","0","class_response","1","test","45","Andesite","Andesite","11","true","1","1","",""
"","","","","","","","","","","","html-keyboard-response","294","2.0.0","1198493","632b9d9bc38454f47019295c","1","28","null","","","","","","","","","<p style='font-size: 30px;'><strong>Okay</strong></p>","null","neutral_feedback","1","test","45","","","","","","","",""
"","","","","","","","","","","","html-button-response","295","2.0.0","1199713","632b9d9bc38454f47019295c","1","28","1219","","","","","","","","","<img src= ""rock_img/I_Basalt_01.jpg"" style=""width:8cm; height:7.880000000000001cm;""><p>What type of rock is this?</p>","1","class_response","1","test","46","Basalt","Basalt","01","true","2","2","",""
"","","","","","","","","","","","html-keyboard-response","296","2.0.0","1200218","632b9d9bc38454f47019295c","1","28","null","","","","","","","","","<p style='font-size: 30px;'><strong>Okay</strong></p>","null","neutral_feedback","1","test","46","","","","","","","",""
"","","","","","","","","","","","html-button-response","297","2.0.0","1201892","632b9d9bc38454f47019295c","1","28","1672","","","","","","","","","<img src= ""rock_img/I_Pumice_14.jpg"" style=""width:8cm; height:6.39cm;""><p>What type of rock is this?</p>","7","class_response","1","test","47","Pumice","Pumice","14","true","8","8","",""
"","","","","","","","","","","","html-keyboard-response","298","2.0.0","1202400","632b9d9bc38454f47019295c","1","28","null","","","","","","","","","<p style='font-size: 30px;'><strong>Okay</strong></p>","null","neutral_feedback","1","test","47","","","","","","","",""
"","","","","","","","","","","","html-button-response","299","2.0.0","1204208","632b9d9bc38454f47019295c","1","28","1808","","","","","","","","","<img src= ""rock_img/I_Pumice_02.jpg"" style=""width:8cm; height:7.3999999999999995cm;""><p>What type of rock is this?</p>","7","class_response","1","test","48","Pumice","Pumice","02","true","8","8","",""
"","","","","","","","","","","","html-keyboard-response","300","2.0.0","1204718","632b9d9bc38454f47019295c","1","28","null","","","","","","","","","<p style='font-size: 30px;'><strong>Okay</strong></p>","null","neutral_feedback","1","test","48","","","","","","","",""
"","","","","","","","","","","","html-button-response","301","2.0.0","1249528","632b9d9bc38454f47019295c","1","28","","","","","","","","","","","","cycle_feedback","","","","","","","","","","21738.800000071526","23067.199999928474"
"","","","","","","","","","","","html-button-response","303","2.0.0","1256980","632b9d9bc38454f47019295c","1","28","7451","","","","","","","","","","0","start_train","","","","","","","","","","",""
"","","","","","","","","","","","html-button-response","304","2.0.0","1259712","632b9d9bc38454f47019295c","1","28","2731","","","","","","","","","<img src= ""rock_img/I_Basalt_10.jpg"" style=""width:8cm; height:5.85cm;""><p>What type of rock is this?</p>","1","class_response","2","train","1","Basalt","Basalt","10","true","2","2","",""
