"width","height","webaudio","browser","browser_version","mobile","os","fullscreen","vsync_rate","webcam","microphone","trial_type","trial_index","plugin_version","time_elapsed","subjID","condition","stimID","rt","url","success","value","timeout","failed_images","failed_audio","failed_video","view_history","stimulus","response","trialType","cycle","phase","trial","resp","cat","token","corr","resp_num","cat_num","time_fb1","time_fb2"
"1680","938","true","chrome","130.0.0","false","Mac OS","true","61.14","true","true","browser-check","0","2.0.0","1011","5db598f48cf15c000b57eb36","1","12","","","","","","","","","","","","","","","","","","","","","","",""
"","","","","","","","","","","","external-html","1","2.0.0","91225","5db598f48cf15c000b57eb36","1","12","90142","consent_form.html","","","","","","","","","","","","","","","","","","","","",""
"","","","","","","","","","","","fullscreen","2","2.0.0","94212","5db598f48cf15c000b57eb36","1","12","1983","","true","","","","","","","","","","","","","","","","","","","",""
"","","","","","","","","","","","call-function","3","2.0.0","94216","5db598f48cf15c000b57eb36","1","12","","","","{}","","","","","","","","","","","","","","","","","","",""
"","","","","","","","","","","","preload","4","2.0.0","96108","5db598f48cf15c000b57eb36","1","12","","","true","","false","[]","[]","[]","","","","","","","","","","","","","","",""
"","","","","","","","","","","","instructions","5","2.0.0","135717","5db598f48cf15c000b57eb36","1","12","39607","","","","","","","","[{""page_index"":0,""viewing_time"":19942},{""page_index"":1,""viewing_time"":8514},{""page_index"":2,""viewing_time"":11150}]","","","","","","","","","","","","","",""
"","","","","","","","","","","","html-button-response","6","2.0.0","139461","5db598f48cf15c000b57eb36","1","12","3741","","","","","","","","","","0","start_test","","","","","","","","","","",""
"","","","","","","","","","","","html-button-response","7","2.0.0","143234","5db598f48cf15c000b57eb36","1","12","3769","","","","","","","","","<img src= ""rock_img/I_Diorite_16.jpg"" style=""width:8cm; height:6.74cm;""><p>What type of rock is this?</p>","3","class_response","0","test","1","Gabbro","Diorite","16","false","4","3","",""
"","","","","","","","","","","","html-keyboard-response","8","2.0.0","143738","5db598f48cf15c000b57eb36","1","12","null","","","","","","","","","<p style='font-size: 30px;'><strong>Okay</strong></p>","null","neutral_feedback","0","test","1","","","","","","","",""
"","","","","","","","","","","","html-button-response","9","2.0.0","146145","5db598f48cf15c000b57eb36","1","12","2404","","","","","","","","","<img src= ""rock_img/I_Diorite_10.jpg"" style=""width:8cm; height:5.949999999999999cm;""><p>What type of rock is this?</p>","6","class_response","0","test","2","Peridotite","Diorite","10","false","7","3","",""
"","","","","","","","","","","","html-keyboard-response","10","2.0.0","146648","5db598f48cf15c000b57eb36","1","12","null","","","","","","","","","<p style='font-size: 30px;'><strong>Okay</strong></p>","null","neutral_feedback","0","test","2","","","","","","","",""
"","","","","","","","","","","","html-button-response","11","2.0.0","150525","5db598f48cf15c000b57eb36","1","12","3874","","","","","","","","","<img src= ""rock_img/I_Diorite_08.jpg"" style=""width:8cm; height:6.37cm;""><p>What type of rock is this?</p>","0","class_response","0","test","3","Andesite","Diorite","08","false","1","3","",""
"","","","","","","","","","","","html-keyboard-response","12","2.0.0","151028","5db598f48cf15c000b57eb36","1","12","null","","","","","","","","","<p style='font-size: 30px;'><strong>Okay</strong></p>","null","neutral_feedback","0","test","3","","","","","","","",""
"","","","","","","","","","","","html-button-response","13","2.0.0","152951","5db598f48cf15c000b57eb36","1","12","1920","","","","","","","","","<img src= ""rock_img/I_Pegmatite_12.jpg"" style=""width:8cm; height:5.7cm;""><p>What type of rock is this?</p>","5","class_response","0","test","4","Pegmatite","Pegmatite","12","true","6","6","",""
"","","","","","","","","","","","html-keyboard-response","14","2.0.0","153454","5db598f48cf15c000b57eb36","1","12","null","","","","","","","","","<p style='font-size: 30px;'><strong>Okay</strong></p>","null","neutral_feedback","0","test","4","","","","","","","",""
"","","","","","","","","","","","html-button-response","15","2.0.0","155611","5db598f48cf15c000b57eb36","1","12","2154","","","","","","","","","<img src= ""rock_img/I_Obsidian_07.jpg"" style=""width:8cm; height:4.76cm;""><p>What type of rock is this?</p>","4","class_response","0","test","5","Obsidian","Obsidian","07","true","5","5","",""
"","","","","","","","","","","","html-keyboard-response","16","2.0.0","156114","5db598f48cf15c000b57eb36","1","12","null","","","","","","","","","<p style='font-size: 30px;'><strong>Okay</strong></p>","null","neutral_feedback","0","test","5","","","","","","","",""
"","","","","","","","","","","","html-button-response","17","2.0.0","157792","5db598f48cf15c000b57eb36","1","12","1676","","","","","","","","","<img src= ""rock_img/I_Peridotite_16.jpg"" style=""width:8cm; height:6.989999999999999cm;""><p>What type of rock is this?</p>","1","class_response","0","test","6","Basalt","Peridotite","16","false","2","7","",""
"","","","","","","","","","","","html-keyboard-response","18","2.0.0","158294","5db598f48cf15c000b57eb36","1","12","null","","","","","","","","","<p style='font-size: 30px;'><strong>Okay</strong></p>","null","neutral_feedback","0","test","6","","","","","","","",""
"","","","","","","","","","","","html-button-response","19","2.0.0","160360","5db598f48cf15c000b57eb36","1","12","2062","","","","","","","","","<img src= ""rock_img/I_Gabbro_01.jpg"" style=""width:8cm; height:5.21cm;""><p>What type of rock is this?</p>","2","class_response","0","test","7","Diorite","Gabbro","01","false","3","4","",""
"","","","","","","","","","","","html-keyboard-response","20","2.0.0","160862","5db598f48cf15c000b57eb36","1","12","null","","","","","","","","","<p style='font-size: 30px;'><strong>Okay</strong></p>","null","neutral_feedback","0","test","7","","","","","","","",""
"","","","","","","","","","","","html-button-response","21","2.0.0","162709","5db598f48cf15c000b57eb36","1","12","1844","","","","","","","","","<img src= ""rock_img/I_Gabbro_10.jpg"" style=""width:8cm; height:5.680000000000001cm;""><p>What type of rock is this?</p>","7","class_response","0","test","8","Pumice","Gabbro","10","false","8","4","",""
"","","","","","","","","","","","html-keyboard-response","22","2.0.0","163213","5db598f48cf15c000b57eb36","1","12","null","","","","","","","","","<p style='font-size: 30px;'><strong>Okay</strong></p>","null","neutral_feedback","0","test","8","","","","","","","",""
"","","","","","","","","","","","html-button-response","23","2.0.0","164949","5db598f48cf15c000b57eb36","1","12","1733","","","","","","","","","<img src= ""rock_img/I_Pumice_08.jpg"" style=""width:8cm; height:6.67cm;""><p>What type of rock is this?</p>","7","class_response","0","test","9","Pumice","Pumice","08","true","8","8","",""
"","","","","","","","","","","","html-keyboard-response","24","2.0.0","165452","5db598f48cf15c000b57eb36","1","12","null","","","","","","","","","<p style='font-size: 30px;'><strong>Okay</strong></p>","null","neutral_feedback","0","test","9","","","","","","","",""
"","","","","","","","","","","","html-button-response","25","2.0.0","167524","5db598f48cf15c000b57eb36","1","12","2069","","","","","","","","","<img src= ""rock_img/I_Basalt_05.jpg"" style=""width:8cm; height:8.18cm;""><p>What type of rock is this?</p>","1","class_response","0","test","10","Basalt","Basalt","05","true","2","2","",""
"","","","","","","","","","","","html-keyboard-response","26","2.0.0","168026","5db598f48cf15c000b57eb36","1","12","null","","","","","","","","","<p style='font-size: 30px;'><strong>Okay</strong></p>","null","neutral_feedback","0","test","10","","","","","","","",""
"","","","","","","","","","","","html-button-response","27","2.0.0","169887","5db598f48cf15c000b57eb36","1","12","1858","","","","","","","","","<img src= ""rock_img/I_Pumice_04.jpg"" style=""width:8cm; height:6.819999999999999cm;""><p>What type of rock is this?</p>","7","class_response","0","test","11","Pumice","Pumice","04","true","8","8","",""
"","","","","","","","","","","","html-keyboard-response","28","2.0.0","170390","5db598f48cf15c000b57eb36","1","12","null","","","","","","","","","<p style='font-size: 30px;'><strong>Okay</strong></p>","null","neutral_feedback","0","test","11","","","","","","","",""
"","","","","","","","","","","","html-button-response","29","2.0.0","172882","5db598f48cf15c000b57eb36","1","12","2489","","","","","","","","","<img src= ""rock_img/I_Peridotite_06.jpg"" style=""width:8cm; height:7.53cm;""><p>What type of rock is this?</p>","6","class_response","0","test","12","Peridotite","Peridotite","06","true","7","7","",""
"","","","","","","","","","","","html-keyboard-response","30","2.0.0","173384","5db598f48cf15c000b57eb36","1","12","null","","","","","","","","","<p style='font-size: 30px;'><strong>Okay</strong></p>","null","neutral_feedback","0","test","12","","","","","","","",""
"","","","","","","","","","","","html-button-response","31","2.0.0","175448","5db598f48cf15c000b57eb36","1","12","2061","","","","","","","","","<img src= ""rock_img/I_Gabbro_15.jpg"" style=""width:8cm; height:6.29cm;""><p>What type of rock is this?</p>","5","class_response","0","test","13","Pegmatite","Gabbro","15","false","6","4","",""
"","","","","","","","","","","","html-keyboard-response","32","2.0.0","175950","5db598f48cf15c000b57eb36","1","12","null","","","","","","","","","<p style='font-size: 30px;'><strong>Okay</strong></p>","null","neutral_feedback","0","test","13","","","","","","","",""
"","","","","","","","","","","","html-button-response","33","2.0.0","177773","5db598f48cf15c000b57eb36","1","12","1820","","","","","","","","","<img src= ""rock_img/I_Obsidian_16.jpg"" style=""width:8cm; height:9.3cm;""><p>What type of rock is this?</p>","4","class_response","0","test","14","Obsidian","Obsidian","16","true","5","5","",""
"","","","","","","","","","","","html-keyboard-response","34","2.0.0","178275","5db598f48cf15c000b57eb36","1","12","null","","","","","","","","","<p style='font-size: 30px;'><strong>Okay</strong></p>","null","neutral_feedback","0","test","14","","","","","","","",""
"","","","","","","","","","","","html-button-response","35","2.0.0","180090","5db598f48cf15c000b57eb36","1","12","1812","","","","","","","","","<img src= ""rock_img/I_Pegmatite_10.jpg"" style=""width:8cm; height:4.16cm;""><p>What type of rock is this?</p>","6","class_response","0","test","15","Peridotite","Pegmatite","10","false","7","6","",""
"","","","","","","","","","","","html-keyboard-response","36","2.0.0","180591","5db598f48cf15c000b57eb36","1","12","null","","","","","","","","","<p style='font-size: 30px;'><strong>Okay</strong></p>","null","neutral_feedback","0","test","15","","","","","","","",""
"","","","","","","","","","","","html-button-response","37","2.0.0","182275","5db598f48cf15c000b57eb36","1","12","1680","","","","","","","","","<img src= ""rock_img/I_Andesite_01.jpg"" style=""width:8cm; height:5.87cm;""><p>What type of rock is this?</p>","1","class_response","0","test","16","Basalt","Andesite","01","false","2","1","",""
"","","","","","","","","","","","html-keyboard-response","38","2.0.0","182777","5db598f48cf15c000b57eb36","1","12","null","","","","","","","","","<p style='font-size: 30px;'><strong>Okay</strong></p>","null","neutral_feedback","0","test","16","","","","","","","",""
"","","","","","","","","","","","html-button-response","39","2.0.0","184222","5db598f48cf15c000b57eb36","1","12","1442","","","","","","","","","<img src= ""rock_img/I_Basalt_09.jpg"" style=""width:8cm; height:6.2cm;""><p>What type of rock is this?</p>","1","class_response","0","test","17","Basalt","Basalt","09","true","2","2","",""
"","","","","","","","","","","","html-keyboard-response","40","2.0.0","184724","5db598f48cf15c000b57eb36","1","12","null","","","","","","","","","<p style='font-size: 30px;'><strong>Okay</strong></p>","null","neutral_feedback","0","test","17","","","","","","","",""
"","","","","","","","","","","","html-button-response","41","2.0.0","186544","5db598f48cf15c000b57eb36","1","12","1817","","","","","","","","","<img src= ""rock_img/I_Pegmatite_08.jpg"" style=""width:8cm; height:7.68cm;""><p>What type of rock is this?</p>","5","class_response","0","test","18","Pegmatite","Pegmatite","08","true","6","6","",""
"","","","","","","","","","","","html-keyboard-response","42","2.0.0","187046","5db598f48cf15c000b57eb36","1","12","null","","","","","","","","","<p style='font-size: 30px;'><strong>Okay</strong></p>","null","neutral_feedback","0","test","18","","","","","","","",""
"","","","","","","","","","","","html-button-response","43","2.0.0","189453","5db598f48cf15c000b57eb36","1","12","2405","","","","","","","","","<img src= ""rock_img/I_Andesite_05.jpg"" style=""width:8cm; height:4.12cm;""><p>What type of rock is this?</p>","2","class_response","0","test","19","Diorite","Andesite","05","false","3","1","",""
"","","","","","","","","","","","html-keyboard-response","44","2.0.0","189955","5db598f48cf15c000b57eb36","1","12","null","","","","","","","","","<p style='font-size: 30px;'><strong>Okay</strong></p>","null","neutral_feedback","0","test","19","","","","","","","",""
"","","","","","","","","","","","html-button-response","45","2.0.0","191614","5db598f48cf15c000b57eb36","1","12","1657","","","","","","","","","<img src= ""rock_img/I_Pumice_05.jpg"" style=""width:8cm; height:7.25cm;""><p>What type of rock is this?</p>","7","class_response","0","test","20","Pumice","Pumice","05","true","8","8","",""
"","","","","","","","","","","","html-keyboard-response","46","2.0.0","192117","5db598f48cf15c000b57eb36","1","12","null","","","","","","","","","<p style='font-size: 30px;'><strong>Okay</strong></p>","null","neutral_feedback","0","test","20","","","","","","","",""
"","","","","","","","","","","","html-button-response","47","2.0.0","194701","5db598f48cf15c000b57eb36","1","12","2582","","","","","","","","","<img src= ""rock_img/I_Diorite_11.jpg"" style=""width:8cm; height:7.11cm;""><p>What type of rock is this?</p>","0","class_response","0","test","21","Andesite","Diorite","11","false","1","3","",""
"","","","","","","","","","","","html-keyboard-response","48","2.0.0","195203","5db598f48cf15c000b57eb36","1","12","null","","","","","","","","","<p style='font-size: 30px;'><strong>Okay</strong></p>","null","neutral_feedback","0","test","21","","","","","","","",""
"","","","","","","","","","","","html-button-response","49","2.0.0","196681","5db598f48cf15c000b57eb36","1","12","1475","","","","","","","","","<img src= ""rock_img/I_Basalt_02.jpg"" style=""width:8cm; height:6.45cm;""><p>What type of rock is this?</p>","1","class_response","0","test","22","Basalt","Basalt","02","true","2","2","",""
"","","","","","","","","","","","html-keyboard-response","50","2.0.0","197184","5db598f48cf15c000b57eb36","1","12","null","","","","","","","","","<p style='font-size: 30px;'><strong>Okay</strong></p>","null","neutral_feedback","0","test","22","","","","","","","",""
"","","","","","","","","","","","html-button-response","51","2.0.0","198769","5db598f48cf15c000b57eb36","1","12","1583","","","","","","","","","<img src= ""rock_img/I_Basalt_08.jpg"" style=""width:8cm; height:10.44cm;""><p>What type of rock is this?</p>","1","class_response","0","test","23","Basalt","Basalt","08","true","2","2","",""
"","","","","","","","","","","","html-keyboard-response","52","2.0.0","199271","5db598f48cf15c000b57eb36","1","12","null","","","","","","","","","<p style='font-size: 30px;'><strong>Okay</strong></p>","null","neutral_feedback","0","test","23","","","","","","","",""
"","","","","","","","","","","","html-button-response","53","2.0.0","201047","5db598f48cf15c000b57eb36","1","12","1773","","","","","","","","","<img src= ""rock_img/I_Diorite_15.jpg"" style=""width:8cm; height:5.54cm;""><p>What type of rock is this?</p>","3","class_response","0","test","24","Gabbro","Diorite","15","false","4","3","",""
"","","","","","","","","","","","html-keyboard-response","54","2.0.0","201550","5db598f48cf15c000b57eb36","1","12","null","","","","","","","","","<p style='font-size: 30px;'><strong>Okay</strong></p>","null","neutral_feedback","0","test","24","","","","","","","",""
"","","","","","","","","","","","html-button-response","55","2.0.0","203675","5db598f48cf15c000b57eb36","1","12","2123","","","","","","","","","<img src= ""rock_img/I_Obsidian_14.jpg"" style=""width:8cm; height:7.64cm;""><p>What type of rock is this?</p>","4","class_response","0","test","25","Obsidian","Obsidian","14","true","5","5","",""
"","","","","","","","","","","","html-keyboard-response","56","2.0.0","204178","5db598f48cf15c000b57eb36","1","12","null","","","","","","","","","<p style='font-size: 30px;'><strong>Okay</strong></p>","null","neutral_feedback","0","test","25","","","","","","","",""
"","","","","","","","","","","","html-button-response","57","2.0.0","205697","5db598f48cf15c000b57eb36","1","12","1516","","","","","","","","","<img src= ""rock_img/I_Pegmatite_15.jpg"" style=""width:8cm; height:6cm;""><p>What type of rock is this?</p>","5","class_response","0","test","26","Pegmatite","Pegmatite","15","true","6","6","",""
"","","","","","","","","","","","html-keyboard-response","58","2.0.0","206199","5db598f48cf15c000b57eb36","1","12","null","","","","","","","","","<p style='font-size: 30px;'><strong>Okay</strong></p>","null","neutral_feedback","0","test","26","","","","","","","",""
"","","","","","","","","","","","html-button-response","59","2.0.0","208326","5db598f48cf15c000b57eb36","1","12","2124","","","","","","","","","<img src= ""rock_img/I_Peridotite_12.jpg"" style=""width:8cm; height:4.54cm;""><p>What type of rock is this?</p>","2","class_response","0","test","27","Diorite","Peridotite","12","false","3","7","",""
"","","","","","","","","","","","html-keyboard-response","60","2.0.0","208828","5db598f48cf15c000b57eb36","1","12","null","","","","","","","","","<p style='font-size: 30px;'><strong>Okay</strong></p>","null","neutral_feedback","0","test","27","","","","","","","",""
"","","","","","","","","","","","html-button-response","61","2.0.0","210386","5db598f48cf15c000b57eb36","1","12","1555","","","","","","","","","<img src= ""rock_img/I_Pumice_09.jpg"" style=""width:8cm; height:6.44cm;""><p>What type of rock is this?</p>","7","class_response","0","test","28","Pumice","Pumice","09","true","8","8","",""
"","","","","","","","","","","","html-keyboard-response","62","2.0.0","210888","5db598f48cf15c000b57eb36","1","12","null","","","","","","","","","<p style='font-size: 30px;'><strong>Okay</strong></p>","null","neutral_feedback","0","test","28","","","","","","","",""
"","","","","","","","","","","","html-button-response","63","2.0.0","216549","5db598f48cf15c000b57eb36","1","12","5658","","","","","","","","","<img src= ""rock_img/I_Gabbro_03.jpg"" style=""width:8cm; height:8.52cm;""><p>What type of rock is this?</p>","0","class_response","0","test","29","Andesite","Gabbro","03","false","1","4","",""
"","","","","","","","","","","","html-keyboard-response","64","2.0.0","217052","5db598f48cf15c000b57eb36","1","12","null","","","","","","","","","<p style='font-size: 30px;'><strong>Okay</strong></p>","null","neutral_feedback","0","test","29","","","","","","","",""
"","","","","","","","","","","","html-button-response","65","2.0.0","218755","5db598f48cf15c000b57eb36","1","12","1699","","","","","","","","","<img src= ""rock_img/I_Basalt_01.jpg"" style=""width:8cm; height:7.880000000000001cm;""><p>What type of rock is this?</p>","1","class_response","0","test","30","Basalt","Basalt","01","true","2","2","",""
"","","","","","","","","","","","html-keyboard-response","66","2.0.0","219258","5db598f48cf15c000b57eb36","1","12","null","","","","","","","","","<p style='font-size: 30px;'><strong>Okay</strong></p>","null","neutral_feedback","0","test","30","","","","","","","",""
"","","","","","","","","","","","html-button-response","67","2.0.0","220912","5db598f48cf15c000b57eb36","1","12","1651","","","","","","","","","<img src= ""rock_img/I_Obsidian_05.jpg"" style=""width:8cm; height:6.33cm;""><p>What type of rock is this?</p>","2","class_response","0","test","31","Diorite","Obsidian","05","false","3","5","",""
"","","","","","","","","","","","html-keyboard-response","68","2.0.0","221414","5db598f48cf15c000b57eb36","1","12","null","","","","","","","","","<p style='font-size: 30px;'><strong>Okay</strong></p>","null","neutral_feedback","0","test","31","","","","","","","",""
"","","","","","","","","","","","html-button-response","69","2.0.0","223965","5db598f48cf15c000b57eb36","1","12","2549","","","","","","","","","<img src= ""rock_img/I_Andesite_16.jpg"" style=""width:8cm; height:6.010000000000001cm;""><p>What type of rock is this?</p>","0","class_response","0","test","32","Andesite","Andesite","16","true","1","1","",""
"","","","","","","","","","","","html-keyboard-response","70","2.0.0","224468","5db598f48cf15c000b57eb36","1","12","null","","","","","","","","","<p style='font-size: 30px;'><strong>Okay</strong></p>","null","neutral_feedback","0","test","32","","","","","","","",""
"","","","","","","","","","","","html-button-response","71","2.0.0","225993","5db598f48cf15c000b57eb36","1","12","1522","","","","","","","","","<img src= ""rock_img/I_Andesite_11.jpg"" style=""width:8cm; height:4.92cm;""><p>What type of rock is this?</p>","0","class_response","0","test","33","Andesite","Andesite","11","true","1","1","",""
"","","","","","","","","","","","html-keyboard-response","72","2.0.0","226495","5db598f48cf15c000b57eb36","1","12","null","","","","","","","","","<p style='font-size: 30px;'><strong>Okay</strong></p>","null","neutral_feedback","0","test","33","","","","","","","",""
"","","","","","","","","","","","html-button-response","73","2.0.0","227842","5db598f48cf15c000b57eb36","1","12","1344","","","","","","","","","<img src= ""rock_img/I_Obsidian_04.jpg"" style=""width:8cm; height:6.930000000000001cm;""><p>What type of rock is this?</p>","4","class_response","0","test","34","Obsidian","Obsidian","04","true","5","5","",""
"","","","","","","","","","","","html-keyboard-response","74","2.0.0","228344","5db598f48cf15c000b57eb36","1","12","null","","","","","","","","","<p style='font-size: 30px;'><strong>Okay</strong></p>","null","neutral_feedback","0","test","34","","","","","","","",""
"","","","","","","","","","","","html-button-response","75","2.0.0","229777","5db598f48cf15c000b57eb36","1","12","1431","","","","","","","","","<img src= ""rock_img/I_Pumice_03.jpg"" style=""width:8cm; height:6.64cm;""><p>What type of rock is this?</p>","7","class_response","0","test","35","Pumice","Pumice","03","true","8","8","",""
"","","","","","","","","","","","html-keyboard-response","76","2.0.0","230280","5db598f48cf15c000b57eb36","1","12","null","","","","","","","","","<p style='font-size: 30px;'><strong>Okay</strong></p>","null","neutral_feedback","0","test","35","","","","","","","",""
"","","","","","","","","","","","html-button-response","77","2.0.0","232252","5db598f48cf15c000b57eb36","1","12","1970","","","","","","","","","<img src= ""rock_img/I_Peridotite_02.jpg"" style=""width:8cm; height:5.859999999999999cm;""><p>What type of rock is this?</p>","6","class_response","0","test","36","Peridotite","Peridotite","02","true","7","7","",""
"","","","","","","","","","","","html-keyboard-response","78","2.0.0","232755","5db598f48cf15c000b57eb36","1","12","null","","","","","","","","","<p style='font-size: 30px;'><strong>Okay</strong></p>","null","neutral_feedback","0","test","36","","","","","","","",""
"","","","","","","","","","","","html-button-response","79","2.0.0","234124","5db598f48cf15c000b57eb36","1","12","1367","","","","","","","","","<img src= ""rock_img/I_Pumice_14.jpg"" style=""width:8cm; height:6.39cm;""><p>What type of rock is this?</p>","7","class_response","0","test","37","Pumice","Pumice","14","true","8","8","",""
"","","","","","","","","","","","html-keyboard-response","80","2.0.0","234626","5db598f48cf15c000b57eb36","1","12","null","","","","","","","","","<p style='font-size: 30px;'><strong>Okay</strong></p>","null","neutral_feedback","0","test","37","","","","","","","",""
"","","","","","","","","","","","html-button-response","81","2.0.0","236506","5db598f48cf15c000b57eb36","1","12","1878","","","","","","","","","<img src= ""rock_img/I_Andesite_07.jpg"" style=""width:8cm; height:5.93cm;""><p>What type of rock is this?</p>","3","class_response","0","test","38","Gabbro","Andesite","07","false","4","1","",""
"","","","","","","","","","","","html-keyboard-response","82","2.0.0","237008","5db598f48cf15c000b57eb36","1","12","null","","","","","","","","","<p style='font-size: 30px;'><strong>Okay</strong></p>","null","neutral_feedback","0","test","38","","","","","","","",""
"","","","","","","","","","","","html-button-response","83","2.0.0","238671","5db598f48cf15c000b57eb36","1","12","1661","","","","","","","","","<img src= ""rock_img/I_Andesite_03.jpg"" style=""width:8cm; height:5.73cm;""><p>What type of rock is this?</p>","2","class_response","0","test","39","Diorite","Andesite","03","false","3","1","",""
"","","","","","","","","","","","html-keyboard-response","84","2.0.0","239173","5db598f48cf15c000b57eb36","1","12","null","","","","","","","","","<p style='font-size: 30px;'><strong>Okay</strong></p>","null","neutral_feedback","0","test","39","","","","","","","",""
"","","","","","","","","","","","html-button-response","85","2.0.0","240781","5db598f48cf15c000b57eb36","1","12","1604","","","","","","","","","<img src= ""rock_img/I_Obsidian_06.jpg"" style=""width:8cm; height:6.8cm;""><p>What type of rock is this?</p>","4","class_response","0","test","40","Obsidian","Obsidian","06","true","5","5","",""
"","","","","","","","","","","","html-keyboard-response","86","2.0.0","241283","5db598f48cf15c000b57eb36","1","12","null","","","","","","","","","<p style='font-size: 30px;'><strong>Okay</strong></p>","null","neutral_feedback","0","test","40","","","","","","","",""
"","","","","","","","","","","","html-button-response","87","2.0.0","242774","5db598f48cf15c000b57eb36","1","12","1488","","","","","","","","","<img src= ""rock_img/I_Pegmatite_16.jpg"" style=""width:8cm; height:5.8cm;""><p>What type of rock is this?</p>","5","class_response","0","test","41","Pegmatite","Pegmatite","16","true","6","6","",""
"","","","","","","","","","","","html-keyboard-response","88","2.0.0","243275","5db598f48cf15c000b57eb36","1","12","null","","","","","","","","","<p style='font-size: 30px;'><strong>Okay</strong></p>","null","neutral_feedback","0","test","41","","","","","","","",""
"","","","","","","","","","","","html-button-response","89","2.0.0","244315","5db598f48cf15c000b57eb36","1","12","1038","","","","","","","","","<img src= ""rock_img/I_Diorite_07.jpg"" style=""width:8cm; height:5.239999999999999cm;""><p>What type of rock is this?</p>","5","class_response","0","test","42","Pegmatite","Diorite","07","false","6","3","",""
"","","","","","","","","","","","html-keyboard-response","90","2.0.0","244818","5db598f48cf15c000b57eb36","1","12","null","","","","","","","","","<p style='font-size: 30px;'><strong>Okay</strong></p>","null","neutral_feedback","0","test","42","","","","","","","",""
"","","","","","","","","","","","html-button-response","91","2.0.0","247070","5db598f48cf15c000b57eb36","1","12","2249","","","","","","","","","<img src= ""rock_img/I_Basalt_14.jpg"" style=""width:8cm; height:5.82cm;""><p>What type of rock is this?</p>","7","class_response","0","test","43","Pumice","Basalt","14","false","8","2","",""
"","","","","","","","","","","","html-keyboard-response","92","2.0.0","247573","5db598f48cf15c000b57eb36","1","12","null","","","","","","","","","<p style='font-size: 30px;'><strong>Okay</strong></p>","null","neutral_feedback","0","test","43","","","","","","","",""
"","","","","","","","","","","","html-button-response","93","2.0.0","249680","5db598f48cf15c000b57eb36","1","12","2104","","","","","","","","","<img src= ""rock_img/I_Peridotite_07.jpg"" style=""width:8cm; height:4.83cm;""><p>What type of rock is this?</p>","6","class_response","0","test","44","Peridotite","Peridotite","07","true","7","7","",""
"","","","","","","","","","","","html-keyboard-response","94","2.0.0","250182","5db598f48cf15c000b57eb36","1","12","null","","","","","","","","","<p style='font-size: 30px;'><strong>Okay</strong></p>","null","neutral_feedback","0","test","44","","","","","","","",""
"","","","","","","","","","","","html-button-response","95","2.0.0","252448","5db598f48cf15c000b57eb36","1","12","2263","","","","","","","","","<img src= ""rock_img/I_Gabbro_05.jpg"" style=""width:8cm; height:6cm;""><p>What type of rock is this?</p>","6","class_response","0","test","45","Peridotite","Gabbro","05","false","7","4","",""
"","","","","","","","","","","","html-keyboard-response","96","2.0.0","252951","5db598f48cf15c000b57eb36","1","12","null","","","","","","","","","<p style='font-size: 30px;'><strong>Okay</strong></p>","null","neutral_feedback","0","test","45","","","","","","","",""
"","","","","","","","","","","","html-button-response","97","2.0.0","254335","5db598f48cf15c000b57eb36","1","12","1381","","","","","","","","","<img src= ""rock_img/I_Gabbro_11.jpg"" style=""width:8cm; height:6.2cm;""><p>What type of rock is this?</p>","1","class_response","0","test","46","Basalt","Gabbro","11","false","2","4","",""
"","","","","","","","","","","","html-keyboard-response","98","2.0.0","254837","5db598f48cf15c000b57eb36","1","12","null","","","","","","","","","<p style='font-size: 30px;'><strong>Okay</strong></p>","null","neutral_feedback","0","test","46","","","","","","","",""
"","","","","","","","","","","","html-button-response","99","2.0.0","256273","5db598f48cf15c000b57eb36","1","12","1434","","","","","","","","","<img src= ""rock_img/I_Pegmatite_03.jpg"" style=""width:8cm; height:5.239999999999999cm;""><p>What type of rock is this?</p>","5","class_response","0","test","47","Pegmatite","Pegmatite","03","true","6","6","",""
"","","","","","","","","","","","html-keyboard-response","100","2.0.0","256776","5db598f48cf15c000b57eb36","1","12","null","","","","","","","","","<p style='font-size: 30px;'><strong>Okay</strong></p>","null","neutral_feedback","0","test","47","","","","","","","",""
"","","","","","","","","","","","html-button-response","101","2.0.0","260790","5db598f48cf15c000b57eb36","1","12","4012","","","","","","","","","<img src= ""rock_img/I_Peridotite_14.jpg"" style=""width:8cm; height:5.3cm;""><p>What type of rock is this?</p>","0","class_response","0","test","48","Andesite","Peridotite","14","false","1","7","",""
"","","","","","","","","","","","html-keyboard-response","102","2.0.0","261293","5db598f48cf15c000b57eb36","1","12","null","","","","","","","","","<p style='font-size: 30px;'><strong>Okay</strong></p>","null","neutral_feedback","0","test","48","","","","","","","",""
"","","","","","","","","","","","instructions","103","2.0.0","359001","5db598f48cf15c000b57eb36","1","12","97672","","","","","","","","[{""page_index"":0,""viewing_time"":74793},{""page_index"":1,""viewing_time"":18725},{""page_index"":2,""viewing_time"":4154}]","","","","","","","","","","","","","",""
"","","","","","","","","","","","html-button-response","104","2.0.0","361822","5db598f48cf15c000b57eb36","1","12","2818","","","","","","","","","","0","start_train","","","","","","","","","","",""
"","","","","","","","","","","","html-button-response","105","2.0.0","364372","5db598f48cf15c000b57eb36","1","12","2547","","","","","","","","","<img src= ""rock_img/I_Peridotite_13.jpg"" style=""width:8cm; height:7.58cm;""><p>What type of rock is this?</p>","6","class_response","1","train","1","Peridotite","Peridotite","13","true","7","7","",""
"","","","","","","","","","","","html-button-response","106","2.0.0","365374","5db598f48cf15c000b57eb36","1","12","1000","","","","","","","","","<img src= rock_img/I_Peridotite_13.jpg style=""width:8cm; height:7.58cm;""><p style='font-size: 30px; color: green;'><strong>Correct!</strong></p><p style='font-size: 30px;'><strong>This rock is peridotite</strong></p>","0","corr_feedback","1","train","1","","","","","","","",""
"","","","","","","","","","","","html-button-response","107","2.0.0","367388","5db598f48cf15c000b57eb36","1","12","2011","","","","","","","","","<img src= ""rock_img/I_Pegmatite_11.jpg"" style=""width:8cm; height:8.14cm;""><p>What type of rock is this?</p>","5","class_response","1","train","2","Pegmatite","Pegmatite","11","true","6","6","",""
"","","","","","","","","","","","html-button-response","108","2.0.0","368303","5db598f48cf15c000b57eb36","1","12","913","","","","","","","","","<img src= rock_img/I_Pegmatite_11.jpg style=""width:8cm; height:8.14cm;""><p style='font-size: 30px; color: green;'><strong>Correct!</strong></p><p style='font-size: 30px;'><strong>This rock is pegmatite</strong></p>","0","corr_feedback","1","train","2","","","","","","","",""
"","","","","","","","","","","","html-button-response","109","2.0.0","369554","5db598f48cf15c000b57eb36","1","12","1248","","","","","","","","","<img src= ""rock_img/I_Obsidian_10.jpg"" style=""width:8cm; height:6.260000000000001cm;""><p>What type of rock is this?</p>","4","class_response","1","train","3","Obsidian","Obsidian","10","true","5","5","",""
"","","","","","","","","","","","html-button-response","110","2.0.0","370446","5db598f48cf15c000b57eb36","1","12","890","","","","","","","","","<img src= rock_img/I_Obsidian_10.jpg style=""width:8cm; height:6.260000000000001cm;""><p style='font-size: 30px; color: green;'><strong>Correct!</strong></p><p style='font-size: 30px;'><strong>This rock is obsidian</strong></p>","0","corr_feedback","1","train","3","","","","","","","",""
"","","","","","","","","","","","html-button-response","111","2.0.0","371678","5db598f48cf15c000b57eb36","1","12","1230","","","","","","","","","<img src= ""rock_img/I_Andesite_02.jpg"" style=""width:8cm; height:8.5cm;""><p>What type of rock is this?</p>","2","class_response","1","train","4","Diorite","Andesite","02","false","3","1","",""
"","","","","","","","","","","","html-button-response","112","2.0.0","372837","5db598f48cf15c000b57eb36","1","12","1157","","","","","","","","","<img src= rock_img/I_Andesite_02.jpg style=""width:8cm; height:8.5cm;""><p style='font-size: 30px; color: red;'><strong>Incorrect!</strong></p><p style='font-size: 30px;'><strong>This rock is andesite</strong></p>","0","corr_feedback","1","train","4","","","","","","","",""
"","","","","","","","","","","","html-button-response","113","2.0.0","374945","5db598f48cf15c000b57eb36","1","12","2105","","","","","","","","","<img src= ""rock_img/I_Diorite_14.jpg"" style=""width:8cm; height:5.71cm;""><p>What type of rock is this?</p>","2","class_response","1","train","5","Diorite","Diorite","14","true","3","3","",""
"","","","","","","","","","","","html-button-response","114","2.0.0","376128","5db598f48cf15c000b57eb36","1","12","1181","","","","","","","","","<img src= rock_img/I_Diorite_14.jpg style=""width:8cm; height:5.71cm;""><p style='font-size: 30px; color: green;'><strong>Correct!</strong></p><p style='font-size: 30px;'><strong>This rock is diorite</strong></p>","0","corr_feedback","1","train","5","","","","","","","",""
"","","","","","","","","","","","html-button-response","115","2.0.0","377429","5db598f48cf15c000b57eb36","1","12","1297","","","","","","","","","<img src= ""rock_img/I_Pegmatite_09.jpg"" style=""width:8cm; height:4.03cm;""><p>What type of rock is this?</p>","6","class_response","1","train","6","Peridotite","Pegmatite","09","false","7","6","",""
"","","","","","","","","","","","html-button-response","116","2.0.0","378862","5db598f48cf15c000b57eb36","1","12","1431","","","","","","","","","<img src= rock_img/I_Pegmatite_09.jpg style=""width:8cm; height:4.03cm;""><p style='font-size: 30px; color: red;'><strong>Incorrect!</strong></p><p style='font-size: 30px;'><strong>This rock is pegmatite</strong></p>","0","corr_feedback","1","train","6","","","","","","","",""
"","","","","","","","","","","","html-button-response","117","2.0.0","380260","5db598f48cf15c000b57eb36","1","12","1396","","","","","","","","","<img src= ""rock_img/I_Pumice_10.jpg"" style=""width:8cm; height:7.609999999999999cm;""><p>What type of rock is this?</p>","7","class_response","1","train","7","Pumice","Pumice","10","true","8","8","",""
"","","","","","","","","","","","html-button-response","118","2.0.0","381195","5db598f48cf15c000b57eb36","1","12","933","","","","","","","","","<img src= rock_img/I_Pumice_10.jpg style=""width:8cm; height:7.609999999999999cm;""><p style='font-size: 30px; color: green;'><strong>Correct!</strong></p><p style='font-size: 30px;'><strong>This rock is pumice</strong></p>","0","corr_feedback","1","train","7","","","","","","","",""
"","","","","","","","","","","","html-button-response","119","2.0.0","382218","5db598f48cf15c000b57eb36","1","12","1021","","","","","","","","","<img src= ""rock_img/I_Basalt_10.jpg"" style=""width:8cm; height:5.85cm;""><p>What type of rock is this?</p>","1","class_response","1","train","8","Basalt","Basalt","10","true","2","2","",""
"","","","","","","","","","","","html-button-response","120","2.0.0","383034","5db598f48cf15c000b57eb36","1","12","814","","","","","","","","","<img src= rock_img/I_Basalt_10.jpg style=""width:8cm; height:5.85cm;""><p style='font-size: 30px; color: green;'><strong>Correct!</strong></p><p style='font-size: 30px;'><strong>This rock is basalt</strong></p>","0","corr_feedback","1","train","8","","","","","","","",""
"","","","","","","","","","","","html-button-response","121","2.0.0","384333","5db598f48cf15c000b57eb36","1","12","1296","","","","","","","","","<img src= ""rock_img/I_Obsidian_09.jpg"" style=""width:8cm; height:5cm;""><p>What type of rock is this?</p>","4","class_response","1","train","9","Obsidian","Obsidian","09","true","5","5","",""
"","","","","","","","","","","","html-button-response","122","2.0.0","385090","5db598f48cf15c000b57eb36","1","12","754","","","","","","","","","<img src= rock_img/I_Obsidian_09.jpg style=""width:8cm; height:5cm;""><p style='font-size: 30px; color: green;'><strong>Correct!</strong></p><p style='font-size: 30px;'><strong>This rock is obsidian</strong></p>","0","corr_feedback","1","train","9","","","","","","","",""
"","","","","","","","","","","","html-button-response","123","2.0.0","386220","5db598f48cf15c000b57eb36","1","12","1129","","","","","","","","","<img src= ""rock_img/I_Diorite_02.jpg"" style=""width:8cm; height:6.27cm;""><p>What type of rock is this?</p>","2","class_response","1","train","10","Diorite","Diorite","02","true","3","3","",""
"","","","","","","","","","","","html-button-response","124","2.0.0","387052","5db598f48cf15c000b57eb36","1","12","830","","","","","","","","","<img src= rock_img/I_Diorite_02.jpg style=""width:8cm; height:6.27cm;""><p style='font-size: 30px; color: green;'><strong>Correct!</strong></p><p style='font-size: 30px;'><strong>This rock is diorite</strong></p>","0","corr_feedback","1","train","10","","","","","","","",""
"","","","","","","","","","","","html-button-response","125","2.0.0","388298","5db598f48cf15c000b57eb36","1","12","1243","","","","","","","","","<img src= ""rock_img/I_Obsidian_12.jpg"" style=""width:8cm; height:6.53cm;""><p>What type of rock is this?</p>","4","class_response","1","train","11","Obsidian","Obsidian","12","true","5","5","",""
"","","","","","","","","","","","html-button-response","126","2.0.0","389109","5db598f48cf15c000b57eb36","1","12","809","","","","","","","","","<img src= rock_img/I_Obsidian_12.jpg style=""width:8cm; height:6.53cm;""><p style='font-size: 30px; color: green;'><strong>Correct!</strong></p><p style='font-size: 30px;'><strong>This rock is obsidian</strong></p>","0","corr_feedback","1","train","11","","","","","","","",""
"","","","","","","","","","","","html-button-response","127","2.0.0","390254","5db598f48cf15c000b57eb36","1","12","1143","","","","","","","","","<img src= ""rock_img/I_Basalt_12.jpg"" style=""width:8cm; height:6.010000000000001cm;""><p>What type of rock is this?</p>","7","class_response","1","train","12","Pumice","Basalt","12","false","8","2","",""
"","","","","","","","","","","","html-button-response","128","2.0.0","392064","5db598f48cf15c000b57eb36","1","12","1808","","","","","","","","","<img src= rock_img/I_Basalt_12.jpg style=""width:8cm; height:6.010000000000001cm;""><p style='font-size: 30px; color: red;'><strong>Incorrect!</strong></p><p style='font-size: 30px;'><strong>This rock is basalt</strong></p>","0","corr_feedback","1","train","12","","","","","","","",""
"","","","","","","","","","","","html-button-response","129","2.0.0","393069","5db598f48cf15c000b57eb36","1","12","1003","","","","","","","","","<img src= ""rock_img/I_Gabbro_12.jpg"" style=""width:8cm; height:7.800000000000001cm;""><p>What type of rock is this?</p>","1","class_response","1","train","13","Basalt","Gabbro","12","false","2","4","",""
"","","","","","","","","","","","html-button-response","130","2.0.0","395575","5db598f48cf15c000b57eb36","1","12","2504","","","","","","","","","<img src= rock_img/I_Gabbro_12.jpg style=""width:8cm; height:7.800000000000001cm;""><p style='font-size: 30px; color: red;'><strong>Incorrect!</strong></p><p style='font-size: 30px;'><strong>This rock is gabbro</strong></p>","0","corr_feedback","1","train","13","","","","","","","",""
"","","","","","","","","","","","html-button-response","131","2.0.0","396799","5db598f48cf15c000b57eb36","1","12","1222","","","","","","","","","<img src= ""rock_img/I_Pumice_13.jpg"" style=""width:8cm; height:8.200000000000001cm;""><p>What type of rock is this?</p>","7","class_response","1","train","14","Pumice","Pumice","13","true","8","8","",""
"","","","","","","","","","","","html-button-response","132","2.0.0","397587","5db598f48cf15c000b57eb36","1","12","786","","","","","","","","","<img src= rock_img/I_Pumice_13.jpg style=""width:8cm; height:8.200000000000001cm;""><p style='font-size: 30px; color: green;'><strong>Correct!</strong></p><p style='font-size: 30px;'><strong>This rock is pumice</strong></p>","0","corr_feedback","1","train","14","","","","","","","",""
"","","","","","","","","","","","html-button-response","133","2.0.0","398847","5db598f48cf15c000b57eb36","1","12","1258","","","","","","","","","<img src= ""rock_img/I_Peridotite_10.jpg"" style=""width:8cm; height:5.390000000000001cm;""><p>What type of rock is this?</p>","3","class_response","1","train","15","Gabbro","Peridotite","10","false","4","7","",""
"","","","","","","","","","","","html-button-response","134","2.0.0","401284","5db598f48cf15c000b57eb36","1","12","2434","","","","","","","","","<img src= rock_img/I_Peridotite_10.jpg style=""width:8cm; height:5.390000000000001cm;""><p style='font-size: 30px; color: red;'><strong>Incorrect!</strong></p><p style='font-size: 30px;'><strong>This rock is peridotite</strong></p>","0","corr_feedback","1","train","15","","","","","","","",""
"","","","","","","","","","","","html-button-response","135","2.0.0","402336","5db598f48cf15c000b57eb36","1","12","1050","","","","","","","","","<img src= ""rock_img/I_Gabbro_16.jpg"" style=""width:8cm; height:6.44cm;""><p>What type of rock is this?</p>","1","class_response","1","train","16","Basalt","Gabbro","16","false","2","4","",""
"","","","","","","","","","","","html-button-response","136","2.0.0","403697","5db598f48cf15c000b57eb36","1","12","1359","","","","","","","","","<img src= rock_img/I_Gabbro_16.jpg style=""width:8cm; height:6.44cm;""><p style='font-size: 30px; color: red;'><strong>Incorrect!</strong></p><p style='font-size: 30px;'><strong>This rock is gabbro</strong></p>","0","corr_feedback","1","train","16","","","","","","","",""
"","","","","","","","","","","","html-button-response","137","2.0.0","406171","5db598f48cf15c000b57eb36","1","12","2472","","","","","","","","","<img src= ""rock_img/I_Andesite_14.jpg"" style=""width:8cm; height:5.449999999999999cm;""><p>What type of rock is this?</p>","0","class_response","1","train","17","Andesite","Andesite","14","true","1","1","",""
"","","","","","","","","","","","html-button-response","138","2.0.0","407558","5db598f48cf15c000b57eb36","1","12","1385","","","","","","","","","<img src= rock_img/I_Andesite_14.jpg style=""width:8cm; height:5.449999999999999cm;""><p style='font-size: 30px; color: green;'><strong>Correct!</strong></p><p style='font-size: 30px;'><strong>This rock is andesite</strong></p>","0","corr_feedback","1","train","17","","","","","","","",""
"","","","","","","","","","","","html-button-response","139","2.0.0","408943","5db598f48cf15c000b57eb36","1","12","1383","","","","","","","","","<img src= ""rock_img/I_Diorite_06.jpg"" style=""width:8cm; height:6.03cm;""><p>What type of rock is this?</p>","0","class_response","1","train","18","Andesite","Diorite","06","false","1","3","",""
"","","","","","","","","","","","html-button-response","140","2.0.0","409962","5db598f48cf15c000b57eb36","1","12","1017","","","","","","","","","<img src= rock_img/I_Diorite_06.jpg style=""width:8cm; height:6.03cm;""><p style='font-size: 30px; color: red;'><strong>Incorrect!</strong></p><p style='font-size: 30px;'><strong>This rock is diorite</strong></p>","0","corr_feedback","1","train","18","","","","","","","",""
"","","","","","","","","","","","html-button-response","141","2.0.0","411137","5db598f48cf15c000b57eb36","1","12","1173","","","","","","","","","<img src= ""rock_img/I_Pumice_15.jpg"" style=""width:8cm; height:7.86cm;""><p>What type of rock is this?</p>","7","class_response","1","train","19","Pumice","Pumice","15","true","8","8","",""
"","","","","","","","","","","","html-button-response","142","2.0.0","411903","5db598f48cf15c000b57eb36","1","12","763","","","","","","","","","<img src= rock_img/I_Pumice_15.jpg style=""width:8cm; height:7.86cm;""><p style='font-size: 30px; color: green;'><strong>Correct!</strong></p><p style='font-size: 30px;'><strong>This rock is pumice</strong></p>","0","corr_feedback","1","train","19","","","","","","","",""
"","","","","","","","","","","","html-button-response","143","2.0.0","412883","5db598f48cf15c000b57eb36","1","12","979","","","","","","","","","<img src= ""rock_img/I_Peridotite_05.jpg"" style=""width:8cm; height:7.1499999999999995cm;""><p>What type of rock is this?</p>","6","class_response","1","train","20","Peridotite","Peridotite","05","true","7","7","",""
"","","","","","","","","","","","html-button-response","144","2.0.0","413521","5db598f48cf15c000b57eb36","1","12","636","","","","","","","","","<img src= rock_img/I_Peridotite_05.jpg style=""width:8cm; height:7.1499999999999995cm;""><p style='font-size: 30px; color: green;'><strong>Correct!</strong></p><p style='font-size: 30px;'><strong>This rock is peridotite</strong></p>","0","corr_feedback","1","train","20","","","","","","","",""
"","","","","","","","","","","","html-button-response","145","2.0.0","414585","5db598f48cf15c000b57eb36","1","12","1063","","","","","","","","","<img src= ""rock_img/I_Obsidian_02.jpg"" style=""width:8cm; height:7.51cm;""><p>What type of rock is this?</p>","4","class_response","1","train","21","Obsidian","Obsidian","02","true","5","5","",""
"","","","","","","","","","","","html-button-response","146","2.0.0","415359","5db598f48cf15c000b57eb36","1","12","773","","","","","","","","","<img src= rock_img/I_Obsidian_02.jpg style=""width:8cm; height:7.51cm;""><p style='font-size: 30px; color: green;'><strong>Correct!</strong></p><p style='font-size: 30px;'><strong>This rock is obsidian</strong></p>","0","corr_feedback","1","train","21","","","","","","","",""
"","","","","","","","","","","","html-button-response","147","2.0.0","416651","5db598f48cf15c000b57eb36","1","12","1289","","","","","","","","","<img src= ""rock_img/I_Basalt_16.jpg"" style=""width:8cm; height:7.659999999999999cm;""><p>What type of rock is this?</p>","1","class_response","1","train","22","Basalt","Basalt","16","true","2","2","",""
"","","","","","","","","","","","html-button-response","148","2.0.0","417358","5db598f48cf15c000b57eb36","1","12","706","","","","","","","","","<img src= rock_img/I_Basalt_16.jpg style=""width:8cm; height:7.659999999999999cm;""><p style='font-size: 30px; color: green;'><strong>Correct!</strong></p><p style='font-size: 30px;'><strong>This rock is basalt</strong></p>","0","corr_feedback","1","train","22","","","","","","","",""
"","","","","","","","","","","","html-button-response","149","2.0.0","418545","5db598f48cf15c000b57eb36","1","12","1185","","","","","","","","","<img src= ""rock_img/I_Pegmatite_06.jpg"" style=""width:8cm; height:5.17cm;""><p>What type of rock is this?</p>","5","class_response","1","train","23","Pegmatite","Pegmatite","06","true","6","6","",""
"","","","","","","","","","","","html-button-response","150","2.0.0","419179","5db598f48cf15c000b57eb36","1","12","632","","","","","","","","","<img src= rock_img/I_Pegmatite_06.jpg style=""width:8cm; height:5.17cm;""><p style='font-size: 30px; color: green;'><strong>Correct!</strong></p><p style='font-size: 30px;'><strong>This rock is pegmatite</strong></p>","0","corr_feedback","1","train","23","","","","","","","",""
"","","","","","","","","","","","html-button-response","151","2.0.0","420551","5db598f48cf15c000b57eb36","1","12","1369","","","","","","","","","<img src= ""rock_img/I_Diorite_09.jpg"" style=""width:8cm; height:5.27cm;""><p>What type of rock is this?</p>","2","class_response","1","train","24","Diorite","Diorite","09","true","3","3","",""
"","","","","","","","","","","","html-button-response","152","2.0.0","421230","5db598f48cf15c000b57eb36","1","12","677","","","","","","","","","<img src= rock_img/I_Diorite_09.jpg style=""width:8cm; height:5.27cm;""><p style='font-size: 30px; color: green;'><strong>Correct!</strong></p><p style='font-size: 30px;'><strong>This rock is diorite</strong></p>","0","corr_feedback","1","train","24","","","","","","","",""
"","","","","","","","","","","","html-button-response","153","2.0.0","422788","5db598f48cf15c000b57eb36","1","12","1555","","","","","","","","","<img src= ""rock_img/I_Andesite_10.jpg"" style=""width:8cm; height:4.16cm;""><p>What type of rock is this?</p>","7","class_response","1","train","25","Pumice","Andesite","10","false","8","1","",""
"","","","","","","","","","","","html-button-response","154","2.0.0","423520","5db598f48cf15c000b57eb36","1","12","730","","","","","","","","","<img src= rock_img/I_Andesite_10.jpg style=""width:8cm; height:4.16cm;""><p style='font-size: 30px; color: red;'><strong>Incorrect!</strong></p><p style='font-size: 30px;'><strong>This rock is andesite</strong></p>","0","corr_feedback","1","train","25","","","","","","","",""
"","","","","","","","","","","","html-button-response","155","2.0.0","426491","5db598f48cf15c000b57eb36","1","12","2969","","","","","","","","","<img src= ""rock_img/I_Pegmatite_07.jpg"" style=""width:8cm; height:6.7cm;""><p>What type of rock is this?</p>","5","class_response","1","train","26","Pegmatite","Pegmatite","07","true","6","6","",""
"","","","","","","","","","","","html-button-response","156","2.0.0","427129","5db598f48cf15c000b57eb36","1","12","636","","","","","","","","","<img src= rock_img/I_Pegmatite_07.jpg style=""width:8cm; height:6.7cm;""><p style='font-size: 30px; color: green;'><strong>Correct!</strong></p><p style='font-size: 30px;'><strong>This rock is pegmatite</strong></p>","0","corr_feedback","1","train","26","","","","","","","",""
"","","","","","","","","","","","html-button-response","157","2.0.0","429505","5db598f48cf15c000b57eb36","1","12","2374","","","","","","","","","<img src= ""rock_img/I_Peridotite_04.jpg"" style=""width:8cm; height:6.680000000000001cm;""><p>What type of rock is this?</p>","3","class_response","1","train","27","Gabbro","Peridotite","04","false","4","7","",""
"","","","","","","","","","","","html-button-response","158","2.0.0","430340","5db598f48cf15c000b57eb36","1","12","833","","","","","","","","","<img src= rock_img/I_Peridotite_04.jpg style=""width:8cm; height:6.680000000000001cm;""><p style='font-size: 30px; color: red;'><strong>Incorrect!</strong></p><p style='font-size: 30px;'><strong>This rock is peridotite</strong></p>","0","corr_feedback","1","train","27","","","","","","","",""
"","","","","","","","","","","","html-button-response","159","2.0.0","431516","5db598f48cf15c000b57eb36","1","12","1173","","","","","","","","","<img src= ""rock_img/I_Pumice_06.jpg"" style=""width:8cm; height:6.9399999999999995cm;""><p>What type of rock is this?</p>","7","class_response","1","train","28","Pumice","Pumice","06","true","8","8","",""
"","","","","","","","","","","","html-button-response","160","2.0.0","432128","5db598f48cf15c000b57eb36","1","12","610","","","","","","","","","<img src= rock_img/I_Pumice_06.jpg style=""width:8cm; height:6.9399999999999995cm;""><p style='font-size: 30px; color: green;'><strong>Correct!</strong></p><p style='font-size: 30px;'><strong>This rock is pumice</strong></p>","0","corr_feedback","1","train","28","","","","","","","",""
"","","","","","","","","","","","html-button-response","161","2.0.0","433872","5db598f48cf15c000b57eb36","1","12","1742","","","","","","","","","<img src= ""rock_img/I_Pumice_16.jpg"" style=""width:8cm; height:6.79cm;""><p>What type of rock is this?</p>","1","class_response","1","train","29","Basalt","Pumice","16","false","2","8","",""
"","","","","","","","","","","","html-button-response","162","2.0.0","434538","5db598f48cf15c000b57eb36","1","12","664","","","","","","","","","<img src= rock_img/I_Pumice_16.jpg style=""width:8cm; height:6.79cm;""><p style='font-size: 30px; color: red;'><strong>Incorrect!</strong></p><p style='font-size: 30px;'><strong>This rock is pumice</strong></p>","0","corr_feedback","1","train","29","","","","","","","",""
"","","","","","","","","","","","html-button-response","163","2.0.0","435516","5db598f48cf15c000b57eb36","1","12","976","","","","","","","","","<img src= ""rock_img/I_Basalt_06.jpg"" style=""width:8cm; height:7.06cm;""><p>What type of rock is this?</p>","1","class_response","1","train","30","Basalt","Basalt","06","true","2","2","",""
"","","","","","","","","","","","html-button-response","164","2.0.0","436099","5db598f48cf15c000b57eb36","1","12","582","","","","","","","","","<img src= rock_img/I_Basalt_06.jpg style=""width:8cm; height:7.06cm;""><p style='font-size: 30px; color: green;'><strong>Correct!</strong></p><p style='font-size: 30px;'><strong>This rock is basalt</strong></p>","0","corr_feedback","1","train","30","","","","","","","",""
"","","","","","","","","","","","html-button-response","165","2.0.0","437150","5db598f48cf15c000b57eb36","1","12","1048","","","","","","","","","<img src= ""rock_img/I_Peridotite_15.jpg"" style=""width:8cm; height:6cm;""><p>What type of rock is this?</p>","6","class_response","1","train","31","Peridotite","Peridotite","15","true","7","7","",""
"","","","","","","","","","","","html-button-response","166","2.0.0","437716","5db598f48cf15c000b57eb36","1","12","564","","","","","","","","","<img src= rock_img/I_Peridotite_15.jpg style=""width:8cm; height:6cm;""><p style='font-size: 30px; color: green;'><strong>Correct!</strong></p><p style='font-size: 30px;'><strong>This rock is peridotite</strong></p>","0","corr_feedback","1","train","31","","","","","","","",""
"","","","","","","","","","","","html-button-response","167","2.0.0","439587","5db598f48cf15c000b57eb36","1","12","1869","","","","","","","","","<img src= ""rock_img/I_Pegmatite_13.jpg"" style=""width:8cm; height:4.95cm;""><p>What type of rock is this?</p>","5","class_response","1","train","32","Pegmatite","Pegmatite","13","true","6","6","",""
"","","","","","","","","","","","html-button-response","168","2.0.0","440222","5db598f48cf15c000b57eb36","1","12","632","","","","","","","","","<img src= rock_img/I_Pegmatite_13.jpg style=""width:8cm; height:4.95cm;""><p style='font-size: 30px; color: green;'><strong>Correct!</strong></p><p style='font-size: 30px;'><strong>This rock is pegmatite</strong></p>","0","corr_feedback","1","train","32","","","","","","","",""
"","","","","","","","","","","","html-button-response","169","2.0.0","441234","5db598f48cf15c000b57eb36","1","12","1010","","","","","","","","","<img src= ""rock_img/I_Obsidian_08.jpg"" style=""width:8cm; height:7.39cm;""><p>What type of rock is this?</p>","4","class_response","1","train","33","Obsidian","Obsidian","08","true","5","5","",""
"","","","","","","","","","","","html-button-response","170","2.0.0","441965","5db598f48cf15c000b57eb36","1","12","730","","","","","","","","","<img src= rock_img/I_Obsidian_08.jpg style=""width:8cm; height:7.39cm;""><p style='font-size: 30px; color: green;'><strong>Correct!</strong></p><p style='font-size: 30px;'><strong>This rock is obsidian</strong></p>","0","corr_feedback","1","train","33","","","","","","","",""
"","","","","","","","","","","","html-button-response","171","2.0.0","443051","5db598f48cf15c000b57eb36","1","12","1083","","","","","","","","","<img src= ""rock_img/I_Gabbro_14.jpg"" style=""width:8cm; height:8.48cm;""><p>What type of rock is this?</p>","1","class_response","1","train","34","Basalt","Gabbro","14","false","2","4","",""
"","","","","","","","","","","","html-button-response","172","2.0.0","443781","5db598f48cf15c000b57eb36","1","12","728","","","","","","","","","<img src= rock_img/I_Gabbro_14.jpg style=""width:8cm; height:8.48cm;""><p style='font-size: 30px; color: red;'><strong>Incorrect!</strong></p><p style='font-size: 30px;'><strong>This rock is gabbro</strong></p>","0","corr_feedback","1","train","34","","","","","","","",""
"","","","","","","","","","","","html-button-response","173","2.0.0","446681","5db598f48cf15c000b57eb36","1","12","2899","","","","","","","","","<img src= ""rock_img/I_Diorite_13.jpg"" style=""width:8cm; height:6.29cm;""><p>What type of rock is this?</p>","0","class_response","1","train","35","Andesite","Diorite","13","false","1","3","",""
"","","","","","","","","","","","html-button-response","174","2.0.0","447444","5db598f48cf15c000b57eb36","1","12","761","","","","","","","","","<img src= rock_img/I_Diorite_13.jpg style=""width:8cm; height:6.29cm;""><p style='font-size: 30px; color: red;'><strong>Incorrect!</strong></p><p style='font-size: 30px;'><strong>This rock is diorite</strong></p>","0","corr_feedback","1","train","35","","","","","","","",""
"","","","","","","","","","","","html-button-response","175","2.0.0","448929","5db598f48cf15c000b57eb36","1","12","1483","","","","","","","","","<img src= ""rock_img/I_Peridotite_08.jpg"" style=""width:8cm; height:6.7cm;""><p>What type of rock is this?</p>","6","class_response","1","train","36","Peridotite","Peridotite","08","true","7","7","",""
"","","","","","","","","","","","html-button-response","176","2.0.0","449503","5db598f48cf15c000b57eb36","1","12","572","","","","","","","","","<img src= rock_img/I_Peridotite_08.jpg style=""width:8cm; height:6.7cm;""><p style='font-size: 30px; color: green;'><strong>Correct!</strong></p><p style='font-size: 30px;'><strong>This rock is peridotite</strong></p>","0","corr_feedback","1","train","36","","","","","","","",""
"","","","","","","","","","","","html-button-response","177","2.0.0","450490","5db598f48cf15c000b57eb36","1","12","985","","","","","","","","","<img src= ""rock_img/I_Basalt_04.jpg"" style=""width:8cm; height:7.53cm;""><p>What type of rock is this?</p>","1","class_response","1","train","37","Basalt","Basalt","04","true","2","2","",""
"","","","","","","","","","","","html-button-response","178","2.0.0","451204","5db598f48cf15c000b57eb36","1","12","712","","","","","","","","","<img src= rock_img/I_Basalt_04.jpg style=""width:8cm; height:7.53cm;""><p style='font-size: 30px; color: green;'><strong>Correct!</strong></p><p style='font-size: 30px;'><strong>This rock is basalt</strong></p>","0","corr_feedback","1","train","37","","","","","","","",""
"","","","","","","","","","","","html-button-response","179","2.0.0","454677","5db598f48cf15c000b57eb36","1","12","3471","","","","","","","","","<img src= ""rock_img/I_Gabbro_09.jpg"" style=""width:8cm; height:7.279999999999999cm;""><p>What type of rock is this?</p>","1","class_response","1","train","38","Basalt","Gabbro","09","false","2","4","",""
"","","","","","","","","","","","html-button-response","180","2.0.0","455583","5db598f48cf15c000b57eb36","1","12","904","","","","","","","","","<img src= rock_img/I_Gabbro_09.jpg style=""width:8cm; height:7.279999999999999cm;""><p style='font-size: 30px; color: red;'><strong>Incorrect!</strong></p><p style='font-size: 30px;'><strong>This rock is gabbro</strong></p>","0","corr_feedback","1","train","38","","","","","","","",""
"","","","","","","","","","","","html-button-response","181","2.0.0","457422","5db598f48cf15c000b57eb36","1","12","1837","","","","","","","","","<img src= ""rock_img/I_Andesite_06.jpg"" style=""width:8cm; height:6.840000000000001cm;""><p>What type of rock is this?</p>","2","class_response","1","train","39","Diorite","Andesite","06","false","3","1","",""
"","","","","","","","","","","","html-button-response","182","2.0.0","458298","5db598f48cf15c000b57eb36","1","12","875","","","","","","","","","<img src= rock_img/I_Andesite_06.jpg style=""width:8cm; height:6.840000000000001cm;""><p style='font-size: 30px; color: red;'><strong>Incorrect!</strong></p><p style='font-size: 30px;'><strong>This rock is andesite</strong></p>","0","corr_feedback","1","train","39","","","","","","","",""
"","","","","","","","","","","","html-button-response","183","2.0.0","459991","5db598f48cf15c000b57eb36","1","12","1691","","","","","","","","","<img src= ""rock_img/I_Pumice_02.jpg"" style=""width:8cm; height:7.3999999999999995cm;""><p>What type of rock is this?</p>","7","class_response","1","train","40","Pumice","Pumice","02","true","8","8","",""
"","","","","","","","","","","","html-button-response","184","2.0.0","460720","5db598f48cf15c000b57eb36","1","12","727","","","","","","","","","<img src= rock_img/I_Pumice_02.jpg style=""width:8cm; height:7.3999999999999995cm;""><p style='font-size: 30px; color: green;'><strong>Correct!</strong></p><p style='font-size: 30px;'><strong>This rock is pumice</strong></p>","0","corr_feedback","1","train","40","","","","","","","",""
"","","","","","","","","","","","html-button-response","185","2.0.0","463402","5db598f48cf15c000b57eb36","1","12","2680","","","","","","","","","<img src= ""rock_img/I_Gabbro_13.jpg"" style=""width:8cm; height:5.08cm;""><p>What type of rock is this?</p>","3","class_response","1","train","41","Gabbro","Gabbro","13","true","4","4","",""
"","","","","","","","","","","","html-button-response","186","2.0.0","464222","5db598f48cf15c000b57eb36","1","12","818","","","","","","","","","<img src= rock_img/I_Gabbro_13.jpg style=""width:8cm; height:5.08cm;""><p style='font-size: 30px; color: green;'><strong>Correct!</strong></p><p style='font-size: 30px;'><strong>This rock is gabbro</strong></p>","0","corr_feedback","1","train","41","","","","","","","",""
"","","","","","","","","","","","html-button-response","187","2.0.0","466678","5db598f48cf15c000b57eb36","1","12","2454","","","","","","","","","<img src= ""rock_img/I_Pegmatite_05.jpg"" style=""width:8cm; height:7.300000000000001cm;""><p>What type of rock is this?</p>","5","class_response","1","train","42","Pegmatite","Pegmatite","05","true","6","6","",""
"","","","","","","","","","","","html-button-response","188","2.0.0","467405","5db598f48cf15c000b57eb36","1","12","726","","","","","","","","","<img src= rock_img/I_Pegmatite_05.jpg style=""width:8cm; height:7.300000000000001cm;""><p style='font-size: 30px; color: green;'><strong>Correct!</strong></p><p style='font-size: 30px;'><strong>This rock is pegmatite</strong></p>","0","corr_feedback","1","train","42","","","","","","","",""
"","","","","","","","","","","","html-button-response","189","2.0.0","469730","5db598f48cf15c000b57eb36","1","12","2322","","","","","","","","","<img src= ""rock_img/I_Andesite_04.jpg"" style=""width:8cm; height:5.96cm;""><p>What type of rock is this?</p>","0","class_response","1","train","43","Andesite","Andesite","04","true","1","1","",""
"","","","","","","","","","","","html-button-response","190","2.0.0","470569","5db598f48cf15c000b57eb36","1","12","837","","","","","","","","","<img src= rock_img/I_Andesite_04.jpg style=""width:8cm; height:5.96cm;""><p style='font-size: 30px; color: green;'><strong>Correct!</strong></p><p style='font-size: 30px;'><strong>This rock is andesite</strong></p>","0","corr_feedback","1","train","43","","","","","","","",""
"","","","","","","","","","","","html-button-response","191","2.0.0","472985","5db598f48cf15c000b57eb36","1","12","2413","","","","","","","","","<img src= ""rock_img/I_Gabbro_08.jpg"" style=""width:8cm; height:5.15cm;""><p>What type of rock is this?</p>","7","class_response","1","train","44","Pumice","Gabbro","08","false","8","4","",""
"","","","","","","","","","","","html-button-response","192","2.0.0","473703","5db598f48cf15c000b57eb36","1","12","716","","","","","","","","","<img src= rock_img/I_Gabbro_08.jpg style=""width:8cm; height:5.15cm;""><p style='font-size: 30px; color: red;'><strong>Incorrect!</strong></p><p style='font-size: 30px;'><strong>This rock is gabbro</strong></p>","0","corr_feedback","1","train","44","","","","","","","",""
"","","","","","","","","","","","html-button-response","193","2.0.0","476196","5db598f48cf15c000b57eb36","1","12","2491","","","","","","","","","<img src= ""rock_img/I_Basalt_11.jpg"" style=""width:8cm; height:5.359999999999999cm;""><p>What type of rock is this?</p>","7","class_response","1","train","45","Pumice","Basalt","11","false","8","2","",""
"","","","","","","","","","","","html-button-response","194","2.0.0","476896","5db598f48cf15c000b57eb36","1","12","698","","","","","","","","","<img src= rock_img/I_Basalt_11.jpg style=""width:8cm; height:5.359999999999999cm;""><p style='font-size: 30px; color: red;'><strong>Incorrect!</strong></p><p style='font-size: 30px;'><strong>This rock is basalt</strong></p>","0","corr_feedback","1","train","45","","","","","","","",""
"","","","","","","","","","","","html-button-response","195","2.0.0","477925","5db598f48cf15c000b57eb36","1","12","1026","","","","","","","","","<img src= ""rock_img/I_Obsidian_11.jpg"" style=""width:8cm; height:6.05cm;""><p>What type of rock is this?</p>","4","class_response","1","train","46","Obsidian","Obsidian","11","true","5","5","",""
"","","","","","","","","","","","html-button-response","196","2.0.0","478532","5db598f48cf15c000b57eb36","1","12","606","","","","","","","","","<img src= rock_img/I_Obsidian_11.jpg style=""width:8cm; height:6.05cm;""><p style='font-size: 30px; color: green;'><strong>Correct!</strong></p><p style='font-size: 30px;'><strong>This rock is obsidian</strong></p>","0","corr_feedback","1","train","46","","","","","","","",""
"","","","","","","","","","","","html-button-response","197","2.0.0","481605","5db598f48cf15c000b57eb36","1","12","3070","","","","","","","","","<img src= ""rock_img/I_Andesite_09.jpg"" style=""width:8cm; height:6cm;""><p>What type of rock is this?</p>","3","class_response","1","train","47","Gabbro","Andesite","09","false","4","1","",""
"","","","","","","","","","","","html-button-response","198","2.0.0","482314","5db598f48cf15c000b57eb36","1","12","707","","","","","","","","","<img src= rock_img/I_Andesite_09.jpg style=""width:8cm; height:6cm;""><p style='font-size: 30px; color: red;'><strong>Incorrect!</strong></p><p style='font-size: 30px;'><strong>This rock is andesite</strong></p>","0","corr_feedback","1","train","47","","","","","","","",""
"","","","","","","","","","","","html-button-response","199","2.0.0","484813","5db598f48cf15c000b57eb36","1","12","2497","","","","","","","","","<img src= ""rock_img/I_Diorite_12.jpg"" style=""width:8cm; height:4.88cm;""><p>What type of rock is this?</p>","2","class_response","1","train","48","Diorite","Diorite","12","true","3","3","",""
"","","","","","","","","","","","html-button-response","200","2.0.0","485393","5db598f48cf15c000b57eb36","1","12","579","","","","","","","","","<img src= rock_img/I_Diorite_12.jpg style=""width:8cm; height:4.88cm;""><p style='font-size: 30px; color: green;'><strong>Correct!</strong></p><p style='font-size: 30px;'><strong>This rock is diorite</strong></p>","0","corr_feedback","1","train","48","","","","","","","",""
"","","","","","","","","","","","instructions","203","2.0.0","496935","5db598f48cf15c000b57eb36","1","12","11540","","","","","","","","[{""page_index"":0,""viewing_time"":3257},{""page_index"":1,""viewing_time"":8282}]","","","","","","","","","","","","","",""
"","","","","","","","","","","","html-button-response","204","2.0.0","498219","5db598f48cf15c000b57eb36","1","12","1282","","","","","","","","","","0","start_test","","","","","","","","","","",""
"","","","","","","","","","","","html-button-response","205","2.0.0","499565","5db598f48cf15c000b57eb36","1","12","1343","","","","","","","","","<img src= ""rock_img/I_Pegmatite_15.jpg"" style=""width:8cm; height:6cm;""><p>What type of rock is this?</p>","5","class_response","1","test","1","Pegmatite","Pegmatite","15","true","6","6","",""
"","","","","","","","","","","","html-keyboard-response","206","2.0.0","500068","5db598f48cf15c000b57eb36","1","12","null","","","","","","","","","<p style='font-size: 30px;'><strong>Okay</strong></p>","null","neutral_feedback","1","test","1","","","","","","","",""
"","","","","","","","","","","","html-button-response","207","2.0.0","501873","5db598f48cf15c000b57eb36","1","12","1803","","","","","","","","","<img src= ""rock_img/I_Peridotite_14.jpg"" style=""width:8cm; height:5.3cm;""><p>What type of rock is this?</p>","6","class_response","1","test","2","Peridotite","Peridotite","14","true","7","7","",""
"","","","","","","","","","","","html-keyboard-response","208","2.0.0","502376","5db598f48cf15c000b57eb36","1","12","null","","","","","","","","","<p style='font-size: 30px;'><strong>Okay</strong></p>","null","neutral_feedback","1","test","2","","","","","","","",""
"","","","","","","","","","","","html-button-response","209","2.0.0","503496","5db598f48cf15c000b57eb36","1","12","1118","","","","","","","","","<img src= ""rock_img/I_Obsidian_04.jpg"" style=""width:8cm; height:6.930000000000001cm;""><p>What type of rock is this?</p>","4","class_response","1","test","3","Obsidian","Obsidian","04","true","5","5","",""
"","","","","","","","","","","","html-keyboard-response","210","2.0.0","503998","5db598f48cf15c000b57eb36","1","12","null","","","","","","","","","<p style='font-size: 30px;'><strong>Okay</strong></p>","null","neutral_feedback","1","test","3","","","","","","","",""
"","","","","","","","","","","","html-button-response","211","2.0.0","507275","5db598f48cf15c000b57eb36","1","12","3274","","","","","","","","","<img src= ""rock_img/I_Gabbro_05.jpg"" style=""width:8cm; height:6cm;""><p>What type of rock is this?</p>","3","class_response","1","test","4","Gabbro","Gabbro","05","true","4","4","",""
"","","","","","","","","","","","html-keyboard-response","212","2.0.0","507777","5db598f48cf15c000b57eb36","1","12","null","","","","","","","","","<p style='font-size: 30px;'><strong>Okay</strong></p>","null","neutral_feedback","1","test","4","","","","","","","",""
"","","","","","","","","","","","html-button-response","213","2.0.0","509594","5db598f48cf15c000b57eb36","1","12","1814","","","","","","","","","<img src= ""rock_img/I_Pumice_08.jpg"" style=""width:8cm; height:6.67cm;""><p>What type of rock is this?</p>","7","class_response","1","test","5","Pumice","Pumice","08","true","8","8","",""
"","","","","","","","","","","","html-keyboard-response","214","2.0.0","510096","5db598f48cf15c000b57eb36","1","12","null","","","","","","","","","<p style='font-size: 30px;'><strong>Okay</strong></p>","null","neutral_feedback","1","test","5","","","","","","","",""
"","","","","","","","","","","","html-button-response","215","2.0.0","511354","5db598f48cf15c000b57eb36","1","12","1256","","","","","","","","","<img src= ""rock_img/I_Basalt_09.jpg"" style=""width:8cm; height:6.2cm;""><p>What type of rock is this?</p>","1","class_response","1","test","6","Basalt","Basalt","09","true","2","2","",""
"","","","","","","","","","","","html-keyboard-response","216","2.0.0","511856","5db598f48cf15c000b57eb36","1","12","null","","","","","","","","","<p style='font-size: 30px;'><strong>Okay</strong></p>","null","neutral_feedback","1","test","6","","","","","","","",""
"","","","","","","","","","","","html-button-response","217","2.0.0","513124","5db598f48cf15c000b57eb36","1","12","1266","","","","","","","","","<img src= ""rock_img/I_Peridotite_02.jpg"" style=""width:8cm; height:5.859999999999999cm;""><p>What type of rock is this?</p>","6","class_response","1","test","7","Peridotite","Peridotite","02","true","7","7","",""
"","","","","","","","","","","","html-keyboard-response","218","2.0.0","513626","5db598f48cf15c000b57eb36","1","12","null","","","","","","","","","<p style='font-size: 30px;'><strong>Okay</strong></p>","null","neutral_feedback","1","test","7","","","","","","","",""
"","","","","","","","","","","","html-button-response","219","2.0.0","515304","5db598f48cf15c000b57eb36","1","12","1675","","","","","","","","","<img src= ""rock_img/I_Gabbro_10.jpg"" style=""width:8cm; height:5.680000000000001cm;""><p>What type of rock is this?</p>","3","class_response","1","test","8","Gabbro","Gabbro","10","true","4","4","",""
"","","","","","","","","","","","html-keyboard-response","220","2.0.0","515806","5db598f48cf15c000b57eb36","1","12","null","","","","","","","","","<p style='font-size: 30px;'><strong>Okay</strong></p>","null","neutral_feedback","1","test","8","","","","","","","",""
"","","","","","","","","","","","html-button-response","221","2.0.0","516854","5db598f48cf15c000b57eb36","1","12","1045","","","","","","","","","<img src= ""rock_img/I_Gabbro_11.jpg"" style=""width:8cm; height:6.2cm;""><p>What type of rock is this?</p>","1","class_response","1","test","9","Basalt","Gabbro","11","false","2","4","",""
"","","","","","","","","","","","html-keyboard-response","222","2.0.0","517357","5db598f48cf15c000b57eb36","1","12","null","","","","","","","","","<p style='font-size: 30px;'><strong>Okay</strong></p>","null","neutral_feedback","1","test","9","","","","","","","",""
"","","","","","","","","","","","html-button-response","223","2.0.0","518734","5db598f48cf15c000b57eb36","1","12","1375","","","","","","","","","<img src= ""rock_img/I_Gabbro_03.jpg"" style=""width:8cm; height:8.52cm;""><p>What type of rock is this?</p>","3","class_response","1","test","10","Gabbro","Gabbro","03","true","4","4","",""
"","","","","","","","","","","","html-keyboard-response","224","2.0.0","519235","5db598f48cf15c000b57eb36","1","12","null","","","","","","","","","<p style='font-size: 30px;'><strong>Okay</strong></p>","null","neutral_feedback","1","test","10","","","","","","","",""
"","","","","","","","","","","","html-button-response","225","2.0.0","521701","5db598f48cf15c000b57eb36","1","12","2462","","","","","","","","","<img src= ""rock_img/I_Diorite_11.jpg"" style=""width:8cm; height:7.11cm;""><p>What type of rock is this?</p>","2","class_response","1","test","11","Diorite","Diorite","11","true","3","3","",""
"","","","","","","","","","","","html-keyboard-response","226","2.0.0","522203","5db598f48cf15c000b57eb36","1","12","null","","","","","","","","","<p style='font-size: 30px;'><strong>Okay</strong></p>","null","neutral_feedback","1","test","11","","","","","","","",""
"","","","","","","","","","","","html-button-response","227","2.0.0","523096","5db598f48cf15c000b57eb36","1","12","890","","","","","","","","","<img src= ""rock_img/I_Pegmatite_12.jpg"" style=""width:8cm; height:5.7cm;""><p>What type of rock is this?</p>","5","class_response","1","test","12","Pegmatite","Pegmatite","12","true","6","6","",""
"","","","","","","","","","","","html-keyboard-response","228","2.0.0","523598","5db598f48cf15c000b57eb36","1","12","null","","","","","","","","","<p style='font-size: 30px;'><strong>Okay</strong></p>","null","neutral_feedback","1","test","12","","","","","","","",""
"","","","","","","","","","","","html-button-response","229","2.0.0","524571","5db598f48cf15c000b57eb36","1","12","970","","","","","","","","","<img src= ""rock_img/I_Basalt_08.jpg"" style=""width:8cm; height:10.44cm;""><p>What type of rock is this?</p>","1","class_response","1","test","13","Basalt","Basalt","08","true","2","2","",""
"","","","","","","","","","","","html-keyboard-response","230","2.0.0","525072","5db598f48cf15c000b57eb36","1","12","null","","","","","","","","","<p style='font-size: 30px;'><strong>Okay</strong></p>","null","neutral_feedback","1","test","13","","","","","","","",""
"","","","","","","","","","","","html-button-response","231","2.0.0","527093","5db598f48cf15c000b57eb36","1","12","2018","","","","","","","","","<img src= ""rock_img/I_Diorite_07.jpg"" style=""width:8cm; height:5.239999999999999cm;""><p>What type of rock is this?</p>","2","class_response","1","test","14","Diorite","Diorite","07","true","3","3","",""
"","","","","","","","","","","","html-keyboard-response","232","2.0.0","527596","5db598f48cf15c000b57eb36","1","12","null","","","","","","","","","<p style='font-size: 30px;'><strong>Okay</strong></p>","null","neutral_feedback","1","test","14","","","","","","","",""
"","","","","","","","","","","","html-button-response","233","2.0.0","529291","5db598f48cf15c000b57eb36","1","12","1693","","","","","","","","","<img src= ""rock_img/I_Andesite_16.jpg"" style=""width:8cm; height:6.010000000000001cm;""><p>What type of rock is this?</p>","0","class_response","1","test","15","Andesite","Andesite","16","true","1","1","",""
"","","","","","","","","","","","html-keyboard-response","234","2.0.0","529792","5db598f48cf15c000b57eb36","1","12","null","","","","","","","","","<p style='font-size: 30px;'><strong>Okay</strong></p>","null","neutral_feedback","1","test","15","","","","","","","",""
"","","","","","","","","","","","html-button-response","235","2.0.0","531160","5db598f48cf15c000b57eb36","1","12","1365","","","","","","","","","<img src= ""rock_img/I_Gabbro_01.jpg"" style=""width:8cm; height:5.21cm;""><p>What type of rock is this?</p>","6","class_response","1","test","16","Peridotite","Gabbro","01","false","7","4","",""
"","","","","","","","","","","","html-keyboard-response","236","2.0.0","531663","5db598f48cf15c000b57eb36","1","12","null","","","","","","","","","<p style='font-size: 30px;'><strong>Okay</strong></p>","null","neutral_feedback","1","test","16","","","","","","","",""
"","","","","","","","","","","","html-button-response","237","2.0.0","533761","5db598f48cf15c000b57eb36","1","12","2095","","","","","","","","","<img src= ""rock_img/I_Andesite_11.jpg"" style=""width:8cm; height:4.92cm;""><p>What type of rock is this?</p>","5","class_response","1","test","17","Pegmatite","Andesite","11","false","6","1","",""
"","","","","","","","","","","","html-keyboard-response","238","2.0.0","534263","5db598f48cf15c000b57eb36","1","12","null","","","","","","","","","<p style='font-size: 30px;'><strong>Okay</strong></p>","null","neutral_feedback","1","test","17","","","","","","","",""
"","","","","","","","","","","","html-button-response","239","2.0.0","535341","5db598f48cf15c000b57eb36","1","12","1075","","","","","","","","","<img src= ""rock_img/I_Pegmatite_03.jpg"" style=""width:8cm; height:5.239999999999999cm;""><p>What type of rock is this?</p>","5","class_response","1","test","18","Pegmatite","Pegmatite","03","true","6","6","",""
"","","","","","","","","","","","html-keyboard-response","240","2.0.0","535843","5db598f48cf15c000b57eb36","1","12","null","","","","","","","","","<p style='font-size: 30px;'><strong>Okay</strong></p>","null","neutral_feedback","1","test","18","","","","","","","",""
"","","","","","","","","","","","html-button-response","241","2.0.0","537937","5db598f48cf15c000b57eb36","1","12","2091","","","","","","","","","<img src= ""rock_img/I_Basalt_14.jpg"" style=""width:8cm; height:5.82cm;""><p>What type of rock is this?</p>","3","class_response","1","test","19","Gabbro","Basalt","14","false","4","2","",""
"","","","","","","","","","","","html-keyboard-response","242","2.0.0","538439","5db598f48cf15c000b57eb36","1","12","null","","","","","","","","","<p style='font-size: 30px;'><strong>Okay</strong></p>","null","neutral_feedback","1","test","19","","","","","","","",""
"","","","","","","","","","","","html-button-response","243","2.0.0","539767","5db598f48cf15c000b57eb36","1","12","1325","","","","","","","","","<img src= ""rock_img/I_Diorite_08.jpg"" style=""width:8cm; height:6.37cm;""><p>What type of rock is this?</p>","2","class_response","1","test","20","Diorite","Diorite","08","true","3","3","",""
"","","","","","","","","","","","html-keyboard-response","244","2.0.0","540270","5db598f48cf15c000b57eb36","1","12","null","","","","","","","","","<p style='font-size: 30px;'><strong>Okay</strong></p>","null","neutral_feedback","1","test","20","","","","","","","",""
"","","","","","","","","","","","html-button-response","245","2.0.0","542963","5db598f48cf15c000b57eb36","1","12","2691","","","","","","","","","<img src= ""rock_img/I_Andesite_03.jpg"" style=""width:8cm; height:5.73cm;""><p>What type of rock is this?</p>","3","class_response","1","test","21","Gabbro","Andesite","03","false","4","1","",""
"","","","","","","","","","","","html-keyboard-response","246","2.0.0","543465","5db598f48cf15c000b57eb36","1","12","null","","","","","","","","","<p style='font-size: 30px;'><strong>Okay</strong></p>","null","neutral_feedback","1","test","21","","","","","","","",""
"","","","","","","","","","","","html-button-response","247","2.0.0","546052","5db598f48cf15c000b57eb36","1","12","2584","","","","","","","","","<img src= ""rock_img/I_Diorite_16.jpg"" style=""width:8cm; height:6.74cm;""><p>What type of rock is this?</p>","0","class_response","1","test","22","Andesite","Diorite","16","false","1","3","",""
"","","","","","","","","","","","html-keyboard-response","248","2.0.0","546554","5db598f48cf15c000b57eb36","1","12","null","","","","","","","","","<p style='font-size: 30px;'><strong>Okay</strong></p>","null","neutral_feedback","1","test","22","","","","","","","",""
"","","","","","","","","","","","html-button-response","249","2.0.0","547770","5db598f48cf15c000b57eb36","1","12","1213","","","","","","","","","<img src= ""rock_img/I_Pumice_09.jpg"" style=""width:8cm; height:6.44cm;""><p>What type of rock is this?</p>","7","class_response","1","test","23","Pumice","Pumice","09","true","8","8","",""
"","","","","","","","","","","","html-keyboard-response","250","2.0.0","548273","5db598f48cf15c000b57eb36","1","12","null","","","","","","","","","<p style='font-size: 30px;'><strong>Okay</strong></p>","null","neutral_feedback","1","test","23","","","","","","","",""
"","","","","","","","","","","","html-button-response","251","2.0.0","549483","5db598f48cf15c000b57eb36","1","12","1208","","","","","","","","","<img src= ""rock_img/I_Peridotite_06.jpg"" style=""width:8cm; height:7.53cm;""><p>What type of rock is this?</p>","6","class_response","1","test","24","Peridotite","Peridotite","06","true","7","7","",""
"","","","","","","","","","","","html-keyboard-response","252","2.0.0","549986","5db598f48cf15c000b57eb36","1","12","null","","","","","","","","","<p style='font-size: 30px;'><strong>Okay</strong></p>","null","neutral_feedback","1","test","24","","","","","","","",""
"","","","","","","","","","","","html-button-response","253","2.0.0","551123","5db598f48cf15c000b57eb36","1","12","1135","","","","","","","","","<img src= ""rock_img/I_Peridotite_12.jpg"" style=""width:8cm; height:4.54cm;""><p>What type of rock is this?</p>","6","class_response","1","test","25","Peridotite","Peridotite","12","true","7","7","",""
"","","","","","","","","","","","html-keyboard-response","254","2.0.0","551624","5db598f48cf15c000b57eb36","1","12","null","","","","","","","","","<p style='font-size: 30px;'><strong>Okay</strong></p>","null","neutral_feedback","1","test","25","","","","","","","",""
"","","","","","","","","","","","html-button-response","255","2.0.0","553600","5db598f48cf15c000b57eb36","1","12","1973","","","","","","","","","<img src= ""rock_img/I_Andesite_05.jpg"" style=""width:8cm; height:4.12cm;""><p>What type of rock is this?</p>","2","class_response","1","test","26","Diorite","Andesite","05","false","3","1","",""
"","","","","","","","","","","","html-keyboard-response","256","2.0.0","554101","5db598f48cf15c000b57eb36","1","12","null","","","","","","","","","<p style='font-size: 30px;'><strong>Okay</strong></p>","null","neutral_feedback","1","test","26","","","","","","","",""
"","","","","","","","","","","","html-button-response","257","2.0.0","555076","5db598f48cf15c000b57eb36","1","12","973","","","","","","","","","<img src= ""rock_img/I_Pegmatite_08.jpg"" style=""width:8cm; height:7.68cm;""><p>What type of rock is this?</p>","5","class_response","1","test","27","Pegmatite","Pegmatite","08","true","6","6","",""
"","","","","","","","","","","","html-keyboard-response","258","2.0.0","555578","5db598f48cf15c000b57eb36","1","12","null","","","","","","","","","<p style='font-size: 30px;'><strong>Okay</strong></p>","null","neutral_feedback","1","test","27","","","","","","","",""
"","","","","","","","","","","","html-button-response","259","2.0.0","556588","5db598f48cf15c000b57eb36","1","12","1007","","","","","","","","","<img src= ""rock_img/I_Basalt_01.jpg"" style=""width:8cm; height:7.880000000000001cm;""><p>What type of rock is this?</p>","1","class_response","1","test","28","Basalt","Basalt","01","true","2","2","",""
"","","","","","","","","","","","html-keyboard-response","260","2.0.0","557090","5db598f48cf15c000b57eb36","1","12","null","","","","","","","","","<p style='font-size: 30px;'><strong>Okay</strong></p>","null","neutral_feedback","1","test","28","","","","","","","",""
"","","","","","","","","","","","html-button-response","261","2.0.0","558144","5db598f48cf15c000b57eb36","1","12","1052","","","","","","","","","<img src= ""rock_img/I_Obsidian_07.jpg"" style=""width:8cm; height:4.76cm;""><p>What type of rock is this?</p>","4","class_response","1","test","29","Obsidian","Obsidian","07","true","5","5","",""
"","","","","","","","","","","","html-keyboard-response","262","2.0.0","558646","5db598f48cf15c000b57eb36","1","12","null","","","","","","","","","<p style='font-size: 30px;'><strong>Okay</strong></p>","null","neutral_feedback","1","test","29","","","","","","","",""
"","","","","","","","","","","","html-button-response","263","2.0.0","559903","5db598f48cf15c000b57eb36","1","12","1255","","","","","","","","","<img src= ""rock_img/I_Peridotite_16.jpg"" style=""width:8cm; height:6.989999999999999cm;""><p>What type of rock is this?</p>","6","class_response","1","test","30","Peridotite","Peridotite","16","true","7","7","",""
"","","","","","","","","","","","html-keyboard-response","264","2.0.0","560405","5db598f48cf15c000b57eb36","1","12","null","","","","","","","","","<p style='font-size: 30px;'><strong>Okay</strong></p>","null","neutral_feedback","1","test","30","","","","","","","",""
"","","","","","","","","","","","html-button-response","265","2.0.0","561540","5db598f48cf15c000b57eb36","1","12","1133","","","","","","","","","<img src= ""rock_img/I_Basalt_02.jpg"" style=""width:8cm; height:6.45cm;""><p>What type of rock is this?</p>","1","class_response","1","test","31","Basalt","Basalt","02","true","2","2","",""
"","","","","","","","","","","","html-keyboard-response","266","2.0.0","562043","5db598f48cf15c000b57eb36","1","12","null","","","","","","","","","<p style='font-size: 30px;'><strong>Okay</strong></p>","null","neutral_feedback","1","test","31","","","","","","","",""
"","","","","","","","","","","","html-button-response","267","2.0.0","564027","5db598f48cf15c000b57eb36","1","12","1981","","","","","","","","","<img src= ""rock_img/I_Obsidian_05.jpg"" style=""width:8cm; height:6.33cm;""><p>What type of rock is this?</p>","2","class_response","1","test","32","Diorite","Obsidian","05","false","3","5","",""
"","","","","","","","","","","","html-keyboard-response","268","2.0.0","564530","5db598f48cf15c000b57eb36","1","12","null","","","","","","","","","<p style='font-size: 30px;'><strong>Okay</strong></p>","null","neutral_feedback","1","test","32","","","","","","","",""
"","","","","","","","","","","","html-button-response","269","2.0.0","567024","5db598f48cf15c000b57eb36","1","12","2491","","","","","","","","","<img src= ""rock_img/I_Andesite_07.jpg"" style=""width:8cm; height:5.93cm;""><p>What type of rock is this?</p>","0","class_response","1","test","33","Andesite","Andesite","07","true","1","1","",""
"","","","","","","","","","","","html-keyboard-response","270","2.0.0","567526","5db598f48cf15c000b57eb36","1","12","null","","","","","","","","","<p style='font-size: 30px;'><strong>Okay</strong></p>","null","neutral_feedback","1","test","33","","","","","","","",""
"","","","","","","","","","","","html-button-response","271","2.0.0","570203","5db598f48cf15c000b57eb36","1","12","2674","","","","","","","","","<img src= ""rock_img/I_Diorite_15.jpg"" style=""width:8cm; height:5.54cm;""><p>What type of rock is this?</p>","2","class_response","1","test","34","Diorite","Diorite","15","true","3","3","",""
"","","","","","","","","","","","html-keyboard-response","272","2.0.0","570705","5db598f48cf15c000b57eb36","1","12","null","","","","","","","","","<p style='font-size: 30px;'><strong>Okay</strong></p>","null","neutral_feedback","1","test","34","","","","","","","",""
"","","","","","","","","","","","html-button-response","273","2.0.0","571796","5db598f48cf15c000b57eb36","1","12","1088","","","","","","","","","<img src= ""rock_img/I_Pumice_04.jpg"" style=""width:8cm; height:6.819999999999999cm;""><p>What type of rock is this?</p>","7","class_response","1","test","35","Pumice","Pumice","04","true","8","8","",""
"","","","","","","","","","","","html-keyboard-response","274","2.0.0","572298","5db598f48cf15c000b57eb36","1","12","null","","","","","","","","","<p style='font-size: 30px;'><strong>Okay</strong></p>","null","neutral_feedback","1","test","35","","","","","","","",""
"","","","","","","","","","","","html-button-response","275","2.0.0","574380","5db598f48cf15c000b57eb36","1","12","2079","","","","","","","","","<img src= ""rock_img/I_Gabbro_15.jpg"" style=""width:8cm; height:6.29cm;""><p>What type of rock is this?</p>","3","class_response","1","test","36","Gabbro","Gabbro","15","true","4","4","",""
"","","","","","","","","","","","html-keyboard-response","276","2.0.0","574882","5db598f48cf15c000b57eb36","1","12","null","","","","","","","","","<p style='font-size: 30px;'><strong>Okay</strong></p>","null","neutral_feedback","1","test","36","","","","","","","",""
"","","","","","","","","","","","html-button-response","277","2.0.0","575881","5db598f48cf15c000b57eb36","1","12","996","","","","","","","","","<img src= ""rock_img/I_Pumice_03.jpg"" style=""width:8cm; height:6.64cm;""><p>What type of rock is this?</p>","7","class_response","1","test","37","Pumice","Pumice","03","true","8","8","",""
"","","","","","","","","","","","html-keyboard-response","278","2.0.0","576383","5db598f48cf15c000b57eb36","1","12","null","","","","","","","","","<p style='font-size: 30px;'><strong>Okay</strong></p>","null","neutral_feedback","1","test","37","","","","","","","",""
"","","","","","","","","","","","html-button-response","279","2.0.0","577716","5db598f48cf15c000b57eb36","1","12","1330","","","","","","","","","<img src= ""rock_img/I_Obsidian_06.jpg"" style=""width:8cm; height:6.8cm;""><p>What type of rock is this?</p>","4","class_response","1","test","38","Obsidian","Obsidian","06","true","5","5","",""
"","","","","","","","","","","","html-keyboard-response","280","2.0.0","578218","5db598f48cf15c000b57eb36","1","12","null","","","","","","","","","<p style='font-size: 30px;'><strong>Okay</strong></p>","null","neutral_feedback","1","test","38","","","","","","","",""
"","","","","","","","","","","","html-button-response","281","2.0.0","580030","5db598f48cf15c000b57eb36","1","12","1809","","","","","","","","","<img src= ""rock_img/I_Peridotite_07.jpg"" style=""width:8cm; height:4.83cm;""><p>What type of rock is this?</p>","6","class_response","1","test","39","Peridotite","Peridotite","07","true","7","7","",""
"","","","","","","","","","","","html-keyboard-response","282","2.0.0","580532","5db598f48cf15c000b57eb36","1","12","null","","","","","","","","","<p style='font-size: 30px;'><strong>Okay</strong></p>","null","neutral_feedback","1","test","39","","","","","","","",""
"","","","","","","","","","","","html-button-response","283","2.0.0","581654","5db598f48cf15c000b57eb36","1","12","1120","","","","","","","","","<img src= ""rock_img/I_Pumice_05.jpg"" style=""width:8cm; height:7.25cm;""><p>What type of rock is this?</p>","7","class_response","1","test","40","Pumice","Pumice","05","true","8","8","",""
"","","","","","","","","","","","html-keyboard-response","284","2.0.0","582156","5db598f48cf15c000b57eb36","1","12","null","","","","","","","","","<p style='font-size: 30px;'><strong>Okay</strong></p>","null","neutral_feedback","1","test","40","","","","","","","",""
"","","","","","","","","","","","html-button-response","285","2.0.0","583370","5db598f48cf15c000b57eb36","1","12","1211","","","","","","","","","<img src= ""rock_img/I_Pegmatite_16.jpg"" style=""width:8cm; height:5.8cm;""><p>What type of rock is this?</p>","5","class_response","1","test","41","Pegmatite","Pegmatite","16","true","6","6","",""
"","","","","","","","","","","","html-keyboard-response","286","2.0.0","583871","5db598f48cf15c000b57eb36","1","12","null","","","","","","","","","<p style='font-size: 30px;'><strong>Okay</strong></p>","null","neutral_feedback","1","test","41","","","","","","","",""
"","","","","","","","","","","","html-button-response","287","2.0.0","585075","5db598f48cf15c000b57eb36","1","12","1201","","","","","","","","","<img src= ""rock_img/I_Pumice_14.jpg"" style=""width:8cm; height:6.39cm;""><p>What type of rock is this?</p>","7","class_response","1","test","42","Pumice","Pumice","14","true","8","8","",""
"","","","","","","","","","","","html-keyboard-response","288","2.0.0","585577","5db598f48cf15c000b57eb36","1","12","null","","","","","","","","","<p style='font-size: 30px;'><strong>Okay</strong></p>","null","neutral_feedback","1","test","42","","","","","","","",""
"","","","","","","","","","","","html-button-response","289","2.0.0","588003","5db598f48cf15c000b57eb36","1","12","2423","","","","","","","","","<img src= ""rock_img/I_Diorite_10.jpg"" style=""width:8cm; height:5.949999999999999cm;""><p>What type of rock is this?</p>","2","class_response","1","test","43","Diorite","Diorite","10","true","3","3","",""
"","","","","","","","","","","","html-keyboard-response","290","2.0.0","588506","5db598f48cf15c000b57eb36","1","12","null","","","","","","","","","<p style='font-size: 30px;'><strong>Okay</strong></p>","null","neutral_feedback","1","test","43","","","","","","","",""
"","","","","","","","","","","","html-button-response","291","2.0.0","589894","5db598f48cf15c000b57eb36","1","12","1386","","","","","","","","","<img src= ""rock_img/I_Obsidian_14.jpg"" style=""width:8cm; height:7.64cm;""><p>What type of rock is this?</p>","4","class_response","1","test","44","Obsidian","Obsidian","14","true","5","5","",""
"","","","","","","","","","","","html-keyboard-response","292","2.0.0","590396","5db598f48cf15c000b57eb36","1","12","null","","","","","","","","","<p style='font-size: 30px;'><strong>Okay</strong></p>","null","neutral_feedback","1","test","44","","","","","","","",""
"","","","","","","","","","","","html-button-response","293","2.0.0","591491","5db598f48cf15c000b57eb36","1","12","1092","","","","","","","","","<img src= ""rock_img/I_Pegmatite_10.jpg"" style=""width:8cm; height:4.16cm;""><p>What type of rock is this?</p>","5","class_response","1","test","45","Pegmatite","Pegmatite","10","true","6","6","",""
"","","","","","","","","","","","html-keyboard-response","294","2.0.0","591993","5db598f48cf15c000b57eb36","1","12","null","","","","","","","","","<p style='font-size: 30px;'><strong>Okay</strong></p>","null","neutral_feedback","1","test","45","","","","","","","",""
"","","","","","","","","","","","html-button-response","295","2.0.0","592961","5db598f48cf15c000b57eb36","1","12","965","","","","","","","","","<img src= ""rock_img/I_Basalt_05.jpg"" style=""width:8cm; height:8.18cm;""><p>What type of rock is this?</p>","1","class_response","1","test","46","Basalt","Basalt","05","true","2","2","",""
"","","","","","","","","","","","html-keyboard-response","296","2.0.0","593463","5db598f48cf15c000b57eb36","1","12","null","","","","","","","","","<p style='font-size: 30px;'><strong>Okay</strong></p>","null","neutral_feedback","1","test","46","","","","","","","",""
"","","","","","","","","","","","html-button-response","297","2.0.0","594524","5db598f48cf15c000b57eb36","1","12","1059","","","","","","","","","<img src= ""rock_img/I_Obsidian_16.jpg"" style=""width:8cm; height:9.3cm;""><p>What type of rock is this?</p>","4","class_response","1","test","47","Obsidian","Obsidian","16","true","5","5","",""
"","","","","","","","","","","","html-keyboard-response","298","2.0.0","595027","5db598f48cf15c000b57eb36","1","12","null","","","","","","","","","<p style='font-size: 30px;'><strong>Okay</strong></p>","null","neutral_feedback","1","test","47","","","","","","","",""
"","","","","","","","","","","","html-button-response","299","2.0.0","596772","5db598f48cf15c000b57eb36","1","12","1742","","","","","","","","","<img src= ""rock_img/I_Andesite_01.jpg"" style=""width:8cm; height:5.87cm;""><p>What type of rock is this?</p>","3","class_response","1","test","48","Gabbro","Andesite","01","false","4","1","",""
"","","","","","","","","","","","html-keyboard-response","300","2.0.0","597274","5db598f48cf15c000b57eb36","1","12","null","","","","","","","","","<p style='font-size: 30px;'><strong>Okay</strong></p>","null","neutral_feedback","1","test","48","","","","","","","",""
"","","","","","","","","","","","html-button-response","301","2.0.0","623227","5db598f48cf15c000b57eb36","1","12","","","","","","","","","","","","cycle_feedback","","","","","","","","","","10054.5","15888.700000047684"
"","","","","","","","","","","","html-button-response","303","2.0.0","625730","5db598f48cf15c000b57eb36","1","12","2500","","","","","","","","","","0","start_train","","","","","","","","","","",""
"","","","","","","","","","","","html-button-response","304","2.0.0","630616","5db598f48cf15c000b57eb36","1","12","4883","","","","","","","","","<img src= ""rock_img/I_Pegmatite_05.jpg"" style=""width:8cm; height:7.300000000000001cm;""><p>What type of rock is this?</p>","3","class_response","2","train","1","Gabbro","Pegmatite","05","false","4","6","",""
