"width","height","webaudio","browser","browser_version","mobile","os","fullscreen","vsync_rate","webcam","microphone","trial_type","trial_index","plugin_version","time_elapsed","subjID","condition","stimID","rt","url","success","value","timeout","failed_images","failed_audio","failed_video","view_history","stimulus","response","trialType","cycle","phase","trial","resp","cat","token","corr","resp_num","cat_num","time_fb1","time_fb2"
"1280","585","true","chrome","130.0.0","false","Windows 10","true","51.69","true","true","browser-check","0","2.0.0","1200","6700d6aca79c6b2534f6292c","1","37","","","","","","","","","","","","","","","","","","","","","","",""
"","","","","","","","","","","","external-html","1","2.0.0","44845","6700d6aca79c6b2534f6292c","1","37","43102","consent_form.html","","","","","","","","","","","","","","","","","","","","",""
"","","","","","","","","","","","fullscreen","2","2.0.0","51771","6700d6aca79c6b2534f6292c","1","37","5913","","true","","","","","","","","","","","","","","","","","","","",""
"","","","","","","","","","","","call-function","3","2.0.0","51775","6700d6aca79c6b2534f6292c","1","37","","","","{}","","","","","","","","","","","","","","","","","","",""
"","","","","","","","","","","","preload","4","2.0.0","67670","6700d6aca79c6b2534f6292c","1","37","","","true","","false","[]","[]","[]","","","","","","","","","","","","","","",""
"","","","","","","","","","","","instructions","5","2.0.0","131583","6700d6aca79c6b2534f6292c","1","37","63912","","","","","","","","[{""page_index"":0,""viewing_time"":16725},{""page_index"":1,""viewing_time"":34244},{""page_index"":2,""viewing_time"":12943}]","","","","","","","","","","","","","",""
"","","","","","","","","","","","html-button-response","6","2.0.0","139171","6700d6aca79c6b2534f6292c","1","37","7585","","","","","","","","","","0","start_test","","","","","","","","","","",""
"","","","","","","","","","","","html-button-response","7","2.0.0","144718","6700d6aca79c6b2534f6292c","1","37","5544","","","","","","","","","<img src= ""rock_img/I_Andesite_10.jpg"" style=""width:8cm; height:4.16cm;""><p>What type of rock is this?</p>","1","class_response","0","test","1","Basalt","Andesite","10","false","2","1","",""
"","","","","","","","","","","","html-keyboard-response","8","2.0.0","145231","6700d6aca79c6b2534f6292c","1","37","null","","","","","","","","","<p style='font-size: 30px;'><strong>Okay</strong></p>","null","neutral_feedback","0","test","1","","","","","","","",""
"","","","","","","","","","","","html-button-response","9","2.0.0","154630","6700d6aca79c6b2534f6292c","1","37","9395","","","","","","","","","<img src= ""rock_img/I_Obsidian_10.jpg"" style=""width:8cm; height:6.260000000000001cm;""><p>What type of rock is this?</p>","0","class_response","0","test","2","Andesite","Obsidian","10","false","1","5","",""
"","","","","","","","","","","","html-keyboard-response","10","2.0.0","155142","6700d6aca79c6b2534f6292c","1","37","null","","","","","","","","","<p style='font-size: 30px;'><strong>Okay</strong></p>","null","neutral_feedback","0","test","2","","","","","","","",""
"","","","","","","","","","","","html-button-response","11","2.0.0","160413","6700d6aca79c6b2534f6292c","1","37","5265","","","","","","","","","<img src= ""rock_img/I_Diorite_15.jpg"" style=""width:8cm; height:5.54cm;""><p>What type of rock is this?</p>","3","class_response","0","test","3","Gabbro","Diorite","15","false","4","3","",""
"","","","","","","","","","","","html-keyboard-response","12","2.0.0","160926","6700d6aca79c6b2534f6292c","1","37","null","","","","","","","","","<p style='font-size: 30px;'><strong>Okay</strong></p>","null","neutral_feedback","0","test","3","","","","","","","",""
"","","","","","","","","","","","html-button-response","13","2.0.0","165477","6700d6aca79c6b2534f6292c","1","37","4547","","","","","","","","","<img src= ""rock_img/I_Pegmatite_09.jpg"" style=""width:8cm; height:4.03cm;""><p>What type of rock is this?</p>","4","class_response","0","test","4","Obsidian","Pegmatite","09","false","5","6","",""
"","","","","","","","","","","","html-keyboard-response","14","2.0.0","165990","6700d6aca79c6b2534f6292c","1","37","null","","","","","","","","","<p style='font-size: 30px;'><strong>Okay</strong></p>","null","neutral_feedback","0","test","4","","","","","","","",""
"","","","","","","","","","","","html-button-response","15","2.0.0","168618","6700d6aca79c6b2534f6292c","1","37","2622","","","","","","","","","<img src= ""rock_img/I_Andesite_04.jpg"" style=""width:8cm; height:5.96cm;""><p>What type of rock is this?</p>","6","class_response","0","test","5","Peridotite","Andesite","04","false","7","1","",""
"","","","","","","","","","","","html-keyboard-response","16","2.0.0","169129","6700d6aca79c6b2534f6292c","1","37","null","","","","","","","","","<p style='font-size: 30px;'><strong>Okay</strong></p>","null","neutral_feedback","0","test","5","","","","","","","",""
"","","","","","","","","","","","html-button-response","17","2.0.0","171660","6700d6aca79c6b2534f6292c","1","37","2528","","","","","","","","","<img src= ""rock_img/I_Pegmatite_03.jpg"" style=""width:8cm; height:5.239999999999999cm;""><p>What type of rock is this?</p>","4","class_response","0","test","6","Obsidian","Pegmatite","03","false","5","6","",""
"","","","","","","","","","","","html-keyboard-response","18","2.0.0","172170","6700d6aca79c6b2534f6292c","1","37","null","","","","","","","","","<p style='font-size: 30px;'><strong>Okay</strong></p>","null","neutral_feedback","0","test","6","","","","","","","",""
"","","","","","","","","","","","html-button-response","19","2.0.0","175644","6700d6aca79c6b2534f6292c","1","37","3472","","","","","","","","","<img src= ""rock_img/I_Basalt_14.jpg"" style=""width:8cm; height:5.82cm;""><p>What type of rock is this?</p>","7","class_response","0","test","7","Pumice","Basalt","14","false","8","2","",""
"","","","","","","","","","","","html-keyboard-response","20","2.0.0","176159","6700d6aca79c6b2534f6292c","1","37","null","","","","","","","","","<p style='font-size: 30px;'><strong>Okay</strong></p>","null","neutral_feedback","0","test","7","","","","","","","",""
"","","","","","","","","","","","html-button-response","21","2.0.0","183078","6700d6aca79c6b2534f6292c","1","37","6916","","","","","","","","","<img src= ""rock_img/I_Peridotite_04.jpg"" style=""width:8cm; height:6.680000000000001cm;""><p>What type of rock is this?</p>","2","class_response","0","test","8","Diorite","Peridotite","04","false","3","7","",""
"","","","","","","","","","","","html-keyboard-response","22","2.0.0","183590","6700d6aca79c6b2534f6292c","1","37","null","","","","","","","","","<p style='font-size: 30px;'><strong>Okay</strong></p>","null","neutral_feedback","0","test","8","","","","","","","",""
"","","","","","","","","","","","html-button-response","23","2.0.0","186337","6700d6aca79c6b2534f6292c","1","37","2743","","","","","","","","","<img src= ""rock_img/I_Pegmatite_16.jpg"" style=""width:8cm; height:5.8cm;""><p>What type of rock is this?</p>","0","class_response","0","test","9","Andesite","Pegmatite","16","false","1","6","",""
"","","","","","","","","","","","html-keyboard-response","24","2.0.0","186850","6700d6aca79c6b2534f6292c","1","37","null","","","","","","","","","<p style='font-size: 30px;'><strong>Okay</strong></p>","null","neutral_feedback","0","test","9","","","","","","","",""
"","","","","","","","","","","","html-button-response","25","2.0.0","192873","6700d6aca79c6b2534f6292c","1","37","6020","","","","","","","","","<img src= ""rock_img/I_Andesite_03.jpg"" style=""width:8cm; height:5.73cm;""><p>What type of rock is this?</p>","2","class_response","0","test","10","Diorite","Andesite","03","false","3","1","",""
"","","","","","","","","","","","html-keyboard-response","26","2.0.0","193385","6700d6aca79c6b2534f6292c","1","37","null","","","","","","","","","<p style='font-size: 30px;'><strong>Okay</strong></p>","null","neutral_feedback","0","test","10","","","","","","","",""
"","","","","","","","","","","","html-button-response","27","2.0.0","195691","6700d6aca79c6b2534f6292c","1","37","2304","","","","","","","","","<img src= ""rock_img/I_Peridotite_08.jpg"" style=""width:8cm; height:6.7cm;""><p>What type of rock is this?</p>","7","class_response","0","test","11","Pumice","Peridotite","08","false","8","7","",""
"","","","","","","","","","","","html-keyboard-response","28","2.0.0","196202","6700d6aca79c6b2534f6292c","1","37","null","","","","","","","","","<p style='font-size: 30px;'><strong>Okay</strong></p>","null","neutral_feedback","0","test","11","","","","","","","",""
"","","","","","","","","","","","html-button-response","29","2.0.0","199839","6700d6aca79c6b2534f6292c","1","37","3633","","","","","","","","","<img src= ""rock_img/I_Pumice_16.jpg"" style=""width:8cm; height:6.79cm;""><p>What type of rock is this?</p>","2","class_response","0","test","12","Diorite","Pumice","16","false","3","8","",""
"","","","","","","","","","","","html-keyboard-response","30","2.0.0","200350","6700d6aca79c6b2534f6292c","1","37","null","","","","","","","","","<p style='font-size: 30px;'><strong>Okay</strong></p>","null","neutral_feedback","0","test","12","","","","","","","",""
"","","","","","","","","","","","html-button-response","31","2.0.0","222776","6700d6aca79c6b2534f6292c","1","37","22423","","","","","","","","","<img src= ""rock_img/I_Basalt_08.jpg"" style=""width:8cm; height:10.44cm;""><p>What type of rock is this?</p>","2","class_response","0","test","13","Diorite","Basalt","08","false","3","2","",""
"","","","","","","","","","","","html-keyboard-response","32","2.0.0","223285","6700d6aca79c6b2534f6292c","1","37","null","","","","","","","","","<p style='font-size: 30px;'><strong>Okay</strong></p>","null","neutral_feedback","0","test","13","","","","","","","",""
"","","","","","","","","","","","html-button-response","33","2.0.0","226747","6700d6aca79c6b2534f6292c","1","37","3457","","","","","","","","","<img src= ""rock_img/I_Pegmatite_07.jpg"" style=""width:8cm; height:6.7cm;""><p>What type of rock is this?</p>","5","class_response","0","test","14","Pegmatite","Pegmatite","07","true","6","6","",""
"","","","","","","","","","","","html-keyboard-response","34","2.0.0","227259","6700d6aca79c6b2534f6292c","1","37","null","","","","","","","","","<p style='font-size: 30px;'><strong>Okay</strong></p>","null","neutral_feedback","0","test","14","","","","","","","",""
"","","","","","","","","","","","html-button-response","35","2.0.0","229049","6700d6aca79c6b2534f6292c","1","37","1786","","","","","","","","","<img src= ""rock_img/I_Pegmatite_13.jpg"" style=""width:8cm; height:4.95cm;""><p>What type of rock is this?</p>","5","class_response","0","test","15","Pegmatite","Pegmatite","13","true","6","6","",""
"","","","","","","","","","","","html-keyboard-response","36","2.0.0","229559","6700d6aca79c6b2534f6292c","1","37","null","","","","","","","","","<p style='font-size: 30px;'><strong>Okay</strong></p>","null","neutral_feedback","0","test","15","","","","","","","",""
"","","","","","","","","","","","html-button-response","37","2.0.0","233078","6700d6aca79c6b2534f6292c","1","37","3515","","","","","","","","","<img src= ""rock_img/I_Basalt_12.jpg"" style=""width:8cm; height:6.010000000000001cm;""><p>What type of rock is this?</p>","3","class_response","0","test","16","Gabbro","Basalt","12","false","4","2","",""
"","","","","","","","","","","","html-keyboard-response","38","2.0.0","233580","6700d6aca79c6b2534f6292c","1","37","null","","","","","","","","","<p style='font-size: 30px;'><strong>Okay</strong></p>","null","neutral_feedback","0","test","16","","","","","","","",""
"","","","","","","","","","","","html-button-response","39","2.0.0","278107","6700d6aca79c6b2534f6292c","1","37","44524","","","","","","","","","<img src= ""rock_img/I_Diorite_16.jpg"" style=""width:8cm; height:6.74cm;""><p>What type of rock is this?</p>","2","class_response","0","test","17","Diorite","Diorite","16","true","3","3","",""
"","","","","","","","","","","","html-keyboard-response","40","2.0.0","278618","6700d6aca79c6b2534f6292c","1","37","null","","","","","","","","","<p style='font-size: 30px;'><strong>Okay</strong></p>","null","neutral_feedback","0","test","17","","","","","","","",""
"","","","","","","","","","","","html-button-response","41","2.0.0","397629","6700d6aca79c6b2534f6292c","1","37","119007","","","","","","","","","<img src= ""rock_img/I_Gabbro_15.jpg"" style=""width:8cm; height:6.29cm;""><p>What type of rock is this?</p>","6","class_response","0","test","18","Peridotite","Gabbro","15","false","7","4","",""
"","","","","","","","","","","","html-keyboard-response","42","2.0.0","398132","6700d6aca79c6b2534f6292c","1","37","null","","","","","","","","","<p style='font-size: 30px;'><strong>Okay</strong></p>","null","neutral_feedback","0","test","18","","","","","","","",""
"","","","","","","","","","","","html-button-response","43","2.0.0","415642","6700d6aca79c6b2534f6292c","1","37","17507","","","","","","","","","<img src= ""rock_img/I_Peridotite_13.jpg"" style=""width:8cm; height:7.58cm;""><p>What type of rock is this?</p>","6","class_response","0","test","19","Peridotite","Peridotite","13","true","7","7","",""
"","","","","","","","","","","","html-keyboard-response","44","2.0.0","416154","6700d6aca79c6b2534f6292c","1","37","null","","","","","","","","","<p style='font-size: 30px;'><strong>Okay</strong></p>","null","neutral_feedback","0","test","19","","","","","","","",""
"","","","","","","","","","","","html-button-response","45","2.0.0","436419","6700d6aca79c6b2534f6292c","1","37","20261","","","","","","","","","<img src= ""rock_img/I_Peridotite_07.jpg"" style=""width:8cm; height:4.83cm;""><p>What type of rock is this?</p>","3","class_response","0","test","20","Gabbro","Peridotite","07","false","4","7","",""
"","","","","","","","","","","","html-keyboard-response","46","2.0.0","436927","6700d6aca79c6b2534f6292c","1","37","null","","","","","","","","","<p style='font-size: 30px;'><strong>Okay</strong></p>","null","neutral_feedback","0","test","20","","","","","","","",""
"","","","","","","","","","","","html-button-response","47","2.0.0","481679","6700d6aca79c6b2534f6292c","1","37","44749","","","","","","","","","<img src= ""rock_img/I_Diorite_12.jpg"" style=""width:8cm; height:4.88cm;""><p>What type of rock is this?</p>","1","class_response","0","test","21","Basalt","Diorite","12","false","2","3","",""
"","","","","","","","","","","","html-keyboard-response","48","2.0.0","482191","6700d6aca79c6b2534f6292c","1","37","null","","","","","","","","","<p style='font-size: 30px;'><strong>Okay</strong></p>","null","neutral_feedback","0","test","21","","","","","","","",""
"","","","","","","","","","","","html-button-response","49","2.0.0","497780","6700d6aca79c6b2534f6292c","1","37","15587","","","","","","","","","<img src= ""rock_img/I_Pumice_13.jpg"" style=""width:8cm; height:8.200000000000001cm;""><p>What type of rock is this?</p>","7","class_response","0","test","22","Pumice","Pumice","13","true","8","8","",""
"","","","","","","","","","","","html-keyboard-response","50","2.0.0","498283","6700d6aca79c6b2534f6292c","1","37","null","","","","","","","","","<p style='font-size: 30px;'><strong>Okay</strong></p>","null","neutral_feedback","0","test","22","","","","","","","",""
"","","","","","","","","","","","html-button-response","51","2.0.0","524955","6700d6aca79c6b2534f6292c","1","37","26669","","","","","","","","","<img src= ""rock_img/I_Andesite_05.jpg"" style=""width:8cm; height:4.12cm;""><p>What type of rock is this?</p>","3","class_response","0","test","23","Gabbro","Andesite","05","false","4","1","",""
"","","","","","","","","","","","html-keyboard-response","52","2.0.0","525457","6700d6aca79c6b2534f6292c","1","37","null","","","","","","","","","<p style='font-size: 30px;'><strong>Okay</strong></p>","null","neutral_feedback","0","test","23","","","","","","","",""
"","","","","","","","","","","","html-button-response","53","2.0.0","529377","6700d6aca79c6b2534f6292c","1","37","3916","","","","","","","","","<img src= ""rock_img/I_Obsidian_04.jpg"" style=""width:8cm; height:6.930000000000001cm;""><p>What type of rock is this?</p>","4","class_response","0","test","24","Obsidian","Obsidian","04","true","5","5","",""
"","","","","","","","","","","","html-keyboard-response","54","2.0.0","529879","6700d6aca79c6b2534f6292c","1","37","null","","","","","","","","","<p style='font-size: 30px;'><strong>Okay</strong></p>","null","neutral_feedback","0","test","24","","","","","","","",""
"","","","","","","","","","","","html-button-response","55","2.0.0","531921","6700d6aca79c6b2534f6292c","1","37","2039","","","","","","","","","<img src= ""rock_img/I_Obsidian_07.jpg"" style=""width:8cm; height:4.76cm;""><p>What type of rock is this?</p>","4","class_response","0","test","25","Obsidian","Obsidian","07","true","5","5","",""
"","","","","","","","","","","","html-keyboard-response","56","2.0.0","532433","6700d6aca79c6b2534f6292c","1","37","null","","","","","","","","","<p style='font-size: 30px;'><strong>Okay</strong></p>","null","neutral_feedback","0","test","25","","","","","","","",""
"","","","","","","","","","","","html-button-response","57","2.0.0","535098","6700d6aca79c6b2534f6292c","1","37","2661","","","","","","","","","<img src= ""rock_img/I_Gabbro_10.jpg"" style=""width:8cm; height:5.680000000000001cm;""><p>What type of rock is this?</p>","1","class_response","0","test","26","Basalt","Gabbro","10","false","2","4","",""
"","","","","","","","","","","","html-keyboard-response","58","2.0.0","535611","6700d6aca79c6b2534f6292c","1","37","null","","","","","","","","","<p style='font-size: 30px;'><strong>Okay</strong></p>","null","neutral_feedback","0","test","26","","","","","","","",""
"","","","","","","","","","","","html-button-response","59","2.0.0","537016","6700d6aca79c6b2534f6292c","1","37","1400","","","","","","","","","<img src= ""rock_img/I_Gabbro_05.jpg"" style=""width:8cm; height:6cm;""><p>What type of rock is this?</p>","1","class_response","0","test","27","Basalt","Gabbro","05","false","2","4","",""
"","","","","","","","","","","","html-keyboard-response","60","2.0.0","537528","6700d6aca79c6b2534f6292c","1","37","null","","","","","","","","","<p style='font-size: 30px;'><strong>Okay</strong></p>","null","neutral_feedback","0","test","27","","","","","","","",""
"","","","","","","","","","","","html-button-response","61","2.0.0","539688","6700d6aca79c6b2534f6292c","1","37","2156","","","","","","","","","<img src= ""rock_img/I_Diorite_06.jpg"" style=""width:8cm; height:6.03cm;""><p>What type of rock is this?</p>","6","class_response","0","test","28","Peridotite","Diorite","06","false","7","3","",""
"","","","","","","","","","","","html-keyboard-response","62","2.0.0","540197","6700d6aca79c6b2534f6292c","1","37","null","","","","","","","","","<p style='font-size: 30px;'><strong>Okay</strong></p>","null","neutral_feedback","0","test","28","","","","","","","",""
"","","","","","","","","","","","html-button-response","63","2.0.0","542670","6700d6aca79c6b2534f6292c","1","37","2469","","","","","","","","","<img src= ""rock_img/I_Basalt_11.jpg"" style=""width:8cm; height:5.359999999999999cm;""><p>What type of rock is this?</p>","3","class_response","0","test","29","Gabbro","Basalt","11","false","4","2","",""
"","","","","","","","","","","","html-keyboard-response","64","2.0.0","543177","6700d6aca79c6b2534f6292c","1","37","null","","","","","","","","","<p style='font-size: 30px;'><strong>Okay</strong></p>","null","neutral_feedback","0","test","29","","","","","","","",""
"","","","","","","","","","","","html-button-response","65","2.0.0","545625","6700d6aca79c6b2534f6292c","1","37","2444","","","","","","","","","<img src= ""rock_img/I_Obsidian_16.jpg"" style=""width:8cm; height:9.3cm;""><p>What type of rock is this?</p>","4","class_response","0","test","30","Obsidian","Obsidian","16","true","5","5","",""
"","","","","","","","","","","","html-keyboard-response","66","2.0.0","546135","6700d6aca79c6b2534f6292c","1","37","null","","","","","","","","","<p style='font-size: 30px;'><strong>Okay</strong></p>","null","neutral_feedback","0","test","30","","","","","","","",""
"","","","","","","","","","","","html-button-response","67","2.0.0","547991","6700d6aca79c6b2534f6292c","1","37","1853","","","","","","","","","<img src= ""rock_img/I_Andesite_06.jpg"" style=""width:8cm; height:6.840000000000001cm;""><p>What type of rock is this?</p>","2","class_response","0","test","31","Diorite","Andesite","06","false","3","1","",""
"","","","","","","","","","","","html-keyboard-response","68","2.0.0","548499","6700d6aca79c6b2534f6292c","1","37","null","","","","","","","","","<p style='font-size: 30px;'><strong>Okay</strong></p>","null","neutral_feedback","0","test","31","","","","","","","",""
"","","","","","","","","","","","html-button-response","69","2.0.0","550593","6700d6aca79c6b2534f6292c","1","37","2092","","","","","","","","","<img src= ""rock_img/I_Peridotite_14.jpg"" style=""width:8cm; height:5.3cm;""><p>What type of rock is this?</p>","6","class_response","0","test","32","Peridotite","Peridotite","14","true","7","7","",""
"","","","","","","","","","","","html-keyboard-response","70","2.0.0","551105","6700d6aca79c6b2534f6292c","1","37","null","","","","","","","","","<p style='font-size: 30px;'><strong>Okay</strong></p>","null","neutral_feedback","0","test","32","","","","","","","",""
"","","","","","","","","","","","html-button-response","71","2.0.0","553799","6700d6aca79c6b2534f6292c","1","37","2690","","","","","","","","","<img src= ""rock_img/I_Diorite_10.jpg"" style=""width:8cm; height:5.949999999999999cm;""><p>What type of rock is this?</p>","1","class_response","0","test","33","Basalt","Diorite","10","false","2","3","",""
"","","","","","","","","","","","html-keyboard-response","72","2.0.0","554314","6700d6aca79c6b2534f6292c","1","37","null","","","","","","","","","<p style='font-size: 30px;'><strong>Okay</strong></p>","null","neutral_feedback","0","test","33","","","","","","","",""
"","","","","","","","","","","","html-button-response","73","2.0.0","558288","6700d6aca79c6b2534f6292c","1","37","3970","","","","","","","","","<img src= ""rock_img/I_Gabbro_11.jpg"" style=""width:8cm; height:6.2cm;""><p>What type of rock is this?</p>","1","class_response","0","test","34","Basalt","Gabbro","11","false","2","4","",""
"","","","","","","","","","","","html-keyboard-response","74","2.0.0","558793","6700d6aca79c6b2534f6292c","1","37","null","","","","","","","","","<p style='font-size: 30px;'><strong>Okay</strong></p>","null","neutral_feedback","0","test","34","","","","","","","",""
"","","","","","","","","","","","html-button-response","75","2.0.0","559655","6700d6aca79c6b2534f6292c","1","37","859","","","","","","","","","<img src= ""rock_img/I_Diorite_13.jpg"" style=""width:8cm; height:6.29cm;""><p>What type of rock is this?</p>","2","class_response","0","test","35","Diorite","Diorite","13","true","3","3","",""
"","","","","","","","","","","","html-keyboard-response","76","2.0.0","560157","6700d6aca79c6b2534f6292c","1","37","null","","","","","","","","","<p style='font-size: 30px;'><strong>Okay</strong></p>","null","neutral_feedback","0","test","35","","","","","","","",""
"","","","","","","","","","","","html-button-response","77","2.0.0","561078","6700d6aca79c6b2534f6292c","1","37","918","","","","","","","","","<img src= ""rock_img/I_Gabbro_16.jpg"" style=""width:8cm; height:6.44cm;""><p>What type of rock is this?</p>","5","class_response","0","test","36","Pegmatite","Gabbro","16","false","6","4","",""
"","","","","","","","","","","","html-keyboard-response","78","2.0.0","561587","6700d6aca79c6b2534f6292c","1","37","null","","","","","","","","","<p style='font-size: 30px;'><strong>Okay</strong></p>","null","neutral_feedback","0","test","36","","","","","","","",""
"","","","","","","","","","","","html-button-response","79","2.0.0","562498","6700d6aca79c6b2534f6292c","1","37","908","","","","","","","","","<img src= ""rock_img/I_Gabbro_12.jpg"" style=""width:8cm; height:7.800000000000001cm;""><p>What type of rock is this?</p>","2","class_response","0","test","37","Diorite","Gabbro","12","false","3","4","",""
"","","","","","","","","","","","html-keyboard-response","80","2.0.0","563001","6700d6aca79c6b2534f6292c","1","37","null","","","","","","","","","<p style='font-size: 30px;'><strong>Okay</strong></p>","null","neutral_feedback","0","test","37","","","","","","","",""
"","","","","","","","","","","","html-button-response","81","2.0.0","563786","6700d6aca79c6b2534f6292c","1","37","780","","","","","","","","","<img src= ""rock_img/I_Pumice_04.jpg"" style=""width:8cm; height:6.819999999999999cm;""><p>What type of rock is this?</p>","7","class_response","0","test","38","Pumice","Pumice","04","true","8","8","",""
"","","","","","","","","","","","html-keyboard-response","82","2.0.0","564289","6700d6aca79c6b2534f6292c","1","37","null","","","","","","","","","<p style='font-size: 30px;'><strong>Okay</strong></p>","null","neutral_feedback","0","test","38","","","","","","","",""
"","","","","","","","","","","","html-button-response","83","2.0.0","565157","6700d6aca79c6b2534f6292c","1","37","866","","","","","","","","","<img src= ""rock_img/I_Pumice_10.jpg"" style=""width:8cm; height:7.609999999999999cm;""><p>What type of rock is this?</p>","1","class_response","0","test","39","Basalt","Pumice","10","false","2","8","",""
"","","","","","","","","","","","html-keyboard-response","84","2.0.0","565658","6700d6aca79c6b2534f6292c","1","37","null","","","","","","","","","<p style='font-size: 30px;'><strong>Okay</strong></p>","null","neutral_feedback","0","test","39","","","","","","","",""
"","","","","","","","","","","","html-button-response","85","2.0.0","567447","6700d6aca79c6b2534f6292c","1","37","1785","","","","","","","","","<img src= ""rock_img/I_Obsidian_14.jpg"" style=""width:8cm; height:7.64cm;""><p>What type of rock is this?</p>","4","class_response","0","test","40","Obsidian","Obsidian","14","true","5","5","",""
"","","","","","","","","","","","html-keyboard-response","86","2.0.0","567950","6700d6aca79c6b2534f6292c","1","37","null","","","","","","","","","<p style='font-size: 30px;'><strong>Okay</strong></p>","null","neutral_feedback","0","test","40","","","","","","","",""
"","","","","","","","","","","","html-button-response","87","2.0.0","569107","6700d6aca79c6b2534f6292c","1","37","1155","","","","","","","","","<img src= ""rock_img/I_Pumice_05.jpg"" style=""width:8cm; height:7.25cm;""><p>What type of rock is this?</p>","2","class_response","0","test","41","Diorite","Pumice","05","false","3","8","",""
"","","","","","","","","","","","html-keyboard-response","88","2.0.0","569610","6700d6aca79c6b2534f6292c","1","37","null","","","","","","","","","<p style='font-size: 30px;'><strong>Okay</strong></p>","null","neutral_feedback","0","test","41","","","","","","","",""
"","","","","","","","","","","","html-button-response","89","2.0.0","575350","6700d6aca79c6b2534f6292c","1","37","5736","","","","","","","","","<img src= ""rock_img/I_Pumice_15.jpg"" style=""width:8cm; height:7.86cm;""><p>What type of rock is this?</p>","2","class_response","0","test","42","Diorite","Pumice","15","false","3","8","",""
"","","","","","","","","","","","html-keyboard-response","90","2.0.0","575863","6700d6aca79c6b2534f6292c","1","37","null","","","","","","","","","<p style='font-size: 30px;'><strong>Okay</strong></p>","null","neutral_feedback","0","test","42","","","","","","","",""
"","","","","","","","","","","","html-button-response","91","2.0.0","578017","6700d6aca79c6b2534f6292c","1","37","2150","","","","","","","","","<img src= ""rock_img/I_Basalt_06.jpg"" style=""width:8cm; height:7.06cm;""><p>What type of rock is this?</p>","0","class_response","0","test","43","Andesite","Basalt","06","false","1","2","",""
"","","","","","","","","","","","html-keyboard-response","92","2.0.0","578519","6700d6aca79c6b2534f6292c","1","37","null","","","","","","","","","<p style='font-size: 30px;'><strong>Okay</strong></p>","null","neutral_feedback","0","test","43","","","","","","","",""
"","","","","","","","","","","","html-button-response","93","2.0.0","581378","6700d6aca79c6b2534f6292c","1","37","2856","","","","","","","","","<img src= ""rock_img/I_Pegmatite_08.jpg"" style=""width:8cm; height:7.68cm;""><p>What type of rock is this?</p>","3","class_response","0","test","44","Gabbro","Pegmatite","08","false","4","6","",""
"","","","","","","","","","","","html-keyboard-response","94","2.0.0","581886","6700d6aca79c6b2534f6292c","1","37","null","","","","","","","","","<p style='font-size: 30px;'><strong>Okay</strong></p>","null","neutral_feedback","0","test","44","","","","","","","",""
"","","","","","","","","","","","html-button-response","95","2.0.0","583868","6700d6aca79c6b2534f6292c","1","37","1980","","","","","","","","","<img src= ""rock_img/I_Peridotite_06.jpg"" style=""width:8cm; height:7.53cm;""><p>What type of rock is this?</p>","7","class_response","0","test","45","Pumice","Peridotite","06","false","8","7","",""
"","","","","","","","","","","","html-keyboard-response","96","2.0.0","584379","6700d6aca79c6b2534f6292c","1","37","null","","","","","","","","","<p style='font-size: 30px;'><strong>Okay</strong></p>","null","neutral_feedback","0","test","45","","","","","","","",""
"","","","","","","","","","","","html-button-response","97","2.0.0","585814","6700d6aca79c6b2534f6292c","1","37","1433","","","","","","","","","<img src= ""rock_img/I_Andesite_16.jpg"" style=""width:8cm; height:6.010000000000001cm;""><p>What type of rock is this?</p>","1","class_response","0","test","46","Basalt","Andesite","16","false","2","1","",""
"","","","","","","","","","","","html-keyboard-response","98","2.0.0","586322","6700d6aca79c6b2534f6292c","1","37","null","","","","","","","","","<p style='font-size: 30px;'><strong>Okay</strong></p>","null","neutral_feedback","0","test","46","","","","","","","",""
"","","","","","","","","","","","html-button-response","99","2.0.0","588089","6700d6aca79c6b2534f6292c","1","37","1764","","","","","","","","","<img src= ""rock_img/I_Obsidian_12.jpg"" style=""width:8cm; height:6.53cm;""><p>What type of rock is this?</p>","4","class_response","0","test","47","Obsidian","Obsidian","12","true","5","5","",""
"","","","","","","","","","","","html-keyboard-response","100","2.0.0","588592","6700d6aca79c6b2534f6292c","1","37","null","","","","","","","","","<p style='font-size: 30px;'><strong>Okay</strong></p>","null","neutral_feedback","0","test","47","","","","","","","",""
"","","","","","","","","","","","html-button-response","101","2.0.0","590066","6700d6aca79c6b2534f6292c","1","37","1472","","","","","","","","","<img src= ""rock_img/I_Basalt_09.jpg"" style=""width:8cm; height:6.2cm;""><p>What type of rock is this?</p>","2","class_response","0","test","48","Diorite","Basalt","09","false","3","2","",""
"","","","","","","","","","","","html-keyboard-response","102","2.0.0","590569","6700d6aca79c6b2534f6292c","1","37","null","","","","","","","","","<p style='font-size: 30px;'><strong>Okay</strong></p>","null","neutral_feedback","0","test","48","","","","","","","",""
"","","","","","","","","","","","instructions","103","2.0.0","604087","6700d6aca79c6b2534f6292c","1","37","13464","","","","","","","","[{""page_index"":0,""viewing_time"":4499},{""page_index"":1,""viewing_time"":3906},{""page_index"":2,""viewing_time"":5060}]","","","","","","","","","","","","","",""
"","","","","","","","","","","","html-button-response","104","2.0.0","606140","6700d6aca79c6b2534f6292c","1","37","2050","","","","","","","","","","0","start_train","","","","","","","","","","",""
"","","","","","","","","","","","html-button-response","105","2.0.0","615247","6700d6aca79c6b2534f6292c","1","37","9103","","","","","","","","","<img src= ""rock_img/I_Basalt_01.jpg"" style=""width:8cm; height:7.880000000000001cm;""><p>What type of rock is this?</p>","2","class_response","1","train","1","Diorite","Basalt","01","false","3","2","",""
"","","","","","","","","","","","html-button-response","106","2.0.0","620416","6700d6aca79c6b2534f6292c","1","37","5165","","","","","","","","","<img src= rock_img/I_Basalt_01.jpg style=""width:8cm; height:7.880000000000001cm;""><p style='font-size: 30px; color: red;'><strong>Incorrect!</strong></p><p style='font-size: 30px;'><strong>This rock is basalt</strong></p>","0","corr_feedback","1","train","1","","","","","","","",""
"","","","","","","","","","","","html-button-response","107","2.0.0","623926","6700d6aca79c6b2534f6292c","1","37","3507","","","","","","","","","<img src= ""rock_img/I_Pegmatite_05.jpg"" style=""width:8cm; height:7.300000000000001cm;""><p>What type of rock is this?</p>","4","class_response","1","train","2","Obsidian","Pegmatite","05","false","5","6","",""
"","","","","","","","","","","","html-button-response","108","2.0.0","627023","6700d6aca79c6b2534f6292c","1","37","3094","","","","","","","","","<img src= rock_img/I_Pegmatite_05.jpg style=""width:8cm; height:7.300000000000001cm;""><p style='font-size: 30px; color: red;'><strong>Incorrect!</strong></p><p style='font-size: 30px;'><strong>This rock is pegmatite</strong></p>","0","corr_feedback","1","train","2","","","","","","","",""
"","","","","","","","","","","","html-button-response","109","2.0.0","628741","6700d6aca79c6b2534f6292c","1","37","1716","","","","","","","","","<img src= ""rock_img/I_Diorite_08.jpg"" style=""width:8cm; height:6.37cm;""><p>What type of rock is this?</p>","1","class_response","1","train","3","Basalt","Diorite","08","false","2","3","",""
"","","","","","","","","","","","html-button-response","110","2.0.0","631521","6700d6aca79c6b2534f6292c","1","37","2778","","","","","","","","","<img src= rock_img/I_Diorite_08.jpg style=""width:8cm; height:6.37cm;""><p style='font-size: 30px; color: red;'><strong>Incorrect!</strong></p><p style='font-size: 30px;'><strong>This rock is diorite</strong></p>","0","corr_feedback","1","train","3","","","","","","","",""
"","","","","","","","","","","","html-button-response","111","2.0.0","632808","6700d6aca79c6b2534f6292c","1","37","1283","","","","","","","","","<img src= ""rock_img/I_Pegmatite_15.jpg"" style=""width:8cm; height:6cm;""><p>What type of rock is this?</p>","0","class_response","1","train","4","Andesite","Pegmatite","15","false","1","6","",""
"","","","","","","","","","","","html-button-response","112","2.0.0","635748","6700d6aca79c6b2534f6292c","1","37","2937","","","","","","","","","<img src= rock_img/I_Pegmatite_15.jpg style=""width:8cm; height:6cm;""><p style='font-size: 30px; color: red;'><strong>Incorrect!</strong></p><p style='font-size: 30px;'><strong>This rock is pegmatite</strong></p>","0","corr_feedback","1","train","4","","","","","","","",""
"","","","","","","","","","","","html-button-response","113","2.0.0","637507","6700d6aca79c6b2534f6292c","1","37","1756","","","","","","","","","<img src= ""rock_img/I_Obsidian_05.jpg"" style=""width:8cm; height:6.33cm;""><p>What type of rock is this?</p>","4","class_response","1","train","5","Obsidian","Obsidian","05","true","5","5","",""
"","","","","","","","","","","","html-button-response","114","2.0.0","643523","6700d6aca79c6b2534f6292c","1","37","6014","","","","","","","","","<img src= rock_img/I_Obsidian_05.jpg style=""width:8cm; height:6.33cm;""><p style='font-size: 30px; color: green;'><strong>Correct!</strong></p><p style='font-size: 30px;'><strong>This rock is obsidian</strong></p>","0","corr_feedback","1","train","5","","","","","","","",""
"","","","","","","","","","","","html-button-response","115","2.0.0","645267","6700d6aca79c6b2534f6292c","1","37","1739","","","","","","","","","<img src= ""rock_img/I_Diorite_11.jpg"" style=""width:8cm; height:7.11cm;""><p>What type of rock is this?</p>","5","class_response","1","train","6","Pegmatite","Diorite","11","false","6","3","",""
"","","","","","","","","","","","html-button-response","116","2.0.0","648175","6700d6aca79c6b2534f6292c","1","37","2904","","","","","","","","","<img src= rock_img/I_Diorite_11.jpg style=""width:8cm; height:7.11cm;""><p style='font-size: 30px; color: red;'><strong>Incorrect!</strong></p><p style='font-size: 30px;'><strong>This rock is diorite</strong></p>","0","corr_feedback","1","train","6","","","","","","","",""
"","","","","","","","","","","","html-button-response","117","2.0.0","649439","6700d6aca79c6b2534f6292c","1","37","1261","","","","","","","","","<img src= ""rock_img/I_Gabbro_09.jpg"" style=""width:8cm; height:7.279999999999999cm;""><p>What type of rock is this?</p>","1","class_response","1","train","7","Basalt","Gabbro","09","false","2","4","",""
"","","","","","","","","","","","html-button-response","118","2.0.0","652177","6700d6aca79c6b2534f6292c","1","37","2736","","","","","","","","","<img src= rock_img/I_Gabbro_09.jpg style=""width:8cm; height:7.279999999999999cm;""><p style='font-size: 30px; color: red;'><strong>Incorrect!</strong></p><p style='font-size: 30px;'><strong>This rock is gabbro</strong></p>","0","corr_feedback","1","train","7","","","","","","","",""
"","","","","","","","","","","","html-button-response","119","2.0.0","653927","6700d6aca79c6b2534f6292c","1","37","1747","","","","","","","","","<img src= ""rock_img/I_Gabbro_01.jpg"" style=""width:8cm; height:5.21cm;""><p>What type of rock is this?</p>","2","class_response","1","train","8","Diorite","Gabbro","01","false","3","4","",""
"","","","","","","","","","","","html-button-response","120","2.0.0","656493","6700d6aca79c6b2534f6292c","1","37","2564","","","","","","","","","<img src= rock_img/I_Gabbro_01.jpg style=""width:8cm; height:5.21cm;""><p style='font-size: 30px; color: red;'><strong>Incorrect!</strong></p><p style='font-size: 30px;'><strong>This rock is gabbro</strong></p>","0","corr_feedback","1","train","8","","","","","","","",""
"","","","","","","","","","","","html-button-response","121","2.0.0","658378","6700d6aca79c6b2534f6292c","1","37","1883","","","","","","","","","<img src= ""rock_img/I_Pumice_06.jpg"" style=""width:8cm; height:6.9399999999999995cm;""><p>What type of rock is this?</p>","6","class_response","1","train","9","Peridotite","Pumice","06","false","7","8","",""
"","","","","","","","","","","","html-button-response","122","2.0.0","661665","6700d6aca79c6b2534f6292c","1","37","3286","","","","","","","","","<img src= rock_img/I_Pumice_06.jpg style=""width:8cm; height:6.9399999999999995cm;""><p style='font-size: 30px; color: red;'><strong>Incorrect!</strong></p><p style='font-size: 30px;'><strong>This rock is pumice</strong></p>","0","corr_feedback","1","train","9","","","","","","","",""
"","","","","","","","","","","","html-button-response","123","2.0.0","663569","6700d6aca79c6b2534f6292c","1","37","1902","","","","","","","","","<img src= ""rock_img/I_Basalt_10.jpg"" style=""width:8cm; height:5.85cm;""><p>What type of rock is this?</p>","0","class_response","1","train","10","Andesite","Basalt","10","false","1","2","",""
"","","","","","","","","","","","html-button-response","124","2.0.0","666174","6700d6aca79c6b2534f6292c","1","37","2600","","","","","","","","","<img src= rock_img/I_Basalt_10.jpg style=""width:8cm; height:5.85cm;""><p style='font-size: 30px; color: red;'><strong>Incorrect!</strong></p><p style='font-size: 30px;'><strong>This rock is basalt</strong></p>","0","corr_feedback","1","train","10","","","","","","","",""
"","","","","","","","","","","","html-button-response","125","2.0.0","669897","6700d6aca79c6b2534f6292c","1","37","3719","","","","","","","","","<img src= ""rock_img/I_Peridotite_15.jpg"" style=""width:8cm; height:6cm;""><p>What type of rock is this?</p>","7","class_response","1","train","11","Pumice","Peridotite","15","false","8","7","",""
"","","","","","","","","","","","html-button-response","126","2.0.0","672333","6700d6aca79c6b2534f6292c","1","37","2433","","","","","","","","","<img src= rock_img/I_Peridotite_15.jpg style=""width:8cm; height:6cm;""><p style='font-size: 30px; color: red;'><strong>Incorrect!</strong></p><p style='font-size: 30px;'><strong>This rock is peridotite</strong></p>","0","corr_feedback","1","train","11","","","","","","","",""
"","","","","","","","","","","","html-button-response","127","2.0.0","673658","6700d6aca79c6b2534f6292c","1","37","1322","","","","","","","","","<img src= ""rock_img/I_Andesite_07.jpg"" style=""width:8cm; height:5.93cm;""><p>What type of rock is this?</p>","5","class_response","1","train","12","Pegmatite","Andesite","07","false","6","1","",""
"","","","","","","","","","","","html-button-response","128","2.0.0","675890","6700d6aca79c6b2534f6292c","1","37","2230","","","","","","","","","<img src= rock_img/I_Andesite_07.jpg style=""width:8cm; height:5.93cm;""><p style='font-size: 30px; color: red;'><strong>Incorrect!</strong></p><p style='font-size: 30px;'><strong>This rock is andesite</strong></p>","0","corr_feedback","1","train","12","","","","","","","",""
"","","","","","","","","","","","html-button-response","129","2.0.0","678346","6700d6aca79c6b2534f6292c","1","37","2454","","","","","","","","","<img src= ""rock_img/I_Pumice_09.jpg"" style=""width:8cm; height:6.44cm;""><p>What type of rock is this?</p>","1","class_response","1","train","13","Basalt","Pumice","09","false","2","8","",""
"","","","","","","","","","","","html-button-response","130","2.0.0","680789","6700d6aca79c6b2534f6292c","1","37","2441","","","","","","","","","<img src= rock_img/I_Pumice_09.jpg style=""width:8cm; height:6.44cm;""><p style='font-size: 30px; color: red;'><strong>Incorrect!</strong></p><p style='font-size: 30px;'><strong>This rock is pumice</strong></p>","0","corr_feedback","1","train","13","","","","","","","",""
"","","","","","","","","","","","html-button-response","131","2.0.0","682711","6700d6aca79c6b2534f6292c","1","37","1919","","","","","","","","","<img src= ""rock_img/I_Basalt_02.jpg"" style=""width:8cm; height:6.45cm;""><p>What type of rock is this?</p>","1","class_response","1","train","14","Basalt","Basalt","02","true","2","2","",""
"","","","","","","","","","","","html-button-response","132","2.0.0","685128","6700d6aca79c6b2534f6292c","1","37","2415","","","","","","","","","<img src= rock_img/I_Basalt_02.jpg style=""width:8cm; height:6.45cm;""><p style='font-size: 30px; color: green;'><strong>Correct!</strong></p><p style='font-size: 30px;'><strong>This rock is basalt</strong></p>","0","corr_feedback","1","train","14","","","","","","","",""
"","","","","","","","","","","","html-button-response","133","2.0.0","687260","6700d6aca79c6b2534f6292c","1","37","2130","","","","","","","","","<img src= ""rock_img/I_Obsidian_02.jpg"" style=""width:8cm; height:7.51cm;""><p>What type of rock is this?</p>","4","class_response","1","train","15","Obsidian","Obsidian","02","true","5","5","",""
"","","","","","","","","","","","html-button-response","134","2.0.0","689781","6700d6aca79c6b2534f6292c","1","37","2519","","","","","","","","","<img src= rock_img/I_Obsidian_02.jpg style=""width:8cm; height:7.51cm;""><p style='font-size: 30px; color: green;'><strong>Correct!</strong></p><p style='font-size: 30px;'><strong>This rock is obsidian</strong></p>","0","corr_feedback","1","train","15","","","","","","","",""
"","","","","","","","","","","","html-button-response","135","2.0.0","691997","6700d6aca79c6b2534f6292c","1","37","2213","","","","","","","","","<img src= ""rock_img/I_Pumice_02.jpg"" style=""width:8cm; height:7.3999999999999995cm;""><p>What type of rock is this?</p>","7","class_response","1","train","16","Pumice","Pumice","02","true","8","8","",""
"","","","","","","","","","","","html-button-response","136","2.0.0","694566","6700d6aca79c6b2534f6292c","1","37","2567","","","","","","","","","<img src= rock_img/I_Pumice_02.jpg style=""width:8cm; height:7.3999999999999995cm;""><p style='font-size: 30px; color: green;'><strong>Correct!</strong></p><p style='font-size: 30px;'><strong>This rock is pumice</strong></p>","0","corr_feedback","1","train","16","","","","","","","",""
"","","","","","","","","","","","html-button-response","137","2.0.0","696240","6700d6aca79c6b2534f6292c","1","37","1672","","","","","","","","","<img src= ""rock_img/I_Andesite_09.jpg"" style=""width:8cm; height:6cm;""><p>What type of rock is this?</p>","6","class_response","1","train","17","Peridotite","Andesite","09","false","7","1","",""
"","","","","","","","","","","","html-button-response","138","2.0.0","698814","6700d6aca79c6b2534f6292c","1","37","2573","","","","","","","","","<img src= rock_img/I_Andesite_09.jpg style=""width:8cm; height:6cm;""><p style='font-size: 30px; color: red;'><strong>Incorrect!</strong></p><p style='font-size: 30px;'><strong>This rock is andesite</strong></p>","0","corr_feedback","1","train","17","","","","","","","",""
"","","","","","","","","","","","html-button-response","139","2.0.0","700790","6700d6aca79c6b2534f6292c","1","37","1974","","","","","","","","","<img src= ""rock_img/I_Diorite_09.jpg"" style=""width:8cm; height:5.27cm;""><p>What type of rock is this?</p>","0","class_response","1","train","18","Andesite","Diorite","09","false","1","3","",""
"","","","","","","","","","","","html-button-response","140","2.0.0","703314","6700d6aca79c6b2534f6292c","1","37","2522","","","","","","","","","<img src= rock_img/I_Diorite_09.jpg style=""width:8cm; height:5.27cm;""><p style='font-size: 30px; color: red;'><strong>Incorrect!</strong></p><p style='font-size: 30px;'><strong>This rock is diorite</strong></p>","0","corr_feedback","1","train","18","","","","","","","",""
"","","","","","","","","","","","html-button-response","141","2.0.0","705026","6700d6aca79c6b2534f6292c","1","37","1709","","","","","","","","","<img src= ""rock_img/I_Peridotite_12.jpg"" style=""width:8cm; height:4.54cm;""><p>What type of rock is this?</p>","2","class_response","1","train","19","Diorite","Peridotite","12","false","3","7","",""
"","","","","","","","","","","","html-button-response","142","2.0.0","707323","6700d6aca79c6b2534f6292c","1","37","2295","","","","","","","","","<img src= rock_img/I_Peridotite_12.jpg style=""width:8cm; height:4.54cm;""><p style='font-size: 30px; color: red;'><strong>Incorrect!</strong></p><p style='font-size: 30px;'><strong>This rock is peridotite</strong></p>","0","corr_feedback","1","train","19","","","","","","","",""
"","","","","","","","","","","","html-button-response","143","2.0.0","710468","6700d6aca79c6b2534f6292c","1","37","3141","","","","","","","","","<img src= ""rock_img/I_Peridotite_16.jpg"" style=""width:8cm; height:6.989999999999999cm;""><p>What type of rock is this?</p>","7","class_response","1","train","20","Pumice","Peridotite","16","false","8","7","",""
"","","","","","","","","","","","html-button-response","144","2.0.0","713084","6700d6aca79c6b2534f6292c","1","37","2613","","","","","","","","","<img src= rock_img/I_Peridotite_16.jpg style=""width:8cm; height:6.989999999999999cm;""><p style='font-size: 30px; color: red;'><strong>Incorrect!</strong></p><p style='font-size: 30px;'><strong>This rock is peridotite</strong></p>","0","corr_feedback","1","train","20","","","","","","","",""
"","","","","","","","","","","","html-button-response","145","2.0.0","714429","6700d6aca79c6b2534f6292c","1","37","1343","","","","","","","","","<img src= ""rock_img/I_Andesite_11.jpg"" style=""width:8cm; height:4.92cm;""><p>What type of rock is this?</p>","2","class_response","1","train","21","Diorite","Andesite","11","false","3","1","",""
"","","","","","","","","","","","html-button-response","146","2.0.0","716784","6700d6aca79c6b2534f6292c","1","37","2353","","","","","","","","","<img src= rock_img/I_Andesite_11.jpg style=""width:8cm; height:4.92cm;""><p style='font-size: 30px; color: red;'><strong>Incorrect!</strong></p><p style='font-size: 30px;'><strong>This rock is andesite</strong></p>","0","corr_feedback","1","train","21","","","","","","","",""
"","","","","","","","","","","","html-button-response","147","2.0.0","718267","6700d6aca79c6b2534f6292c","1","37","1482","","","","","","","","","<img src= ""rock_img/I_Peridotite_05.jpg"" style=""width:8cm; height:7.1499999999999995cm;""><p>What type of rock is this?</p>","3","class_response","1","train","22","Gabbro","Peridotite","05","false","4","7","",""
"","","","","","","","","","","","html-button-response","148","2.0.0","720795","6700d6aca79c6b2534f6292c","1","37","2526","","","","","","","","","<img src= rock_img/I_Peridotite_05.jpg style=""width:8cm; height:7.1499999999999995cm;""><p style='font-size: 30px; color: red;'><strong>Incorrect!</strong></p><p style='font-size: 30px;'><strong>This rock is peridotite</strong></p>","0","corr_feedback","1","train","22","","","","","","","",""
"","","","","","","","","","","","html-button-response","149","2.0.0","722369","6700d6aca79c6b2534f6292c","1","37","1571","","","","","","","","","<img src= ""rock_img/I_Basalt_05.jpg"" style=""width:8cm; height:8.18cm;""><p>What type of rock is this?</p>","1","class_response","1","train","23","Basalt","Basalt","05","true","2","2","",""
"","","","","","","","","","","","html-button-response","150","2.0.0","724851","6700d6aca79c6b2534f6292c","1","37","2481","","","","","","","","","<img src= rock_img/I_Basalt_05.jpg style=""width:8cm; height:8.18cm;""><p style='font-size: 30px; color: green;'><strong>Correct!</strong></p><p style='font-size: 30px;'><strong>This rock is basalt</strong></p>","0","corr_feedback","1","train","23","","","","","","","",""
"","","","","","","","","","","","html-button-response","151","2.0.0","727161","6700d6aca79c6b2534f6292c","1","37","2307","","","","","","","","","<img src= ""rock_img/I_Basalt_16.jpg"" style=""width:8cm; height:7.659999999999999cm;""><p>What type of rock is this?</p>","1","class_response","1","train","24","Basalt","Basalt","16","true","2","2","",""
"","","","","","","","","","","","html-button-response","152","2.0.0","729990","6700d6aca79c6b2534f6292c","1","37","2826","","","","","","","","","<img src= rock_img/I_Basalt_16.jpg style=""width:8cm; height:7.659999999999999cm;""><p style='font-size: 30px; color: green;'><strong>Correct!</strong></p><p style='font-size: 30px;'><strong>This rock is basalt</strong></p>","0","corr_feedback","1","train","24","","","","","","","",""
"","","","","","","","","","","","html-button-response","153","2.0.0","732083","6700d6aca79c6b2534f6292c","1","37","2091","","","","","","","","","<img src= ""rock_img/I_Diorite_07.jpg"" style=""width:8cm; height:5.239999999999999cm;""><p>What type of rock is this?</p>","7","class_response","1","train","25","Pumice","Diorite","07","false","8","3","",""
"","","","","","","","","","","","html-button-response","154","2.0.0","735063","6700d6aca79c6b2534f6292c","1","37","2978","","","","","","","","","<img src= rock_img/I_Diorite_07.jpg style=""width:8cm; height:5.239999999999999cm;""><p style='font-size: 30px; color: red;'><strong>Incorrect!</strong></p><p style='font-size: 30px;'><strong>This rock is diorite</strong></p>","0","corr_feedback","1","train","25","","","","","","","",""
"","","","","","","","","","","","html-button-response","155","2.0.0","737386","6700d6aca79c6b2534f6292c","1","37","2320","","","","","","","","","<img src= ""rock_img/I_Gabbro_14.jpg"" style=""width:8cm; height:8.48cm;""><p>What type of rock is this?</p>","1","class_response","1","train","26","Basalt","Gabbro","14","false","2","4","",""
"","","","","","","","","","","","html-button-response","156","2.0.0","740399","6700d6aca79c6b2534f6292c","1","37","3012","","","","","","","","","<img src= rock_img/I_Gabbro_14.jpg style=""width:8cm; height:8.48cm;""><p style='font-size: 30px; color: red;'><strong>Incorrect!</strong></p><p style='font-size: 30px;'><strong>This rock is gabbro</strong></p>","0","corr_feedback","1","train","26","","","","","","","",""
"","","","","","","","","","","","html-button-response","157","2.0.0","742101","6700d6aca79c6b2534f6292c","1","37","1697","","","","","","","","","<img src= ""rock_img/I_Obsidian_08.jpg"" style=""width:8cm; height:7.39cm;""><p>What type of rock is this?</p>","4","class_response","1","train","27","Obsidian","Obsidian","08","true","5","5","",""
"","","","","","","","","","","","html-button-response","158","2.0.0","744911","6700d6aca79c6b2534f6292c","1","37","2805","","","","","","","","","<img src= rock_img/I_Obsidian_08.jpg style=""width:8cm; height:7.39cm;""><p style='font-size: 30px; color: green;'><strong>Correct!</strong></p><p style='font-size: 30px;'><strong>This rock is obsidian</strong></p>","0","corr_feedback","1","train","27","","","","","","","",""
"","","","","","","","","","","","html-button-response","159","2.0.0","747253","6700d6aca79c6b2534f6292c","1","37","2337","","","","","","","","","<img src= ""rock_img/I_Pegmatite_10.jpg"" style=""width:8cm; height:4.16cm;""><p>What type of rock is this?</p>","5","class_response","1","train","28","Pegmatite","Pegmatite","10","true","6","6","",""
"","","","","","","","","","","","html-button-response","160","2.0.0","749884","6700d6aca79c6b2534f6292c","1","37","2630","","","","","","","","","<img src= rock_img/I_Pegmatite_10.jpg style=""width:8cm; height:4.16cm;""><p style='font-size: 30px; color: green;'><strong>Correct!</strong></p><p style='font-size: 30px;'><strong>This rock is pegmatite</strong></p>","0","corr_feedback","1","train","28","","","","","","","",""
"","","","","","","","","","","","html-button-response","161","2.0.0","751439","6700d6aca79c6b2534f6292c","1","37","1553","","","","","","","","","<img src= ""rock_img/I_Andesite_14.jpg"" style=""width:8cm; height:5.449999999999999cm;""><p>What type of rock is this?</p>","1","class_response","1","train","29","Basalt","Andesite","14","false","2","1","",""
"","","","","","","","","","","","html-button-response","162","2.0.0","753973","6700d6aca79c6b2534f6292c","1","37","2531","","","","","","","","","<img src= rock_img/I_Andesite_14.jpg style=""width:8cm; height:5.449999999999999cm;""><p style='font-size: 30px; color: red;'><strong>Incorrect!</strong></p><p style='font-size: 30px;'><strong>This rock is andesite</strong></p>","0","corr_feedback","1","train","29","","","","","","","",""
"","","","","","","","","","","","html-button-response","163","2.0.0","756824","6700d6aca79c6b2534f6292c","1","37","2848","","","","","","","","","<img src= ""rock_img/I_Pegmatite_11.jpg"" style=""width:8cm; height:8.14cm;""><p>What type of rock is this?</p>","3","class_response","1","train","30","Gabbro","Pegmatite","11","false","4","6","",""
"","","","","","","","","","","","html-button-response","164","2.0.0","760123","6700d6aca79c6b2534f6292c","1","37","3296","","","","","","","","","<img src= rock_img/I_Pegmatite_11.jpg style=""width:8cm; height:8.14cm;""><p style='font-size: 30px; color: red;'><strong>Incorrect!</strong></p><p style='font-size: 30px;'><strong>This rock is pegmatite</strong></p>","0","corr_feedback","1","train","30","","","","","","","",""
"","","","","","","","","","","","html-button-response","165","2.0.0","762856","6700d6aca79c6b2534f6292c","1","37","2729","","","","","","","","","<img src= ""rock_img/I_Andesite_01.jpg"" style=""width:8cm; height:5.87cm;""><p>What type of rock is this?</p>","0","class_response","1","train","31","Andesite","Andesite","01","true","1","1","",""
"","","","","","","","","","","","html-button-response","166","2.0.0","765027","6700d6aca79c6b2534f6292c","1","37","2167","","","","","","","","","<img src= rock_img/I_Andesite_01.jpg style=""width:8cm; height:5.87cm;""><p style='font-size: 30px; color: green;'><strong>Correct!</strong></p><p style='font-size: 30px;'><strong>This rock is andesite</strong></p>","0","corr_feedback","1","train","31","","","","","","","",""
"","","","","","","","","","","","html-button-response","167","2.0.0","767379","6700d6aca79c6b2534f6292c","1","37","2349","","","","","","","","","<img src= ""rock_img/I_Pegmatite_06.jpg"" style=""width:8cm; height:5.17cm;""><p>What type of rock is this?</p>","6","class_response","1","train","32","Peridotite","Pegmatite","06","false","7","6","",""
"","","","","","","","","","","","html-button-response","168","2.0.0","769806","6700d6aca79c6b2534f6292c","1","37","2425","","","","","","","","","<img src= rock_img/I_Pegmatite_06.jpg style=""width:8cm; height:5.17cm;""><p style='font-size: 30px; color: red;'><strong>Incorrect!</strong></p><p style='font-size: 30px;'><strong>This rock is pegmatite</strong></p>","0","corr_feedback","1","train","32","","","","","","","",""
"","","","","","","","","","","","html-button-response","169","2.0.0","771860","6700d6aca79c6b2534f6292c","1","37","2051","","","","","","","","","<img src= ""rock_img/I_Andesite_02.jpg"" style=""width:8cm; height:8.5cm;""><p>What type of rock is this?</p>","0","class_response","1","train","33","Andesite","Andesite","02","true","1","1","",""
"","","","","","","","","","","","html-button-response","170","2.0.0","775489","6700d6aca79c6b2534f6292c","1","37","3625","","","","","","","","","<img src= rock_img/I_Andesite_02.jpg style=""width:8cm; height:8.5cm;""><p style='font-size: 30px; color: green;'><strong>Correct!</strong></p><p style='font-size: 30px;'><strong>This rock is andesite</strong></p>","0","corr_feedback","1","train","33","","","","","","","",""
"","","","","","","","","","","","html-button-response","171","2.0.0","778029","6700d6aca79c6b2534f6292c","1","37","2538","","","","","","","","","<img src= ""rock_img/I_Pegmatite_12.jpg"" style=""width:8cm; height:5.7cm;""><p>What type of rock is this?</p>","0","class_response","1","train","34","Andesite","Pegmatite","12","false","1","6","",""
"","","","","","","","","","","","html-button-response","172","2.0.0","780300","6700d6aca79c6b2534f6292c","1","37","2268","","","","","","","","","<img src= rock_img/I_Pegmatite_12.jpg style=""width:8cm; height:5.7cm;""><p style='font-size: 30px; color: red;'><strong>Incorrect!</strong></p><p style='font-size: 30px;'><strong>This rock is pegmatite</strong></p>","0","corr_feedback","1","train","34","","","","","","","",""
"","","","","","","","","","","","html-button-response","173","2.0.0","782220","6700d6aca79c6b2534f6292c","1","37","1917","","","","","","","","","<img src= ""rock_img/I_Diorite_14.jpg"" style=""width:8cm; height:5.71cm;""><p>What type of rock is this?</p>","0","class_response","1","train","35","Andesite","Diorite","14","false","1","3","",""
"","","","","","","","","","","","html-button-response","174","2.0.0","784411","6700d6aca79c6b2534f6292c","1","37","2188","","","","","","","","","<img src= rock_img/I_Diorite_14.jpg style=""width:8cm; height:5.71cm;""><p style='font-size: 30px; color: red;'><strong>Incorrect!</strong></p><p style='font-size: 30px;'><strong>This rock is diorite</strong></p>","0","corr_feedback","1","train","35","","","","","","","",""
"","","","","","","","","","","","html-button-response","175","2.0.0","786262","6700d6aca79c6b2534f6292c","1","37","1848","","","","","","","","","<img src= ""rock_img/I_Obsidian_06.jpg"" style=""width:8cm; height:6.8cm;""><p>What type of rock is this?</p>","4","class_response","1","train","36","Obsidian","Obsidian","06","true","5","5","",""
"","","","","","","","","","","","html-button-response","176","2.0.0","788912","6700d6aca79c6b2534f6292c","1","37","2648","","","","","","","","","<img src= rock_img/I_Obsidian_06.jpg style=""width:8cm; height:6.8cm;""><p style='font-size: 30px; color: green;'><strong>Correct!</strong></p><p style='font-size: 30px;'><strong>This rock is obsidian</strong></p>","0","corr_feedback","1","train","36","","","","","","","",""
"","","","","","","","","","","","html-button-response","177","2.0.0","791576","6700d6aca79c6b2534f6292c","1","37","2662","","","","","","","","","<img src= ""rock_img/I_Peridotite_02.jpg"" style=""width:8cm; height:5.859999999999999cm;""><p>What type of rock is this?</p>","7","class_response","1","train","37","Pumice","Peridotite","02","false","8","7","",""
"","","","","","","","","","","","html-button-response","178","2.0.0","794402","6700d6aca79c6b2534f6292c","1","37","2825","","","","","","","","","<img src= rock_img/I_Peridotite_02.jpg style=""width:8cm; height:5.859999999999999cm;""><p style='font-size: 30px; color: red;'><strong>Incorrect!</strong></p><p style='font-size: 30px;'><strong>This rock is peridotite</strong></p>","0","corr_feedback","1","train","37","","","","","","","",""
"","","","","","","","","","","","html-button-response","179","2.0.0","797147","6700d6aca79c6b2534f6292c","1","37","2743","","","","","","","","","<img src= ""rock_img/I_Gabbro_08.jpg"" style=""width:8cm; height:5.15cm;""><p>What type of rock is this?</p>","3","class_response","1","train","38","Gabbro","Gabbro","08","true","4","4","",""
"","","","","","","","","","","","html-button-response","180","2.0.0","799543","6700d6aca79c6b2534f6292c","1","37","2393","","","","","","","","","<img src= rock_img/I_Gabbro_08.jpg style=""width:8cm; height:5.15cm;""><p style='font-size: 30px; color: green;'><strong>Correct!</strong></p><p style='font-size: 30px;'><strong>This rock is gabbro</strong></p>","0","corr_feedback","1","train","38","","","","","","","",""
"","","","","","","","","","","","html-button-response","181","2.0.0","801171","6700d6aca79c6b2534f6292c","1","37","1624","","","","","","","","","<img src= ""rock_img/I_Obsidian_11.jpg"" style=""width:8cm; height:6.05cm;""><p>What type of rock is this?</p>","4","class_response","1","train","39","Obsidian","Obsidian","11","true","5","5","",""
"","","","","","","","","","","","html-button-response","182","2.0.0","802722","6700d6aca79c6b2534f6292c","1","37","1547","","","","","","","","","<img src= rock_img/I_Obsidian_11.jpg style=""width:8cm; height:6.05cm;""><p style='font-size: 30px; color: green;'><strong>Correct!</strong></p><p style='font-size: 30px;'><strong>This rock is obsidian</strong></p>","0","corr_feedback","1","train","39","","","","","","","",""
"","","","","","","","","","","","html-button-response","183","2.0.0","807166","6700d6aca79c6b2534f6292c","1","37","4441","","","","","","","","","<img src= ""rock_img/I_Pumice_03.jpg"" style=""width:8cm; height:6.64cm;""><p>What type of rock is this?</p>","7","class_response","1","train","40","Pumice","Pumice","03","true","8","8","",""
"","","","","","","","","","","","html-button-response","184","2.0.0","808543","6700d6aca79c6b2534f6292c","1","37","1374","","","","","","","","","<img src= rock_img/I_Pumice_03.jpg style=""width:8cm; height:6.64cm;""><p style='font-size: 30px; color: green;'><strong>Correct!</strong></p><p style='font-size: 30px;'><strong>This rock is pumice</strong></p>","0","corr_feedback","1","train","40","","","","","","","",""
"","","","","","","","","","","","html-button-response","185","2.0.0","810652","6700d6aca79c6b2534f6292c","1","37","2105","","","","","","","","","<img src= ""rock_img/I_Gabbro_03.jpg"" style=""width:8cm; height:8.52cm;""><p>What type of rock is this?</p>","0","class_response","1","train","41","Andesite","Gabbro","03","false","1","4","",""
"","","","","","","","","","","","html-button-response","186","2.0.0","813216","6700d6aca79c6b2534f6292c","1","37","2563","","","","","","","","","<img src= rock_img/I_Gabbro_03.jpg style=""width:8cm; height:8.52cm;""><p style='font-size: 30px; color: red;'><strong>Incorrect!</strong></p><p style='font-size: 30px;'><strong>This rock is gabbro</strong></p>","0","corr_feedback","1","train","41","","","","","","","",""
"","","","","","","","","","","","html-button-response","187","2.0.0","815115","6700d6aca79c6b2534f6292c","1","37","1896","","","","","","","","","<img src= ""rock_img/I_Diorite_02.jpg"" style=""width:8cm; height:6.27cm;""><p>What type of rock is this?</p>","0","class_response","1","train","42","Andesite","Diorite","02","false","1","3","",""
"","","","","","","","","","","","html-button-response","188","2.0.0","818544","6700d6aca79c6b2534f6292c","1","37","3427","","","","","","","","","<img src= rock_img/I_Diorite_02.jpg style=""width:8cm; height:6.27cm;""><p style='font-size: 30px; color: red;'><strong>Incorrect!</strong></p><p style='font-size: 30px;'><strong>This rock is diorite</strong></p>","0","corr_feedback","1","train","42","","","","","","","",""
"","","","","","","","","","","","html-button-response","189","2.0.0","821984","6700d6aca79c6b2534f6292c","1","37","3438","","","","","","","","","<img src= ""rock_img/I_Peridotite_10.jpg"" style=""width:8cm; height:5.390000000000001cm;""><p>What type of rock is this?</p>","2","class_response","1","train","43","Diorite","Peridotite","10","false","3","7","",""
"","","","","","","","","","","","html-button-response","190","2.0.0","824035","6700d6aca79c6b2534f6292c","1","37","2049","","","","","","","","","<img src= rock_img/I_Peridotite_10.jpg style=""width:8cm; height:5.390000000000001cm;""><p style='font-size: 30px; color: red;'><strong>Incorrect!</strong></p><p style='font-size: 30px;'><strong>This rock is peridotite</strong></p>","0","corr_feedback","1","train","43","","","","","","","",""
"","","","","","","","","","","","html-button-response","191","2.0.0","825842","6700d6aca79c6b2534f6292c","1","37","1805","","","","","","","","","<img src= ""rock_img/I_Obsidian_09.jpg"" style=""width:8cm; height:5cm;""><p>What type of rock is this?</p>","4","class_response","1","train","44","Obsidian","Obsidian","09","true","5","5","",""
"","","","","","","","","","","","html-button-response","192","2.0.0","827352","6700d6aca79c6b2534f6292c","1","37","1508","","","","","","","","","<img src= rock_img/I_Obsidian_09.jpg style=""width:8cm; height:5cm;""><p style='font-size: 30px; color: green;'><strong>Correct!</strong></p><p style='font-size: 30px;'><strong>This rock is obsidian</strong></p>","0","corr_feedback","1","train","44","","","","","","","",""
"","","","","","","","","","","","html-button-response","193","2.0.0","830883","6700d6aca79c6b2534f6292c","1","37","3528","","","","","","","","","<img src= ""rock_img/I_Pumice_08.jpg"" style=""width:8cm; height:6.67cm;""><p>What type of rock is this?</p>","0","class_response","1","train","45","Andesite","Pumice","08","false","1","8","",""
"","","","","","","","","","","","html-button-response","194","2.0.0","832533","6700d6aca79c6b2534f6292c","1","37","1648","","","","","","","","","<img src= rock_img/I_Pumice_08.jpg style=""width:8cm; height:6.67cm;""><p style='font-size: 30px; color: red;'><strong>Incorrect!</strong></p><p style='font-size: 30px;'><strong>This rock is pumice</strong></p>","0","corr_feedback","1","train","45","","","","","","","",""
"","","","","","","","","","","","html-button-response","195","2.0.0","834371","6700d6aca79c6b2534f6292c","1","37","1836","","","","","","","","","<img src= ""rock_img/I_Gabbro_13.jpg"" style=""width:8cm; height:5.08cm;""><p>What type of rock is this?</p>","1","class_response","1","train","46","Basalt","Gabbro","13","false","2","4","",""
"","","","","","","","","","","","html-button-response","196","2.0.0","837260","6700d6aca79c6b2534f6292c","1","37","2886","","","","","","","","","<img src= rock_img/I_Gabbro_13.jpg style=""width:8cm; height:5.08cm;""><p style='font-size: 30px; color: red;'><strong>Incorrect!</strong></p><p style='font-size: 30px;'><strong>This rock is gabbro</strong></p>","0","corr_feedback","1","train","46","","","","","","","",""
"","","","","","","","","","","","html-button-response","197","2.0.0","840376","6700d6aca79c6b2534f6292c","1","37","3113","","","","","","","","","<img src= ""rock_img/I_Basalt_04.jpg"" style=""width:8cm; height:7.53cm;""><p>What type of rock is this?</p>","1","class_response","1","train","47","Basalt","Basalt","04","true","2","2","",""
"","","","","","","","","","","","html-button-response","198","2.0.0","843507","6700d6aca79c6b2534f6292c","1","37","3128","","","","","","","","","<img src= rock_img/I_Basalt_04.jpg style=""width:8cm; height:7.53cm;""><p style='font-size: 30px; color: green;'><strong>Correct!</strong></p><p style='font-size: 30px;'><strong>This rock is basalt</strong></p>","0","corr_feedback","1","train","47","","","","","","","",""
"","","","","","","","","","","","html-button-response","199","2.0.0","846596","6700d6aca79c6b2534f6292c","1","37","3087","","","","","","","","","<img src= ""rock_img/I_Pumice_14.jpg"" style=""width:8cm; height:6.39cm;""><p>What type of rock is this?</p>","7","class_response","1","train","48","Pumice","Pumice","14","true","8","8","",""
"","","","","","","","","","","","html-button-response","200","2.0.0","849489","6700d6aca79c6b2534f6292c","1","37","2891","","","","","","","","","<img src= rock_img/I_Pumice_14.jpg style=""width:8cm; height:6.39cm;""><p style='font-size: 30px; color: green;'><strong>Correct!</strong></p><p style='font-size: 30px;'><strong>This rock is pumice</strong></p>","0","corr_feedback","1","train","48","","","","","","","",""
"","","","","","","","","","","","instructions","203","2.0.0","868532","6700d6aca79c6b2534f6292c","1","37","19041","","","","","","","","[{""page_index"":0,""viewing_time"":14315},{""page_index"":1,""viewing_time"":4726}]","","","","","","","","","","","","","",""
"","","","","","","","","","","","html-button-response","204","2.0.0","871567","6700d6aca79c6b2534f6292c","1","37","3033","","","","","","","","","","0","start_test","","","","","","","","","","",""
"","","","","","","","","","","","html-button-response","205","2.0.0","880856","6700d6aca79c6b2534f6292c","1","37","9287","","","","","","","","","<img src= ""rock_img/I_Gabbro_05.jpg"" style=""width:8cm; height:6cm;""><p>What type of rock is this?</p>","3","class_response","1","test","1","Gabbro","Gabbro","05","true","4","4","",""
"","","","","","","","","","","","html-keyboard-response","206","2.0.0","881360","6700d6aca79c6b2534f6292c","1","37","null","","","","","","","","","<p style='font-size: 30px;'><strong>Okay</strong></p>","null","neutral_feedback","1","test","1","","","","","","","",""
"","","","","","","","","","","","html-button-response","207","2.0.0","883661","6700d6aca79c6b2534f6292c","1","37","2297","","","","","","","","","<img src= ""rock_img/I_Gabbro_11.jpg"" style=""width:8cm; height:6.2cm;""><p>What type of rock is this?</p>","1","class_response","1","test","2","Basalt","Gabbro","11","false","2","4","",""
"","","","","","","","","","","","html-keyboard-response","208","2.0.0","884179","6700d6aca79c6b2534f6292c","1","37","null","","","","","","","","","<p style='font-size: 30px;'><strong>Okay</strong></p>","null","neutral_feedback","1","test","2","","","","","","","",""
"","","","","","","","","","","","html-button-response","209","2.0.0","887389","6700d6aca79c6b2534f6292c","1","37","3205","","","","","","","","","<img src= ""rock_img/I_Basalt_09.jpg"" style=""width:8cm; height:6.2cm;""><p>What type of rock is this?</p>","1","class_response","1","test","3","Basalt","Basalt","09","true","2","2","",""
"","","","","","","","","","","","html-keyboard-response","210","2.0.0","887901","6700d6aca79c6b2534f6292c","1","37","null","","","","","","","","","<p style='font-size: 30px;'><strong>Okay</strong></p>","null","neutral_feedback","1","test","3","","","","","","","",""
"","","","","","","","","","","","html-button-response","211","2.0.0","890616","6700d6aca79c6b2534f6292c","1","37","2711","","","","","","","","","<img src= ""rock_img/I_Diorite_12.jpg"" style=""width:8cm; height:4.88cm;""><p>What type of rock is this?</p>","0","class_response","1","test","4","Andesite","Diorite","12","false","1","3","",""
"","","","","","","","","","","","html-keyboard-response","212","2.0.0","891127","6700d6aca79c6b2534f6292c","1","37","null","","","","","","","","","<p style='font-size: 30px;'><strong>Okay</strong></p>","null","neutral_feedback","1","test","4","","","","","","","",""
"","","","","","","","","","","","html-button-response","213","2.0.0","893684","6700d6aca79c6b2534f6292c","1","37","2552","","","","","","","","","<img src= ""rock_img/I_Pumice_16.jpg"" style=""width:8cm; height:6.79cm;""><p>What type of rock is this?</p>","7","class_response","1","test","5","Pumice","Pumice","16","true","8","8","",""
"","","","","","","","","","","","html-keyboard-response","214","2.0.0","894188","6700d6aca79c6b2534f6292c","1","37","null","","","","","","","","","<p style='font-size: 30px;'><strong>Okay</strong></p>","null","neutral_feedback","1","test","5","","","","","","","",""
"","","","","","","","","","","","html-button-response","215","2.0.0","922413","6700d6aca79c6b2534f6292c","1","37","28221","","","","","","","","","<img src= ""rock_img/I_Gabbro_12.jpg"" style=""width:8cm; height:7.800000000000001cm;""><p>What type of rock is this?</p>","1","class_response","1","test","6","Basalt","Gabbro","12","false","2","4","",""
"","","","","","","","","","","","html-keyboard-response","216","2.0.0","922929","6700d6aca79c6b2534f6292c","1","37","null","","","","","","","","","<p style='font-size: 30px;'><strong>Okay</strong></p>","null","neutral_feedback","1","test","6","","","","","","","",""
"","","","","","","","","","","","html-button-response","217","2.0.0","925242","6700d6aca79c6b2534f6292c","1","37","2309","","","","","","","","","<img src= ""rock_img/I_Andesite_03.jpg"" style=""width:8cm; height:5.73cm;""><p>What type of rock is this?</p>","0","class_response","1","test","7","Andesite","Andesite","03","true","1","1","",""
"","","","","","","","","","","","html-keyboard-response","218","2.0.0","925750","6700d6aca79c6b2534f6292c","1","37","null","","","","","","","","","<p style='font-size: 30px;'><strong>Okay</strong></p>","null","neutral_feedback","1","test","7","","","","","","","",""
"","","","","","","","","","","","html-button-response","219","2.0.0","930118","6700d6aca79c6b2534f6292c","1","37","4363","","","","","","","","","<img src= ""rock_img/I_Pegmatite_16.jpg"" style=""width:8cm; height:5.8cm;""><p>What type of rock is this?</p>","2","class_response","1","test","8","Diorite","Pegmatite","16","false","3","6","",""
"","","","","","","","","","","","html-keyboard-response","220","2.0.0","930626","6700d6aca79c6b2534f6292c","1","37","null","","","","","","","","","<p style='font-size: 30px;'><strong>Okay</strong></p>","null","neutral_feedback","1","test","8","","","","","","","",""
"","","","","","","","","","","","html-button-response","221","2.0.0","932831","6700d6aca79c6b2534f6292c","1","37","2203","","","","","","","","","<img src= ""rock_img/I_Pumice_05.jpg"" style=""width:8cm; height:7.25cm;""><p>What type of rock is this?</p>","7","class_response","1","test","9","Pumice","Pumice","05","true","8","8","",""
"","","","","","","","","","","","html-keyboard-response","222","2.0.0","933343","6700d6aca79c6b2534f6292c","1","37","null","","","","","","","","","<p style='font-size: 30px;'><strong>Okay</strong></p>","null","neutral_feedback","1","test","9","","","","","","","",""
"","","","","","","","","","","","html-button-response","223","2.0.0","935599","6700d6aca79c6b2534f6292c","1","37","2252","","","","","","","","","<img src= ""rock_img/I_Diorite_10.jpg"" style=""width:8cm; height:5.949999999999999cm;""><p>What type of rock is this?</p>","0","class_response","1","test","10","Andesite","Diorite","10","false","1","3","",""
"","","","","","","","","","","","html-keyboard-response","224","2.0.0","936103","6700d6aca79c6b2534f6292c","1","37","null","","","","","","","","","<p style='font-size: 30px;'><strong>Okay</strong></p>","null","neutral_feedback","1","test","10","","","","","","","",""
"","","","","","","","","","","","html-button-response","225","2.0.0","938613","6700d6aca79c6b2534f6292c","1","37","2507","","","","","","","","","<img src= ""rock_img/I_Andesite_16.jpg"" style=""width:8cm; height:6.010000000000001cm;""><p>What type of rock is this?</p>","0","class_response","1","test","11","Andesite","Andesite","16","true","1","1","",""
"","","","","","","","","","","","html-keyboard-response","226","2.0.0","939115","6700d6aca79c6b2534f6292c","1","37","null","","","","","","","","","<p style='font-size: 30px;'><strong>Okay</strong></p>","null","neutral_feedback","1","test","11","","","","","","","",""
"","","","","","","","","","","","html-button-response","227","2.0.0","940699","6700d6aca79c6b2534f6292c","1","37","1580","","","","","","","","","<img src= ""rock_img/I_Pumice_15.jpg"" style=""width:8cm; height:7.86cm;""><p>What type of rock is this?</p>","7","class_response","1","test","12","Pumice","Pumice","15","true","8","8","",""
"","","","","","","","","","","","html-keyboard-response","228","2.0.0","941202","6700d6aca79c6b2534f6292c","1","37","null","","","","","","","","","<p style='font-size: 30px;'><strong>Okay</strong></p>","null","neutral_feedback","1","test","12","","","","","","","",""
"","","","","","","","","","","","html-button-response","229","2.0.0","943462","6700d6aca79c6b2534f6292c","1","37","2256","","","","","","","","","<img src= ""rock_img/I_Basalt_14.jpg"" style=""width:8cm; height:5.82cm;""><p>What type of rock is this?</p>","2","class_response","1","test","13","Diorite","Basalt","14","false","3","2","",""
"","","","","","","","","","","","html-keyboard-response","230","2.0.0","943965","6700d6aca79c6b2534f6292c","1","37","null","","","","","","","","","<p style='font-size: 30px;'><strong>Okay</strong></p>","null","neutral_feedback","1","test","13","","","","","","","",""
"","","","","","","","","","","","html-button-response","231","2.0.0","962420","6700d6aca79c6b2534f6292c","1","37","18451","","","","","","","","","<img src= ""rock_img/I_Peridotite_13.jpg"" style=""width:8cm; height:7.58cm;""><p>What type of rock is this?</p>","6","class_response","1","test","14","Peridotite","Peridotite","13","true","7","7","",""
"","","","","","","","","","","","html-keyboard-response","232","2.0.0","962934","6700d6aca79c6b2534f6292c","1","37","null","","","","","","","","","<p style='font-size: 30px;'><strong>Okay</strong></p>","null","neutral_feedback","1","test","14","","","","","","","",""
"","","","","","","","","","","","html-button-response","233","2.0.0","998317","6700d6aca79c6b2534f6292c","1","37","35381","","","","","","","","","<img src= ""rock_img/I_Andesite_05.jpg"" style=""width:8cm; height:4.12cm;""><p>What type of rock is this?</p>","3","class_response","1","test","15","Gabbro","Andesite","05","false","4","1","",""
"","","","","","","","","","","","html-keyboard-response","234","2.0.0","998828","6700d6aca79c6b2534f6292c","1","37","null","","","","","","","","","<p style='font-size: 30px;'><strong>Okay</strong></p>","null","neutral_feedback","1","test","15","","","","","","","",""
"","","","","","","","","","","","html-button-response","235","2.0.0","1008476","6700d6aca79c6b2534f6292c","1","37","9643","","","","","","","","","<img src= ""rock_img/I_Pegmatite_08.jpg"" style=""width:8cm; height:7.68cm;""><p>What type of rock is this?</p>","5","class_response","1","test","16","Pegmatite","Pegmatite","08","true","6","6","",""
"","","","","","","","","","","","html-keyboard-response","236","2.0.0","1008978","6700d6aca79c6b2534f6292c","1","37","null","","","","","","","","","<p style='font-size: 30px;'><strong>Okay</strong></p>","null","neutral_feedback","1","test","16","","","","","","","",""
"","","","","","","","","","","","html-button-response","237","2.0.0","1025000","6700d6aca79c6b2534f6292c","1","37","16019","","","","","","","","","<img src= ""rock_img/I_Gabbro_10.jpg"" style=""width:8cm; height:5.680000000000001cm;""><p>What type of rock is this?</p>","0","class_response","1","test","17","Andesite","Gabbro","10","false","1","4","",""
"","","","","","","","","","","","html-keyboard-response","238","2.0.0","1025502","6700d6aca79c6b2534f6292c","1","37","null","","","","","","","","","<p style='font-size: 30px;'><strong>Okay</strong></p>","null","neutral_feedback","1","test","17","","","","","","","",""
"","","","","","","","","","","","html-button-response","239","2.0.0","1027211","6700d6aca79c6b2534f6292c","1","37","1705","","","","","","","","","<img src= ""rock_img/I_Obsidian_07.jpg"" style=""width:8cm; height:4.76cm;""><p>What type of rock is this?</p>","4","class_response","1","test","18","Obsidian","Obsidian","07","true","5","5","",""
"","","","","","","","","","","","html-keyboard-response","240","2.0.0","1027713","6700d6aca79c6b2534f6292c","1","37","null","","","","","","","","","<p style='font-size: 30px;'><strong>Okay</strong></p>","null","neutral_feedback","1","test","18","","","","","","","",""
"","","","","","","","","","","","html-button-response","241","2.0.0","1039416","6700d6aca79c6b2534f6292c","1","37","11701","","","","","","","","","<img src= ""rock_img/I_Pegmatite_07.jpg"" style=""width:8cm; height:6.7cm;""><p>What type of rock is this?</p>","5","class_response","1","test","19","Pegmatite","Pegmatite","07","true","6","6","",""
"","","","","","","","","","","","html-keyboard-response","242","2.0.0","1039929","6700d6aca79c6b2534f6292c","1","37","null","","","","","","","","","<p style='font-size: 30px;'><strong>Okay</strong></p>","null","neutral_feedback","1","test","19","","","","","","","",""
"","","","","","","","","","","","html-button-response","243","2.0.0","1041677","6700d6aca79c6b2534f6292c","1","37","1744","","","","","","","","","<img src= ""rock_img/I_Obsidian_14.jpg"" style=""width:8cm; height:7.64cm;""><p>What type of rock is this?</p>","4","class_response","1","test","20","Obsidian","Obsidian","14","true","5","5","",""
"","","","","","","","","","","","html-keyboard-response","244","2.0.0","1042180","6700d6aca79c6b2534f6292c","1","37","null","","","","","","","","","<p style='font-size: 30px;'><strong>Okay</strong></p>","null","neutral_feedback","1","test","20","","","","","","","",""
"","","","","","","","","","","","html-button-response","245","2.0.0","1047836","6700d6aca79c6b2534f6292c","1","37","5652","","","","","","","","","<img src= ""rock_img/I_Peridotite_04.jpg"" style=""width:8cm; height:6.680000000000001cm;""><p>What type of rock is this?</p>","3","class_response","1","test","21","Gabbro","Peridotite","04","false","4","7","",""
"","","","","","","","","","","","html-keyboard-response","246","2.0.0","1048348","6700d6aca79c6b2534f6292c","1","37","null","","","","","","","","","<p style='font-size: 30px;'><strong>Okay</strong></p>","null","neutral_feedback","1","test","21","","","","","","","",""
"","","","","","","","","","","","html-button-response","247","2.0.0","1049855","6700d6aca79c6b2534f6292c","1","37","1504","","","","","","","","","<img src= ""rock_img/I_Obsidian_16.jpg"" style=""width:8cm; height:9.3cm;""><p>What type of rock is this?</p>","4","class_response","1","test","22","Obsidian","Obsidian","16","true","5","5","",""
"","","","","","","","","","","","html-keyboard-response","248","2.0.0","1050361","6700d6aca79c6b2534f6292c","1","37","null","","","","","","","","","<p style='font-size: 30px;'><strong>Okay</strong></p>","null","neutral_feedback","1","test","22","","","","","","","",""
"","","","","","","","","","","","html-button-response","249","2.0.0","1052257","6700d6aca79c6b2534f6292c","1","37","1893","","","","","","","","","<img src= ""rock_img/I_Diorite_13.jpg"" style=""width:8cm; height:6.29cm;""><p>What type of rock is this?</p>","0","class_response","1","test","23","Andesite","Diorite","13","false","1","3","",""
"","","","","","","","","","","","html-keyboard-response","250","2.0.0","1052764","6700d6aca79c6b2534f6292c","1","37","null","","","","","","","","","<p style='font-size: 30px;'><strong>Okay</strong></p>","null","neutral_feedback","1","test","23","","","","","","","",""
"","","","","","","","","","","","html-button-response","251","2.0.0","1054646","6700d6aca79c6b2534f6292c","1","37","1878","","","","","","","","","<img src= ""rock_img/I_Diorite_06.jpg"" style=""width:8cm; height:6.03cm;""><p>What type of rock is this?</p>","0","class_response","1","test","24","Andesite","Diorite","06","false","1","3","",""
"","","","","","","","","","","","html-keyboard-response","252","2.0.0","1055151","6700d6aca79c6b2534f6292c","1","37","null","","","","","","","","","<p style='font-size: 30px;'><strong>Okay</strong></p>","null","neutral_feedback","1","test","24","","","","","","","",""
"","","","","","","","","","","","html-button-response","253","2.0.0","1056898","6700d6aca79c6b2534f6292c","1","37","1743","","","","","","","","","<img src= ""rock_img/I_Peridotite_07.jpg"" style=""width:8cm; height:4.83cm;""><p>What type of rock is this?</p>","2","class_response","1","test","25","Diorite","Peridotite","07","false","3","7","",""
"","","","","","","","","","","","html-keyboard-response","254","2.0.0","1057400","6700d6aca79c6b2534f6292c","1","37","null","","","","","","","","","<p style='font-size: 30px;'><strong>Okay</strong></p>","null","neutral_feedback","1","test","25","","","","","","","",""
"","","","","","","","","","","","html-button-response","255","2.0.0","1061409","6700d6aca79c6b2534f6292c","1","37","4005","","","","","","","","","<img src= ""rock_img/I_Pegmatite_09.jpg"" style=""width:8cm; height:4.03cm;""><p>What type of rock is this?</p>","3","class_response","1","test","26","Gabbro","Pegmatite","09","false","4","6","",""
"","","","","","","","","","","","html-keyboard-response","256","2.0.0","1061913","6700d6aca79c6b2534f6292c","1","37","null","","","","","","","","","<p style='font-size: 30px;'><strong>Okay</strong></p>","null","neutral_feedback","1","test","26","","","","","","","",""
"","","","","","","","","","","","html-button-response","257","2.0.0","1064659","6700d6aca79c6b2534f6292c","1","37","2742","","","","","","","","","<img src= ""rock_img/I_Peridotite_14.jpg"" style=""width:8cm; height:5.3cm;""><p>What type of rock is this?</p>","6","class_response","1","test","27","Peridotite","Peridotite","14","true","7","7","",""
"","","","","","","","","","","","html-keyboard-response","258","2.0.0","1065171","6700d6aca79c6b2534f6292c","1","37","null","","","","","","","","","<p style='font-size: 30px;'><strong>Okay</strong></p>","null","neutral_feedback","1","test","27","","","","","","","",""
"","","","","","","","","","","","html-button-response","259","2.0.0","1067843","6700d6aca79c6b2534f6292c","1","37","2668","","","","","","","","","<img src= ""rock_img/I_Andesite_04.jpg"" style=""width:8cm; height:5.96cm;""><p>What type of rock is this?</p>","0","class_response","1","test","28","Andesite","Andesite","04","true","1","1","",""
"","","","","","","","","","","","html-keyboard-response","260","2.0.0","1068347","6700d6aca79c6b2534f6292c","1","37","null","","","","","","","","","<p style='font-size: 30px;'><strong>Okay</strong></p>","null","neutral_feedback","1","test","28","","","","","","","",""
"","","","","","","","","","","","html-button-response","261","2.0.0","1070261","6700d6aca79c6b2534f6292c","1","37","1910","","","","","","","","","<img src= ""rock_img/I_Gabbro_16.jpg"" style=""width:8cm; height:6.44cm;""><p>What type of rock is this?</p>","1","class_response","1","test","29","Basalt","Gabbro","16","false","2","4","",""
"","","","","","","","","","","","html-keyboard-response","262","2.0.0","1070775","6700d6aca79c6b2534f6292c","1","37","null","","","","","","","","","<p style='font-size: 30px;'><strong>Okay</strong></p>","null","neutral_feedback","1","test","29","","","","","","","",""
"","","","","","","","","","","","html-button-response","263","2.0.0","1074565","6700d6aca79c6b2534f6292c","1","37","3785","","","","","","","","","<img src= ""rock_img/I_Andesite_10.jpg"" style=""width:8cm; height:4.16cm;""><p>What type of rock is this?</p>","5","class_response","1","test","30","Pegmatite","Andesite","10","false","6","1","",""
"","","","","","","","","","","","html-keyboard-response","264","2.0.0","1075067","6700d6aca79c6b2534f6292c","1","37","null","","","","","","","","","<p style='font-size: 30px;'><strong>Okay</strong></p>","null","neutral_feedback","1","test","30","","","","","","","",""
"","","","","","","","","","","","html-button-response","265","2.0.0","1076887","6700d6aca79c6b2534f6292c","1","37","1816","","","","","","","","","<img src= ""rock_img/I_Pumice_13.jpg"" style=""width:8cm; height:8.200000000000001cm;""><p>What type of rock is this?</p>","7","class_response","1","test","31","Pumice","Pumice","13","true","8","8","",""
"","","","","","","","","","","","html-keyboard-response","266","2.0.0","1077395","6700d6aca79c6b2534f6292c","1","37","null","","","","","","","","","<p style='font-size: 30px;'><strong>Okay</strong></p>","null","neutral_feedback","1","test","31","","","","","","","",""
"","","","","","","","","","","","html-button-response","267","2.0.0","1079296","6700d6aca79c6b2534f6292c","1","37","1897","","","","","","","","","<img src= ""rock_img/I_Andesite_06.jpg"" style=""width:8cm; height:6.840000000000001cm;""><p>What type of rock is this?</p>","0","class_response","1","test","32","Andesite","Andesite","06","true","1","1","",""
"","","","","","","","","","","","html-keyboard-response","268","2.0.0","1079801","6700d6aca79c6b2534f6292c","1","37","null","","","","","","","","","<p style='font-size: 30px;'><strong>Okay</strong></p>","null","neutral_feedback","1","test","32","","","","","","","",""
"","","","","","","","","","","","html-button-response","269","2.0.0","1082748","6700d6aca79c6b2534f6292c","1","37","2943","","","","","","","","","<img src= ""rock_img/I_Basalt_11.jpg"" style=""width:8cm; height:5.359999999999999cm;""><p>What type of rock is this?</p>","3","class_response","1","test","33","Gabbro","Basalt","11","false","4","2","",""
"","","","","","","","","","","","html-keyboard-response","270","2.0.0","1083251","6700d6aca79c6b2534f6292c","1","37","null","","","","","","","","","<p style='font-size: 30px;'><strong>Okay</strong></p>","null","neutral_feedback","1","test","33","","","","","","","",""
"","","","","","","","","","","","html-button-response","271","2.0.0","1084729","6700d6aca79c6b2534f6292c","1","37","1475","","","","","","","","","<img src= ""rock_img/I_Obsidian_04.jpg"" style=""width:8cm; height:6.930000000000001cm;""><p>What type of rock is this?</p>","4","class_response","1","test","34","Obsidian","Obsidian","04","true","5","5","",""
"","","","","","","","","","","","html-keyboard-response","272","2.0.0","1085233","6700d6aca79c6b2534f6292c","1","37","null","","","","","","","","","<p style='font-size: 30px;'><strong>Okay</strong></p>","null","neutral_feedback","1","test","34","","","","","","","",""
"","","","","","","","","","","","html-button-response","273","2.0.0","1088558","6700d6aca79c6b2534f6292c","1","37","3321","","","","","","","","","<img src= ""rock_img/I_Basalt_06.jpg"" style=""width:8cm; height:7.06cm;""><p>What type of rock is this?</p>","1","class_response","1","test","35","Basalt","Basalt","06","true","2","2","",""
"","","","","","","","","","","","html-keyboard-response","274","2.0.0","1089061","6700d6aca79c6b2534f6292c","1","37","null","","","","","","","","","<p style='font-size: 30px;'><strong>Okay</strong></p>","null","neutral_feedback","1","test","35","","","","","","","",""
"","","","","","","","","","","","html-button-response","275","2.0.0","1092002","6700d6aca79c6b2534f6292c","1","37","2938","","","","","","","","","<img src= ""rock_img/I_Peridotite_06.jpg"" style=""width:8cm; height:7.53cm;""><p>What type of rock is this?</p>","7","class_response","1","test","36","Pumice","Peridotite","06","false","8","7","",""
"","","","","","","","","","","","html-keyboard-response","276","2.0.0","1092508","6700d6aca79c6b2534f6292c","1","37","null","","","","","","","","","<p style='font-size: 30px;'><strong>Okay</strong></p>","null","neutral_feedback","1","test","36","","","","","","","",""
"","","","","","","","","","","","html-button-response","277","2.0.0","1095010","6700d6aca79c6b2534f6292c","1","37","2498","","","","","","","","","<img src= ""rock_img/I_Diorite_15.jpg"" style=""width:8cm; height:5.54cm;""><p>What type of rock is this?</p>","1","class_response","1","test","37","Basalt","Diorite","15","false","2","3","",""
"","","","","","","","","","","","html-keyboard-response","278","2.0.0","1095525","6700d6aca79c6b2534f6292c","1","37","null","","","","","","","","","<p style='font-size: 30px;'><strong>Okay</strong></p>","null","neutral_feedback","1","test","37","","","","","","","",""
"","","","","","","","","","","","html-button-response","279","2.0.0","1100517","6700d6aca79c6b2534f6292c","1","37","4989","","","","","","","","","<img src= ""rock_img/I_Diorite_16.jpg"" style=""width:8cm; height:6.74cm;""><p>What type of rock is this?</p>","0","class_response","1","test","38","Andesite","Diorite","16","false","1","3","",""
"","","","","","","","","","","","html-keyboard-response","280","2.0.0","1101020","6700d6aca79c6b2534f6292c","1","37","null","","","","","","","","","<p style='font-size: 30px;'><strong>Okay</strong></p>","null","neutral_feedback","1","test","38","","","","","","","",""
"","","","","","","","","","","","html-button-response","281","2.0.0","1116954","6700d6aca79c6b2534f6292c","1","37","15931","","","","","","","","","<img src= ""rock_img/I_Basalt_08.jpg"" style=""width:8cm; height:10.44cm;""><p>What type of rock is this?</p>","1","class_response","1","test","39","Basalt","Basalt","08","true","2","2","",""
"","","","","","","","","","","","html-keyboard-response","282","2.0.0","1117461","6700d6aca79c6b2534f6292c","1","37","null","","","","","","","","","<p style='font-size: 30px;'><strong>Okay</strong></p>","null","neutral_feedback","1","test","39","","","","","","","",""
"","","","","","","","","","","","html-button-response","283","2.0.0","1128346","6700d6aca79c6b2534f6292c","1","37","10880","","","","","","","","","<img src= ""rock_img/I_Pegmatite_13.jpg"" style=""width:8cm; height:4.95cm;""><p>What type of rock is this?</p>","6","class_response","1","test","40","Peridotite","Pegmatite","13","false","7","6","",""
"","","","","","","","","","","","html-keyboard-response","284","2.0.0","1128852","6700d6aca79c6b2534f6292c","1","37","null","","","","","","","","","<p style='font-size: 30px;'><strong>Okay</strong></p>","null","neutral_feedback","1","test","40","","","","","","","",""
"","","","","","","","","","","","html-button-response","285","2.0.0","1138367","6700d6aca79c6b2534f6292c","1","37","9509","","","","","","","","","<img src= ""rock_img/I_Pumice_10.jpg"" style=""width:8cm; height:7.609999999999999cm;""><p>What type of rock is this?</p>","6","class_response","1","test","41","Peridotite","Pumice","10","false","7","8","",""
"","","","","","","","","","","","html-keyboard-response","286","2.0.0","1138877","6700d6aca79c6b2534f6292c","1","37","null","","","","","","","","","<p style='font-size: 30px;'><strong>Okay</strong></p>","null","neutral_feedback","1","test","41","","","","","","","",""
"","","","","","","","","","","","html-button-response","287","2.0.0","1140488","6700d6aca79c6b2534f6292c","1","37","1606","","","","","","","","","<img src= ""rock_img/I_Pumice_04.jpg"" style=""width:8cm; height:6.819999999999999cm;""><p>What type of rock is this?</p>","7","class_response","1","test","42","Pumice","Pumice","04","true","8","8","",""
"","","","","","","","","","","","html-keyboard-response","288","2.0.0","1140996","6700d6aca79c6b2534f6292c","1","37","null","","","","","","","","","<p style='font-size: 30px;'><strong>Okay</strong></p>","null","neutral_feedback","1","test","42","","","","","","","",""
"","","","","","","","","","","","html-button-response","289","2.0.0","1142952","6700d6aca79c6b2534f6292c","1","37","1952","","","","","","","","","<img src= ""rock_img/I_Basalt_12.jpg"" style=""width:8cm; height:6.010000000000001cm;""><p>What type of rock is this?</p>","6","class_response","1","test","43","Peridotite","Basalt","12","false","7","2","",""
"","","","","","","","","","","","html-keyboard-response","290","2.0.0","1143466","6700d6aca79c6b2534f6292c","1","37","null","","","","","","","","","<p style='font-size: 30px;'><strong>Okay</strong></p>","null","neutral_feedback","1","test","43","","","","","","","",""
"","","","","","","","","","","","html-button-response","291","2.0.0","1149119","6700d6aca79c6b2534f6292c","1","37","5650","","","","","","","","","<img src= ""rock_img/I_Pegmatite_03.jpg"" style=""width:8cm; height:5.239999999999999cm;""><p>What type of rock is this?</p>","4","class_response","1","test","44","Obsidian","Pegmatite","03","false","5","6","",""
"","","","","","","","","","","","html-keyboard-response","292","2.0.0","1149629","6700d6aca79c6b2534f6292c","1","37","null","","","","","","","","","<p style='font-size: 30px;'><strong>Okay</strong></p>","null","neutral_feedback","1","test","44","","","","","","","",""
"","","","","","","","","","","","html-button-response","293","2.0.0","1150834","6700d6aca79c6b2534f6292c","1","37","1201","","","","","","","","","<img src= ""rock_img/I_Obsidian_12.jpg"" style=""width:8cm; height:6.53cm;""><p>What type of rock is this?</p>","4","class_response","1","test","45","Obsidian","Obsidian","12","true","5","5","",""
"","","","","","","","","","","","html-keyboard-response","294","2.0.0","1151344","6700d6aca79c6b2534f6292c","1","37","null","","","","","","","","","<p style='font-size: 30px;'><strong>Okay</strong></p>","null","neutral_feedback","1","test","45","","","","","","","",""
"","","","","","","","","","","","html-button-response","295","2.0.0","1153759","6700d6aca79c6b2534f6292c","1","37","2410","","","","","","","","","<img src= ""rock_img/I_Peridotite_08.jpg"" style=""width:8cm; height:6.7cm;""><p>What type of rock is this?</p>","2","class_response","1","test","46","Diorite","Peridotite","08","false","3","7","",""
"","","","","","","","","","","","html-keyboard-response","296","2.0.0","1154273","6700d6aca79c6b2534f6292c","1","37","null","","","","","","","","","<p style='font-size: 30px;'><strong>Okay</strong></p>","null","neutral_feedback","1","test","46","","","","","","","",""
"","","","","","","","","","","","html-button-response","297","2.0.0","1156120","6700d6aca79c6b2534f6292c","1","37","1843","","","","","","","","","<img src= ""rock_img/I_Obsidian_10.jpg"" style=""width:8cm; height:6.260000000000001cm;""><p>What type of rock is this?</p>","4","class_response","1","test","47","Obsidian","Obsidian","10","true","5","5","",""
"","","","","","","","","","","","html-keyboard-response","298","2.0.0","1156631","6700d6aca79c6b2534f6292c","1","37","null","","","","","","","","","<p style='font-size: 30px;'><strong>Okay</strong></p>","null","neutral_feedback","1","test","47","","","","","","","",""
"","","","","","","","","","","","html-button-response","299","2.0.0","1161371","6700d6aca79c6b2534f6292c","1","37","4737","","","","","","","","","<img src= ""rock_img/I_Gabbro_15.jpg"" style=""width:8cm; height:6.29cm;""><p>What type of rock is this?</p>","0","class_response","1","test","48","Andesite","Gabbro","15","false","1","4","",""
"","","","","","","","","","","","html-keyboard-response","300","2.0.0","1161887","6700d6aca79c6b2534f6292c","1","37","null","","","","","","","","","<p style='font-size: 30px;'><strong>Okay</strong></p>","null","neutral_feedback","1","test","48","","","","","","","",""
"","","","","","","","","","","","html-button-response","301","2.0.0","1187010","6700d6aca79c6b2534f6292c","1","37","","","","","","","","","","","","cycle_feedback","","","","","","","","","","14091.899999856949","11012.100000143051"
"","","","","","","","","","","","html-button-response","303","2.0.0","1190572","6700d6aca79c6b2534f6292c","1","37","3557","","","","","","","","","","0","start_train","","","","","","","","","","",""
"","","","","","","","","","","","html-button-response","304","2.0.0","1192445","6700d6aca79c6b2534f6292c","1","37","1868","","","","","","","","","<img src= ""rock_img/I_Diorite_02.jpg"" style=""width:8cm; height:6.27cm;""><p>What type of rock is this?</p>","0","class_response","2","train","1","Andesite","Diorite","02","false","1","3","",""
