"width","height","webaudio","browser","browser_version","mobile","os","fullscreen","vsync_rate","webcam","microphone","trial_type","trial_index","plugin_version","time_elapsed","subjID","condition","stimID","rt","url","success","value","timeout","failed_images","failed_audio","failed_video","view_history","stimulus","response","trialType","cycle","phase","trial","resp","cat","token","corr","resp_num","cat_num","time_fb1","time_fb2"
"1536","695","true","chrome","131.0.0","false","Windows 10","true","60.21","true","true","browser-check","0","2.0.0","1011","6598ad7d742e25b376094227","1","21","","","","","","","","","","","","","","","","","","","","","","",""
"","","","","","","","","","","","external-html","1","2.0.0","121338","6598ad7d742e25b376094227","1","21","120217","consent_form.html","","","","","","","","","","","","","","","","","","","","",""
"","","","","","","","","","","","fullscreen","2","2.0.0","125292","6598ad7d742e25b376094227","1","21","2951","","true","","","","","","","","","","","","","","","","","","","",""
"","","","","","","","","","","","call-function","3","2.0.0","125293","6598ad7d742e25b376094227","1","21","","","","{}","","","","","","","","","","","","","","","","","","",""
"","","","","","","","","","","","preload","4","2.0.0","127942","6598ad7d742e25b376094227","1","21","","","true","","false","[]","[]","[]","","","","","","","","","","","","","","",""
"","","","","","","","","","","","instructions","5","2.0.0","202647","6598ad7d742e25b376094227","1","21","74705","","","","","","","","[{""page_index"":0,""viewing_time"":8594},{""page_index"":1,""viewing_time"":49137},{""page_index"":2,""viewing_time"":16973}]","","","","","","","","","","","","","",""
"","","","","","","","","","","","html-button-response","6","2.0.0","208796","6598ad7d742e25b376094227","1","21","6148","","","","","","","","","","0","start_test","","","","","","","","","","",""
"","","","","","","","","","","","html-button-response","7","2.0.0","219883","6598ad7d742e25b376094227","1","21","11085","","","","","","","","","<img src= ""rock_img/I_Andesite_02.jpg"" style=""width:8cm; height:8.5cm;""><p>What type of rock is this?</p>","7","class_response","0","test","1","Pumice","Andesite","02","false","8","1","",""
"","","","","","","","","","","","html-keyboard-response","8","2.0.0","220397","6598ad7d742e25b376094227","1","21","null","","","","","","","","","<p style='font-size: 30px;'><strong>Okay</strong></p>","null","neutral_feedback","0","test","1","","","","","","","",""
"","","","","","","","","","","","html-button-response","9","2.0.0","233115","6598ad7d742e25b376094227","1","21","12717","","","","","","","","","<img src= ""rock_img/I_Basalt_11.jpg"" style=""width:8cm; height:5.359999999999999cm;""><p>What type of rock is this?</p>","1","class_response","0","test","2","Basalt","Basalt","11","true","2","2","",""
"","","","","","","","","","","","html-keyboard-response","10","2.0.0","233618","6598ad7d742e25b376094227","1","21","null","","","","","","","","","<p style='font-size: 30px;'><strong>Okay</strong></p>","null","neutral_feedback","0","test","2","","","","","","","",""
"","","","","","","","","","","","html-button-response","11","2.0.0","239335","6598ad7d742e25b376094227","1","21","5716","","","","","","","","","<img src= ""rock_img/I_Peridotite_12.jpg"" style=""width:8cm; height:4.54cm;""><p>What type of rock is this?</p>","2","class_response","0","test","3","Diorite","Peridotite","12","false","3","7","",""
"","","","","","","","","","","","html-keyboard-response","12","2.0.0","239836","6598ad7d742e25b376094227","1","21","null","","","","","","","","","<p style='font-size: 30px;'><strong>Okay</strong></p>","null","neutral_feedback","0","test","3","","","","","","","",""
"","","","","","","","","","","","html-button-response","13","2.0.0","244851","6598ad7d742e25b376094227","1","21","5013","","","","","","","","","<img src= ""rock_img/I_Andesite_05.jpg"" style=""width:8cm; height:4.12cm;""><p>What type of rock is this?</p>","5","class_response","0","test","4","Pegmatite","Andesite","05","false","6","1","",""
"","","","","","","","","","","","html-keyboard-response","14","2.0.0","245354","6598ad7d742e25b376094227","1","21","null","","","","","","","","","<p style='font-size: 30px;'><strong>Okay</strong></p>","null","neutral_feedback","0","test","4","","","","","","","",""
"","","","","","","","","","","","html-button-response","15","2.0.0","258251","6598ad7d742e25b376094227","1","21","12896","","","","","","","","","<img src= ""rock_img/I_Basalt_10.jpg"" style=""width:8cm; height:5.85cm;""><p>What type of rock is this?</p>","4","class_response","0","test","5","Obsidian","Basalt","10","false","5","2","",""
"","","","","","","","","","","","html-keyboard-response","16","2.0.0","258755","6598ad7d742e25b376094227","1","21","null","","","","","","","","","<p style='font-size: 30px;'><strong>Okay</strong></p>","null","neutral_feedback","0","test","5","","","","","","","",""
"","","","","","","","","","","","html-button-response","17","2.0.0","264565","6598ad7d742e25b376094227","1","21","5808","","","","","","","","","<img src= ""rock_img/I_Pumice_02.jpg"" style=""width:8cm; height:7.3999999999999995cm;""><p>What type of rock is this?</p>","7","class_response","0","test","6","Pumice","Pumice","02","true","8","8","",""
"","","","","","","","","","","","html-keyboard-response","18","2.0.0","265069","6598ad7d742e25b376094227","1","21","null","","","","","","","","","<p style='font-size: 30px;'><strong>Okay</strong></p>","null","neutral_feedback","0","test","6","","","","","","","",""
"","","","","","","","","","","","html-button-response","19","2.0.0","267413","6598ad7d742e25b376094227","1","21","2343","","","","","","","","","<img src= ""rock_img/I_Obsidian_02.jpg"" style=""width:8cm; height:7.51cm;""><p>What type of rock is this?</p>","4","class_response","0","test","7","Obsidian","Obsidian","02","true","5","5","",""
"","","","","","","","","","","","html-keyboard-response","20","2.0.0","267914","6598ad7d742e25b376094227","1","21","null","","","","","","","","","<p style='font-size: 30px;'><strong>Okay</strong></p>","null","neutral_feedback","0","test","7","","","","","","","",""
"","","","","","","","","","","","html-button-response","21","2.0.0","274390","6598ad7d742e25b376094227","1","21","6475","","","","","","","","","<img src= ""rock_img/I_Pumice_09.jpg"" style=""width:8cm; height:6.44cm;""><p>What type of rock is this?</p>","3","class_response","0","test","8","Gabbro","Pumice","09","false","4","8","",""
"","","","","","","","","","","","html-keyboard-response","22","2.0.0","274892","6598ad7d742e25b376094227","1","21","null","","","","","","","","","<p style='font-size: 30px;'><strong>Okay</strong></p>","null","neutral_feedback","0","test","8","","","","","","","",""
"","","","","","","","","","","","html-button-response","23","2.0.0","289488","6598ad7d742e25b376094227","1","21","14594","","","","","","","","","<img src= ""rock_img/I_Pumice_04.jpg"" style=""width:8cm; height:6.819999999999999cm;""><p>What type of rock is this?</p>","5","class_response","0","test","9","Pegmatite","Pumice","04","false","6","8","",""
"","","","","","","","","","","","html-keyboard-response","24","2.0.0","289990","6598ad7d742e25b376094227","1","21","null","","","","","","","","","<p style='font-size: 30px;'><strong>Okay</strong></p>","null","neutral_feedback","0","test","9","","","","","","","",""
"","","","","","","","","","","","html-button-response","25","2.0.0","300005","6598ad7d742e25b376094227","1","21","10014","","","","","","","","","<img src= ""rock_img/I_Basalt_08.jpg"" style=""width:8cm; height:10.44cm;""><p>What type of rock is this?</p>","1","class_response","0","test","10","Basalt","Basalt","08","true","2","2","",""
"","","","","","","","","","","","html-keyboard-response","26","2.0.0","300520","6598ad7d742e25b376094227","1","21","null","","","","","","","","","<p style='font-size: 30px;'><strong>Okay</strong></p>","null","neutral_feedback","0","test","10","","","","","","","",""
"","","","","","","","","","","","html-button-response","27","2.0.0","305657","6598ad7d742e25b376094227","1","21","5136","","","","","","","","","<img src= ""rock_img/I_Peridotite_07.jpg"" style=""width:8cm; height:4.83cm;""><p>What type of rock is this?</p>","2","class_response","0","test","11","Diorite","Peridotite","07","false","3","7","",""
"","","","","","","","","","","","html-keyboard-response","28","2.0.0","306158","6598ad7d742e25b376094227","1","21","null","","","","","","","","","<p style='font-size: 30px;'><strong>Okay</strong></p>","null","neutral_feedback","0","test","11","","","","","","","",""
"","","","","","","","","","","","html-button-response","29","2.0.0","316475","6598ad7d742e25b376094227","1","21","10316","","","","","","","","","<img src= ""rock_img/I_Diorite_06.jpg"" style=""width:8cm; height:6.03cm;""><p>What type of rock is this?</p>","0","class_response","0","test","12","Andesite","Diorite","06","false","1","3","",""
"","","","","","","","","","","","html-keyboard-response","30","2.0.0","316982","6598ad7d742e25b376094227","1","21","null","","","","","","","","","<p style='font-size: 30px;'><strong>Okay</strong></p>","null","neutral_feedback","0","test","12","","","","","","","",""
"","","","","","","","","","","","html-button-response","31","2.0.0","322763","6598ad7d742e25b376094227","1","21","5779","","","","","","","","","<img src= ""rock_img/I_Gabbro_16.jpg"" style=""width:8cm; height:6.44cm;""><p>What type of rock is this?</p>","6","class_response","0","test","13","Peridotite","Gabbro","16","false","7","4","",""
"","","","","","","","","","","","html-keyboard-response","32","2.0.0","323270","6598ad7d742e25b376094227","1","21","null","","","","","","","","","<p style='font-size: 30px;'><strong>Okay</strong></p>","null","neutral_feedback","0","test","13","","","","","","","",""
"","","","","","","","","","","","html-button-response","33","2.0.0","328547","6598ad7d742e25b376094227","1","21","5275","","","","","","","","","<img src= ""rock_img/I_Peridotite_10.jpg"" style=""width:8cm; height:5.390000000000001cm;""><p>What type of rock is this?</p>","2","class_response","0","test","14","Diorite","Peridotite","10","false","3","7","",""
"","","","","","","","","","","","html-keyboard-response","34","2.0.0","329052","6598ad7d742e25b376094227","1","21","null","","","","","","","","","<p style='font-size: 30px;'><strong>Okay</strong></p>","null","neutral_feedback","0","test","14","","","","","","","",""
"","","","","","","","","","","","html-button-response","35","2.0.0","334320","6598ad7d742e25b376094227","1","21","5267","","","","","","","","","<img src= ""rock_img/I_Obsidian_05.jpg"" style=""width:8cm; height:6.33cm;""><p>What type of rock is this?</p>","4","class_response","0","test","15","Obsidian","Obsidian","05","true","5","5","",""
"","","","","","","","","","","","html-keyboard-response","36","2.0.0","334822","6598ad7d742e25b376094227","1","21","null","","","","","","","","","<p style='font-size: 30px;'><strong>Okay</strong></p>","null","neutral_feedback","0","test","15","","","","","","","",""
"","","","","","","","","","","","html-button-response","37","2.0.0","344343","6598ad7d742e25b376094227","1","21","9520","","","","","","","","","<img src= ""rock_img/I_Pegmatite_09.jpg"" style=""width:8cm; height:4.03cm;""><p>What type of rock is this?</p>","5","class_response","0","test","16","Pegmatite","Pegmatite","09","true","6","6","",""
"","","","","","","","","","","","html-keyboard-response","38","2.0.0","344864","6598ad7d742e25b376094227","1","21","null","","","","","","","","","<p style='font-size: 30px;'><strong>Okay</strong></p>","null","neutral_feedback","0","test","16","","","","","","","",""
"","","","","","","","","","","","html-button-response","39","2.0.0","348842","6598ad7d742e25b376094227","1","21","3976","","","","","","","","","<img src= ""rock_img/I_Andesite_09.jpg"" style=""width:8cm; height:6cm;""><p>What type of rock is this?</p>","7","class_response","0","test","17","Pumice","Andesite","09","false","8","1","",""
"","","","","","","","","","","","html-keyboard-response","40","2.0.0","349345","6598ad7d742e25b376094227","1","21","null","","","","","","","","","<p style='font-size: 30px;'><strong>Okay</strong></p>","null","neutral_feedback","0","test","17","","","","","","","",""
"","","","","","","","","","","","html-button-response","41","2.0.0","351692","6598ad7d742e25b376094227","1","21","2346","","","","","","","","","<img src= ""rock_img/I_Obsidian_16.jpg"" style=""width:8cm; height:9.3cm;""><p>What type of rock is this?</p>","4","class_response","0","test","18","Obsidian","Obsidian","16","true","5","5","",""
"","","","","","","","","","","","html-keyboard-response","42","2.0.0","352193","6598ad7d742e25b376094227","1","21","null","","","","","","","","","<p style='font-size: 30px;'><strong>Okay</strong></p>","null","neutral_feedback","0","test","18","","","","","","","",""
"","","","","","","","","","","","html-button-response","43","2.0.0","356459","6598ad7d742e25b376094227","1","21","4265","","","","","","","","","<img src= ""rock_img/I_Basalt_12.jpg"" style=""width:8cm; height:6.010000000000001cm;""><p>What type of rock is this?</p>","1","class_response","0","test","19","Basalt","Basalt","12","true","2","2","",""
"","","","","","","","","","","","html-keyboard-response","44","2.0.0","356973","6598ad7d742e25b376094227","1","21","null","","","","","","","","","<p style='font-size: 30px;'><strong>Okay</strong></p>","null","neutral_feedback","0","test","19","","","","","","","",""
"","","","","","","","","","","","html-button-response","45","2.0.0","361030","6598ad7d742e25b376094227","1","21","4056","","","","","","","","","<img src= ""rock_img/I_Gabbro_15.jpg"" style=""width:8cm; height:6.29cm;""><p>What type of rock is this?</p>","0","class_response","0","test","20","Andesite","Gabbro","15","false","1","4","",""
"","","","","","","","","","","","html-keyboard-response","46","2.0.0","361536","6598ad7d742e25b376094227","1","21","null","","","","","","","","","<p style='font-size: 30px;'><strong>Okay</strong></p>","null","neutral_feedback","0","test","20","","","","","","","",""
"","","","","","","","","","","","html-button-response","47","2.0.0","365070","6598ad7d742e25b376094227","1","21","3533","","","","","","","","","<img src= ""rock_img/I_Peridotite_06.jpg"" style=""width:8cm; height:7.53cm;""><p>What type of rock is this?</p>","2","class_response","0","test","21","Diorite","Peridotite","06","false","3","7","",""
"","","","","","","","","","","","html-keyboard-response","48","2.0.0","365573","6598ad7d742e25b376094227","1","21","null","","","","","","","","","<p style='font-size: 30px;'><strong>Okay</strong></p>","null","neutral_feedback","0","test","21","","","","","","","",""
"","","","","","","","","","","","html-button-response","49","2.0.0","368959","6598ad7d742e25b376094227","1","21","3386","","","","","","","","","<img src= ""rock_img/I_Pegmatite_11.jpg"" style=""width:8cm; height:8.14cm;""><p>What type of rock is this?</p>","4","class_response","0","test","22","Obsidian","Pegmatite","11","false","5","6","",""
"","","","","","","","","","","","html-keyboard-response","50","2.0.0","369469","6598ad7d742e25b376094227","1","21","null","","","","","","","","","<p style='font-size: 30px;'><strong>Okay</strong></p>","null","neutral_feedback","0","test","22","","","","","","","",""
"","","","","","","","","","","","html-button-response","51","2.0.0","375236","6598ad7d742e25b376094227","1","21","5766","","","","","","","","","<img src= ""rock_img/I_Diorite_09.jpg"" style=""width:8cm; height:5.27cm;""><p>What type of rock is this?</p>","1","class_response","0","test","23","Basalt","Diorite","09","false","2","3","",""
"","","","","","","","","","","","html-keyboard-response","52","2.0.0","375739","6598ad7d742e25b376094227","1","21","null","","","","","","","","","<p style='font-size: 30px;'><strong>Okay</strong></p>","null","neutral_feedback","0","test","23","","","","","","","",""
"","","","","","","","","","","","html-button-response","53","2.0.0","378603","6598ad7d742e25b376094227","1","21","2863","","","","","","","","","<img src= ""rock_img/I_Peridotite_15.jpg"" style=""width:8cm; height:6cm;""><p>What type of rock is this?</p>","2","class_response","0","test","24","Diorite","Peridotite","15","false","3","7","",""
"","","","","","","","","","","","html-keyboard-response","54","2.0.0","379103","6598ad7d742e25b376094227","1","21","null","","","","","","","","","<p style='font-size: 30px;'><strong>Okay</strong></p>","null","neutral_feedback","0","test","24","","","","","","","",""
"","","","","","","","","","","","html-button-response","55","2.0.0","381721","6598ad7d742e25b376094227","1","21","2617","","","","","","","","","<img src= ""rock_img/I_Obsidian_06.jpg"" style=""width:8cm; height:6.8cm;""><p>What type of rock is this?</p>","4","class_response","0","test","25","Obsidian","Obsidian","06","true","5","5","",""
"","","","","","","","","","","","html-keyboard-response","56","2.0.0","382222","6598ad7d742e25b376094227","1","21","null","","","","","","","","","<p style='font-size: 30px;'><strong>Okay</strong></p>","null","neutral_feedback","0","test","25","","","","","","","",""
"","","","","","","","","","","","html-button-response","57","2.0.0","384718","6598ad7d742e25b376094227","1","21","2494","","","","","","","","","<img src= ""rock_img/I_Andesite_10.jpg"" style=""width:8cm; height:4.16cm;""><p>What type of rock is this?</p>","6","class_response","0","test","26","Peridotite","Andesite","10","false","7","1","",""
"","","","","","","","","","","","html-keyboard-response","58","2.0.0","385219","6598ad7d742e25b376094227","1","21","null","","","","","","","","","<p style='font-size: 30px;'><strong>Okay</strong></p>","null","neutral_feedback","0","test","26","","","","","","","",""
"","","","","","","","","","","","html-button-response","59","2.0.0","389196","6598ad7d742e25b376094227","1","21","3977","","","","","","","","","<img src= ""rock_img/I_Pegmatite_06.jpg"" style=""width:8cm; height:5.17cm;""><p>What type of rock is this?</p>","3","class_response","0","test","27","Gabbro","Pegmatite","06","false","4","6","",""
"","","","","","","","","","","","html-keyboard-response","60","2.0.0","389697","6598ad7d742e25b376094227","1","21","null","","","","","","","","","<p style='font-size: 30px;'><strong>Okay</strong></p>","null","neutral_feedback","0","test","27","","","","","","","",""
"","","","","","","","","","","","html-button-response","61","2.0.0","396760","6598ad7d742e25b376094227","1","21","7063","","","","","","","","","<img src= ""rock_img/I_Diorite_08.jpg"" style=""width:8cm; height:6.37cm;""><p>What type of rock is this?</p>","2","class_response","0","test","28","Diorite","Diorite","08","true","3","3","",""
"","","","","","","","","","","","html-keyboard-response","62","2.0.0","397264","6598ad7d742e25b376094227","1","21","null","","","","","","","","","<p style='font-size: 30px;'><strong>Okay</strong></p>","null","neutral_feedback","0","test","28","","","","","","","",""
"","","","","","","","","","","","html-button-response","63","2.0.0","404702","6598ad7d742e25b376094227","1","21","7438","","","","","","","","","<img src= ""rock_img/I_Gabbro_12.jpg"" style=""width:8cm; height:7.800000000000001cm;""><p>What type of rock is this?</p>","0","class_response","0","test","29","Andesite","Gabbro","12","false","1","4","",""
"","","","","","","","","","","","html-keyboard-response","64","2.0.0","405208","6598ad7d742e25b376094227","1","21","null","","","","","","","","","<p style='font-size: 30px;'><strong>Okay</strong></p>","null","neutral_feedback","0","test","29","","","","","","","",""
"","","","","","","","","","","","html-button-response","65","2.0.0","414551","6598ad7d742e25b376094227","1","21","9342","","","","","","","","","<img src= ""rock_img/I_Basalt_14.jpg"" style=""width:8cm; height:5.82cm;""><p>What type of rock is this?</p>","6","class_response","0","test","30","Peridotite","Basalt","14","false","7","2","",""
"","","","","","","","","","","","html-keyboard-response","66","2.0.0","415067","6598ad7d742e25b376094227","1","21","null","","","","","","","","","<p style='font-size: 30px;'><strong>Okay</strong></p>","null","neutral_feedback","0","test","30","","","","","","","",""
"","","","","","","","","","","","html-button-response","67","2.0.0","418615","6598ad7d742e25b376094227","1","21","3547","","","","","","","","","<img src= ""rock_img/I_Pumice_13.jpg"" style=""width:8cm; height:8.200000000000001cm;""><p>What type of rock is this?</p>","7","class_response","0","test","31","Pumice","Pumice","13","true","8","8","",""
"","","","","","","","","","","","html-keyboard-response","68","2.0.0","419130","6598ad7d742e25b376094227","1","21","null","","","","","","","","","<p style='font-size: 30px;'><strong>Okay</strong></p>","null","neutral_feedback","0","test","31","","","","","","","",""
"","","","","","","","","","","","html-button-response","69","2.0.0","421058","6598ad7d742e25b376094227","1","21","1927","","","","","","","","","<img src= ""rock_img/I_Obsidian_04.jpg"" style=""width:8cm; height:6.930000000000001cm;""><p>What type of rock is this?</p>","4","class_response","0","test","32","Obsidian","Obsidian","04","true","5","5","",""
"","","","","","","","","","","","html-keyboard-response","70","2.0.0","421567","6598ad7d742e25b376094227","1","21","null","","","","","","","","","<p style='font-size: 30px;'><strong>Okay</strong></p>","null","neutral_feedback","0","test","32","","","","","","","",""
"","","","","","","","","","","","html-button-response","71","2.0.0","426863","6598ad7d742e25b376094227","1","21","5294","","","","","","","","","<img src= ""rock_img/I_Gabbro_10.jpg"" style=""width:8cm; height:5.680000000000001cm;""><p>What type of rock is this?</p>","2","class_response","0","test","33","Diorite","Gabbro","10","false","3","4","",""
"","","","","","","","","","","","html-keyboard-response","72","2.0.0","427368","6598ad7d742e25b376094227","1","21","null","","","","","","","","","<p style='font-size: 30px;'><strong>Okay</strong></p>","null","neutral_feedback","0","test","33","","","","","","","",""
"","","","","","","","","","","","html-button-response","73","2.0.0","433682","6598ad7d742e25b376094227","1","21","6313","","","","","","","","","<img src= ""rock_img/I_Pumice_10.jpg"" style=""width:8cm; height:7.609999999999999cm;""><p>What type of rock is this?</p>","5","class_response","0","test","34","Pegmatite","Pumice","10","false","6","8","",""
"","","","","","","","","","","","html-keyboard-response","74","2.0.0","434193","6598ad7d742e25b376094227","1","21","null","","","","","","","","","<p style='font-size: 30px;'><strong>Okay</strong></p>","null","neutral_feedback","0","test","34","","","","","","","",""
"","","","","","","","","","","","html-button-response","75","2.0.0","439293","6598ad7d742e25b376094227","1","21","5099","","","","","","","","","<img src= ""rock_img/I_Andesite_14.jpg"" style=""width:8cm; height:5.449999999999999cm;""><p>What type of rock is this?</p>","1","class_response","0","test","35","Basalt","Andesite","14","false","2","1","",""
"","","","","","","","","","","","html-keyboard-response","76","2.0.0","439795","6598ad7d742e25b376094227","1","21","null","","","","","","","","","<p style='font-size: 30px;'><strong>Okay</strong></p>","null","neutral_feedback","0","test","35","","","","","","","",""
"","","","","","","","","","","","html-button-response","77","2.0.0","442927","6598ad7d742e25b376094227","1","21","3132","","","","","","","","","<img src= ""rock_img/I_Andesite_06.jpg"" style=""width:8cm; height:6.840000000000001cm;""><p>What type of rock is this?</p>","2","class_response","0","test","36","Diorite","Andesite","06","false","3","1","",""
"","","","","","","","","","","","html-keyboard-response","78","2.0.0","443442","6598ad7d742e25b376094227","1","21","null","","","","","","","","","<p style='font-size: 30px;'><strong>Okay</strong></p>","null","neutral_feedback","0","test","36","","","","","","","",""
"","","","","","","","","","","","html-button-response","79","2.0.0","449304","6598ad7d742e25b376094227","1","21","5860","","","","","","","","","<img src= ""rock_img/I_Gabbro_11.jpg"" style=""width:8cm; height:6.2cm;""><p>What type of rock is this?</p>","6","class_response","0","test","37","Peridotite","Gabbro","11","false","7","4","",""
"","","","","","","","","","","","html-keyboard-response","80","2.0.0","449833","6598ad7d742e25b376094227","1","21","null","","","","","","","","","<p style='font-size: 30px;'><strong>Okay</strong></p>","null","neutral_feedback","0","test","37","","","","","","","",""
"","","","","","","","","","","","html-button-response","81","2.0.0","453767","6598ad7d742e25b376094227","1","21","3933","","","","","","","","","<img src= ""rock_img/I_Pegmatite_15.jpg"" style=""width:8cm; height:6cm;""><p>What type of rock is this?</p>","4","class_response","0","test","38","Obsidian","Pegmatite","15","false","5","6","",""
"","","","","","","","","","","","html-keyboard-response","82","2.0.0","454270","6598ad7d742e25b376094227","1","21","null","","","","","","","","","<p style='font-size: 30px;'><strong>Okay</strong></p>","null","neutral_feedback","0","test","38","","","","","","","",""
"","","","","","","","","","","","html-button-response","83","2.0.0","458231","6598ad7d742e25b376094227","1","21","3960","","","","","","","","","<img src= ""rock_img/I_Pegmatite_13.jpg"" style=""width:8cm; height:4.95cm;""><p>What type of rock is this?</p>","3","class_response","0","test","39","Gabbro","Pegmatite","13","false","4","6","",""
"","","","","","","","","","","","html-keyboard-response","84","2.0.0","458739","6598ad7d742e25b376094227","1","21","null","","","","","","","","","<p style='font-size: 30px;'><strong>Okay</strong></p>","null","neutral_feedback","0","test","39","","","","","","","",""
"","","","","","","","","","","","html-button-response","85","2.0.0","466786","6598ad7d742e25b376094227","1","21","8046","","","","","","","","","<img src= ""rock_img/I_Pumice_15.jpg"" style=""width:8cm; height:7.86cm;""><p>What type of rock is this?</p>","5","class_response","0","test","40","Pegmatite","Pumice","15","false","6","8","",""
"","","","","","","","","","","","html-keyboard-response","86","2.0.0","467302","6598ad7d742e25b376094227","1","21","null","","","","","","","","","<p style='font-size: 30px;'><strong>Okay</strong></p>","null","neutral_feedback","0","test","40","","","","","","","",""
"","","","","","","","","","","","html-button-response","87","2.0.0","469299","6598ad7d742e25b376094227","1","21","1996","","","","","","","","","<img src= ""rock_img/I_Obsidian_11.jpg"" style=""width:8cm; height:6.05cm;""><p>What type of rock is this?</p>","4","class_response","0","test","41","Obsidian","Obsidian","11","true","5","5","",""
"","","","","","","","","","","","html-keyboard-response","88","2.0.0","469802","6598ad7d742e25b376094227","1","21","null","","","","","","","","","<p style='font-size: 30px;'><strong>Okay</strong></p>","null","neutral_feedback","0","test","41","","","","","","","",""
"","","","","","","","","","","","html-button-response","89","2.0.0","474366","6598ad7d742e25b376094227","1","21","4563","","","","","","","","","<img src= ""rock_img/I_Diorite_15.jpg"" style=""width:8cm; height:5.54cm;""><p>What type of rock is this?</p>","1","class_response","0","test","42","Basalt","Diorite","15","false","2","3","",""
"","","","","","","","","","","","html-keyboard-response","90","2.0.0","474875","6598ad7d742e25b376094227","1","21","null","","","","","","","","","<p style='font-size: 30px;'><strong>Okay</strong></p>","null","neutral_feedback","0","test","42","","","","","","","",""
"","","","","","","","","","","","html-button-response","91","2.0.0","477188","6598ad7d742e25b376094227","1","21","2312","","","","","","","","","<img src= ""rock_img/I_Diorite_07.jpg"" style=""width:8cm; height:5.239999999999999cm;""><p>What type of rock is this?</p>","2","class_response","0","test","43","Diorite","Diorite","07","true","3","3","",""
"","","","","","","","","","","","html-keyboard-response","92","2.0.0","477691","6598ad7d742e25b376094227","1","21","null","","","","","","","","","<p style='font-size: 30px;'><strong>Okay</strong></p>","null","neutral_feedback","0","test","43","","","","","","","",""
"","","","","","","","","","","","html-button-response","93","2.0.0","481508","6598ad7d742e25b376094227","1","21","3816","","","","","","","","","<img src= ""rock_img/I_Basalt_04.jpg"" style=""width:8cm; height:7.53cm;""><p>What type of rock is this?</p>","0","class_response","0","test","44","Andesite","Basalt","04","false","1","2","",""
"","","","","","","","","","","","html-keyboard-response","94","2.0.0","482020","6598ad7d742e25b376094227","1","21","null","","","","","","","","","<p style='font-size: 30px;'><strong>Okay</strong></p>","null","neutral_feedback","0","test","44","","","","","","","",""
"","","","","","","","","","","","html-button-response","95","2.0.0","487197","6598ad7d742e25b376094227","1","21","5176","","","","","","","","","<img src= ""rock_img/I_Pegmatite_16.jpg"" style=""width:8cm; height:5.8cm;""><p>What type of rock is this?</p>","6","class_response","0","test","45","Peridotite","Pegmatite","16","false","7","6","",""
"","","","","","","","","","","","html-keyboard-response","96","2.0.0","487711","6598ad7d742e25b376094227","1","21","null","","","","","","","","","<p style='font-size: 30px;'><strong>Okay</strong></p>","null","neutral_feedback","0","test","45","","","","","","","",""
"","","","","","","","","","","","html-button-response","97","2.0.0","490620","6598ad7d742e25b376094227","1","21","2908","","","","","","","","","<img src= ""rock_img/I_Peridotite_16.jpg"" style=""width:8cm; height:6.989999999999999cm;""><p>What type of rock is this?</p>","3","class_response","0","test","46","Gabbro","Peridotite","16","false","4","7","",""
"","","","","","","","","","","","html-keyboard-response","98","2.0.0","491132","6598ad7d742e25b376094227","1","21","null","","","","","","","","","<p style='font-size: 30px;'><strong>Okay</strong></p>","null","neutral_feedback","0","test","46","","","","","","","",""
"","","","","","","","","","","","html-button-response","99","2.0.0","493617","6598ad7d742e25b376094227","1","21","2484","","","","","","","","","<img src= ""rock_img/I_Diorite_12.jpg"" style=""width:8cm; height:4.88cm;""><p>What type of rock is this?</p>","1","class_response","0","test","47","Basalt","Diorite","12","false","2","3","",""
"","","","","","","","","","","","html-keyboard-response","100","2.0.0","494130","6598ad7d742e25b376094227","1","21","null","","","","","","","","","<p style='font-size: 30px;'><strong>Okay</strong></p>","null","neutral_feedback","0","test","47","","","","","","","",""
"","","","","","","","","","","","html-button-response","101","2.0.0","499290","6598ad7d742e25b376094227","1","21","5160","","","","","","","","","<img src= ""rock_img/I_Gabbro_08.jpg"" style=""width:8cm; height:5.15cm;""><p>What type of rock is this?</p>","2","class_response","0","test","48","Diorite","Gabbro","08","false","3","4","",""
"","","","","","","","","","","","html-keyboard-response","102","2.0.0","499802","6598ad7d742e25b376094227","1","21","null","","","","","","","","","<p style='font-size: 30px;'><strong>Okay</strong></p>","null","neutral_feedback","0","test","48","","","","","","","",""
"","","","","","","","","","","","instructions","103","2.0.0","527669","6598ad7d742e25b376094227","1","21","27850","","","","","","","","[{""page_index"":0,""viewing_time"":14143},{""page_index"":1,""viewing_time"":5498},{""page_index"":2,""viewing_time"":8209}]","","","","","","","","","","","","","",""
"","","","","","","","","","","","html-button-response","104","2.0.0","533514","6598ad7d742e25b376094227","1","21","5844","","","","","","","","","","0","start_train","","","","","","","","","","",""
"","","","","","","","","","","","html-button-response","105","2.0.0","538366","6598ad7d742e25b376094227","1","21","4850","","","","","","","","","<img src= ""rock_img/I_Pegmatite_07.jpg"" style=""width:8cm; height:6.7cm;""><p>What type of rock is this?</p>","2","class_response","1","train","1","Diorite","Pegmatite","07","false","3","6","",""
"","","","","","","","","","","","html-button-response","106","2.0.0","549050","6598ad7d742e25b376094227","1","21","10683","","","","","","","","","<img src= rock_img/I_Pegmatite_07.jpg style=""width:8cm; height:6.7cm;""><p style='font-size: 30px; color: red;'><strong>Incorrect!</strong></p><p style='font-size: 30px;'><strong>This rock is pegmatite</strong></p>","0","corr_feedback","1","train","1","","","","","","","",""
"","","","","","","","","","","","html-button-response","107","2.0.0","551679","6598ad7d742e25b376094227","1","21","2627","","","","","","","","","<img src= ""rock_img/I_Pumice_14.jpg"" style=""width:8cm; height:6.39cm;""><p>What type of rock is this?</p>","1","class_response","1","train","2","Basalt","Pumice","14","false","2","8","",""
"","","","","","","","","","","","html-button-response","108","2.0.0","560995","6598ad7d742e25b376094227","1","21","9315","","","","","","","","","<img src= rock_img/I_Pumice_14.jpg style=""width:8cm; height:6.39cm;""><p style='font-size: 30px; color: red;'><strong>Incorrect!</strong></p><p style='font-size: 30px;'><strong>This rock is pumice</strong></p>","0","corr_feedback","1","train","2","","","","","","","",""
"","","","","","","","","","","","html-button-response","109","2.0.0","564728","6598ad7d742e25b376094227","1","21","3733","","","","","","","","","<img src= ""rock_img/I_Pegmatite_10.jpg"" style=""width:8cm; height:4.16cm;""><p>What type of rock is this?</p>","6","class_response","1","train","3","Peridotite","Pegmatite","10","false","7","6","",""
"","","","","","","","","","","","html-button-response","110","2.0.0","572727","6598ad7d742e25b376094227","1","21","7998","","","","","","","","","<img src= rock_img/I_Pegmatite_10.jpg style=""width:8cm; height:4.16cm;""><p style='font-size: 30px; color: red;'><strong>Incorrect!</strong></p><p style='font-size: 30px;'><strong>This rock is pegmatite</strong></p>","0","corr_feedback","1","train","3","","","","","","","",""
"","","","","","","","","","","","html-button-response","111","2.0.0","575226","6598ad7d742e25b376094227","1","21","2498","","","","","","","","","<img src= ""rock_img/I_Obsidian_08.jpg"" style=""width:8cm; height:7.39cm;""><p>What type of rock is this?</p>","4","class_response","1","train","4","Obsidian","Obsidian","08","true","5","5","",""
"","","","","","","","","","","","html-button-response","112","2.0.0","577280","6598ad7d742e25b376094227","1","21","2053","","","","","","","","","<img src= rock_img/I_Obsidian_08.jpg style=""width:8cm; height:7.39cm;""><p style='font-size: 30px; color: green;'><strong>Correct!</strong></p><p style='font-size: 30px;'><strong>This rock is obsidian</strong></p>","0","corr_feedback","1","train","4","","","","","","","",""
"","","","","","","","","","","","html-button-response","113","2.0.0","587092","6598ad7d742e25b376094227","1","21","9811","","","","","","","","","<img src= ""rock_img/I_Peridotite_04.jpg"" style=""width:8cm; height:6.680000000000001cm;""><p>What type of rock is this?</p>","3","class_response","1","train","5","Gabbro","Peridotite","04","false","4","7","",""
"","","","","","","","","","","","html-button-response","114","2.0.0","596277","6598ad7d742e25b376094227","1","21","9185","","","","","","","","","<img src= rock_img/I_Peridotite_04.jpg style=""width:8cm; height:6.680000000000001cm;""><p style='font-size: 30px; color: red;'><strong>Incorrect!</strong></p><p style='font-size: 30px;'><strong>This rock is peridotite</strong></p>","0","corr_feedback","1","train","5","","","","","","","",""
"","","","","","","","","","","","html-button-response","115","2.0.0","599703","6598ad7d742e25b376094227","1","21","3425","","","","","","","","","<img src= ""rock_img/I_Obsidian_10.jpg"" style=""width:8cm; height:6.260000000000001cm;""><p>What type of rock is this?</p>","4","class_response","1","train","6","Obsidian","Obsidian","10","true","5","5","",""
"","","","","","","","","","","","html-button-response","116","2.0.0","601525","6598ad7d742e25b376094227","1","21","1820","","","","","","","","","<img src= rock_img/I_Obsidian_10.jpg style=""width:8cm; height:6.260000000000001cm;""><p style='font-size: 30px; color: green;'><strong>Correct!</strong></p><p style='font-size: 30px;'><strong>This rock is obsidian</strong></p>","0","corr_feedback","1","train","6","","","","","","","",""
"","","","","","","","","","","","html-button-response","117","2.0.0","605668","6598ad7d742e25b376094227","1","21","4142","","","","","","","","","<img src= ""rock_img/I_Diorite_14.jpg"" style=""width:8cm; height:5.71cm;""><p>What type of rock is this?</p>","1","class_response","1","train","7","Basalt","Diorite","14","false","2","3","",""
"","","","","","","","","","","","html-button-response","118","2.0.0","610000","6598ad7d742e25b376094227","1","21","4331","","","","","","","","","<img src= rock_img/I_Diorite_14.jpg style=""width:8cm; height:5.71cm;""><p style='font-size: 30px; color: red;'><strong>Incorrect!</strong></p><p style='font-size: 30px;'><strong>This rock is diorite</strong></p>","0","corr_feedback","1","train","7","","","","","","","",""
"","","","","","","","","","","","html-button-response","119","2.0.0","614015","6598ad7d742e25b376094227","1","21","4014","","","","","","","","","<img src= ""rock_img/I_Gabbro_01.jpg"" style=""width:8cm; height:5.21cm;""><p>What type of rock is this?</p>","1","class_response","1","train","8","Basalt","Gabbro","01","false","2","4","",""
"","","","","","","","","","","","html-button-response","120","2.0.0","619781","6598ad7d742e25b376094227","1","21","5766","","","","","","","","","<img src= rock_img/I_Gabbro_01.jpg style=""width:8cm; height:5.21cm;""><p style='font-size: 30px; color: red;'><strong>Incorrect!</strong></p><p style='font-size: 30px;'><strong>This rock is gabbro</strong></p>","0","corr_feedback","1","train","8","","","","","","","",""
"","","","","","","","","","","","html-button-response","121","2.0.0","622838","6598ad7d742e25b376094227","1","21","3055","","","","","","","","","<img src= ""rock_img/I_Pegmatite_08.jpg"" style=""width:8cm; height:7.68cm;""><p>What type of rock is this?</p>","4","class_response","1","train","9","Obsidian","Pegmatite","08","false","5","6","",""
"","","","","","","","","","","","html-button-response","122","2.0.0","632727","6598ad7d742e25b376094227","1","21","9889","","","","","","","","","<img src= rock_img/I_Pegmatite_08.jpg style=""width:8cm; height:7.68cm;""><p style='font-size: 30px; color: red;'><strong>Incorrect!</strong></p><p style='font-size: 30px;'><strong>This rock is pegmatite</strong></p>","0","corr_feedback","1","train","9","","","","","","","",""
"","","","","","","","","","","","html-button-response","123","2.0.0","638398","6598ad7d742e25b376094227","1","21","5670","","","","","","","","","<img src= ""rock_img/I_Diorite_16.jpg"" style=""width:8cm; height:6.74cm;""><p>What type of rock is this?</p>","7","class_response","1","train","10","Pumice","Diorite","16","false","8","3","",""
"","","","","","","","","","","","html-button-response","124","2.0.0","643168","6598ad7d742e25b376094227","1","21","4770","","","","","","","","","<img src= rock_img/I_Diorite_16.jpg style=""width:8cm; height:6.74cm;""><p style='font-size: 30px; color: red;'><strong>Incorrect!</strong></p><p style='font-size: 30px;'><strong>This rock is diorite</strong></p>","0","corr_feedback","1","train","10","","","","","","","",""
"","","","","","","","","","","","html-button-response","125","2.0.0","652699","6598ad7d742e25b376094227","1","21","9529","","","","","","","","","<img src= ""rock_img/I_Gabbro_05.jpg"" style=""width:8cm; height:6cm;""><p>What type of rock is this?</p>","6","class_response","1","train","11","Peridotite","Gabbro","05","false","7","4","",""
"","","","","","","","","","","","html-button-response","126","2.0.0","656523","6598ad7d742e25b376094227","1","21","3824","","","","","","","","","<img src= rock_img/I_Gabbro_05.jpg style=""width:8cm; height:6cm;""><p style='font-size: 30px; color: red;'><strong>Incorrect!</strong></p><p style='font-size: 30px;'><strong>This rock is gabbro</strong></p>","0","corr_feedback","1","train","11","","","","","","","",""
"","","","","","","","","","","","html-button-response","127","2.0.0","660158","6598ad7d742e25b376094227","1","21","3634","","","","","","","","","<img src= ""rock_img/I_Pumice_16.jpg"" style=""width:8cm; height:6.79cm;""><p>What type of rock is this?</p>","7","class_response","1","train","12","Pumice","Pumice","16","true","8","8","",""
"","","","","","","","","","","","html-button-response","128","2.0.0","662431","6598ad7d742e25b376094227","1","21","2272","","","","","","","","","<img src= rock_img/I_Pumice_16.jpg style=""width:8cm; height:6.79cm;""><p style='font-size: 30px; color: green;'><strong>Correct!</strong></p><p style='font-size: 30px;'><strong>This rock is pumice</strong></p>","0","corr_feedback","1","train","12","","","","","","","",""
"","","","","","","","","","","","html-button-response","129","2.0.0","676267","6598ad7d742e25b376094227","1","21","13835","","","","","","","","","<img src= ""rock_img/I_Andesite_07.jpg"" style=""width:8cm; height:5.93cm;""><p>What type of rock is this?</p>","5","class_response","1","train","13","Pegmatite","Andesite","07","false","6","1","",""
"","","","","","","","","","","","html-button-response","130","2.0.0","681348","6598ad7d742e25b376094227","1","21","5080","","","","","","","","","<img src= rock_img/I_Andesite_07.jpg style=""width:8cm; height:5.93cm;""><p style='font-size: 30px; color: red;'><strong>Incorrect!</strong></p><p style='font-size: 30px;'><strong>This rock is andesite</strong></p>","0","corr_feedback","1","train","13","","","","","","","",""
"","","","","","","","","","","","html-button-response","131","2.0.0","688545","6598ad7d742e25b376094227","1","21","7196","","","","","","","","","<img src= ""rock_img/I_Basalt_05.jpg"" style=""width:8cm; height:8.18cm;""><p>What type of rock is this?</p>","1","class_response","1","train","14","Basalt","Basalt","05","true","2","2","",""
"","","","","","","","","","","","html-button-response","132","2.0.0","693554","6598ad7d742e25b376094227","1","21","5008","","","","","","","","","<img src= rock_img/I_Basalt_05.jpg style=""width:8cm; height:8.18cm;""><p style='font-size: 30px; color: green;'><strong>Correct!</strong></p><p style='font-size: 30px;'><strong>This rock is basalt</strong></p>","0","corr_feedback","1","train","14","","","","","","","",""
"","","","","","","","","","","","html-button-response","133","2.0.0","695669","6598ad7d742e25b376094227","1","21","2114","","","","","","","","","<img src= ""rock_img/I_Obsidian_09.jpg"" style=""width:8cm; height:5cm;""><p>What type of rock is this?</p>","4","class_response","1","train","15","Obsidian","Obsidian","09","true","5","5","",""
"","","","","","","","","","","","html-button-response","134","2.0.0","697212","6598ad7d742e25b376094227","1","21","1542","","","","","","","","","<img src= rock_img/I_Obsidian_09.jpg style=""width:8cm; height:5cm;""><p style='font-size: 30px; color: green;'><strong>Correct!</strong></p><p style='font-size: 30px;'><strong>This rock is obsidian</strong></p>","0","corr_feedback","1","train","15","","","","","","","",""
"","","","","","","","","","","","html-button-response","135","2.0.0","701471","6598ad7d742e25b376094227","1","21","4258","","","","","","","","","<img src= ""rock_img/I_Pegmatite_12.jpg"" style=""width:8cm; height:5.7cm;""><p>What type of rock is this?</p>","5","class_response","1","train","16","Pegmatite","Pegmatite","12","true","6","6","",""
"","","","","","","","","","","","html-button-response","136","2.0.0","703022","6598ad7d742e25b376094227","1","21","1550","","","","","","","","","<img src= rock_img/I_Pegmatite_12.jpg style=""width:8cm; height:5.7cm;""><p style='font-size: 30px; color: green;'><strong>Correct!</strong></p><p style='font-size: 30px;'><strong>This rock is pegmatite</strong></p>","0","corr_feedback","1","train","16","","","","","","","",""
"","","","","","","","","","","","html-button-response","137","2.0.0","706045","6598ad7d742e25b376094227","1","21","3022","","","","","","","","","<img src= ""rock_img/I_Pumice_06.jpg"" style=""width:8cm; height:6.9399999999999995cm;""><p>What type of rock is this?</p>","7","class_response","1","train","17","Pumice","Pumice","06","true","8","8","",""
"","","","","","","","","","","","html-button-response","138","2.0.0","707782","6598ad7d742e25b376094227","1","21","1736","","","","","","","","","<img src= rock_img/I_Pumice_06.jpg style=""width:8cm; height:6.9399999999999995cm;""><p style='font-size: 30px; color: green;'><strong>Correct!</strong></p><p style='font-size: 30px;'><strong>This rock is pumice</strong></p>","0","corr_feedback","1","train","17","","","","","","","",""
"","","","","","","","","","","","html-button-response","139","2.0.0","712609","6598ad7d742e25b376094227","1","21","4826","","","","","","","","","<img src= ""rock_img/I_Peridotite_13.jpg"" style=""width:8cm; height:7.58cm;""><p>What type of rock is this?</p>","2","class_response","1","train","18","Diorite","Peridotite","13","false","3","7","",""
"","","","","","","","","","","","html-button-response","140","2.0.0","718366","6598ad7d742e25b376094227","1","21","5756","","","","","","","","","<img src= rock_img/I_Peridotite_13.jpg style=""width:8cm; height:7.58cm;""><p style='font-size: 30px; color: red;'><strong>Incorrect!</strong></p><p style='font-size: 30px;'><strong>This rock is peridotite</strong></p>","0","corr_feedback","1","train","18","","","","","","","",""
"","","","","","","","","","","","html-button-response","141","2.0.0","720456","6598ad7d742e25b376094227","1","21","2090","","","","","","","","","<img src= ""rock_img/I_Pumice_05.jpg"" style=""width:8cm; height:7.25cm;""><p>What type of rock is this?</p>","7","class_response","1","train","19","Pumice","Pumice","05","true","8","8","",""
"","","","","","","","","","","","html-button-response","142","2.0.0","722543","6598ad7d742e25b376094227","1","21","2087","","","","","","","","","<img src= rock_img/I_Pumice_05.jpg style=""width:8cm; height:7.25cm;""><p style='font-size: 30px; color: green;'><strong>Correct!</strong></p><p style='font-size: 30px;'><strong>This rock is pumice</strong></p>","0","corr_feedback","1","train","19","","","","","","","",""
"","","","","","","","","","","","html-button-response","143","2.0.0","727243","6598ad7d742e25b376094227","1","21","4698","","","","","","","","","<img src= ""rock_img/I_Peridotite_02.jpg"" style=""width:8cm; height:5.859999999999999cm;""><p>What type of rock is this?</p>","6","class_response","1","train","20","Peridotite","Peridotite","02","true","7","7","",""
"","","","","","","","","","","","html-button-response","144","2.0.0","729191","6598ad7d742e25b376094227","1","21","1947","","","","","","","","","<img src= rock_img/I_Peridotite_02.jpg style=""width:8cm; height:5.859999999999999cm;""><p style='font-size: 30px; color: green;'><strong>Correct!</strong></p><p style='font-size: 30px;'><strong>This rock is peridotite</strong></p>","0","corr_feedback","1","train","20","","","","","","","",""
"","","","","","","","","","","","html-button-response","145","2.0.0","737760","6598ad7d742e25b376094227","1","21","8568","","","","","","","","","<img src= ""rock_img/I_Peridotite_05.jpg"" style=""width:8cm; height:7.1499999999999995cm;""><p>What type of rock is this?</p>","2","class_response","1","train","21","Diorite","Peridotite","05","false","3","7","",""
"","","","","","","","","","","","html-button-response","146","2.0.0","739769","6598ad7d742e25b376094227","1","21","2008","","","","","","","","","<img src= rock_img/I_Peridotite_05.jpg style=""width:8cm; height:7.1499999999999995cm;""><p style='font-size: 30px; color: red;'><strong>Incorrect!</strong></p><p style='font-size: 30px;'><strong>This rock is peridotite</strong></p>","0","corr_feedback","1","train","21","","","","","","","",""
"","","","","","","","","","","","html-button-response","147","2.0.0","748723","6598ad7d742e25b376094227","1","21","8953","","","","","","","","","<img src= ""rock_img/I_Peridotite_14.jpg"" style=""width:8cm; height:5.3cm;""><p>What type of rock is this?</p>","3","class_response","1","train","22","Gabbro","Peridotite","14","false","4","7","",""
"","","","","","","","","","","","html-button-response","148","2.0.0","750581","6598ad7d742e25b376094227","1","21","1857","","","","","","","","","<img src= rock_img/I_Peridotite_14.jpg style=""width:8cm; height:5.3cm;""><p style='font-size: 30px; color: red;'><strong>Incorrect!</strong></p><p style='font-size: 30px;'><strong>This rock is peridotite</strong></p>","0","corr_feedback","1","train","22","","","","","","","",""
"","","","","","","","","","","","html-button-response","149","2.0.0","754843","6598ad7d742e25b376094227","1","21","4261","","","","","","","","","<img src= ""rock_img/I_Basalt_01.jpg"" style=""width:8cm; height:7.880000000000001cm;""><p>What type of rock is this?</p>","1","class_response","1","train","23","Basalt","Basalt","01","true","2","2","",""
"","","","","","","","","","","","html-button-response","150","2.0.0","756805","6598ad7d742e25b376094227","1","21","1961","","","","","","","","","<img src= rock_img/I_Basalt_01.jpg style=""width:8cm; height:7.880000000000001cm;""><p style='font-size: 30px; color: green;'><strong>Correct!</strong></p><p style='font-size: 30px;'><strong>This rock is basalt</strong></p>","0","corr_feedback","1","train","23","","","","","","","",""
"","","","","","","","","","","","html-button-response","151","2.0.0","759810","6598ad7d742e25b376094227","1","21","3004","","","","","","","","","<img src= ""rock_img/I_Pegmatite_05.jpg"" style=""width:8cm; height:7.300000000000001cm;""><p>What type of rock is this?</p>","4","class_response","1","train","24","Obsidian","Pegmatite","05","false","5","6","",""
"","","","","","","","","","","","html-button-response","152","2.0.0","761528","6598ad7d742e25b376094227","1","21","1717","","","","","","","","","<img src= rock_img/I_Pegmatite_05.jpg style=""width:8cm; height:7.300000000000001cm;""><p style='font-size: 30px; color: red;'><strong>Incorrect!</strong></p><p style='font-size: 30px;'><strong>This rock is pegmatite</strong></p>","0","corr_feedback","1","train","24","","","","","","","",""
"","","","","","","","","","","","html-button-response","153","2.0.0","766294","6598ad7d742e25b376094227","1","21","4765","","","","","","","","","<img src= ""rock_img/I_Andesite_03.jpg"" style=""width:8cm; height:5.73cm;""><p>What type of rock is this?</p>","0","class_response","1","train","25","Andesite","Andesite","03","true","1","1","",""
"","","","","","","","","","","","html-button-response","154","2.0.0","767909","6598ad7d742e25b376094227","1","21","1614","","","","","","","","","<img src= rock_img/I_Andesite_03.jpg style=""width:8cm; height:5.73cm;""><p style='font-size: 30px; color: green;'><strong>Correct!</strong></p><p style='font-size: 30px;'><strong>This rock is andesite</strong></p>","0","corr_feedback","1","train","25","","","","","","","",""
"","","","","","","","","","","","html-button-response","155","2.0.0","774054","6598ad7d742e25b376094227","1","21","6144","","","","","","","","","<img src= ""rock_img/I_Diorite_11.jpg"" style=""width:8cm; height:7.11cm;""><p>What type of rock is this?</p>","6","class_response","1","train","26","Peridotite","Diorite","11","false","7","3","",""
"","","","","","","","","","","","html-button-response","156","2.0.0","777059","6598ad7d742e25b376094227","1","21","3004","","","","","","","","","<img src= rock_img/I_Diorite_11.jpg style=""width:8cm; height:7.11cm;""><p style='font-size: 30px; color: red;'><strong>Incorrect!</strong></p><p style='font-size: 30px;'><strong>This rock is diorite</strong></p>","0","corr_feedback","1","train","26","","","","","","","",""
"","","","","","","","","","","","html-button-response","157","2.0.0","783426","6598ad7d742e25b376094227","1","21","6365","","","","","","","","","<img src= ""rock_img/I_Diorite_10.jpg"" style=""width:8cm; height:5.949999999999999cm;""><p>What type of rock is this?</p>","2","class_response","1","train","27","Diorite","Diorite","10","true","3","3","",""
"","","","","","","","","","","","html-button-response","158","2.0.0","785562","6598ad7d742e25b376094227","1","21","2135","","","","","","","","","<img src= rock_img/I_Diorite_10.jpg style=""width:8cm; height:5.949999999999999cm;""><p style='font-size: 30px; color: green;'><strong>Correct!</strong></p><p style='font-size: 30px;'><strong>This rock is diorite</strong></p>","0","corr_feedback","1","train","27","","","","","","","",""
"","","","","","","","","","","","html-button-response","159","2.0.0","796538","6598ad7d742e25b376094227","1","21","10975","","","","","","","","","<img src= ""rock_img/I_Gabbro_14.jpg"" style=""width:8cm; height:8.48cm;""><p>What type of rock is this?</p>","1","class_response","1","train","28","Basalt","Gabbro","14","false","2","4","",""
"","","","","","","","","","","","html-button-response","160","2.0.0","798446","6598ad7d742e25b376094227","1","21","1907","","","","","","","","","<img src= rock_img/I_Gabbro_14.jpg style=""width:8cm; height:8.48cm;""><p style='font-size: 30px; color: red;'><strong>Incorrect!</strong></p><p style='font-size: 30px;'><strong>This rock is gabbro</strong></p>","0","corr_feedback","1","train","28","","","","","","","",""
"","","","","","","","","","","","html-button-response","161","2.0.0","800672","6598ad7d742e25b376094227","1","21","2225","","","","","","","","","<img src= ""rock_img/I_Basalt_06.jpg"" style=""width:8cm; height:7.06cm;""><p>What type of rock is this?</p>","1","class_response","1","train","29","Basalt","Basalt","06","true","2","2","",""
"","","","","","","","","","","","html-button-response","162","2.0.0","802259","6598ad7d742e25b376094227","1","21","1586","","","","","","","","","<img src= rock_img/I_Basalt_06.jpg style=""width:8cm; height:7.06cm;""><p style='font-size: 30px; color: green;'><strong>Correct!</strong></p><p style='font-size: 30px;'><strong>This rock is basalt</strong></p>","0","corr_feedback","1","train","29","","","","","","","",""
"","","","","","","","","","","","html-button-response","163","2.0.0","804739","6598ad7d742e25b376094227","1","21","2479","","","","","","","","","<img src= ""rock_img/I_Obsidian_12.jpg"" style=""width:8cm; height:6.53cm;""><p>What type of rock is this?</p>","4","class_response","1","train","30","Obsidian","Obsidian","12","true","5","5","",""
"","","","","","","","","","","","html-button-response","164","2.0.0","805933","6598ad7d742e25b376094227","1","21","1193","","","","","","","","","<img src= rock_img/I_Obsidian_12.jpg style=""width:8cm; height:6.53cm;""><p style='font-size: 30px; color: green;'><strong>Correct!</strong></p><p style='font-size: 30px;'><strong>This rock is obsidian</strong></p>","0","corr_feedback","1","train","30","","","","","","","",""
"","","","","","","","","","","","html-button-response","165","2.0.0","808226","6598ad7d742e25b376094227","1","21","2292","","","","","","","","","<img src= ""rock_img/I_Andesite_04.jpg"" style=""width:8cm; height:5.96cm;""><p>What type of rock is this?</p>","0","class_response","1","train","31","Andesite","Andesite","04","true","1","1","",""
"","","","","","","","","","","","html-button-response","166","2.0.0","810227","6598ad7d742e25b376094227","1","21","2000","","","","","","","","","<img src= rock_img/I_Andesite_04.jpg style=""width:8cm; height:5.96cm;""><p style='font-size: 30px; color: green;'><strong>Correct!</strong></p><p style='font-size: 30px;'><strong>This rock is andesite</strong></p>","0","corr_feedback","1","train","31","","","","","","","",""
"","","","","","","","","","","","html-button-response","167","2.0.0","814064","6598ad7d742e25b376094227","1","21","3836","","","","","","","","","<img src= ""rock_img/I_Diorite_13.jpg"" style=""width:8cm; height:6.29cm;""><p>What type of rock is this?</p>","6","class_response","1","train","32","Peridotite","Diorite","13","false","7","3","",""
"","","","","","","","","","","","html-button-response","168","2.0.0","818465","6598ad7d742e25b376094227","1","21","4400","","","","","","","","","<img src= rock_img/I_Diorite_13.jpg style=""width:8cm; height:6.29cm;""><p style='font-size: 30px; color: red;'><strong>Incorrect!</strong></p><p style='font-size: 30px;'><strong>This rock is diorite</strong></p>","0","corr_feedback","1","train","32","","","","","","","",""
"","","","","","","","","","","","html-button-response","169","2.0.0","833781","6598ad7d742e25b376094227","1","21","15315","","","","","","","","","<img src= ""rock_img/I_Andesite_11.jpg"" style=""width:8cm; height:4.92cm;""><p>What type of rock is this?</p>","0","class_response","1","train","33","Andesite","Andesite","11","true","1","1","",""
"","","","","","","","","","","","html-button-response","170","2.0.0","835473","6598ad7d742e25b376094227","1","21","1691","","","","","","","","","<img src= rock_img/I_Andesite_11.jpg style=""width:8cm; height:4.92cm;""><p style='font-size: 30px; color: green;'><strong>Correct!</strong></p><p style='font-size: 30px;'><strong>This rock is andesite</strong></p>","0","corr_feedback","1","train","33","","","","","","","",""
"","","","","","","","","","","","html-button-response","171","2.0.0","843614","6598ad7d742e25b376094227","1","21","8139","","","","","","","","","<img src= ""rock_img/I_Pegmatite_03.jpg"" style=""width:8cm; height:5.239999999999999cm;""><p>What type of rock is this?</p>","5","class_response","1","train","34","Pegmatite","Pegmatite","03","true","6","6","",""
"","","","","","","","","","","","html-button-response","172","2.0.0","845857","6598ad7d742e25b376094227","1","21","2242","","","","","","","","","<img src= rock_img/I_Pegmatite_03.jpg style=""width:8cm; height:5.239999999999999cm;""><p style='font-size: 30px; color: green;'><strong>Correct!</strong></p><p style='font-size: 30px;'><strong>This rock is pegmatite</strong></p>","0","corr_feedback","1","train","34","","","","","","","",""
"","","","","","","","","","","","html-button-response","173","2.0.0","848616","6598ad7d742e25b376094227","1","21","2759","","","","","","","","","<img src= ""rock_img/I_Pumice_08.jpg"" style=""width:8cm; height:6.67cm;""><p>What type of rock is this?</p>","7","class_response","1","train","35","Pumice","Pumice","08","true","8","8","",""
"","","","","","","","","","","","html-button-response","174","2.0.0","850253","6598ad7d742e25b376094227","1","21","1635","","","","","","","","","<img src= rock_img/I_Pumice_08.jpg style=""width:8cm; height:6.67cm;""><p style='font-size: 30px; color: green;'><strong>Correct!</strong></p><p style='font-size: 30px;'><strong>This rock is pumice</strong></p>","0","corr_feedback","1","train","35","","","","","","","",""
"","","","","","","","","","","","html-button-response","175","2.0.0","852273","6598ad7d742e25b376094227","1","21","2020","","","","","","","","","<img src= ""rock_img/I_Pumice_03.jpg"" style=""width:8cm; height:6.64cm;""><p>What type of rock is this?</p>","7","class_response","1","train","36","Pumice","Pumice","03","true","8","8","",""
"","","","","","","","","","","","html-button-response","176","2.0.0","853824","6598ad7d742e25b376094227","1","21","1550","","","","","","","","","<img src= rock_img/I_Pumice_03.jpg style=""width:8cm; height:6.64cm;""><p style='font-size: 30px; color: green;'><strong>Correct!</strong></p><p style='font-size: 30px;'><strong>This rock is pumice</strong></p>","0","corr_feedback","1","train","36","","","","","","","",""
"","","","","","","","","","","","html-button-response","177","2.0.0","856414","6598ad7d742e25b376094227","1","21","2589","","","","","","","","","<img src= ""rock_img/I_Obsidian_14.jpg"" style=""width:8cm; height:7.64cm;""><p>What type of rock is this?</p>","4","class_response","1","train","37","Obsidian","Obsidian","14","true","5","5","",""
"","","","","","","","","","","","html-button-response","178","2.0.0","857765","6598ad7d742e25b376094227","1","21","1350","","","","","","","","","<img src= rock_img/I_Obsidian_14.jpg style=""width:8cm; height:7.64cm;""><p style='font-size: 30px; color: green;'><strong>Correct!</strong></p><p style='font-size: 30px;'><strong>This rock is obsidian</strong></p>","0","corr_feedback","1","train","37","","","","","","","",""
"","","","","","","","","","","","html-button-response","179","2.0.0","859991","6598ad7d742e25b376094227","1","21","2225","","","","","","","","","<img src= ""rock_img/I_Andesite_16.jpg"" style=""width:8cm; height:6.010000000000001cm;""><p>What type of rock is this?</p>","0","class_response","1","train","38","Andesite","Andesite","16","true","1","1","",""
"","","","","","","","","","","","html-button-response","180","2.0.0","861505","6598ad7d742e25b376094227","1","21","1513","","","","","","","","","<img src= rock_img/I_Andesite_16.jpg style=""width:8cm; height:6.010000000000001cm;""><p style='font-size: 30px; color: green;'><strong>Correct!</strong></p><p style='font-size: 30px;'><strong>This rock is andesite</strong></p>","0","corr_feedback","1","train","38","","","","","","","",""
"","","","","","","","","","","","html-button-response","181","2.0.0","871367","6598ad7d742e25b376094227","1","21","9861","","","","","","","","","<img src= ""rock_img/I_Gabbro_03.jpg"" style=""width:8cm; height:8.52cm;""><p>What type of rock is this?</p>","2","class_response","1","train","39","Diorite","Gabbro","03","false","3","4","",""
"","","","","","","","","","","","html-button-response","182","2.0.0","873106","6598ad7d742e25b376094227","1","21","1739","","","","","","","","","<img src= rock_img/I_Gabbro_03.jpg style=""width:8cm; height:8.52cm;""><p style='font-size: 30px; color: red;'><strong>Incorrect!</strong></p><p style='font-size: 30px;'><strong>This rock is gabbro</strong></p>","0","corr_feedback","1","train","39","","","","","","","",""
"","","","","","","","","","","","html-button-response","183","2.0.0","884144","6598ad7d742e25b376094227","1","21","11036","","","","","","","","","<img src= ""rock_img/I_Gabbro_13.jpg"" style=""width:8cm; height:5.08cm;""><p>What type of rock is this?</p>","6","class_response","1","train","40","Peridotite","Gabbro","13","false","7","4","",""
"","","","","","","","","","","","html-button-response","184","2.0.0","885698","6598ad7d742e25b376094227","1","21","1553","","","","","","","","","<img src= rock_img/I_Gabbro_13.jpg style=""width:8cm; height:5.08cm;""><p style='font-size: 30px; color: red;'><strong>Incorrect!</strong></p><p style='font-size: 30px;'><strong>This rock is gabbro</strong></p>","0","corr_feedback","1","train","40","","","","","","","",""
"","","","","","","","","","","","html-button-response","185","2.0.0","887824","6598ad7d742e25b376094227","1","21","2125","","","","","","","","","<img src= ""rock_img/I_Basalt_02.jpg"" style=""width:8cm; height:6.45cm;""><p>What type of rock is this?</p>","1","class_response","1","train","41","Basalt","Basalt","02","true","2","2","",""
"","","","","","","","","","","","html-button-response","186","2.0.0","889095","6598ad7d742e25b376094227","1","21","1271","","","","","","","","","<img src= rock_img/I_Basalt_02.jpg style=""width:8cm; height:6.45cm;""><p style='font-size: 30px; color: green;'><strong>Correct!</strong></p><p style='font-size: 30px;'><strong>This rock is basalt</strong></p>","0","corr_feedback","1","train","41","","","","","","","",""
"","","","","","","","","","","","html-button-response","187","2.0.0","899633","6598ad7d742e25b376094227","1","21","10536","","","","","","","","","<img src= ""rock_img/I_Peridotite_08.jpg"" style=""width:8cm; height:6.7cm;""><p>What type of rock is this?</p>","3","class_response","1","train","42","Gabbro","Peridotite","08","false","4","7","",""
"","","","","","","","","","","","html-button-response","188","2.0.0","901275","6598ad7d742e25b376094227","1","21","1641","","","","","","","","","<img src= rock_img/I_Peridotite_08.jpg style=""width:8cm; height:6.7cm;""><p style='font-size: 30px; color: red;'><strong>Incorrect!</strong></p><p style='font-size: 30px;'><strong>This rock is peridotite</strong></p>","0","corr_feedback","1","train","42","","","","","","","",""
"","","","","","","","","","","","html-button-response","189","2.0.0","903385","6598ad7d742e25b376094227","1","21","2109","","","","","","","","","<img src= ""rock_img/I_Obsidian_07.jpg"" style=""width:8cm; height:4.76cm;""><p>What type of rock is this?</p>","4","class_response","1","train","43","Obsidian","Obsidian","07","true","5","5","",""
"","","","","","","","","","","","html-button-response","190","2.0.0","905248","6598ad7d742e25b376094227","1","21","1862","","","","","","","","","<img src= rock_img/I_Obsidian_07.jpg style=""width:8cm; height:4.76cm;""><p style='font-size: 30px; color: green;'><strong>Correct!</strong></p><p style='font-size: 30px;'><strong>This rock is obsidian</strong></p>","0","corr_feedback","1","train","43","","","","","","","",""
"","","","","","","","","","","","html-button-response","191","2.0.0","910861","6598ad7d742e25b376094227","1","21","5612","","","","","","","","","<img src= ""rock_img/I_Andesite_01.jpg"" style=""width:8cm; height:5.87cm;""><p>What type of rock is this?</p>","0","class_response","1","train","44","Andesite","Andesite","01","true","1","1","",""
"","","","","","","","","","","","html-button-response","192","2.0.0","912668","6598ad7d742e25b376094227","1","21","1807","","","","","","","","","<img src= rock_img/I_Andesite_01.jpg style=""width:8cm; height:5.87cm;""><p style='font-size: 30px; color: green;'><strong>Correct!</strong></p><p style='font-size: 30px;'><strong>This rock is andesite</strong></p>","0","corr_feedback","1","train","44","","","","","","","",""
"","","","","","","","","","","","html-button-response","193","2.0.0","919572","6598ad7d742e25b376094227","1","21","6902","","","","","","","","","<img src= ""rock_img/I_Diorite_02.jpg"" style=""width:8cm; height:6.27cm;""><p>What type of rock is this?</p>","6","class_response","1","train","45","Peridotite","Diorite","02","false","7","3","",""
"","","","","","","","","","","","html-button-response","194","2.0.0","921942","6598ad7d742e25b376094227","1","21","2369","","","","","","","","","<img src= rock_img/I_Diorite_02.jpg style=""width:8cm; height:6.27cm;""><p style='font-size: 30px; color: red;'><strong>Incorrect!</strong></p><p style='font-size: 30px;'><strong>This rock is diorite</strong></p>","0","corr_feedback","1","train","45","","","","","","","",""
"","","","","","","","","","","","html-button-response","195","2.0.0","934373","6598ad7d742e25b376094227","1","21","12431","","","","","","","","","<img src= ""rock_img/I_Gabbro_09.jpg"" style=""width:8cm; height:7.279999999999999cm;""><p>What type of rock is this?</p>","0","class_response","1","train","46","Andesite","Gabbro","09","false","1","4","",""
"","","","","","","","","","","","html-button-response","196","2.0.0","936451","6598ad7d742e25b376094227","1","21","2077","","","","","","","","","<img src= rock_img/I_Gabbro_09.jpg style=""width:8cm; height:7.279999999999999cm;""><p style='font-size: 30px; color: red;'><strong>Incorrect!</strong></p><p style='font-size: 30px;'><strong>This rock is gabbro</strong></p>","0","corr_feedback","1","train","46","","","","","","","",""
"","","","","","","","","","","","html-button-response","197","2.0.0","940416","6598ad7d742e25b376094227","1","21","3965","","","","","","","","","<img src= ""rock_img/I_Basalt_09.jpg"" style=""width:8cm; height:6.2cm;""><p>What type of rock is this?</p>","1","class_response","1","train","47","Basalt","Basalt","09","true","2","2","",""
"","","","","","","","","","","","html-button-response","198","2.0.0","941892","6598ad7d742e25b376094227","1","21","1475","","","","","","","","","<img src= rock_img/I_Basalt_09.jpg style=""width:8cm; height:6.2cm;""><p style='font-size: 30px; color: green;'><strong>Correct!</strong></p><p style='font-size: 30px;'><strong>This rock is basalt</strong></p>","0","corr_feedback","1","train","47","","","","","","","",""
"","","","","","","","","","","","html-button-response","199","2.0.0","945713","6598ad7d742e25b376094227","1","21","3819","","","","","","","","","<img src= ""rock_img/I_Basalt_16.jpg"" style=""width:8cm; height:7.659999999999999cm;""><p>What type of rock is this?</p>","1","class_response","1","train","48","Basalt","Basalt","16","true","2","2","",""
"","","","","","","","","","","","html-button-response","200","2.0.0","947697","6598ad7d742e25b376094227","1","21","1984","","","","","","","","","<img src= rock_img/I_Basalt_16.jpg style=""width:8cm; height:7.659999999999999cm;""><p style='font-size: 30px; color: green;'><strong>Correct!</strong></p><p style='font-size: 30px;'><strong>This rock is basalt</strong></p>","0","corr_feedback","1","train","48","","","","","","","",""
"","","","","","","","","","","","instructions","203","2.0.0","967546","6598ad7d742e25b376094227","1","21","19848","","","","","","","","[{""page_index"":0,""viewing_time"":6084},{""page_index"":1,""viewing_time"":13764}]","","","","","","","","","","","","","",""
"","","","","","","","","","","","html-button-response","204","2.0.0","970025","6598ad7d742e25b376094227","1","21","2478","","","","","","","","","","0","start_test","","","","","","","","","","",""
"","","","","","","","","","","","html-button-response","205","2.0.0","974065","6598ad7d742e25b376094227","1","21","4038","","","","","","","","","<img src= ""rock_img/I_Pumice_15.jpg"" style=""width:8cm; height:7.86cm;""><p>What type of rock is this?</p>","7","class_response","1","test","1","Pumice","Pumice","15","true","8","8","",""
"","","","","","","","","","","","html-keyboard-response","206","2.0.0","974567","6598ad7d742e25b376094227","1","21","null","","","","","","","","","<p style='font-size: 30px;'><strong>Okay</strong></p>","null","neutral_feedback","1","test","1","","","","","","","",""
"","","","","","","","","","","","html-button-response","207","2.0.0","985627","6598ad7d742e25b376094227","1","21","11059","","","","","","","","","<img src= ""rock_img/I_Pegmatite_16.jpg"" style=""width:8cm; height:5.8cm;""><p>What type of rock is this?</p>","5","class_response","1","test","2","Pegmatite","Pegmatite","16","true","6","6","",""
"","","","","","","","","","","","html-keyboard-response","208","2.0.0","986130","6598ad7d742e25b376094227","1","21","null","","","","","","","","","<p style='font-size: 30px;'><strong>Okay</strong></p>","null","neutral_feedback","1","test","2","","","","","","","",""
"","","","","","","","","","","","html-button-response","209","2.0.0","990442","6598ad7d742e25b376094227","1","21","4311","","","","","","","","","<img src= ""rock_img/I_Peridotite_07.jpg"" style=""width:8cm; height:4.83cm;""><p>What type of rock is this?</p>","3","class_response","1","test","3","Gabbro","Peridotite","07","false","4","7","",""
"","","","","","","","","","","","html-keyboard-response","210","2.0.0","990944","6598ad7d742e25b376094227","1","21","null","","","","","","","","","<p style='font-size: 30px;'><strong>Okay</strong></p>","null","neutral_feedback","1","test","3","","","","","","","",""
"","","","","","","","","","","","html-button-response","211","2.0.0","993477","6598ad7d742e25b376094227","1","21","2532","","","","","","","","","<img src= ""rock_img/I_Andesite_06.jpg"" style=""width:8cm; height:6.840000000000001cm;""><p>What type of rock is this?</p>","0","class_response","1","test","4","Andesite","Andesite","06","true","1","1","",""
"","","","","","","","","","","","html-keyboard-response","212","2.0.0","993979","6598ad7d742e25b376094227","1","21","null","","","","","","","","","<p style='font-size: 30px;'><strong>Okay</strong></p>","null","neutral_feedback","1","test","4","","","","","","","",""
"","","","","","","","","","","","html-button-response","213","2.0.0","997343","6598ad7d742e25b376094227","1","21","3364","","","","","","","","","<img src= ""rock_img/I_Gabbro_12.jpg"" style=""width:8cm; height:7.800000000000001cm;""><p>What type of rock is this?</p>","0","class_response","1","test","5","Andesite","Gabbro","12","false","1","4","",""
"","","","","","","","","","","","html-keyboard-response","214","2.0.0","997849","6598ad7d742e25b376094227","1","21","null","","","","","","","","","<p style='font-size: 30px;'><strong>Okay</strong></p>","null","neutral_feedback","1","test","5","","","","","","","",""
"","","","","","","","","","","","html-button-response","215","2.0.0","1004292","6598ad7d742e25b376094227","1","21","6442","","","","","","","","","<img src= ""rock_img/I_Diorite_15.jpg"" style=""width:8cm; height:5.54cm;""><p>What type of rock is this?</p>","6","class_response","1","test","6","Peridotite","Diorite","15","false","7","3","",""
"","","","","","","","","","","","html-keyboard-response","216","2.0.0","1004795","6598ad7d742e25b376094227","1","21","null","","","","","","","","","<p style='font-size: 30px;'><strong>Okay</strong></p>","null","neutral_feedback","1","test","6","","","","","","","",""
"","","","","","","","","","","","html-button-response","217","2.0.0","1010599","6598ad7d742e25b376094227","1","21","5803","","","","","","","","","<img src= ""rock_img/I_Pegmatite_06.jpg"" style=""width:8cm; height:5.17cm;""><p>What type of rock is this?</p>","5","class_response","1","test","7","Pegmatite","Pegmatite","06","true","6","6","",""
"","","","","","","","","","","","html-keyboard-response","218","2.0.0","1011107","6598ad7d742e25b376094227","1","21","null","","","","","","","","","<p style='font-size: 30px;'><strong>Okay</strong></p>","null","neutral_feedback","1","test","7","","","","","","","",""
"","","","","","","","","","","","html-button-response","219","2.0.0","1016019","6598ad7d742e25b376094227","1","21","4911","","","","","","","","","<img src= ""rock_img/I_Peridotite_06.jpg"" style=""width:8cm; height:7.53cm;""><p>What type of rock is this?</p>","6","class_response","1","test","8","Peridotite","Peridotite","06","true","7","7","",""
"","","","","","","","","","","","html-keyboard-response","220","2.0.0","1016536","6598ad7d742e25b376094227","1","21","null","","","","","","","","","<p style='font-size: 30px;'><strong>Okay</strong></p>","null","neutral_feedback","1","test","8","","","","","","","",""
"","","","","","","","","","","","html-button-response","221","2.0.0","1018802","6598ad7d742e25b376094227","1","21","2265","","","","","","","","","<img src= ""rock_img/I_Pegmatite_11.jpg"" style=""width:8cm; height:8.14cm;""><p>What type of rock is this?</p>","4","class_response","1","test","9","Obsidian","Pegmatite","11","false","5","6","",""
"","","","","","","","","","","","html-keyboard-response","222","2.0.0","1019317","6598ad7d742e25b376094227","1","21","null","","","","","","","","","<p style='font-size: 30px;'><strong>Okay</strong></p>","null","neutral_feedback","1","test","9","","","","","","","",""
"","","","","","","","","","","","html-button-response","223","2.0.0","1022195","6598ad7d742e25b376094227","1","21","2877","","","","","","","","","<img src= ""rock_img/I_Pegmatite_15.jpg"" style=""width:8cm; height:6cm;""><p>What type of rock is this?</p>","4","class_response","1","test","10","Obsidian","Pegmatite","15","false","5","6","",""
"","","","","","","","","","","","html-keyboard-response","224","2.0.0","1022708","6598ad7d742e25b376094227","1","21","null","","","","","","","","","<p style='font-size: 30px;'><strong>Okay</strong></p>","null","neutral_feedback","1","test","10","","","","","","","",""
"","","","","","","","","","","","html-button-response","225","2.0.0","1023859","6598ad7d742e25b376094227","1","21","1150","","","","","","","","","<img src= ""rock_img/I_Obsidian_06.jpg"" style=""width:8cm; height:6.8cm;""><p>What type of rock is this?</p>","4","class_response","1","test","11","Obsidian","Obsidian","06","true","5","5","",""
"","","","","","","","","","","","html-keyboard-response","226","2.0.0","1024364","6598ad7d742e25b376094227","1","21","null","","","","","","","","","<p style='font-size: 30px;'><strong>Okay</strong></p>","null","neutral_feedback","1","test","11","","","","","","","",""
"","","","","","","","","","","","html-button-response","227","2.0.0","1027681","6598ad7d742e25b376094227","1","21","3316","","","","","","","","","<img src= ""rock_img/I_Peridotite_16.jpg"" style=""width:8cm; height:6.989999999999999cm;""><p>What type of rock is this?</p>","3","class_response","1","test","12","Gabbro","Peridotite","16","false","4","7","",""
"","","","","","","","","","","","html-keyboard-response","228","2.0.0","1028183","6598ad7d742e25b376094227","1","21","null","","","","","","","","","<p style='font-size: 30px;'><strong>Okay</strong></p>","null","neutral_feedback","1","test","12","","","","","","","",""
"","","","","","","","","","","","html-button-response","229","2.0.0","1036395","6598ad7d742e25b376094227","1","21","8212","","","","","","","","","<img src= ""rock_img/I_Pumice_09.jpg"" style=""width:8cm; height:6.44cm;""><p>What type of rock is this?</p>","7","class_response","1","test","13","Pumice","Pumice","09","true","8","8","",""
"","","","","","","","","","","","html-keyboard-response","230","2.0.0","1036896","6598ad7d742e25b376094227","1","21","null","","","","","","","","","<p style='font-size: 30px;'><strong>Okay</strong></p>","null","neutral_feedback","1","test","13","","","","","","","",""
"","","","","","","","","","","","html-button-response","231","2.0.0","1038417","6598ad7d742e25b376094227","1","21","1520","","","","","","","","","<img src= ""rock_img/I_Pumice_04.jpg"" style=""width:8cm; height:6.819999999999999cm;""><p>What type of rock is this?</p>","7","class_response","1","test","14","Pumice","Pumice","04","true","8","8","",""
"","","","","","","","","","","","html-keyboard-response","232","2.0.0","1038927","6598ad7d742e25b376094227","1","21","null","","","","","","","","","<p style='font-size: 30px;'><strong>Okay</strong></p>","null","neutral_feedback","1","test","14","","","","","","","",""
"","","","","","","","","","","","html-button-response","233","2.0.0","1044288","6598ad7d742e25b376094227","1","21","5359","","","","","","","","","<img src= ""rock_img/I_Gabbro_15.jpg"" style=""width:8cm; height:6.29cm;""><p>What type of rock is this?</p>","6","class_response","1","test","15","Peridotite","Gabbro","15","false","7","4","",""
"","","","","","","","","","","","html-keyboard-response","234","2.0.0","1044802","6598ad7d742e25b376094227","1","21","null","","","","","","","","","<p style='font-size: 30px;'><strong>Okay</strong></p>","null","neutral_feedback","1","test","15","","","","","","","",""
"","","","","","","","","","","","html-button-response","235","2.0.0","1051098","6598ad7d742e25b376094227","1","21","6295","","","","","","","","","<img src= ""rock_img/I_Peridotite_15.jpg"" style=""width:8cm; height:6cm;""><p>What type of rock is this?</p>","2","class_response","1","test","16","Diorite","Peridotite","15","false","3","7","",""
"","","","","","","","","","","","html-keyboard-response","236","2.0.0","1051615","6598ad7d742e25b376094227","1","21","null","","","","","","","","","<p style='font-size: 30px;'><strong>Okay</strong></p>","null","neutral_feedback","1","test","16","","","","","","","",""
"","","","","","","","","","","","html-button-response","237","2.0.0","1059849","6598ad7d742e25b376094227","1","21","8233","","","","","","","","","<img src= ""rock_img/I_Diorite_08.jpg"" style=""width:8cm; height:6.37cm;""><p>What type of rock is this?</p>","5","class_response","1","test","17","Pegmatite","Diorite","08","false","6","3","",""
"","","","","","","","","","","","html-keyboard-response","238","2.0.0","1060365","6598ad7d742e25b376094227","1","21","null","","","","","","","","","<p style='font-size: 30px;'><strong>Okay</strong></p>","null","neutral_feedback","1","test","17","","","","","","","",""
"","","","","","","","","","","","html-button-response","239","2.0.0","1062777","6598ad7d742e25b376094227","1","21","2411","","","","","","","","","<img src= ""rock_img/I_Pumice_10.jpg"" style=""width:8cm; height:7.609999999999999cm;""><p>What type of rock is this?</p>","7","class_response","1","test","18","Pumice","Pumice","10","true","8","8","",""
"","","","","","","","","","","","html-keyboard-response","240","2.0.0","1063286","6598ad7d742e25b376094227","1","21","null","","","","","","","","","<p style='font-size: 30px;'><strong>Okay</strong></p>","null","neutral_feedback","1","test","18","","","","","","","",""
"","","","","","","","","","","","html-button-response","241","2.0.0","1067906","6598ad7d742e25b376094227","1","21","4619","","","","","","","","","<img src= ""rock_img/I_Basalt_08.jpg"" style=""width:8cm; height:10.44cm;""><p>What type of rock is this?</p>","1","class_response","1","test","19","Basalt","Basalt","08","true","2","2","",""
"","","","","","","","","","","","html-keyboard-response","242","2.0.0","1068411","6598ad7d742e25b376094227","1","21","null","","","","","","","","","<p style='font-size: 30px;'><strong>Okay</strong></p>","null","neutral_feedback","1","test","19","","","","","","","",""
"","","","","","","","","","","","html-button-response","243","2.0.0","1070401","6598ad7d742e25b376094227","1","21","1988","","","","","","","","","<img src= ""rock_img/I_Basalt_04.jpg"" style=""width:8cm; height:7.53cm;""><p>What type of rock is this?</p>","1","class_response","1","test","20","Basalt","Basalt","04","true","2","2","",""
"","","","","","","","","","","","html-keyboard-response","244","2.0.0","1070926","6598ad7d742e25b376094227","1","21","null","","","","","","","","","<p style='font-size: 30px;'><strong>Okay</strong></p>","null","neutral_feedback","1","test","20","","","","","","","",""
"","","","","","","","","","","","html-button-response","245","2.0.0","1081251","6598ad7d742e25b376094227","1","21","10324","","","","","","","","","<img src= ""rock_img/I_Gabbro_11.jpg"" style=""width:8cm; height:6.2cm;""><p>What type of rock is this?</p>","0","class_response","1","test","21","Andesite","Gabbro","11","false","1","4","",""
"","","","","","","","","","","","html-keyboard-response","246","2.0.0","1081755","6598ad7d742e25b376094227","1","21","null","","","","","","","","","<p style='font-size: 30px;'><strong>Okay</strong></p>","null","neutral_feedback","1","test","21","","","","","","","",""
"","","","","","","","","","","","html-button-response","247","2.0.0","1091034","6598ad7d742e25b376094227","1","21","9278","","","","","","","","","<img src= ""rock_img/I_Diorite_07.jpg"" style=""width:8cm; height:5.239999999999999cm;""><p>What type of rock is this?</p>","5","class_response","1","test","22","Pegmatite","Diorite","07","false","6","3","",""
"","","","","","","","","","","","html-keyboard-response","248","2.0.0","1091536","6598ad7d742e25b376094227","1","21","null","","","","","","","","","<p style='font-size: 30px;'><strong>Okay</strong></p>","null","neutral_feedback","1","test","22","","","","","","","",""
"","","","","","","","","","","","html-button-response","249","2.0.0","1094003","6598ad7d742e25b376094227","1","21","2466","","","","","","","","","<img src= ""rock_img/I_Andesite_05.jpg"" style=""width:8cm; height:4.12cm;""><p>What type of rock is this?</p>","0","class_response","1","test","23","Andesite","Andesite","05","true","1","1","",""
"","","","","","","","","","","","html-keyboard-response","250","2.0.0","1094504","6598ad7d742e25b376094227","1","21","null","","","","","","","","","<p style='font-size: 30px;'><strong>Okay</strong></p>","null","neutral_feedback","1","test","23","","","","","","","",""
"","","","","","","","","","","","html-button-response","251","2.0.0","1096975","6598ad7d742e25b376094227","1","21","2470","","","","","","","","","<img src= ""rock_img/I_Peridotite_12.jpg"" style=""width:8cm; height:4.54cm;""><p>What type of rock is this?</p>","3","class_response","1","test","24","Gabbro","Peridotite","12","false","4","7","",""
"","","","","","","","","","","","html-keyboard-response","252","2.0.0","1097490","6598ad7d742e25b376094227","1","21","null","","","","","","","","","<p style='font-size: 30px;'><strong>Okay</strong></p>","null","neutral_feedback","1","test","24","","","","","","","",""
"","","","","","","","","","","","html-button-response","253","2.0.0","1099635","6598ad7d742e25b376094227","1","21","2144","","","","","","","","","<img src= ""rock_img/I_Obsidian_04.jpg"" style=""width:8cm; height:6.930000000000001cm;""><p>What type of rock is this?</p>","4","class_response","1","test","25","Obsidian","Obsidian","04","true","5","5","",""
"","","","","","","","","","","","html-keyboard-response","254","2.0.0","1100137","6598ad7d742e25b376094227","1","21","null","","","","","","","","","<p style='font-size: 30px;'><strong>Okay</strong></p>","null","neutral_feedback","1","test","25","","","","","","","",""
"","","","","","","","","","","","html-button-response","255","2.0.0","1103749","6598ad7d742e25b376094227","1","21","3611","","","","","","","","","<img src= ""rock_img/I_Andesite_14.jpg"" style=""width:8cm; height:5.449999999999999cm;""><p>What type of rock is this?</p>","0","class_response","1","test","26","Andesite","Andesite","14","true","1","1","",""
"","","","","","","","","","","","html-keyboard-response","256","2.0.0","1104255","6598ad7d742e25b376094227","1","21","null","","","","","","","","","<p style='font-size: 30px;'><strong>Okay</strong></p>","null","neutral_feedback","1","test","26","","","","","","","",""
"","","","","","","","","","","","html-button-response","257","2.0.0","1106027","6598ad7d742e25b376094227","1","21","1770","","","","","","","","","<img src= ""rock_img/I_Obsidian_05.jpg"" style=""width:8cm; height:6.33cm;""><p>What type of rock is this?</p>","4","class_response","1","test","27","Obsidian","Obsidian","05","true","5","5","",""
"","","","","","","","","","","","html-keyboard-response","258","2.0.0","1106536","6598ad7d742e25b376094227","1","21","null","","","","","","","","","<p style='font-size: 30px;'><strong>Okay</strong></p>","null","neutral_feedback","1","test","27","","","","","","","",""
"","","","","","","","","","","","html-button-response","259","2.0.0","1110142","6598ad7d742e25b376094227","1","21","3606","","","","","","","","","<img src= ""rock_img/I_Basalt_11.jpg"" style=""width:8cm; height:5.359999999999999cm;""><p>What type of rock is this?</p>","1","class_response","1","test","28","Basalt","Basalt","11","true","2","2","",""
"","","","","","","","","","","","html-keyboard-response","260","2.0.0","1110661","6598ad7d742e25b376094227","1","21","null","","","","","","","","","<p style='font-size: 30px;'><strong>Okay</strong></p>","null","neutral_feedback","1","test","28","","","","","","","",""
"","","","","","","","","","","","html-button-response","261","2.0.0","1114207","6598ad7d742e25b376094227","1","21","3545","","","","","","","","","<img src= ""rock_img/I_Andesite_10.jpg"" style=""width:8cm; height:4.16cm;""><p>What type of rock is this?</p>","1","class_response","1","test","29","Basalt","Andesite","10","false","2","1","",""
"","","","","","","","","","","","html-keyboard-response","262","2.0.0","1114708","6598ad7d742e25b376094227","1","21","null","","","","","","","","","<p style='font-size: 30px;'><strong>Okay</strong></p>","null","neutral_feedback","1","test","29","","","","","","","",""
"","","","","","","","","","","","html-button-response","263","2.0.0","1116718","6598ad7d742e25b376094227","1","21","2009","","","","","","","","","<img src= ""rock_img/I_Pumice_13.jpg"" style=""width:8cm; height:8.200000000000001cm;""><p>What type of rock is this?</p>","7","class_response","1","test","30","Pumice","Pumice","13","true","8","8","",""
"","","","","","","","","","","","html-keyboard-response","264","2.0.0","1117223","6598ad7d742e25b376094227","1","21","null","","","","","","","","","<p style='font-size: 30px;'><strong>Okay</strong></p>","null","neutral_feedback","1","test","30","","","","","","","",""
"","","","","","","","","","","","html-button-response","265","2.0.0","1132356","6598ad7d742e25b376094227","1","21","15131","","","","","","","","","<img src= ""rock_img/I_Diorite_09.jpg"" style=""width:8cm; height:5.27cm;""><p>What type of rock is this?</p>","5","class_response","1","test","31","Pegmatite","Diorite","09","false","6","3","",""
"","","","","","","","","","","","html-keyboard-response","266","2.0.0","1132864","6598ad7d742e25b376094227","1","21","null","","","","","","","","","<p style='font-size: 30px;'><strong>Okay</strong></p>","null","neutral_feedback","1","test","31","","","","","","","",""
"","","","","","","","","","","","html-button-response","267","2.0.0","1136060","6598ad7d742e25b376094227","1","21","3195","","","","","","","","","<img src= ""rock_img/I_Andesite_09.jpg"" style=""width:8cm; height:6cm;""><p>What type of rock is this?</p>","0","class_response","1","test","32","Andesite","Andesite","09","true","1","1","",""
"","","","","","","","","","","","html-keyboard-response","268","2.0.0","1136570","6598ad7d742e25b376094227","1","21","null","","","","","","","","","<p style='font-size: 30px;'><strong>Okay</strong></p>","null","neutral_feedback","1","test","32","","","","","","","",""
"","","","","","","","","","","","html-button-response","269","2.0.0","1140775","6598ad7d742e25b376094227","1","21","4204","","","","","","","","","<img src= ""rock_img/I_Pegmatite_13.jpg"" style=""width:8cm; height:4.95cm;""><p>What type of rock is this?</p>","5","class_response","1","test","33","Pegmatite","Pegmatite","13","true","6","6","",""
"","","","","","","","","","","","html-keyboard-response","270","2.0.0","1141276","6598ad7d742e25b376094227","1","21","null","","","","","","","","","<p style='font-size: 30px;'><strong>Okay</strong></p>","null","neutral_feedback","1","test","33","","","","","","","",""
"","","","","","","","","","","","html-button-response","271","2.0.0","1144645","6598ad7d742e25b376094227","1","21","3368","","","","","","","","","<img src= ""rock_img/I_Andesite_02.jpg"" style=""width:8cm; height:8.5cm;""><p>What type of rock is this?</p>","6","class_response","1","test","34","Peridotite","Andesite","02","false","7","1","",""
"","","","","","","","","","","","html-keyboard-response","272","2.0.0","1145147","6598ad7d742e25b376094227","1","21","null","","","","","","","","","<p style='font-size: 30px;'><strong>Okay</strong></p>","null","neutral_feedback","1","test","34","","","","","","","",""
"","","","","","","","","","","","html-button-response","273","2.0.0","1148814","6598ad7d742e25b376094227","1","21","3666","","","","","","","","","<img src= ""rock_img/I_Gabbro_16.jpg"" style=""width:8cm; height:6.44cm;""><p>What type of rock is this?</p>","1","class_response","1","test","35","Basalt","Gabbro","16","false","2","4","",""
"","","","","","","","","","","","html-keyboard-response","274","2.0.0","1149318","6598ad7d742e25b376094227","1","21","null","","","","","","","","","<p style='font-size: 30px;'><strong>Okay</strong></p>","null","neutral_feedback","1","test","35","","","","","","","",""
"","","","","","","","","","","","html-button-response","275","2.0.0","1152311","6598ad7d742e25b376094227","1","21","2992","","","","","","","","","<img src= ""rock_img/I_Pegmatite_09.jpg"" style=""width:8cm; height:4.03cm;""><p>What type of rock is this?</p>","6","class_response","1","test","36","Peridotite","Pegmatite","09","false","7","6","",""
"","","","","","","","","","","","html-keyboard-response","276","2.0.0","1152817","6598ad7d742e25b376094227","1","21","null","","","","","","","","","<p style='font-size: 30px;'><strong>Okay</strong></p>","null","neutral_feedback","1","test","36","","","","","","","",""
"","","","","","","","","","","","html-button-response","277","2.0.0","1158656","6598ad7d742e25b376094227","1","21","5838","","","","","","","","","<img src= ""rock_img/I_Diorite_12.jpg"" style=""width:8cm; height:4.88cm;""><p>What type of rock is this?</p>","3","class_response","1","test","37","Gabbro","Diorite","12","false","4","3","",""
"","","","","","","","","","","","html-keyboard-response","278","2.0.0","1159157","6598ad7d742e25b376094227","1","21","null","","","","","","","","","<p style='font-size: 30px;'><strong>Okay</strong></p>","null","neutral_feedback","1","test","37","","","","","","","",""
"","","","","","","","","","","","html-button-response","279","2.0.0","1161339","6598ad7d742e25b376094227","1","21","2181","","","","","","","","","<img src= ""rock_img/I_Obsidian_11.jpg"" style=""width:8cm; height:6.05cm;""><p>What type of rock is this?</p>","4","class_response","1","test","38","Obsidian","Obsidian","11","true","5","5","",""
"","","","","","","","","","","","html-keyboard-response","280","2.0.0","1161840","6598ad7d742e25b376094227","1","21","null","","","","","","","","","<p style='font-size: 30px;'><strong>Okay</strong></p>","null","neutral_feedback","1","test","38","","","","","","","",""
"","","","","","","","","","","","html-button-response","281","2.0.0","1182908","6598ad7d742e25b376094227","1","21","21067","","","","","","","","","<img src= ""rock_img/I_Gabbro_10.jpg"" style=""width:8cm; height:5.680000000000001cm;""><p>What type of rock is this?</p>","2","class_response","1","test","39","Diorite","Gabbro","10","false","3","4","",""
"","","","","","","","","","","","html-keyboard-response","282","2.0.0","1183411","6598ad7d742e25b376094227","1","21","null","","","","","","","","","<p style='font-size: 30px;'><strong>Okay</strong></p>","null","neutral_feedback","1","test","39","","","","","","","",""
"","","","","","","","","","","","html-button-response","283","2.0.0","1185584","6598ad7d742e25b376094227","1","21","2173","","","","","","","","","<img src= ""rock_img/I_Obsidian_02.jpg"" style=""width:8cm; height:7.51cm;""><p>What type of rock is this?</p>","4","class_response","1","test","40","Obsidian","Obsidian","02","true","5","5","",""
"","","","","","","","","","","","html-keyboard-response","284","2.0.0","1186098","6598ad7d742e25b376094227","1","21","null","","","","","","","","","<p style='font-size: 30px;'><strong>Okay</strong></p>","null","neutral_feedback","1","test","40","","","","","","","",""
"","","","","","","","","","","","html-button-response","285","2.0.0","1189472","6598ad7d742e25b376094227","1","21","3373","","","","","","","","","<img src= ""rock_img/I_Gabbro_08.jpg"" style=""width:8cm; height:5.15cm;""><p>What type of rock is this?</p>","3","class_response","1","test","41","Gabbro","Gabbro","08","true","4","4","",""
"","","","","","","","","","","","html-keyboard-response","286","2.0.0","1189986","6598ad7d742e25b376094227","1","21","null","","","","","","","","","<p style='font-size: 30px;'><strong>Okay</strong></p>","null","neutral_feedback","1","test","41","","","","","","","",""
"","","","","","","","","","","","html-button-response","287","2.0.0","1192182","6598ad7d742e25b376094227","1","21","2195","","","","","","","","","<img src= ""rock_img/I_Obsidian_16.jpg"" style=""width:8cm; height:9.3cm;""><p>What type of rock is this?</p>","4","class_response","1","test","42","Obsidian","Obsidian","16","true","5","5","",""
"","","","","","","","","","","","html-keyboard-response","288","2.0.0","1192692","6598ad7d742e25b376094227","1","21","null","","","","","","","","","<p style='font-size: 30px;'><strong>Okay</strong></p>","null","neutral_feedback","1","test","42","","","","","","","",""
"","","","","","","","","","","","html-button-response","289","2.0.0","1195394","6598ad7d742e25b376094227","1","21","2700","","","","","","","","","<img src= ""rock_img/I_Pumice_02.jpg"" style=""width:8cm; height:7.3999999999999995cm;""><p>What type of rock is this?</p>","7","class_response","1","test","43","Pumice","Pumice","02","true","8","8","",""
"","","","","","","","","","","","html-keyboard-response","290","2.0.0","1195897","6598ad7d742e25b376094227","1","21","null","","","","","","","","","<p style='font-size: 30px;'><strong>Okay</strong></p>","null","neutral_feedback","1","test","43","","","","","","","",""
"","","","","","","","","","","","html-button-response","291","2.0.0","1198303","6598ad7d742e25b376094227","1","21","2405","","","","","","","","","<img src= ""rock_img/I_Peridotite_10.jpg"" style=""width:8cm; height:5.390000000000001cm;""><p>What type of rock is this?</p>","3","class_response","1","test","44","Gabbro","Peridotite","10","false","4","7","",""
"","","","","","","","","","","","html-keyboard-response","292","2.0.0","1198818","6598ad7d742e25b376094227","1","21","null","","","","","","","","","<p style='font-size: 30px;'><strong>Okay</strong></p>","null","neutral_feedback","1","test","44","","","","","","","",""
"","","","","","","","","","","","html-button-response","293","2.0.0","1207037","6598ad7d742e25b376094227","1","21","8217","","","","","","","","","<img src= ""rock_img/I_Diorite_06.jpg"" style=""width:8cm; height:6.03cm;""><p>What type of rock is this?</p>","5","class_response","1","test","45","Pegmatite","Diorite","06","false","6","3","",""
"","","","","","","","","","","","html-keyboard-response","294","2.0.0","1207544","6598ad7d742e25b376094227","1","21","null","","","","","","","","","<p style='font-size: 30px;'><strong>Okay</strong></p>","null","neutral_feedback","1","test","45","","","","","","","",""
"","","","","","","","","","","","html-button-response","295","2.0.0","1220624","6598ad7d742e25b376094227","1","21","13079","","","","","","","","","<img src= ""rock_img/I_Basalt_12.jpg"" style=""width:8cm; height:6.010000000000001cm;""><p>What type of rock is this?</p>","1","class_response","1","test","46","Basalt","Basalt","12","true","2","2","",""
"","","","","","","","","","","","html-keyboard-response","296","2.0.0","1221130","6598ad7d742e25b376094227","1","21","null","","","","","","","","","<p style='font-size: 30px;'><strong>Okay</strong></p>","null","neutral_feedback","1","test","46","","","","","","","",""
"","","","","","","","","","","","html-button-response","297","2.0.0","1223489","6598ad7d742e25b376094227","1","21","2358","","","","","","","","","<img src= ""rock_img/I_Basalt_10.jpg"" style=""width:8cm; height:5.85cm;""><p>What type of rock is this?</p>","1","class_response","1","test","47","Basalt","Basalt","10","true","2","2","",""
"","","","","","","","","","","","html-keyboard-response","298","2.0.0","1224005","6598ad7d742e25b376094227","1","21","null","","","","","","","","","<p style='font-size: 30px;'><strong>Okay</strong></p>","null","neutral_feedback","1","test","47","","","","","","","",""
"","","","","","","","","","","","html-button-response","299","2.0.0","1226371","6598ad7d742e25b376094227","1","21","2365","","","","","","","","","<img src= ""rock_img/I_Basalt_14.jpg"" style=""width:8cm; height:5.82cm;""><p>What type of rock is this?</p>","1","class_response","1","test","48","Basalt","Basalt","14","true","2","2","",""
"","","","","","","","","","","","html-keyboard-response","300","2.0.0","1226880","6598ad7d742e25b376094227","1","21","null","","","","","","","","","<p style='font-size: 30px;'><strong>Okay</strong></p>","null","neutral_feedback","1","test","48","","","","","","","",""
"","","","","","","","","","","","html-button-response","301","2.0.0","1260316","6598ad7d742e25b376094227","1","21","","","","","","","","","","","","cycle_feedback","","","","","","","","","","11760","21672.59999999404"
"","","","","","","","","","","","html-button-response","303","2.0.0","1262504","6598ad7d742e25b376094227","1","21","2187","","","","","","","","","","0","start_train","","","","","","","","","","",""
"","","","","","","","","","","","html-button-response","304","2.0.0","1269689","6598ad7d742e25b376094227","1","21","7183","","","","","","","","","<img src= ""rock_img/I_Diorite_16.jpg"" style=""width:8cm; height:6.74cm;""><p>What type of rock is this?</p>","6","class_response","2","train","1","Peridotite","Diorite","16","false","7","3","",""
