"width","height","webaudio","browser","browser_version","mobile","os","fullscreen","vsync_rate","webcam","microphone","trial_type","trial_index","plugin_version","time_elapsed","subjID","condition","stimID","rt","url","success","value","timeout","failed_images","failed_audio","failed_video","view_history","stimulus","response","trialType","cycle","phase","trial","resp","cat","token","corr","resp_num","cat_num","time_fb1","time_fb2"
"1536","730","true","chrome","131.0.0","false","Windows 10","true","61.22","false","true","browser-check","0","2.0.0","35033","66dc48cea9a85fe230c06b5f","1","37","","","","","","","","","","","","","","","","","","","","","","",""
"","","","","","","","","","","","external-html","1","2.0.0","4509379","66dc48cea9a85fe230c06b5f","1","37","4473847","consent_form.html","","","","","","","","","","","","","","","","","","","","",""
"","","","","","","","","","","","fullscreen","2","2.0.0","4511752","66dc48cea9a85fe230c06b5f","1","37","1358","","true","","","","","","","","","","","","","","","","","","","",""
"","","","","","","","","","","","call-function","3","2.0.0","4511756","66dc48cea9a85fe230c06b5f","1","37","","","","{}","","","","","","","","","","","","","","","","","","",""
"","","","","","","","","","","","preload","4","2.0.0","4527446","66dc48cea9a85fe230c06b5f","1","37","","","true","","false","[]","[]","[]","","","","","","","","","","","","","","",""
"","","","","","","","","","","","instructions","5","2.0.0","4551335","66dc48cea9a85fe230c06b5f","1","37","23882","","","","","","","","[{""page_index"":0,""viewing_time"":10279},{""page_index"":1,""viewing_time"":8799},{""page_index"":2,""viewing_time"":4803}]","","","","","","","","","","","","","",""
"","","","","","","","","","","","html-button-response","6","2.0.0","4554755","66dc48cea9a85fe230c06b5f","1","37","3418","","","","","","","","","","0","start_test","","","","","","","","","","",""
"","","","","","","","","","","","html-button-response","7","2.0.0","4566643","66dc48cea9a85fe230c06b5f","1","37","11885","","","","","","","","","<img src= ""rock_img/I_Obsidian_16.jpg"" style=""width:8cm; height:9.3cm;""><p>What type of rock is this?</p>","1","class_response","0","test","1","Basalt","Obsidian","16","false","2","5","",""
"","","","","","","","","","","","html-keyboard-response","8","2.0.0","4567157","66dc48cea9a85fe230c06b5f","1","37","null","","","","","","","","","<p style='font-size: 30px;'><strong>Okay</strong></p>","null","neutral_feedback","0","test","1","","","","","","","",""
"","","","","","","","","","","","html-button-response","9","2.0.0","4569267","66dc48cea9a85fe230c06b5f","1","37","2107","","","","","","","","","<img src= ""rock_img/I_Diorite_15.jpg"" style=""width:8cm; height:5.54cm;""><p>What type of rock is this?</p>","3","class_response","0","test","2","Gabbro","Diorite","15","false","4","3","",""
"","","","","","","","","","","","html-keyboard-response","10","2.0.0","4569773","66dc48cea9a85fe230c06b5f","1","37","null","","","","","","","","","<p style='font-size: 30px;'><strong>Okay</strong></p>","null","neutral_feedback","0","test","2","","","","","","","",""
"","","","","","","","","","","","html-button-response","11","2.0.0","4575767","66dc48cea9a85fe230c06b5f","1","37","5991","","","","","","","","","<img src= ""rock_img/I_Obsidian_14.jpg"" style=""width:8cm; height:7.64cm;""><p>What type of rock is this?</p>","7","class_response","0","test","3","Pumice","Obsidian","14","false","8","5","",""
"","","","","","","","","","","","html-keyboard-response","12","2.0.0","4576284","66dc48cea9a85fe230c06b5f","1","37","null","","","","","","","","","<p style='font-size: 30px;'><strong>Okay</strong></p>","null","neutral_feedback","0","test","3","","","","","","","",""
"","","","","","","","","","","","html-button-response","13","2.0.0","4576925","66dc48cea9a85fe230c06b5f","1","37","639","","","","","","","","","<img src= ""rock_img/I_Andesite_03.jpg"" style=""width:8cm; height:5.73cm;""><p>What type of rock is this?</p>","6","class_response","0","test","4","Peridotite","Andesite","03","false","7","1","",""
"","","","","","","","","","","","html-keyboard-response","14","2.0.0","4577434","66dc48cea9a85fe230c06b5f","1","37","null","","","","","","","","","<p style='font-size: 30px;'><strong>Okay</strong></p>","null","neutral_feedback","0","test","4","","","","","","","",""
"","","","","","","","","","","","html-button-response","15","2.0.0","4578216","66dc48cea9a85fe230c06b5f","1","37","781","","","","","","","","","<img src= ""rock_img/I_Basalt_06.jpg"" style=""width:8cm; height:7.06cm;""><p>What type of rock is this?</p>","2","class_response","0","test","5","Diorite","Basalt","06","false","3","2","",""
"","","","","","","","","","","","html-keyboard-response","16","2.0.0","4578729","66dc48cea9a85fe230c06b5f","1","37","null","","","","","","","","","<p style='font-size: 30px;'><strong>Okay</strong></p>","null","neutral_feedback","0","test","5","","","","","","","",""
"","","","","","","","","","","","html-button-response","17","2.0.0","4579627","66dc48cea9a85fe230c06b5f","1","37","895","","","","","","","","","<img src= ""rock_img/I_Pegmatite_16.jpg"" style=""width:8cm; height:5.8cm;""><p>What type of rock is this?</p>","3","class_response","0","test","6","Gabbro","Pegmatite","16","false","4","6","",""
"","","","","","","","","","","","html-keyboard-response","18","2.0.0","4580137","66dc48cea9a85fe230c06b5f","1","37","null","","","","","","","","","<p style='font-size: 30px;'><strong>Okay</strong></p>","null","neutral_feedback","0","test","6","","","","","","","",""
"","","","","","","","","","","","html-button-response","19","2.0.0","4584337","66dc48cea9a85fe230c06b5f","1","37","4198","","","","","","","","","<img src= ""rock_img/I_Pumice_10.jpg"" style=""width:8cm; height:7.609999999999999cm;""><p>What type of rock is this?</p>","7","class_response","0","test","7","Pumice","Pumice","10","true","8","8","",""
"","","","","","","","","","","","html-keyboard-response","20","2.0.0","4584847","66dc48cea9a85fe230c06b5f","1","37","null","","","","","","","","","<p style='font-size: 30px;'><strong>Okay</strong></p>","null","neutral_feedback","0","test","7","","","","","","","",""
"","","","","","","","","","","","html-button-response","21","2.0.0","4586637","66dc48cea9a85fe230c06b5f","1","37","1788","","","","","","","","","<img src= ""rock_img/I_Gabbro_10.jpg"" style=""width:8cm; height:5.680000000000001cm;""><p>What type of rock is this?</p>","6","class_response","0","test","8","Peridotite","Gabbro","10","false","7","4","",""
"","","","","","","","","","","","html-keyboard-response","22","2.0.0","4587141","66dc48cea9a85fe230c06b5f","1","37","null","","","","","","","","","<p style='font-size: 30px;'><strong>Okay</strong></p>","null","neutral_feedback","0","test","8","","","","","","","",""
"","","","","","","","","","","","html-button-response","23","2.0.0","4588902","66dc48cea9a85fe230c06b5f","1","37","1758","","","","","","","","","<img src= ""rock_img/I_Pumice_13.jpg"" style=""width:8cm; height:8.200000000000001cm;""><p>What type of rock is this?</p>","5","class_response","0","test","9","Pegmatite","Pumice","13","false","6","8","",""
"","","","","","","","","","","","html-keyboard-response","24","2.0.0","4589418","66dc48cea9a85fe230c06b5f","1","37","null","","","","","","","","","<p style='font-size: 30px;'><strong>Okay</strong></p>","null","neutral_feedback","0","test","9","","","","","","","",""
"","","","","","","","","","","","html-button-response","25","2.0.0","4591425","66dc48cea9a85fe230c06b5f","1","37","2004","","","","","","","","","<img src= ""rock_img/I_Obsidian_07.jpg"" style=""width:8cm; height:4.76cm;""><p>What type of rock is this?</p>","0","class_response","0","test","10","Andesite","Obsidian","07","false","1","5","",""
"","","","","","","","","","","","html-keyboard-response","26","2.0.0","4591941","66dc48cea9a85fe230c06b5f","1","37","null","","","","","","","","","<p style='font-size: 30px;'><strong>Okay</strong></p>","null","neutral_feedback","0","test","10","","","","","","","",""
"","","","","","","","","","","","html-button-response","27","2.0.0","4594030","66dc48cea9a85fe230c06b5f","1","37","2088","","","","","","","","","<img src= ""rock_img/I_Diorite_06.jpg"" style=""width:8cm; height:6.03cm;""><p>What type of rock is this?</p>","2","class_response","0","test","11","Diorite","Diorite","06","true","3","3","",""
"","","","","","","","","","","","html-keyboard-response","28","2.0.0","4594538","66dc48cea9a85fe230c06b5f","1","37","null","","","","","","","","","<p style='font-size: 30px;'><strong>Okay</strong></p>","null","neutral_feedback","0","test","11","","","","","","","",""
"","","","","","","","","","","","html-button-response","29","2.0.0","4595788","66dc48cea9a85fe230c06b5f","1","37","1247","","","","","","","","","<img src= ""rock_img/I_Peridotite_04.jpg"" style=""width:8cm; height:6.680000000000001cm;""><p>What type of rock is this?</p>","5","class_response","0","test","12","Pegmatite","Peridotite","04","false","6","7","",""
"","","","","","","","","","","","html-keyboard-response","30","2.0.0","4596305","66dc48cea9a85fe230c06b5f","1","37","null","","","","","","","","","<p style='font-size: 30px;'><strong>Okay</strong></p>","null","neutral_feedback","0","test","12","","","","","","","",""
"","","","","","","","","","","","html-button-response","31","2.0.0","4597843","66dc48cea9a85fe230c06b5f","1","37","1536","","","","","","","","","<img src= ""rock_img/I_Pumice_15.jpg"" style=""width:8cm; height:7.86cm;""><p>What type of rock is this?</p>","4","class_response","0","test","13","Obsidian","Pumice","15","false","5","8","",""
"","","","","","","","","","","","html-keyboard-response","32","2.0.0","4598357","66dc48cea9a85fe230c06b5f","1","37","null","","","","","","","","","<p style='font-size: 30px;'><strong>Okay</strong></p>","null","neutral_feedback","0","test","13","","","","","","","",""
"","","","","","","","","","","","html-button-response","33","2.0.0","4602007","66dc48cea9a85fe230c06b5f","1","37","3648","","","","","","","","","<img src= ""rock_img/I_Basalt_09.jpg"" style=""width:8cm; height:6.2cm;""><p>What type of rock is this?</p>","3","class_response","0","test","14","Gabbro","Basalt","09","false","4","2","",""
"","","","","","","","","","","","html-keyboard-response","34","2.0.0","4602509","66dc48cea9a85fe230c06b5f","1","37","null","","","","","","","","","<p style='font-size: 30px;'><strong>Okay</strong></p>","null","neutral_feedback","0","test","14","","","","","","","",""
"","","","","","","","","","","","html-button-response","35","2.0.0","4603861","66dc48cea9a85fe230c06b5f","1","37","1351","","","","","","","","","<img src= ""rock_img/I_Peridotite_08.jpg"" style=""width:8cm; height:6.7cm;""><p>What type of rock is this?</p>","2","class_response","0","test","15","Diorite","Peridotite","08","false","3","7","",""
"","","","","","","","","","","","html-keyboard-response","36","2.0.0","4604372","66dc48cea9a85fe230c06b5f","1","37","null","","","","","","","","","<p style='font-size: 30px;'><strong>Okay</strong></p>","null","neutral_feedback","0","test","15","","","","","","","",""
"","","","","","","","","","","","html-button-response","37","2.0.0","4606514","66dc48cea9a85fe230c06b5f","1","37","2140","","","","","","","","","<img src= ""rock_img/I_Diorite_12.jpg"" style=""width:8cm; height:4.88cm;""><p>What type of rock is this?</p>","3","class_response","0","test","16","Gabbro","Diorite","12","false","4","3","",""
"","","","","","","","","","","","html-keyboard-response","38","2.0.0","4607016","66dc48cea9a85fe230c06b5f","1","37","null","","","","","","","","","<p style='font-size: 30px;'><strong>Okay</strong></p>","null","neutral_feedback","0","test","16","","","","","","","",""
"","","","","","","","","","","","html-button-response","39","2.0.0","4626084","66dc48cea9a85fe230c06b5f","1","37","19065","","","","","","","","","<img src= ""rock_img/I_Peridotite_07.jpg"" style=""width:8cm; height:4.83cm;""><p>What type of rock is this?</p>","1","class_response","0","test","17","Basalt","Peridotite","07","false","2","7","",""
"","","","","","","","","","","","html-keyboard-response","40","2.0.0","4626595","66dc48cea9a85fe230c06b5f","1","37","null","","","","","","","","","<p style='font-size: 30px;'><strong>Okay</strong></p>","null","neutral_feedback","0","test","17","","","","","","","",""
"","","","","","","","","","","","html-button-response","41","2.0.0","4627853","66dc48cea9a85fe230c06b5f","1","37","1256","","","","","","","","","<img src= ""rock_img/I_Pumice_16.jpg"" style=""width:8cm; height:6.79cm;""><p>What type of rock is this?</p>","1","class_response","0","test","18","Basalt","Pumice","16","false","2","8","",""
"","","","","","","","","","","","html-keyboard-response","42","2.0.0","4628369","66dc48cea9a85fe230c06b5f","1","37","null","","","","","","","","","<p style='font-size: 30px;'><strong>Okay</strong></p>","null","neutral_feedback","0","test","18","","","","","","","",""
"","","","","","","","","","","","html-button-response","43","2.0.0","4651134","66dc48cea9a85fe230c06b5f","1","37","22763","","","","","","","","","<img src= ""rock_img/I_Diorite_13.jpg"" style=""width:8cm; height:6.29cm;""><p>What type of rock is this?</p>","2","class_response","0","test","19","Diorite","Diorite","13","true","3","3","",""
"","","","","","","","","","","","html-keyboard-response","44","2.0.0","4651651","66dc48cea9a85fe230c06b5f","1","37","null","","","","","","","","","<p style='font-size: 30px;'><strong>Okay</strong></p>","null","neutral_feedback","0","test","19","","","","","","","",""
"","","","","","","","","","","","html-button-response","45","2.0.0","4709311","66dc48cea9a85fe230c06b5f","1","37","57658","","","","","","","","","<img src= ""rock_img/I_Gabbro_11.jpg"" style=""width:8cm; height:6.2cm;""><p>What type of rock is this?</p>","0","class_response","0","test","20","Andesite","Gabbro","11","false","1","4","",""
"","","","","","","","","","","","html-keyboard-response","46","2.0.0","4709818","66dc48cea9a85fe230c06b5f","1","37","null","","","","","","","","","<p style='font-size: 30px;'><strong>Okay</strong></p>","null","neutral_feedback","0","test","20","","","","","","","",""
"","","","","","","","","","","","html-button-response","47","2.0.0","4710899","66dc48cea9a85fe230c06b5f","1","37","1079","","","","","","","","","<img src= ""rock_img/I_Andesite_04.jpg"" style=""width:8cm; height:5.96cm;""><p>What type of rock is this?</p>","2","class_response","0","test","21","Diorite","Andesite","04","false","3","1","",""
"","","","","","","","","","","","html-keyboard-response","48","2.0.0","4711414","66dc48cea9a85fe230c06b5f","1","37","null","","","","","","","","","<p style='font-size: 30px;'><strong>Okay</strong></p>","null","neutral_feedback","0","test","21","","","","","","","",""
"","","","","","","","","","","","html-button-response","49","2.0.0","4713123","66dc48cea9a85fe230c06b5f","1","37","1705","","","","","","","","","<img src= ""rock_img/I_Obsidian_12.jpg"" style=""width:8cm; height:6.53cm;""><p>What type of rock is this?</p>","1","class_response","0","test","22","Basalt","Obsidian","12","false","2","5","",""
"","","","","","","","","","","","html-keyboard-response","50","2.0.0","4713626","66dc48cea9a85fe230c06b5f","1","37","null","","","","","","","","","<p style='font-size: 30px;'><strong>Okay</strong></p>","null","neutral_feedback","0","test","22","","","","","","","",""
"","","","","","","","","","","","html-button-response","51","2.0.0","4715655","66dc48cea9a85fe230c06b5f","1","37","2027","","","","","","","","","<img src= ""rock_img/I_Andesite_10.jpg"" style=""width:8cm; height:4.16cm;""><p>What type of rock is this?</p>","7","class_response","0","test","23","Pumice","Andesite","10","false","8","1","",""
"","","","","","","","","","","","html-keyboard-response","52","2.0.0","4716165","66dc48cea9a85fe230c06b5f","1","37","null","","","","","","","","","<p style='font-size: 30px;'><strong>Okay</strong></p>","null","neutral_feedback","0","test","23","","","","","","","",""
"","","","","","","","","","","","html-button-response","53","2.0.0","4735597","66dc48cea9a85fe230c06b5f","1","37","19431","","","","","","","","","<img src= ""rock_img/I_Pegmatite_13.jpg"" style=""width:8cm; height:4.95cm;""><p>What type of rock is this?</p>","5","class_response","0","test","24","Pegmatite","Pegmatite","13","true","6","6","",""
"","","","","","","","","","","","html-keyboard-response","54","2.0.0","4736112","66dc48cea9a85fe230c06b5f","1","37","null","","","","","","","","","<p style='font-size: 30px;'><strong>Okay</strong></p>","null","neutral_feedback","0","test","24","","","","","","","",""
"","","","","","","","","","","","html-button-response","55","2.0.0","4766070","66dc48cea9a85fe230c06b5f","1","37","29956","","","","","","","","","<img src= ""rock_img/I_Gabbro_05.jpg"" style=""width:8cm; height:6cm;""><p>What type of rock is this?</p>","6","class_response","0","test","25","Peridotite","Gabbro","05","false","7","4","",""
"","","","","","","","","","","","html-keyboard-response","56","2.0.0","4766582","66dc48cea9a85fe230c06b5f","1","37","null","","","","","","","","","<p style='font-size: 30px;'><strong>Okay</strong></p>","null","neutral_feedback","0","test","25","","","","","","","",""
"","","","","","","","","","","","html-button-response","57","2.0.0","4777347","66dc48cea9a85fe230c06b5f","1","37","10763","","","","","","","","","<img src= ""rock_img/I_Pumice_04.jpg"" style=""width:8cm; height:6.819999999999999cm;""><p>What type of rock is this?</p>","7","class_response","0","test","26","Pumice","Pumice","04","true","8","8","",""
"","","","","","","","","","","","html-keyboard-response","58","2.0.0","4777855","66dc48cea9a85fe230c06b5f","1","37","null","","","","","","","","","<p style='font-size: 30px;'><strong>Okay</strong></p>","null","neutral_feedback","0","test","26","","","","","","","",""
"","","","","","","","","","","","html-button-response","59","2.0.0","4798890","66dc48cea9a85fe230c06b5f","1","37","21033","","","","","","","","","<img src= ""rock_img/I_Basalt_14.jpg"" style=""width:8cm; height:5.82cm;""><p>What type of rock is this?</p>","0","class_response","0","test","27","Andesite","Basalt","14","false","1","2","",""
"","","","","","","","","","","","html-keyboard-response","60","2.0.0","4799396","66dc48cea9a85fe230c06b5f","1","37","null","","","","","","","","","<p style='font-size: 30px;'><strong>Okay</strong></p>","null","neutral_feedback","0","test","27","","","","","","","",""
"","","","","","","","","","","","html-button-response","61","2.0.0","4813429","66dc48cea9a85fe230c06b5f","1","37","14031","","","","","","","","","<img src= ""rock_img/I_Obsidian_04.jpg"" style=""width:8cm; height:6.930000000000001cm;""><p>What type of rock is this?</p>","4","class_response","0","test","28","Obsidian","Obsidian","04","true","5","5","",""
"","","","","","","","","","","","html-keyboard-response","62","2.0.0","4813945","66dc48cea9a85fe230c06b5f","1","37","null","","","","","","","","","<p style='font-size: 30px;'><strong>Okay</strong></p>","null","neutral_feedback","0","test","28","","","","","","","",""
"","","","","","","","","","","","html-button-response","63","2.0.0","4828585","66dc48cea9a85fe230c06b5f","1","37","14637","","","","","","","","","<img src= ""rock_img/I_Pegmatite_08.jpg"" style=""width:8cm; height:7.68cm;""><p>What type of rock is this?</p>","6","class_response","0","test","29","Peridotite","Pegmatite","08","false","7","6","",""
"","","","","","","","","","","","html-keyboard-response","64","2.0.0","4829099","66dc48cea9a85fe230c06b5f","1","37","null","","","","","","","","","<p style='font-size: 30px;'><strong>Okay</strong></p>","null","neutral_feedback","0","test","29","","","","","","","",""
"","","","","","","","","","","","html-button-response","65","2.0.0","4840131","66dc48cea9a85fe230c06b5f","1","37","11030","","","","","","","","","<img src= ""rock_img/I_Gabbro_12.jpg"" style=""width:8cm; height:7.800000000000001cm;""><p>What type of rock is this?</p>","3","class_response","0","test","30","Gabbro","Gabbro","12","true","4","4","",""
"","","","","","","","","","","","html-keyboard-response","66","2.0.0","4840645","66dc48cea9a85fe230c06b5f","1","37","null","","","","","","","","","<p style='font-size: 30px;'><strong>Okay</strong></p>","null","neutral_feedback","0","test","30","","","","","","","",""
"","","","","","","","","","","","html-button-response","67","2.0.0","4857362","66dc48cea9a85fe230c06b5f","1","37","16715","","","","","","","","","<img src= ""rock_img/I_Basalt_11.jpg"" style=""width:8cm; height:5.359999999999999cm;""><p>What type of rock is this?</p>","1","class_response","0","test","31","Basalt","Basalt","11","true","2","2","",""
"","","","","","","","","","","","html-keyboard-response","68","2.0.0","4857873","66dc48cea9a85fe230c06b5f","1","37","null","","","","","","","","","<p style='font-size: 30px;'><strong>Okay</strong></p>","null","neutral_feedback","0","test","31","","","","","","","",""
"","","","","","","","","","","","html-button-response","69","2.0.0","4905523","66dc48cea9a85fe230c06b5f","1","37","47648","","","","","","","","","<img src= ""rock_img/I_Gabbro_15.jpg"" style=""width:8cm; height:6.29cm;""><p>What type of rock is this?</p>","6","class_response","0","test","32","Peridotite","Gabbro","15","false","7","4","",""
"","","","","","","","","","","","html-keyboard-response","70","2.0.0","4906036","66dc48cea9a85fe230c06b5f","1","37","null","","","","","","","","","<p style='font-size: 30px;'><strong>Okay</strong></p>","null","neutral_feedback","0","test","32","","","","","","","",""
"","","","","","","","","","","","html-button-response","71","2.0.0","4907673","66dc48cea9a85fe230c06b5f","1","37","1635","","","","","","","","","<img src= ""rock_img/I_Pumice_05.jpg"" style=""width:8cm; height:7.25cm;""><p>What type of rock is this?</p>","7","class_response","0","test","33","Pumice","Pumice","05","true","8","8","",""
"","","","","","","","","","","","html-keyboard-response","72","2.0.0","4908182","66dc48cea9a85fe230c06b5f","1","37","null","","","","","","","","","<p style='font-size: 30px;'><strong>Okay</strong></p>","null","neutral_feedback","0","test","33","","","","","","","",""
"","","","","","","","","","","","html-button-response","73","2.0.0","4931781","66dc48cea9a85fe230c06b5f","1","37","23598","","","","","","","","","<img src= ""rock_img/I_Andesite_16.jpg"" style=""width:8cm; height:6.010000000000001cm;""><p>What type of rock is this?</p>","6","class_response","0","test","34","Peridotite","Andesite","16","false","7","1","",""
"","","","","","","","","","","","html-keyboard-response","74","2.0.0","4932283","66dc48cea9a85fe230c06b5f","1","37","null","","","","","","","","","<p style='font-size: 30px;'><strong>Okay</strong></p>","null","neutral_feedback","0","test","34","","","","","","","",""
"","","","","","","","","","","","html-button-response","75","2.0.0","4950307","66dc48cea9a85fe230c06b5f","1","37","18022","","","","","","","","","<img src= ""rock_img/I_Gabbro_16.jpg"" style=""width:8cm; height:6.44cm;""><p>What type of rock is this?</p>","5","class_response","0","test","35","Pegmatite","Gabbro","16","false","6","4","",""
"","","","","","","","","","","","html-keyboard-response","76","2.0.0","4950812","66dc48cea9a85fe230c06b5f","1","37","null","","","","","","","","","<p style='font-size: 30px;'><strong>Okay</strong></p>","null","neutral_feedback","0","test","35","","","","","","","",""
"","","","","","","","","","","","html-button-response","77","2.0.0","4961499","66dc48cea9a85fe230c06b5f","1","37","10685","","","","","","","","","<img src= ""rock_img/I_Basalt_08.jpg"" style=""width:8cm; height:10.44cm;""><p>What type of rock is this?</p>","1","class_response","0","test","36","Basalt","Basalt","08","true","2","2","",""
"","","","","","","","","","","","html-keyboard-response","78","2.0.0","4962008","66dc48cea9a85fe230c06b5f","1","37","null","","","","","","","","","<p style='font-size: 30px;'><strong>Okay</strong></p>","null","neutral_feedback","0","test","36","","","","","","","",""
"","","","","","","","","","","","html-button-response","79","2.0.0","5012252","66dc48cea9a85fe230c06b5f","1","37","50241","","","","","","","","","<img src= ""rock_img/I_Pegmatite_03.jpg"" style=""width:8cm; height:5.239999999999999cm;""><p>What type of rock is this?</p>","6","class_response","0","test","37","Peridotite","Pegmatite","03","false","7","6","",""
"","","","","","","","","","","","html-keyboard-response","80","2.0.0","5012765","66dc48cea9a85fe230c06b5f","1","37","null","","","","","","","","","<p style='font-size: 30px;'><strong>Okay</strong></p>","null","neutral_feedback","0","test","37","","","","","","","",""
"","","","","","","","","","","","html-button-response","81","2.0.0","5026435","66dc48cea9a85fe230c06b5f","1","37","13668","","","","","","","","","<img src= ""rock_img/I_Diorite_16.jpg"" style=""width:8cm; height:6.74cm;""><p>What type of rock is this?</p>","2","class_response","0","test","38","Diorite","Diorite","16","true","3","3","",""
"","","","","","","","","","","","html-keyboard-response","82","2.0.0","5026951","66dc48cea9a85fe230c06b5f","1","37","null","","","","","","","","","<p style='font-size: 30px;'><strong>Okay</strong></p>","null","neutral_feedback","0","test","38","","","","","","","",""
"","","","","","","","","","","","html-button-response","83","2.0.0","5048938","66dc48cea9a85fe230c06b5f","1","37","21986","","","","","","","","","<img src= ""rock_img/I_Peridotite_06.jpg"" style=""width:8cm; height:7.53cm;""><p>What type of rock is this?</p>","6","class_response","0","test","39","Peridotite","Peridotite","06","true","7","7","",""
"","","","","","","","","","","","html-keyboard-response","84","2.0.0","5049441","66dc48cea9a85fe230c06b5f","1","37","null","","","","","","","","","<p style='font-size: 30px;'><strong>Okay</strong></p>","null","neutral_feedback","0","test","39","","","","","","","",""
"","","","","","","","","","","","html-button-response","85","2.0.0","5050899","66dc48cea9a85fe230c06b5f","1","37","1456","","","","","","","","","<img src= ""rock_img/I_Pegmatite_09.jpg"" style=""width:8cm; height:4.03cm;""><p>What type of rock is this?</p>","6","class_response","0","test","40","Peridotite","Pegmatite","09","false","7","6","",""
"","","","","","","","","","","","html-keyboard-response","86","2.0.0","5051413","66dc48cea9a85fe230c06b5f","1","37","null","","","","","","","","","<p style='font-size: 30px;'><strong>Okay</strong></p>","null","neutral_feedback","0","test","40","","","","","","","",""
"","","","","","","","","","","","html-button-response","87","2.0.0","5052993","66dc48cea9a85fe230c06b5f","1","37","1578","","","","","","","","","<img src= ""rock_img/I_Basalt_12.jpg"" style=""width:8cm; height:6.010000000000001cm;""><p>What type of rock is this?</p>","7","class_response","0","test","41","Pumice","Basalt","12","false","8","2","",""
"","","","","","","","","","","","html-keyboard-response","88","2.0.0","5053500","66dc48cea9a85fe230c06b5f","1","37","null","","","","","","","","","<p style='font-size: 30px;'><strong>Okay</strong></p>","null","neutral_feedback","0","test","41","","","","","","","",""
"","","","","","","","","","","","html-button-response","89","2.0.0","5054690","66dc48cea9a85fe230c06b5f","1","37","1188","","","","","","","","","<img src= ""rock_img/I_Peridotite_13.jpg"" style=""width:8cm; height:7.58cm;""><p>What type of rock is this?</p>","6","class_response","0","test","42","Peridotite","Peridotite","13","true","7","7","",""
"","","","","","","","","","","","html-keyboard-response","90","2.0.0","5055205","66dc48cea9a85fe230c06b5f","1","37","null","","","","","","","","","<p style='font-size: 30px;'><strong>Okay</strong></p>","null","neutral_feedback","0","test","42","","","","","","","",""
"","","","","","","","","","","","html-button-response","91","2.0.0","5056350","66dc48cea9a85fe230c06b5f","1","37","1144","","","","","","","","","<img src= ""rock_img/I_Diorite_10.jpg"" style=""width:8cm; height:5.949999999999999cm;""><p>What type of rock is this?</p>","2","class_response","0","test","43","Diorite","Diorite","10","true","3","3","",""
"","","","","","","","","","","","html-keyboard-response","92","2.0.0","5056862","66dc48cea9a85fe230c06b5f","1","37","null","","","","","","","","","<p style='font-size: 30px;'><strong>Okay</strong></p>","null","neutral_feedback","0","test","43","","","","","","","",""
"","","","","","","","","","","","html-button-response","93","2.0.0","5061062","66dc48cea9a85fe230c06b5f","1","37","4198","","","","","","","","","<img src= ""rock_img/I_Peridotite_14.jpg"" style=""width:8cm; height:5.3cm;""><p>What type of rock is this?</p>","4","class_response","0","test","44","Obsidian","Peridotite","14","false","5","7","",""
"","","","","","","","","","","","html-keyboard-response","94","2.0.0","5061563","66dc48cea9a85fe230c06b5f","1","37","null","","","","","","","","","<p style='font-size: 30px;'><strong>Okay</strong></p>","null","neutral_feedback","0","test","44","","","","","","","",""
"","","","","","","","","","","","html-button-response","95","2.0.0","5062591","66dc48cea9a85fe230c06b5f","1","37","1026","","","","","","","","","<img src= ""rock_img/I_Pegmatite_07.jpg"" style=""width:8cm; height:6.7cm;""><p>What type of rock is this?</p>","1","class_response","0","test","45","Basalt","Pegmatite","07","false","2","6","",""
"","","","","","","","","","","","html-keyboard-response","96","2.0.0","5063106","66dc48cea9a85fe230c06b5f","1","37","null","","","","","","","","","<p style='font-size: 30px;'><strong>Okay</strong></p>","null","neutral_feedback","0","test","45","","","","","","","",""
"","","","","","","","","","","","html-button-response","97","2.0.0","5065355","66dc48cea9a85fe230c06b5f","1","37","2246","","","","","","","","","<img src= ""rock_img/I_Andesite_05.jpg"" style=""width:8cm; height:4.12cm;""><p>What type of rock is this?</p>","3","class_response","0","test","46","Gabbro","Andesite","05","false","4","1","",""
"","","","","","","","","","","","html-keyboard-response","98","2.0.0","5065864","66dc48cea9a85fe230c06b5f","1","37","null","","","","","","","","","<p style='font-size: 30px;'><strong>Okay</strong></p>","null","neutral_feedback","0","test","46","","","","","","","",""
"","","","","","","","","","","","html-button-response","99","2.0.0","5066949","66dc48cea9a85fe230c06b5f","1","37","1084","","","","","","","","","<img src= ""rock_img/I_Andesite_06.jpg"" style=""width:8cm; height:6.840000000000001cm;""><p>What type of rock is this?</p>","3","class_response","0","test","47","Gabbro","Andesite","06","false","4","1","",""
"","","","","","","","","","","","html-keyboard-response","100","2.0.0","5067462","66dc48cea9a85fe230c06b5f","1","37","null","","","","","","","","","<p style='font-size: 30px;'><strong>Okay</strong></p>","null","neutral_feedback","0","test","47","","","","","","","",""
"","","","","","","","","","","","html-button-response","101","2.0.0","5071779","66dc48cea9a85fe230c06b5f","1","37","4315","","","","","","","","","<img src= ""rock_img/I_Obsidian_10.jpg"" style=""width:8cm; height:6.260000000000001cm;""><p>What type of rock is this?</p>","4","class_response","0","test","48","Obsidian","Obsidian","10","true","5","5","",""
"","","","","","","","","","","","html-keyboard-response","102","2.0.0","5072292","66dc48cea9a85fe230c06b5f","1","37","null","","","","","","","","","<p style='font-size: 30px;'><strong>Okay</strong></p>","null","neutral_feedback","0","test","48","","","","","","","",""
"","","","","","","","","","","","instructions","103","2.0.0","5081684","66dc48cea9a85fe230c06b5f","1","37","9352","","","","","","","","[{""page_index"":0,""viewing_time"":3937},{""page_index"":1,""viewing_time"":3793},{""page_index"":2,""viewing_time"":1623}]","","","","","","","","","","","","","",""
"","","","","","","","","","","","html-button-response","104","2.0.0","5095323","66dc48cea9a85fe230c06b5f","1","37","13638","","","","","","","","","","0","start_train","","","","","","","","","","",""
"","","","","","","","","","","","html-button-response","105","2.0.0","5099561","66dc48cea9a85fe230c06b5f","1","37","4235","","","","","","","","","<img src= ""rock_img/I_Gabbro_14.jpg"" style=""width:8cm; height:8.48cm;""><p>What type of rock is this?</p>","0","class_response","1","train","1","Andesite","Gabbro","14","false","1","4","",""
"","","","","","","","","","","","html-button-response","106","2.0.0","5106022","66dc48cea9a85fe230c06b5f","1","37","6459","","","","","","","","","<img src= rock_img/I_Gabbro_14.jpg style=""width:8cm; height:8.48cm;""><p style='font-size: 30px; color: red;'><strong>Incorrect!</strong></p><p style='font-size: 30px;'><strong>This rock is gabbro</strong></p>","0","corr_feedback","1","train","1","","","","","","","",""
"","","","","","","","","","","","html-button-response","107","2.0.0","5108580","66dc48cea9a85fe230c06b5f","1","37","2556","","","","","","","","","<img src= ""rock_img/I_Peridotite_10.jpg"" style=""width:8cm; height:5.390000000000001cm;""><p>What type of rock is this?</p>","2","class_response","1","train","2","Diorite","Peridotite","10","false","3","7","",""
"","","","","","","","","","","","html-button-response","108","2.0.0","5111583","66dc48cea9a85fe230c06b5f","1","37","3001","","","","","","","","","<img src= rock_img/I_Peridotite_10.jpg style=""width:8cm; height:5.390000000000001cm;""><p style='font-size: 30px; color: red;'><strong>Incorrect!</strong></p><p style='font-size: 30px;'><strong>This rock is peridotite</strong></p>","0","corr_feedback","1","train","2","","","","","","","",""
"","","","","","","","","","","","html-button-response","109","2.0.0","5116147","66dc48cea9a85fe230c06b5f","1","37","4562","","","","","","","","","<img src= ""rock_img/I_Basalt_05.jpg"" style=""width:8cm; height:8.18cm;""><p>What type of rock is this?</p>","4","class_response","1","train","3","Obsidian","Basalt","05","false","5","2","",""
"","","","","","","","","","","","html-button-response","110","2.0.0","5119296","66dc48cea9a85fe230c06b5f","1","37","3148","","","","","","","","","<img src= rock_img/I_Basalt_05.jpg style=""width:8cm; height:8.18cm;""><p style='font-size: 30px; color: red;'><strong>Incorrect!</strong></p><p style='font-size: 30px;'><strong>This rock is basalt</strong></p>","0","corr_feedback","1","train","3","","","","","","","",""
"","","","","","","","","","","","html-button-response","111","2.0.0","5120838","66dc48cea9a85fe230c06b5f","1","37","1540","","","","","","","","","<img src= ""rock_img/I_Obsidian_08.jpg"" style=""width:8cm; height:7.39cm;""><p>What type of rock is this?</p>","4","class_response","1","train","4","Obsidian","Obsidian","08","true","5","5","",""
"","","","","","","","","","","","html-button-response","112","2.0.0","5124536","66dc48cea9a85fe230c06b5f","1","37","3695","","","","","","","","","<img src= rock_img/I_Obsidian_08.jpg style=""width:8cm; height:7.39cm;""><p style='font-size: 30px; color: green;'><strong>Correct!</strong></p><p style='font-size: 30px;'><strong>This rock is obsidian</strong></p>","0","corr_feedback","1","train","4","","","","","","","",""
"","","","","","","","","","","","html-button-response","113","2.0.0","5127669","66dc48cea9a85fe230c06b5f","1","37","3132","","","","","","","","","<img src= ""rock_img/I_Pumice_14.jpg"" style=""width:8cm; height:6.39cm;""><p>What type of rock is this?</p>","7","class_response","1","train","5","Pumice","Pumice","14","true","8","8","",""
"","","","","","","","","","","","html-button-response","114","2.0.0","5130184","66dc48cea9a85fe230c06b5f","1","37","2513","","","","","","","","","<img src= rock_img/I_Pumice_14.jpg style=""width:8cm; height:6.39cm;""><p style='font-size: 30px; color: green;'><strong>Correct!</strong></p><p style='font-size: 30px;'><strong>This rock is pumice</strong></p>","0","corr_feedback","1","train","5","","","","","","","",""
"","","","","","","","","","","","html-button-response","115","2.0.0","5132158","66dc48cea9a85fe230c06b5f","1","37","1972","","","","","","","","","<img src= ""rock_img/I_Peridotite_05.jpg"" style=""width:8cm; height:7.1499999999999995cm;""><p>What type of rock is this?</p>","2","class_response","1","train","6","Diorite","Peridotite","05","false","3","7","",""
"","","","","","","","","","","","html-button-response","116","2.0.0","5134854","66dc48cea9a85fe230c06b5f","1","37","2694","","","","","","","","","<img src= rock_img/I_Peridotite_05.jpg style=""width:8cm; height:7.1499999999999995cm;""><p style='font-size: 30px; color: red;'><strong>Incorrect!</strong></p><p style='font-size: 30px;'><strong>This rock is peridotite</strong></p>","0","corr_feedback","1","train","6","","","","","","","",""
"","","","","","","","","","","","html-button-response","117","2.0.0","5136625","66dc48cea9a85fe230c06b5f","1","37","1769","","","","","","","","","<img src= ""rock_img/I_Andesite_07.jpg"" style=""width:8cm; height:5.93cm;""><p>What type of rock is this?</p>","0","class_response","1","train","7","Andesite","Andesite","07","true","1","1","",""
"","","","","","","","","","","","html-button-response","118","2.0.0","5139260","66dc48cea9a85fe230c06b5f","1","37","2633","","","","","","","","","<img src= rock_img/I_Andesite_07.jpg style=""width:8cm; height:5.93cm;""><p style='font-size: 30px; color: green;'><strong>Correct!</strong></p><p style='font-size: 30px;'><strong>This rock is andesite</strong></p>","0","corr_feedback","1","train","7","","","","","","","",""
"","","","","","","","","","","","html-button-response","119","2.0.0","5140786","66dc48cea9a85fe230c06b5f","1","37","1525","","","","","","","","","<img src= ""rock_img/I_Pegmatite_15.jpg"" style=""width:8cm; height:6cm;""><p>What type of rock is this?</p>","5","class_response","1","train","8","Pegmatite","Pegmatite","15","true","6","6","",""
"","","","","","","","","","","","html-button-response","120","2.0.0","5143558","66dc48cea9a85fe230c06b5f","1","37","2771","","","","","","","","","<img src= rock_img/I_Pegmatite_15.jpg style=""width:8cm; height:6cm;""><p style='font-size: 30px; color: green;'><strong>Correct!</strong></p><p style='font-size: 30px;'><strong>This rock is pegmatite</strong></p>","0","corr_feedback","1","train","8","","","","","","","",""
"","","","","","","","","","","","html-button-response","121","2.0.0","5144795","66dc48cea9a85fe230c06b5f","1","37","1234","","","","","","","","","<img src= ""rock_img/I_Pumice_06.jpg"" style=""width:8cm; height:6.9399999999999995cm;""><p>What type of rock is this?</p>","7","class_response","1","train","9","Pumice","Pumice","06","true","8","8","",""
"","","","","","","","","","","","html-button-response","122","2.0.0","5146998","66dc48cea9a85fe230c06b5f","1","37","2201","","","","","","","","","<img src= rock_img/I_Pumice_06.jpg style=""width:8cm; height:6.9399999999999995cm;""><p style='font-size: 30px; color: green;'><strong>Correct!</strong></p><p style='font-size: 30px;'><strong>This rock is pumice</strong></p>","0","corr_feedback","1","train","9","","","","","","","",""
"","","","","","","","","","","","html-button-response","123","2.0.0","5148618","66dc48cea9a85fe230c06b5f","1","37","1619","","","","","","","","","<img src= ""rock_img/I_Diorite_07.jpg"" style=""width:8cm; height:5.239999999999999cm;""><p>What type of rock is this?</p>","2","class_response","1","train","10","Diorite","Diorite","07","true","3","3","",""
"","","","","","","","","","","","html-button-response","124","2.0.0","5150826","66dc48cea9a85fe230c06b5f","1","37","2206","","","","","","","","","<img src= rock_img/I_Diorite_07.jpg style=""width:8cm; height:5.239999999999999cm;""><p style='font-size: 30px; color: green;'><strong>Correct!</strong></p><p style='font-size: 30px;'><strong>This rock is diorite</strong></p>","0","corr_feedback","1","train","10","","","","","","","",""
"","","","","","","","","","","","html-button-response","125","2.0.0","5152840","66dc48cea9a85fe230c06b5f","1","37","2012","","","","","","","","","<img src= ""rock_img/I_Pegmatite_10.jpg"" style=""width:8cm; height:4.16cm;""><p>What type of rock is this?</p>","1","class_response","1","train","11","Basalt","Pegmatite","10","false","2","6","",""
"","","","","","","","","","","","html-button-response","126","2.0.0","5155136","66dc48cea9a85fe230c06b5f","1","37","2295","","","","","","","","","<img src= rock_img/I_Pegmatite_10.jpg style=""width:8cm; height:4.16cm;""><p style='font-size: 30px; color: red;'><strong>Incorrect!</strong></p><p style='font-size: 30px;'><strong>This rock is pegmatite</strong></p>","0","corr_feedback","1","train","11","","","","","","","",""
"","","","","","","","","","","","html-button-response","127","2.0.0","5157529","66dc48cea9a85fe230c06b5f","1","37","2391","","","","","","","","","<img src= ""rock_img/I_Pegmatite_11.jpg"" style=""width:8cm; height:8.14cm;""><p>What type of rock is this?</p>","5","class_response","1","train","12","Pegmatite","Pegmatite","11","true","6","6","",""
"","","","","","","","","","","","html-button-response","128","2.0.0","5160902","66dc48cea9a85fe230c06b5f","1","37","3372","","","","","","","","","<img src= rock_img/I_Pegmatite_11.jpg style=""width:8cm; height:8.14cm;""><p style='font-size: 30px; color: green;'><strong>Correct!</strong></p><p style='font-size: 30px;'><strong>This rock is pegmatite</strong></p>","0","corr_feedback","1","train","12","","","","","","","",""
"","","","","","","","","","","","html-button-response","129","2.0.0","5162146","66dc48cea9a85fe230c06b5f","1","37","1243","","","","","","","","","<img src= ""rock_img/I_Obsidian_05.jpg"" style=""width:8cm; height:6.33cm;""><p>What type of rock is this?</p>","4","class_response","1","train","13","Obsidian","Obsidian","05","true","5","5","",""
"","","","","","","","","","","","html-button-response","130","2.0.0","5162943","66dc48cea9a85fe230c06b5f","1","37","795","","","","","","","","","<img src= rock_img/I_Obsidian_05.jpg style=""width:8cm; height:6.33cm;""><p style='font-size: 30px; color: green;'><strong>Correct!</strong></p><p style='font-size: 30px;'><strong>This rock is obsidian</strong></p>","0","corr_feedback","1","train","13","","","","","","","",""
"","","","","","","","","","","","html-button-response","131","2.0.0","5163964","66dc48cea9a85fe230c06b5f","1","37","1019","","","","","","","","","<img src= ""rock_img/I_Pumice_03.jpg"" style=""width:8cm; height:6.64cm;""><p>What type of rock is this?</p>","7","class_response","1","train","14","Pumice","Pumice","03","true","8","8","",""
"","","","","","","","","","","","html-button-response","132","2.0.0","5164604","66dc48cea9a85fe230c06b5f","1","37","638","","","","","","","","","<img src= rock_img/I_Pumice_03.jpg style=""width:8cm; height:6.64cm;""><p style='font-size: 30px; color: green;'><strong>Correct!</strong></p><p style='font-size: 30px;'><strong>This rock is pumice</strong></p>","0","corr_feedback","1","train","14","","","","","","","",""
"","","","","","","","","","","","html-button-response","133","2.0.0","5166330","66dc48cea9a85fe230c06b5f","1","37","1725","","","","","","","","","<img src= ""rock_img/I_Basalt_01.jpg"" style=""width:8cm; height:7.880000000000001cm;""><p>What type of rock is this?</p>","1","class_response","1","train","15","Basalt","Basalt","01","true","2","2","",""
"","","","","","","","","","","","html-button-response","134","2.0.0","5167007","66dc48cea9a85fe230c06b5f","1","37","675","","","","","","","","","<img src= rock_img/I_Basalt_01.jpg style=""width:8cm; height:7.880000000000001cm;""><p style='font-size: 30px; color: green;'><strong>Correct!</strong></p><p style='font-size: 30px;'><strong>This rock is basalt</strong></p>","0","corr_feedback","1","train","15","","","","","","","",""
"","","","","","","","","","","","html-button-response","135","2.0.0","5168825","66dc48cea9a85fe230c06b5f","1","37","1817","","","","","","","","","<img src= ""rock_img/I_Andesite_11.jpg"" style=""width:8cm; height:4.92cm;""><p>What type of rock is this?</p>","0","class_response","1","train","16","Andesite","Andesite","11","true","1","1","",""
"","","","","","","","","","","","html-button-response","136","2.0.0","5172711","66dc48cea9a85fe230c06b5f","1","37","3884","","","","","","","","","<img src= rock_img/I_Andesite_11.jpg style=""width:8cm; height:4.92cm;""><p style='font-size: 30px; color: green;'><strong>Correct!</strong></p><p style='font-size: 30px;'><strong>This rock is andesite</strong></p>","0","corr_feedback","1","train","16","","","","","","","",""
"","","","","","","","","","","","html-button-response","137","2.0.0","5174214","66dc48cea9a85fe230c06b5f","1","37","1501","","","","","","","","","<img src= ""rock_img/I_Obsidian_09.jpg"" style=""width:8cm; height:5cm;""><p>What type of rock is this?</p>","4","class_response","1","train","17","Obsidian","Obsidian","09","true","5","5","",""
"","","","","","","","","","","","html-button-response","138","2.0.0","5174883","66dc48cea9a85fe230c06b5f","1","37","668","","","","","","","","","<img src= rock_img/I_Obsidian_09.jpg style=""width:8cm; height:5cm;""><p style='font-size: 30px; color: green;'><strong>Correct!</strong></p><p style='font-size: 30px;'><strong>This rock is obsidian</strong></p>","0","corr_feedback","1","train","17","","","","","","","",""
"","","","","","","","","","","","html-button-response","139","2.0.0","5177573","66dc48cea9a85fe230c06b5f","1","37","2689","","","","","","","","","<img src= ""rock_img/I_Andesite_09.jpg"" style=""width:8cm; height:6cm;""><p>What type of rock is this?</p>","3","class_response","1","train","18","Gabbro","Andesite","09","false","4","1","",""
"","","","","","","","","","","","html-button-response","140","2.0.0","5180087","66dc48cea9a85fe230c06b5f","1","37","2512","","","","","","","","","<img src= rock_img/I_Andesite_09.jpg style=""width:8cm; height:6cm;""><p style='font-size: 30px; color: red;'><strong>Incorrect!</strong></p><p style='font-size: 30px;'><strong>This rock is andesite</strong></p>","0","corr_feedback","1","train","18","","","","","","","",""
"","","","","","","","","","","","html-button-response","141","2.0.0","5183721","66dc48cea9a85fe230c06b5f","1","37","3632","","","","","","","","","<img src= ""rock_img/I_Gabbro_13.jpg"" style=""width:8cm; height:5.08cm;""><p>What type of rock is this?</p>","5","class_response","1","train","19","Pegmatite","Gabbro","13","false","6","4","",""
"","","","","","","","","","","","html-button-response","142","2.0.0","5186245","66dc48cea9a85fe230c06b5f","1","37","2522","","","","","","","","","<img src= rock_img/I_Gabbro_13.jpg style=""width:8cm; height:5.08cm;""><p style='font-size: 30px; color: red;'><strong>Incorrect!</strong></p><p style='font-size: 30px;'><strong>This rock is gabbro</strong></p>","0","corr_feedback","1","train","19","","","","","","","",""
"","","","","","","","","","","","html-button-response","143","2.0.0","5188221","66dc48cea9a85fe230c06b5f","1","37","1975","","","","","","","","","<img src= ""rock_img/I_Diorite_14.jpg"" style=""width:8cm; height:5.71cm;""><p>What type of rock is this?</p>","0","class_response","1","train","20","Andesite","Diorite","14","false","1","3","",""
"","","","","","","","","","","","html-button-response","144","2.0.0","5190520","66dc48cea9a85fe230c06b5f","1","37","2298","","","","","","","","","<img src= rock_img/I_Diorite_14.jpg style=""width:8cm; height:5.71cm;""><p style='font-size: 30px; color: red;'><strong>Incorrect!</strong></p><p style='font-size: 30px;'><strong>This rock is diorite</strong></p>","0","corr_feedback","1","train","20","","","","","","","",""
"","","","","","","","","","","","html-button-response","145","2.0.0","5192292","66dc48cea9a85fe230c06b5f","1","37","1770","","","","","","","","","<img src= ""rock_img/I_Andesite_14.jpg"" style=""width:8cm; height:5.449999999999999cm;""><p>What type of rock is this?</p>","2","class_response","1","train","21","Diorite","Andesite","14","false","3","1","",""
"","","","","","","","","","","","html-button-response","146","2.0.0","5194787","66dc48cea9a85fe230c06b5f","1","37","2493","","","","","","","","","<img src= rock_img/I_Andesite_14.jpg style=""width:8cm; height:5.449999999999999cm;""><p style='font-size: 30px; color: red;'><strong>Incorrect!</strong></p><p style='font-size: 30px;'><strong>This rock is andesite</strong></p>","0","corr_feedback","1","train","21","","","","","","","",""
"","","","","","","","","","","","html-button-response","147","2.0.0","5197104","66dc48cea9a85fe230c06b5f","1","37","2316","","","","","","","","","<img src= ""rock_img/I_Gabbro_01.jpg"" style=""width:8cm; height:5.21cm;""><p>What type of rock is this?</p>","2","class_response","1","train","22","Diorite","Gabbro","01","false","3","4","",""
"","","","","","","","","","","","html-button-response","148","2.0.0","5199329","66dc48cea9a85fe230c06b5f","1","37","2223","","","","","","","","","<img src= rock_img/I_Gabbro_01.jpg style=""width:8cm; height:5.21cm;""><p style='font-size: 30px; color: red;'><strong>Incorrect!</strong></p><p style='font-size: 30px;'><strong>This rock is gabbro</strong></p>","0","corr_feedback","1","train","22","","","","","","","",""
"","","","","","","","","","","","html-button-response","149","2.0.0","5200803","66dc48cea9a85fe230c06b5f","1","37","1472","","","","","","","","","<img src= ""rock_img/I_Basalt_04.jpg"" style=""width:8cm; height:7.53cm;""><p>What type of rock is this?</p>","3","class_response","1","train","23","Gabbro","Basalt","04","false","4","2","",""
"","","","","","","","","","","","html-button-response","150","2.0.0","5203324","66dc48cea9a85fe230c06b5f","1","37","2519","","","","","","","","","<img src= rock_img/I_Basalt_04.jpg style=""width:8cm; height:7.53cm;""><p style='font-size: 30px; color: red;'><strong>Incorrect!</strong></p><p style='font-size: 30px;'><strong>This rock is basalt</strong></p>","0","corr_feedback","1","train","23","","","","","","","",""
"","","","","","","","","","","","html-button-response","151","2.0.0","5214996","66dc48cea9a85fe230c06b5f","1","37","11670","","","","","","","","","<img src= ""rock_img/I_Peridotite_15.jpg"" style=""width:8cm; height:6cm;""><p>What type of rock is this?</p>","5","class_response","1","train","24","Pegmatite","Peridotite","15","false","6","7","",""
"","","","","","","","","","","","html-button-response","152","2.0.0","5220022","66dc48cea9a85fe230c06b5f","1","37","5025","","","","","","","","","<img src= rock_img/I_Peridotite_15.jpg style=""width:8cm; height:6cm;""><p style='font-size: 30px; color: red;'><strong>Incorrect!</strong></p><p style='font-size: 30px;'><strong>This rock is peridotite</strong></p>","0","corr_feedback","1","train","24","","","","","","","",""
"","","","","","","","","","","","html-button-response","153","2.0.0","5233522","66dc48cea9a85fe230c06b5f","1","37","13498","","","","","","","","","<img src= ""rock_img/I_Basalt_16.jpg"" style=""width:8cm; height:7.659999999999999cm;""><p>What type of rock is this?</p>","7","class_response","1","train","25","Pumice","Basalt","16","false","8","2","",""
"","","","","","","","","","","","html-button-response","154","2.0.0","5235101","66dc48cea9a85fe230c06b5f","1","37","1578","","","","","","","","","<img src= rock_img/I_Basalt_16.jpg style=""width:8cm; height:7.659999999999999cm;""><p style='font-size: 30px; color: red;'><strong>Incorrect!</strong></p><p style='font-size: 30px;'><strong>This rock is basalt</strong></p>","0","corr_feedback","1","train","25","","","","","","","",""
"","","","","","","","","","","","html-button-response","155","2.0.0","5241615","66dc48cea9a85fe230c06b5f","1","37","6512","","","","","","","","","<img src= ""rock_img/I_Pegmatite_05.jpg"" style=""width:8cm; height:7.300000000000001cm;""><p>What type of rock is this?</p>","2","class_response","1","train","26","Diorite","Pegmatite","05","false","3","6","",""
"","","","","","","","","","","","html-button-response","156","2.0.0","5243225","66dc48cea9a85fe230c06b5f","1","37","1609","","","","","","","","","<img src= rock_img/I_Pegmatite_05.jpg style=""width:8cm; height:7.300000000000001cm;""><p style='font-size: 30px; color: red;'><strong>Incorrect!</strong></p><p style='font-size: 30px;'><strong>This rock is pegmatite</strong></p>","0","corr_feedback","1","train","26","","","","","","","",""
"","","","","","","","","","","","html-button-response","157","2.0.0","5244413","66dc48cea9a85fe230c06b5f","1","37","1186","","","","","","","","","<img src= ""rock_img/I_Andesite_02.jpg"" style=""width:8cm; height:8.5cm;""><p>What type of rock is this?</p>","2","class_response","1","train","27","Diorite","Andesite","02","false","3","1","",""
"","","","","","","","","","","","html-button-response","158","2.0.0","5245480","66dc48cea9a85fe230c06b5f","1","37","1066","","","","","","","","","<img src= rock_img/I_Andesite_02.jpg style=""width:8cm; height:8.5cm;""><p style='font-size: 30px; color: red;'><strong>Incorrect!</strong></p><p style='font-size: 30px;'><strong>This rock is andesite</strong></p>","0","corr_feedback","1","train","27","","","","","","","",""
"","","","","","","","","","","","html-button-response","159","2.0.0","5252582","66dc48cea9a85fe230c06b5f","1","37","7100","","","","","","","","","<img src= ""rock_img/I_Gabbro_08.jpg"" style=""width:8cm; height:5.15cm;""><p>What type of rock is this?</p>","0","class_response","1","train","28","Andesite","Gabbro","08","false","1","4","",""
"","","","","","","","","","","","html-button-response","160","2.0.0","5254130","66dc48cea9a85fe230c06b5f","1","37","1546","","","","","","","","","<img src= rock_img/I_Gabbro_08.jpg style=""width:8cm; height:5.15cm;""><p style='font-size: 30px; color: red;'><strong>Incorrect!</strong></p><p style='font-size: 30px;'><strong>This rock is gabbro</strong></p>","0","corr_feedback","1","train","28","","","","","","","",""
"","","","","","","","","","","","html-button-response","161","2.0.0","5255604","66dc48cea9a85fe230c06b5f","1","37","1471","","","","","","","","","<img src= ""rock_img/I_Pumice_02.jpg"" style=""width:8cm; height:7.3999999999999995cm;""><p>What type of rock is this?</p>","7","class_response","1","train","29","Pumice","Pumice","02","true","8","8","",""
"","","","","","","","","","","","html-button-response","162","2.0.0","5256196","66dc48cea9a85fe230c06b5f","1","37","590","","","","","","","","","<img src= rock_img/I_Pumice_02.jpg style=""width:8cm; height:7.3999999999999995cm;""><p style='font-size: 30px; color: green;'><strong>Correct!</strong></p><p style='font-size: 30px;'><strong>This rock is pumice</strong></p>","0","corr_feedback","1","train","29","","","","","","","",""
"","","","","","","","","","","","html-button-response","163","2.0.0","5257171","66dc48cea9a85fe230c06b5f","1","37","973","","","","","","","","","<img src= ""rock_img/I_Pumice_08.jpg"" style=""width:8cm; height:6.67cm;""><p>What type of rock is this?</p>","7","class_response","1","train","30","Pumice","Pumice","08","true","8","8","",""
"","","","","","","","","","","","html-button-response","164","2.0.0","5257765","66dc48cea9a85fe230c06b5f","1","37","592","","","","","","","","","<img src= rock_img/I_Pumice_08.jpg style=""width:8cm; height:6.67cm;""><p style='font-size: 30px; color: green;'><strong>Correct!</strong></p><p style='font-size: 30px;'><strong>This rock is pumice</strong></p>","0","corr_feedback","1","train","30","","","","","","","",""
"","","","","","","","","","","","html-button-response","165","2.0.0","5262930","66dc48cea9a85fe230c06b5f","1","37","5163","","","","","","","","","<img src= ""rock_img/I_Gabbro_03.jpg"" style=""width:8cm; height:8.52cm;""><p>What type of rock is this?</p>","0","class_response","1","train","31","Andesite","Gabbro","03","false","1","4","",""
"","","","","","","","","","","","html-button-response","166","2.0.0","5269968","66dc48cea9a85fe230c06b5f","1","37","7036","","","","","","","","","<img src= rock_img/I_Gabbro_03.jpg style=""width:8cm; height:8.52cm;""><p style='font-size: 30px; color: red;'><strong>Incorrect!</strong></p><p style='font-size: 30px;'><strong>This rock is gabbro</strong></p>","0","corr_feedback","1","train","31","","","","","","","",""
"","","","","","","","","","","","html-button-response","167","2.0.0","5272536","66dc48cea9a85fe230c06b5f","1","37","2567","","","","","","","","","<img src= ""rock_img/I_Basalt_02.jpg"" style=""width:8cm; height:6.45cm;""><p>What type of rock is this?</p>","3","class_response","1","train","32","Gabbro","Basalt","02","false","4","2","",""
"","","","","","","","","","","","html-button-response","168","2.0.0","5275588","66dc48cea9a85fe230c06b5f","1","37","3051","","","","","","","","","<img src= rock_img/I_Basalt_02.jpg style=""width:8cm; height:6.45cm;""><p style='font-size: 30px; color: red;'><strong>Incorrect!</strong></p><p style='font-size: 30px;'><strong>This rock is basalt</strong></p>","0","corr_feedback","1","train","32","","","","","","","",""
"","","","","","","","","","","","html-button-response","169","2.0.0","5286115","66dc48cea9a85fe230c06b5f","1","37","10525","","","","","","","","","<img src= ""rock_img/I_Pegmatite_12.jpg"" style=""width:8cm; height:5.7cm;""><p>What type of rock is this?</p>","0","class_response","1","train","33","Andesite","Pegmatite","12","false","1","6","",""
"","","","","","","","","","","","html-button-response","170","2.0.0","5292263","66dc48cea9a85fe230c06b5f","1","37","6147","","","","","","","","","<img src= rock_img/I_Pegmatite_12.jpg style=""width:8cm; height:5.7cm;""><p style='font-size: 30px; color: red;'><strong>Incorrect!</strong></p><p style='font-size: 30px;'><strong>This rock is pegmatite</strong></p>","0","corr_feedback","1","train","33","","","","","","","",""
"","","","","","","","","","","","html-button-response","171","2.0.0","5294218","66dc48cea9a85fe230c06b5f","1","37","1953","","","","","","","","","<img src= ""rock_img/I_Basalt_10.jpg"" style=""width:8cm; height:5.85cm;""><p>What type of rock is this?</p>","3","class_response","1","train","34","Gabbro","Basalt","10","false","4","2","",""
"","","","","","","","","","","","html-button-response","172","2.0.0","5297083","66dc48cea9a85fe230c06b5f","1","37","2863","","","","","","","","","<img src= rock_img/I_Basalt_10.jpg style=""width:8cm; height:5.85cm;""><p style='font-size: 30px; color: red;'><strong>Incorrect!</strong></p><p style='font-size: 30px;'><strong>This rock is basalt</strong></p>","0","corr_feedback","1","train","34","","","","","","","",""
"","","","","","","","","","","","html-button-response","173","2.0.0","5299104","66dc48cea9a85fe230c06b5f","1","37","2019","","","","","","","","","<img src= ""rock_img/I_Pegmatite_06.jpg"" style=""width:8cm; height:5.17cm;""><p>What type of rock is this?</p>","5","class_response","1","train","35","Pegmatite","Pegmatite","06","true","6","6","",""
"","","","","","","","","","","","html-button-response","174","2.0.0","5299792","66dc48cea9a85fe230c06b5f","1","37","687","","","","","","","","","<img src= rock_img/I_Pegmatite_06.jpg style=""width:8cm; height:5.17cm;""><p style='font-size: 30px; color: green;'><strong>Correct!</strong></p><p style='font-size: 30px;'><strong>This rock is pegmatite</strong></p>","0","corr_feedback","1","train","35","","","","","","","",""
"","","","","","","","","","","","html-button-response","175","2.0.0","5308896","66dc48cea9a85fe230c06b5f","1","37","9102","","","","","","","","","<img src= ""rock_img/I_Diorite_08.jpg"" style=""width:8cm; height:6.37cm;""><p>What type of rock is this?</p>","2","class_response","1","train","36","Diorite","Diorite","08","true","3","3","",""
"","","","","","","","","","","","html-button-response","176","2.0.0","5309526","66dc48cea9a85fe230c06b5f","1","37","629","","","","","","","","","<img src= rock_img/I_Diorite_08.jpg style=""width:8cm; height:6.37cm;""><p style='font-size: 30px; color: green;'><strong>Correct!</strong></p><p style='font-size: 30px;'><strong>This rock is diorite</strong></p>","0","corr_feedback","1","train","36","","","","","","","",""
"","","","","","","","","","","","html-button-response","177","2.0.0","5311203","66dc48cea9a85fe230c06b5f","1","37","1675","","","","","","","","","<img src= ""rock_img/I_Diorite_09.jpg"" style=""width:8cm; height:5.27cm;""><p>What type of rock is this?</p>","2","class_response","1","train","37","Diorite","Diorite","09","true","3","3","",""
"","","","","","","","","","","","html-button-response","178","2.0.0","5311899","66dc48cea9a85fe230c06b5f","1","37","693","","","","","","","","","<img src= rock_img/I_Diorite_09.jpg style=""width:8cm; height:5.27cm;""><p style='font-size: 30px; color: green;'><strong>Correct!</strong></p><p style='font-size: 30px;'><strong>This rock is diorite</strong></p>","0","corr_feedback","1","train","37","","","","","","","",""
"","","","","","","","","","","","html-button-response","179","2.0.0","5313867","66dc48cea9a85fe230c06b5f","1","37","1966","","","","","","","","","<img src= ""rock_img/I_Obsidian_11.jpg"" style=""width:8cm; height:6.05cm;""><p>What type of rock is this?</p>","4","class_response","1","train","38","Obsidian","Obsidian","11","true","5","5","",""
"","","","","","","","","","","","html-button-response","180","2.0.0","5314460","66dc48cea9a85fe230c06b5f","1","37","591","","","","","","","","","<img src= rock_img/I_Obsidian_11.jpg style=""width:8cm; height:6.05cm;""><p style='font-size: 30px; color: green;'><strong>Correct!</strong></p><p style='font-size: 30px;'><strong>This rock is obsidian</strong></p>","0","corr_feedback","1","train","38","","","","","","","",""
"","","","","","","","","","","","html-button-response","181","2.0.0","5315887","66dc48cea9a85fe230c06b5f","1","37","1426","","","","","","","","","<img src= ""rock_img/I_Peridotite_12.jpg"" style=""width:8cm; height:4.54cm;""><p>What type of rock is this?</p>","5","class_response","1","train","39","Pegmatite","Peridotite","12","false","6","7","",""
"","","","","","","","","","","","html-button-response","182","2.0.0","5317195","66dc48cea9a85fe230c06b5f","1","37","1306","","","","","","","","","<img src= rock_img/I_Peridotite_12.jpg style=""width:8cm; height:4.54cm;""><p style='font-size: 30px; color: red;'><strong>Incorrect!</strong></p><p style='font-size: 30px;'><strong>This rock is peridotite</strong></p>","0","corr_feedback","1","train","39","","","","","","","",""
"","","","","","","","","","","","html-button-response","183","2.0.0","5318236","66dc48cea9a85fe230c06b5f","1","37","1039","","","","","","","","","<img src= ""rock_img/I_Pumice_09.jpg"" style=""width:8cm; height:6.44cm;""><p>What type of rock is this?</p>","7","class_response","1","train","40","Pumice","Pumice","09","true","8","8","",""
"","","","","","","","","","","","html-button-response","184","2.0.0","5318735","66dc48cea9a85fe230c06b5f","1","37","497","","","","","","","","","<img src= rock_img/I_Pumice_09.jpg style=""width:8cm; height:6.44cm;""><p style='font-size: 30px; color: green;'><strong>Correct!</strong></p><p style='font-size: 30px;'><strong>This rock is pumice</strong></p>","0","corr_feedback","1","train","40","","","","","","","",""
"","","","","","","","","","","","html-button-response","185","2.0.0","5320740","66dc48cea9a85fe230c06b5f","1","37","2004","","","","","","","","","<img src= ""rock_img/I_Peridotite_16.jpg"" style=""width:8cm; height:6.989999999999999cm;""><p>What type of rock is this?</p>","5","class_response","1","train","41","Pegmatite","Peridotite","16","false","6","7","",""
"","","","","","","","","","","","html-button-response","186","2.0.0","5321833","66dc48cea9a85fe230c06b5f","1","37","1092","","","","","","","","","<img src= rock_img/I_Peridotite_16.jpg style=""width:8cm; height:6.989999999999999cm;""><p style='font-size: 30px; color: red;'><strong>Incorrect!</strong></p><p style='font-size: 30px;'><strong>This rock is peridotite</strong></p>","0","corr_feedback","1","train","41","","","","","","","",""
"","","","","","","","","","","","html-button-response","187","2.0.0","5322919","66dc48cea9a85fe230c06b5f","1","37","1084","","","","","","","","","<img src= ""rock_img/I_Peridotite_02.jpg"" style=""width:8cm; height:5.859999999999999cm;""><p>What type of rock is this?</p>","6","class_response","1","train","42","Peridotite","Peridotite","02","true","7","7","",""
"","","","","","","","","","","","html-button-response","188","2.0.0","5323512","66dc48cea9a85fe230c06b5f","1","37","592","","","","","","","","","<img src= rock_img/I_Peridotite_02.jpg style=""width:8cm; height:5.859999999999999cm;""><p style='font-size: 30px; color: green;'><strong>Correct!</strong></p><p style='font-size: 30px;'><strong>This rock is peridotite</strong></p>","0","corr_feedback","1","train","42","","","","","","","",""
"","","","","","","","","","","","html-button-response","189","2.0.0","5324653","66dc48cea9a85fe230c06b5f","1","37","1140","","","","","","","","","<img src= ""rock_img/I_Obsidian_06.jpg"" style=""width:8cm; height:6.8cm;""><p>What type of rock is this?</p>","5","class_response","1","train","43","Pegmatite","Obsidian","06","false","6","5","",""
"","","","","","","","","","","","html-button-response","190","2.0.0","5325479","66dc48cea9a85fe230c06b5f","1","37","824","","","","","","","","","<img src= rock_img/I_Obsidian_06.jpg style=""width:8cm; height:6.8cm;""><p style='font-size: 30px; color: red;'><strong>Incorrect!</strong></p><p style='font-size: 30px;'><strong>This rock is obsidian</strong></p>","0","corr_feedback","1","train","43","","","","","","","",""
"","","","","","","","","","","","html-button-response","191","2.0.0","5328837","66dc48cea9a85fe230c06b5f","1","37","3356","","","","","","","","","<img src= ""rock_img/I_Gabbro_09.jpg"" style=""width:8cm; height:7.279999999999999cm;""><p>What type of rock is this?</p>","3","class_response","1","train","44","Gabbro","Gabbro","09","true","4","4","",""
"","","","","","","","","","","","html-button-response","192","2.0.0","5329597","66dc48cea9a85fe230c06b5f","1","37","758","","","","","","","","","<img src= rock_img/I_Gabbro_09.jpg style=""width:8cm; height:7.279999999999999cm;""><p style='font-size: 30px; color: green;'><strong>Correct!</strong></p><p style='font-size: 30px;'><strong>This rock is gabbro</strong></p>","0","corr_feedback","1","train","44","","","","","","","",""
"","","","","","","","","","","","html-button-response","193","2.0.0","5335149","66dc48cea9a85fe230c06b5f","1","37","5550","","","","","","","","","<img src= ""rock_img/I_Diorite_02.jpg"" style=""width:8cm; height:6.27cm;""><p>What type of rock is this?</p>","2","class_response","1","train","45","Diorite","Diorite","02","true","3","3","",""
"","","","","","","","","","","","html-button-response","194","2.0.0","5335746","66dc48cea9a85fe230c06b5f","1","37","596","","","","","","","","","<img src= rock_img/I_Diorite_02.jpg style=""width:8cm; height:6.27cm;""><p style='font-size: 30px; color: green;'><strong>Correct!</strong></p><p style='font-size: 30px;'><strong>This rock is diorite</strong></p>","0","corr_feedback","1","train","45","","","","","","","",""
"","","","","","","","","","","","html-button-response","195","2.0.0","5336869","66dc48cea9a85fe230c06b5f","1","37","1121","","","","","","","","","<img src= ""rock_img/I_Obsidian_02.jpg"" style=""width:8cm; height:7.51cm;""><p>What type of rock is this?</p>","4","class_response","1","train","46","Obsidian","Obsidian","02","true","5","5","",""
"","","","","","","","","","","","html-button-response","196","2.0.0","5337500","66dc48cea9a85fe230c06b5f","1","37","630","","","","","","","","","<img src= rock_img/I_Obsidian_02.jpg style=""width:8cm; height:7.51cm;""><p style='font-size: 30px; color: green;'><strong>Correct!</strong></p><p style='font-size: 30px;'><strong>This rock is obsidian</strong></p>","0","corr_feedback","1","train","46","","","","","","","",""
"","","","","","","","","","","","html-button-response","197","2.0.0","5339420","66dc48cea9a85fe230c06b5f","1","37","1918","","","","","","","","","<img src= ""rock_img/I_Diorite_11.jpg"" style=""width:8cm; height:7.11cm;""><p>What type of rock is this?</p>","6","class_response","1","train","47","Peridotite","Diorite","11","false","7","3","",""
"","","","","","","","","","","","html-button-response","198","2.0.0","5340357","66dc48cea9a85fe230c06b5f","1","37","935","","","","","","","","","<img src= rock_img/I_Diorite_11.jpg style=""width:8cm; height:7.11cm;""><p style='font-size: 30px; color: red;'><strong>Incorrect!</strong></p><p style='font-size: 30px;'><strong>This rock is diorite</strong></p>","0","corr_feedback","1","train","47","","","","","","","",""
"","","","","","","","","","","","html-button-response","199","2.0.0","5349128","66dc48cea9a85fe230c06b5f","1","37","8770","","","","","","","","","<img src= ""rock_img/I_Andesite_01.jpg"" style=""width:8cm; height:5.87cm;""><p>What type of rock is this?</p>","3","class_response","1","train","48","Gabbro","Andesite","01","false","4","1","",""
"","","","","","","","","","","","html-button-response","200","2.0.0","5355584","66dc48cea9a85fe230c06b5f","1","37","6454","","","","","","","","","<img src= rock_img/I_Andesite_01.jpg style=""width:8cm; height:5.87cm;""><p style='font-size: 30px; color: red;'><strong>Incorrect!</strong></p><p style='font-size: 30px;'><strong>This rock is andesite</strong></p>","0","corr_feedback","1","train","48","","","","","","","",""
"","","","","","","","","","","","instructions","203","2.0.0","5360460","66dc48cea9a85fe230c06b5f","1","37","4875","","","","","","","","[{""page_index"":0,""viewing_time"":2742},{""page_index"":1,""viewing_time"":2133}]","","","","","","","","","","","","","",""
"","","","","","","","","","","","html-button-response","204","2.0.0","5361693","66dc48cea9a85fe230c06b5f","1","37","1231","","","","","","","","","","0","start_test","","","","","","","","","","",""
"","","","","","","","","","","","html-button-response","205","2.0.0","5376736","66dc48cea9a85fe230c06b5f","1","37","15041","","","","","","","","","<img src= ""rock_img/I_Andesite_10.jpg"" style=""width:8cm; height:4.16cm;""><p>What type of rock is this?</p>","3","class_response","1","test","1","Gabbro","Andesite","10","false","4","1","",""
"","","","","","","","","","","","html-keyboard-response","206","2.0.0","5377241","66dc48cea9a85fe230c06b5f","1","37","null","","","","","","","","","<p style='font-size: 30px;'><strong>Okay</strong></p>","null","neutral_feedback","1","test","1","","","","","","","",""
"","","","","","","","","","","","html-button-response","207","2.0.0","5378419","66dc48cea9a85fe230c06b5f","1","37","1175","","","","","","","","","<img src= ""rock_img/I_Basalt_14.jpg"" style=""width:8cm; height:5.82cm;""><p>What type of rock is this?</p>","3","class_response","1","test","2","Gabbro","Basalt","14","false","4","2","",""
"","","","","","","","","","","","html-keyboard-response","208","2.0.0","5378924","66dc48cea9a85fe230c06b5f","1","37","null","","","","","","","","","<p style='font-size: 30px;'><strong>Okay</strong></p>","null","neutral_feedback","1","test","2","","","","","","","",""
"","","","","","","","","","","","html-button-response","209","2.0.0","5380199","66dc48cea9a85fe230c06b5f","1","37","1273","","","","","","","","","<img src= ""rock_img/I_Basalt_12.jpg"" style=""width:8cm; height:6.010000000000001cm;""><p>What type of rock is this?</p>","7","class_response","1","test","3","Pumice","Basalt","12","false","8","2","",""
"","","","","","","","","","","","html-keyboard-response","210","2.0.0","5380700","66dc48cea9a85fe230c06b5f","1","37","null","","","","","","","","","<p style='font-size: 30px;'><strong>Okay</strong></p>","null","neutral_feedback","1","test","3","","","","","","","",""
"","","","","","","","","","","","html-button-response","211","2.0.0","5387024","66dc48cea9a85fe230c06b5f","1","37","6322","","","","","","","","","<img src= ""rock_img/I_Gabbro_15.jpg"" style=""width:8cm; height:6.29cm;""><p>What type of rock is this?</p>","3","class_response","1","test","4","Gabbro","Gabbro","15","true","4","4","",""
"","","","","","","","","","","","html-keyboard-response","212","2.0.0","5387539","66dc48cea9a85fe230c06b5f","1","37","null","","","","","","","","","<p style='font-size: 30px;'><strong>Okay</strong></p>","null","neutral_feedback","1","test","4","","","","","","","",""
"","","","","","","","","","","","html-button-response","213","2.0.0","5392865","66dc48cea9a85fe230c06b5f","1","37","5324","","","","","","","","","<img src= ""rock_img/I_Diorite_10.jpg"" style=""width:8cm; height:5.949999999999999cm;""><p>What type of rock is this?</p>","6","class_response","1","test","5","Peridotite","Diorite","10","false","7","3","",""
"","","","","","","","","","","","html-keyboard-response","214","2.0.0","5393377","66dc48cea9a85fe230c06b5f","1","37","null","","","","","","","","","<p style='font-size: 30px;'><strong>Okay</strong></p>","null","neutral_feedback","1","test","5","","","","","","","",""
"","","","","","","","","","","","html-button-response","215","2.0.0","5394389","66dc48cea9a85fe230c06b5f","1","37","1011","","","","","","","","","<img src= ""rock_img/I_Pumice_04.jpg"" style=""width:8cm; height:6.819999999999999cm;""><p>What type of rock is this?</p>","7","class_response","1","test","6","Pumice","Pumice","04","true","8","8","",""
"","","","","","","","","","","","html-keyboard-response","216","2.0.0","5394894","66dc48cea9a85fe230c06b5f","1","37","null","","","","","","","","","<p style='font-size: 30px;'><strong>Okay</strong></p>","null","neutral_feedback","1","test","6","","","","","","","",""
"","","","","","","","","","","","html-button-response","217","2.0.0","5396051","66dc48cea9a85fe230c06b5f","1","37","1156","","","","","","","","","<img src= ""rock_img/I_Peridotite_13.jpg"" style=""width:8cm; height:7.58cm;""><p>What type of rock is this?</p>","5","class_response","1","test","7","Pegmatite","Peridotite","13","false","6","7","",""
"","","","","","","","","","","","html-keyboard-response","218","2.0.0","5396556","66dc48cea9a85fe230c06b5f","1","37","null","","","","","","","","","<p style='font-size: 30px;'><strong>Okay</strong></p>","null","neutral_feedback","1","test","7","","","","","","","",""
"","","","","","","","","","","","html-button-response","219","2.0.0","5399598","66dc48cea9a85fe230c06b5f","1","37","3040","","","","","","","","","<img src= ""rock_img/I_Diorite_16.jpg"" style=""width:8cm; height:6.74cm;""><p>What type of rock is this?</p>","2","class_response","1","test","8","Diorite","Diorite","16","true","3","3","",""
"","","","","","","","","","","","html-keyboard-response","220","2.0.0","5400112","66dc48cea9a85fe230c06b5f","1","37","null","","","","","","","","","<p style='font-size: 30px;'><strong>Okay</strong></p>","null","neutral_feedback","1","test","8","","","","","","","",""
"","","","","","","","","","","","html-button-response","221","2.0.0","5401906","66dc48cea9a85fe230c06b5f","1","37","1792","","","","","","","","","<img src= ""rock_img/I_Pegmatite_09.jpg"" style=""width:8cm; height:4.03cm;""><p>What type of rock is this?</p>","5","class_response","1","test","9","Pegmatite","Pegmatite","09","true","6","6","",""
"","","","","","","","","","","","html-keyboard-response","222","2.0.0","5402410","66dc48cea9a85fe230c06b5f","1","37","null","","","","","","","","","<p style='font-size: 30px;'><strong>Okay</strong></p>","null","neutral_feedback","1","test","9","","","","","","","",""
"","","","","","","","","","","","html-button-response","223","2.0.0","5403618","66dc48cea9a85fe230c06b5f","1","37","1207","","","","","","","","","<img src= ""rock_img/I_Obsidian_12.jpg"" style=""width:8cm; height:6.53cm;""><p>What type of rock is this?</p>","4","class_response","1","test","10","Obsidian","Obsidian","12","true","5","5","",""
"","","","","","","","","","","","html-keyboard-response","224","2.0.0","5404128","66dc48cea9a85fe230c06b5f","1","37","null","","","","","","","","","<p style='font-size: 30px;'><strong>Okay</strong></p>","null","neutral_feedback","1","test","10","","","","","","","",""
"","","","","","","","","","","","html-button-response","225","2.0.0","5405308","66dc48cea9a85fe230c06b5f","1","37","1178","","","","","","","","","<img src= ""rock_img/I_Peridotite_14.jpg"" style=""width:8cm; height:5.3cm;""><p>What type of rock is this?</p>","6","class_response","1","test","11","Peridotite","Peridotite","14","true","7","7","",""
"","","","","","","","","","","","html-keyboard-response","226","2.0.0","5405822","66dc48cea9a85fe230c06b5f","1","37","null","","","","","","","","","<p style='font-size: 30px;'><strong>Okay</strong></p>","null","neutral_feedback","1","test","11","","","","","","","",""
"","","","","","","","","","","","html-button-response","227","2.0.0","5406940","66dc48cea9a85fe230c06b5f","1","37","1115","","","","","","","","","<img src= ""rock_img/I_Peridotite_04.jpg"" style=""width:8cm; height:6.680000000000001cm;""><p>What type of rock is this?</p>","6","class_response","1","test","12","Peridotite","Peridotite","04","true","7","7","",""
"","","","","","","","","","","","html-keyboard-response","228","2.0.0","5407448","66dc48cea9a85fe230c06b5f","1","37","null","","","","","","","","","<p style='font-size: 30px;'><strong>Okay</strong></p>","null","neutral_feedback","1","test","12","","","","","","","",""
"","","","","","","","","","","","html-button-response","229","2.0.0","5408842","66dc48cea9a85fe230c06b5f","1","37","1392","","","","","","","","","<img src= ""rock_img/I_Pumice_05.jpg"" style=""width:8cm; height:7.25cm;""><p>What type of rock is this?</p>","7","class_response","1","test","13","Pumice","Pumice","05","true","8","8","",""
"","","","","","","","","","","","html-keyboard-response","230","2.0.0","5409347","66dc48cea9a85fe230c06b5f","1","37","null","","","","","","","","","<p style='font-size: 30px;'><strong>Okay</strong></p>","null","neutral_feedback","1","test","13","","","","","","","",""
"","","","","","","","","","","","html-button-response","231","2.0.0","5410279","66dc48cea9a85fe230c06b5f","1","37","931","","","","","","","","","<img src= ""rock_img/I_Pumice_10.jpg"" style=""width:8cm; height:7.609999999999999cm;""><p>What type of rock is this?</p>","7","class_response","1","test","14","Pumice","Pumice","10","true","8","8","",""
"","","","","","","","","","","","html-keyboard-response","232","2.0.0","5410790","66dc48cea9a85fe230c06b5f","1","37","null","","","","","","","","","<p style='font-size: 30px;'><strong>Okay</strong></p>","null","neutral_feedback","1","test","14","","","","","","","",""
"","","","","","","","","","","","html-button-response","233","2.0.0","5414292","66dc48cea9a85fe230c06b5f","1","37","3501","","","","","","","","","<img src= ""rock_img/I_Andesite_03.jpg"" style=""width:8cm; height:5.73cm;""><p>What type of rock is this?</p>","6","class_response","1","test","15","Peridotite","Andesite","03","false","7","1","",""
"","","","","","","","","","","","html-keyboard-response","234","2.0.0","5414798","66dc48cea9a85fe230c06b5f","1","37","null","","","","","","","","","<p style='font-size: 30px;'><strong>Okay</strong></p>","null","neutral_feedback","1","test","15","","","","","","","",""
"","","","","","","","","","","","html-button-response","235","2.0.0","5421693","66dc48cea9a85fe230c06b5f","1","37","6893","","","","","","","","","<img src= ""rock_img/I_Pegmatite_07.jpg"" style=""width:8cm; height:6.7cm;""><p>What type of rock is this?</p>","5","class_response","1","test","16","Pegmatite","Pegmatite","07","true","6","6","",""
"","","","","","","","","","","","html-keyboard-response","236","2.0.0","5422197","66dc48cea9a85fe230c06b5f","1","37","null","","","","","","","","","<p style='font-size: 30px;'><strong>Okay</strong></p>","null","neutral_feedback","1","test","16","","","","","","","",""
"","","","","","","","","","","","html-button-response","237","2.0.0","5423185","66dc48cea9a85fe230c06b5f","1","37","986","","","","","","","","","<img src= ""rock_img/I_Obsidian_16.jpg"" style=""width:8cm; height:9.3cm;""><p>What type of rock is this?</p>","4","class_response","1","test","17","Obsidian","Obsidian","16","true","5","5","",""
"","","","","","","","","","","","html-keyboard-response","238","2.0.0","5423698","66dc48cea9a85fe230c06b5f","1","37","null","","","","","","","","","<p style='font-size: 30px;'><strong>Okay</strong></p>","null","neutral_feedback","1","test","17","","","","","","","",""
"","","","","","","","","","","","html-button-response","239","2.0.0","5425112","66dc48cea9a85fe230c06b5f","1","37","1411","","","","","","","","","<img src= ""rock_img/I_Peridotite_06.jpg"" style=""width:8cm; height:7.53cm;""><p>What type of rock is this?</p>","6","class_response","1","test","18","Peridotite","Peridotite","06","true","7","7","",""
"","","","","","","","","","","","html-keyboard-response","240","2.0.0","5425624","66dc48cea9a85fe230c06b5f","1","37","null","","","","","","","","","<p style='font-size: 30px;'><strong>Okay</strong></p>","null","neutral_feedback","1","test","18","","","","","","","",""
"","","","","","","","","","","","html-button-response","241","2.0.0","5430918","66dc48cea9a85fe230c06b5f","1","37","5291","","","","","","","","","<img src= ""rock_img/I_Gabbro_12.jpg"" style=""width:8cm; height:7.800000000000001cm;""><p>What type of rock is this?</p>","3","class_response","1","test","19","Gabbro","Gabbro","12","true","4","4","",""
"","","","","","","","","","","","html-keyboard-response","242","2.0.0","5431420","66dc48cea9a85fe230c06b5f","1","37","null","","","","","","","","","<p style='font-size: 30px;'><strong>Okay</strong></p>","null","neutral_feedback","1","test","19","","","","","","","",""
"","","","","","","","","","","","html-button-response","243","2.0.0","5439401","66dc48cea9a85fe230c06b5f","1","37","7979","","","","","","","","","<img src= ""rock_img/I_Diorite_15.jpg"" style=""width:8cm; height:5.54cm;""><p>What type of rock is this?</p>","2","class_response","1","test","20","Diorite","Diorite","15","true","3","3","",""
"","","","","","","","","","","","html-keyboard-response","244","2.0.0","5439917","66dc48cea9a85fe230c06b5f","1","37","null","","","","","","","","","<p style='font-size: 30px;'><strong>Okay</strong></p>","null","neutral_feedback","1","test","20","","","","","","","",""
"","","","","","","","","","","","html-button-response","245","2.0.0","5446365","66dc48cea9a85fe230c06b5f","1","37","6446","","","","","","","","","<img src= ""rock_img/I_Peridotite_08.jpg"" style=""width:8cm; height:6.7cm;""><p>What type of rock is this?</p>","6","class_response","1","test","21","Peridotite","Peridotite","08","true","7","7","",""
"","","","","","","","","","","","html-keyboard-response","246","2.0.0","5446876","66dc48cea9a85fe230c06b5f","1","37","null","","","","","","","","","<p style='font-size: 30px;'><strong>Okay</strong></p>","null","neutral_feedback","1","test","21","","","","","","","",""
"","","","","","","","","","","","html-button-response","247","2.0.0","5448108","66dc48cea9a85fe230c06b5f","1","37","1230","","","","","","","","","<img src= ""rock_img/I_Pumice_15.jpg"" style=""width:8cm; height:7.86cm;""><p>What type of rock is this?</p>","7","class_response","1","test","22","Pumice","Pumice","15","true","8","8","",""
"","","","","","","","","","","","html-keyboard-response","248","2.0.0","5448620","66dc48cea9a85fe230c06b5f","1","37","null","","","","","","","","","<p style='font-size: 30px;'><strong>Okay</strong></p>","null","neutral_feedback","1","test","22","","","","","","","",""
"","","","","","","","","","","","html-button-response","249","2.0.0","5454506","66dc48cea9a85fe230c06b5f","1","37","5884","","","","","","","","","<img src= ""rock_img/I_Pegmatite_13.jpg"" style=""width:8cm; height:4.95cm;""><p>What type of rock is this?</p>","6","class_response","1","test","23","Peridotite","Pegmatite","13","false","7","6","",""
"","","","","","","","","","","","html-keyboard-response","250","2.0.0","5455010","66dc48cea9a85fe230c06b5f","1","37","null","","","","","","","","","<p style='font-size: 30px;'><strong>Okay</strong></p>","null","neutral_feedback","1","test","23","","","","","","","",""
"","","","","","","","","","","","html-button-response","251","2.0.0","5463537","66dc48cea9a85fe230c06b5f","1","37","8525","","","","","","","","","<img src= ""rock_img/I_Pegmatite_16.jpg"" style=""width:8cm; height:5.8cm;""><p>What type of rock is this?</p>","2","class_response","1","test","24","Diorite","Pegmatite","16","false","3","6","",""
"","","","","","","","","","","","html-keyboard-response","252","2.0.0","5464040","66dc48cea9a85fe230c06b5f","1","37","null","","","","","","","","","<p style='font-size: 30px;'><strong>Okay</strong></p>","null","neutral_feedback","1","test","24","","","","","","","",""
"","","","","","","","","","","","html-button-response","253","2.0.0","5466726","66dc48cea9a85fe230c06b5f","1","37","2684","","","","","","","","","<img src= ""rock_img/I_Gabbro_11.jpg"" style=""width:8cm; height:6.2cm;""><p>What type of rock is this?</p>","3","class_response","1","test","25","Gabbro","Gabbro","11","true","4","4","",""
"","","","","","","","","","","","html-keyboard-response","254","2.0.0","5467243","66dc48cea9a85fe230c06b5f","1","37","null","","","","","","","","","<p style='font-size: 30px;'><strong>Okay</strong></p>","null","neutral_feedback","1","test","25","","","","","","","",""
"","","","","","","","","","","","html-button-response","255","2.0.0","5468407","66dc48cea9a85fe230c06b5f","1","37","1161","","","","","","","","","<img src= ""rock_img/I_Basalt_11.jpg"" style=""width:8cm; height:5.359999999999999cm;""><p>What type of rock is this?</p>","3","class_response","1","test","26","Gabbro","Basalt","11","false","4","2","",""
"","","","","","","","","","","","html-keyboard-response","256","2.0.0","5468911","66dc48cea9a85fe230c06b5f","1","37","null","","","","","","","","","<p style='font-size: 30px;'><strong>Okay</strong></p>","null","neutral_feedback","1","test","26","","","","","","","",""
"","","","","","","","","","","","html-button-response","257","2.0.0","5470511","66dc48cea9a85fe230c06b5f","1","37","1598","","","","","","","","","<img src= ""rock_img/I_Diorite_12.jpg"" style=""width:8cm; height:4.88cm;""><p>What type of rock is this?</p>","6","class_response","1","test","27","Peridotite","Diorite","12","false","7","3","",""
"","","","","","","","","","","","html-keyboard-response","258","2.0.0","5471025","66dc48cea9a85fe230c06b5f","1","37","null","","","","","","","","","<p style='font-size: 30px;'><strong>Okay</strong></p>","null","neutral_feedback","1","test","27","","","","","","","",""
"","","","","","","","","","","","html-button-response","259","2.0.0","5472013","66dc48cea9a85fe230c06b5f","1","37","986","","","","","","","","","<img src= ""rock_img/I_Obsidian_14.jpg"" style=""width:8cm; height:7.64cm;""><p>What type of rock is this?</p>","4","class_response","1","test","28","Obsidian","Obsidian","14","true","5","5","",""
"","","","","","","","","","","","html-keyboard-response","260","2.0.0","5472518","66dc48cea9a85fe230c06b5f","1","37","null","","","","","","","","","<p style='font-size: 30px;'><strong>Okay</strong></p>","null","neutral_feedback","1","test","28","","","","","","","",""
"","","","","","","","","","","","html-button-response","261","2.0.0","5473292","66dc48cea9a85fe230c06b5f","1","37","772","","","","","","","","","<img src= ""rock_img/I_Obsidian_04.jpg"" style=""width:8cm; height:6.930000000000001cm;""><p>What type of rock is this?</p>","4","class_response","1","test","29","Obsidian","Obsidian","04","true","5","5","",""
"","","","","","","","","","","","html-keyboard-response","262","2.0.0","5473796","66dc48cea9a85fe230c06b5f","1","37","null","","","","","","","","","<p style='font-size: 30px;'><strong>Okay</strong></p>","null","neutral_feedback","1","test","29","","","","","","","",""
"","","","","","","","","","","","html-button-response","263","2.0.0","5481544","66dc48cea9a85fe230c06b5f","1","37","7747","","","","","","","","","<img src= ""rock_img/I_Gabbro_16.jpg"" style=""width:8cm; height:6.44cm;""><p>What type of rock is this?</p>","3","class_response","1","test","30","Gabbro","Gabbro","16","true","4","4","",""
"","","","","","","","","","","","html-keyboard-response","264","2.0.0","5482059","66dc48cea9a85fe230c06b5f","1","37","null","","","","","","","","","<p style='font-size: 30px;'><strong>Okay</strong></p>","null","neutral_feedback","1","test","30","","","","","","","",""
"","","","","","","","","","","","html-button-response","265","2.0.0","5487885","66dc48cea9a85fe230c06b5f","1","37","5825","","","","","","","","","<img src= ""rock_img/I_Gabbro_10.jpg"" style=""width:8cm; height:5.680000000000001cm;""><p>What type of rock is this?</p>","0","class_response","1","test","31","Andesite","Gabbro","10","false","1","4","",""
"","","","","","","","","","","","html-keyboard-response","266","2.0.0","5488398","66dc48cea9a85fe230c06b5f","1","37","null","","","","","","","","","<p style='font-size: 30px;'><strong>Okay</strong></p>","null","neutral_feedback","1","test","31","","","","","","","",""
"","","","","","","","","","","","html-button-response","267","2.0.0","5489714","66dc48cea9a85fe230c06b5f","1","37","1314","","","","","","","","","<img src= ""rock_img/I_Gabbro_05.jpg"" style=""width:8cm; height:6cm;""><p>What type of rock is this?</p>","6","class_response","1","test","32","Peridotite","Gabbro","05","false","7","4","",""
"","","","","","","","","","","","html-keyboard-response","268","2.0.0","5490224","66dc48cea9a85fe230c06b5f","1","37","null","","","","","","","","","<p style='font-size: 30px;'><strong>Okay</strong></p>","null","neutral_feedback","1","test","32","","","","","","","",""
"","","","","","","","","","","","html-button-response","269","2.0.0","5499384","66dc48cea9a85fe230c06b5f","1","37","9158","","","","","","","","","<img src= ""rock_img/I_Pegmatite_08.jpg"" style=""width:8cm; height:7.68cm;""><p>What type of rock is this?</p>","5","class_response","1","test","33","Pegmatite","Pegmatite","08","true","6","6","",""
"","","","","","","","","","","","html-keyboard-response","270","2.0.0","5499889","66dc48cea9a85fe230c06b5f","1","37","null","","","","","","","","","<p style='font-size: 30px;'><strong>Okay</strong></p>","null","neutral_feedback","1","test","33","","","","","","","",""
"","","","","","","","","","","","html-button-response","271","2.0.0","5503611","66dc48cea9a85fe230c06b5f","1","37","3720","","","","","","","","","<img src= ""rock_img/I_Andesite_06.jpg"" style=""width:8cm; height:6.840000000000001cm;""><p>What type of rock is this?</p>","2","class_response","1","test","34","Diorite","Andesite","06","false","3","1","",""
"","","","","","","","","","","","html-keyboard-response","272","2.0.0","5504114","66dc48cea9a85fe230c06b5f","1","37","null","","","","","","","","","<p style='font-size: 30px;'><strong>Okay</strong></p>","null","neutral_feedback","1","test","34","","","","","","","",""
"","","","","","","","","","","","html-button-response","273","2.0.0","5504919","66dc48cea9a85fe230c06b5f","1","37","803","","","","","","","","","<img src= ""rock_img/I_Andesite_05.jpg"" style=""width:8cm; height:4.12cm;""><p>What type of rock is this?</p>","6","class_response","1","test","35","Peridotite","Andesite","05","false","7","1","",""
"","","","","","","","","","","","html-keyboard-response","274","2.0.0","5505426","66dc48cea9a85fe230c06b5f","1","37","null","","","","","","","","","<p style='font-size: 30px;'><strong>Okay</strong></p>","null","neutral_feedback","1","test","35","","","","","","","",""
"","","","","","","","","","","","html-button-response","275","2.0.0","5506949","66dc48cea9a85fe230c06b5f","1","37","1521","","","","","","","","","<img src= ""rock_img/I_Diorite_13.jpg"" style=""width:8cm; height:6.29cm;""><p>What type of rock is this?</p>","3","class_response","1","test","36","Gabbro","Diorite","13","false","4","3","",""
"","","","","","","","","","","","html-keyboard-response","276","2.0.0","5507461","66dc48cea9a85fe230c06b5f","1","37","null","","","","","","","","","<p style='font-size: 30px;'><strong>Okay</strong></p>","null","neutral_feedback","1","test","36","","","","","","","",""
"","","","","","","","","","","","html-button-response","277","2.0.0","5508804","66dc48cea9a85fe230c06b5f","1","37","1341","","","","","","","","","<img src= ""rock_img/I_Andesite_04.jpg"" style=""width:8cm; height:5.96cm;""><p>What type of rock is this?</p>","1","class_response","1","test","37","Basalt","Andesite","04","false","2","1","",""
"","","","","","","","","","","","html-keyboard-response","278","2.0.0","5509313","66dc48cea9a85fe230c06b5f","1","37","null","","","","","","","","","<p style='font-size: 30px;'><strong>Okay</strong></p>","null","neutral_feedback","1","test","37","","","","","","","",""
"","","","","","","","","","","","html-button-response","279","2.0.0","5510509","66dc48cea9a85fe230c06b5f","1","37","1195","","","","","","","","","<img src= ""rock_img/I_Pegmatite_03.jpg"" style=""width:8cm; height:5.239999999999999cm;""><p>What type of rock is this?</p>","5","class_response","1","test","38","Pegmatite","Pegmatite","03","true","6","6","",""
"","","","","","","","","","","","html-keyboard-response","280","2.0.0","5511011","66dc48cea9a85fe230c06b5f","1","37","null","","","","","","","","","<p style='font-size: 30px;'><strong>Okay</strong></p>","null","neutral_feedback","1","test","38","","","","","","","",""
"","","","","","","","","","","","html-button-response","281","2.0.0","5515544","66dc48cea9a85fe230c06b5f","1","37","4531","","","","","","","","","<img src= ""rock_img/I_Diorite_06.jpg"" style=""width:8cm; height:6.03cm;""><p>What type of rock is this?</p>","2","class_response","1","test","39","Diorite","Diorite","06","true","3","3","",""
"","","","","","","","","","","","html-keyboard-response","282","2.0.0","5516058","66dc48cea9a85fe230c06b5f","1","37","null","","","","","","","","","<p style='font-size: 30px;'><strong>Okay</strong></p>","null","neutral_feedback","1","test","39","","","","","","","",""
"","","","","","","","","","","","html-button-response","283","2.0.0","5517193","66dc48cea9a85fe230c06b5f","1","37","1133","","","","","","","","","<img src= ""rock_img/I_Andesite_16.jpg"" style=""width:8cm; height:6.010000000000001cm;""><p>What type of rock is this?</p>","6","class_response","1","test","40","Peridotite","Andesite","16","false","7","1","",""
"","","","","","","","","","","","html-keyboard-response","284","2.0.0","5517704","66dc48cea9a85fe230c06b5f","1","37","null","","","","","","","","","<p style='font-size: 30px;'><strong>Okay</strong></p>","null","neutral_feedback","1","test","40","","","","","","","",""
"","","","","","","","","","","","html-button-response","285","2.0.0","5518678","66dc48cea9a85fe230c06b5f","1","37","972","","","","","","","","","<img src= ""rock_img/I_Obsidian_10.jpg"" style=""width:8cm; height:6.260000000000001cm;""><p>What type of rock is this?</p>","4","class_response","1","test","41","Obsidian","Obsidian","10","true","5","5","",""
"","","","","","","","","","","","html-keyboard-response","286","2.0.0","5519182","66dc48cea9a85fe230c06b5f","1","37","null","","","","","","","","","<p style='font-size: 30px;'><strong>Okay</strong></p>","null","neutral_feedback","1","test","41","","","","","","","",""
"","","","","","","","","","","","html-button-response","287","2.0.0","5520169","66dc48cea9a85fe230c06b5f","1","37","985","","","","","","","","","<img src= ""rock_img/I_Obsidian_07.jpg"" style=""width:8cm; height:4.76cm;""><p>What type of rock is this?</p>","4","class_response","1","test","42","Obsidian","Obsidian","07","true","5","5","",""
"","","","","","","","","","","","html-keyboard-response","288","2.0.0","5520670","66dc48cea9a85fe230c06b5f","1","37","null","","","","","","","","","<p style='font-size: 30px;'><strong>Okay</strong></p>","null","neutral_feedback","1","test","42","","","","","","","",""
"","","","","","","","","","","","html-button-response","289","2.0.0","5522108","66dc48cea9a85fe230c06b5f","1","37","1436","","","","","","","","","<img src= ""rock_img/I_Basalt_08.jpg"" style=""width:8cm; height:10.44cm;""><p>What type of rock is this?</p>","3","class_response","1","test","43","Gabbro","Basalt","08","false","4","2","",""
"","","","","","","","","","","","html-keyboard-response","290","2.0.0","5522615","66dc48cea9a85fe230c06b5f","1","37","null","","","","","","","","","<p style='font-size: 30px;'><strong>Okay</strong></p>","null","neutral_feedback","1","test","43","","","","","","","",""
"","","","","","","","","","","","html-button-response","291","2.0.0","5523582","66dc48cea9a85fe230c06b5f","1","37","966","","","","","","","","","<img src= ""rock_img/I_Basalt_06.jpg"" style=""width:8cm; height:7.06cm;""><p>What type of rock is this?</p>","3","class_response","1","test","44","Gabbro","Basalt","06","false","4","2","",""
"","","","","","","","","","","","html-keyboard-response","292","2.0.0","5524094","66dc48cea9a85fe230c06b5f","1","37","null","","","","","","","","","<p style='font-size: 30px;'><strong>Okay</strong></p>","null","neutral_feedback","1","test","44","","","","","","","",""
"","","","","","","","","","","","html-button-response","293","2.0.0","5525157","66dc48cea9a85fe230c06b5f","1","37","1061","","","","","","","","","<img src= ""rock_img/I_Pumice_13.jpg"" style=""width:8cm; height:8.200000000000001cm;""><p>What type of rock is this?</p>","7","class_response","1","test","45","Pumice","Pumice","13","true","8","8","",""
"","","","","","","","","","","","html-keyboard-response","294","2.0.0","5525666","66dc48cea9a85fe230c06b5f","1","37","null","","","","","","","","","<p style='font-size: 30px;'><strong>Okay</strong></p>","null","neutral_feedback","1","test","45","","","","","","","",""
"","","","","","","","","","","","html-button-response","295","2.0.0","5526661","66dc48cea9a85fe230c06b5f","1","37","993","","","","","","","","","<img src= ""rock_img/I_Basalt_09.jpg"" style=""width:8cm; height:6.2cm;""><p>What type of rock is this?</p>","6","class_response","1","test","46","Peridotite","Basalt","09","false","7","2","",""
"","","","","","","","","","","","html-keyboard-response","296","2.0.0","5527174","66dc48cea9a85fe230c06b5f","1","37","null","","","","","","","","","<p style='font-size: 30px;'><strong>Okay</strong></p>","null","neutral_feedback","1","test","46","","","","","","","",""
"","","","","","","","","","","","html-button-response","297","2.0.0","5528209","66dc48cea9a85fe230c06b5f","1","37","1033","","","","","","","","","<img src= ""rock_img/I_Pumice_16.jpg"" style=""width:8cm; height:6.79cm;""><p>What type of rock is this?</p>","2","class_response","1","test","47","Diorite","Pumice","16","false","3","8","",""
"","","","","","","","","","","","html-keyboard-response","298","2.0.0","5528722","66dc48cea9a85fe230c06b5f","1","37","null","","","","","","","","","<p style='font-size: 30px;'><strong>Okay</strong></p>","null","neutral_feedback","1","test","47","","","","","","","",""
"","","","","","","","","","","","html-button-response","299","2.0.0","5529719","66dc48cea9a85fe230c06b5f","1","37","995","","","","","","","","","<img src= ""rock_img/I_Peridotite_07.jpg"" style=""width:8cm; height:4.83cm;""><p>What type of rock is this?</p>","3","class_response","1","test","48","Gabbro","Peridotite","07","false","4","7","",""
"","","","","","","","","","","","html-keyboard-response","300","2.0.0","5530226","66dc48cea9a85fe230c06b5f","1","37","null","","","","","","","","","<p style='font-size: 30px;'><strong>Okay</strong></p>","null","neutral_feedback","1","test","48","","","","","","","",""
"","","","","","","","","","","","html-button-response","301","2.0.0","5559461","66dc48cea9a85fe230c06b5f","1","37","","","","","","","","","","","","cycle_feedback","","","","","","","","","","10702.800000000745","18523.5"
"","","","","","","","","","","","html-button-response","303","2.0.0","5560658","66dc48cea9a85fe230c06b5f","1","37","1195","","","","","","","","","","0","start_train","","","","","","","","","","",""
