width,height,webaudio,browser,browser_version,mobile,os,fullscreen,vsync_rate,webcam,microphone,trial_type,trial_index,plugin_version,time_elapsed,subjID,condition,stimID,rt,url,success,value,timeout,failed_images,failed_audio,failed_video,view_history,stimulus,response,trialType,cycle,phase,trial,resp,cat,token,corr,resp_num,cat_num,rt_ref,rt_paired,ref_cat_num,paired_cat_num,ref_cat,paired_cat,text_Andesite,text_Basalt,time_obs,time_resp,text_Gabbro,time_fb1,time_fb2,text_Diorite,text_Pegmatite
1420,679,TRUE,chrome,129.0.0,FALSE,Mac OS,TRUE,61.09,TRUE,TRUE,browser-check,0,2.0.0,992,5c09a1171907db0001602601,4,33,,,,,,,,,,,,,,,,,,,,,,,,,,,,,,,,,,,,
,,,,,,,,,,,external-html,1,2.0.0,7643,5c09a1171907db0001602601,4,33,6557,consent_form.html,,,,,,,,,,,,,,,,,,,,,,,,,,,,,,,,,,
,,,,,,,,,,,fullscreen,2,2.0.0,38598,5c09a1171907db0001602601,4,33,29944,,TRUE,,,,,,,,,,,,,,,,,,,,,,,,,,,,,,,,,
,,,,,,,,,,,call-function,3,2.0.0,38600,5c09a1171907db0001602601,4,33,,,,{},,,,,,,,,,,,,,,,,,,,,,,,,,,,,,,,
,,,,,,,,,,,preload,4,2.0.0,58907,5c09a1171907db0001602601,4,33,,,TRUE,,FALSE,[],[],[],,,,,,,,,,,,,,,,,,,,,,,,,,,,
,,,,,,,,,,,instructions,5,2.0.0,87958,5c09a1171907db0001602601,4,33,29049,,,,,,,,"[{""page_index"":0,""viewing_time"":5748},{""page_index"":1,""viewing_time"":13451},{""page_index"":2,""viewing_time"":9850}]",,,,,,,,,,,,,,,,,,,,,,,,,,,
,,,,,,,,,,,html-button-response,6,2.0.0,90156,5c09a1171907db0001602601,4,33,2196,,,,,,,,,,0,start_test,,,,,,,,,,,,,,,,,,,,,,,,
,,,,,,,,,,,html-button-response,7,2.0.0,95756,5c09a1171907db0001602601,4,33,5598,,,,,,,,,"<img src= ""rock_img/I_Pegmatite_06.jpg"" style=""width:8cm; height:5.17cm;""><p>What type of rock is this?</p>",2,class_response,0,test,1,Diorite,Pegmatite,6,FALSE,3,6,,,,,,,,,,,,,,,
,,,,,,,,,,,html-keyboard-response,8,2.0.0,96259,5c09a1171907db0001602601,4,33,null,,,,,,,,,<p style='font-size: 30px;'><strong>Okay</strong></p>,null,neutral_feedback,0,test,1,,,,,,,,,,,,,,,,,,,,,
,,,,,,,,,,,html-button-response,9,2.0.0,100789,5c09a1171907db0001602601,4,33,4526,,,,,,,,,"<img src= ""rock_img/I_Diorite_14.jpg"" style=""width:8cm; height:5.71cm;""><p>What type of rock is this?</p>",6,class_response,0,test,2,Peridotite,Diorite,14,FALSE,7,3,,,,,,,,,,,,,,,
,,,,,,,,,,,html-keyboard-response,10,2.0.0,101291,5c09a1171907db0001602601,4,33,null,,,,,,,,,<p style='font-size: 30px;'><strong>Okay</strong></p>,null,neutral_feedback,0,test,2,,,,,,,,,,,,,,,,,,,,,
,,,,,,,,,,,html-button-response,11,2.0.0,104291,5c09a1171907db0001602601,4,33,2997,,,,,,,,,"<img src= ""rock_img/I_Diorite_02.jpg"" style=""width:8cm; height:6.27cm;""><p>What type of rock is this?</p>",0,class_response,0,test,3,Andesite,Diorite,2,FALSE,1,3,,,,,,,,,,,,,,,
,,,,,,,,,,,html-keyboard-response,12,2.0.0,104793,5c09a1171907db0001602601,4,33,null,,,,,,,,,<p style='font-size: 30px;'><strong>Okay</strong></p>,null,neutral_feedback,0,test,3,,,,,,,,,,,,,,,,,,,,,
,,,,,,,,,,,html-button-response,13,2.0.0,107455,5c09a1171907db0001602601,4,33,2659,,,,,,,,,"<img src= ""rock_img/I_Andesite_02.jpg"" style=""width:8cm; height:8.5cm;""><p>What type of rock is this?</p>",1,class_response,0,test,4,Basalt,Andesite,2,FALSE,2,1,,,,,,,,,,,,,,,
,,,,,,,,,,,html-keyboard-response,14,2.0.0,107960,5c09a1171907db0001602601,4,33,null,,,,,,,,,<p style='font-size: 30px;'><strong>Okay</strong></p>,null,neutral_feedback,0,test,4,,,,,,,,,,,,,,,,,,,,,
,,,,,,,,,,,html-button-response,15,2.0.0,110258,5c09a1171907db0001602601,4,33,2297,,,,,,,,,"<img src= ""rock_img/I_Peridotite_13.jpg"" style=""width:8cm; height:7.58cm;""><p>What type of rock is this?</p>",6,class_response,0,test,5,Peridotite,Peridotite,13,TRUE,7,7,,,,,,,,,,,,,,,
,,,,,,,,,,,html-keyboard-response,16,2.0.0,110763,5c09a1171907db0001602601,4,33,null,,,,,,,,,<p style='font-size: 30px;'><strong>Okay</strong></p>,null,neutral_feedback,0,test,5,,,,,,,,,,,,,,,,,,,,,
,,,,,,,,,,,html-button-response,17,2.0.0,112120,5c09a1171907db0001602601,4,33,1355,,,,,,,,,"<img src= ""rock_img/I_Obsidian_12.jpg"" style=""width:8cm; height:6.53cm;""><p>What type of rock is this?</p>",4,class_response,0,test,6,Obsidian,Obsidian,12,TRUE,5,5,,,,,,,,,,,,,,,
,,,,,,,,,,,html-keyboard-response,18,2.0.0,112623,5c09a1171907db0001602601,4,33,null,,,,,,,,,<p style='font-size: 30px;'><strong>Okay</strong></p>,null,neutral_feedback,0,test,6,,,,,,,,,,,,,,,,,,,,,
,,,,,,,,,,,html-button-response,19,2.0.0,116107,5c09a1171907db0001602601,4,33,3481,,,,,,,,,"<img src= ""rock_img/I_Andesite_06.jpg"" style=""width:8cm; height:6.840000000000001cm;""><p>What type of rock is this?</p>",7,class_response,0,test,7,Pumice,Andesite,6,FALSE,8,1,,,,,,,,,,,,,,,
,,,,,,,,,,,html-keyboard-response,20,2.0.0,116609,5c09a1171907db0001602601,4,33,null,,,,,,,,,<p style='font-size: 30px;'><strong>Okay</strong></p>,null,neutral_feedback,0,test,7,,,,,,,,,,,,,,,,,,,,,
,,,,,,,,,,,html-button-response,21,2.0.0,118121,5c09a1171907db0001602601,4,33,1510,,,,,,,,,"<img src= ""rock_img/I_Obsidian_16.jpg"" style=""width:8cm; height:9.3cm;""><p>What type of rock is this?</p>",4,class_response,0,test,8,Obsidian,Obsidian,16,TRUE,5,5,,,,,,,,,,,,,,,
,,,,,,,,,,,html-keyboard-response,22,2.0.0,118624,5c09a1171907db0001602601,4,33,null,,,,,,,,,<p style='font-size: 30px;'><strong>Okay</strong></p>,null,neutral_feedback,0,test,8,,,,,,,,,,,,,,,,,,,,,
,,,,,,,,,,,html-button-response,23,2.0.0,121739,5c09a1171907db0001602601,4,33,3112,,,,,,,,,"<img src= ""rock_img/I_Gabbro_03.jpg"" style=""width:8cm; height:8.52cm;""><p>What type of rock is this?</p>",0,class_response,0,test,9,Andesite,Gabbro,3,FALSE,1,4,,,,,,,,,,,,,,,
,,,,,,,,,,,html-keyboard-response,24,2.0.0,122243,5c09a1171907db0001602601,4,33,null,,,,,,,,,<p style='font-size: 30px;'><strong>Okay</strong></p>,null,neutral_feedback,0,test,9,,,,,,,,,,,,,,,,,,,,,
,,,,,,,,,,,html-button-response,25,2.0.0,124854,5c09a1171907db0001602601,4,33,2609,,,,,,,,,"<img src= ""rock_img/I_Diorite_10.jpg"" style=""width:8cm; height:5.949999999999999cm;""><p>What type of rock is this?</p>",5,class_response,0,test,10,Pegmatite,Diorite,10,FALSE,6,3,,,,,,,,,,,,,,,
,,,,,,,,,,,html-keyboard-response,26,2.0.0,125357,5c09a1171907db0001602601,4,33,null,,,,,,,,,<p style='font-size: 30px;'><strong>Okay</strong></p>,null,neutral_feedback,0,test,10,,,,,,,,,,,,,,,,,,,,,
,,,,,,,,,,,html-button-response,27,2.0.0,127972,5c09a1171907db0001602601,4,33,2613,,,,,,,,,"<img src= ""rock_img/I_Basalt_06.jpg"" style=""width:8cm; height:7.06cm;""><p>What type of rock is this?</p>",3,class_response,0,test,11,Gabbro,Basalt,6,FALSE,4,2,,,,,,,,,,,,,,,
,,,,,,,,,,,html-keyboard-response,28,2.0.0,128474,5c09a1171907db0001602601,4,33,null,,,,,,,,,<p style='font-size: 30px;'><strong>Okay</strong></p>,null,neutral_feedback,0,test,11,,,,,,,,,,,,,,,,,,,,,
,,,,,,,,,,,html-button-response,29,2.0.0,130289,5c09a1171907db0001602601,4,33,1813,,,,,,,,,"<img src= ""rock_img/I_Pegmatite_12.jpg"" style=""width:8cm; height:5.7cm;""><p>What type of rock is this?</p>",2,class_response,0,test,12,Diorite,Pegmatite,12,FALSE,3,6,,,,,,,,,,,,,,,
,,,,,,,,,,,html-keyboard-response,30,2.0.0,130791,5c09a1171907db0001602601,4,33,null,,,,,,,,,<p style='font-size: 30px;'><strong>Okay</strong></p>,null,neutral_feedback,0,test,12,,,,,,,,,,,,,,,,,,,,,
,,,,,,,,,,,html-button-response,31,2.0.0,134525,5c09a1171907db0001602601,4,33,3731,,,,,,,,,"<img src= ""rock_img/I_Obsidian_06.jpg"" style=""width:8cm; height:6.8cm;""><p>What type of rock is this?</p>",3,class_response,0,test,13,Gabbro,Obsidian,6,FALSE,4,5,,,,,,,,,,,,,,,
,,,,,,,,,,,html-keyboard-response,32,2.0.0,135027,5c09a1171907db0001602601,4,33,null,,,,,,,,,<p style='font-size: 30px;'><strong>Okay</strong></p>,null,neutral_feedback,0,test,13,,,,,,,,,,,,,,,,,,,,,
,,,,,,,,,,,html-button-response,33,2.0.0,136805,5c09a1171907db0001602601,4,33,1776,,,,,,,,,"<img src= ""rock_img/I_Obsidian_09.jpg"" style=""width:8cm; height:5cm;""><p>What type of rock is this?</p>",4,class_response,0,test,14,Obsidian,Obsidian,9,TRUE,5,5,,,,,,,,,,,,,,,
,,,,,,,,,,,html-keyboard-response,34,2.0.0,137310,5c09a1171907db0001602601,4,33,null,,,,,,,,,<p style='font-size: 30px;'><strong>Okay</strong></p>,null,neutral_feedback,0,test,14,,,,,,,,,,,,,,,,,,,,,
,,,,,,,,,,,html-button-response,35,2.0.0,141892,5c09a1171907db0001602601,4,33,4579,,,,,,,,,"<img src= ""rock_img/I_Obsidian_05.jpg"" style=""width:8cm; height:6.33cm;""><p>What type of rock is this?</p>",2,class_response,0,test,15,Diorite,Obsidian,5,FALSE,3,5,,,,,,,,,,,,,,,
,,,,,,,,,,,html-keyboard-response,36,2.0.0,142393,5c09a1171907db0001602601,4,33,null,,,,,,,,,<p style='font-size: 30px;'><strong>Okay</strong></p>,null,neutral_feedback,0,test,15,,,,,,,,,,,,,,,,,,,,,
,,,,,,,,,,,html-button-response,37,2.0.0,144439,5c09a1171907db0001602601,4,33,2044,,,,,,,,,"<img src= ""rock_img/I_Pumice_09.jpg"" style=""width:8cm; height:6.44cm;""><p>What type of rock is this?</p>",7,class_response,0,test,16,Pumice,Pumice,9,TRUE,8,8,,,,,,,,,,,,,,,
,,,,,,,,,,,html-keyboard-response,38,2.0.0,144945,5c09a1171907db0001602601,4,33,null,,,,,,,,,<p style='font-size: 30px;'><strong>Okay</strong></p>,null,neutral_feedback,0,test,16,,,,,,,,,,,,,,,,,,,,,
,,,,,,,,,,,html-button-response,39,2.0.0,147705,5c09a1171907db0001602601,4,33,2758,,,,,,,,,"<img src= ""rock_img/I_Pegmatite_03.jpg"" style=""width:8cm; height:5.239999999999999cm;""><p>What type of rock is this?</p>",6,class_response,0,test,17,Peridotite,Pegmatite,3,FALSE,7,6,,,,,,,,,,,,,,,
,,,,,,,,,,,html-keyboard-response,40,2.0.0,148206,5c09a1171907db0001602601,4,33,null,,,,,,,,,<p style='font-size: 30px;'><strong>Okay</strong></p>,null,neutral_feedback,0,test,17,,,,,,,,,,,,,,,,,,,,,
,,,,,,,,,,,html-button-response,41,2.0.0,152722,5c09a1171907db0001602601,4,33,4514,,,,,,,,,"<img src= ""rock_img/I_Pumice_02.jpg"" style=""width:8cm; height:7.3999999999999995cm;""><p>What type of rock is this?</p>",7,class_response,0,test,18,Pumice,Pumice,2,TRUE,8,8,,,,,,,,,,,,,,,
,,,,,,,,,,,html-keyboard-response,42,2.0.0,153226,5c09a1171907db0001602601,4,33,null,,,,,,,,,<p style='font-size: 30px;'><strong>Okay</strong></p>,null,neutral_feedback,0,test,18,,,,,,,,,,,,,,,,,,,,,
,,,,,,,,,,,html-button-response,43,2.0.0,154605,5c09a1171907db0001602601,4,33,1376,,,,,,,,,"<img src= ""rock_img/I_Andesite_01.jpg"" style=""width:8cm; height:5.87cm;""><p>What type of rock is this?</p>",3,class_response,0,test,19,Gabbro,Andesite,1,FALSE,4,1,,,,,,,,,,,,,,,
,,,,,,,,,,,html-keyboard-response,44,2.0.0,155110,5c09a1171907db0001602601,4,33,null,,,,,,,,,<p style='font-size: 30px;'><strong>Okay</strong></p>,null,neutral_feedback,0,test,19,,,,,,,,,,,,,,,,,,,,,
,,,,,,,,,,,html-button-response,45,2.0.0,156740,5c09a1171907db0001602601,4,33,1628,,,,,,,,,"<img src= ""rock_img/I_Pumice_05.jpg"" style=""width:8cm; height:7.25cm;""><p>What type of rock is this?</p>",7,class_response,0,test,20,Pumice,Pumice,5,TRUE,8,8,,,,,,,,,,,,,,,
,,,,,,,,,,,html-keyboard-response,46,2.0.0,157244,5c09a1171907db0001602601,4,33,null,,,,,,,,,<p style='font-size: 30px;'><strong>Okay</strong></p>,null,neutral_feedback,0,test,20,,,,,,,,,,,,,,,,,,,,,
,,,,,,,,,,,html-button-response,47,2.0.0,158754,5c09a1171907db0001602601,4,33,1507,,,,,,,,,"<img src= ""rock_img/I_Peridotite_16.jpg"" style=""width:8cm; height:6.989999999999999cm;""><p>What type of rock is this?</p>",6,class_response,0,test,21,Peridotite,Peridotite,16,TRUE,7,7,,,,,,,,,,,,,,,
,,,,,,,,,,,html-keyboard-response,48,2.0.0,159257,5c09a1171907db0001602601,4,33,null,,,,,,,,,<p style='font-size: 30px;'><strong>Okay</strong></p>,null,neutral_feedback,0,test,21,,,,,,,,,,,,,,,,,,,,,
,,,,,,,,,,,html-button-response,49,2.0.0,160524,5c09a1171907db0001602601,4,33,1265,,,,,,,,,"<img src= ""rock_img/I_Gabbro_13.jpg"" style=""width:8cm; height:5.08cm;""><p>What type of rock is this?</p>",1,class_response,0,test,22,Basalt,Gabbro,13,FALSE,2,4,,,,,,,,,,,,,,,
,,,,,,,,,,,html-keyboard-response,50,2.0.0,161025,5c09a1171907db0001602601,4,33,null,,,,,,,,,<p style='font-size: 30px;'><strong>Okay</strong></p>,null,neutral_feedback,0,test,22,,,,,,,,,,,,,,,,,,,,,
,,,,,,,,,,,html-button-response,51,2.0.0,162658,5c09a1171907db0001602601,4,33,1630,,,,,,,,,"<img src= ""rock_img/I_Pumice_06.jpg"" style=""width:8cm; height:6.9399999999999995cm;""><p>What type of rock is this?</p>",2,class_response,0,test,23,Diorite,Pumice,6,FALSE,3,8,,,,,,,,,,,,,,,
,,,,,,,,,,,html-keyboard-response,52,2.0.0,163161,5c09a1171907db0001602601,4,33,null,,,,,,,,,<p style='font-size: 30px;'><strong>Okay</strong></p>,null,neutral_feedback,0,test,23,,,,,,,,,,,,,,,,,,,,,
,,,,,,,,,,,html-button-response,53,2.0.0,164440,5c09a1171907db0001602601,4,33,1277,,,,,,,,,"<img src= ""rock_img/I_Pegmatite_10.jpg"" style=""width:8cm; height:4.16cm;""><p>What type of rock is this?</p>",6,class_response,0,test,24,Peridotite,Pegmatite,10,FALSE,7,6,,,,,,,,,,,,,,,
,,,,,,,,,,,html-keyboard-response,54,2.0.0,164943,5c09a1171907db0001602601,4,33,null,,,,,,,,,<p style='font-size: 30px;'><strong>Okay</strong></p>,null,neutral_feedback,0,test,24,,,,,,,,,,,,,,,,,,,,,
,,,,,,,,,,,html-button-response,55,2.0.0,167037,5c09a1171907db0001602601,4,33,2092,,,,,,,,,"<img src= ""rock_img/I_Pegmatite_15.jpg"" style=""width:8cm; height:6cm;""><p>What type of rock is this?</p>",3,class_response,0,test,25,Gabbro,Pegmatite,15,FALSE,4,6,,,,,,,,,,,,,,,
,,,,,,,,,,,html-keyboard-response,56,2.0.0,167541,5c09a1171907db0001602601,4,33,null,,,,,,,,,<p style='font-size: 30px;'><strong>Okay</strong></p>,null,neutral_feedback,0,test,25,,,,,,,,,,,,,,,,,,,,,
,,,,,,,,,,,html-button-response,57,2.0.0,169058,5c09a1171907db0001602601,4,33,1516,,,,,,,,,"<img src= ""rock_img/I_Diorite_16.jpg"" style=""width:8cm; height:6.74cm;""><p>What type of rock is this?</p>",5,class_response,0,test,26,Pegmatite,Diorite,16,FALSE,6,3,,,,,,,,,,,,,,,
,,,,,,,,,,,html-keyboard-response,58,2.0.0,169560,5c09a1171907db0001602601,4,33,null,,,,,,,,,<p style='font-size: 30px;'><strong>Okay</strong></p>,null,neutral_feedback,0,test,26,,,,,,,,,,,,,,,,,,,,,
,,,,,,,,,,,html-button-response,59,2.0.0,171788,5c09a1171907db0001602601,4,33,2225,,,,,,,,,"<img src= ""rock_img/I_Gabbro_10.jpg"" style=""width:8cm; height:5.680000000000001cm;""><p>What type of rock is this?</p>",4,class_response,0,test,27,Obsidian,Gabbro,10,FALSE,5,4,,,,,,,,,,,,,,,
,,,,,,,,,,,html-keyboard-response,60,2.0.0,172291,5c09a1171907db0001602601,4,33,null,,,,,,,,,<p style='font-size: 30px;'><strong>Okay</strong></p>,null,neutral_feedback,0,test,27,,,,,,,,,,,,,,,,,,,,,
,,,,,,,,,,,html-button-response,61,2.0.0,174760,5c09a1171907db0001602601,4,33,2467,,,,,,,,,"<img src= ""rock_img/I_Peridotite_07.jpg"" style=""width:8cm; height:4.83cm;""><p>What type of rock is this?</p>",0,class_response,0,test,28,Andesite,Peridotite,7,FALSE,1,7,,,,,,,,,,,,,,,
,,,,,,,,,,,html-keyboard-response,62,2.0.0,175262,5c09a1171907db0001602601,4,33,null,,,,,,,,,<p style='font-size: 30px;'><strong>Okay</strong></p>,null,neutral_feedback,0,test,28,,,,,,,,,,,,,,,,,,,,,
,,,,,,,,,,,html-button-response,63,2.0.0,176920,5c09a1171907db0001602601,4,33,1657,,,,,,,,,"<img src= ""rock_img/I_Pegmatite_05.jpg"" style=""width:8cm; height:7.300000000000001cm;""><p>What type of rock is this?</p>",2,class_response,0,test,29,Diorite,Pegmatite,5,FALSE,3,6,,,,,,,,,,,,,,,
,,,,,,,,,,,html-keyboard-response,64,2.0.0,177422,5c09a1171907db0001602601,4,33,null,,,,,,,,,<p style='font-size: 30px;'><strong>Okay</strong></p>,null,neutral_feedback,0,test,29,,,,,,,,,,,,,,,,,,,,,
,,,,,,,,,,,html-button-response,65,2.0.0,178670,5c09a1171907db0001602601,4,33,1246,,,,,,,,,"<img src= ""rock_img/I_Obsidian_08.jpg"" style=""width:8cm; height:7.39cm;""><p>What type of rock is this?</p>",4,class_response,0,test,30,Obsidian,Obsidian,8,TRUE,5,5,,,,,,,,,,,,,,,
,,,,,,,,,,,html-keyboard-response,66,2.0.0,179173,5c09a1171907db0001602601,4,33,null,,,,,,,,,<p style='font-size: 30px;'><strong>Okay</strong></p>,null,neutral_feedback,0,test,30,,,,,,,,,,,,,,,,,,,,,
,,,,,,,,,,,html-button-response,67,2.0.0,180743,5c09a1171907db0001602601,4,33,1568,,,,,,,,,"<img src= ""rock_img/I_Diorite_09.jpg"" style=""width:8cm; height:5.27cm;""><p>What type of rock is this?</p>",0,class_response,0,test,31,Andesite,Diorite,9,FALSE,1,3,,,,,,,,,,,,,,,
,,,,,,,,,,,html-keyboard-response,68,2.0.0,181247,5c09a1171907db0001602601,4,33,null,,,,,,,,,<p style='font-size: 30px;'><strong>Okay</strong></p>,null,neutral_feedback,0,test,31,,,,,,,,,,,,,,,,,,,,,
,,,,,,,,,,,html-button-response,69,2.0.0,182870,5c09a1171907db0001602601,4,33,1621,,,,,,,,,"<img src= ""rock_img/I_Peridotite_08.jpg"" style=""width:8cm; height:6.7cm;""><p>What type of rock is this?</p>",6,class_response,0,test,32,Peridotite,Peridotite,8,TRUE,7,7,,,,,,,,,,,,,,,
,,,,,,,,,,,html-keyboard-response,70,2.0.0,183373,5c09a1171907db0001602601,4,33,null,,,,,,,,,<p style='font-size: 30px;'><strong>Okay</strong></p>,null,neutral_feedback,0,test,32,,,,,,,,,,,,,,,,,,,,,
,,,,,,,,,,,html-button-response,71,2.0.0,184573,5c09a1171907db0001602601,4,33,1197,,,,,,,,,"<img src= ""rock_img/I_Pumice_14.jpg"" style=""width:8cm; height:6.39cm;""><p>What type of rock is this?</p>",7,class_response,0,test,33,Pumice,Pumice,14,TRUE,8,8,,,,,,,,,,,,,,,
,,,,,,,,,,,html-keyboard-response,72,2.0.0,185074,5c09a1171907db0001602601,4,33,null,,,,,,,,,<p style='font-size: 30px;'><strong>Okay</strong></p>,null,neutral_feedback,0,test,33,,,,,,,,,,,,,,,,,,,,,
,,,,,,,,,,,html-button-response,73,2.0.0,186523,5c09a1171907db0001602601,4,33,1448,,,,,,,,,"<img src= ""rock_img/I_Basalt_10.jpg"" style=""width:8cm; height:5.85cm;""><p>What type of rock is this?</p>",3,class_response,0,test,34,Gabbro,Basalt,10,FALSE,4,2,,,,,,,,,,,,,,,
,,,,,,,,,,,html-keyboard-response,74,2.0.0,187026,5c09a1171907db0001602601,4,33,null,,,,,,,,,<p style='font-size: 30px;'><strong>Okay</strong></p>,null,neutral_feedback,0,test,34,,,,,,,,,,,,,,,,,,,,,
,,,,,,,,,,,html-button-response,75,2.0.0,188688,5c09a1171907db0001602601,4,33,1660,,,,,,,,,"<img src= ""rock_img/I_Basalt_08.jpg"" style=""width:8cm; height:10.44cm;""><p>What type of rock is this?</p>",5,class_response,0,test,35,Pegmatite,Basalt,8,FALSE,6,2,,,,,,,,,,,,,,,
,,,,,,,,,,,html-keyboard-response,76,2.0.0,189190,5c09a1171907db0001602601,4,33,null,,,,,,,,,<p style='font-size: 30px;'><strong>Okay</strong></p>,null,neutral_feedback,0,test,35,,,,,,,,,,,,,,,,,,,,,
,,,,,,,,,,,html-button-response,77,2.0.0,191054,5c09a1171907db0001602601,4,33,1862,,,,,,,,,"<img src= ""rock_img/I_Diorite_15.jpg"" style=""width:8cm; height:5.54cm;""><p>What type of rock is this?</p>",0,class_response,0,test,36,Andesite,Diorite,15,FALSE,1,3,,,,,,,,,,,,,,,
,,,,,,,,,,,html-keyboard-response,78,2.0.0,191555,5c09a1171907db0001602601,4,33,null,,,,,,,,,<p style='font-size: 30px;'><strong>Okay</strong></p>,null,neutral_feedback,0,test,36,,,,,,,,,,,,,,,,,,,,,
,,,,,,,,,,,html-button-response,79,2.0.0,193704,5c09a1171907db0001602601,4,33,2146,,,,,,,,,"<img src= ""rock_img/I_Basalt_16.jpg"" style=""width:8cm; height:7.659999999999999cm;""><p>What type of rock is this?</p>",5,class_response,0,test,37,Pegmatite,Basalt,16,FALSE,6,2,,,,,,,,,,,,,,,
,,,,,,,,,,,html-keyboard-response,80,2.0.0,194206,5c09a1171907db0001602601,4,33,null,,,,,,,,,<p style='font-size: 30px;'><strong>Okay</strong></p>,null,neutral_feedback,0,test,37,,,,,,,,,,,,,,,,,,,,,
,,,,,,,,,,,html-button-response,81,2.0.0,195554,5c09a1171907db0001602601,4,33,1345,,,,,,,,,"<img src= ""rock_img/I_Gabbro_08.jpg"" style=""width:8cm; height:5.15cm;""><p>What type of rock is this?</p>",1,class_response,0,test,38,Basalt,Gabbro,8,FALSE,2,4,,,,,,,,,,,,,,,
,,,,,,,,,,,html-keyboard-response,82,2.0.0,196056,5c09a1171907db0001602601,4,33,null,,,,,,,,,<p style='font-size: 30px;'><strong>Okay</strong></p>,null,neutral_feedback,0,test,38,,,,,,,,,,,,,,,,,,,,,
,,,,,,,,,,,html-button-response,83,2.0.0,197770,5c09a1171907db0001602601,4,33,1713,,,,,,,,,"<img src= ""rock_img/I_Andesite_16.jpg"" style=""width:8cm; height:6.010000000000001cm;""><p>What type of rock is this?</p>",0,class_response,0,test,39,Andesite,Andesite,16,TRUE,1,1,,,,,,,,,,,,,,,
,,,,,,,,,,,html-keyboard-response,84,2.0.0,198272,5c09a1171907db0001602601,4,33,null,,,,,,,,,<p style='font-size: 30px;'><strong>Okay</strong></p>,null,neutral_feedback,0,test,39,,,,,,,,,,,,,,,,,,,,,
,,,,,,,,,,,html-button-response,85,2.0.0,199553,5c09a1171907db0001602601,4,33,1280,,,,,,,,,"<img src= ""rock_img/I_Andesite_09.jpg"" style=""width:8cm; height:6cm;""><p>What type of rock is this?</p>",0,class_response,0,test,40,Andesite,Andesite,9,TRUE,1,1,,,,,,,,,,,,,,,
,,,,,,,,,,,html-keyboard-response,86,2.0.0,200056,5c09a1171907db0001602601,4,33,null,,,,,,,,,<p style='font-size: 30px;'><strong>Okay</strong></p>,null,neutral_feedback,0,test,40,,,,,,,,,,,,,,,,,,,,,
,,,,,,,,,,,html-button-response,87,2.0.0,201340,5c09a1171907db0001602601,4,33,1282,,,,,,,,,"<img src= ""rock_img/I_Peridotite_05.jpg"" style=""width:8cm; height:7.1499999999999995cm;""><p>What type of rock is this?</p>",6,class_response,0,test,41,Peridotite,Peridotite,5,TRUE,7,7,,,,,,,,,,,,,,,
,,,,,,,,,,,html-keyboard-response,88,2.0.0,201842,5c09a1171907db0001602601,4,33,null,,,,,,,,,<p style='font-size: 30px;'><strong>Okay</strong></p>,null,neutral_feedback,0,test,41,,,,,,,,,,,,,,,,,,,,,
,,,,,,,,,,,html-button-response,89,2.0.0,203173,5c09a1171907db0001602601,4,33,1329,,,,,,,,,"<img src= ""rock_img/I_Basalt_11.jpg"" style=""width:8cm; height:5.359999999999999cm;""><p>What type of rock is this?</p>",3,class_response,0,test,42,Gabbro,Basalt,11,FALSE,4,2,,,,,,,,,,,,,,,
,,,,,,,,,,,html-keyboard-response,90,2.0.0,203674,5c09a1171907db0001602601,4,33,null,,,,,,,,,<p style='font-size: 30px;'><strong>Okay</strong></p>,null,neutral_feedback,0,test,42,,,,,,,,,,,,,,,,,,,,,
,,,,,,,,,,,html-button-response,91,2.0.0,205470,5c09a1171907db0001602601,4,33,1794,,,,,,,,,"<img src= ""rock_img/I_Peridotite_04.jpg"" style=""width:8cm; height:6.680000000000001cm;""><p>What type of rock is this?</p>",2,class_response,0,test,43,Diorite,Peridotite,4,FALSE,3,7,,,,,,,,,,,,,,,
,,,,,,,,,,,html-keyboard-response,92,2.0.0,205972,5c09a1171907db0001602601,4,33,null,,,,,,,,,<p style='font-size: 30px;'><strong>Okay</strong></p>,null,neutral_feedback,0,test,43,,,,,,,,,,,,,,,,,,,,,
,,,,,,,,,,,html-button-response,93,2.0.0,207021,5c09a1171907db0001602601,4,33,1046,,,,,,,,,"<img src= ""rock_img/I_Gabbro_16.jpg"" style=""width:8cm; height:6.44cm;""><p>What type of rock is this?</p>",2,class_response,0,test,44,Diorite,Gabbro,16,FALSE,3,4,,,,,,,,,,,,,,,
,,,,,,,,,,,html-keyboard-response,94,2.0.0,207523,5c09a1171907db0001602601,4,33,null,,,,,,,,,<p style='font-size: 30px;'><strong>Okay</strong></p>,null,neutral_feedback,0,test,44,,,,,,,,,,,,,,,,,,,,,
,,,,,,,,,,,html-button-response,95,2.0.0,209371,5c09a1171907db0001602601,4,33,1846,,,,,,,,,"<img src= ""rock_img/I_Basalt_04.jpg"" style=""width:8cm; height:7.53cm;""><p>What type of rock is this?</p>",1,class_response,0,test,45,Basalt,Basalt,4,TRUE,2,2,,,,,,,,,,,,,,,
,,,,,,,,,,,html-keyboard-response,96,2.0.0,209874,5c09a1171907db0001602601,4,33,null,,,,,,,,,<p style='font-size: 30px;'><strong>Okay</strong></p>,null,neutral_feedback,0,test,45,,,,,,,,,,,,,,,,,,,,,
,,,,,,,,,,,html-button-response,97,2.0.0,211290,5c09a1171907db0001602601,4,33,1414,,,,,,,,,"<img src= ""rock_img/I_Andesite_10.jpg"" style=""width:8cm; height:4.16cm;""><p>What type of rock is this?</p>",5,class_response,0,test,46,Pegmatite,Andesite,10,FALSE,6,1,,,,,,,,,,,,,,,
,,,,,,,,,,,html-keyboard-response,98,2.0.0,211794,5c09a1171907db0001602601,4,33,null,,,,,,,,,<p style='font-size: 30px;'><strong>Okay</strong></p>,null,neutral_feedback,0,test,46,,,,,,,,,,,,,,,,,,,,,
,,,,,,,,,,,html-button-response,99,2.0.0,213003,5c09a1171907db0001602601,4,33,1208,,,,,,,,,"<img src= ""rock_img/I_Gabbro_14.jpg"" style=""width:8cm; height:8.48cm;""><p>What type of rock is this?</p>",2,class_response,0,test,47,Diorite,Gabbro,14,FALSE,3,4,,,,,,,,,,,,,,,
,,,,,,,,,,,html-keyboard-response,100,2.0.0,213506,5c09a1171907db0001602601,4,33,null,,,,,,,,,<p style='font-size: 30px;'><strong>Okay</strong></p>,null,neutral_feedback,0,test,47,,,,,,,,,,,,,,,,,,,,,
,,,,,,,,,,,html-button-response,101,2.0.0,215821,5c09a1171907db0001602601,4,33,2313,,,,,,,,,"<img src= ""rock_img/I_Pumice_03.jpg"" style=""width:8cm; height:6.64cm;""><p>What type of rock is this?</p>",7,class_response,0,test,48,Pumice,Pumice,3,TRUE,8,8,,,,,,,,,,,,,,,
,,,,,,,,,,,html-keyboard-response,102,2.0.0,216325,5c09a1171907db0001602601,4,33,null,,,,,,,,,<p style='font-size: 30px;'><strong>Okay</strong></p>,null,neutral_feedback,0,test,48,,,,,,,,,,,,,,,,,,,,,
,,,,,,,,,,,instructions,103,2.0.0,230040,5c09a1171907db0001602601,4,33,13687,,,,,,,,"[{""page_index"":0,""viewing_time"":10387},{""page_index"":1,""viewing_time"":3301}]",,,,,,,,,,,,,,,,,,,,,,,,,,,
,,,,,,,,,,,html-button-response,104,2.0.0,234436,5c09a1171907db0001602601,4,33,4395,,,,,,,,,,0,start_train,,,,,,,,,,,,,,,,,,,,,,,,
,,,,,,,,,,,html-button-response,106,2.0.0,236654,5c09a1171907db0001602601,4,33,2216,,,,,,,,,"<img src= ""rock_img/I_Diorite_13.jpg"" style=""width:8cm; height:6.29cm;""><p>What type of rock is this?</p>",2,class_response,1,train,1,Diorite,Diorite,13,TRUE,3,3,,,,,,,,,,,,,,,
,,,,,,,,,,,html-button-response,107,2.0.0,238388,5c09a1171907db0001602601,4,33,1732,,,,,,,,,"<img src= rock_img/I_Diorite_13.jpg style=""width:8cm; height:6.29cm;""><p style='font-size: 30px; color: green;'><strong>Correct!</strong></p><p style='font-size: 30px;'><strong>This rock is diorite</strong></p>",0,corr_feedback,1,train,1,,,,,,,,,,,,,,,,,,,,,
,,,,,,,,,,,html-button-response,108,2.0.0,239572,5c09a1171907db0001602601,4,33,1182,,,,,,,,,"<img src= ""rock_img/I_Obsidian_02.jpg"" style=""width:8cm; height:7.51cm;""><p>What type of rock is this?</p>",4,class_response,1,train,2,Obsidian,Obsidian,2,TRUE,5,5,,,,,,,,,,,,,,,
,,,,,,,,,,,html-button-response,109,2.0.0,240953,5c09a1171907db0001602601,4,33,1380,,,,,,,,,"<img src= rock_img/I_Obsidian_02.jpg style=""width:8cm; height:7.51cm;""><p style='font-size: 30px; color: green;'><strong>Correct!</strong></p><p style='font-size: 30px;'><strong>This rock is obsidian</strong></p>",0,corr_feedback,1,train,2,,,,,,,,,,,,,,,,,,,,,
,,,,,,,,,,,html-button-response,110,2.0.0,242207,5c09a1171907db0001602601,4,33,1252,,,,,,,,,"<img src= ""rock_img/I_Peridotite_06.jpg"" style=""width:8cm; height:7.53cm;""><p>What type of rock is this?</p>",6,class_response,1,train,3,Peridotite,Peridotite,6,TRUE,7,7,,,,,,,,,,,,,,,
,,,,,,,,,,,html-button-response,111,2.0.0,243253,5c09a1171907db0001602601,4,33,1045,,,,,,,,,"<img src= rock_img/I_Peridotite_06.jpg style=""width:8cm; height:7.53cm;""><p style='font-size: 30px; color: green;'><strong>Correct!</strong></p><p style='font-size: 30px;'><strong>This rock is peridotite</strong></p>",0,corr_feedback,1,train,3,,,,,,,,,,,,,,,,,,,,,
,,,,,,,,,,,html-button-response,112,2.0.0,245220,5c09a1171907db0001602601,4,33,1965,,,,,,,,,"<img src= ""rock_img/I_Diorite_11.jpg"" style=""width:8cm; height:7.11cm;""><p>What type of rock is this?</p>",0,class_response,1,train,4,Andesite,Diorite,11,FALSE,1,3,,,,,,,,,,,,,,,
,,,,,,,,,,,html-button-response,113,2.0.0,247519,5c09a1171907db0001602601,4,33,2298,,,,,,,,,"<img src= rock_img/I_Diorite_11.jpg style=""width:8cm; height:7.11cm;""><p style='font-size: 30px; color: red;'><strong>Incorrect!</strong></p><p style='font-size: 30px;'><strong>This rock is diorite</strong></p>",0,corr_feedback,1,train,4,,,,,,,,,,,,,,,,,,,,,
,,,,,,,,,,,html-button-response,114,2.0.0,249420,5c09a1171907db0001602601,4,33,1900,,,,,,,,,"<img src= ""rock_img/I_Pegmatite_16.jpg"" style=""width:8cm; height:5.8cm;""><p>What type of rock is this?</p>",3,class_response,1,train,5,Gabbro,Pegmatite,16,FALSE,4,6,,,,,,,,,,,,,,,
,,,,,,,,,,,html-button-response,115,2.0.0,251587,5c09a1171907db0001602601,4,33,2166,,,,,,,,,"<img src= rock_img/I_Pegmatite_16.jpg style=""width:8cm; height:5.8cm;""><p style='font-size: 30px; color: red;'><strong>Incorrect!</strong></p><p style='font-size: 30px;'><strong>This rock is pegmatite</strong></p>",0,corr_feedback,1,train,5,,,,,,,,,,,,,,,,,,,,,
,,,,,,,,,,,html-button-response,116,2.0.0,252839,5c09a1171907db0001602601,4,33,1249,,,,,,,,,"<img src= ""rock_img/I_Pumice_10.jpg"" style=""width:8cm; height:7.609999999999999cm;""><p>What type of rock is this?</p>",7,class_response,1,train,6,Pumice,Pumice,10,TRUE,8,8,,,,,,,,,,,,,,,
,,,,,,,,,,,html-button-response,117,2.0.0,253687,5c09a1171907db0001602601,4,33,847,,,,,,,,,"<img src= rock_img/I_Pumice_10.jpg style=""width:8cm; height:7.609999999999999cm;""><p style='font-size: 30px; color: green;'><strong>Correct!</strong></p><p style='font-size: 30px;'><strong>This rock is pumice</strong></p>",0,corr_feedback,1,train,6,,,,,,,,,,,,,,,,,,,,,
,,,,,,,,,,,html-button-response,118,2.0.0,257854,5c09a1171907db0001602601,4,33,4166,,,,,,,,,"<img src= ""rock_img/I_Basalt_14.jpg"" style=""width:8cm; height:5.82cm;""><p>What type of rock is this?</p>",5,class_response,1,train,7,Pegmatite,Basalt,14,FALSE,6,2,,,,,,,,,,,,,,,
,,,,,,,,,,,html-button-response,119,2.0.0,259539,5c09a1171907db0001602601,4,33,1683,,,,,,,,,"<img src= rock_img/I_Basalt_14.jpg style=""width:8cm; height:5.82cm;""><p style='font-size: 30px; color: red;'><strong>Incorrect!</strong></p><p style='font-size: 30px;'><strong>This rock is basalt</strong></p>",0,corr_feedback,1,train,7,,,,,,,,,,,,,,,,,,,,,
,,,,,,,,,,,html-button-response,120,2.0.0,261570,5c09a1171907db0001602601,4,33,2030,,,,,,,,,"<img src= ""rock_img/I_Gabbro_01.jpg"" style=""width:8cm; height:5.21cm;""><p>What type of rock is this?</p>",2,class_response,1,train,8,Diorite,Gabbro,1,FALSE,3,4,,,,,,,,,,,,,,,
,,,,,,,,,,,html-button-response,121,2.0.0,262987,5c09a1171907db0001602601,4,33,1415,,,,,,,,,"<img src= rock_img/I_Gabbro_01.jpg style=""width:8cm; height:5.21cm;""><p style='font-size: 30px; color: red;'><strong>Incorrect!</strong></p><p style='font-size: 30px;'><strong>This rock is gabbro</strong></p>",0,corr_feedback,1,train,8,,,,,,,,,,,,,,,,,,,,,
,,,,,,,,,,,html-button-response,122,2.0.0,264970,5c09a1171907db0001602601,4,33,1981,,,,,,,,,"<img src= ""rock_img/I_Andesite_03.jpg"" style=""width:8cm; height:5.73cm;""><p>What type of rock is this?</p>",1,class_response,1,train,9,Basalt,Andesite,3,FALSE,2,1,,,,,,,,,,,,,,,
,,,,,,,,,,,html-button-response,123,2.0.0,266542,5c09a1171907db0001602601,4,33,1570,,,,,,,,,"<img src= rock_img/I_Andesite_03.jpg style=""width:8cm; height:5.73cm;""><p style='font-size: 30px; color: red;'><strong>Incorrect!</strong></p><p style='font-size: 30px;'><strong>This rock is andesite</strong></p>",0,corr_feedback,1,train,9,,,,,,,,,,,,,,,,,,,,,
,,,,,,,,,,,html-button-response,124,2.0.0,267839,5c09a1171907db0001602601,4,33,1296,,,,,,,,,"<img src= ""rock_img/I_Peridotite_10.jpg"" style=""width:8cm; height:5.390000000000001cm;""><p>What type of rock is this?</p>",6,class_response,1,train,10,Peridotite,Peridotite,10,TRUE,7,7,,,,,,,,,,,,,,,
,,,,,,,,,,,html-button-response,125,2.0.0,268870,5c09a1171907db0001602601,4,33,1029,,,,,,,,,"<img src= rock_img/I_Peridotite_10.jpg style=""width:8cm; height:5.390000000000001cm;""><p style='font-size: 30px; color: green;'><strong>Correct!</strong></p><p style='font-size: 30px;'><strong>This rock is peridotite</strong></p>",0,corr_feedback,1,train,10,,,,,,,,,,,,,,,,,,,,,
,,,,,,,,,,,html-button-response,126,2.0.0,270053,5c09a1171907db0001602601,4,33,1181,,,,,,,,,"<img src= ""rock_img/I_Gabbro_09.jpg"" style=""width:8cm; height:7.279999999999999cm;""><p>What type of rock is this?</p>",4,class_response,1,train,11,Obsidian,Gabbro,9,FALSE,5,4,,,,,,,,,,,,,,,
,,,,,,,,,,,html-button-response,127,2.0.0,270989,5c09a1171907db0001602601,4,33,935,,,,,,,,,"<img src= rock_img/I_Gabbro_09.jpg style=""width:8cm; height:7.279999999999999cm;""><p style='font-size: 30px; color: red;'><strong>Incorrect!</strong></p><p style='font-size: 30px;'><strong>This rock is gabbro</strong></p>",0,corr_feedback,1,train,11,,,,,,,,,,,,,,,,,,,,,
,,,,,,,,,,,html-button-response,128,2.0.0,272853,5c09a1171907db0001602601,4,33,1863,,,,,,,,,"<img src= ""rock_img/I_Pegmatite_11.jpg"" style=""width:8cm; height:8.14cm;""><p>What type of rock is this?</p>",5,class_response,1,train,12,Pegmatite,Pegmatite,11,TRUE,6,6,,,,,,,,,,,,,,,
,,,,,,,,,,,html-button-response,129,2.0.0,273903,5c09a1171907db0001602601,4,33,1048,,,,,,,,,"<img src= rock_img/I_Pegmatite_11.jpg style=""width:8cm; height:8.14cm;""><p style='font-size: 30px; color: green;'><strong>Correct!</strong></p><p style='font-size: 30px;'><strong>This rock is pegmatite</strong></p>",0,corr_feedback,1,train,12,,,,,,,,,,,,,,,,,,,,,
,,,,,,,,,,,instructions,130,2.0.0,298128,5c09a1171907db0001602601,4,33,24224,,,,,,,,"[{""page_index"":0,""viewing_time"":6290},{""page_index"":1,""viewing_time"":7196},{""page_index"":2,""viewing_time"":6787},{""page_index"":3,""viewing_time"":3951}]",,,,,,,,,,,,,,,,,,,,,,,,,,,
,,,,,,,,,,,html-button-response,131,2.0.0,299307,5c09a1171907db0001602601,4,33,1177,,,,,,,,,,0,start_train,,,,,,,,,,,,,,,,,,,,,,,,
,,,,,,,,,,,html-button-response,132,2.0.0,304653,5c09a1171907db0001602601,4,33,,,,,,,,,,,,cat_selection,1,train,1,,,,,,,2432.2,2913.3,1,2,Andesite,Basalt,,,,,,,,,
,,,,,,,,,,,paired-cat-display,133,1.0.0,384436,5c09a1171907db0001602601,4,33,,,,,,,,,,,,paired_cat_display,1,train,1,,,,,,,,,,,,,speckled two colors,"solid, dense structure
almost entirely single color
smooth parts on surface showing how it breaks off",8248.3,71533.5,,,,,
,,,,,,,,,,,html-button-response,134,2.0.0,393919,5c09a1171907db0001602601,4,33,,,,,,,,,,,,cat_selection,1,train,2,,,,,,,4865.3,4616.2,4,2,Gabbro,Basalt,,,,,,,,,
,,,,,,,,,,,paired-cat-display,135,1.0.0,434773,5c09a1171907db0001602601,4,33,,,,,,,,,,,,paired_cat_display,1,train,2,,,,,,,,,,,,,,"solid and dense texture
single color",6267.5,34584.6,"mottled color
not speckled
can be more than 2 colors",,,,
,,,,,,,,,,,html-button-response,136,2.0.0,443570,5c09a1171907db0001602601,4,33,,,,,,,,,,,,cat_selection,1,train,3,,,,,,,6816.6,1979.1,1,4,Andesite,Gabbro,,,,,,,,,
,,,,,,,,,,,paired-cat-display,137,1.0.0,479153,5c09a1171907db0001602601,4,33,,,,,,,,,,,,paired_cat_display,1,train,3,,,,,,,,,,,,,"clearly speckled
variety of colors but more light",,5963.2,29617.2,"more mottled than speckled
variety of colors but more dark",,,,
,,,,,,,,,,,instructions,138,2.0.0,493854,5c09a1171907db0001602601,4,33,14700,,,,,,,,"[{""page_index"":0,""viewing_time"":5485},{""page_index"":1,""viewing_time"":9216}]",,,,,,,,,,,,,,,,,,,,,,,,,,,
,,,,,,,,,,,html-button-response,139,2.0.0,495684,5c09a1171907db0001602601,4,33,1828,,,,,,,,,,0,start_test,,,,,,,,,,,,,,,,,,,,,,,,
,,,,,,,,,,,html-button-response,140,2.0.0,497918,5c09a1171907db0001602601,4,33,2232,,,,,,,,,"<img src= ""rock_img/I_Basalt_06.jpg"" style=""width:8cm; height:7.06cm;""><p>What type of rock is this?</p>",3,class_response,1,test,1,Gabbro,Basalt,6,FALSE,4,2,,,,,,,,,,,,,,,
,,,,,,,,,,,html-keyboard-response,141,2.0.0,498421,5c09a1171907db0001602601,4,33,null,,,,,,,,,<p style='font-size: 30px;'><strong>Okay</strong></p>,null,neutral_feedback,1,test,1,,,,,,,,,,,,,,,,,,,,,
,,,,,,,,,,,html-button-response,142,2.0.0,501155,5c09a1171907db0001602601,4,33,2732,,,,,,,,,"<img src= ""rock_img/I_Gabbro_08.jpg"" style=""width:8cm; height:5.15cm;""><p>What type of rock is this?</p>",3,class_response,1,test,2,Gabbro,Gabbro,8,TRUE,4,4,,,,,,,,,,,,,,,
,,,,,,,,,,,html-keyboard-response,143,2.0.0,501657,5c09a1171907db0001602601,4,33,null,,,,,,,,,<p style='font-size: 30px;'><strong>Okay</strong></p>,null,neutral_feedback,1,test,2,,,,,,,,,,,,,,,,,,,,,
,,,,,,,,,,,html-button-response,144,2.0.0,502868,5c09a1171907db0001602601,4,33,1209,,,,,,,,,"<img src= ""rock_img/I_Pumice_09.jpg"" style=""width:8cm; height:6.44cm;""><p>What type of rock is this?</p>",7,class_response,1,test,3,Pumice,Pumice,9,TRUE,8,8,,,,,,,,,,,,,,,
,,,,,,,,,,,html-keyboard-response,145,2.0.0,503371,5c09a1171907db0001602601,4,33,null,,,,,,,,,<p style='font-size: 30px;'><strong>Okay</strong></p>,null,neutral_feedback,1,test,3,,,,,,,,,,,,,,,,,,,,,
,,,,,,,,,,,html-button-response,146,2.0.0,505136,5c09a1171907db0001602601,4,33,1762,,,,,,,,,"<img src= ""rock_img/I_Pumice_05.jpg"" style=""width:8cm; height:7.25cm;""><p>What type of rock is this?</p>",7,class_response,1,test,4,Pumice,Pumice,5,TRUE,8,8,,,,,,,,,,,,,,,
,,,,,,,,,,,html-keyboard-response,147,2.0.0,505639,5c09a1171907db0001602601,4,33,null,,,,,,,,,<p style='font-size: 30px;'><strong>Okay</strong></p>,null,neutral_feedback,1,test,4,,,,,,,,,,,,,,,,,,,,,
,,,,,,,,,,,html-button-response,148,2.0.0,506887,5c09a1171907db0001602601,4,33,1246,,,,,,,,,"<img src= ""rock_img/I_Pegmatite_03.jpg"" style=""width:8cm; height:5.239999999999999cm;""><p>What type of rock is this?</p>",6,class_response,1,test,5,Peridotite,Pegmatite,3,FALSE,7,6,,,,,,,,,,,,,,,
,,,,,,,,,,,html-keyboard-response,149,2.0.0,507390,5c09a1171907db0001602601,4,33,null,,,,,,,,,<p style='font-size: 30px;'><strong>Okay</strong></p>,null,neutral_feedback,1,test,5,,,,,,,,,,,,,,,,,,,,,
,,,,,,,,,,,html-button-response,150,2.0.0,508605,5c09a1171907db0001602601,4,33,1212,,,,,,,,,"<img src= ""rock_img/I_Peridotite_13.jpg"" style=""width:8cm; height:7.58cm;""><p>What type of rock is this?</p>",6,class_response,1,test,6,Peridotite,Peridotite,13,TRUE,7,7,,,,,,,,,,,,,,,
,,,,,,,,,,,html-keyboard-response,151,2.0.0,509109,5c09a1171907db0001602601,4,33,null,,,,,,,,,<p style='font-size: 30px;'><strong>Okay</strong></p>,null,neutral_feedback,1,test,6,,,,,,,,,,,,,,,,,,,,,
,,,,,,,,,,,html-button-response,152,2.0.0,510617,5c09a1171907db0001602601,4,33,1506,,,,,,,,,"<img src= ""rock_img/I_Obsidian_09.jpg"" style=""width:8cm; height:5cm;""><p>What type of rock is this?</p>",4,class_response,1,test,7,Obsidian,Obsidian,9,TRUE,5,5,,,,,,,,,,,,,,,
,,,,,,,,,,,html-keyboard-response,153,2.0.0,511119,5c09a1171907db0001602601,4,33,null,,,,,,,,,<p style='font-size: 30px;'><strong>Okay</strong></p>,null,neutral_feedback,1,test,7,,,,,,,,,,,,,,,,,,,,,
,,,,,,,,,,,html-button-response,154,2.0.0,513752,5c09a1171907db0001602601,4,33,2630,,,,,,,,,"<img src= ""rock_img/I_Basalt_16.jpg"" style=""width:8cm; height:7.659999999999999cm;""><p>What type of rock is this?</p>",1,class_response,1,test,8,Basalt,Basalt,16,TRUE,2,2,,,,,,,,,,,,,,,
,,,,,,,,,,,html-keyboard-response,155,2.0.0,514255,5c09a1171907db0001602601,4,33,null,,,,,,,,,<p style='font-size: 30px;'><strong>Okay</strong></p>,null,neutral_feedback,1,test,8,,,,,,,,,,,,,,,,,,,,,
,,,,,,,,,,,html-button-response,156,2.0.0,516235,5c09a1171907db0001602601,4,33,1977,,,,,,,,,"<img src= ""rock_img/I_Peridotite_16.jpg"" style=""width:8cm; height:6.989999999999999cm;""><p>What type of rock is this?</p>",6,class_response,1,test,9,Peridotite,Peridotite,16,TRUE,7,7,,,,,,,,,,,,,,,
,,,,,,,,,,,html-keyboard-response,157,2.0.0,516738,5c09a1171907db0001602601,4,33,null,,,,,,,,,<p style='font-size: 30px;'><strong>Okay</strong></p>,null,neutral_feedback,1,test,9,,,,,,,,,,,,,,,,,,,,,
,,,,,,,,,,,html-button-response,158,2.0.0,519268,5c09a1171907db0001602601,4,33,2528,,,,,,,,,"<img src= ""rock_img/I_Gabbro_10.jpg"" style=""width:8cm; height:5.680000000000001cm;""><p>What type of rock is this?</p>",1,class_response,1,test,10,Basalt,Gabbro,10,FALSE,2,4,,,,,,,,,,,,,,,
,,,,,,,,,,,html-keyboard-response,159,2.0.0,519773,5c09a1171907db0001602601,4,33,null,,,,,,,,,<p style='font-size: 30px;'><strong>Okay</strong></p>,null,neutral_feedback,1,test,10,,,,,,,,,,,,,,,,,,,,,
,,,,,,,,,,,html-button-response,160,2.0.0,521551,5c09a1171907db0001602601,4,33,1776,,,,,,,,,"<img src= ""rock_img/I_Pegmatite_05.jpg"" style=""width:8cm; height:7.300000000000001cm;""><p>What type of rock is this?</p>",5,class_response,1,test,11,Pegmatite,Pegmatite,5,TRUE,6,6,,,,,,,,,,,,,,,
,,,,,,,,,,,html-keyboard-response,161,2.0.0,522053,5c09a1171907db0001602601,4,33,null,,,,,,,,,<p style='font-size: 30px;'><strong>Okay</strong></p>,null,neutral_feedback,1,test,11,,,,,,,,,,,,,,,,,,,,,
,,,,,,,,,,,html-button-response,162,2.0.0,523551,5c09a1171907db0001602601,4,33,1495,,,,,,,,,"<img src= ""rock_img/I_Pumice_06.jpg"" style=""width:8cm; height:6.9399999999999995cm;""><p>What type of rock is this?</p>",7,class_response,1,test,12,Pumice,Pumice,6,TRUE,8,8,,,,,,,,,,,,,,,
,,,,,,,,,,,html-keyboard-response,163,2.0.0,524054,5c09a1171907db0001602601,4,33,null,,,,,,,,,<p style='font-size: 30px;'><strong>Okay</strong></p>,null,neutral_feedback,1,test,12,,,,,,,,,,,,,,,,,,,,,
,,,,,,,,,,,html-button-response,164,2.0.0,526234,5c09a1171907db0001602601,4,33,2178,,,,,,,,,"<img src= ""rock_img/I_Diorite_15.jpg"" style=""width:8cm; height:5.54cm;""><p>What type of rock is this?</p>",0,class_response,1,test,13,Andesite,Diorite,15,FALSE,1,3,,,,,,,,,,,,,,,
,,,,,,,,,,,html-keyboard-response,165,2.0.0,526739,5c09a1171907db0001602601,4,33,null,,,,,,,,,<p style='font-size: 30px;'><strong>Okay</strong></p>,null,neutral_feedback,1,test,13,,,,,,,,,,,,,,,,,,,,,
,,,,,,,,,,,html-button-response,166,2.0.0,528185,5c09a1171907db0001602601,4,33,1443,,,,,,,,,"<img src= ""rock_img/I_Obsidian_16.jpg"" style=""width:8cm; height:9.3cm;""><p>What type of rock is this?</p>",4,class_response,1,test,14,Obsidian,Obsidian,16,TRUE,5,5,,,,,,,,,,,,,,,
,,,,,,,,,,,html-keyboard-response,167,2.0.0,528690,5c09a1171907db0001602601,4,33,null,,,,,,,,,<p style='font-size: 30px;'><strong>Okay</strong></p>,null,neutral_feedback,1,test,14,,,,,,,,,,,,,,,,,,,,,
,,,,,,,,,,,html-button-response,168,2.0.0,531652,5c09a1171907db0001602601,4,33,2959,,,,,,,,,"<img src= ""rock_img/I_Obsidian_06.jpg"" style=""width:8cm; height:6.8cm;""><p>What type of rock is this?</p>",2,class_response,1,test,15,Diorite,Obsidian,6,FALSE,3,5,,,,,,,,,,,,,,,
,,,,,,,,,,,html-keyboard-response,169,2.0.0,532156,5c09a1171907db0001602601,4,33,null,,,,,,,,,<p style='font-size: 30px;'><strong>Okay</strong></p>,null,neutral_feedback,1,test,15,,,,,,,,,,,,,,,,,,,,,
,,,,,,,,,,,html-button-response,170,2.0.0,533821,5c09a1171907db0001602601,4,33,1663,,,,,,,,,"<img src= ""rock_img/I_Basalt_08.jpg"" style=""width:8cm; height:10.44cm;""><p>What type of rock is this?</p>",1,class_response,1,test,16,Basalt,Basalt,8,TRUE,2,2,,,,,,,,,,,,,,,
,,,,,,,,,,,html-keyboard-response,171,2.0.0,534324,5c09a1171907db0001602601,4,33,null,,,,,,,,,<p style='font-size: 30px;'><strong>Okay</strong></p>,null,neutral_feedback,1,test,16,,,,,,,,,,,,,,,,,,,,,
,,,,,,,,,,,html-button-response,172,2.0.0,535518,5c09a1171907db0001602601,4,33,1192,,,,,,,,,"<img src= ""rock_img/I_Obsidian_12.jpg"" style=""width:8cm; height:6.53cm;""><p>What type of rock is this?</p>",4,class_response,1,test,17,Obsidian,Obsidian,12,TRUE,5,5,,,,,,,,,,,,,,,
,,,,,,,,,,,html-keyboard-response,173,2.0.0,536019,5c09a1171907db0001602601,4,33,null,,,,,,,,,<p style='font-size: 30px;'><strong>Okay</strong></p>,null,neutral_feedback,1,test,17,,,,,,,,,,,,,,,,,,,,,
,,,,,,,,,,,html-button-response,174,2.0.0,540067,5c09a1171907db0001602601,4,33,4046,,,,,,,,,"<img src= ""rock_img/I_Basalt_11.jpg"" style=""width:8cm; height:5.359999999999999cm;""><p>What type of rock is this?</p>",3,class_response,1,test,18,Gabbro,Basalt,11,FALSE,4,2,,,,,,,,,,,,,,,
,,,,,,,,,,,html-keyboard-response,175,2.0.0,540572,5c09a1171907db0001602601,4,33,null,,,,,,,,,<p style='font-size: 30px;'><strong>Okay</strong></p>,null,neutral_feedback,1,test,18,,,,,,,,,,,,,,,,,,,,,
,,,,,,,,,,,html-button-response,176,2.0.0,542785,5c09a1171907db0001602601,4,33,2211,,,,,,,,,"<img src= ""rock_img/I_Basalt_04.jpg"" style=""width:8cm; height:7.53cm;""><p>What type of rock is this?</p>",4,class_response,1,test,19,Obsidian,Basalt,4,FALSE,5,2,,,,,,,,,,,,,,,
,,,,,,,,,,,html-keyboard-response,177,2.0.0,543287,5c09a1171907db0001602601,4,33,null,,,,,,,,,<p style='font-size: 30px;'><strong>Okay</strong></p>,null,neutral_feedback,1,test,19,,,,,,,,,,,,,,,,,,,,,
,,,,,,,,,,,html-button-response,178,2.0.0,546388,5c09a1171907db0001602601,4,33,3098,,,,,,,,,"<img src= ""rock_img/I_Diorite_10.jpg"" style=""width:8cm; height:5.949999999999999cm;""><p>What type of rock is this?</p>",0,class_response,1,test,20,Andesite,Diorite,10,FALSE,1,3,,,,,,,,,,,,,,,
,,,,,,,,,,,html-keyboard-response,179,2.0.0,546890,5c09a1171907db0001602601,4,33,null,,,,,,,,,<p style='font-size: 30px;'><strong>Okay</strong></p>,null,neutral_feedback,1,test,20,,,,,,,,,,,,,,,,,,,,,
,,,,,,,,,,,html-button-response,180,2.0.0,550501,5c09a1171907db0001602601,4,33,3609,,,,,,,,,"<img src= ""rock_img/I_Peridotite_07.jpg"" style=""width:8cm; height:4.83cm;""><p>What type of rock is this?</p>",3,class_response,1,test,21,Gabbro,Peridotite,7,FALSE,4,7,,,,,,,,,,,,,,,
,,,,,,,,,,,html-keyboard-response,181,2.0.0,551006,5c09a1171907db0001602601,4,33,null,,,,,,,,,<p style='font-size: 30px;'><strong>Okay</strong></p>,null,neutral_feedback,1,test,21,,,,,,,,,,,,,,,,,,,,,
,,,,,,,,,,,html-button-response,182,2.0.0,552651,5c09a1171907db0001602601,4,33,1643,,,,,,,,,"<img src= ""rock_img/I_Andesite_06.jpg"" style=""width:8cm; height:6.840000000000001cm;""><p>What type of rock is this?</p>",0,class_response,1,test,22,Andesite,Andesite,6,TRUE,1,1,,,,,,,,,,,,,,,
,,,,,,,,,,,html-keyboard-response,183,2.0.0,553156,5c09a1171907db0001602601,4,33,null,,,,,,,,,<p style='font-size: 30px;'><strong>Okay</strong></p>,null,neutral_feedback,1,test,22,,,,,,,,,,,,,,,,,,,,,
,,,,,,,,,,,html-button-response,184,2.0.0,554741,5c09a1171907db0001602601,4,33,1583,,,,,,,,,"<img src= ""rock_img/I_Peridotite_05.jpg"" style=""width:8cm; height:7.1499999999999995cm;""><p>What type of rock is this?</p>",6,class_response,1,test,23,Peridotite,Peridotite,5,TRUE,7,7,,,,,,,,,,,,,,,
,,,,,,,,,,,html-keyboard-response,185,2.0.0,555242,5c09a1171907db0001602601,4,33,null,,,,,,,,,<p style='font-size: 30px;'><strong>Okay</strong></p>,null,neutral_feedback,1,test,23,,,,,,,,,,,,,,,,,,,,,
,,,,,,,,,,,html-button-response,186,2.0.0,557885,5c09a1171907db0001602601,4,33,2641,,,,,,,,,"<img src= ""rock_img/I_Peridotite_04.jpg"" style=""width:8cm; height:6.680000000000001cm;""><p>What type of rock is this?</p>",2,class_response,1,test,24,Diorite,Peridotite,4,FALSE,3,7,,,,,,,,,,,,,,,
,,,,,,,,,,,html-keyboard-response,187,2.0.0,558389,5c09a1171907db0001602601,4,33,null,,,,,,,,,<p style='font-size: 30px;'><strong>Okay</strong></p>,null,neutral_feedback,1,test,24,,,,,,,,,,,,,,,,,,,,,
,,,,,,,,,,,html-button-response,188,2.0.0,560120,5c09a1171907db0001602601,4,33,1728,,,,,,,,,"<img src= ""rock_img/I_Pumice_14.jpg"" style=""width:8cm; height:6.39cm;""><p>What type of rock is this?</p>",7,class_response,1,test,25,Pumice,Pumice,14,TRUE,8,8,,,,,,,,,,,,,,,
,,,,,,,,,,,html-keyboard-response,189,2.0.0,560621,5c09a1171907db0001602601,4,33,null,,,,,,,,,<p style='font-size: 30px;'><strong>Okay</strong></p>,null,neutral_feedback,1,test,25,,,,,,,,,,,,,,,,,,,,,
,,,,,,,,,,,html-button-response,190,2.0.0,563201,5c09a1171907db0001602601,4,33,2578,,,,,,,,,"<img src= ""rock_img/I_Diorite_14.jpg"" style=""width:8cm; height:5.71cm;""><p>What type of rock is this?</p>",5,class_response,1,test,26,Pegmatite,Diorite,14,FALSE,6,3,,,,,,,,,,,,,,,
,,,,,,,,,,,html-keyboard-response,191,2.0.0,563703,5c09a1171907db0001602601,4,33,null,,,,,,,,,<p style='font-size: 30px;'><strong>Okay</strong></p>,null,neutral_feedback,1,test,26,,,,,,,,,,,,,,,,,,,,,
,,,,,,,,,,,html-button-response,192,2.0.0,564988,5c09a1171907db0001602601,4,33,1283,,,,,,,,,"<img src= ""rock_img/I_Obsidian_05.jpg"" style=""width:8cm; height:6.33cm;""><p>What type of rock is this?</p>",5,class_response,1,test,27,Pegmatite,Obsidian,5,FALSE,6,5,,,,,,,,,,,,,,,
,,,,,,,,,,,html-keyboard-response,193,2.0.0,565490,5c09a1171907db0001602601,4,33,null,,,,,,,,,<p style='font-size: 30px;'><strong>Okay</strong></p>,null,neutral_feedback,1,test,27,,,,,,,,,,,,,,,,,,,,,
,,,,,,,,,,,html-button-response,194,2.0.0,567268,5c09a1171907db0001602601,4,33,1775,,,,,,,,,"<img src= ""rock_img/I_Andesite_01.jpg"" style=""width:8cm; height:5.87cm;""><p>What type of rock is this?</p>",0,class_response,1,test,28,Andesite,Andesite,1,TRUE,1,1,,,,,,,,,,,,,,,
,,,,,,,,,,,html-keyboard-response,195,2.0.0,567769,5c09a1171907db0001602601,4,33,null,,,,,,,,,<p style='font-size: 30px;'><strong>Okay</strong></p>,null,neutral_feedback,1,test,28,,,,,,,,,,,,,,,,,,,,,
,,,,,,,,,,,html-button-response,196,2.0.0,569851,5c09a1171907db0001602601,4,33,2079,,,,,,,,,"<img src= ""rock_img/I_Andesite_02.jpg"" style=""width:8cm; height:8.5cm;""><p>What type of rock is this?</p>",0,class_response,1,test,29,Andesite,Andesite,2,TRUE,1,1,,,,,,,,,,,,,,,
,,,,,,,,,,,html-keyboard-response,197,2.0.0,570355,5c09a1171907db0001602601,4,33,null,,,,,,,,,<p style='font-size: 30px;'><strong>Okay</strong></p>,null,neutral_feedback,1,test,29,,,,,,,,,,,,,,,,,,,,,
,,,,,,,,,,,html-button-response,198,2.0.0,572385,5c09a1171907db0001602601,4,33,2027,,,,,,,,,"<img src= ""rock_img/I_Peridotite_08.jpg"" style=""width:8cm; height:6.7cm;""><p>What type of rock is this?</p>",6,class_response,1,test,30,Peridotite,Peridotite,8,TRUE,7,7,,,,,,,,,,,,,,,
,,,,,,,,,,,html-keyboard-response,199,2.0.0,572887,5c09a1171907db0001602601,4,33,null,,,,,,,,,<p style='font-size: 30px;'><strong>Okay</strong></p>,null,neutral_feedback,1,test,30,,,,,,,,,,,,,,,,,,,,,
,,,,,,,,,,,html-button-response,200,2.0.0,573984,5c09a1171907db0001602601,4,33,1094,,,,,,,,,"<img src= ""rock_img/I_Pumice_02.jpg"" style=""width:8cm; height:7.3999999999999995cm;""><p>What type of rock is this?</p>",7,class_response,1,test,31,Pumice,Pumice,2,TRUE,8,8,,,,,,,,,,,,,,,
,,,,,,,,,,,html-keyboard-response,201,2.0.0,574486,5c09a1171907db0001602601,4,33,null,,,,,,,,,<p style='font-size: 30px;'><strong>Okay</strong></p>,null,neutral_feedback,1,test,31,,,,,,,,,,,,,,,,,,,,,
,,,,,,,,,,,html-button-response,202,2.0.0,576168,5c09a1171907db0001602601,4,33,1680,,,,,,,,,"<img src= ""rock_img/I_Gabbro_14.jpg"" style=""width:8cm; height:8.48cm;""><p>What type of rock is this?</p>",2,class_response,1,test,32,Diorite,Gabbro,14,FALSE,3,4,,,,,,,,,,,,,,,
,,,,,,,,,,,html-keyboard-response,203,2.0.0,576670,5c09a1171907db0001602601,4,33,null,,,,,,,,,<p style='font-size: 30px;'><strong>Okay</strong></p>,null,neutral_feedback,1,test,32,,,,,,,,,,,,,,,,,,,,,
,,,,,,,,,,,html-button-response,204,2.0.0,579301,5c09a1171907db0001602601,4,33,2629,,,,,,,,,"<img src= ""rock_img/I_Gabbro_03.jpg"" style=""width:8cm; height:8.52cm;""><p>What type of rock is this?</p>",1,class_response,1,test,33,Basalt,Gabbro,3,FALSE,2,4,,,,,,,,,,,,,,,
,,,,,,,,,,,html-keyboard-response,205,2.0.0,579804,5c09a1171907db0001602601,4,33,null,,,,,,,,,<p style='font-size: 30px;'><strong>Okay</strong></p>,null,neutral_feedback,1,test,33,,,,,,,,,,,,,,,,,,,,,
,,,,,,,,,,,html-button-response,206,2.0.0,581150,5c09a1171907db0001602601,4,33,1344,,,,,,,,,"<img src= ""rock_img/I_Diorite_09.jpg"" style=""width:8cm; height:5.27cm;""><p>What type of rock is this?</p>",0,class_response,1,test,34,Andesite,Diorite,9,FALSE,1,3,,,,,,,,,,,,,,,
,,,,,,,,,,,html-keyboard-response,207,2.0.0,581654,5c09a1171907db0001602601,4,33,null,,,,,,,,,<p style='font-size: 30px;'><strong>Okay</strong></p>,null,neutral_feedback,1,test,34,,,,,,,,,,,,,,,,,,,,,
,,,,,,,,,,,html-button-response,208,2.0.0,583400,5c09a1171907db0001602601,4,33,1744,,,,,,,,,"<img src= ""rock_img/I_Basalt_10.jpg"" style=""width:8cm; height:5.85cm;""><p>What type of rock is this?</p>",2,class_response,1,test,35,Diorite,Basalt,10,FALSE,3,2,,,,,,,,,,,,,,,
,,,,,,,,,,,html-keyboard-response,209,2.0.0,583902,5c09a1171907db0001602601,4,33,null,,,,,,,,,<p style='font-size: 30px;'><strong>Okay</strong></p>,null,neutral_feedback,1,test,35,,,,,,,,,,,,,,,,,,,,,
,,,,,,,,,,,html-button-response,210,2.0.0,585835,5c09a1171907db0001602601,4,33,1930,,,,,,,,,"<img src= ""rock_img/I_Pegmatite_06.jpg"" style=""width:8cm; height:5.17cm;""><p>What type of rock is this?</p>",2,class_response,1,test,36,Diorite,Pegmatite,6,FALSE,3,6,,,,,,,,,,,,,,,
,,,,,,,,,,,html-keyboard-response,211,2.0.0,586337,5c09a1171907db0001602601,4,33,null,,,,,,,,,<p style='font-size: 30px;'><strong>Okay</strong></p>,null,neutral_feedback,1,test,36,,,,,,,,,,,,,,,,,,,,,
,,,,,,,,,,,html-button-response,212,2.0.0,587567,5c09a1171907db0001602601,4,33,1228,,,,,,,,,"<img src= ""rock_img/I_Gabbro_16.jpg"" style=""width:8cm; height:6.44cm;""><p>What type of rock is this?</p>",3,class_response,1,test,37,Gabbro,Gabbro,16,TRUE,4,4,,,,,,,,,,,,,,,
,,,,,,,,,,,html-keyboard-response,213,2.0.0,588069,5c09a1171907db0001602601,4,33,null,,,,,,,,,<p style='font-size: 30px;'><strong>Okay</strong></p>,null,neutral_feedback,1,test,37,,,,,,,,,,,,,,,,,,,,,
,,,,,,,,,,,html-button-response,214,2.0.0,589668,5c09a1171907db0001602601,4,33,1597,,,,,,,,,"<img src= ""rock_img/I_Pegmatite_10.jpg"" style=""width:8cm; height:4.16cm;""><p>What type of rock is this?</p>",6,class_response,1,test,38,Peridotite,Pegmatite,10,FALSE,7,6,,,,,,,,,,,,,,,
,,,,,,,,,,,html-keyboard-response,215,2.0.0,590170,5c09a1171907db0001602601,4,33,null,,,,,,,,,<p style='font-size: 30px;'><strong>Okay</strong></p>,null,neutral_feedback,1,test,38,,,,,,,,,,,,,,,,,,,,,
,,,,,,,,,,,html-button-response,216,2.0.0,591634,5c09a1171907db0001602601,4,33,1462,,,,,,,,,"<img src= ""rock_img/I_Andesite_09.jpg"" style=""width:8cm; height:6cm;""><p>What type of rock is this?</p>",0,class_response,1,test,39,Andesite,Andesite,9,TRUE,1,1,,,,,,,,,,,,,,,
,,,,,,,,,,,html-keyboard-response,217,2.0.0,592136,5c09a1171907db0001602601,4,33,null,,,,,,,,,<p style='font-size: 30px;'><strong>Okay</strong></p>,null,neutral_feedback,1,test,39,,,,,,,,,,,,,,,,,,,,,
,,,,,,,,,,,html-button-response,218,2.0.0,593183,5c09a1171907db0001602601,4,33,1046,,,,,,,,,"<img src= ""rock_img/I_Diorite_16.jpg"" style=""width:8cm; height:6.74cm;""><p>What type of rock is this?</p>",0,class_response,1,test,40,Andesite,Diorite,16,FALSE,1,3,,,,,,,,,,,,,,,
,,,,,,,,,,,html-keyboard-response,219,2.0.0,593687,5c09a1171907db0001602601,4,33,null,,,,,,,,,<p style='font-size: 30px;'><strong>Okay</strong></p>,null,neutral_feedback,1,test,40,,,,,,,,,,,,,,,,,,,,,
,,,,,,,,,,,html-button-response,220,2.0.0,595700,5c09a1171907db0001602601,4,33,2011,,,,,,,,,"<img src= ""rock_img/I_Gabbro_13.jpg"" style=""width:8cm; height:5.08cm;""><p>What type of rock is this?</p>",3,class_response,1,test,41,Gabbro,Gabbro,13,TRUE,4,4,,,,,,,,,,,,,,,
,,,,,,,,,,,html-keyboard-response,221,2.0.0,596204,5c09a1171907db0001602601,4,33,null,,,,,,,,,<p style='font-size: 30px;'><strong>Okay</strong></p>,null,neutral_feedback,1,test,41,,,,,,,,,,,,,,,,,,,,,
,,,,,,,,,,,html-button-response,222,2.0.0,598833,5c09a1171907db0001602601,4,33,2627,,,,,,,,,"<img src= ""rock_img/I_Andesite_16.jpg"" style=""width:8cm; height:6.010000000000001cm;""><p>What type of rock is this?</p>",0,class_response,1,test,42,Andesite,Andesite,16,TRUE,1,1,,,,,,,,,,,,,,,
,,,,,,,,,,,html-keyboard-response,223,2.0.0,599336,5c09a1171907db0001602601,4,33,null,,,,,,,,,<p style='font-size: 30px;'><strong>Okay</strong></p>,null,neutral_feedback,1,test,42,,,,,,,,,,,,,,,,,,,,,
,,,,,,,,,,,html-button-response,224,2.0.0,601934,5c09a1171907db0001602601,4,33,2596,,,,,,,,,"<img src= ""rock_img/I_Pegmatite_15.jpg"" style=""width:8cm; height:6cm;""><p>What type of rock is this?</p>",5,class_response,1,test,43,Pegmatite,Pegmatite,15,TRUE,6,6,,,,,,,,,,,,,,,
,,,,,,,,,,,html-keyboard-response,225,2.0.0,602436,5c09a1171907db0001602601,4,33,null,,,,,,,,,<p style='font-size: 30px;'><strong>Okay</strong></p>,null,neutral_feedback,1,test,43,,,,,,,,,,,,,,,,,,,,,
,,,,,,,,,,,html-button-response,226,2.0.0,603221,5c09a1171907db0001602601,4,33,783,,,,,,,,,"<img src= ""rock_img/I_Pegmatite_12.jpg"" style=""width:8cm; height:5.7cm;""><p>What type of rock is this?</p>",5,class_response,1,test,44,Pegmatite,Pegmatite,12,TRUE,6,6,,,,,,,,,,,,,,,
,,,,,,,,,,,html-keyboard-response,227,2.0.0,603723,5c09a1171907db0001602601,4,33,null,,,,,,,,,<p style='font-size: 30px;'><strong>Okay</strong></p>,null,neutral_feedback,1,test,44,,,,,,,,,,,,,,,,,,,,,
,,,,,,,,,,,html-button-response,228,2.0.0,605188,5c09a1171907db0001602601,4,33,1463,,,,,,,,,"<img src= ""rock_img/I_Pumice_03.jpg"" style=""width:8cm; height:6.64cm;""><p>What type of rock is this?</p>",7,class_response,1,test,45,Pumice,Pumice,3,TRUE,8,8,,,,,,,,,,,,,,,
,,,,,,,,,,,html-keyboard-response,229,2.0.0,605692,5c09a1171907db0001602601,4,33,null,,,,,,,,,<p style='font-size: 30px;'><strong>Okay</strong></p>,null,neutral_feedback,1,test,45,,,,,,,,,,,,,,,,,,,,,
,,,,,,,,,,,html-button-response,230,2.0.0,608651,5c09a1171907db0001602601,4,33,2957,,,,,,,,,"<img src= ""rock_img/I_Andesite_10.jpg"" style=""width:8cm; height:4.16cm;""><p>What type of rock is this?</p>",1,class_response,1,test,46,Basalt,Andesite,10,FALSE,2,1,,,,,,,,,,,,,,,
,,,,,,,,,,,html-keyboard-response,231,2.0.0,609153,5c09a1171907db0001602601,4,33,null,,,,,,,,,<p style='font-size: 30px;'><strong>Okay</strong></p>,null,neutral_feedback,1,test,46,,,,,,,,,,,,,,,,,,,,,
,,,,,,,,,,,html-button-response,232,2.0.0,610567,5c09a1171907db0001602601,4,33,1412,,,,,,,,,"<img src= ""rock_img/I_Diorite_02.jpg"" style=""width:8cm; height:6.27cm;""><p>What type of rock is this?</p>",0,class_response,1,test,47,Andesite,Diorite,2,FALSE,1,3,,,,,,,,,,,,,,,
,,,,,,,,,,,html-keyboard-response,233,2.0.0,611071,5c09a1171907db0001602601,4,33,null,,,,,,,,,<p style='font-size: 30px;'><strong>Okay</strong></p>,null,neutral_feedback,1,test,47,,,,,,,,,,,,,,,,,,,,,
,,,,,,,,,,,html-button-response,234,2.0.0,612266,5c09a1171907db0001602601,4,33,1192,,,,,,,,,"<img src= ""rock_img/I_Obsidian_08.jpg"" style=""width:8cm; height:7.39cm;""><p>What type of rock is this?</p>",4,class_response,1,test,48,Obsidian,Obsidian,8,TRUE,5,5,,,,,,,,,,,,,,,
,,,,,,,,,,,html-keyboard-response,235,2.0.0,612770,5c09a1171907db0001602601,4,33,null,,,,,,,,,<p style='font-size: 30px;'><strong>Okay</strong></p>,null,neutral_feedback,1,test,48,,,,,,,,,,,,,,,,,,,,,
,,,,,,,,,,,html-button-response,236,2.0.0,652651,5c09a1171907db0001602601,4,33,,,,,,,,,,,,cycle_feedback,,,,,,,,,,,,,,,,,,,,,18722.7,21150.2,,
,,,,,,,,,,,html-button-response,238,2.0.0,654183,5c09a1171907db0001602601,4,33,1531,,,,,,,,,,0,start_train,,,,,,,,,,,,,,,,,,,,,,,,
,,,,,,,,,,,html-button-response,240,2.0.0,656218,5c09a1171907db0001602601,4,33,2032,,,,,,,,,"<img src= ""rock_img/I_Pumice_10.jpg"" style=""width:8cm; height:7.609999999999999cm;""><p>What type of rock is this?</p>",7,class_response,2,train,1,Pumice,Pumice,10,TRUE,8,8,,,,,,,,,,,,,,,
,,,,,,,,,,,html-button-response,241,2.0.0,657450,5c09a1171907db0001602601,4,33,1231,,,,,,,,,"<img src= rock_img/I_Pumice_10.jpg style=""width:8cm; height:7.609999999999999cm;""><p style='font-size: 30px; color: green;'><strong>Correct!</strong></p><p style='font-size: 30px;'><strong>This rock is pumice</strong></p>",0,corr_feedback,2,train,1,,,,,,,,,,,,,,,,,,,,,
,,,,,,,,,,,html-button-response,242,2.0.0,661967,5c09a1171907db0001602601,4,33,4515,,,,,,,,,"<img src= ""rock_img/I_Gabbro_01.jpg"" style=""width:8cm; height:5.21cm;""><p>What type of rock is this?</p>",1,class_response,2,train,2,Basalt,Gabbro,1,FALSE,2,4,,,,,,,,,,,,,,,
,,,,,,,,,,,html-button-response,243,2.0.0,663337,5c09a1171907db0001602601,4,33,1369,,,,,,,,,"<img src= rock_img/I_Gabbro_01.jpg style=""width:8cm; height:5.21cm;""><p style='font-size: 30px; color: red;'><strong>Incorrect!</strong></p><p style='font-size: 30px;'><strong>This rock is gabbro</strong></p>",0,corr_feedback,2,train,2,,,,,,,,,,,,,,,,,,,,,
,,,,,,,,,,,html-button-response,244,2.0.0,664567,5c09a1171907db0001602601,4,33,1228,,,,,,,,,"<img src= ""rock_img/I_Basalt_14.jpg"" style=""width:8cm; height:5.82cm;""><p>What type of rock is this?</p>",2,class_response,2,train,3,Diorite,Basalt,14,FALSE,3,2,,,,,,,,,,,,,,,
,,,,,,,,,,,html-button-response,245,2.0.0,665803,5c09a1171907db0001602601,4,33,1235,,,,,,,,,"<img src= rock_img/I_Basalt_14.jpg style=""width:8cm; height:5.82cm;""><p style='font-size: 30px; color: red;'><strong>Incorrect!</strong></p><p style='font-size: 30px;'><strong>This rock is basalt</strong></p>",0,corr_feedback,2,train,3,,,,,,,,,,,,,,,,,,,,,
,,,,,,,,,,,html-button-response,246,2.0.0,667867,5c09a1171907db0001602601,4,33,2063,,,,,,,,,"<img src= ""rock_img/I_Obsidian_14.jpg"" style=""width:8cm; height:7.64cm;""><p>What type of rock is this?</p>",4,class_response,2,train,4,Obsidian,Obsidian,14,TRUE,5,5,,,,,,,,,,,,,,,
,,,,,,,,,,,html-button-response,247,2.0.0,668833,5c09a1171907db0001602601,4,33,964,,,,,,,,,"<img src= rock_img/I_Obsidian_14.jpg style=""width:8cm; height:7.64cm;""><p style='font-size: 30px; color: green;'><strong>Correct!</strong></p><p style='font-size: 30px;'><strong>This rock is obsidian</strong></p>",0,corr_feedback,2,train,4,,,,,,,,,,,,,,,,,,,,,
,,,,,,,,,,,html-button-response,248,2.0.0,670584,5c09a1171907db0001602601,4,33,1749,,,,,,,,,"<img src= ""rock_img/I_Obsidian_02.jpg"" style=""width:8cm; height:7.51cm;""><p>What type of rock is this?</p>",4,class_response,2,train,5,Obsidian,Obsidian,2,TRUE,5,5,,,,,,,,,,,,,,,
,,,,,,,,,,,html-button-response,249,2.0.0,671633,5c09a1171907db0001602601,4,33,1048,,,,,,,,,"<img src= rock_img/I_Obsidian_02.jpg style=""width:8cm; height:7.51cm;""><p style='font-size: 30px; color: green;'><strong>Correct!</strong></p><p style='font-size: 30px;'><strong>This rock is obsidian</strong></p>",0,corr_feedback,2,train,5,,,,,,,,,,,,,,,,,,,,,
,,,,,,,,,,,html-button-response,250,2.0.0,673004,5c09a1171907db0001602601,4,33,1369,,,,,,,,,"<img src= ""rock_img/I_Diorite_11.jpg"" style=""width:8cm; height:7.11cm;""><p>What type of rock is this?</p>",0,class_response,2,train,6,Andesite,Diorite,11,FALSE,1,3,,,,,,,,,,,,,,,
,,,,,,,,,,,html-button-response,251,2.0.0,674800,5c09a1171907db0001602601,4,33,1795,,,,,,,,,"<img src= rock_img/I_Diorite_11.jpg style=""width:8cm; height:7.11cm;""><p style='font-size: 30px; color: red;'><strong>Incorrect!</strong></p><p style='font-size: 30px;'><strong>This rock is diorite</strong></p>",0,corr_feedback,2,train,6,,,,,,,,,,,,,,,,,,,,,
,,,,,,,,,,,html-button-response,252,2.0.0,676533,5c09a1171907db0001602601,4,33,1732,,,,,,,,,"<img src= ""rock_img/I_Andesite_11.jpg"" style=""width:8cm; height:4.92cm;""><p>What type of rock is this?</p>",5,class_response,2,train,7,Pegmatite,Andesite,11,FALSE,6,1,,,,,,,,,,,,,,,
,,,,,,,,,,,html-button-response,253,2.0.0,677833,5c09a1171907db0001602601,4,33,1298,,,,,,,,,"<img src= rock_img/I_Andesite_11.jpg style=""width:8cm; height:4.92cm;""><p style='font-size: 30px; color: red;'><strong>Incorrect!</strong></p><p style='font-size: 30px;'><strong>This rock is andesite</strong></p>",0,corr_feedback,2,train,7,,,,,,,,,,,,,,,,,,,,,
,,,,,,,,,,,html-button-response,254,2.0.0,679083,5c09a1171907db0001602601,4,33,1248,,,,,,,,,"<img src= ""rock_img/I_Pegmatite_11.jpg"" style=""width:8cm; height:8.14cm;""><p>What type of rock is this?</p>",5,class_response,2,train,8,Pegmatite,Pegmatite,11,TRUE,6,6,,,,,,,,,,,,,,,
,,,,,,,,,,,html-button-response,255,2.0.0,680150,5c09a1171907db0001602601,4,33,1066,,,,,,,,,"<img src= rock_img/I_Pegmatite_11.jpg style=""width:8cm; height:8.14cm;""><p style='font-size: 30px; color: green;'><strong>Correct!</strong></p><p style='font-size: 30px;'><strong>This rock is pegmatite</strong></p>",0,corr_feedback,2,train,8,,,,,,,,,,,,,,,,,,,,,
,,,,,,,,,,,html-button-response,256,2.0.0,682500,5c09a1171907db0001602601,4,33,2348,,,,,,,,,"<img src= ""rock_img/I_Andesite_03.jpg"" style=""width:8cm; height:5.73cm;""><p>What type of rock is this?</p>",3,class_response,2,train,9,Gabbro,Andesite,3,FALSE,4,1,,,,,,,,,,,,,,,
,,,,,,,,,,,html-button-response,257,2.0.0,683833,5c09a1171907db0001602601,4,33,1332,,,,,,,,,"<img src= rock_img/I_Andesite_03.jpg style=""width:8cm; height:5.73cm;""><p style='font-size: 30px; color: red;'><strong>Incorrect!</strong></p><p style='font-size: 30px;'><strong>This rock is andesite</strong></p>",0,corr_feedback,2,train,9,,,,,,,,,,,,,,,,,,,,,
,,,,,,,,,,,html-button-response,258,2.0.0,686235,5c09a1171907db0001602601,4,33,2400,,,,,,,,,"<img src= ""rock_img/I_Basalt_05.jpg"" style=""width:8cm; height:8.18cm;""><p>What type of rock is this?</p>",1,class_response,2,train,10,Basalt,Basalt,5,TRUE,2,2,,,,,,,,,,,,,,,
,,,,,,,,,,,html-button-response,259,2.0.0,687234,5c09a1171907db0001602601,4,33,998,,,,,,,,,"<img src= rock_img/I_Basalt_05.jpg style=""width:8cm; height:8.18cm;""><p style='font-size: 30px; color: green;'><strong>Correct!</strong></p><p style='font-size: 30px;'><strong>This rock is basalt</strong></p>",0,corr_feedback,2,train,10,,,,,,,,,,,,,,,,,,,,,
,,,,,,,,,,,html-button-response,260,2.0.0,688700,5c09a1171907db0001602601,4,33,1465,,,,,,,,,"<img src= ""rock_img/I_Pumice_04.jpg"" style=""width:8cm; height:6.819999999999999cm;""><p>What type of rock is this?</p>",7,class_response,2,train,11,Pumice,Pumice,4,TRUE,8,8,,,,,,,,,,,,,,,
,,,,,,,,,,,html-button-response,261,2.0.0,690234,5c09a1171907db0001602601,4,33,1532,,,,,,,,,"<img src= rock_img/I_Pumice_04.jpg style=""width:8cm; height:6.819999999999999cm;""><p style='font-size: 30px; color: green;'><strong>Correct!</strong></p><p style='font-size: 30px;'><strong>This rock is pumice</strong></p>",0,corr_feedback,2,train,11,,,,,,,,,,,,,,,,,,,,,
,,,,,,,,,,,html-button-response,262,2.0.0,691369,5c09a1171907db0001602601,4,33,1133,,,,,,,,,"<img src= ""rock_img/I_Peridotite_06.jpg"" style=""width:8cm; height:7.53cm;""><p>What type of rock is this?</p>",6,class_response,2,train,12,Peridotite,Peridotite,6,TRUE,7,7,,,,,,,,,,,,,,,
,,,,,,,,,,,html-button-response,263,2.0.0,692220,5c09a1171907db0001602601,4,33,850,,,,,,,,,"<img src= rock_img/I_Peridotite_06.jpg style=""width:8cm; height:7.53cm;""><p style='font-size: 30px; color: green;'><strong>Correct!</strong></p><p style='font-size: 30px;'><strong>This rock is peridotite</strong></p>",0,corr_feedback,2,train,12,,,,,,,,,,,,,,,,,,,,,
,,,,,,,,,,,html-button-response,265,2.0.0,693700,5c09a1171907db0001602601,4,33,1479,,,,,,,,,,0,start_train,,,,,,,,,,,,,,,,,,,,,,,,
,,,,,,,,,,,html-button-response,266,2.0.0,699037,5c09a1171907db0001602601,4,33,,,,,,,,,,,,cat_selection,2,train,1,,,,,,,2632,2704.9,3,1,Diorite,Andesite,,,,,,,,,
,,,,,,,,,,,paired-cat-display,267,1.0.0,732232,5c09a1171907db0001602601,4,33,,,,,,,,,,,,paired_cat_display,2,train,1,,,,,,,,,,,,,medium color rock with sprinkles,,7593.5,25598.1,,,,"lighter rick with dark speckles
looks like salt and pepper",
,,,,,,,,,,,html-button-response,268,2.0.0,736200,5c09a1171907db0001602601,4,33,,,,,,,,,,,,cat_selection,2,train,2,,,,,,,2950.9,1016.5,2,4,Basalt,Gabbro,,,,,,,,,
,,,,,,,,,,,paired-cat-display,269,1.0.0,758550,5c09a1171907db0001602601,4,33,,,,,,,,,,,,paired_cat_display,2,train,2,,,,,,,,,,,,,,solid single color rock,6753,15594.1,solid rock with mottled colors,,,,
,,,,,,,,,,,html-button-response,270,2.0.0,767584,5c09a1171907db0001602601,4,33,,,,,,,,,,,,cat_selection,2,train,3,,,,,,,3649.6,5383.3,6,3,Pegmatite,Diorite,,,,,,,,,
,,,,,,,,,,,paired-cat-display,271,1.0.0,794267,5c09a1171907db0001602601,4,33,,,,,,,,,,,,paired_cat_display,2,train,3,,,,,,,,,,,,,,,8512.7,18167.6,,,,light rock with dark specks,Large obsidian chunks
,,,,,,,,,,,html-button-response,273,2.0.0,795533,5c09a1171907db0001602601,4,33,1264,,,,,,,,,,0,start_test,,,,,,,,,,,,,,,,,,,,,,,,
,,,,,,,,,,,html-button-response,274,2.0.0,800748,5c09a1171907db0001602601,4,33,5214,,,,,,,,,"<img src= ""rock_img/I_Diorite_15.jpg"" style=""width:8cm; height:5.54cm;""><p>What type of rock is this?</p>",3,class_response,2,test,1,Gabbro,Diorite,15,FALSE,4,3,,,,,,,,,,,,,,,
,,,,,,,,,,,html-keyboard-response,275,2.0.0,801253,5c09a1171907db0001602601,4,33,null,,,,,,,,,<p style='font-size: 30px;'><strong>Okay</strong></p>,null,neutral_feedback,2,test,1,,,,,,,,,,,,,,,,,,,,,
,,,,,,,,,,,html-button-response,276,2.0.0,802899,5c09a1171907db0001602601,4,33,1644,,,,,,,,,"<img src= ""rock_img/I_Gabbro_03.jpg"" style=""width:8cm; height:8.52cm;""><p>What type of rock is this?</p>",3,class_response,2,test,2,Gabbro,Gabbro,3,TRUE,4,4,,,,,,,,,,,,,,,
,,,,,,,,,,,html-keyboard-response,277,2.0.0,803402,5c09a1171907db0001602601,4,33,null,,,,,,,,,<p style='font-size: 30px;'><strong>Okay</strong></p>,null,neutral_feedback,2,test,2,,,,,,,,,,,,,,,,,,,,,
,,,,,,,,,,,html-button-response,278,2.0.0,805216,5c09a1171907db0001602601,4,33,1812,,,,,,,,,"<img src= ""rock_img/I_Peridotite_07.jpg"" style=""width:8cm; height:4.83cm;""><p>What type of rock is this?</p>",1,class_response,2,test,3,Basalt,Peridotite,7,FALSE,2,7,,,,,,,,,,,,,,,
,,,,,,,,,,,html-keyboard-response,279,2.0.0,805719,5c09a1171907db0001602601,4,33,null,,,,,,,,,<p style='font-size: 30px;'><strong>Okay</strong></p>,null,neutral_feedback,2,test,3,,,,,,,,,,,,,,,,,,,,,
,,,,,,,,,,,html-button-response,280,2.0.0,808399,5c09a1171907db0001602601,4,33,2677,,,,,,,,,"<img src= ""rock_img/I_Pegmatite_06.jpg"" style=""width:8cm; height:5.17cm;""><p>What type of rock is this?</p>",2,class_response,2,test,4,Diorite,Pegmatite,6,FALSE,3,6,,,,,,,,,,,,,,,
,,,,,,,,,,,html-keyboard-response,281,2.0.0,808903,5c09a1171907db0001602601,4,33,null,,,,,,,,,<p style='font-size: 30px;'><strong>Okay</strong></p>,null,neutral_feedback,2,test,4,,,,,,,,,,,,,,,,,,,,,
,,,,,,,,,,,html-button-response,282,2.0.0,814516,5c09a1171907db0001602601,4,33,5610,,,,,,,,,"<img src= ""rock_img/I_Peridotite_04.jpg"" style=""width:8cm; height:6.680000000000001cm;""><p>What type of rock is this?</p>",3,class_response,2,test,5,Gabbro,Peridotite,4,FALSE,4,7,,,,,,,,,,,,,,,
,,,,,,,,,,,html-keyboard-response,283,2.0.0,815018,5c09a1171907db0001602601,4,33,null,,,,,,,,,<p style='font-size: 30px;'><strong>Okay</strong></p>,null,neutral_feedback,2,test,5,,,,,,,,,,,,,,,,,,,,,
,,,,,,,,,,,html-button-response,284,2.0.0,818350,5c09a1171907db0001602601,4,33,3329,,,,,,,,,"<img src= ""rock_img/I_Andesite_01.jpg"" style=""width:8cm; height:5.87cm;""><p>What type of rock is this?</p>",0,class_response,2,test,6,Andesite,Andesite,1,TRUE,1,1,,,,,,,,,,,,,,,
,,,,,,,,,,,html-keyboard-response,285,2.0.0,818852,5c09a1171907db0001602601,4,33,null,,,,,,,,,<p style='font-size: 30px;'><strong>Okay</strong></p>,null,neutral_feedback,2,test,6,,,,,,,,,,,,,,,,,,,,,
,,,,,,,,,,,html-button-response,286,2.0.0,820486,5c09a1171907db0001602601,4,33,1632,,,,,,,,,"<img src= ""rock_img/I_Basalt_06.jpg"" style=""width:8cm; height:7.06cm;""><p>What type of rock is this?</p>",1,class_response,2,test,7,Basalt,Basalt,6,TRUE,2,2,,,,,,,,,,,,,,,
,,,,,,,,,,,html-keyboard-response,287,2.0.0,820988,5c09a1171907db0001602601,4,33,null,,,,,,,,,<p style='font-size: 30px;'><strong>Okay</strong></p>,null,neutral_feedback,2,test,7,,,,,,,,,,,,,,,,,,,,,
,,,,,,,,,,,html-button-response,288,2.0.0,822165,5c09a1171907db0001602601,4,33,1175,,,,,,,,,"<img src= ""rock_img/I_Basalt_16.jpg"" style=""width:8cm; height:7.659999999999999cm;""><p>What type of rock is this?</p>",1,class_response,2,test,8,Basalt,Basalt,16,TRUE,2,2,,,,,,,,,,,,,,,
,,,,,,,,,,,html-keyboard-response,289,2.0.0,822670,5c09a1171907db0001602601,4,33,null,,,,,,,,,<p style='font-size: 30px;'><strong>Okay</strong></p>,null,neutral_feedback,2,test,8,,,,,,,,,,,,,,,,,,,,,
,,,,,,,,,,,html-button-response,290,2.0.0,824581,5c09a1171907db0001602601,4,33,1909,,,,,,,,,"<img src= ""rock_img/I_Basalt_10.jpg"" style=""width:8cm; height:5.85cm;""><p>What type of rock is this?</p>",1,class_response,2,test,9,Basalt,Basalt,10,TRUE,2,2,,,,,,,,,,,,,,,
,,,,,,,,,,,html-keyboard-response,291,2.0.0,825085,5c09a1171907db0001602601,4,33,null,,,,,,,,,<p style='font-size: 30px;'><strong>Okay</strong></p>,null,neutral_feedback,2,test,9,,,,,,,,,,,,,,,,,,,,,
,,,,,,,,,,,html-button-response,292,2.0.0,826915,5c09a1171907db0001602601,4,33,1828,,,,,,,,,"<img src= ""rock_img/I_Pegmatite_12.jpg"" style=""width:8cm; height:5.7cm;""><p>What type of rock is this?</p>",5,class_response,2,test,10,Pegmatite,Pegmatite,12,TRUE,6,6,,,,,,,,,,,,,,,
,,,,,,,,,,,html-keyboard-response,293,2.0.0,827417,5c09a1171907db0001602601,4,33,null,,,,,,,,,<p style='font-size: 30px;'><strong>Okay</strong></p>,null,neutral_feedback,2,test,10,,,,,,,,,,,,,,,,,,,,,
,,,,,,,,,,,html-button-response,294,2.0.0,829070,5c09a1171907db0001602601,4,33,1651,,,,,,,,,"<img src= ""rock_img/I_Gabbro_16.jpg"" style=""width:8cm; height:6.44cm;""><p>What type of rock is this?</p>",1,class_response,2,test,11,Basalt,Gabbro,16,FALSE,2,4,,,,,,,,,,,,,,,
,,,,,,,,,,,html-keyboard-response,295,2.0.0,829571,5c09a1171907db0001602601,4,33,null,,,,,,,,,<p style='font-size: 30px;'><strong>Okay</strong></p>,null,neutral_feedback,2,test,11,,,,,,,,,,,,,,,,,,,,,
,,,,,,,,,,,html-button-response,296,2.0.0,830815,5c09a1171907db0001602601,4,33,1242,,,,,,,,,"<img src= ""rock_img/I_Gabbro_13.jpg"" style=""width:8cm; height:5.08cm;""><p>What type of rock is this?</p>",3,class_response,2,test,12,Gabbro,Gabbro,13,TRUE,4,4,,,,,,,,,,,,,,,
,,,,,,,,,,,html-keyboard-response,297,2.0.0,831319,5c09a1171907db0001602601,4,33,null,,,,,,,,,<p style='font-size: 30px;'><strong>Okay</strong></p>,null,neutral_feedback,2,test,12,,,,,,,,,,,,,,,,,,,,,
,,,,,,,,,,,html-button-response,298,2.0.0,835615,5c09a1171907db0001602601,4,33,4294,,,,,,,,,"<img src= ""rock_img/I_Basalt_11.jpg"" style=""width:8cm; height:5.359999999999999cm;""><p>What type of rock is this?</p>",1,class_response,2,test,13,Basalt,Basalt,11,TRUE,2,2,,,,,,,,,,,,,,,
,,,,,,,,,,,html-keyboard-response,299,2.0.0,836118,5c09a1171907db0001602601,4,33,null,,,,,,,,,<p style='font-size: 30px;'><strong>Okay</strong></p>,null,neutral_feedback,2,test,13,,,,,,,,,,,,,,,,,,,,,
,,,,,,,,,,,html-button-response,300,2.0.0,837967,5c09a1171907db0001602601,4,33,1846,,,,,,,,,"<img src= ""rock_img/I_Pumice_02.jpg"" style=""width:8cm; height:7.3999999999999995cm;""><p>What type of rock is this?</p>",7,class_response,2,test,14,Pumice,Pumice,2,TRUE,8,8,,,,,,,,,,,,,,,
,,,,,,,,,,,html-keyboard-response,301,2.0.0,838471,5c09a1171907db0001602601,4,33,null,,,,,,,,,<p style='font-size: 30px;'><strong>Okay</strong></p>,null,neutral_feedback,2,test,14,,,,,,,,,,,,,,,,,,,,,
,,,,,,,,,,,html-button-response,302,2.0.0,840931,5c09a1171907db0001602601,4,33,2458,,,,,,,,,"<img src= ""rock_img/I_Diorite_09.jpg"" style=""width:8cm; height:5.27cm;""><p>What type of rock is this?</p>",2,class_response,2,test,15,Diorite,Diorite,9,TRUE,3,3,,,,,,,,,,,,,,,
,,,,,,,,,,,html-keyboard-response,303,2.0.0,841433,5c09a1171907db0001602601,4,33,null,,,,,,,,,<p style='font-size: 30px;'><strong>Okay</strong></p>,null,neutral_feedback,2,test,15,,,,,,,,,,,,,,,,,,,,,
,,,,,,,,,,,html-button-response,304,2.0.0,843581,5c09a1171907db0001602601,4,33,2146,,,,,,,,,"<img src= ""rock_img/I_Diorite_16.jpg"" style=""width:8cm; height:6.74cm;""><p>What type of rock is this?</p>",0,class_response,2,test,16,Andesite,Diorite,16,FALSE,1,3,,,,,,,,,,,,,,,
,,,,,,,,,,,html-keyboard-response,305,2.0.0,844084,5c09a1171907db0001602601,4,33,null,,,,,,,,,<p style='font-size: 30px;'><strong>Okay</strong></p>,null,neutral_feedback,2,test,16,,,,,,,,,,,,,,,,,,,,,
,,,,,,,,,,,html-button-response,306,2.0.0,845132,5c09a1171907db0001602601,4,33,1046,,,,,,,,,"<img src= ""rock_img/I_Basalt_04.jpg"" style=""width:8cm; height:7.53cm;""><p>What type of rock is this?</p>",1,class_response,2,test,17,Basalt,Basalt,4,TRUE,2,2,,,,,,,,,,,,,,,
,,,,,,,,,,,html-keyboard-response,307,2.0.0,845638,5c09a1171907db0001602601,4,33,null,,,,,,,,,<p style='font-size: 30px;'><strong>Okay</strong></p>,null,neutral_feedback,2,test,17,,,,,,,,,,,,,,,,,,,,,
,,,,,,,,,,,html-button-response,308,2.0.0,847432,5c09a1171907db0001602601,4,33,1792,,,,,,,,,"<img src= ""rock_img/I_Gabbro_10.jpg"" style=""width:8cm; height:5.680000000000001cm;""><p>What type of rock is this?</p>",4,class_response,2,test,18,Obsidian,Gabbro,10,FALSE,5,4,,,,,,,,,,,,,,,
,,,,,,,,,,,html-keyboard-response,309,2.0.0,847933,5c09a1171907db0001602601,4,33,null,,,,,,,,,<p style='font-size: 30px;'><strong>Okay</strong></p>,null,neutral_feedback,2,test,18,,,,,,,,,,,,,,,,,,,,,
,,,,,,,,,,,html-button-response,310,2.0.0,854482,5c09a1171907db0001602601,4,33,6546,,,,,,,,,"<img src= ""rock_img/I_Andesite_02.jpg"" style=""width:8cm; height:8.5cm;""><p>What type of rock is this?</p>",3,class_response,2,test,19,Gabbro,Andesite,2,FALSE,4,1,,,,,,,,,,,,,,,
,,,,,,,,,,,html-keyboard-response,311,2.0.0,854984,5c09a1171907db0001602601,4,33,null,,,,,,,,,<p style='font-size: 30px;'><strong>Okay</strong></p>,null,neutral_feedback,2,test,19,,,,,,,,,,,,,,,,,,,,,
,,,,,,,,,,,html-button-response,312,2.0.0,856002,5c09a1171907db0001602601,4,33,1016,,,,,,,,,"<img src= ""rock_img/I_Gabbro_14.jpg"" style=""width:8cm; height:8.48cm;""><p>What type of rock is this?</p>",3,class_response,2,test,20,Gabbro,Gabbro,14,TRUE,4,4,,,,,,,,,,,,,,,
,,,,,,,,,,,html-keyboard-response,313,2.0.0,856503,5c09a1171907db0001602601,4,33,null,,,,,,,,,<p style='font-size: 30px;'><strong>Okay</strong></p>,null,neutral_feedback,2,test,20,,,,,,,,,,,,,,,,,,,,,
,,,,,,,,,,,html-button-response,314,2.0.0,858198,5c09a1171907db0001602601,4,33,1693,,,,,,,,,"<img src= ""rock_img/I_Peridotite_05.jpg"" style=""width:8cm; height:7.1499999999999995cm;""><p>What type of rock is this?</p>",6,class_response,2,test,21,Peridotite,Peridotite,5,TRUE,7,7,,,,,,,,,,,,,,,
,,,,,,,,,,,html-keyboard-response,315,2.0.0,858700,5c09a1171907db0001602601,4,33,null,,,,,,,,,<p style='font-size: 30px;'><strong>Okay</strong></p>,null,neutral_feedback,2,test,21,,,,,,,,,,,,,,,,,,,,,
,,,,,,,,,,,html-button-response,316,2.0.0,862182,5c09a1171907db0001602601,4,33,3481,,,,,,,,,"<img src= ""rock_img/I_Andesite_09.jpg"" style=""width:8cm; height:6cm;""><p>What type of rock is this?</p>",3,class_response,2,test,22,Gabbro,Andesite,9,FALSE,4,1,,,,,,,,,,,,,,,
,,,,,,,,,,,html-keyboard-response,317,2.0.0,862684,5c09a1171907db0001602601,4,33,null,,,,,,,,,<p style='font-size: 30px;'><strong>Okay</strong></p>,null,neutral_feedback,2,test,22,,,,,,,,,,,,,,,,,,,,,
,,,,,,,,,,,html-button-response,318,2.0.0,868081,5c09a1171907db0001602601,4,33,5395,,,,,,,,,"<img src= ""rock_img/I_Obsidian_05.jpg"" style=""width:8cm; height:6.33cm;""><p>What type of rock is this?</p>",5,class_response,2,test,23,Pegmatite,Obsidian,5,FALSE,6,5,,,,,,,,,,,,,,,
,,,,,,,,,,,html-keyboard-response,319,2.0.0,868585,5c09a1171907db0001602601,4,33,null,,,,,,,,,<p style='font-size: 30px;'><strong>Okay</strong></p>,null,neutral_feedback,2,test,23,,,,,,,,,,,,,,,,,,,,,
,,,,,,,,,,,html-button-response,320,2.0.0,870382,5c09a1171907db0001602601,4,33,1795,,,,,,,,,"<img src= ""rock_img/I_Andesite_16.jpg"" style=""width:8cm; height:6.010000000000001cm;""><p>What type of rock is this?</p>",3,class_response,2,test,24,Gabbro,Andesite,16,FALSE,4,1,,,,,,,,,,,,,,,
,,,,,,,,,,,html-keyboard-response,321,2.0.0,870883,5c09a1171907db0001602601,4,33,null,,,,,,,,,<p style='font-size: 30px;'><strong>Okay</strong></p>,null,neutral_feedback,2,test,24,,,,,,,,,,,,,,,,,,,,,
,,,,,,,,,,,html-button-response,322,2.0.0,872981,5c09a1171907db0001602601,4,33,2096,,,,,,,,,"<img src= ""rock_img/I_Diorite_02.jpg"" style=""width:8cm; height:6.27cm;""><p>What type of rock is this?</p>",2,class_response,2,test,25,Diorite,Diorite,2,TRUE,3,3,,,,,,,,,,,,,,,
,,,,,,,,,,,html-keyboard-response,323,2.0.0,873483,5c09a1171907db0001602601,4,33,null,,,,,,,,,<p style='font-size: 30px;'><strong>Okay</strong></p>,null,neutral_feedback,2,test,25,,,,,,,,,,,,,,,,,,,,,
,,,,,,,,,,,html-button-response,324,2.0.0,874703,5c09a1171907db0001602601,4,33,1218,,,,,,,,,"<img src= ""rock_img/I_Peridotite_16.jpg"" style=""width:8cm; height:6.989999999999999cm;""><p>What type of rock is this?</p>",6,class_response,2,test,26,Peridotite,Peridotite,16,TRUE,7,7,,,,,,,,,,,,,,,
,,,,,,,,,,,html-keyboard-response,325,2.0.0,875205,5c09a1171907db0001602601,4,33,null,,,,,,,,,<p style='font-size: 30px;'><strong>Okay</strong></p>,null,neutral_feedback,2,test,26,,,,,,,,,,,,,,,,,,,,,
,,,,,,,,,,,html-button-response,326,2.0.0,876649,5c09a1171907db0001602601,4,33,1442,,,,,,,,,"<img src= ""rock_img/I_Pumice_06.jpg"" style=""width:8cm; height:6.9399999999999995cm;""><p>What type of rock is this?</p>",7,class_response,2,test,27,Pumice,Pumice,6,TRUE,8,8,,,,,,,,,,,,,,,
,,,,,,,,,,,html-keyboard-response,327,2.0.0,877152,5c09a1171907db0001602601,4,33,null,,,,,,,,,<p style='font-size: 30px;'><strong>Okay</strong></p>,null,neutral_feedback,2,test,27,,,,,,,,,,,,,,,,,,,,,
,,,,,,,,,,,html-button-response,328,2.0.0,878265,5c09a1171907db0001602601,4,33,1111,,,,,,,,,"<img src= ""rock_img/I_Peridotite_13.jpg"" style=""width:8cm; height:7.58cm;""><p>What type of rock is this?</p>",6,class_response,2,test,28,Peridotite,Peridotite,13,TRUE,7,7,,,,,,,,,,,,,,,
,,,,,,,,,,,html-keyboard-response,329,2.0.0,878767,5c09a1171907db0001602601,4,33,null,,,,,,,,,<p style='font-size: 30px;'><strong>Okay</strong></p>,null,neutral_feedback,2,test,28,,,,,,,,,,,,,,,,,,,,,
,,,,,,,,,,,html-button-response,330,2.0.0,881214,5c09a1171907db0001602601,4,33,2445,,,,,,,,,"<img src= ""rock_img/I_Gabbro_08.jpg"" style=""width:8cm; height:5.15cm;""><p>What type of rock is this?</p>",1,class_response,2,test,29,Basalt,Gabbro,8,FALSE,2,4,,,,,,,,,,,,,,,
,,,,,,,,,,,html-keyboard-response,331,2.0.0,881718,5c09a1171907db0001602601,4,33,null,,,,,,,,,<p style='font-size: 30px;'><strong>Okay</strong></p>,null,neutral_feedback,2,test,29,,,,,,,,,,,,,,,,,,,,,
,,,,,,,,,,,html-button-response,332,2.0.0,883715,5c09a1171907db0001602601,4,33,1995,,,,,,,,,"<img src= ""rock_img/I_Diorite_14.jpg"" style=""width:8cm; height:5.71cm;""><p>What type of rock is this?</p>",0,class_response,2,test,30,Andesite,Diorite,14,FALSE,1,3,,,,,,,,,,,,,,,
,,,,,,,,,,,html-keyboard-response,333,2.0.0,884216,5c09a1171907db0001602601,4,33,null,,,,,,,,,<p style='font-size: 30px;'><strong>Okay</strong></p>,null,neutral_feedback,2,test,30,,,,,,,,,,,,,,,,,,,,,
,,,,,,,,,,,html-button-response,334,2.0.0,885550,5c09a1171907db0001602601,4,33,1332,,,,,,,,,"<img src= ""rock_img/I_Pumice_14.jpg"" style=""width:8cm; height:6.39cm;""><p>What type of rock is this?</p>",7,class_response,2,test,31,Pumice,Pumice,14,TRUE,8,8,,,,,,,,,,,,,,,
,,,,,,,,,,,html-keyboard-response,335,2.0.0,886052,5c09a1171907db0001602601,4,33,null,,,,,,,,,<p style='font-size: 30px;'><strong>Okay</strong></p>,null,neutral_feedback,2,test,31,,,,,,,,,,,,,,,,,,,,,
,,,,,,,,,,,html-button-response,336,2.0.0,886832,5c09a1171907db0001602601,4,33,778,,,,,,,,,"<img src= ""rock_img/I_Pumice_03.jpg"" style=""width:8cm; height:6.64cm;""><p>What type of rock is this?</p>",7,class_response,2,test,32,Pumice,Pumice,3,TRUE,8,8,,,,,,,,,,,,,,,
,,,,,,,,,,,html-keyboard-response,337,2.0.0,887335,5c09a1171907db0001602601,4,33,null,,,,,,,,,<p style='font-size: 30px;'><strong>Okay</strong></p>,null,neutral_feedback,2,test,32,,,,,,,,,,,,,,,,,,,,,
,,,,,,,,,,,html-button-response,338,2.0.0,888098,5c09a1171907db0001602601,4,33,761,,,,,,,,,"<img src= ""rock_img/I_Pumice_09.jpg"" style=""width:8cm; height:6.44cm;""><p>What type of rock is this?</p>",7,class_response,2,test,33,Pumice,Pumice,9,TRUE,8,8,,,,,,,,,,,,,,,
,,,,,,,,,,,html-keyboard-response,339,2.0.0,888600,5c09a1171907db0001602601,4,33,null,,,,,,,,,<p style='font-size: 30px;'><strong>Okay</strong></p>,null,neutral_feedback,2,test,33,,,,,,,,,,,,,,,,,,,,,
,,,,,,,,,,,html-button-response,340,2.0.0,889981,5c09a1171907db0001602601,4,33,1379,,,,,,,,,"<img src= ""rock_img/I_Obsidian_12.jpg"" style=""width:8cm; height:6.53cm;""><p>What type of rock is this?</p>",4,class_response,2,test,34,Obsidian,Obsidian,12,TRUE,5,5,,,,,,,,,,,,,,,
,,,,,,,,,,,html-keyboard-response,341,2.0.0,890486,5c09a1171907db0001602601,4,33,null,,,,,,,,,<p style='font-size: 30px;'><strong>Okay</strong></p>,null,neutral_feedback,2,test,34,,,,,,,,,,,,,,,,,,,,,
,,,,,,,,,,,html-button-response,342,2.0.0,894048,5c09a1171907db0001602601,4,33,3560,,,,,,,,,"<img src= ""rock_img/I_Andesite_06.jpg"" style=""width:8cm; height:6.840000000000001cm;""><p>What type of rock is this?</p>",0,class_response,2,test,35,Andesite,Andesite,6,TRUE,1,1,,,,,,,,,,,,,,,
,,,,,,,,,,,html-keyboard-response,343,2.0.0,894553,5c09a1171907db0001602601,4,33,null,,,,,,,,,<p style='font-size: 30px;'><strong>Okay</strong></p>,null,neutral_feedback,2,test,35,,,,,,,,,,,,,,,,,,,,,
,,,,,,,,,,,html-button-response,344,2.0.0,895998,5c09a1171907db0001602601,4,33,1443,,,,,,,,,"<img src= ""rock_img/I_Peridotite_08.jpg"" style=""width:8cm; height:6.7cm;""><p>What type of rock is this?</p>",6,class_response,2,test,36,Peridotite,Peridotite,8,TRUE,7,7,,,,,,,,,,,,,,,
,,,,,,,,,,,html-keyboard-response,345,2.0.0,896499,5c09a1171907db0001602601,4,33,null,,,,,,,,,<p style='font-size: 30px;'><strong>Okay</strong></p>,null,neutral_feedback,2,test,36,,,,,,,,,,,,,,,,,,,,,
,,,,,,,,,,,html-button-response,346,2.0.0,899415,5c09a1171907db0001602601,4,33,2914,,,,,,,,,"<img src= ""rock_img/I_Pegmatite_05.jpg"" style=""width:8cm; height:7.300000000000001cm;""><p>What type of rock is this?</p>",5,class_response,2,test,37,Pegmatite,Pegmatite,5,TRUE,6,6,,,,,,,,,,,,,,,
,,,,,,,,,,,html-keyboard-response,347,2.0.0,899918,5c09a1171907db0001602601,4,33,null,,,,,,,,,<p style='font-size: 30px;'><strong>Okay</strong></p>,null,neutral_feedback,2,test,37,,,,,,,,,,,,,,,,,,,,,
,,,,,,,,,,,html-button-response,348,2.0.0,902350,5c09a1171907db0001602601,4,33,2431,,,,,,,,,"<img src= ""rock_img/I_Andesite_10.jpg"" style=""width:8cm; height:4.16cm;""><p>What type of rock is this?</p>",3,class_response,2,test,38,Gabbro,Andesite,10,FALSE,4,1,,,,,,,,,,,,,,,
,,,,,,,,,,,html-keyboard-response,349,2.0.0,902855,5c09a1171907db0001602601,4,33,null,,,,,,,,,<p style='font-size: 30px;'><strong>Okay</strong></p>,null,neutral_feedback,2,test,38,,,,,,,,,,,,,,,,,,,,,
,,,,,,,,,,,html-button-response,350,2.0.0,903782,5c09a1171907db0001602601,4,33,924,,,,,,,,,"<img src= ""rock_img/I_Basalt_08.jpg"" style=""width:8cm; height:10.44cm;""><p>What type of rock is this?</p>",1,class_response,2,test,39,Basalt,Basalt,8,TRUE,2,2,,,,,,,,,,,,,,,
,,,,,,,,,,,html-keyboard-response,351,2.0.0,904283,5c09a1171907db0001602601,4,33,null,,,,,,,,,<p style='font-size: 30px;'><strong>Okay</strong></p>,null,neutral_feedback,2,test,39,,,,,,,,,,,,,,,,,,,,,
,,,,,,,,,,,html-button-response,352,2.0.0,912830,5c09a1171907db0001602601,4,33,8546,,,,,,,,,"<img src= ""rock_img/I_Obsidian_06.jpg"" style=""width:8cm; height:6.8cm;""><p>What type of rock is this?</p>",4,class_response,2,test,40,Obsidian,Obsidian,6,TRUE,5,5,,,,,,,,,,,,,,,
,,,,,,,,,,,html-keyboard-response,353,2.0.0,913332,5c09a1171907db0001602601,4,33,null,,,,,,,,,<p style='font-size: 30px;'><strong>Okay</strong></p>,null,neutral_feedback,2,test,40,,,,,,,,,,,,,,,,,,,,,
,,,,,,,,,,,html-button-response,354,2.0.0,914733,5c09a1171907db0001602601,4,33,1399,,,,,,,,,"<img src= ""rock_img/I_Pegmatite_03.jpg"" style=""width:8cm; height:5.239999999999999cm;""><p>What type of rock is this?</p>",6,class_response,2,test,41,Peridotite,Pegmatite,3,FALSE,7,6,,,,,,,,,,,,,,,
,,,,,,,,,,,html-keyboard-response,355,2.0.0,915234,5c09a1171907db0001602601,4,33,null,,,,,,,,,<p style='font-size: 30px;'><strong>Okay</strong></p>,null,neutral_feedback,2,test,41,,,,,,,,,,,,,,,,,,,,,
,,,,,,,,,,,html-button-response,356,2.0.0,916681,5c09a1171907db0001602601,4,33,1445,,,,,,,,,"<img src= ""rock_img/I_Pegmatite_10.jpg"" style=""width:8cm; height:4.16cm;""><p>What type of rock is this?</p>",6,class_response,2,test,42,Peridotite,Pegmatite,10,FALSE,7,6,,,,,,,,,,,,,,,
,,,,,,,,,,,html-keyboard-response,357,2.0.0,917185,5c09a1171907db0001602601,4,33,null,,,,,,,,,<p style='font-size: 30px;'><strong>Okay</strong></p>,null,neutral_feedback,2,test,42,,,,,,,,,,,,,,,,,,,,,
,,,,,,,,,,,html-button-response,358,2.0.0,918746,5c09a1171907db0001602601,4,33,1560,,,,,,,,,"<img src= ""rock_img/I_Pegmatite_15.jpg"" style=""width:8cm; height:6cm;""><p>What type of rock is this?</p>",5,class_response,2,test,43,Pegmatite,Pegmatite,15,TRUE,6,6,,,,,,,,,,,,,,,
,,,,,,,,,,,html-keyboard-response,359,2.0.0,919251,5c09a1171907db0001602601,4,33,null,,,,,,,,,<p style='font-size: 30px;'><strong>Okay</strong></p>,null,neutral_feedback,2,test,43,,,,,,,,,,,,,,,,,,,,,
,,,,,,,,,,,html-button-response,360,2.0.0,920347,5c09a1171907db0001602601,4,33,1094,,,,,,,,,"<img src= ""rock_img/I_Obsidian_09.jpg"" style=""width:8cm; height:5cm;""><p>What type of rock is this?</p>",4,class_response,2,test,44,Obsidian,Obsidian,9,TRUE,5,5,,,,,,,,,,,,,,,
,,,,,,,,,,,html-keyboard-response,361,2.0.0,920850,5c09a1171907db0001602601,4,33,null,,,,,,,,,<p style='font-size: 30px;'><strong>Okay</strong></p>,null,neutral_feedback,2,test,44,,,,,,,,,,,,,,,,,,,,,
,,,,,,,,,,,html-button-response,362,2.0.0,922665,5c09a1171907db0001602601,4,33,1813,,,,,,,,,"<img src= ""rock_img/I_Diorite_10.jpg"" style=""width:8cm; height:5.949999999999999cm;""><p>What type of rock is this?</p>",3,class_response,2,test,45,Gabbro,Diorite,10,FALSE,4,3,,,,,,,,,,,,,,,
,,,,,,,,,,,html-keyboard-response,363,2.0.0,923168,5c09a1171907db0001602601,4,33,null,,,,,,,,,<p style='font-size: 30px;'><strong>Okay</strong></p>,null,neutral_feedback,2,test,45,,,,,,,,,,,,,,,,,,,,,
,,,,,,,,,,,html-button-response,364,2.0.0,924634,5c09a1171907db0001602601,4,33,1463,,,,,,,,,"<img src= ""rock_img/I_Obsidian_08.jpg"" style=""width:8cm; height:7.39cm;""><p>What type of rock is this?</p>",4,class_response,2,test,46,Obsidian,Obsidian,8,TRUE,5,5,,,,,,,,,,,,,,,
,,,,,,,,,,,html-keyboard-response,365,2.0.0,925135,5c09a1171907db0001602601,4,33,null,,,,,,,,,<p style='font-size: 30px;'><strong>Okay</strong></p>,null,neutral_feedback,2,test,46,,,,,,,,,,,,,,,,,,,,,
,,,,,,,,,,,html-button-response,366,2.0.0,926764,5c09a1171907db0001602601,4,33,1627,,,,,,,,,"<img src= ""rock_img/I_Pumice_05.jpg"" style=""width:8cm; height:7.25cm;""><p>What type of rock is this?</p>",7,class_response,2,test,47,Pumice,Pumice,5,TRUE,8,8,,,,,,,,,,,,,,,
,,,,,,,,,,,html-keyboard-response,367,2.0.0,927265,5c09a1171907db0001602601,4,33,null,,,,,,,,,<p style='font-size: 30px;'><strong>Okay</strong></p>,null,neutral_feedback,2,test,47,,,,,,,,,,,,,,,,,,,,,
,,,,,,,,,,,html-button-response,368,2.0.0,928699,5c09a1171907db0001602601,4,33,1432,,,,,,,,,"<img src= ""rock_img/I_Obsidian_16.jpg"" style=""width:8cm; height:9.3cm;""><p>What type of rock is this?</p>",4,class_response,2,test,48,Obsidian,Obsidian,16,TRUE,5,5,,,,,,,,,,,,,,,
,,,,,,,,,,,html-keyboard-response,369,2.0.0,929202,5c09a1171907db0001602601,4,33,null,,,,,,,,,<p style='font-size: 30px;'><strong>Okay</strong></p>,null,neutral_feedback,2,test,48,,,,,,,,,,,,,,,,,,,,,
,,,,,,,,,,,html-button-response,370,2.0.0,962966,5c09a1171907db0001602601,4,33,,,,,,,,,,,,cycle_feedback,,,,,,,,,,,,,,,,,,,,,12705.7,21001,,
,,,,,,,,,,,html-button-response,372,2.0.0,965036,5c09a1171907db0001602601,4,33,2069,,,,,,,,,,0,start_train,,,,,,,,,,,,,,,,,,,,,,,,
,,,,,,,,,,,html-button-response,374,2.0.0,967000,5c09a1171907db0001602601,4,33,1962,,,,,,,,,"<img src= ""rock_img/I_Basalt_05.jpg"" style=""width:8cm; height:8.18cm;""><p>What type of rock is this?</p>",1,class_response,3,train,1,Basalt,Basalt,5,TRUE,2,2,,,,,,,,,,,,,,,
,,,,,,,,,,,html-button-response,375,2.0.0,968002,5c09a1171907db0001602601,4,33,1000,,,,,,,,,"<img src= rock_img/I_Basalt_05.jpg style=""width:8cm; height:8.18cm;""><p style='font-size: 30px; color: green;'><strong>Correct!</strong></p><p style='font-size: 30px;'><strong>This rock is basalt</strong></p>",0,corr_feedback,3,train,1,,,,,,,,,,,,,,,,,,,,,
,,,,,,,,,,,html-button-response,376,2.0.0,969451,5c09a1171907db0001602601,4,33,1447,,,,,,,,,"<img src= ""rock_img/I_Peridotite_10.jpg"" style=""width:8cm; height:5.390000000000001cm;""><p>What type of rock is this?</p>",6,class_response,3,train,2,Peridotite,Peridotite,10,TRUE,7,7,,,,,,,,,,,,,,,
,,,,,,,,,,,html-button-response,377,2.0.0,970266,5c09a1171907db0001602601,4,33,814,,,,,,,,,"<img src= rock_img/I_Peridotite_10.jpg style=""width:8cm; height:5.390000000000001cm;""><p style='font-size: 30px; color: green;'><strong>Correct!</strong></p><p style='font-size: 30px;'><strong>This rock is peridotite</strong></p>",0,corr_feedback,3,train,2,,,,,,,,,,,,,,,,,,,,,
,,,,,,,,,,,html-button-response,378,2.0.0,971415,5c09a1171907db0001602601,4,33,1148,,,,,,,,,"<img src= ""rock_img/I_Peridotite_06.jpg"" style=""width:8cm; height:7.53cm;""><p>What type of rock is this?</p>",6,class_response,3,train,3,Peridotite,Peridotite,6,TRUE,7,7,,,,,,,,,,,,,,,
,,,,,,,,,,,html-button-response,379,2.0.0,972102,5c09a1171907db0001602601,4,33,685,,,,,,,,,"<img src= rock_img/I_Peridotite_06.jpg style=""width:8cm; height:7.53cm;""><p style='font-size: 30px; color: green;'><strong>Correct!</strong></p><p style='font-size: 30px;'><strong>This rock is peridotite</strong></p>",0,corr_feedback,3,train,3,,,,,,,,,,,,,,,,,,,,,
,,,,,,,,,,,html-button-response,380,2.0.0,973183,5c09a1171907db0001602601,4,33,1078,,,,,,,,,"<img src= ""rock_img/I_Obsidian_14.jpg"" style=""width:8cm; height:7.64cm;""><p>What type of rock is this?</p>",4,class_response,3,train,4,Obsidian,Obsidian,14,TRUE,5,5,,,,,,,,,,,,,,,
,,,,,,,,,,,html-button-response,381,2.0.0,974000,5c09a1171907db0001602601,4,33,815,,,,,,,,,"<img src= rock_img/I_Obsidian_14.jpg style=""width:8cm; height:7.64cm;""><p style='font-size: 30px; color: green;'><strong>Correct!</strong></p><p style='font-size: 30px;'><strong>This rock is obsidian</strong></p>",0,corr_feedback,3,train,4,,,,,,,,,,,,,,,,,,,,,
,,,,,,,,,,,html-button-response,382,2.0.0,975050,5c09a1171907db0001602601,4,33,1049,,,,,,,,,"<img src= ""rock_img/I_Obsidian_02.jpg"" style=""width:8cm; height:7.51cm;""><p>What type of rock is this?</p>",4,class_response,3,train,5,Obsidian,Obsidian,2,TRUE,5,5,,,,,,,,,,,,,,,
,,,,,,,,,,,html-button-response,383,2.0.0,976016,5c09a1171907db0001602601,4,33,964,,,,,,,,,"<img src= rock_img/I_Obsidian_02.jpg style=""width:8cm; height:7.51cm;""><p style='font-size: 30px; color: green;'><strong>Correct!</strong></p><p style='font-size: 30px;'><strong>This rock is obsidian</strong></p>",0,corr_feedback,3,train,5,,,,,,,,,,,,,,,,,,,,,
,,,,,,,,,,,html-button-response,384,2.0.0,977633,5c09a1171907db0001602601,4,33,1616,,,,,,,,,"<img src= ""rock_img/I_Diorite_11.jpg"" style=""width:8cm; height:7.11cm;""><p>What type of rock is this?</p>",2,class_response,3,train,6,Diorite,Diorite,11,TRUE,3,3,,,,,,,,,,,,,,,
,,,,,,,,,,,html-button-response,385,2.0.0,978583,5c09a1171907db0001602601,4,33,948,,,,,,,,,"<img src= rock_img/I_Diorite_11.jpg style=""width:8cm; height:7.11cm;""><p style='font-size: 30px; color: green;'><strong>Correct!</strong></p><p style='font-size: 30px;'><strong>This rock is diorite</strong></p>",0,corr_feedback,3,train,6,,,,,,,,,,,,,,,,,,,,,
,,,,,,,,,,,html-button-response,386,2.0.0,980118,5c09a1171907db0001602601,4,33,1534,,,,,,,,,"<img src= ""rock_img/I_Andesite_03.jpg"" style=""width:8cm; height:5.73cm;""><p>What type of rock is this?</p>",3,class_response,3,train,7,Gabbro,Andesite,3,FALSE,4,1,,,,,,,,,,,,,,,
,,,,,,,,,,,html-button-response,387,2.0.0,981452,5c09a1171907db0001602601,4,33,1334,,,,,,,,,"<img src= rock_img/I_Andesite_03.jpg style=""width:8cm; height:5.73cm;""><p style='font-size: 30px; color: red;'><strong>Incorrect!</strong></p><p style='font-size: 30px;'><strong>This rock is andesite</strong></p>",0,corr_feedback,3,train,7,,,,,,,,,,,,,,,,,,,,,
,,,,,,,,,,,html-button-response,388,2.0.0,983049,5c09a1171907db0001602601,4,33,1595,,,,,,,,,"<img src= ""rock_img/I_Diorite_13.jpg"" style=""width:8cm; height:6.29cm;""><p>What type of rock is this?</p>",2,class_response,3,train,8,Diorite,Diorite,13,TRUE,3,3,,,,,,,,,,,,,,,
,,,,,,,,,,,html-button-response,389,2.0.0,983949,5c09a1171907db0001602601,4,33,898,,,,,,,,,"<img src= rock_img/I_Diorite_13.jpg style=""width:8cm; height:6.29cm;""><p style='font-size: 30px; color: green;'><strong>Correct!</strong></p><p style='font-size: 30px;'><strong>This rock is diorite</strong></p>",0,corr_feedback,3,train,8,,,,,,,,,,,,,,,,,,,,,
,,,,,,,,,,,html-button-response,390,2.0.0,985082,5c09a1171907db0001602601,4,33,1132,,,,,,,,,"<img src= ""rock_img/I_Pumice_10.jpg"" style=""width:8cm; height:7.609999999999999cm;""><p>What type of rock is this?</p>",7,class_response,3,train,9,Pumice,Pumice,10,TRUE,8,8,,,,,,,,,,,,,,,
,,,,,,,,,,,html-button-response,391,2.0.0,985783,5c09a1171907db0001602601,4,33,700,,,,,,,,,"<img src= rock_img/I_Pumice_10.jpg style=""width:8cm; height:7.609999999999999cm;""><p style='font-size: 30px; color: green;'><strong>Correct!</strong></p><p style='font-size: 30px;'><strong>This rock is pumice</strong></p>",0,corr_feedback,3,train,9,,,,,,,,,,,,,,,,,,,,,
,,,,,,,,,,,html-button-response,392,2.0.0,987003,5c09a1171907db0001602601,4,33,1218,,,,,,,,,"<img src= ""rock_img/I_Pegmatite_11.jpg"" style=""width:8cm; height:8.14cm;""><p>What type of rock is this?</p>",5,class_response,3,train,10,Pegmatite,Pegmatite,11,TRUE,6,6,,,,,,,,,,,,,,,
,,,,,,,,,,,html-button-response,393,2.0.0,987732,5c09a1171907db0001602601,4,33,728,,,,,,,,,"<img src= rock_img/I_Pegmatite_11.jpg style=""width:8cm; height:8.14cm;""><p style='font-size: 30px; color: green;'><strong>Correct!</strong></p><p style='font-size: 30px;'><strong>This rock is pegmatite</strong></p>",0,corr_feedback,3,train,10,,,,,,,,,,,,,,,,,,,,,
,,,,,,,,,,,html-button-response,394,2.0.0,989134,5c09a1171907db0001602601,4,33,1400,,,,,,,,,"<img src= ""rock_img/I_Gabbro_01.jpg"" style=""width:8cm; height:5.21cm;""><p>What type of rock is this?</p>",3,class_response,3,train,11,Gabbro,Gabbro,1,TRUE,4,4,,,,,,,,,,,,,,,
,,,,,,,,,,,html-button-response,395,2.0.0,990053,5c09a1171907db0001602601,4,33,917,,,,,,,,,"<img src= rock_img/I_Gabbro_01.jpg style=""width:8cm; height:5.21cm;""><p style='font-size: 30px; color: green;'><strong>Correct!</strong></p><p style='font-size: 30px;'><strong>This rock is gabbro</strong></p>",0,corr_feedback,3,train,11,,,,,,,,,,,,,,,,,,,,,
,,,,,,,,,,,html-button-response,396,2.0.0,991136,5c09a1171907db0001602601,4,33,1081,,,,,,,,,"<img src= ""rock_img/I_Basalt_14.jpg"" style=""width:8cm; height:5.82cm;""><p>What type of rock is this?</p>",1,class_response,3,train,12,Basalt,Basalt,14,TRUE,2,2,,,,,,,,,,,,,,,
,,,,,,,,,,,html-button-response,397,2.0.0,991866,5c09a1171907db0001602601,4,33,729,,,,,,,,,"<img src= rock_img/I_Basalt_14.jpg style=""width:8cm; height:5.82cm;""><p style='font-size: 30px; color: green;'><strong>Correct!</strong></p><p style='font-size: 30px;'><strong>This rock is basalt</strong></p>",0,corr_feedback,3,train,12,,,,,,,,,,,,,,,,,,,,,
,,,,,,,,,,,html-button-response,399,2.0.0,993449,5c09a1171907db0001602601,4,33,1582,,,,,,,,,,0,start_train,,,,,,,,,,,,,,,,,,,,,,,,
,,,,,,,,,,,html-button-response,400,2.0.0,997600,5c09a1171907db0001602601,4,33,,,,,,,,,,,,cat_selection,3,train,1,,,,,,,3050.2,1099.3,4,1,Gabbro,Andesite,,,,,,,,,
,,,,,,,,,,,paired-cat-display,401,1.0.0,1025100,5c09a1171907db0001602601,4,33,,,,,,,,,,,,paired_cat_display,3,train,1,,,,,,,,,,,,,"defined speckles
lighter rocks",,6348,21149.8,"mottled color, almost looks like one color
darker rocks",,,,
,,,,,,,,,,,html-button-response,402,2.0.0,1031033,5c09a1171907db0001602601,4,33,,,,,,,,,,,,cat_selection,3,train,2,,,,,,,4914.8,1017.1,1,4,Andesite,Gabbro,,,,,,,,,
,,,,,,,,,,,paired-cat-display,403,1.0.0,1082233,5c09a1171907db0001602601,4,33,,,,,,,,,,,,paired_cat_display,3,train,2,,,,,,,,,,,,,speckled with different color,,6167.8,45029.3,mottled with a similar color,,,,
,,,,,,,,,,,html-button-response,404,2.0.0,1085653,5c09a1171907db0001602601,4,33,,,,,,,,,,,,cat_selection,3,train,3,,,,,,,2400.4,1018.8,3,1,Diorite,Andesite,,,,,,,,,
,,,,,,,,,,,paired-cat-display,405,1.0.0,1105785,5c09a1171907db0001602601,4,33,,,,,,,,,,,,paired_cat_display,3,train,3,,,,,,,,,,,,,speckled with lighter color,,6011.2,14118.3,,,,speckled with darker color,
,,,,,,,,,,,html-button-response,407,2.0.0,1107086,5c09a1171907db0001602601,4,33,1300,,,,,,,,,,0,start_test,,,,,,,,,,,,,,,,,,,,,,,,
,,,,,,,,,,,html-button-response,408,2.0.0,1108550,5c09a1171907db0001602601,4,33,1463,,,,,,,,,"<img src= ""rock_img/I_Diorite_09.jpg"" style=""width:8cm; height:5.27cm;""><p>What type of rock is this?</p>",2,class_response,3,test,1,Diorite,Diorite,9,TRUE,3,3,,,,,,,,,,,,,,,
,,,,,,,,,,,html-keyboard-response,409,2.0.0,1109053,5c09a1171907db0001602601,4,33,null,,,,,,,,,<p style='font-size: 30px;'><strong>Okay</strong></p>,null,neutral_feedback,3,test,1,,,,,,,,,,,,,,,,,,,,,
,,,,,,,,,,,html-button-response,410,2.0.0,1110399,5c09a1171907db0001602601,4,33,1344,,,,,,,,,"<img src= ""rock_img/I_Pegmatite_12.jpg"" style=""width:8cm; height:5.7cm;""><p>What type of rock is this?</p>",5,class_response,3,test,2,Pegmatite,Pegmatite,12,TRUE,6,6,,,,,,,,,,,,,,,
,,,,,,,,,,,html-keyboard-response,411,2.0.0,1110901,5c09a1171907db0001602601,4,33,null,,,,,,,,,<p style='font-size: 30px;'><strong>Okay</strong></p>,null,neutral_feedback,3,test,2,,,,,,,,,,,,,,,,,,,,,
