width,height,webaudio,browser,browser_version,mobile,os,fullscreen,vsync_rate,webcam,microphone,trial_type,trial_index,plugin_version,time_elapsed,subjID,condition,stimID,rt,url,success,value,timeout,failed_images,failed_audio,failed_video,view_history,stimulus,response,trialType,cycle,phase,trial,resp,cat,token,corr,resp_num,cat_num,time_fb1,time_fb2
1440,728,TRUE,chrome,131.0.0,FALSE,Mac OS,TRUE,60.65,TRUE,TRUE,browser-check,0,2.0.0,999,6634f3747fee7324a31a6aaa,2,,,,,,,,,,,,,,,,,,,,,,,,
,,,,,,,,,,,external-html,1,2.0.0,5797,6634f3747fee7324a31a6aaa,2,,4671,consent_form.html,,,,,,,,,,,,,,,,,,,,,
,,,,,,,,,,,fullscreen,2,2.0.0,8264,6634f3747fee7324a31a6aaa,2,,1462,,TRUE,,,,,,,,,,,,,,,,,,,,
,,,,,,,,,,,call-function,3,2.0.0,8268,6634f3747fee7324a31a6aaa,2,,,,,{},,,,,,,,,,,,,,,,,,,
,,,,,,,,,,,preload,4,2.0.0,9995,6634f3747fee7324a31a6aaa,2,,,,TRUE,,FALSE,[],[],[],,,,,,,,,,,,,,,
,,,,,,,,,,,instructions,5,2.0.0,52962,6634f3747fee7324a31a6aaa,2,,42967,,,,,,,,"[{""page_index"":0,""viewing_time"":7565},{""page_index"":1,""viewing_time"":25533},{""page_index"":2,""viewing_time"":9868}]",,,,,,,,,,,,,,
,,,,,,,,,,,html-button-response,6,2.0.0,54180,6634f3747fee7324a31a6aaa,2,,1214,,,,,,,,,,0,start_test,,,,,,,,,,,
,,,,,,,,,,,html-button-response,7,2.0.0,60212,6634f3747fee7324a31a6aaa,2,,6029,,,,,,,,,"<img src= ""rock_img/I_Obsidian_11.jpg"" style=""width:8cm; height:6.05cm;""><p>What type of rock is this?</p>",6,class_response,0,test,1,Peridotite,Obsidian,11,FALSE,7,5,,
,,,,,,,,,,,html-keyboard-response,8,2.0.0,60716,6634f3747fee7324a31a6aaa,2,,null,,,,,,,,,<p style='font-size: 30px;'><strong>Okay</strong></p>,null,neutral_feedback,0,test,1,,,,,,,,
,,,,,,,,,,,html-button-response,9,2.0.0,64679,6634f3747fee7324a31a6aaa,2,,3960,,,,,,,,,"<img src= ""rock_img/I_Peridotite_12.jpg"" style=""width:8cm; height:4.54cm;""><p>What type of rock is this?</p>",3,class_response,0,test,2,Gabbro,Peridotite,12,FALSE,4,7,,
,,,,,,,,,,,html-keyboard-response,10,2.0.0,65182,6634f3747fee7324a31a6aaa,2,,null,,,,,,,,,<p style='font-size: 30px;'><strong>Okay</strong></p>,null,neutral_feedback,0,test,2,,,,,,,,
,,,,,,,,,,,html-button-response,11,2.0.0,68812,6634f3747fee7324a31a6aaa,2,,3627,,,,,,,,,"<img src= ""rock_img/I_Gabbro_08.jpg"" style=""width:8cm; height:5.15cm;""><p>What type of rock is this?</p>",5,class_response,0,test,3,Pegmatite,Gabbro,8,FALSE,6,4,,
,,,,,,,,,,,html-keyboard-response,12,2.0.0,69314,6634f3747fee7324a31a6aaa,2,,null,,,,,,,,,<p style='font-size: 30px;'><strong>Okay</strong></p>,null,neutral_feedback,0,test,3,,,,,,,,
,,,,,,,,,,,html-button-response,13,2.0.0,71745,6634f3747fee7324a31a6aaa,2,,2429,,,,,,,,,"<img src= ""rock_img/I_Gabbro_13.jpg"" style=""width:8cm; height:5.08cm;""><p>What type of rock is this?</p>",1,class_response,0,test,4,Basalt,Gabbro,13,FALSE,2,4,,
,,,,,,,,,,,html-keyboard-response,14,2.0.0,72249,6634f3747fee7324a31a6aaa,2,,null,,,,,,,,,<p style='font-size: 30px;'><strong>Okay</strong></p>,null,neutral_feedback,0,test,4,,,,,,,,
,,,,,,,,,,,html-button-response,15,2.0.0,73378,6634f3747fee7324a31a6aaa,2,,1127,,,,,,,,,"<img src= ""rock_img/I_Diorite_06.jpg"" style=""width:8cm; height:6.03cm;""><p>What type of rock is this?</p>",0,class_response,0,test,5,Andesite,Diorite,6,FALSE,1,3,,
,,,,,,,,,,,html-keyboard-response,16,2.0.0,73881,6634f3747fee7324a31a6aaa,2,,null,,,,,,,,,<p style='font-size: 30px;'><strong>Okay</strong></p>,null,neutral_feedback,0,test,5,,,,,,,,
,,,,,,,,,,,html-button-response,17,2.0.0,76213,6634f3747fee7324a31a6aaa,2,,2330,,,,,,,,,"<img src= ""rock_img/I_Obsidian_09.jpg"" style=""width:8cm; height:5cm;""><p>What type of rock is this?</p>",6,class_response,0,test,6,Peridotite,Obsidian,9,FALSE,7,5,,
,,,,,,,,,,,html-keyboard-response,18,2.0.0,76716,6634f3747fee7324a31a6aaa,2,,null,,,,,,,,,<p style='font-size: 30px;'><strong>Okay</strong></p>,null,neutral_feedback,0,test,6,,,,,,,,
,,,,,,,,,,,html-button-response,19,2.0.0,77511,6634f3747fee7324a31a6aaa,2,,793,,,,,,,,,"<img src= ""rock_img/I_Basalt_14.jpg"" style=""width:8cm; height:5.82cm;""><p>What type of rock is this?</p>",2,class_response,0,test,7,Diorite,Basalt,14,FALSE,3,2,,
,,,,,,,,,,,html-keyboard-response,20,2.0.0,78013,6634f3747fee7324a31a6aaa,2,,null,,,,,,,,,<p style='font-size: 30px;'><strong>Okay</strong></p>,null,neutral_feedback,0,test,7,,,,,,,,
,,,,,,,,,,,html-button-response,21,2.0.0,79095,6634f3747fee7324a31a6aaa,2,,1079,,,,,,,,,"<img src= ""rock_img/I_Gabbro_03.jpg"" style=""width:8cm; height:8.52cm;""><p>What type of rock is this?</p>",1,class_response,0,test,8,Basalt,Gabbro,3,FALSE,2,4,,
,,,,,,,,,,,html-keyboard-response,22,2.0.0,79597,6634f3747fee7324a31a6aaa,2,,null,,,,,,,,,<p style='font-size: 30px;'><strong>Okay</strong></p>,null,neutral_feedback,0,test,8,,,,,,,,
,,,,,,,,,,,html-button-response,23,2.0.0,81095,6634f3747fee7324a31a6aaa,2,,1495,,,,,,,,,"<img src= ""rock_img/I_Pumice_04.jpg"" style=""width:8cm; height:6.819999999999999cm;""><p>What type of rock is this?</p>",7,class_response,0,test,9,Pumice,Pumice,4,TRUE,8,8,,
,,,,,,,,,,,html-keyboard-response,24,2.0.0,81597,6634f3747fee7324a31a6aaa,2,,null,,,,,,,,,<p style='font-size: 30px;'><strong>Okay</strong></p>,null,neutral_feedback,0,test,9,,,,,,,,
,,,,,,,,,,,html-button-response,25,2.0.0,82944,6634f3747fee7324a31a6aaa,2,,1345,,,,,,,,,"<img src= ""rock_img/I_Pegmatite_16.jpg"" style=""width:8cm; height:5.8cm;""><p>What type of rock is this?</p>",3,class_response,0,test,10,Gabbro,Pegmatite,16,FALSE,4,6,,
,,,,,,,,,,,html-keyboard-response,26,2.0.0,83447,6634f3747fee7324a31a6aaa,2,,null,,,,,,,,,<p style='font-size: 30px;'><strong>Okay</strong></p>,null,neutral_feedback,0,test,10,,,,,,,,
,,,,,,,,,,,html-button-response,27,2.0.0,84945,6634f3747fee7324a31a6aaa,2,,1494,,,,,,,,,"<img src= ""rock_img/I_Diorite_14.jpg"" style=""width:8cm; height:5.71cm;""><p>What type of rock is this?</p>",2,class_response,0,test,11,Diorite,Diorite,14,TRUE,3,3,,
,,,,,,,,,,,html-keyboard-response,28,2.0.0,85446,6634f3747fee7324a31a6aaa,2,,null,,,,,,,,,<p style='font-size: 30px;'><strong>Okay</strong></p>,null,neutral_feedback,0,test,11,,,,,,,,
,,,,,,,,,,,html-button-response,29,2.0.0,86912,6634f3747fee7324a31a6aaa,2,,1463,,,,,,,,,"<img src= ""rock_img/I_Andesite_01.jpg"" style=""width:8cm; height:5.87cm;""><p>What type of rock is this?</p>",5,class_response,0,test,12,Pegmatite,Andesite,1,FALSE,6,1,,
,,,,,,,,,,,html-keyboard-response,30,2.0.0,87415,6634f3747fee7324a31a6aaa,2,,null,,,,,,,,,<p style='font-size: 30px;'><strong>Okay</strong></p>,null,neutral_feedback,0,test,12,,,,,,,,
,,,,,,,,,,,html-button-response,31,2.0.0,88144,6634f3747fee7324a31a6aaa,2,,727,,,,,,,,,"<img src= ""rock_img/I_Gabbro_16.jpg"" style=""width:8cm; height:6.44cm;""><p>What type of rock is this?</p>",0,class_response,0,test,13,Andesite,Gabbro,16,FALSE,1,4,,
,,,,,,,,,,,html-keyboard-response,32,2.0.0,88647,6634f3747fee7324a31a6aaa,2,,null,,,,,,,,,<p style='font-size: 30px;'><strong>Okay</strong></p>,null,neutral_feedback,0,test,13,,,,,,,,
,,,,,,,,,,,html-button-response,33,2.0.0,89478,6634f3747fee7324a31a6aaa,2,,829,,,,,,,,,"<img src= ""rock_img/I_Pumice_09.jpg"" style=""width:8cm; height:6.44cm;""><p>What type of rock is this?</p>",2,class_response,0,test,14,Diorite,Pumice,9,FALSE,3,8,,
,,,,,,,,,,,html-keyboard-response,34,2.0.0,89980,6634f3747fee7324a31a6aaa,2,,null,,,,,,,,,<p style='font-size: 30px;'><strong>Okay</strong></p>,null,neutral_feedback,0,test,14,,,,,,,,
,,,,,,,,,,,html-button-response,35,2.0.0,90762,6634f3747fee7324a31a6aaa,2,,779,,,,,,,,,"<img src= ""rock_img/I_Obsidian_07.jpg"" style=""width:8cm; height:4.76cm;""><p>What type of rock is this?</p>",7,class_response,0,test,15,Pumice,Obsidian,7,FALSE,8,5,,
,,,,,,,,,,,html-keyboard-response,36,2.0.0,91265,6634f3747fee7324a31a6aaa,2,,null,,,,,,,,,<p style='font-size: 30px;'><strong>Okay</strong></p>,null,neutral_feedback,0,test,15,,,,,,,,
,,,,,,,,,,,html-button-response,37,2.0.0,91845,6634f3747fee7324a31a6aaa,2,,578,,,,,,,,,"<img src= ""rock_img/I_Pegmatite_13.jpg"" style=""width:8cm; height:4.95cm;""><p>What type of rock is this?</p>",3,class_response,0,test,16,Gabbro,Pegmatite,13,FALSE,4,6,,
,,,,,,,,,,,html-keyboard-response,38,2.0.0,92348,6634f3747fee7324a31a6aaa,2,,null,,,,,,,,,<p style='font-size: 30px;'><strong>Okay</strong></p>,null,neutral_feedback,0,test,16,,,,,,,,
,,,,,,,,,,,html-button-response,39,2.0.0,92911,6634f3747fee7324a31a6aaa,2,,561,,,,,,,,,"<img src= ""rock_img/I_Andesite_16.jpg"" style=""width:8cm; height:6.010000000000001cm;""><p>What type of rock is this?</p>",1,class_response,0,test,17,Basalt,Andesite,16,FALSE,2,1,,
,,,,,,,,,,,html-keyboard-response,40,2.0.0,93412,6634f3747fee7324a31a6aaa,2,,null,,,,,,,,,<p style='font-size: 30px;'><strong>Okay</strong></p>,null,neutral_feedback,0,test,17,,,,,,,,
,,,,,,,,,,,html-button-response,41,2.0.0,94245,6634f3747fee7324a31a6aaa,2,,831,,,,,,,,,"<img src= ""rock_img/I_Peridotite_10.jpg"" style=""width:8cm; height:5.390000000000001cm;""><p>What type of rock is this?</p>",2,class_response,0,test,18,Diorite,Peridotite,10,FALSE,3,7,,
,,,,,,,,,,,html-keyboard-response,42,2.0.0,94747,6634f3747fee7324a31a6aaa,2,,null,,,,,,,,,<p style='font-size: 30px;'><strong>Okay</strong></p>,null,neutral_feedback,0,test,18,,,,,,,,
,,,,,,,,,,,html-button-response,43,2.0.0,96094,6634f3747fee7324a31a6aaa,2,,1345,,,,,,,,,"<img src= ""rock_img/I_Pegmatite_11.jpg"" style=""width:8cm; height:8.14cm;""><p>What type of rock is this?</p>",0,class_response,0,test,19,Andesite,Pegmatite,11,FALSE,1,6,,
,,,,,,,,,,,html-keyboard-response,44,2.0.0,96597,6634f3747fee7324a31a6aaa,2,,null,,,,,,,,,<p style='font-size: 30px;'><strong>Okay</strong></p>,null,neutral_feedback,0,test,19,,,,,,,,
,,,,,,,,,,,html-button-response,45,2.0.0,97845,6634f3747fee7324a31a6aaa,2,,1246,,,,,,,,,"<img src= ""rock_img/I_Obsidian_06.jpg"" style=""width:8cm; height:6.8cm;""><p>What type of rock is this?</p>",4,class_response,0,test,20,Obsidian,Obsidian,6,TRUE,5,5,,
,,,,,,,,,,,html-keyboard-response,46,2.0.0,98347,6634f3747fee7324a31a6aaa,2,,null,,,,,,,,,<p style='font-size: 30px;'><strong>Okay</strong></p>,null,neutral_feedback,0,test,20,,,,,,,,
,,,,,,,,,,,html-button-response,47,2.0.0,99162,6634f3747fee7324a31a6aaa,2,,811,,,,,,,,,"<img src= ""rock_img/I_Diorite_11.jpg"" style=""width:8cm; height:7.11cm;""><p>What type of rock is this?</p>",6,class_response,0,test,21,Peridotite,Diorite,11,FALSE,7,3,,
,,,,,,,,,,,html-keyboard-response,48,2.0.0,99665,6634f3747fee7324a31a6aaa,2,,null,,,,,,,,,<p style='font-size: 30px;'><strong>Okay</strong></p>,null,neutral_feedback,0,test,21,,,,,,,,
,,,,,,,,,,,html-button-response,49,2.0.0,100428,6634f3747fee7324a31a6aaa,2,,761,,,,,,,,,"<img src= ""rock_img/I_Basalt_11.jpg"" style=""width:8cm; height:5.359999999999999cm;""><p>What type of rock is this?</p>",2,class_response,0,test,22,Diorite,Basalt,11,FALSE,3,2,,
,,,,,,,,,,,html-keyboard-response,50,2.0.0,100930,6634f3747fee7324a31a6aaa,2,,null,,,,,,,,,<p style='font-size: 30px;'><strong>Okay</strong></p>,null,neutral_feedback,0,test,22,,,,,,,,
,,,,,,,,,,,html-button-response,51,2.0.0,101413,6634f3747fee7324a31a6aaa,2,,480,,,,,,,,,"<img src= ""rock_img/I_Peridotite_13.jpg"" style=""width:8cm; height:7.58cm;""><p>What type of rock is this?</p>",1,class_response,0,test,23,Basalt,Peridotite,13,FALSE,2,7,,
,,,,,,,,,,,html-keyboard-response,52,2.0.0,101915,6634f3747fee7324a31a6aaa,2,,null,,,,,,,,,<p style='font-size: 30px;'><strong>Okay</strong></p>,null,neutral_feedback,0,test,23,,,,,,,,
,,,,,,,,,,,html-button-response,53,2.0.0,102461,6634f3747fee7324a31a6aaa,2,,544,,,,,,,,,"<img src= ""rock_img/I_Peridotite_16.jpg"" style=""width:8cm; height:6.989999999999999cm;""><p>What type of rock is this?</p>",5,class_response,0,test,24,Pegmatite,Peridotite,16,FALSE,6,7,,
,,,,,,,,,,,html-keyboard-response,54,2.0.0,102962,6634f3747fee7324a31a6aaa,2,,null,,,,,,,,,<p style='font-size: 30px;'><strong>Okay</strong></p>,null,neutral_feedback,0,test,24,,,,,,,,
,,,,,,,,,,,html-button-response,55,2.0.0,104113,6634f3747fee7324a31a6aaa,2,,1149,,,,,,,,,"<img src= ""rock_img/I_Basalt_02.jpg"" style=""width:8cm; height:6.45cm;""><p>What type of rock is this?</p>",0,class_response,0,test,25,Andesite,Basalt,2,FALSE,1,2,,
,,,,,,,,,,,html-keyboard-response,56,2.0.0,104614,6634f3747fee7324a31a6aaa,2,,null,,,,,,,,,<p style='font-size: 30px;'><strong>Okay</strong></p>,null,neutral_feedback,0,test,25,,,,,,,,
,,,,,,,,,,,html-button-response,57,2.0.0,105361,6634f3747fee7324a31a6aaa,2,,745,,,,,,,,,"<img src= ""rock_img/I_Pumice_03.jpg"" style=""width:8cm; height:6.64cm;""><p>What type of rock is this?</p>",3,class_response,0,test,26,Gabbro,Pumice,3,FALSE,4,8,,
,,,,,,,,,,,html-keyboard-response,58,2.0.0,105864,6634f3747fee7324a31a6aaa,2,,null,,,,,,,,,<p style='font-size: 30px;'><strong>Okay</strong></p>,null,neutral_feedback,0,test,26,,,,,,,,
,,,,,,,,,,,html-button-response,59,2.0.0,106562,6634f3747fee7324a31a6aaa,2,,696,,,,,,,,,"<img src= ""rock_img/I_Basalt_05.jpg"" style=""width:8cm; height:8.18cm;""><p>What type of rock is this?</p>",2,class_response,0,test,27,Diorite,Basalt,5,FALSE,3,2,,
,,,,,,,,,,,html-keyboard-response,60,2.0.0,107064,6634f3747fee7324a31a6aaa,2,,null,,,,,,,,,<p style='font-size: 30px;'><strong>Okay</strong></p>,null,neutral_feedback,0,test,27,,,,,,,,
,,,,,,,,,,,html-button-response,61,2.0.0,108344,6634f3747fee7324a31a6aaa,2,,1278,,,,,,,,,"<img src= ""rock_img/I_Andesite_10.jpg"" style=""width:8cm; height:4.16cm;""><p>What type of rock is this?</p>",7,class_response,0,test,28,Pumice,Andesite,10,FALSE,8,1,,
,,,,,,,,,,,html-keyboard-response,62,2.0.0,108846,6634f3747fee7324a31a6aaa,2,,null,,,,,,,,,<p style='font-size: 30px;'><strong>Okay</strong></p>,null,neutral_feedback,0,test,28,,,,,,,,
,,,,,,,,,,,html-button-response,63,2.0.0,109678,6634f3747fee7324a31a6aaa,2,,830,,,,,,,,,"<img src= ""rock_img/I_Pumice_14.jpg"" style=""width:8cm; height:6.39cm;""><p>What type of rock is this?</p>",7,class_response,0,test,29,Pumice,Pumice,14,TRUE,8,8,,
,,,,,,,,,,,html-keyboard-response,64,2.0.0,110181,6634f3747fee7324a31a6aaa,2,,null,,,,,,,,,<p style='font-size: 30px;'><strong>Okay</strong></p>,null,neutral_feedback,0,test,29,,,,,,,,
,,,,,,,,,,,html-button-response,65,2.0.0,110744,6634f3747fee7324a31a6aaa,2,,561,,,,,,,,,"<img src= ""rock_img/I_Diorite_13.jpg"" style=""width:8cm; height:6.29cm;""><p>What type of rock is this?</p>",2,class_response,0,test,30,Diorite,Diorite,13,TRUE,3,3,,
,,,,,,,,,,,html-keyboard-response,66,2.0.0,111246,6634f3747fee7324a31a6aaa,2,,null,,,,,,,,,<p style='font-size: 30px;'><strong>Okay</strong></p>,null,neutral_feedback,0,test,30,,,,,,,,
,,,,,,,,,,,html-button-response,67,2.0.0,112546,6634f3747fee7324a31a6aaa,2,,1297,,,,,,,,,"<img src= ""rock_img/I_Obsidian_05.jpg"" style=""width:8cm; height:6.33cm;""><p>What type of rock is this?</p>",1,class_response,0,test,31,Basalt,Obsidian,5,FALSE,2,5,,
,,,,,,,,,,,html-keyboard-response,68,2.0.0,113048,6634f3747fee7324a31a6aaa,2,,null,,,,,,,,,<p style='font-size: 30px;'><strong>Okay</strong></p>,null,neutral_feedback,0,test,31,,,,,,,,
,,,,,,,,,,,html-button-response,69,2.0.0,114045,6634f3747fee7324a31a6aaa,2,,994,,,,,,,,,"<img src= ""rock_img/I_Diorite_16.jpg"" style=""width:8cm; height:6.74cm;""><p>What type of rock is this?</p>",5,class_response,0,test,32,Pegmatite,Diorite,16,FALSE,6,3,,
,,,,,,,,,,,html-keyboard-response,70,2.0.0,114547,6634f3747fee7324a31a6aaa,2,,null,,,,,,,,,<p style='font-size: 30px;'><strong>Okay</strong></p>,null,neutral_feedback,0,test,32,,,,,,,,
,,,,,,,,,,,html-button-response,71,2.0.0,115644,6634f3747fee7324a31a6aaa,2,,1095,,,,,,,,,"<img src= ""rock_img/I_Pegmatite_06.jpg"" style=""width:8cm; height:5.17cm;""><p>What type of rock is this?</p>",0,class_response,0,test,33,Andesite,Pegmatite,6,FALSE,1,6,,
,,,,,,,,,,,html-keyboard-response,72,2.0.0,116146,6634f3747fee7324a31a6aaa,2,,null,,,,,,,,,<p style='font-size: 30px;'><strong>Okay</strong></p>,null,neutral_feedback,0,test,33,,,,,,,,
,,,,,,,,,,,html-button-response,73,2.0.0,117578,6634f3747fee7324a31a6aaa,2,,1430,,,,,,,,,"<img src= ""rock_img/I_Andesite_07.jpg"" style=""width:8cm; height:5.93cm;""><p>What type of rock is this?</p>",1,class_response,0,test,34,Basalt,Andesite,7,FALSE,2,1,,
,,,,,,,,,,,html-keyboard-response,74,2.0.0,118081,6634f3747fee7324a31a6aaa,2,,null,,,,,,,,,<p style='font-size: 30px;'><strong>Okay</strong></p>,null,neutral_feedback,0,test,34,,,,,,,,
,,,,,,,,,,,html-button-response,75,2.0.0,118429,6634f3747fee7324a31a6aaa,2,,345,,,,,,,,,"<img src= ""rock_img/I_Andesite_04.jpg"" style=""width:8cm; height:5.96cm;""><p>What type of rock is this?</p>",2,class_response,0,test,35,Diorite,Andesite,4,FALSE,3,1,,
,,,,,,,,,,,html-keyboard-response,76,2.0.0,118931,6634f3747fee7324a31a6aaa,2,,null,,,,,,,,,<p style='font-size: 30px;'><strong>Okay</strong></p>,null,neutral_feedback,0,test,35,,,,,,,,
,,,,,,,,,,,html-button-response,77,2.0.0,119795,6634f3747fee7324a31a6aaa,2,,862,,,,,,,,,"<img src= ""rock_img/I_Gabbro_14.jpg"" style=""width:8cm; height:8.48cm;""><p>What type of rock is this?</p>",5,class_response,0,test,36,Pegmatite,Gabbro,14,FALSE,6,4,,
,,,,,,,,,,,html-keyboard-response,78,2.0.0,120296,6634f3747fee7324a31a6aaa,2,,null,,,,,,,,,<p style='font-size: 30px;'><strong>Okay</strong></p>,null,neutral_feedback,0,test,36,,,,,,,,
,,,,,,,,,,,html-button-response,79,2.0.0,121711,6634f3747fee7324a31a6aaa,2,,1412,,,,,,,,,"<img src= ""rock_img/I_Pumice_06.jpg"" style=""width:8cm; height:6.9399999999999995cm;""><p>What type of rock is this?</p>",1,class_response,0,test,37,Basalt,Pumice,6,FALSE,2,8,,
,,,,,,,,,,,html-keyboard-response,80,2.0.0,122212,6634f3747fee7324a31a6aaa,2,,null,,,,,,,,,<p style='font-size: 30px;'><strong>Okay</strong></p>,null,neutral_feedback,0,test,37,,,,,,,,
,,,,,,,,,,,html-button-response,81,2.0.0,123262,6634f3747fee7324a31a6aaa,2,,1046,,,,,,,,,"<img src= ""rock_img/I_Basalt_01.jpg"" style=""width:8cm; height:7.880000000000001cm;""><p>What type of rock is this?</p>",2,class_response,0,test,38,Diorite,Basalt,1,FALSE,3,2,,
,,,,,,,,,,,html-keyboard-response,82,2.0.0,123765,6634f3747fee7324a31a6aaa,2,,null,,,,,,,,,<p style='font-size: 30px;'><strong>Okay</strong></p>,null,neutral_feedback,0,test,38,,,,,,,,
,,,,,,,,,,,html-button-response,83,2.0.0,124478,6634f3747fee7324a31a6aaa,2,,711,,,,,,,,,"<img src= ""rock_img/I_Diorite_02.jpg"" style=""width:8cm; height:6.27cm;""><p>What type of rock is this?</p>",7,class_response,0,test,39,Pumice,Diorite,2,FALSE,8,3,,
,,,,,,,,,,,html-keyboard-response,84,2.0.0,124980,6634f3747fee7324a31a6aaa,2,,null,,,,,,,,,<p style='font-size: 30px;'><strong>Okay</strong></p>,null,neutral_feedback,0,test,39,,,,,,,,
,,,,,,,,,,,html-button-response,85,2.0.0,125445,6634f3747fee7324a31a6aaa,2,,462,,,,,,,,,"<img src= ""rock_img/I_Peridotite_04.jpg"" style=""width:8cm; height:6.680000000000001cm;""><p>What type of rock is this?</p>",3,class_response,0,test,40,Gabbro,Peridotite,4,FALSE,4,7,,
,,,,,,,,,,,html-keyboard-response,86,2.0.0,125948,6634f3747fee7324a31a6aaa,2,,null,,,,,,,,,<p style='font-size: 30px;'><strong>Okay</strong></p>,null,neutral_feedback,0,test,40,,,,,,,,
,,,,,,,,,,,html-button-response,87,2.0.0,126746,6634f3747fee7324a31a6aaa,2,,796,,,,,,,,,"<img src= ""rock_img/I_Basalt_04.jpg"" style=""width:8cm; height:7.53cm;""><p>What type of rock is this?</p>",2,class_response,0,test,41,Diorite,Basalt,4,FALSE,3,2,,
,,,,,,,,,,,html-keyboard-response,88,2.0.0,127248,6634f3747fee7324a31a6aaa,2,,null,,,,,,,,,<p style='font-size: 30px;'><strong>Okay</strong></p>,null,neutral_feedback,0,test,41,,,,,,,,
,,,,,,,,,,,html-button-response,89,2.0.0,127679,6634f3747fee7324a31a6aaa,2,,428,,,,,,,,,"<img src= ""rock_img/I_Pumice_15.jpg"" style=""width:8cm; height:7.86cm;""><p>What type of rock is this?</p>",5,class_response,0,test,42,Pegmatite,Pumice,15,FALSE,6,8,,
,,,,,,,,,,,html-keyboard-response,90,2.0.0,128181,6634f3747fee7324a31a6aaa,2,,null,,,,,,,,,<p style='font-size: 30px;'><strong>Okay</strong></p>,null,neutral_feedback,0,test,42,,,,,,,,
,,,,,,,,,,,html-button-response,91,2.0.0,128796,6634f3747fee7324a31a6aaa,2,,613,,,,,,,,,"<img src= ""rock_img/I_Obsidian_14.jpg"" style=""width:8cm; height:7.64cm;""><p>What type of rock is this?</p>",0,class_response,0,test,43,Andesite,Obsidian,14,FALSE,1,5,,
,,,,,,,,,,,html-keyboard-response,92,2.0.0,129298,6634f3747fee7324a31a6aaa,2,,null,,,,,,,,,<p style='font-size: 30px;'><strong>Okay</strong></p>,null,neutral_feedback,0,test,43,,,,,,,,
,,,,,,,,,,,html-button-response,93,2.0.0,129678,6634f3747fee7324a31a6aaa,2,,378,,,,,,,,,"<img src= ""rock_img/I_Pegmatite_05.jpg"" style=""width:8cm; height:7.300000000000001cm;""><p>What type of rock is this?</p>",1,class_response,0,test,44,Basalt,Pegmatite,5,FALSE,2,6,,
,,,,,,,,,,,html-keyboard-response,94,2.0.0,130180,6634f3747fee7324a31a6aaa,2,,null,,,,,,,,,<p style='font-size: 30px;'><strong>Okay</strong></p>,null,neutral_feedback,0,test,44,,,,,,,,
,,,,,,,,,,,html-button-response,95,2.0.0,130845,6634f3747fee7324a31a6aaa,2,,663,,,,,,,,,"<img src= ""rock_img/I_Gabbro_01.jpg"" style=""width:8cm; height:5.21cm;""><p>What type of rock is this?</p>",4,class_response,0,test,45,Obsidian,Gabbro,1,FALSE,5,4,,
,,,,,,,,,,,html-keyboard-response,96,2.0.0,131348,6634f3747fee7324a31a6aaa,2,,null,,,,,,,,,<p style='font-size: 30px;'><strong>Okay</strong></p>,null,neutral_feedback,0,test,45,,,,,,,,
,,,,,,,,,,,html-button-response,97,2.0.0,132245,6634f3747fee7324a31a6aaa,2,,895,,,,,,,,,"<img src= ""rock_img/I_Andesite_05.jpg"" style=""width:8cm; height:4.12cm;""><p>What type of rock is this?</p>",1,class_response,0,test,46,Basalt,Andesite,5,FALSE,2,1,,
,,,,,,,,,,,html-keyboard-response,98,2.0.0,132747,6634f3747fee7324a31a6aaa,2,,null,,,,,,,,,<p style='font-size: 30px;'><strong>Okay</strong></p>,null,neutral_feedback,0,test,46,,,,,,,,
,,,,,,,,,,,html-button-response,99,2.0.0,133162,6634f3747fee7324a31a6aaa,2,,411,,,,,,,,,"<img src= ""rock_img/I_Pegmatite_10.jpg"" style=""width:8cm; height:4.16cm;""><p>What type of rock is this?</p>",5,class_response,0,test,47,Pegmatite,Pegmatite,10,TRUE,6,6,,
,,,,,,,,,,,html-keyboard-response,100,2.0.0,133665,6634f3747fee7324a31a6aaa,2,,null,,,,,,,,,<p style='font-size: 30px;'><strong>Okay</strong></p>,null,neutral_feedback,0,test,47,,,,,,,,
,,,,,,,,,,,html-button-response,101,2.0.0,134345,6634f3747fee7324a31a6aaa,2,,678,,,,,,,,,"<img src= ""rock_img/I_Peridotite_14.jpg"" style=""width:8cm; height:5.3cm;""><p>What type of rock is this?</p>",2,class_response,0,test,48,Diorite,Peridotite,14,FALSE,3,7,,
,,,,,,,,,,,html-keyboard-response,102,2.0.0,134847,6634f3747fee7324a31a6aaa,2,,null,,,,,,,,,<p style='font-size: 30px;'><strong>Okay</strong></p>,null,neutral_feedback,0,test,48,,,,,,,,
,,,,,,,,,,,instructions,103,2.0.0,161979,6634f3747fee7324a31a6aaa,2,,27105,,,,,,,,"[{""page_index"":0,""viewing_time"":2270},{""page_index"":1,""viewing_time"":21217},{""page_index"":2,""viewing_time"":3617}]",,,,,,,,,,,,,,
,,,,,,,,,,,html-button-response,104,2.0.0,164128,6634f3747fee7324a31a6aaa,2,,2147,,,,,,,,,,0,start_train,,,,,,,,,,,
,,,,,,,,,,,html-button-response,105,2.0.0,166812,6634f3747fee7324a31a6aaa,2,,2681,,,,,,,,,"<img src= ""rock_img/I_Pegmatite_07.jpg"" style=""width:8cm; height:6.7cm;""><p>What type of rock is this?</p>",0,class_response,1,train,1,Andesite,Pegmatite,7,FALSE,1,6,,
,,,,,,,,,,,html-button-response,106,2.0.0,169594,6634f3747fee7324a31a6aaa,2,,2780,,,,,,,,,"<img src= rock_img/I_Pegmatite_07.jpg style=""width:8cm; height:6.7cm;""><p style='font-size: 30px; color: red;'><strong>Incorrect!</strong></p><p style='font-size: 30px;'><strong>This rock is pegmatite</strong></p>",0,corr_feedback,1,train,1,,,,,,,,
,,,,,,,,,,,html-button-response,107,2.0.0,171477,6634f3747fee7324a31a6aaa,2,,1880,,,,,,,,,"<img src= ""rock_img/I_Gabbro_05.jpg"" style=""width:8cm; height:6cm;""><p>What type of rock is this?</p>",3,class_response,1,train,2,Gabbro,Gabbro,5,TRUE,4,4,,
,,,,,,,,,,,html-button-response,108,2.0.0,174145,6634f3747fee7324a31a6aaa,2,,2667,,,,,,,,,"<img src= rock_img/I_Gabbro_05.jpg style=""width:8cm; height:6cm;""><p style='font-size: 30px; color: green;'><strong>Correct!</strong></p><p style='font-size: 30px;'><strong>This rock is gabbro</strong></p>",0,corr_feedback,1,train,2,,,,,,,,
,,,,,,,,,,,html-button-response,109,2.0.0,175928,6634f3747fee7324a31a6aaa,2,,1781,,,,,,,,,"<img src= ""rock_img/I_Andesite_09.jpg"" style=""width:8cm; height:6cm;""><p>What type of rock is this?</p>",2,class_response,1,train,3,Diorite,Andesite,9,FALSE,3,1,,
,,,,,,,,,,,html-button-response,110,2.0.0,177245,6634f3747fee7324a31a6aaa,2,,1314,,,,,,,,,"<img src= rock_img/I_Andesite_09.jpg style=""width:8cm; height:6cm;""><p style='font-size: 30px; color: red;'><strong>Incorrect!</strong></p><p style='font-size: 30px;'><strong>This rock is andesite</strong></p>",0,corr_feedback,1,train,3,,,,,,,,
,,,,,,,,,,,html-button-response,111,2.0.0,178978,6634f3747fee7324a31a6aaa,2,,1731,,,,,,,,,"<img src= ""rock_img/I_Peridotite_08.jpg"" style=""width:8cm; height:6.7cm;""><p>What type of rock is this?</p>",5,class_response,1,train,4,Pegmatite,Peridotite,8,FALSE,6,7,,
,,,,,,,,,,,html-button-response,112,2.0.0,179945,6634f3747fee7324a31a6aaa,2,,965,,,,,,,,,"<img src= rock_img/I_Peridotite_08.jpg style=""width:8cm; height:6.7cm;""><p style='font-size: 30px; color: red;'><strong>Incorrect!</strong></p><p style='font-size: 30px;'><strong>This rock is peridotite</strong></p>",0,corr_feedback,1,train,4,,,,,,,,
,,,,,,,,,,,html-button-response,113,2.0.0,189178,6634f3747fee7324a31a6aaa,2,,9231,,,,,,,,,"<img src= ""rock_img/I_Basalt_16.jpg"" style=""width:8cm; height:7.659999999999999cm;""><p>What type of rock is this?</p>",1,class_response,1,train,5,Basalt,Basalt,16,TRUE,2,2,,
,,,,,,,,,,,html-button-response,114,2.0.0,190178,6634f3747fee7324a31a6aaa,2,,998,,,,,,,,,"<img src= rock_img/I_Basalt_16.jpg style=""width:8cm; height:7.659999999999999cm;""><p style='font-size: 30px; color: green;'><strong>Correct!</strong></p><p style='font-size: 30px;'><strong>This rock is basalt</strong></p>",0,corr_feedback,1,train,5,,,,,,,,
,,,,,,,,,,,html-button-response,115,2.0.0,191495,6634f3747fee7324a31a6aaa,2,,1315,,,,,,,,,"<img src= ""rock_img/I_Obsidian_12.jpg"" style=""width:8cm; height:6.53cm;""><p>What type of rock is this?</p>",6,class_response,1,train,6,Peridotite,Obsidian,12,FALSE,7,5,,
,,,,,,,,,,,html-button-response,116,2.0.0,192445,6634f3747fee7324a31a6aaa,2,,947,,,,,,,,,"<img src= rock_img/I_Obsidian_12.jpg style=""width:8cm; height:6.53cm;""><p style='font-size: 30px; color: red;'><strong>Incorrect!</strong></p><p style='font-size: 30px;'><strong>This rock is obsidian</strong></p>",0,corr_feedback,1,train,6,,,,,,,,
,,,,,,,,,,,html-button-response,117,2.0.0,193095,6634f3747fee7324a31a6aaa,2,,649,,,,,,,,,"<img src= ""rock_img/I_Peridotite_05.jpg"" style=""width:8cm; height:7.1499999999999995cm;""><p>What type of rock is this?</p>",2,class_response,1,train,7,Diorite,Peridotite,5,FALSE,3,7,,
,,,,,,,,,,,html-button-response,118,2.0.0,193929,6634f3747fee7324a31a6aaa,2,,832,,,,,,,,,"<img src= rock_img/I_Peridotite_05.jpg style=""width:8cm; height:7.1499999999999995cm;""><p style='font-size: 30px; color: red;'><strong>Incorrect!</strong></p><p style='font-size: 30px;'><strong>This rock is peridotite</strong></p>",0,corr_feedback,1,train,7,,,,,,,,
,,,,,,,,,,,html-button-response,119,2.0.0,195061,6634f3747fee7324a31a6aaa,2,,1130,,,,,,,,,"<img src= ""rock_img/I_Andesite_06.jpg"" style=""width:8cm; height:6.840000000000001cm;""><p>What type of rock is this?</p>",5,class_response,1,train,8,Pegmatite,Andesite,6,FALSE,6,1,,
,,,,,,,,,,,html-button-response,120,2.0.0,196128,6634f3747fee7324a31a6aaa,2,,1065,,,,,,,,,"<img src= rock_img/I_Andesite_06.jpg style=""width:8cm; height:6.840000000000001cm;""><p style='font-size: 30px; color: red;'><strong>Incorrect!</strong></p><p style='font-size: 30px;'><strong>This rock is andesite</strong></p>",0,corr_feedback,1,train,8,,,,,,,,
,,,,,,,,,,,html-button-response,121,2.0.0,196729,6634f3747fee7324a31a6aaa,2,,598,,,,,,,,,"<img src= ""rock_img/I_Pegmatite_08.jpg"" style=""width:8cm; height:7.68cm;""><p>What type of rock is this?</p>",0,class_response,1,train,9,Andesite,Pegmatite,8,FALSE,1,6,,
,,,,,,,,,,,html-button-response,122,2.0.0,197861,6634f3747fee7324a31a6aaa,2,,1130,,,,,,,,,"<img src= rock_img/I_Pegmatite_08.jpg style=""width:8cm; height:7.68cm;""><p style='font-size: 30px; color: red;'><strong>Incorrect!</strong></p><p style='font-size: 30px;'><strong>This rock is pegmatite</strong></p>",0,corr_feedback,1,train,9,,,,,,,,
,,,,,,,,,,,html-button-response,123,2.0.0,198911,6634f3747fee7324a31a6aaa,2,,1047,,,,,,,,,"<img src= ""rock_img/I_Basalt_16.jpg"" style=""width:8cm; height:7.659999999999999cm;""><p>What type of rock is this?</p>",2,class_response,1,train,10,Diorite,Basalt,16,FALSE,3,2,,
,,,,,,,,,,,html-button-response,124,2.0.0,199729,6634f3747fee7324a31a6aaa,2,,815,,,,,,,,,"<img src= rock_img/I_Basalt_16.jpg style=""width:8cm; height:7.659999999999999cm;""><p style='font-size: 30px; color: red;'><strong>Incorrect!</strong></p><p style='font-size: 30px;'><strong>This rock is basalt</strong></p>",0,corr_feedback,1,train,10,,,,,,,,
,,,,,,,,,,,html-button-response,125,2.0.0,200411,6634f3747fee7324a31a6aaa,2,,680,,,,,,,,,"<img src= ""rock_img/I_Obsidian_10.jpg"" style=""width:8cm; height:6.260000000000001cm;""><p>What type of rock is this?</p>",1,class_response,1,train,11,Basalt,Obsidian,10,FALSE,2,5,,
,,,,,,,,,,,html-button-response,126,2.0.0,201395,6634f3747fee7324a31a6aaa,2,,982,,,,,,,,,"<img src= rock_img/I_Obsidian_10.jpg style=""width:8cm; height:6.260000000000001cm;""><p style='font-size: 30px; color: red;'><strong>Incorrect!</strong></p><p style='font-size: 30px;'><strong>This rock is obsidian</strong></p>",0,corr_feedback,1,train,11,,,,,,,,
,,,,,,,,,,,html-button-response,127,2.0.0,203145,6634f3747fee7324a31a6aaa,2,,1747,,,,,,,,,"<img src= ""rock_img/I_Pumice_10.jpg"" style=""width:8cm; height:7.609999999999999cm;""><p>What type of rock is this?</p>",7,class_response,1,train,12,Pumice,Pumice,10,TRUE,8,8,,
,,,,,,,,,,,html-button-response,128,2.0.0,203962,6634f3747fee7324a31a6aaa,2,,814,,,,,,,,,"<img src= rock_img/I_Pumice_10.jpg style=""width:8cm; height:7.609999999999999cm;""><p style='font-size: 30px; color: green;'><strong>Correct!</strong></p><p style='font-size: 30px;'><strong>This rock is pumice</strong></p>",0,corr_feedback,1,train,12,,,,,,,,
,,,,,,,,,,,html-button-response,129,2.0.0,205411,6634f3747fee7324a31a6aaa,2,,1447,,,,,,,,,"<img src= ""rock_img/I_Gabbro_15.jpg"" style=""width:8cm; height:6.29cm;""><p>What type of rock is this?</p>",3,class_response,1,train,13,Gabbro,Gabbro,15,TRUE,4,4,,
,,,,,,,,,,,html-button-response,130,2.0.0,206495,6634f3747fee7324a31a6aaa,2,,1082,,,,,,,,,"<img src= rock_img/I_Gabbro_15.jpg style=""width:8cm; height:6.29cm;""><p style='font-size: 30px; color: green;'><strong>Correct!</strong></p><p style='font-size: 30px;'><strong>This rock is gabbro</strong></p>",0,corr_feedback,1,train,13,,,,,,,,
,,,,,,,,,,,html-button-response,131,2.0.0,208763,6634f3747fee7324a31a6aaa,2,,2265,,,,,,,,,"<img src= ""rock_img/I_Basalt_12.jpg"" style=""width:8cm; height:6.010000000000001cm;""><p>What type of rock is this?</p>",7,class_response,1,train,14,Pumice,Basalt,12,FALSE,8,2,,
,,,,,,,,,,,html-button-response,132,2.0.0,209661,6634f3747fee7324a31a6aaa,2,,897,,,,,,,,,"<img src= rock_img/I_Basalt_12.jpg style=""width:8cm; height:6.010000000000001cm;""><p style='font-size: 30px; color: red;'><strong>Incorrect!</strong></p><p style='font-size: 30px;'><strong>This rock is basalt</strong></p>",0,corr_feedback,1,train,14,,,,,,,,
,,,,,,,,,,,html-button-response,133,2.0.0,211146,6634f3747fee7324a31a6aaa,2,,1482,,,,,,,,,"<img src= ""rock_img/I_Diorite_10.jpg"" style=""width:8cm; height:5.949999999999999cm;""><p>What type of rock is this?</p>",0,class_response,1,train,15,Andesite,Diorite,10,FALSE,1,3,,
,,,,,,,,,,,html-button-response,134,2.0.0,212394,6634f3747fee7324a31a6aaa,2,,1247,,,,,,,,,"<img src= rock_img/I_Diorite_10.jpg style=""width:8cm; height:5.949999999999999cm;""><p style='font-size: 30px; color: red;'><strong>Incorrect!</strong></p><p style='font-size: 30px;'><strong>This rock is diorite</strong></p>",0,corr_feedback,1,train,15,,,,,,,,
,,,,,,,,,,,html-button-response,135,2.0.0,213295,6634f3747fee7324a31a6aaa,2,,898,,,,,,,,,"<img src= ""rock_img/I_Diorite_12.jpg"" style=""width:8cm; height:4.88cm;""><p>What type of rock is this?</p>",2,class_response,1,train,16,Diorite,Diorite,12,TRUE,3,3,,
,,,,,,,,,,,html-button-response,136,2.0.0,214262,6634f3747fee7324a31a6aaa,2,,964,,,,,,,,,"<img src= rock_img/I_Diorite_12.jpg style=""width:8cm; height:4.88cm;""><p style='font-size: 30px; color: green;'><strong>Correct!</strong></p><p style='font-size: 30px;'><strong>This rock is diorite</strong></p>",0,corr_feedback,1,train,16,,,,,,,,
,,,,,,,,,,,html-button-response,137,2.0.0,215162,6634f3747fee7324a31a6aaa,2,,897,,,,,,,,,"<img src= ""rock_img/I_Gabbro_09.jpg"" style=""width:8cm; height:7.279999999999999cm;""><p>What type of rock is this?</p>",5,class_response,1,train,17,Pegmatite,Gabbro,9,FALSE,6,4,,
,,,,,,,,,,,html-button-response,138,2.0.0,216079,6634f3747fee7324a31a6aaa,2,,915,,,,,,,,,"<img src= rock_img/I_Gabbro_09.jpg style=""width:8cm; height:7.279999999999999cm;""><p style='font-size: 30px; color: red;'><strong>Incorrect!</strong></p><p style='font-size: 30px;'><strong>This rock is gabbro</strong></p>",0,corr_feedback,1,train,17,,,,,,,,
,,,,,,,,,,,html-button-response,139,2.0.0,217928,6634f3747fee7324a31a6aaa,2,,1847,,,,,,,,,"<img src= ""rock_img/I_Pumice_02.jpg"" style=""width:8cm; height:7.3999999999999995cm;""><p>What type of rock is this?</p>",7,class_response,1,train,18,Pumice,Pumice,2,TRUE,8,8,,
,,,,,,,,,,,html-button-response,140,2.0.0,218844,6634f3747fee7324a31a6aaa,2,,914,,,,,,,,,"<img src= rock_img/I_Pumice_02.jpg style=""width:8cm; height:7.3999999999999995cm;""><p style='font-size: 30px; color: green;'><strong>Correct!</strong></p><p style='font-size: 30px;'><strong>This rock is pumice</strong></p>",0,corr_feedback,1,train,18,,,,,,,,
,,,,,,,,,,,html-button-response,141,2.0.0,227011,6634f3747fee7324a31a6aaa,2,,8165,,,,,,,,,"<img src= ""rock_img/I_Basalt_10.jpg"" style=""width:8cm; height:5.85cm;""><p>What type of rock is this?</p>",4,class_response,1,train,19,Obsidian,Basalt,10,FALSE,5,2,,
,,,,,,,,,,,html-button-response,142,2.0.0,227878,6634f3747fee7324a31a6aaa,2,,865,,,,,,,,,"<img src= rock_img/I_Basalt_10.jpg style=""width:8cm; height:5.85cm;""><p style='font-size: 30px; color: red;'><strong>Incorrect!</strong></p><p style='font-size: 30px;'><strong>This rock is basalt</strong></p>",0,corr_feedback,1,train,19,,,,,,,,
,,,,,,,,,,,html-button-response,143,2.0.0,235911,6634f3747fee7324a31a6aaa,2,,8031,,,,,,,,,"<img src= ""rock_img/I_Diorite_07.jpg"" style=""width:8cm; height:5.239999999999999cm;""><p>What type of rock is this?</p>",4,class_response,1,train,20,Obsidian,Diorite,7,FALSE,5,3,,
,,,,,,,,,,,html-button-response,144,2.0.0,236861,6634f3747fee7324a31a6aaa,2,,949,,,,,,,,,"<img src= rock_img/I_Diorite_07.jpg style=""width:8cm; height:5.239999999999999cm;""><p style='font-size: 30px; color: red;'><strong>Incorrect!</strong></p><p style='font-size: 30px;'><strong>This rock is diorite</strong></p>",0,corr_feedback,1,train,20,,,,,,,,
,,,,,,,,,,,html-button-response,145,2.0.0,238128,6634f3747fee7324a31a6aaa,2,,1264,,,,,,,,,"<img src= ""rock_img/I_Diorite_09.jpg"" style=""width:8cm; height:5.27cm;""><p>What type of rock is this?</p>",2,class_response,1,train,21,Diorite,Diorite,9,TRUE,3,3,,
,,,,,,,,,,,html-button-response,146,2.0.0,239012,6634f3747fee7324a31a6aaa,2,,882,,,,,,,,,"<img src= rock_img/I_Diorite_09.jpg style=""width:8cm; height:5.27cm;""><p style='font-size: 30px; color: green;'><strong>Correct!</strong></p><p style='font-size: 30px;'><strong>This rock is diorite</strong></p>",0,corr_feedback,1,train,21,,,,,,,,
,,,,,,,,,,,html-button-response,147,2.0.0,241078,6634f3747fee7324a31a6aaa,2,,2064,,,,,,,,,"<img src= ""rock_img/I_Basalt_09.jpg"" style=""width:8cm; height:6.2cm;""><p>What type of rock is this?</p>",0,class_response,1,train,22,Andesite,Basalt,9,FALSE,1,2,,
,,,,,,,,,,,html-button-response,148,2.0.0,242361,6634f3747fee7324a31a6aaa,2,,1281,,,,,,,,,"<img src= rock_img/I_Basalt_09.jpg style=""width:8cm; height:6.2cm;""><p style='font-size: 30px; color: red;'><strong>Incorrect!</strong></p><p style='font-size: 30px;'><strong>This rock is basalt</strong></p>",0,corr_feedback,1,train,22,,,,,,,,
,,,,,,,,,,,html-button-response,149,2.0.0,243778,6634f3747fee7324a31a6aaa,2,,1414,,,,,,,,,"<img src= ""rock_img/I_Pegmatite_15.jpg"" style=""width:8cm; height:6cm;""><p>What type of rock is this?</p>",6,class_response,1,train,23,Peridotite,Pegmatite,15,FALSE,7,6,,
,,,,,,,,,,,html-button-response,150,2.0.0,244645,6634f3747fee7324a31a6aaa,2,,865,,,,,,,,,"<img src= rock_img/I_Pegmatite_15.jpg style=""width:8cm; height:6cm;""><p style='font-size: 30px; color: red;'><strong>Incorrect!</strong></p><p style='font-size: 30px;'><strong>This rock is pegmatite</strong></p>",0,corr_feedback,1,train,23,,,,,,,,
,,,,,,,,,,,html-button-response,151,2.0.0,246528,6634f3747fee7324a31a6aaa,2,,1881,,,,,,,,,"<img src= ""rock_img/I_Pegmatite_12.jpg"" style=""width:8cm; height:5.7cm;""><p>What type of rock is this?</p>",5,class_response,1,train,24,Pegmatite,Pegmatite,12,TRUE,6,6,,
,,,,,,,,,,,html-button-response,152,2.0.0,247528,6634f3747fee7324a31a6aaa,2,,998,,,,,,,,,"<img src= rock_img/I_Pegmatite_12.jpg style=""width:8cm; height:5.7cm;""><p style='font-size: 30px; color: green;'><strong>Correct!</strong></p><p style='font-size: 30px;'><strong>This rock is pegmatite</strong></p>",0,corr_feedback,1,train,24,,,,,,,,
,,,,,,,,,,,html-button-response,153,2.0.0,250862,6634f3747fee7324a31a6aaa,2,,3331,,,,,,,,,"<img src= ""rock_img/I_Gabbro_15.jpg"" style=""width:8cm; height:6.29cm;""><p>What type of rock is this?</p>",3,class_response,1,train,25,Gabbro,Gabbro,15,TRUE,4,4,,
,,,,,,,,,,,html-button-response,154,2.0.0,251728,6634f3747fee7324a31a6aaa,2,,863,,,,,,,,,"<img src= rock_img/I_Gabbro_15.jpg style=""width:8cm; height:6.29cm;""><p style='font-size: 30px; color: green;'><strong>Correct!</strong></p><p style='font-size: 30px;'><strong>This rock is gabbro</strong></p>",0,corr_feedback,1,train,25,,,,,,,,
,,,,,,,,,,,html-button-response,155,2.0.0,252896,6634f3747fee7324a31a6aaa,2,,1165,,,,,,,,,"<img src= ""rock_img/I_Obsidian_04.jpg"" style=""width:8cm; height:6.930000000000001cm;""><p>What type of rock is this?</p>",6,class_response,1,train,26,Peridotite,Obsidian,4,FALSE,7,5,,
,,,,,,,,,,,html-button-response,156,2.0.0,253645,6634f3747fee7324a31a6aaa,2,,747,,,,,,,,,"<img src= rock_img/I_Obsidian_04.jpg style=""width:8cm; height:6.930000000000001cm;""><p style='font-size: 30px; color: red;'><strong>Incorrect!</strong></p><p style='font-size: 30px;'><strong>This rock is obsidian</strong></p>",0,corr_feedback,1,train,26,,,,,,,,
,,,,,,,,,,,html-button-response,157,2.0.0,256295,6634f3747fee7324a31a6aaa,2,,2647,,,,,,,,,"<img src= ""rock_img/I_Pumice_16.jpg"" style=""width:8cm; height:6.79cm;""><p>What type of rock is this?</p>",7,class_response,1,train,27,Pumice,Pumice,16,TRUE,8,8,,
,,,,,,,,,,,html-button-response,158,2.0.0,257195,6634f3747fee7324a31a6aaa,2,,897,,,,,,,,,"<img src= rock_img/I_Pumice_16.jpg style=""width:8cm; height:6.79cm;""><p style='font-size: 30px; color: green;'><strong>Correct!</strong></p><p style='font-size: 30px;'><strong>This rock is pumice</strong></p>",0,corr_feedback,1,train,27,,,,,,,,
,,,,,,,,,,,html-button-response,159,2.0.0,258678,6634f3747fee7324a31a6aaa,2,,1481,,,,,,,,,"<img src= ""rock_img/I_Pegmatite_09.jpg"" style=""width:8cm; height:4.03cm;""><p>What type of rock is this?</p>",0,class_response,1,train,28,Andesite,Pegmatite,9,FALSE,1,6,,
,,,,,,,,,,,html-button-response,160,2.0.0,260011,6634f3747fee7324a31a6aaa,2,,1330,,,,,,,,,"<img src= rock_img/I_Pegmatite_09.jpg style=""width:8cm; height:4.03cm;""><p style='font-size: 30px; color: red;'><strong>Incorrect!</strong></p><p style='font-size: 30px;'><strong>This rock is pegmatite</strong></p>",0,corr_feedback,1,train,28,,,,,,,,
,,,,,,,,,,,html-button-response,161,2.0.0,261961,6634f3747fee7324a31a6aaa,2,,1948,,,,,,,,,"<img src= ""rock_img/I_Peridotite_06.jpg"" style=""width:8cm; height:7.53cm;""><p>What type of rock is this?</p>",5,class_response,1,train,29,Pegmatite,Peridotite,6,FALSE,6,7,,
,,,,,,,,,,,html-button-response,162,2.0.0,262812,6634f3747fee7324a31a6aaa,2,,848,,,,,,,,,"<img src= rock_img/I_Peridotite_06.jpg style=""width:8cm; height:7.53cm;""><p style='font-size: 30px; color: red;'><strong>Incorrect!</strong></p><p style='font-size: 30px;'><strong>This rock is peridotite</strong></p>",0,corr_feedback,1,train,29,,,,,,,,
,,,,,,,,,,,html-button-response,163,2.0.0,264745,6634f3747fee7324a31a6aaa,2,,1930,,,,,,,,,"<img src= ""rock_img/I_Basalt_08.jpg"" style=""width:8cm; height:10.44cm;""><p>What type of rock is this?</p>",1,class_response,1,train,30,Basalt,Basalt,8,TRUE,2,2,,
,,,,,,,,,,,html-button-response,164,2.0.0,265629,6634f3747fee7324a31a6aaa,2,,882,,,,,,,,,"<img src= rock_img/I_Basalt_08.jpg style=""width:8cm; height:10.44cm;""><p style='font-size: 30px; color: green;'><strong>Correct!</strong></p><p style='font-size: 30px;'><strong>This rock is basalt</strong></p>",0,corr_feedback,1,train,30,,,,,,,,
,,,,,,,,,,,html-button-response,165,2.0.0,266694,6634f3747fee7324a31a6aaa,2,,1064,,,,,,,,,"<img src= ""rock_img/I_Basalt_06.jpg"" style=""width:8cm; height:7.06cm;""><p>What type of rock is this?</p>",1,class_response,1,train,31,Basalt,Basalt,6,TRUE,2,2,,
,,,,,,,,,,,html-button-response,166,2.0.0,267578,6634f3747fee7324a31a6aaa,2,,881,,,,,,,,,"<img src= rock_img/I_Basalt_06.jpg style=""width:8cm; height:7.06cm;""><p style='font-size: 30px; color: green;'><strong>Correct!</strong></p><p style='font-size: 30px;'><strong>This rock is basalt</strong></p>",0,corr_feedback,1,train,31,,,,,,,,
,,,,,,,,,,,html-button-response,167,2.0.0,270162,6634f3747fee7324a31a6aaa,2,,2582,,,,,,,,,"<img src= ""rock_img/I_Andesite_02.jpg"" style=""width:8cm; height:8.5cm;""><p>What type of rock is this?</p>",5,class_response,1,train,32,Pegmatite,Andesite,2,FALSE,6,1,,
,,,,,,,,,,,html-button-response,168,2.0.0,271028,6634f3747fee7324a31a6aaa,2,,864,,,,,,,,,"<img src= rock_img/I_Andesite_02.jpg style=""width:8cm; height:8.5cm;""><p style='font-size: 30px; color: red;'><strong>Incorrect!</strong></p><p style='font-size: 30px;'><strong>This rock is andesite</strong></p>",0,corr_feedback,1,train,32,,,,,,,,
,,,,,,,,,,,html-button-response,169,2.0.0,273578,6634f3747fee7324a31a6aaa,2,,2548,,,,,,,,,"<img src= ""rock_img/I_Andesite_02.jpg"" style=""width:8cm; height:8.5cm;""><p>What type of rock is this?</p>",5,class_response,1,train,33,Pegmatite,Andesite,2,FALSE,6,1,,
,,,,,,,,,,,html-button-response,170,2.0.0,274445,6634f3747fee7324a31a6aaa,2,,865,,,,,,,,,"<img src= rock_img/I_Andesite_02.jpg style=""width:8cm; height:8.5cm;""><p style='font-size: 30px; color: red;'><strong>Incorrect!</strong></p><p style='font-size: 30px;'><strong>This rock is andesite</strong></p>",0,corr_feedback,1,train,33,,,,,,,,
,,,,,,,,,,,html-button-response,171,2.0.0,276697,6634f3747fee7324a31a6aaa,2,,2250,,,,,,,,,"<img src= ""rock_img/I_Peridotite_07.jpg"" style=""width:8cm; height:4.83cm;""><p>What type of rock is this?</p>",7,class_response,1,train,34,Pumice,Peridotite,7,FALSE,8,7,,
,,,,,,,,,,,html-button-response,172,2.0.0,277911,6634f3747fee7324a31a6aaa,2,,1212,,,,,,,,,"<img src= rock_img/I_Peridotite_07.jpg style=""width:8cm; height:4.83cm;""><p style='font-size: 30px; color: red;'><strong>Incorrect!</strong></p><p style='font-size: 30px;'><strong>This rock is peridotite</strong></p>",0,corr_feedback,1,train,34,,,,,,,,
,,,,,,,,,,,html-button-response,173,2.0.0,280111,6634f3747fee7324a31a6aaa,2,,2197,,,,,,,,,"<img src= ""rock_img/I_Obsidian_08.jpg"" style=""width:8cm; height:7.39cm;""><p>What type of rock is this?</p>",4,class_response,1,train,35,Obsidian,Obsidian,8,TRUE,5,5,,
,,,,,,,,,,,html-button-response,174,2.0.0,281029,6634f3747fee7324a31a6aaa,2,,916,,,,,,,,,"<img src= rock_img/I_Obsidian_08.jpg style=""width:8cm; height:7.39cm;""><p style='font-size: 30px; color: green;'><strong>Correct!</strong></p><p style='font-size: 30px;'><strong>This rock is obsidian</strong></p>",0,corr_feedback,1,train,35,,,,,,,,
,,,,,,,,,,,html-button-response,175,2.0.0,282697,6634f3747fee7324a31a6aaa,2,,1665,,,,,,,,,"<img src= ""rock_img/I_Pumice_05.jpg"" style=""width:8cm; height:7.25cm;""><p>What type of rock is this?</p>",7,class_response,1,train,36,Pumice,Pumice,5,TRUE,8,8,,
,,,,,,,,,,,html-button-response,176,2.0.0,283462,6634f3747fee7324a31a6aaa,2,,763,,,,,,,,,"<img src= rock_img/I_Pumice_05.jpg style=""width:8cm; height:7.25cm;""><p style='font-size: 30px; color: green;'><strong>Correct!</strong></p><p style='font-size: 30px;'><strong>This rock is pumice</strong></p>",0,corr_feedback,1,train,36,,,,,,,,
,,,,,,,,,,,html-button-response,177,2.0.0,286028,6634f3747fee7324a31a6aaa,2,,2564,,,,,,,,,"<img src= ""rock_img/I_Gabbro_10.jpg"" style=""width:8cm; height:5.680000000000001cm;""><p>What type of rock is this?</p>",3,class_response,1,train,37,Gabbro,Gabbro,10,TRUE,4,4,,
,,,,,,,,,,,html-button-response,178,2.0.0,286929,6634f3747fee7324a31a6aaa,2,,899,,,,,,,,,"<img src= rock_img/I_Gabbro_10.jpg style=""width:8cm; height:5.680000000000001cm;""><p style='font-size: 30px; color: green;'><strong>Correct!</strong></p><p style='font-size: 30px;'><strong>This rock is gabbro</strong></p>",0,corr_feedback,1,train,37,,,,,,,,
,,,,,,,,,,,html-button-response,179,2.0.0,288495,6634f3747fee7324a31a6aaa,2,,1564,,,,,,,,,"<img src= ""rock_img/I_Diorite_08.jpg"" style=""width:8cm; height:6.37cm;""><p>What type of rock is this?</p>",0,class_response,1,train,38,Andesite,Diorite,8,FALSE,1,3,,
,,,,,,,,,,,html-button-response,180,2.0.0,289444,6634f3747fee7324a31a6aaa,2,,948,,,,,,,,,"<img src= rock_img/I_Diorite_08.jpg style=""width:8cm; height:6.37cm;""><p style='font-size: 30px; color: red;'><strong>Incorrect!</strong></p><p style='font-size: 30px;'><strong>This rock is diorite</strong></p>",0,corr_feedback,1,train,38,,,,,,,,
,,,,,,,,,,,html-button-response,181,2.0.0,293245,6634f3747fee7324a31a6aaa,2,,3798,,,,,,,,,"<img src= ""rock_img/I_Andesite_11.jpg"" style=""width:8cm; height:4.92cm;""><p>What type of rock is this?</p>",4,class_response,1,train,39,Obsidian,Andesite,11,FALSE,5,1,,
,,,,,,,,,,,html-button-response,182,2.0.0,294045,6634f3747fee7324a31a6aaa,2,,798,,,,,,,,,"<img src= rock_img/I_Andesite_11.jpg style=""width:8cm; height:4.92cm;""><p style='font-size: 30px; color: red;'><strong>Incorrect!</strong></p><p style='font-size: 30px;'><strong>This rock is andesite</strong></p>",0,corr_feedback,1,train,39,,,,,,,,
,,,,,,,,,,,html-button-response,183,2.0.0,294878,6634f3747fee7324a31a6aaa,2,,831,,,,,,,,,"<img src= ""rock_img/I_Peridotite_15.jpg"" style=""width:8cm; height:6cm;""><p>What type of rock is this?</p>",2,class_response,1,train,40,Diorite,Peridotite,15,FALSE,3,7,,
,,,,,,,,,,,html-button-response,184,2.0.0,295528,6634f3747fee7324a31a6aaa,2,,648,,,,,,,,,"<img src= rock_img/I_Peridotite_15.jpg style=""width:8cm; height:6cm;""><p style='font-size: 30px; color: red;'><strong>Incorrect!</strong></p><p style='font-size: 30px;'><strong>This rock is peridotite</strong></p>",0,corr_feedback,1,train,40,,,,,,,,
,,,,,,,,,,,html-button-response,185,2.0.0,296161,6634f3747fee7324a31a6aaa,2,,631,,,,,,,,,"<img src= ""rock_img/I_Gabbro_11.jpg"" style=""width:8cm; height:6.2cm;""><p>What type of rock is this?</p>",1,class_response,1,train,41,Basalt,Gabbro,11,FALSE,2,4,,
,,,,,,,,,,,html-button-response,186,2.0.0,296709,6634f3747fee7324a31a6aaa,2,,546,,,,,,,,,"<img src= rock_img/I_Gabbro_11.jpg style=""width:8cm; height:6.2cm;""><p style='font-size: 30px; color: red;'><strong>Incorrect!</strong></p><p style='font-size: 30px;'><strong>This rock is gabbro</strong></p>",0,corr_feedback,1,train,41,,,,,,,,
,,,,,,,,,,,html-button-response,187,2.0.0,298162,6634f3747fee7324a31a6aaa,2,,1451,,,,,,,,,"<img src= ""rock_img/I_Andesite_14.jpg"" style=""width:8cm; height:5.449999999999999cm;""><p>What type of rock is this?</p>",6,class_response,1,train,42,Peridotite,Andesite,14,FALSE,7,1,,
,,,,,,,,,,,html-button-response,188,2.0.0,298978,6634f3747fee7324a31a6aaa,2,,813,,,,,,,,,"<img src= rock_img/I_Andesite_14.jpg style=""width:8cm; height:5.449999999999999cm;""><p style='font-size: 30px; color: red;'><strong>Incorrect!</strong></p><p style='font-size: 30px;'><strong>This rock is andesite</strong></p>",0,corr_feedback,1,train,42,,,,,,,,
,,,,,,,,,,,html-button-response,189,2.0.0,299662,6634f3747fee7324a31a6aaa,2,,682,,,,,,,,,"<img src= ""rock_img/I_Pumice_13.jpg"" style=""width:8cm; height:8.200000000000001cm;""><p>What type of rock is this?</p>",3,class_response,1,train,43,Gabbro,Pumice,13,FALSE,4,8,,
,,,,,,,,,,,html-button-response,190,2.0.0,300345,6634f3747fee7324a31a6aaa,2,,681,,,,,,,,,"<img src= rock_img/I_Pumice_13.jpg style=""width:8cm; height:8.200000000000001cm;""><p style='font-size: 30px; color: red;'><strong>Incorrect!</strong></p><p style='font-size: 30px;'><strong>This rock is pumice</strong></p>",0,corr_feedback,1,train,43,,,,,,,,
,,,,,,,,,,,html-button-response,191,2.0.0,300877,6634f3747fee7324a31a6aaa,2,,530,,,,,,,,,"<img src= ""rock_img/I_Obsidian_02.jpg"" style=""width:8cm; height:7.51cm;""><p>What type of rock is this?</p>",2,class_response,1,train,44,Diorite,Obsidian,2,FALSE,3,5,,
,,,,,,,,,,,html-button-response,192,2.0.0,301595,6634f3747fee7324a31a6aaa,2,,715,,,,,,,,,"<img src= rock_img/I_Obsidian_02.jpg style=""width:8cm; height:7.51cm;""><p style='font-size: 30px; color: red;'><strong>Incorrect!</strong></p><p style='font-size: 30px;'><strong>This rock is obsidian</strong></p>",0,corr_feedback,1,train,44,,,,,,,,
,,,,,,,,,,,html-button-response,193,2.0.0,302146,6634f3747fee7324a31a6aaa,2,,549,,,,,,,,,"<img src= ""rock_img/I_Andesite_03.jpg"" style=""width:8cm; height:5.73cm;""><p>What type of rock is this?</p>",5,class_response,1,train,45,Pegmatite,Andesite,3,FALSE,6,1,,
,,,,,,,,,,,html-button-response,194,2.0.0,303011,6634f3747fee7324a31a6aaa,2,,863,,,,,,,,,"<img src= rock_img/I_Andesite_03.jpg style=""width:8cm; height:5.73cm;""><p style='font-size: 30px; color: red;'><strong>Incorrect!</strong></p><p style='font-size: 30px;'><strong>This rock is andesite</strong></p>",0,corr_feedback,1,train,45,,,,,,,,
,,,,,,,,,,,html-button-response,195,2.0.0,304044,6634f3747fee7324a31a6aaa,2,,1030,,,,,,,,,"<img src= ""rock_img/I_Pegmatite_03.jpg"" style=""width:8cm; height:5.239999999999999cm;""><p>What type of rock is this?</p>",1,class_response,1,train,46,Basalt,Pegmatite,3,FALSE,2,6,,
,,,,,,,,,,,html-button-response,196,2.0.0,304811,6634f3747fee7324a31a6aaa,2,,765,,,,,,,,,"<img src= rock_img/I_Pegmatite_03.jpg style=""width:8cm; height:5.239999999999999cm;""><p style='font-size: 30px; color: red;'><strong>Incorrect!</strong></p><p style='font-size: 30px;'><strong>This rock is pegmatite</strong></p>",0,corr_feedback,1,train,46,,,,,,,,
,,,,,,,,,,,html-button-response,197,2.0.0,305913,6634f3747fee7324a31a6aaa,2,,1098,,,,,,,,,"<img src= ""rock_img/I_Peridotite_02.jpg"" style=""width:8cm; height:5.859999999999999cm;""><p>What type of rock is this?</p>",4,class_response,1,train,47,Obsidian,Peridotite,2,FALSE,5,7,,
,,,,,,,,,,,html-button-response,198,2.0.0,306611,6634f3747fee7324a31a6aaa,2,,696,,,,,,,,,"<img src= rock_img/I_Peridotite_02.jpg style=""width:8cm; height:5.859999999999999cm;""><p style='font-size: 30px; color: red;'><strong>Incorrect!</strong></p><p style='font-size: 30px;'><strong>This rock is peridotite</strong></p>",0,corr_feedback,1,train,47,,,,,,,,
,,,,,,,,,,,html-button-response,199,2.0.0,308327,6634f3747fee7324a31a6aaa,2,,1714,,,,,,,,,"<img src= ""rock_img/I_Gabbro_12.jpg"" style=""width:8cm; height:7.800000000000001cm;""><p>What type of rock is this?</p>",3,class_response,1,train,48,Gabbro,Gabbro,12,TRUE,4,4,,
,,,,,,,,,,,html-button-response,200,2.0.0,309178,6634f3747fee7324a31a6aaa,2,,849,,,,,,,,,"<img src= rock_img/I_Gabbro_12.jpg style=""width:8cm; height:7.800000000000001cm;""><p style='font-size: 30px; color: green;'><strong>Correct!</strong></p><p style='font-size: 30px;'><strong>This rock is gabbro</strong></p>",0,corr_feedback,1,train,48,,,,,,,,
,,,,,,,,,,,instructions,203,2.0.0,346345,6634f3747fee7324a31a6aaa,2,,37166,,,,,,,,"[{""page_index"":0,""viewing_time"":36050},{""page_index"":1,""viewing_time"":1115}]",,,,,,,,,,,,,,
,,,,,,,,,,,html-button-response,204,2.0.0,348044,6634f3747fee7324a31a6aaa,2,,1698,,,,,,,,,,0,start_test,,,,,,,,,,,
,,,,,,,,,,,html-button-response,205,2.0.0,351230,6634f3747fee7324a31a6aaa,2,,3183,,,,,,,,,"<img src= ""rock_img/I_Andesite_16.jpg"" style=""width:8cm; height:6.010000000000001cm;""><p>What type of rock is this?</p>",0,class_response,1,test,1,Andesite,Andesite,16,TRUE,1,1,,
,,,,,,,,,,,html-keyboard-response,206,2.0.0,351733,6634f3747fee7324a31a6aaa,2,,null,,,,,,,,,<p style='font-size: 30px;'><strong>Okay</strong></p>,null,neutral_feedback,1,test,1,,,,,,,,
,,,,,,,,,,,html-button-response,207,2.0.0,355178,6634f3747fee7324a31a6aaa,2,,3443,,,,,,,,,"<img src= ""rock_img/I_Diorite_11.jpg"" style=""width:8cm; height:7.11cm;""><p>What type of rock is this?</p>",2,class_response,1,test,2,Diorite,Diorite,11,TRUE,3,3,,
,,,,,,,,,,,html-keyboard-response,208,2.0.0,355680,6634f3747fee7324a31a6aaa,2,,null,,,,,,,,,<p style='font-size: 30px;'><strong>Okay</strong></p>,null,neutral_feedback,1,test,2,,,,,,,,
,,,,,,,,,,,html-button-response,209,2.0.0,357378,6634f3747fee7324a31a6aaa,2,,1695,,,,,,,,,"<img src= ""rock_img/I_Pegmatite_13.jpg"" style=""width:8cm; height:4.95cm;""><p>What type of rock is this?</p>",5,class_response,1,test,3,Pegmatite,Pegmatite,13,TRUE,6,6,,
,,,,,,,,,,,html-keyboard-response,210,2.0.0,357880,6634f3747fee7324a31a6aaa,2,,null,,,,,,,,,<p style='font-size: 30px;'><strong>Okay</strong></p>,null,neutral_feedback,1,test,3,,,,,,,,
,,,,,,,,,,,html-button-response,211,2.0.0,359028,6634f3747fee7324a31a6aaa,2,,1145,,,,,,,,,"<img src= ""rock_img/I_Diorite_13.jpg"" style=""width:8cm; height:6.29cm;""><p>What type of rock is this?</p>",2,class_response,1,test,4,Diorite,Diorite,13,TRUE,3,3,,
,,,,,,,,,,,html-keyboard-response,212,2.0.0,359530,6634f3747fee7324a31a6aaa,2,,null,,,,,,,,,<p style='font-size: 30px;'><strong>Okay</strong></p>,null,neutral_feedback,1,test,4,,,,,,,,
,,,,,,,,,,,html-button-response,213,2.0.0,361528,6634f3747fee7324a31a6aaa,2,,1995,,,,,,,,,"<img src= ""rock_img/I_Obsidian_07.jpg"" style=""width:8cm; height:4.76cm;""><p>What type of rock is this?</p>",4,class_response,1,test,5,Obsidian,Obsidian,7,TRUE,5,5,,
,,,,,,,,,,,html-keyboard-response,214,2.0.0,362030,6634f3747fee7324a31a6aaa,2,,null,,,,,,,,,<p style='font-size: 30px;'><strong>Okay</strong></p>,null,neutral_feedback,1,test,5,,,,,,,,
,,,,,,,,,,,html-button-response,215,2.0.0,363062,6634f3747fee7324a31a6aaa,2,,1029,,,,,,,,,"<img src= ""rock_img/I_Pegmatite_11.jpg"" style=""width:8cm; height:8.14cm;""><p>What type of rock is this?</p>",4,class_response,1,test,6,Obsidian,Pegmatite,11,FALSE,5,6,,
,,,,,,,,,,,html-keyboard-response,216,2.0.0,363564,6634f3747fee7324a31a6aaa,2,,null,,,,,,,,,<p style='font-size: 30px;'><strong>Okay</strong></p>,null,neutral_feedback,1,test,6,,,,,,,,
,,,,,,,,,,,html-button-response,217,2.0.0,364996,6634f3747fee7324a31a6aaa,2,,1429,,,,,,,,,"<img src= ""rock_img/I_Basalt_05.jpg"" style=""width:8cm; height:8.18cm;""><p>What type of rock is this?</p>",3,class_response,1,test,7,Gabbro,Basalt,5,FALSE,4,2,,
,,,,,,,,,,,html-keyboard-response,218,2.0.0,365498,6634f3747fee7324a31a6aaa,2,,null,,,,,,,,,<p style='font-size: 30px;'><strong>Okay</strong></p>,null,neutral_feedback,1,test,7,,,,,,,,
,,,,,,,,,,,html-button-response,219,2.0.0,367195,6634f3747fee7324a31a6aaa,2,,1694,,,,,,,,,"<img src= ""rock_img/I_Obsidian_05.jpg"" style=""width:8cm; height:6.33cm;""><p>What type of rock is this?</p>",6,class_response,1,test,8,Peridotite,Obsidian,5,FALSE,7,5,,
,,,,,,,,,,,html-keyboard-response,220,2.0.0,367698,6634f3747fee7324a31a6aaa,2,,null,,,,,,,,,<p style='font-size: 30px;'><strong>Okay</strong></p>,null,neutral_feedback,1,test,8,,,,,,,,
,,,,,,,,,,,html-button-response,221,2.0.0,368728,6634f3747fee7324a31a6aaa,2,,1028,,,,,,,,,"<img src= ""rock_img/I_Pumice_15.jpg"" style=""width:8cm; height:7.86cm;""><p>What type of rock is this?</p>",7,class_response,1,test,9,Pumice,Pumice,15,TRUE,8,8,,
,,,,,,,,,,,html-keyboard-response,222,2.0.0,369230,6634f3747fee7324a31a6aaa,2,,null,,,,,,,,,<p style='font-size: 30px;'><strong>Okay</strong></p>,null,neutral_feedback,1,test,9,,,,,,,,
,,,,,,,,,,,html-button-response,223,2.0.0,370677,6634f3747fee7324a31a6aaa,2,,1444,,,,,,,,,"<img src= ""rock_img/I_Obsidian_09.jpg"" style=""width:8cm; height:5cm;""><p>What type of rock is this?</p>",4,class_response,1,test,10,Obsidian,Obsidian,9,TRUE,5,5,,
,,,,,,,,,,,html-keyboard-response,224,2.0.0,371180,6634f3747fee7324a31a6aaa,2,,null,,,,,,,,,<p style='font-size: 30px;'><strong>Okay</strong></p>,null,neutral_feedback,1,test,10,,,,,,,,
,,,,,,,,,,,html-button-response,225,2.0.0,374178,6634f3747fee7324a31a6aaa,2,,2995,,,,,,,,,"<img src= ""rock_img/I_Peridotite_12.jpg"" style=""width:8cm; height:4.54cm;""><p>What type of rock is this?</p>",1,class_response,1,test,11,Basalt,Peridotite,12,FALSE,2,7,,
,,,,,,,,,,,html-keyboard-response,226,2.0.0,374680,6634f3747fee7324a31a6aaa,2,,null,,,,,,,,,<p style='font-size: 30px;'><strong>Okay</strong></p>,null,neutral_feedback,1,test,11,,,,,,,,
,,,,,,,,,,,html-button-response,227,2.0.0,377662,6634f3747fee7324a31a6aaa,2,,2980,,,,,,,,,"<img src= ""rock_img/I_Diorite_14.jpg"" style=""width:8cm; height:5.71cm;""><p>What type of rock is this?</p>",5,class_response,1,test,12,Pegmatite,Diorite,14,FALSE,6,3,,
,,,,,,,,,,,html-keyboard-response,228,2.0.0,378165,6634f3747fee7324a31a6aaa,2,,null,,,,,,,,,<p style='font-size: 30px;'><strong>Okay</strong></p>,null,neutral_feedback,1,test,12,,,,,,,,
,,,,,,,,,,,html-button-response,229,2.0.0,380078,6634f3747fee7324a31a6aaa,2,,1910,,,,,,,,,"<img src= ""rock_img/I_Basalt_11.jpg"" style=""width:8cm; height:5.359999999999999cm;""><p>What type of rock is this?</p>",7,class_response,1,test,13,Pumice,Basalt,11,FALSE,8,2,,
,,,,,,,,,,,html-keyboard-response,230,2.0.0,380580,6634f3747fee7324a31a6aaa,2,,null,,,,,,,,,<p style='font-size: 30px;'><strong>Okay</strong></p>,null,neutral_feedback,1,test,13,,,,,,,,
,,,,,,,,,,,html-button-response,231,2.0.0,382661,6634f3747fee7324a31a6aaa,2,,2078,,,,,,,,,"<img src= ""rock_img/I_Pegmatite_06.jpg"" style=""width:8cm; height:5.17cm;""><p>What type of rock is this?</p>",0,class_response,1,test,14,Andesite,Pegmatite,6,FALSE,1,6,,
,,,,,,,,,,,html-keyboard-response,232,2.0.0,383163,6634f3747fee7324a31a6aaa,2,,null,,,,,,,,,<p style='font-size: 30px;'><strong>Okay</strong></p>,null,neutral_feedback,1,test,14,,,,,,,,
,,,,,,,,,,,html-button-response,233,2.0.0,384545,6634f3747fee7324a31a6aaa,2,,1380,,,,,,,,,"<img src= ""rock_img/I_Pegmatite_10.jpg"" style=""width:8cm; height:4.16cm;""><p>What type of rock is this?</p>",6,class_response,1,test,15,Peridotite,Pegmatite,10,FALSE,7,6,,
,,,,,,,,,,,html-keyboard-response,234,2.0.0,385047,6634f3747fee7324a31a6aaa,2,,null,,,,,,,,,<p style='font-size: 30px;'><strong>Okay</strong></p>,null,neutral_feedback,1,test,15,,,,,,,,
,,,,,,,,,,,html-button-response,235,2.0.0,386428,6634f3747fee7324a31a6aaa,2,,1378,,,,,,,,,"<img src= ""rock_img/I_Peridotite_13.jpg"" style=""width:8cm; height:7.58cm;""><p>What type of rock is this?</p>",3,class_response,1,test,16,Gabbro,Peridotite,13,FALSE,4,7,,
,,,,,,,,,,,html-keyboard-response,236,2.0.0,386930,6634f3747fee7324a31a6aaa,2,,null,,,,,,,,,<p style='font-size: 30px;'><strong>Okay</strong></p>,null,neutral_feedback,1,test,16,,,,,,,,
,,,,,,,,,,,html-button-response,237,2.0.0,388528,6634f3747fee7324a31a6aaa,2,,1595,,,,,,,,,"<img src= ""rock_img/I_Obsidian_11.jpg"" style=""width:8cm; height:6.05cm;""><p>What type of rock is this?</p>",4,class_response,1,test,17,Obsidian,Obsidian,11,TRUE,5,5,,
,,,,,,,,,,,html-keyboard-response,238,2.0.0,389030,6634f3747fee7324a31a6aaa,2,,null,,,,,,,,,<p style='font-size: 30px;'><strong>Okay</strong></p>,null,neutral_feedback,1,test,17,,,,,,,,
,,,,,,,,,,,html-button-response,239,2.0.0,391162,6634f3747fee7324a31a6aaa,2,,2129,,,,,,,,,"<img src= ""rock_img/I_Andesite_07.jpg"" style=""width:8cm; height:5.93cm;""><p>What type of rock is this?</p>",5,class_response,1,test,18,Pegmatite,Andesite,7,FALSE,6,1,,
,,,,,,,,,,,html-keyboard-response,240,2.0.0,391664,6634f3747fee7324a31a6aaa,2,,null,,,,,,,,,<p style='font-size: 30px;'><strong>Okay</strong></p>,null,neutral_feedback,1,test,18,,,,,,,,
,,,,,,,,,,,html-button-response,241,2.0.0,393094,6634f3747fee7324a31a6aaa,2,,1427,,,,,,,,,"<img src= ""rock_img/I_Andesite_04.jpg"" style=""width:8cm; height:5.96cm;""><p>What type of rock is this?</p>",7,class_response,1,test,19,Pumice,Andesite,4,FALSE,8,1,,
,,,,,,,,,,,html-keyboard-response,242,2.0.0,393596,6634f3747fee7324a31a6aaa,2,,null,,,,,,,,,<p style='font-size: 30px;'><strong>Okay</strong></p>,null,neutral_feedback,1,test,19,,,,,,,,
,,,,,,,,,,,html-button-response,243,2.0.0,394711,6634f3747fee7324a31a6aaa,2,,1113,,,,,,,,,"<img src= ""rock_img/I_Pumice_09.jpg"" style=""width:8cm; height:6.44cm;""><p>What type of rock is this?</p>",7,class_response,1,test,20,Pumice,Pumice,9,TRUE,8,8,,
,,,,,,,,,,,html-keyboard-response,244,2.0.0,395213,6634f3747fee7324a31a6aaa,2,,null,,,,,,,,,<p style='font-size: 30px;'><strong>Okay</strong></p>,null,neutral_feedback,1,test,20,,,,,,,,
,,,,,,,,,,,html-button-response,245,2.0.0,396444,6634f3747fee7324a31a6aaa,2,,1228,,,,,,,,,"<img src= ""rock_img/I_Obsidian_06.jpg"" style=""width:8cm; height:6.8cm;""><p>What type of rock is this?</p>",4,class_response,1,test,21,Obsidian,Obsidian,6,TRUE,5,5,,
,,,,,,,,,,,html-keyboard-response,246,2.0.0,396946,6634f3747fee7324a31a6aaa,2,,null,,,,,,,,,<p style='font-size: 30px;'><strong>Okay</strong></p>,null,neutral_feedback,1,test,21,,,,,,,,
,,,,,,,,,,,html-button-response,247,2.0.0,398695,6634f3747fee7324a31a6aaa,2,,1746,,,,,,,,,"<img src= ""rock_img/I_Peridotite_14.jpg"" style=""width:8cm; height:5.3cm;""><p>What type of rock is this?</p>",2,class_response,1,test,22,Diorite,Peridotite,14,FALSE,3,7,,
,,,,,,,,,,,html-keyboard-response,248,2.0.0,399197,6634f3747fee7324a31a6aaa,2,,null,,,,,,,,,<p style='font-size: 30px;'><strong>Okay</strong></p>,null,neutral_feedback,1,test,22,,,,,,,,
,,,,,,,,,,,html-button-response,249,2.0.0,400311,6634f3747fee7324a31a6aaa,2,,1111,,,,,,,,,"<img src= ""rock_img/I_Gabbro_16.jpg"" style=""width:8cm; height:6.44cm;""><p>What type of rock is this?</p>",3,class_response,1,test,23,Gabbro,Gabbro,16,TRUE,4,4,,
,,,,,,,,,,,html-keyboard-response,250,2.0.0,400814,6634f3747fee7324a31a6aaa,2,,null,,,,,,,,,<p style='font-size: 30px;'><strong>Okay</strong></p>,null,neutral_feedback,1,test,23,,,,,,,,
,,,,,,,,,,,html-button-response,251,2.0.0,402262,6634f3747fee7324a31a6aaa,2,,1446,,,,,,,,,"<img src= ""rock_img/I_Peridotite_04.jpg"" style=""width:8cm; height:6.680000000000001cm;""><p>What type of rock is this?</p>",2,class_response,1,test,24,Diorite,Peridotite,4,FALSE,3,7,,
,,,,,,,,,,,html-keyboard-response,252,2.0.0,402765,6634f3747fee7324a31a6aaa,2,,null,,,,,,,,,<p style='font-size: 30px;'><strong>Okay</strong></p>,null,neutral_feedback,1,test,24,,,,,,,,
,,,,,,,,,,,html-button-response,253,2.0.0,404161,6634f3747fee7324a31a6aaa,2,,1394,,,,,,,,,"<img src= ""rock_img/I_Pegmatite_05.jpg"" style=""width:8cm; height:7.300000000000001cm;""><p>What type of rock is this?</p>",0,class_response,1,test,25,Andesite,Pegmatite,5,FALSE,1,6,,
,,,,,,,,,,,html-keyboard-response,254,2.0.0,404663,6634f3747fee7324a31a6aaa,2,,null,,,,,,,,,<p style='font-size: 30px;'><strong>Okay</strong></p>,null,neutral_feedback,1,test,25,,,,,,,,
,,,,,,,,,,,html-button-response,255,2.0.0,406428,6634f3747fee7324a31a6aaa,2,,1762,,,,,,,,,"<img src= ""rock_img/I_Peridotite_16.jpg"" style=""width:8cm; height:6.989999999999999cm;""><p>What type of rock is this?</p>",3,class_response,1,test,26,Gabbro,Peridotite,16,FALSE,4,7,,
,,,,,,,,,,,html-keyboard-response,256,2.0.0,406930,6634f3747fee7324a31a6aaa,2,,null,,,,,,,,,<p style='font-size: 30px;'><strong>Okay</strong></p>,null,neutral_feedback,1,test,26,,,,,,,,
,,,,,,,,,,,html-button-response,257,2.0.0,408111,6634f3747fee7324a31a6aaa,2,,1178,,,,,,,,,"<img src= ""rock_img/I_Andesite_01.jpg"" style=""width:8cm; height:5.87cm;""><p>What type of rock is this?</p>",3,class_response,1,test,27,Gabbro,Andesite,1,FALSE,4,1,,
,,,,,,,,,,,html-keyboard-response,258,2.0.0,408612,6634f3747fee7324a31a6aaa,2,,null,,,,,,,,,<p style='font-size: 30px;'><strong>Okay</strong></p>,null,neutral_feedback,1,test,27,,,,,,,,
,,,,,,,,,,,html-button-response,259,2.0.0,409595,6634f3747fee7324a31a6aaa,2,,980,,,,,,,,,"<img src= ""rock_img/I_Pumice_04.jpg"" style=""width:8cm; height:6.819999999999999cm;""><p>What type of rock is this?</p>",7,class_response,1,test,28,Pumice,Pumice,4,TRUE,8,8,,
,,,,,,,,,,,html-keyboard-response,260,2.0.0,410097,6634f3747fee7324a31a6aaa,2,,null,,,,,,,,,<p style='font-size: 30px;'><strong>Okay</strong></p>,null,neutral_feedback,1,test,28,,,,,,,,
,,,,,,,,,,,html-button-response,261,2.0.0,411228,6634f3747fee7324a31a6aaa,2,,1128,,,,,,,,,"<img src= ""rock_img/I_Basalt_14.jpg"" style=""width:8cm; height:5.82cm;""><p>What type of rock is this?</p>",7,class_response,1,test,29,Pumice,Basalt,14,FALSE,8,2,,
,,,,,,,,,,,html-keyboard-response,262,2.0.0,411731,6634f3747fee7324a31a6aaa,2,,null,,,,,,,,,<p style='font-size: 30px;'><strong>Okay</strong></p>,null,neutral_feedback,1,test,29,,,,,,,,
,,,,,,,,,,,html-button-response,263,2.0.0,413344,6634f3747fee7324a31a6aaa,2,,1611,,,,,,,,,"<img src= ""rock_img/I_Gabbro_13.jpg"" style=""width:8cm; height:5.08cm;""><p>What type of rock is this?</p>",2,class_response,1,test,30,Diorite,Gabbro,13,FALSE,3,4,,
,,,,,,,,,,,html-keyboard-response,264,2.0.0,413847,6634f3747fee7324a31a6aaa,2,,null,,,,,,,,,<p style='font-size: 30px;'><strong>Okay</strong></p>,null,neutral_feedback,1,test,30,,,,,,,,
,,,,,,,,,,,html-button-response,265,2.0.0,416511,6634f3747fee7324a31a6aaa,2,,2662,,,,,,,,,"<img src= ""rock_img/I_Pegmatite_16.jpg"" style=""width:8cm; height:5.8cm;""><p>What type of rock is this?</p>",0,class_response,1,test,31,Andesite,Pegmatite,16,FALSE,1,6,,
,,,,,,,,,,,html-keyboard-response,266,2.0.0,417013,6634f3747fee7324a31a6aaa,2,,null,,,,,,,,,<p style='font-size: 30px;'><strong>Okay</strong></p>,null,neutral_feedback,1,test,31,,,,,,,,
,,,,,,,,,,,html-button-response,267,2.0.0,418728,6634f3747fee7324a31a6aaa,2,,1712,,,,,,,,,"<img src= ""rock_img/I_Gabbro_03.jpg"" style=""width:8cm; height:8.52cm;""><p>What type of rock is this?</p>",1,class_response,1,test,32,Basalt,Gabbro,3,FALSE,2,4,,
,,,,,,,,,,,html-keyboard-response,268,2.0.0,419230,6634f3747fee7324a31a6aaa,2,,null,,,,,,,,,<p style='font-size: 30px;'><strong>Okay</strong></p>,null,neutral_feedback,1,test,32,,,,,,,,
,,,,,,,,,,,html-button-response,269,2.0.0,420261,6634f3747fee7324a31a6aaa,2,,1028,,,,,,,,,"<img src= ""rock_img/I_Pumice_06.jpg"" style=""width:8cm; height:6.9399999999999995cm;""><p>What type of rock is this?</p>",7,class_response,1,test,33,Pumice,Pumice,6,TRUE,8,8,,
,,,,,,,,,,,html-keyboard-response,270,2.0.0,420764,6634f3747fee7324a31a6aaa,2,,null,,,,,,,,,<p style='font-size: 30px;'><strong>Okay</strong></p>,null,neutral_feedback,1,test,33,,,,,,,,
,,,,,,,,,,,html-button-response,271,2.0.0,421911,6634f3747fee7324a31a6aaa,2,,1145,,,,,,,,,"<img src= ""rock_img/I_Diorite_16.jpg"" style=""width:8cm; height:6.74cm;""><p>What type of rock is this?</p>",1,class_response,1,test,34,Basalt,Diorite,16,FALSE,2,3,,
,,,,,,,,,,,html-keyboard-response,272,2.0.0,422413,6634f3747fee7324a31a6aaa,2,,null,,,,,,,,,<p style='font-size: 30px;'><strong>Okay</strong></p>,null,neutral_feedback,1,test,34,,,,,,,,
,,,,,,,,,,,html-button-response,273,2.0.0,423644,6634f3747fee7324a31a6aaa,2,,1229,,,,,,,,,"<img src= ""rock_img/I_Gabbro_01.jpg"" style=""width:8cm; height:5.21cm;""><p>What type of rock is this?</p>",1,class_response,1,test,35,Basalt,Gabbro,1,FALSE,2,4,,
,,,,,,,,,,,html-keyboard-response,274,2.0.0,424146,6634f3747fee7324a31a6aaa,2,,null,,,,,,,,,<p style='font-size: 30px;'><strong>Okay</strong></p>,null,neutral_feedback,1,test,35,,,,,,,,
,,,,,,,,,,,html-button-response,275,2.0.0,425028,6634f3747fee7324a31a6aaa,2,,879,,,,,,,,,"<img src= ""rock_img/I_Gabbro_14.jpg"" style=""width:8cm; height:8.48cm;""><p>What type of rock is this?</p>",1,class_response,1,test,36,Basalt,Gabbro,14,FALSE,2,4,,
,,,,,,,,,,,html-keyboard-response,276,2.0.0,425530,6634f3747fee7324a31a6aaa,2,,null,,,,,,,,,<p style='font-size: 30px;'><strong>Okay</strong></p>,null,neutral_feedback,1,test,36,,,,,,,,
,,,,,,,,,,,html-button-response,277,2.0.0,426829,6634f3747fee7324a31a6aaa,2,,1296,,,,,,,,,"<img src= ""rock_img/I_Andesite_05.jpg"" style=""width:8cm; height:4.12cm;""><p>What type of rock is this?</p>",6,class_response,1,test,37,Peridotite,Andesite,5,FALSE,7,1,,
,,,,,,,,,,,html-keyboard-response,278,2.0.0,427330,6634f3747fee7324a31a6aaa,2,,null,,,,,,,,,<p style='font-size: 30px;'><strong>Okay</strong></p>,null,neutral_feedback,1,test,37,,,,,,,,
,,,,,,,,,,,html-button-response,279,2.0.0,428895,6634f3747fee7324a31a6aaa,2,,1562,,,,,,,,,"<img src= ""rock_img/I_Basalt_04.jpg"" style=""width:8cm; height:7.53cm;""><p>What type of rock is this?</p>",3,class_response,1,test,38,Gabbro,Basalt,4,FALSE,4,2,,
,,,,,,,,,,,html-keyboard-response,280,2.0.0,429397,6634f3747fee7324a31a6aaa,2,,null,,,,,,,,,<p style='font-size: 30px;'><strong>Okay</strong></p>,null,neutral_feedback,1,test,38,,,,,,,,
,,,,,,,,,,,html-button-response,281,2.0.0,429995,6634f3747fee7324a31a6aaa,2,,596,,,,,,,,,"<img src= ""rock_img/I_Basalt_01.jpg"" style=""width:8cm; height:7.880000000000001cm;""><p>What type of rock is this?</p>",3,class_response,1,test,39,Gabbro,Basalt,1,FALSE,4,2,,
,,,,,,,,,,,html-keyboard-response,282,2.0.0,430497,6634f3747fee7324a31a6aaa,2,,null,,,,,,,,,<p style='font-size: 30px;'><strong>Okay</strong></p>,null,neutral_feedback,1,test,39,,,,,,,,
,,,,,,,,,,,html-button-response,283,2.0.0,431595,6634f3747fee7324a31a6aaa,2,,1095,,,,,,,,,"<img src= ""rock_img/I_Andesite_10.jpg"" style=""width:8cm; height:4.16cm;""><p>What type of rock is this?</p>",7,class_response,1,test,40,Pumice,Andesite,10,FALSE,8,1,,
,,,,,,,,,,,html-keyboard-response,284,2.0.0,432097,6634f3747fee7324a31a6aaa,2,,null,,,,,,,,,<p style='font-size: 30px;'><strong>Okay</strong></p>,null,neutral_feedback,1,test,40,,,,,,,,
,,,,,,,,,,,html-button-response,285,2.0.0,432994,6634f3747fee7324a31a6aaa,2,,894,,,,,,,,,"<img src= ""rock_img/I_Gabbro_08.jpg"" style=""width:8cm; height:5.15cm;""><p>What type of rock is this?</p>",3,class_response,1,test,41,Gabbro,Gabbro,8,TRUE,4,4,,
,,,,,,,,,,,html-keyboard-response,286,2.0.0,433496,6634f3747fee7324a31a6aaa,2,,null,,,,,,,,,<p style='font-size: 30px;'><strong>Okay</strong></p>,null,neutral_feedback,1,test,41,,,,,,,,
,,,,,,,,,,,html-button-response,287,2.0.0,434512,6634f3747fee7324a31a6aaa,2,,1014,,,,,,,,,"<img src= ""rock_img/I_Pumice_14.jpg"" style=""width:8cm; height:6.39cm;""><p>What type of rock is this?</p>",7,class_response,1,test,42,Pumice,Pumice,14,TRUE,8,8,,
,,,,,,,,,,,html-keyboard-response,288,2.0.0,435014,6634f3747fee7324a31a6aaa,2,,null,,,,,,,,,<p style='font-size: 30px;'><strong>Okay</strong></p>,null,neutral_feedback,1,test,42,,,,,,,,
,,,,,,,,,,,html-button-response,289,2.0.0,436195,6634f3747fee7324a31a6aaa,2,,1178,,,,,,,,,"<img src= ""rock_img/I_Diorite_06.jpg"" style=""width:8cm; height:6.03cm;""><p>What type of rock is this?</p>",0,class_response,1,test,43,Andesite,Diorite,6,FALSE,1,3,,
,,,,,,,,,,,html-keyboard-response,290,2.0.0,436698,6634f3747fee7324a31a6aaa,2,,null,,,,,,,,,<p style='font-size: 30px;'><strong>Okay</strong></p>,null,neutral_feedback,1,test,43,,,,,,,,
,,,,,,,,,,,html-button-response,291,2.0.0,437828,6634f3747fee7324a31a6aaa,2,,1128,,,,,,,,,"<img src= ""rock_img/I_Pumice_03.jpg"" style=""width:8cm; height:6.64cm;""><p>What type of rock is this?</p>",7,class_response,1,test,44,Pumice,Pumice,3,TRUE,8,8,,
,,,,,,,,,,,html-keyboard-response,292,2.0.0,438330,6634f3747fee7324a31a6aaa,2,,null,,,,,,,,,<p style='font-size: 30px;'><strong>Okay</strong></p>,null,neutral_feedback,1,test,44,,,,,,,,
,,,,,,,,,,,html-button-response,293,2.0.0,439329,6634f3747fee7324a31a6aaa,2,,996,,,,,,,,,"<img src= ""rock_img/I_Basalt_02.jpg"" style=""width:8cm; height:6.45cm;""><p>What type of rock is this?</p>",3,class_response,1,test,45,Gabbro,Basalt,2,FALSE,4,2,,
,,,,,,,,,,,html-keyboard-response,294,2.0.0,439831,6634f3747fee7324a31a6aaa,2,,null,,,,,,,,,<p style='font-size: 30px;'><strong>Okay</strong></p>,null,neutral_feedback,1,test,45,,,,,,,,
,,,,,,,,,,,html-button-response,295,2.0.0,440979,6634f3747fee7324a31a6aaa,2,,1144,,,,,,,,,"<img src= ""rock_img/I_Peridotite_10.jpg"" style=""width:8cm; height:5.390000000000001cm;""><p>What type of rock is this?</p>",2,class_response,1,test,46,Diorite,Peridotite,10,FALSE,3,7,,
,,,,,,,,,,,html-keyboard-response,296,2.0.0,441481,6634f3747fee7324a31a6aaa,2,,null,,,,,,,,,<p style='font-size: 30px;'><strong>Okay</strong></p>,null,neutral_feedback,1,test,46,,,,,,,,
,,,,,,,,,,,html-button-response,297,2.0.0,442794,6634f3747fee7324a31a6aaa,2,,1311,,,,,,,,,"<img src= ""rock_img/I_Obsidian_14.jpg"" style=""width:8cm; height:7.64cm;""><p>What type of rock is this?</p>",4,class_response,1,test,47,Obsidian,Obsidian,14,TRUE,5,5,,
,,,,,,,,,,,html-keyboard-response,298,2.0.0,443296,6634f3747fee7324a31a6aaa,2,,null,,,,,,,,,<p style='font-size: 30px;'><strong>Okay</strong></p>,null,neutral_feedback,1,test,47,,,,,,,,
,,,,,,,,,,,html-button-response,299,2.0.0,444427,6634f3747fee7324a31a6aaa,2,,1129,,,,,,,,,"<img src= ""rock_img/I_Diorite_02.jpg"" style=""width:8cm; height:6.27cm;""><p>What type of rock is this?</p>",6,class_response,1,test,48,Peridotite,Diorite,2,FALSE,7,3,,
,,,,,,,,,,,html-keyboard-response,300,2.0.0,444929,6634f3747fee7324a31a6aaa,2,,null,,,,,,,,,<p style='font-size: 30px;'><strong>Okay</strong></p>,null,neutral_feedback,1,test,48,,,,,,,,
,,,,,,,,,,,html-button-response,301,2.0.0,453213,6634f3747fee7324a31a6aaa,2,,,,,,,,,,,,,cycle_feedback,,,,,,,,,,4556.5,3717.7
,,,,,,,,,,,html-button-response,303,2.0.0,454411,6634f3747fee7324a31a6aaa,2,,1196,,,,,,,,,,0,start_train,,,,,,,,,,,
,,,,,,,,,,,html-button-response,304,2.0.0,455761,6634f3747fee7324a31a6aaa,2,,1348,,,,,,,,,"<img src= ""rock_img/I_Peridotite_08.jpg"" style=""width:8cm; height:6.7cm;""><p>What type of rock is this?</p>",2,class_response,2,train,1,Diorite,Peridotite,8,FALSE,3,7,,
,,,,,,,,,,,html-button-response,305,2.0.0,457012,6634f3747fee7324a31a6aaa,2,,1248,,,,,,,,,"<img src= rock_img/I_Peridotite_08.jpg style=""width:8cm; height:6.7cm;""><p style='font-size: 30px; color: red;'><strong>Incorrect!</strong></p><p style='font-size: 30px;'><strong>This rock is peridotite</strong></p>",0,corr_feedback,2,train,1,,,,,,,,
,,,,,,,,,,,html-button-response,306,2.0.0,458778,6634f3747fee7324a31a6aaa,2,,1764,,,,,,,,,"<img src= ""rock_img/I_Pumice_08.jpg"" style=""width:8cm; height:6.67cm;""><p>What type of rock is this?</p>",7,class_response,2,train,2,Pumice,Pumice,8,TRUE,8,8,,
,,,,,,,,,,,html-button-response,307,2.0.0,459760,6634f3747fee7324a31a6aaa,2,,981,,,,,,,,,"<img src= rock_img/I_Pumice_08.jpg style=""width:8cm; height:6.67cm;""><p style='font-size: 30px; color: green;'><strong>Correct!</strong></p><p style='font-size: 30px;'><strong>This rock is pumice</strong></p>",0,corr_feedback,2,train,2,,,,,,,,
,,,,,,,,,,,html-button-response,308,2.0.0,461044,6634f3747fee7324a31a6aaa,2,,1283,,,,,,,,,"<img src= ""rock_img/I_Peridotite_06.jpg"" style=""width:8cm; height:7.53cm;""><p>What type of rock is this?</p>",4,class_response,2,train,3,Obsidian,Peridotite,6,FALSE,5,7,,
,,,,,,,,,,,html-button-response,309,2.0.0,461861,6634f3747fee7324a31a6aaa,2,,815,,,,,,,,,"<img src= rock_img/I_Peridotite_06.jpg style=""width:8cm; height:7.53cm;""><p style='font-size: 30px; color: red;'><strong>Incorrect!</strong></p><p style='font-size: 30px;'><strong>This rock is peridotite</strong></p>",0,corr_feedback,2,train,3,,,,,,,,
,,,,,,,,,,,html-button-response,310,2.0.0,462528,6634f3747fee7324a31a6aaa,2,,664,,,,,,,,,"<img src= ""rock_img/I_Diorite_08.jpg"" style=""width:8cm; height:6.37cm;""><p>What type of rock is this?</p>",0,class_response,2,train,4,Andesite,Diorite,8,FALSE,1,3,,
,,,,,,,,,,,html-button-response,311,2.0.0,463295,6634f3747fee7324a31a6aaa,2,,765,,,,,,,,,"<img src= rock_img/I_Diorite_08.jpg style=""width:8cm; height:6.37cm;""><p style='font-size: 30px; color: red;'><strong>Incorrect!</strong></p><p style='font-size: 30px;'><strong>This rock is diorite</strong></p>",0,corr_feedback,2,train,4,,,,,,,,
,,,,,,,,,,,html-button-response,312,2.0.0,464010,6634f3747fee7324a31a6aaa,2,,713,,,,,,,,,"<img src= ""rock_img/I_Peridotite_05.jpg"" style=""width:8cm; height:7.1499999999999995cm;""><p>What type of rock is this?</p>",1,class_response,2,train,5,Basalt,Peridotite,5,FALSE,2,7,,
,,,,,,,,,,,html-button-response,313,2.0.0,464595,6634f3747fee7324a31a6aaa,2,,583,,,,,,,,,"<img src= rock_img/I_Peridotite_05.jpg style=""width:8cm; height:7.1499999999999995cm;""><p style='font-size: 30px; color: red;'><strong>Incorrect!</strong></p><p style='font-size: 30px;'><strong>This rock is peridotite</strong></p>",0,corr_feedback,2,train,5,,,,,,,,
,,,,,,,,,,,html-button-response,314,2.0.0,465278,6634f3747fee7324a31a6aaa,2,,681,,,,,,,,,"<img src= ""rock_img/I_Pumice_02.jpg"" style=""width:8cm; height:7.3999999999999995cm;""><p>What type of rock is this?</p>",6,class_response,2,train,6,Peridotite,Pumice,2,FALSE,7,8,,
,,,,,,,,,,,html-button-response,315,2.0.0,466112,6634f3747fee7324a31a6aaa,2,,832,,,,,,,,,"<img src= rock_img/I_Pumice_02.jpg style=""width:8cm; height:7.3999999999999995cm;""><p style='font-size: 30px; color: red;'><strong>Incorrect!</strong></p><p style='font-size: 30px;'><strong>This rock is pumice</strong></p>",0,corr_feedback,2,train,6,,,,,,,,
,,,,,,,,,,,html-button-response,316,2.0.0,466711,6634f3747fee7324a31a6aaa,2,,596,,,,,,,,,"<img src= ""rock_img/I_Andesite_06.jpg"" style=""width:8cm; height:6.840000000000001cm;""><p>What type of rock is this?</p>",2,class_response,2,train,7,Diorite,Andesite,6,FALSE,3,1,,
,,,,,,,,,,,html-button-response,317,2.0.0,467395,6634f3747fee7324a31a6aaa,2,,683,,,,,,,,,"<img src= rock_img/I_Andesite_06.jpg style=""width:8cm; height:6.840000000000001cm;""><p style='font-size: 30px; color: red;'><strong>Incorrect!</strong></p><p style='font-size: 30px;'><strong>This rock is andesite</strong></p>",0,corr_feedback,2,train,7,,,,,,,,
,,,,,,,,,,,html-button-response,318,2.0.0,468146,6634f3747fee7324a31a6aaa,2,,748,,,,,,,,,"<img src= ""rock_img/I_Basalt_09.jpg"" style=""width:8cm; height:6.2cm;""><p>What type of rock is this?</p>",1,class_response,2,train,8,Basalt,Basalt,9,TRUE,2,2,,
,,,,,,,,,,,html-button-response,319,2.0.0,468695,6634f3747fee7324a31a6aaa,2,,546,,,,,,,,,"<img src= rock_img/I_Basalt_09.jpg style=""width:8cm; height:6.2cm;""><p style='font-size: 30px; color: green;'><strong>Correct!</strong></p><p style='font-size: 30px;'><strong>This rock is basalt</strong></p>",0,corr_feedback,2,train,8,,,,,,,,
,,,,,,,,,,,html-button-response,320,2.0.0,470178,6634f3747fee7324a31a6aaa,2,,1481,,,,,,,,,"<img src= ""rock_img/I_Basalt_12.jpg"" style=""width:8cm; height:6.010000000000001cm;""><p>What type of rock is this?</p>",7,class_response,2,train,9,Pumice,Basalt,12,FALSE,8,2,,
,,,,,,,,,,,html-button-response,321,2.0.0,470845,6634f3747fee7324a31a6aaa,2,,664,,,,,,,,,"<img src= rock_img/I_Basalt_12.jpg style=""width:8cm; height:6.010000000000001cm;""><p style='font-size: 30px; color: red;'><strong>Incorrect!</strong></p><p style='font-size: 30px;'><strong>This rock is basalt</strong></p>",0,corr_feedback,2,train,9,,,,,,,,
,,,,,,,,,,,html-button-response,322,2.0.0,472161,6634f3747fee7324a31a6aaa,2,,1314,,,,,,,,,"<img src= ""rock_img/I_Basalt_06.jpg"" style=""width:8cm; height:7.06cm;""><p>What type of rock is this?</p>",3,class_response,2,train,10,Gabbro,Basalt,6,FALSE,4,2,,
,,,,,,,,,,,html-button-response,323,2.0.0,472861,6634f3747fee7324a31a6aaa,2,,698,,,,,,,,,"<img src= rock_img/I_Basalt_06.jpg style=""width:8cm; height:7.06cm;""><p style='font-size: 30px; color: red;'><strong>Incorrect!</strong></p><p style='font-size: 30px;'><strong>This rock is basalt</strong></p>",0,corr_feedback,2,train,10,,,,,,,,
,,,,,,,,,,,html-button-response,324,2.0.0,474561,6634f3747fee7324a31a6aaa,2,,1697,,,,,,,,,"<img src= ""rock_img/I_Basalt_10.jpg"" style=""width:8cm; height:5.85cm;""><p>What type of rock is this?</p>",1,class_response,2,train,11,Basalt,Basalt,10,TRUE,2,2,,
,,,,,,,,,,,html-button-response,325,2.0.0,475311,6634f3747fee7324a31a6aaa,2,,748,,,,,,,,,"<img src= rock_img/I_Basalt_10.jpg style=""width:8cm; height:5.85cm;""><p style='font-size: 30px; color: green;'><strong>Correct!</strong></p><p style='font-size: 30px;'><strong>This rock is basalt</strong></p>",0,corr_feedback,2,train,11,,,,,,,,
,,,,,,,,,,,html-button-response,326,2.0.0,476744,6634f3747fee7324a31a6aaa,2,,1431,,,,,,,,,"<img src= ""rock_img/I_Basalt_08.jpg"" style=""width:8cm; height:10.44cm;""><p>What type of rock is this?</p>",1,class_response,2,train,12,Basalt,Basalt,8,TRUE,2,2,,
,,,,,,,,,,,html-button-response,327,2.0.0,477444,6634f3747fee7324a31a6aaa,2,,698,,,,,,,,,"<img src= rock_img/I_Basalt_08.jpg style=""width:8cm; height:10.44cm;""><p style='font-size: 30px; color: green;'><strong>Correct!</strong></p><p style='font-size: 30px;'><strong>This rock is basalt</strong></p>",0,corr_feedback,2,train,12,,,,,,,,
,,,,,,,,,,,html-button-response,328,2.0.0,479128,6634f3747fee7324a31a6aaa,2,,1681,,,,,,,,,"<img src= ""rock_img/I_Gabbro_09.jpg"" style=""width:8cm; height:7.279999999999999cm;""><p>What type of rock is this?</p>",3,class_response,2,train,13,Gabbro,Gabbro,9,TRUE,4,4,,
,,,,,,,,,,,html-button-response,329,2.0.0,479861,6634f3747fee7324a31a6aaa,2,,731,,,,,,,,,"<img src= rock_img/I_Gabbro_09.jpg style=""width:8cm; height:7.279999999999999cm;""><p style='font-size: 30px; color: green;'><strong>Correct!</strong></p><p style='font-size: 30px;'><strong>This rock is gabbro</strong></p>",0,corr_feedback,2,train,13,,,,,,,,
,,,,,,,,,,,html-button-response,330,2.0.0,481212,6634f3747fee7324a31a6aaa,2,,1348,,,,,,,,,"<img src= ""rock_img/I_Pegmatite_09.jpg"" style=""width:8cm; height:4.03cm;""><p>What type of rock is this?</p>",4,class_response,2,train,14,Obsidian,Pegmatite,9,FALSE,5,6,,
,,,,,,,,,,,html-button-response,331,2.0.0,482028,6634f3747fee7324a31a6aaa,2,,814,,,,,,,,,"<img src= rock_img/I_Pegmatite_09.jpg style=""width:8cm; height:4.03cm;""><p style='font-size: 30px; color: red;'><strong>Incorrect!</strong></p><p style='font-size: 30px;'><strong>This rock is pegmatite</strong></p>",0,corr_feedback,2,train,14,,,,,,,,
,,,,,,,,,,,html-button-response,332,2.0.0,483662,6634f3747fee7324a31a6aaa,2,,1631,,,,,,,,,"<img src= ""rock_img/I_Diorite_15.jpg"" style=""width:8cm; height:5.54cm;""><p>What type of rock is this?</p>",2,class_response,2,train,15,Diorite,Diorite,15,TRUE,3,3,,
,,,,,,,,,,,html-button-response,333,2.0.0,484511,6634f3747fee7324a31a6aaa,2,,847,,,,,,,,,"<img src= rock_img/I_Diorite_15.jpg style=""width:8cm; height:5.54cm;""><p style='font-size: 30px; color: green;'><strong>Correct!</strong></p><p style='font-size: 30px;'><strong>This rock is diorite</strong></p>",0,corr_feedback,2,train,15,,,,,,,,
,,,,,,,,,,,html-button-response,334,2.0.0,513345,6634f3747fee7324a31a6aaa,2,,28832,,,,,,,,,"<img src= ""rock_img/I_Peridotite_06.jpg"" style=""width:8cm; height:7.53cm;""><p>What type of rock is this?</p>",1,class_response,2,train,16,Basalt,Peridotite,6,FALSE,2,7,,
,,,,,,,,,,,html-button-response,335,2.0.0,514378,6634f3747fee7324a31a6aaa,2,,1031,,,,,,,,,"<img src= rock_img/I_Peridotite_06.jpg style=""width:8cm; height:7.53cm;""><p style='font-size: 30px; color: red;'><strong>Incorrect!</strong></p><p style='font-size: 30px;'><strong>This rock is peridotite</strong></p>",0,corr_feedback,2,train,16,,,,,,,,
,,,,,,,,,,,html-button-response,336,2.0.0,515561,6634f3747fee7324a31a6aaa,2,,1180,,,,,,,,,"<img src= ""rock_img/I_Pumice_05.jpg"" style=""width:8cm; height:7.25cm;""><p>What type of rock is this?</p>",7,class_response,2,train,17,Pumice,Pumice,5,TRUE,8,8,,
,,,,,,,,,,,html-button-response,337,2.0.0,516511,6634f3747fee7324a31a6aaa,2,,948,,,,,,,,,"<img src= rock_img/I_Pumice_05.jpg style=""width:8cm; height:7.25cm;""><p style='font-size: 30px; color: green;'><strong>Correct!</strong></p><p style='font-size: 30px;'><strong>This rock is pumice</strong></p>",0,corr_feedback,2,train,17,,,,,,,,
,,,,,,,,,,,html-button-response,338,2.0.0,517711,6634f3747fee7324a31a6aaa,2,,1198,,,,,,,,,"<img src= ""rock_img/I_Gabbro_11.jpg"" style=""width:8cm; height:6.2cm;""><p>What type of rock is this?</p>",3,class_response,2,train,18,Gabbro,Gabbro,11,TRUE,4,4,,
,,,,,,,,,,,html-button-response,339,2.0.0,518478,6634f3747fee7324a31a6aaa,2,,765,,,,,,,,,"<img src= rock_img/I_Gabbro_11.jpg style=""width:8cm; height:6.2cm;""><p style='font-size: 30px; color: green;'><strong>Correct!</strong></p><p style='font-size: 30px;'><strong>This rock is gabbro</strong></p>",0,corr_feedback,2,train,18,,,,,,,,
,,,,,,,,,,,html-button-response,340,2.0.0,520828,6634f3747fee7324a31a6aaa,2,,2347,,,,,,,,,"<img src= ""rock_img/I_Andesite_09.jpg"" style=""width:8cm; height:6cm;""><p>What type of rock is this?</p>",3,class_response,2,train,19,Gabbro,Andesite,9,FALSE,4,1,,
,,,,,,,,,,,html-button-response,341,2.0.0,521612,6634f3747fee7324a31a6aaa,2,,782,,,,,,,,,"<img src= rock_img/I_Andesite_09.jpg style=""width:8cm; height:6cm;""><p style='font-size: 30px; color: red;'><strong>Incorrect!</strong></p><p style='font-size: 30px;'><strong>This rock is andesite</strong></p>",0,corr_feedback,2,train,19,,,,,,,,
,,,,,,,,,,,html-button-response,342,2.0.0,523045,6634f3747fee7324a31a6aaa,2,,1431,,,,,,,,,"<img src= ""rock_img/I_Pegmatite_15.jpg"" style=""width:8cm; height:6cm;""><p>What type of rock is this?</p>",4,class_response,2,train,20,Obsidian,Pegmatite,15,FALSE,5,6,,
,,,,,,,,,,,html-button-response,343,2.0.0,523945,6634f3747fee7324a31a6aaa,2,,899,,,,,,,,,"<img src= rock_img/I_Pegmatite_15.jpg style=""width:8cm; height:6cm;""><p style='font-size: 30px; color: red;'><strong>Incorrect!</strong></p><p style='font-size: 30px;'><strong>This rock is pegmatite</strong></p>",0,corr_feedback,2,train,20,,,,,,,,
,,,,,,,,,,,html-button-response,344,2.0.0,524945,6634f3747fee7324a31a6aaa,2,,998,,,,,,,,,"<img src= ""rock_img/I_Pegmatite_07.jpg"" style=""width:8cm; height:6.7cm;""><p>What type of rock is this?</p>",5,class_response,2,train,21,Pegmatite,Pegmatite,7,TRUE,6,6,,
,,,,,,,,,,,html-button-response,345,2.0.0,525595,6634f3747fee7324a31a6aaa,2,,647,,,,,,,,,"<img src= rock_img/I_Pegmatite_07.jpg style=""width:8cm; height:6.7cm;""><p style='font-size: 30px; color: green;'><strong>Correct!</strong></p><p style='font-size: 30px;'><strong>This rock is pegmatite</strong></p>",0,corr_feedback,2,train,21,,,,,,,,
,,,,,,,,,,,html-button-response,346,2.0.0,526678,6634f3747fee7324a31a6aaa,2,,1081,,,,,,,,,"<img src= ""rock_img/I_Basalt_06.jpg"" style=""width:8cm; height:7.06cm;""><p>What type of rock is this?</p>",3,class_response,2,train,22,Gabbro,Basalt,6,FALSE,4,2,,
,,,,,,,,,,,html-button-response,347,2.0.0,527478,6634f3747fee7324a31a6aaa,2,,798,,,,,,,,,"<img src= rock_img/I_Basalt_06.jpg style=""width:8cm; height:7.06cm;""><p style='font-size: 30px; color: red;'><strong>Incorrect!</strong></p><p style='font-size: 30px;'><strong>This rock is basalt</strong></p>",0,corr_feedback,2,train,22,,,,,,,,
,,,,,,,,,,,html-button-response,348,2.0.0,528645,6634f3747fee7324a31a6aaa,2,,1165,,,,,,,,,"<img src= ""rock_img/I_Peridotite_07.jpg"" style=""width:8cm; height:4.83cm;""><p>What type of rock is this?</p>",3,class_response,2,train,23,Gabbro,Peridotite,7,FALSE,4,7,,
,,,,,,,,,,,html-button-response,349,2.0.0,529411,6634f3747fee7324a31a6aaa,2,,764,,,,,,,,,"<img src= rock_img/I_Peridotite_07.jpg style=""width:8cm; height:4.83cm;""><p style='font-size: 30px; color: red;'><strong>Incorrect!</strong></p><p style='font-size: 30px;'><strong>This rock is peridotite</strong></p>",0,corr_feedback,2,train,23,,,,,,,,
,,,,,,,,,,,html-button-response,350,2.0.0,530928,6634f3747fee7324a31a6aaa,2,,1515,,,,,,,,,"<img src= ""rock_img/I_Gabbro_11.jpg"" style=""width:8cm; height:6.2cm;""><p>What type of rock is this?</p>",3,class_response,2,train,24,Gabbro,Gabbro,11,TRUE,4,4,,
,,,,,,,,,,,html-button-response,351,2.0.0,531745,6634f3747fee7324a31a6aaa,2,,814,,,,,,,,,"<img src= rock_img/I_Gabbro_11.jpg style=""width:8cm; height:6.2cm;""><p style='font-size: 30px; color: green;'><strong>Correct!</strong></p><p style='font-size: 30px;'><strong>This rock is gabbro</strong></p>",0,corr_feedback,2,train,24,,,,,,,,
,,,,,,,,,,,html-button-response,352,2.0.0,533062,6634f3747fee7324a31a6aaa,2,,1315,,,,,,,,,"<img src= ""rock_img/I_Andesite_11.jpg"" style=""width:8cm; height:4.92cm;""><p>What type of rock is this?</p>",0,class_response,2,train,25,Andesite,Andesite,11,TRUE,1,1,,
,,,,,,,,,,,html-button-response,353,2.0.0,533861,6634f3747fee7324a31a6aaa,2,,797,,,,,,,,,"<img src= rock_img/I_Andesite_11.jpg style=""width:8cm; height:4.92cm;""><p style='font-size: 30px; color: green;'><strong>Correct!</strong></p><p style='font-size: 30px;'><strong>This rock is andesite</strong></p>",0,corr_feedback,2,train,25,,,,,,,,
,,,,,,,,,,,html-button-response,354,2.0.0,535445,6634f3747fee7324a31a6aaa,2,,1581,,,,,,,,,"<img src= ""rock_img/I_Obsidian_10.jpg"" style=""width:8cm; height:6.260000000000001cm;""><p>What type of rock is this?</p>",6,class_response,2,train,26,Peridotite,Obsidian,10,FALSE,7,5,,
,,,,,,,,,,,html-button-response,355,2.0.0,536111,6634f3747fee7324a31a6aaa,2,,664,,,,,,,,,"<img src= rock_img/I_Obsidian_10.jpg style=""width:8cm; height:6.260000000000001cm;""><p style='font-size: 30px; color: red;'><strong>Incorrect!</strong></p><p style='font-size: 30px;'><strong>This rock is obsidian</strong></p>",0,corr_feedback,2,train,26,,,,,,,,
,,,,,,,,,,,html-button-response,356,2.0.0,537944,6634f3747fee7324a31a6aaa,2,,1831,,,,,,,,,"<img src= ""rock_img/I_Diorite_15.jpg"" style=""width:8cm; height:5.54cm;""><p>What type of rock is this?</p>",5,class_response,2,train,27,Pegmatite,Diorite,15,FALSE,6,3,,
,,,,,,,,,,,html-button-response,357,2.0.0,538711,6634f3747fee7324a31a6aaa,2,,765,,,,,,,,,"<img src= rock_img/I_Diorite_15.jpg style=""width:8cm; height:5.54cm;""><p style='font-size: 30px; color: red;'><strong>Incorrect!</strong></p><p style='font-size: 30px;'><strong>This rock is diorite</strong></p>",0,corr_feedback,2,train,27,,,,,,,,
,,,,,,,,,,,html-button-response,358,2.0.0,540078,6634f3747fee7324a31a6aaa,2,,1365,,,,,,,,,"<img src= ""rock_img/I_Pegmatite_03.jpg"" style=""width:8cm; height:5.239999999999999cm;""><p>What type of rock is this?</p>",4,class_response,2,train,28,Obsidian,Pegmatite,3,FALSE,5,6,,
,,,,,,,,,,,html-button-response,359,2.0.0,540862,6634f3747fee7324a31a6aaa,2,,782,,,,,,,,,"<img src= rock_img/I_Pegmatite_03.jpg style=""width:8cm; height:5.239999999999999cm;""><p style='font-size: 30px; color: red;'><strong>Incorrect!</strong></p><p style='font-size: 30px;'><strong>This rock is pegmatite</strong></p>",0,corr_feedback,2,train,28,,,,,,,,
,,,,,,,,,,,html-button-response,360,2.0.0,543861,6634f3747fee7324a31a6aaa,2,,2996,,,,,,,,,"<img src= ""rock_img/I_Diorite_10.jpg"" style=""width:8cm; height:5.949999999999999cm;""><p>What type of rock is this?</p>",5,class_response,2,train,29,Pegmatite,Diorite,10,FALSE,6,3,,
,,,,,,,,,,,html-button-response,361,2.0.0,544695,6634f3747fee7324a31a6aaa,2,,832,,,,,,,,,"<img src= rock_img/I_Diorite_10.jpg style=""width:8cm; height:5.949999999999999cm;""><p style='font-size: 30px; color: red;'><strong>Incorrect!</strong></p><p style='font-size: 30px;'><strong>This rock is diorite</strong></p>",0,corr_feedback,2,train,29,,,,,,,,
,,,,,,,,,,,html-button-response,362,2.0.0,546861,6634f3747fee7324a31a6aaa,2,,2164,,,,,,,,,"<img src= ""rock_img/I_Obsidian_04.jpg"" style=""width:8cm; height:6.930000000000001cm;""><p>What type of rock is this?</p>",4,class_response,2,train,30,Obsidian,Obsidian,4,TRUE,5,5,,
,,,,,,,,,,,html-button-response,363,2.0.0,548161,6634f3747fee7324a31a6aaa,2,,1298,,,,,,,,,"<img src= rock_img/I_Obsidian_04.jpg style=""width:8cm; height:6.930000000000001cm;""><p style='font-size: 30px; color: green;'><strong>Correct!</strong></p><p style='font-size: 30px;'><strong>This rock is obsidian</strong></p>",0,corr_feedback,2,train,30,,,,,,,,
,,,,,,,,,,,html-button-response,364,2.0.0,549227,6634f3747fee7324a31a6aaa,2,,1064,,,,,,,,,"<img src= ""rock_img/I_Basalt_10.jpg"" style=""width:8cm; height:5.85cm;""><p>What type of rock is this?</p>",3,class_response,2,train,31,Gabbro,Basalt,10,FALSE,4,2,,
,,,,,,,,,,,html-button-response,365,2.0.0,549927,6634f3747fee7324a31a6aaa,2,,698,,,,,,,,,"<img src= rock_img/I_Basalt_10.jpg style=""width:8cm; height:5.85cm;""><p style='font-size: 30px; color: red;'><strong>Incorrect!</strong></p><p style='font-size: 30px;'><strong>This rock is basalt</strong></p>",0,corr_feedback,2,train,31,,,,,,,,
,,,,,,,,,,,html-button-response,366,2.0.0,551778,6634f3747fee7324a31a6aaa,2,,1848,,,,,,,,,"<img src= ""rock_img/I_Peridotite_15.jpg"" style=""width:8cm; height:6cm;""><p>What type of rock is this?</p>",5,class_response,2,train,32,Pegmatite,Peridotite,15,FALSE,6,7,,
,,,,,,,,,,,html-button-response,367,2.0.0,552411,6634f3747fee7324a31a6aaa,2,,630,,,,,,,,,"<img src= rock_img/I_Peridotite_15.jpg style=""width:8cm; height:6cm;""><p style='font-size: 30px; color: red;'><strong>Incorrect!</strong></p><p style='font-size: 30px;'><strong>This rock is peridotite</strong></p>",0,corr_feedback,2,train,32,,,,,,,,
,,,,,,,,,,,html-button-response,368,2.0.0,554862,6634f3747fee7324a31a6aaa,2,,2449,,,,,,,,,"<img src= ""rock_img/I_Andesite_03.jpg"" style=""width:8cm; height:5.73cm;""><p>What type of rock is this?</p>",3,class_response,2,train,33,Gabbro,Andesite,3,FALSE,4,1,,
,,,,,,,,,,,html-button-response,369,2.0.0,557711,6634f3747fee7324a31a6aaa,2,,2847,,,,,,,,,"<img src= rock_img/I_Andesite_03.jpg style=""width:8cm; height:5.73cm;""><p style='font-size: 30px; color: red;'><strong>Incorrect!</strong></p><p style='font-size: 30px;'><strong>This rock is andesite</strong></p>",0,corr_feedback,2,train,33,,,,,,,,
,,,,,,,,,,,html-button-response,370,2.0.0,558477,6634f3747fee7324a31a6aaa,2,,764,,,,,,,,,"<img src= ""rock_img/I_Gabbro_10.jpg"" style=""width:8cm; height:5.680000000000001cm;""><p>What type of rock is this?</p>",2,class_response,2,train,34,Diorite,Gabbro,10,FALSE,3,4,,
,,,,,,,,,,,html-button-response,371,2.0.0,559228,6634f3747fee7324a31a6aaa,2,,749,,,,,,,,,"<img src= rock_img/I_Gabbro_10.jpg style=""width:8cm; height:5.680000000000001cm;""><p style='font-size: 30px; color: red;'><strong>Incorrect!</strong></p><p style='font-size: 30px;'><strong>This rock is gabbro</strong></p>",0,corr_feedback,2,train,34,,,,,,,,
,,,,,,,,,,,html-button-response,372,2.0.0,559712,6634f3747fee7324a31a6aaa,2,,481,,,,,,,,,"<img src= ""rock_img/I_Diorite_12.jpg"" style=""width:8cm; height:4.88cm;""><p>What type of rock is this?</p>",5,class_response,2,train,35,Pegmatite,Diorite,12,FALSE,6,3,,
,,,,,,,,,,,html-button-response,373,2.0.0,560978,6634f3747fee7324a31a6aaa,2,,1264,,,,,,,,,"<img src= rock_img/I_Diorite_12.jpg style=""width:8cm; height:4.88cm;""><p style='font-size: 30px; color: red;'><strong>Incorrect!</strong></p><p style='font-size: 30px;'><strong>This rock is diorite</strong></p>",0,corr_feedback,2,train,35,,,,,,,,
,,,,,,,,,,,html-button-response,374,2.0.0,561728,6634f3747fee7324a31a6aaa,2,,748,,,,,,,,,"<img src= ""rock_img/I_Basalt_16.jpg"" style=""width:8cm; height:7.659999999999999cm;""><p>What type of rock is this?</p>",1,class_response,2,train,36,Basalt,Basalt,16,TRUE,2,2,,
,,,,,,,,,,,html-button-response,375,2.0.0,562528,6634f3747fee7324a31a6aaa,2,,797,,,,,,,,,"<img src= rock_img/I_Basalt_16.jpg style=""width:8cm; height:7.659999999999999cm;""><p style='font-size: 30px; color: green;'><strong>Correct!</strong></p><p style='font-size: 30px;'><strong>This rock is basalt</strong></p>",0,corr_feedback,2,train,36,,,,,,,,
,,,,,,,,,,,html-button-response,376,2.0.0,564045,6634f3747fee7324a31a6aaa,2,,1515,,,,,,,,,"<img src= ""rock_img/I_Obsidian_16.jpg"" style=""width:8cm; height:9.3cm;""><p>What type of rock is this?</p>",4,class_response,2,train,37,Obsidian,Obsidian,16,TRUE,5,5,,
,,,,,,,,,,,html-button-response,377,2.0.0,564794,6634f3747fee7324a31a6aaa,2,,748,,,,,,,,,"<img src= rock_img/I_Obsidian_16.jpg style=""width:8cm; height:9.3cm;""><p style='font-size: 30px; color: green;'><strong>Correct!</strong></p><p style='font-size: 30px;'><strong>This rock is obsidian</strong></p>",0,corr_feedback,2,train,37,,,,,,,,
,,,,,,,,,,,html-button-response,378,2.0.0,566161,6634f3747fee7324a31a6aaa,2,,1364,,,,,,,,,"<img src= ""rock_img/I_Andesite_14.jpg"" style=""width:8cm; height:5.449999999999999cm;""><p>What type of rock is this?</p>",5,class_response,2,train,38,Pegmatite,Andesite,14,FALSE,6,1,,
,,,,,,,,,,,html-button-response,379,2.0.0,566745,6634f3747fee7324a31a6aaa,2,,582,,,,,,,,,"<img src= rock_img/I_Andesite_14.jpg style=""width:8cm; height:5.449999999999999cm;""><p style='font-size: 30px; color: red;'><strong>Incorrect!</strong></p><p style='font-size: 30px;'><strong>This rock is andesite</strong></p>",0,corr_feedback,2,train,38,,,,,,,,
,,,,,,,,,,,html-button-response,380,2.0.0,568127,6634f3747fee7324a31a6aaa,2,,1380,,,,,,,,,"<img src= ""rock_img/I_Diorite_09.jpg"" style=""width:8cm; height:5.27cm;""><p>What type of rock is this?</p>",0,class_response,2,train,39,Andesite,Diorite,9,FALSE,1,3,,
,,,,,,,,,,,html-button-response,381,2.0.0,568878,6634f3747fee7324a31a6aaa,2,,748,,,,,,,,,"<img src= rock_img/I_Diorite_09.jpg style=""width:8cm; height:5.27cm;""><p style='font-size: 30px; color: red;'><strong>Incorrect!</strong></p><p style='font-size: 30px;'><strong>This rock is diorite</strong></p>",0,corr_feedback,2,train,39,,,,,,,,
,,,,,,,,,,,html-button-response,382,2.0.0,570661,6634f3747fee7324a31a6aaa,2,,1780,,,,,,,,,"<img src= ""rock_img/I_Pegmatite_08.jpg"" style=""width:8cm; height:7.68cm;""><p>What type of rock is this?</p>",5,class_response,2,train,40,Pegmatite,Pegmatite,8,TRUE,6,6,,
,,,,,,,,,,,html-button-response,383,2.0.0,571377,6634f3747fee7324a31a6aaa,2,,715,,,,,,,,,"<img src= rock_img/I_Pegmatite_08.jpg style=""width:8cm; height:7.68cm;""><p style='font-size: 30px; color: green;'><strong>Correct!</strong></p><p style='font-size: 30px;'><strong>This rock is pegmatite</strong></p>",0,corr_feedback,2,train,40,,,,,,,,
,,,,,,,,,,,html-button-response,384,2.0.0,572961,6634f3747fee7324a31a6aaa,2,,1581,,,,,,,,,"<img src= ""rock_img/I_Andesite_03.jpg"" style=""width:8cm; height:5.73cm;""><p>What type of rock is this?</p>",1,class_response,2,train,41,Basalt,Andesite,3,FALSE,2,1,,
,,,,,,,,,,,html-button-response,385,2.0.0,574178,6634f3747fee7324a31a6aaa,2,,1216,,,,,,,,,"<img src= rock_img/I_Andesite_03.jpg style=""width:8cm; height:5.73cm;""><p style='font-size: 30px; color: red;'><strong>Incorrect!</strong></p><p style='font-size: 30px;'><strong>This rock is andesite</strong></p>",0,corr_feedback,2,train,41,,,,,,,,
,,,,,,,,,,,html-button-response,386,2.0.0,575961,6634f3747fee7324a31a6aaa,2,,1781,,,,,,,,,"<img src= ""rock_img/I_Andesite_06.jpg"" style=""width:8cm; height:6.840000000000001cm;""><p>What type of rock is this?</p>",1,class_response,2,train,42,Basalt,Andesite,6,FALSE,2,1,,
,,,,,,,,,,,html-button-response,387,2.0.0,576744,6634f3747fee7324a31a6aaa,2,,781,,,,,,,,,"<img src= rock_img/I_Andesite_06.jpg style=""width:8cm; height:6.840000000000001cm;""><p style='font-size: 30px; color: red;'><strong>Incorrect!</strong></p><p style='font-size: 30px;'><strong>This rock is andesite</strong></p>",0,corr_feedback,2,train,42,,,,,,,,
