"width","height","webaudio","browser","browser_version","mobile","os","fullscreen","vsync_rate","webcam","microphone","trial_type","trial_index","plugin_version","time_elapsed","subjID","condition","stimID","rt","url","success","value","timeout","failed_images","failed_audio","failed_video","view_history","stimulus","response","trialType","cycle","phase","trial","resp","cat","token","corr","resp_num","cat_num","time_fb1","time_fb2"
"1366","633","true","chrome","130.0.0","false","Windows 10","true","58.67","true","true","browser-check","0","2.0.0","1053","5fb0a3d6a8e4224b973e750b","1","22","","","","","","","","","","","","","","","","","","","","","","",""
"","","","","","","","","","","","external-html","1","2.0.0","387995","5fb0a3d6a8e4224b973e750b","1","22","386798","consent_form.html","","","","","","","","","","","","","","","","","","","","",""
"","","","","","","","","","","","fullscreen","2","2.0.0","437146","5fb0a3d6a8e4224b973e750b","1","22","48133","","true","","","","","","","","","","","","","","","","","","","",""
"","","","","","","","","","","","call-function","3","2.0.0","437151","5fb0a3d6a8e4224b973e750b","1","22","","","","{}","","","","","","","","","","","","","","","","","","",""
"","","","","","","","","","","","preload","4","2.0.0","441549","5fb0a3d6a8e4224b973e750b","1","22","","","true","","false","[]","[]","[]","","","","","","","","","","","","","","",""
"","","","","","","","","","","","instructions","5","2.0.0","465848","5fb0a3d6a8e4224b973e750b","1","22","24297","","","","","","","","[{""page_index"":0,""viewing_time"":7207},{""page_index"":1,""viewing_time"":10160},{""page_index"":2,""viewing_time"":6929}]","","","","","","","","","","","","","",""
"","","","","","","","","","","","html-button-response","6","2.0.0","467880","5fb0a3d6a8e4224b973e750b","1","22","2028","","","","","","","","","","0","start_test","","","","","","","","","","",""
"","","","","","","","","","","","html-button-response","7","2.0.0","469927","5fb0a3d6a8e4224b973e750b","1","22","2041","","","","","","","","","<img src= ""rock_img/I_Obsidian_11.jpg"" style=""width:8cm; height:6.05cm;""><p>What type of rock is this?</p>","1","class_response","0","test","1","Basalt","Obsidian","11","false","2","5","",""
"","","","","","","","","","","","html-keyboard-response","8","2.0.0","470434","5fb0a3d6a8e4224b973e750b","1","22","null","","","","","","","","","<p style='font-size: 30px;'><strong>Okay</strong></p>","null","neutral_feedback","0","test","1","","","","","","","",""
"","","","","","","","","","","","html-button-response","9","2.0.0","472593","5fb0a3d6a8e4224b973e750b","1","22","2156","","","","","","","","","<img src= ""rock_img/I_Diorite_14.jpg"" style=""width:8cm; height:5.71cm;""><p>What type of rock is this?</p>","2","class_response","0","test","2","Diorite","Diorite","14","true","3","3","",""
"","","","","","","","","","","","html-keyboard-response","10","2.0.0","473102","5fb0a3d6a8e4224b973e750b","1","22","null","","","","","","","","","<p style='font-size: 30px;'><strong>Okay</strong></p>","null","neutral_feedback","0","test","2","","","","","","","",""
"","","","","","","","","","","","html-button-response","11","2.0.0","475631","5fb0a3d6a8e4224b973e750b","1","22","2526","","","","","","","","","<img src= ""rock_img/I_Diorite_12.jpg"" style=""width:8cm; height:4.88cm;""><p>What type of rock is this?</p>","6","class_response","0","test","3","Peridotite","Diorite","12","false","7","3","",""
"","","","","","","","","","","","html-keyboard-response","12","2.0.0","476143","5fb0a3d6a8e4224b973e750b","1","22","null","","","","","","","","","<p style='font-size: 30px;'><strong>Okay</strong></p>","null","neutral_feedback","0","test","3","","","","","","","",""
"","","","","","","","","","","","html-button-response","13","2.0.0","478038","5fb0a3d6a8e4224b973e750b","1","22","1892","","","","","","","","","<img src= ""rock_img/I_Obsidian_14.jpg"" style=""width:8cm; height:7.64cm;""><p>What type of rock is this?</p>","0","class_response","0","test","4","Andesite","Obsidian","14","false","1","5","",""
"","","","","","","","","","","","html-keyboard-response","14","2.0.0","478548","5fb0a3d6a8e4224b973e750b","1","22","null","","","","","","","","","<p style='font-size: 30px;'><strong>Okay</strong></p>","null","neutral_feedback","0","test","4","","","","","","","",""
"","","","","","","","","","","","html-button-response","15","2.0.0","480227","5fb0a3d6a8e4224b973e750b","1","22","1676","","","","","","","","","<img src= ""rock_img/I_Pumice_05.jpg"" style=""width:8cm; height:7.25cm;""><p>What type of rock is this?</p>","4","class_response","0","test","5","Obsidian","Pumice","05","false","5","8","",""
"","","","","","","","","","","","html-keyboard-response","16","2.0.0","480734","5fb0a3d6a8e4224b973e750b","1","22","null","","","","","","","","","<p style='font-size: 30px;'><strong>Okay</strong></p>","null","neutral_feedback","0","test","5","","","","","","","",""
"","","","","","","","","","","","html-button-response","17","2.0.0","483028","5fb0a3d6a8e4224b973e750b","1","22","2292","","","","","","","","","<img src= ""rock_img/I_Pegmatite_11.jpg"" style=""width:8cm; height:8.14cm;""><p>What type of rock is this?</p>","3","class_response","0","test","6","Gabbro","Pegmatite","11","false","4","6","",""
"","","","","","","","","","","","html-keyboard-response","18","2.0.0","483538","5fb0a3d6a8e4224b973e750b","1","22","null","","","","","","","","","<p style='font-size: 30px;'><strong>Okay</strong></p>","null","neutral_feedback","0","test","6","","","","","","","",""
"","","","","","","","","","","","html-button-response","19","2.0.0","485271","5fb0a3d6a8e4224b973e750b","1","22","1731","","","","","","","","","<img src= ""rock_img/I_Gabbro_16.jpg"" style=""width:8cm; height:6.44cm;""><p>What type of rock is this?</p>","2","class_response","0","test","7","Diorite","Gabbro","16","false","3","4","",""
"","","","","","","","","","","","html-keyboard-response","20","2.0.0","485780","5fb0a3d6a8e4224b973e750b","1","22","null","","","","","","","","","<p style='font-size: 30px;'><strong>Okay</strong></p>","null","neutral_feedback","0","test","7","","","","","","","",""
"","","","","","","","","","","","html-button-response","21","2.0.0","487463","5fb0a3d6a8e4224b973e750b","1","22","1682","","","","","","","","","<img src= ""rock_img/I_Pumice_04.jpg"" style=""width:8cm; height:6.819999999999999cm;""><p>What type of rock is this?</p>","7","class_response","0","test","8","Pumice","Pumice","04","true","8","8","",""
"","","","","","","","","","","","html-keyboard-response","22","2.0.0","487977","5fb0a3d6a8e4224b973e750b","1","22","null","","","","","","","","","<p style='font-size: 30px;'><strong>Okay</strong></p>","null","neutral_feedback","0","test","8","","","","","","","",""
"","","","","","","","","","","","html-button-response","23","2.0.0","489680","5fb0a3d6a8e4224b973e750b","1","22","1701","","","","","","","","","<img src= ""rock_img/I_Pegmatite_10.jpg"" style=""width:8cm; height:4.16cm;""><p>What type of rock is this?</p>","1","class_response","0","test","9","Basalt","Pegmatite","10","false","2","6","",""
"","","","","","","","","","","","html-keyboard-response","24","2.0.0","490189","5fb0a3d6a8e4224b973e750b","1","22","null","","","","","","","","","<p style='font-size: 30px;'><strong>Okay</strong></p>","null","neutral_feedback","0","test","9","","","","","","","",""
"","","","","","","","","","","","html-button-response","25","2.0.0","491490","5fb0a3d6a8e4224b973e750b","1","22","1299","","","","","","","","","<img src= ""rock_img/I_Gabbro_03.jpg"" style=""width:8cm; height:8.52cm;""><p>What type of rock is this?</p>","2","class_response","0","test","10","Diorite","Gabbro","03","false","3","4","",""
"","","","","","","","","","","","html-keyboard-response","26","2.0.0","491999","5fb0a3d6a8e4224b973e750b","1","22","null","","","","","","","","","<p style='font-size: 30px;'><strong>Okay</strong></p>","null","neutral_feedback","0","test","10","","","","","","","",""
"","","","","","","","","","","","html-button-response","27","2.0.0","495017","5fb0a3d6a8e4224b973e750b","1","22","3016","","","","","","","","","<img src= ""rock_img/I_Basalt_10.jpg"" style=""width:8cm; height:5.85cm;""><p>What type of rock is this?</p>","5","class_response","0","test","11","Pegmatite","Basalt","10","false","6","2","",""
"","","","","","","","","","","","html-keyboard-response","28","2.0.0","495527","5fb0a3d6a8e4224b973e750b","1","22","null","","","","","","","","","<p style='font-size: 30px;'><strong>Okay</strong></p>","null","neutral_feedback","0","test","11","","","","","","","",""
"","","","","","","","","","","","html-button-response","29","2.0.0","497144","5fb0a3d6a8e4224b973e750b","1","22","1615","","","","","","","","","<img src= ""rock_img/I_Peridotite_12.jpg"" style=""width:8cm; height:4.54cm;""><p>What type of rock is this?</p>","0","class_response","0","test","12","Andesite","Peridotite","12","false","1","7","",""
"","","","","","","","","","","","html-keyboard-response","30","2.0.0","497655","5fb0a3d6a8e4224b973e750b","1","22","null","","","","","","","","","<p style='font-size: 30px;'><strong>Okay</strong></p>","null","neutral_feedback","0","test","12","","","","","","","",""
"","","","","","","","","","","","html-button-response","31","2.0.0","500476","5fb0a3d6a8e4224b973e750b","1","22","2818","","","","","","","","","<img src= ""rock_img/I_Pumice_08.jpg"" style=""width:8cm; height:6.67cm;""><p>What type of rock is this?</p>","3","class_response","0","test","13","Gabbro","Pumice","08","false","4","8","",""
"","","","","","","","","","","","html-keyboard-response","32","2.0.0","500984","5fb0a3d6a8e4224b973e750b","1","22","null","","","","","","","","","<p style='font-size: 30px;'><strong>Okay</strong></p>","null","neutral_feedback","0","test","13","","","","","","","",""
"","","","","","","","","","","","html-button-response","33","2.0.0","502103","5fb0a3d6a8e4224b973e750b","1","22","1116","","","","","","","","","<img src= ""rock_img/I_Andesite_04.jpg"" style=""width:8cm; height:5.96cm;""><p>What type of rock is this?</p>","3","class_response","0","test","14","Gabbro","Andesite","04","false","4","1","",""
"","","","","","","","","","","","html-keyboard-response","34","2.0.0","502611","5fb0a3d6a8e4224b973e750b","1","22","null","","","","","","","","","<p style='font-size: 30px;'><strong>Okay</strong></p>","null","neutral_feedback","0","test","14","","","","","","","",""
"","","","","","","","","","","","html-button-response","35","2.0.0","504128","5fb0a3d6a8e4224b973e750b","1","22","1515","","","","","","","","","<img src= ""rock_img/I_Gabbro_09.jpg"" style=""width:8cm; height:7.279999999999999cm;""><p>What type of rock is this?</p>","4","class_response","0","test","15","Obsidian","Gabbro","09","false","5","4","",""
"","","","","","","","","","","","html-keyboard-response","36","2.0.0","504637","5fb0a3d6a8e4224b973e750b","1","22","null","","","","","","","","","<p style='font-size: 30px;'><strong>Okay</strong></p>","null","neutral_feedback","0","test","15","","","","","","","",""
"","","","","","","","","","","","html-button-response","37","2.0.0","506286","5fb0a3d6a8e4224b973e750b","1","22","1647","","","","","","","","","<img src= ""rock_img/I_Pegmatite_06.jpg"" style=""width:8cm; height:5.17cm;""><p>What type of rock is this?</p>","6","class_response","0","test","16","Peridotite","Pegmatite","06","false","7","6","",""
"","","","","","","","","","","","html-keyboard-response","38","2.0.0","506796","5fb0a3d6a8e4224b973e750b","1","22","null","","","","","","","","","<p style='font-size: 30px;'><strong>Okay</strong></p>","null","neutral_feedback","0","test","16","","","","","","","",""
"","","","","","","","","","","","html-button-response","39","2.0.0","508734","5fb0a3d6a8e4224b973e750b","1","22","1937","","","","","","","","","<img src= ""rock_img/I_Gabbro_05.jpg"" style=""width:8cm; height:6cm;""><p>What type of rock is this?</p>","7","class_response","0","test","17","Pumice","Gabbro","05","false","8","4","",""
"","","","","","","","","","","","html-keyboard-response","40","2.0.0","509242","5fb0a3d6a8e4224b973e750b","1","22","null","","","","","","","","","<p style='font-size: 30px;'><strong>Okay</strong></p>","null","neutral_feedback","0","test","17","","","","","","","",""
"","","","","","","","","","","","html-button-response","41","2.0.0","510132","5fb0a3d6a8e4224b973e750b","1","22","886","","","","","","","","","<img src= ""rock_img/I_Andesite_06.jpg"" style=""width:8cm; height:6.840000000000001cm;""><p>What type of rock is this?</p>","6","class_response","0","test","18","Peridotite","Andesite","06","false","7","1","",""
"","","","","","","","","","","","html-keyboard-response","42","2.0.0","510641","5fb0a3d6a8e4224b973e750b","1","22","null","","","","","","","","","<p style='font-size: 30px;'><strong>Okay</strong></p>","null","neutral_feedback","0","test","18","","","","","","","",""
"","","","","","","","","","","","html-button-response","43","2.0.0","511707","5fb0a3d6a8e4224b973e750b","1","22","1064","","","","","","","","","<img src= ""rock_img/I_Pegmatite_03.jpg"" style=""width:8cm; height:5.239999999999999cm;""><p>What type of rock is this?</p>","1","class_response","0","test","19","Basalt","Pegmatite","03","false","2","6","",""
"","","","","","","","","","","","html-keyboard-response","44","2.0.0","512218","5fb0a3d6a8e4224b973e750b","1","22","null","","","","","","","","","<p style='font-size: 30px;'><strong>Okay</strong></p>","null","neutral_feedback","0","test","19","","","","","","","",""
"","","","","","","","","","","","html-button-response","45","2.0.0","513115","5fb0a3d6a8e4224b973e750b","1","22","895","","","","","","","","","<img src= ""rock_img/I_Pegmatite_16.jpg"" style=""width:8cm; height:5.8cm;""><p>What type of rock is this?</p>","2","class_response","0","test","20","Diorite","Pegmatite","16","false","3","6","",""
"","","","","","","","","","","","html-keyboard-response","46","2.0.0","513626","5fb0a3d6a8e4224b973e750b","1","22","null","","","","","","","","","<p style='font-size: 30px;'><strong>Okay</strong></p>","null","neutral_feedback","0","test","20","","","","","","","",""
"","","","","","","","","","","","html-button-response","47","2.0.0","515066","5fb0a3d6a8e4224b973e750b","1","22","1437","","","","","","","","","<img src= ""rock_img/I_Diorite_16.jpg"" style=""width:8cm; height:6.74cm;""><p>What type of rock is this?</p>","5","class_response","0","test","21","Pegmatite","Diorite","16","false","6","3","",""
"","","","","","","","","","","","html-keyboard-response","48","2.0.0","515577","5fb0a3d6a8e4224b973e750b","1","22","null","","","","","","","","","<p style='font-size: 30px;'><strong>Okay</strong></p>","null","neutral_feedback","0","test","21","","","","","","","",""
"","","","","","","","","","","","html-button-response","49","2.0.0","517190","5fb0a3d6a8e4224b973e750b","1","22","1611","","","","","","","","","<img src= ""rock_img/I_Peridotite_08.jpg"" style=""width:8cm; height:6.7cm;""><p>What type of rock is this?</p>","1","class_response","0","test","22","Basalt","Peridotite","08","false","2","7","",""
"","","","","","","","","","","","html-keyboard-response","50","2.0.0","517702","5fb0a3d6a8e4224b973e750b","1","22","null","","","","","","","","","<p style='font-size: 30px;'><strong>Okay</strong></p>","null","neutral_feedback","0","test","22","","","","","","","",""
"","","","","","","","","","","","html-button-response","51","2.0.0","518916","5fb0a3d6a8e4224b973e750b","1","22","1212","","","","","","","","","<img src= ""rock_img/I_Pumice_09.jpg"" style=""width:8cm; height:6.44cm;""><p>What type of rock is this?</p>","3","class_response","0","test","23","Gabbro","Pumice","09","false","4","8","",""
"","","","","","","","","","","","html-keyboard-response","52","2.0.0","519424","5fb0a3d6a8e4224b973e750b","1","22","null","","","","","","","","","<p style='font-size: 30px;'><strong>Okay</strong></p>","null","neutral_feedback","0","test","23","","","","","","","",""
"","","","","","","","","","","","html-button-response","53","2.0.0","521115","5fb0a3d6a8e4224b973e750b","1","22","1689","","","","","","","","","<img src= ""rock_img/I_Obsidian_10.jpg"" style=""width:8cm; height:6.260000000000001cm;""><p>What type of rock is this?</p>","0","class_response","0","test","24","Andesite","Obsidian","10","false","1","5","",""
"","","","","","","","","","","","html-keyboard-response","54","2.0.0","521626","5fb0a3d6a8e4224b973e750b","1","22","null","","","","","","","","","<p style='font-size: 30px;'><strong>Okay</strong></p>","null","neutral_feedback","0","test","24","","","","","","","",""
"","","","","","","","","","","","html-button-response","55","2.0.0","523382","5fb0a3d6a8e4224b973e750b","1","22","1754","","","","","","","","","<img src= ""rock_img/I_Peridotite_13.jpg"" style=""width:8cm; height:7.58cm;""><p>What type of rock is this?</p>","5","class_response","0","test","25","Pegmatite","Peridotite","13","false","6","7","",""
"","","","","","","","","","","","html-keyboard-response","56","2.0.0","523892","5fb0a3d6a8e4224b973e750b","1","22","null","","","","","","","","","<p style='font-size: 30px;'><strong>Okay</strong></p>","null","neutral_feedback","0","test","25","","","","","","","",""
"","","","","","","","","","","","html-button-response","57","2.0.0","525029","5fb0a3d6a8e4224b973e750b","1","22","1135","","","","","","","","","<img src= ""rock_img/I_Basalt_16.jpg"" style=""width:8cm; height:7.659999999999999cm;""><p>What type of rock is this?</p>","6","class_response","0","test","26","Peridotite","Basalt","16","false","7","2","",""
"","","","","","","","","","","","html-keyboard-response","58","2.0.0","525538","5fb0a3d6a8e4224b973e750b","1","22","null","","","","","","","","","<p style='font-size: 30px;'><strong>Okay</strong></p>","null","neutral_feedback","0","test","26","","","","","","","",""
"","","","","","","","","","","","html-button-response","59","2.0.0","526647","5fb0a3d6a8e4224b973e750b","1","22","1106","","","","","","","","","<img src= ""rock_img/I_Andesite_02.jpg"" style=""width:8cm; height:8.5cm;""><p>What type of rock is this?</p>","1","class_response","0","test","27","Basalt","Andesite","02","false","2","1","",""
"","","","","","","","","","","","html-keyboard-response","60","2.0.0","527153","5fb0a3d6a8e4224b973e750b","1","22","null","","","","","","","","","<p style='font-size: 30px;'><strong>Okay</strong></p>","null","neutral_feedback","0","test","27","","","","","","","",""
"","","","","","","","","","","","html-button-response","61","2.0.0","528335","5fb0a3d6a8e4224b973e750b","1","22","1181","","","","","","","","","<img src= ""rock_img/I_Pegmatite_13.jpg"" style=""width:8cm; height:4.95cm;""><p>What type of rock is this?</p>","7","class_response","0","test","28","Pumice","Pegmatite","13","false","8","6","",""
"","","","","","","","","","","","html-keyboard-response","62","2.0.0","528843","5fb0a3d6a8e4224b973e750b","1","22","null","","","","","","","","","<p style='font-size: 30px;'><strong>Okay</strong></p>","null","neutral_feedback","0","test","28","","","","","","","",""
"","","","","","","","","","","","html-button-response","63","2.0.0","530844","5fb0a3d6a8e4224b973e750b","1","22","1999","","","","","","","","","<img src= ""rock_img/I_Peridotite_16.jpg"" style=""width:8cm; height:6.989999999999999cm;""><p>What type of rock is this?</p>","4","class_response","0","test","29","Obsidian","Peridotite","16","false","5","7","",""
"","","","","","","","","","","","html-keyboard-response","64","2.0.0","531351","5fb0a3d6a8e4224b973e750b","1","22","null","","","","","","","","","<p style='font-size: 30px;'><strong>Okay</strong></p>","null","neutral_feedback","0","test","29","","","","","","","",""
"","","","","","","","","","","","html-button-response","65","2.0.0","532405","5fb0a3d6a8e4224b973e750b","1","22","1052","","","","","","","","","<img src= ""rock_img/I_Diorite_11.jpg"" style=""width:8cm; height:7.11cm;""><p>What type of rock is this?</p>","6","class_response","0","test","30","Peridotite","Diorite","11","false","7","3","",""
"","","","","","","","","","","","html-keyboard-response","66","2.0.0","532917","5fb0a3d6a8e4224b973e750b","1","22","null","","","","","","","","","<p style='font-size: 30px;'><strong>Okay</strong></p>","null","neutral_feedback","0","test","30","","","","","","","",""
"","","","","","","","","","","","html-button-response","67","2.0.0","534502","5fb0a3d6a8e4224b973e750b","1","22","1582","","","","","","","","","<img src= ""rock_img/I_Gabbro_15.jpg"" style=""width:8cm; height:6.29cm;""><p>What type of rock is this?</p>","3","class_response","0","test","31","Gabbro","Gabbro","15","true","4","4","",""
"","","","","","","","","","","","html-keyboard-response","68","2.0.0","535011","5fb0a3d6a8e4224b973e750b","1","22","null","","","","","","","","","<p style='font-size: 30px;'><strong>Okay</strong></p>","null","neutral_feedback","0","test","31","","","","","","","",""
"","","","","","","","","","","","html-button-response","69","2.0.0","535911","5fb0a3d6a8e4224b973e750b","1","22","897","","","","","","","","","<img src= ""rock_img/I_Peridotite_02.jpg"" style=""width:8cm; height:5.859999999999999cm;""><p>What type of rock is this?</p>","7","class_response","0","test","32","Pumice","Peridotite","02","false","8","7","",""
"","","","","","","","","","","","html-keyboard-response","70","2.0.0","536422","5fb0a3d6a8e4224b973e750b","1","22","null","","","","","","","","","<p style='font-size: 30px;'><strong>Okay</strong></p>","null","neutral_feedback","0","test","32","","","","","","","",""
"","","","","","","","","","","","html-button-response","71","2.0.0","540011","5fb0a3d6a8e4224b973e750b","1","22","3587","","","","","","","","","<img src= ""rock_img/I_Obsidian_07.jpg"" style=""width:8cm; height:4.76cm;""><p>What type of rock is this?</p>","6","class_response","0","test","33","Peridotite","Obsidian","07","false","7","5","",""
"","","","","","","","","","","","html-keyboard-response","72","2.0.0","540519","5fb0a3d6a8e4224b973e750b","1","22","null","","","","","","","","","<p style='font-size: 30px;'><strong>Okay</strong></p>","null","neutral_feedback","0","test","33","","","","","","","",""
"","","","","","","","","","","","html-button-response","73","2.0.0","542197","5fb0a3d6a8e4224b973e750b","1","22","1676","","","","","","","","","<img src= ""rock_img/I_Peridotite_07.jpg"" style=""width:8cm; height:4.83cm;""><p>What type of rock is this?</p>","0","class_response","0","test","34","Andesite","Peridotite","07","false","1","7","",""
"","","","","","","","","","","","html-keyboard-response","74","2.0.0","542709","5fb0a3d6a8e4224b973e750b","1","22","null","","","","","","","","","<p style='font-size: 30px;'><strong>Okay</strong></p>","null","neutral_feedback","0","test","34","","","","","","","",""
"","","","","","","","","","","","html-button-response","75","2.0.0","545124","5fb0a3d6a8e4224b973e750b","1","22","2413","","","","","","","","","<img src= ""rock_img/I_Diorite_08.jpg"" style=""width:8cm; height:6.37cm;""><p>What type of rock is this?</p>","0","class_response","0","test","35","Andesite","Diorite","08","false","1","3","",""
"","","","","","","","","","","","html-keyboard-response","76","2.0.0","545636","5fb0a3d6a8e4224b973e750b","1","22","null","","","","","","","","","<p style='font-size: 30px;'><strong>Okay</strong></p>","null","neutral_feedback","0","test","35","","","","","","","",""
"","","","","","","","","","","","html-button-response","77","2.0.0","547251","5fb0a3d6a8e4224b973e750b","1","22","1613","","","","","","","","","<img src= ""rock_img/I_Basalt_08.jpg"" style=""width:8cm; height:10.44cm;""><p>What type of rock is this?</p>","4","class_response","0","test","36","Obsidian","Basalt","08","false","5","2","",""
"","","","","","","","","","","","html-keyboard-response","78","2.0.0","547763","5fb0a3d6a8e4224b973e750b","1","22","null","","","","","","","","","<p style='font-size: 30px;'><strong>Okay</strong></p>","null","neutral_feedback","0","test","36","","","","","","","",""
"","","","","","","","","","","","html-button-response","79","2.0.0","548850","5fb0a3d6a8e4224b973e750b","1","22","1084","","","","","","","","","<img src= ""rock_img/I_Pumice_15.jpg"" style=""width:8cm; height:7.86cm;""><p>What type of rock is this?</p>","6","class_response","0","test","37","Peridotite","Pumice","15","false","7","8","",""
"","","","","","","","","","","","html-keyboard-response","80","2.0.0","549357","5fb0a3d6a8e4224b973e750b","1","22","null","","","","","","","","","<p style='font-size: 30px;'><strong>Okay</strong></p>","null","neutral_feedback","0","test","37","","","","","","","",""
"","","","","","","","","","","","html-button-response","81","2.0.0","550846","5fb0a3d6a8e4224b973e750b","1","22","1487","","","","","","","","","<img src= ""rock_img/I_Pumice_02.jpg"" style=""width:8cm; height:7.3999999999999995cm;""><p>What type of rock is this?</p>","2","class_response","0","test","38","Diorite","Pumice","02","false","3","8","",""
"","","","","","","","","","","","html-keyboard-response","82","2.0.0","551357","5fb0a3d6a8e4224b973e750b","1","22","null","","","","","","","","","<p style='font-size: 30px;'><strong>Okay</strong></p>","null","neutral_feedback","0","test","38","","","","","","","",""
"","","","","","","","","","","","html-button-response","83","2.0.0","552351","5fb0a3d6a8e4224b973e750b","1","22","991","","","","","","","","","<img src= ""rock_img/I_Diorite_15.jpg"" style=""width:8cm; height:5.54cm;""><p>What type of rock is this?</p>","5","class_response","0","test","39","Pegmatite","Diorite","15","false","6","3","",""
"","","","","","","","","","","","html-keyboard-response","84","2.0.0","552861","5fb0a3d6a8e4224b973e750b","1","22","null","","","","","","","","","<p style='font-size: 30px;'><strong>Okay</strong></p>","null","neutral_feedback","0","test","39","","","","","","","",""
"","","","","","","","","","","","html-button-response","85","2.0.0","554400","5fb0a3d6a8e4224b973e750b","1","22","1538","","","","","","","","","<img src= ""rock_img/I_Gabbro_11.jpg"" style=""width:8cm; height:6.2cm;""><p>What type of rock is this?</p>","3","class_response","0","test","40","Gabbro","Gabbro","11","true","4","4","",""
"","","","","","","","","","","","html-keyboard-response","86","2.0.0","554907","5fb0a3d6a8e4224b973e750b","1","22","null","","","","","","","","","<p style='font-size: 30px;'><strong>Okay</strong></p>","null","neutral_feedback","0","test","40","","","","","","","",""
"","","","","","","","","","","","html-button-response","87","2.0.0","556526","5fb0a3d6a8e4224b973e750b","1","22","1617","","","","","","","","","<img src= ""rock_img/I_Obsidian_02.jpg"" style=""width:8cm; height:7.51cm;""><p>What type of rock is this?</p>","5","class_response","0","test","41","Pegmatite","Obsidian","02","false","6","5","",""
"","","","","","","","","","","","html-keyboard-response","88","2.0.0","557037","5fb0a3d6a8e4224b973e750b","1","22","null","","","","","","","","","<p style='font-size: 30px;'><strong>Okay</strong></p>","null","neutral_feedback","0","test","41","","","","","","","",""
"","","","","","","","","","","","html-button-response","89","2.0.0","558214","5fb0a3d6a8e4224b973e750b","1","22","1175","","","","","","","","","<img src= ""rock_img/I_Andesite_14.jpg"" style=""width:8cm; height:5.449999999999999cm;""><p>What type of rock is this?</p>","6","class_response","0","test","42","Peridotite","Andesite","14","false","7","1","",""
"","","","","","","","","","","","html-keyboard-response","90","2.0.0","558728","5fb0a3d6a8e4224b973e750b","1","22","null","","","","","","","","","<p style='font-size: 30px;'><strong>Okay</strong></p>","null","neutral_feedback","0","test","42","","","","","","","",""
"","","","","","","","","","","","html-button-response","91","2.0.0","559551","5fb0a3d6a8e4224b973e750b","1","22","820","","","","","","","","","<img src= ""rock_img/I_Basalt_05.jpg"" style=""width:8cm; height:8.18cm;""><p>What type of rock is this?</p>","3","class_response","0","test","43","Gabbro","Basalt","05","false","4","2","",""
"","","","","","","","","","","","html-keyboard-response","92","2.0.0","560061","5fb0a3d6a8e4224b973e750b","1","22","null","","","","","","","","","<p style='font-size: 30px;'><strong>Okay</strong></p>","null","neutral_feedback","0","test","43","","","","","","","",""
"","","","","","","","","","","","html-button-response","93","2.0.0","560942","5fb0a3d6a8e4224b973e750b","1","22","878","","","","","","","","","<img src= ""rock_img/I_Basalt_04.jpg"" style=""width:8cm; height:7.53cm;""><p>What type of rock is this?</p>","7","class_response","0","test","44","Pumice","Basalt","04","false","8","2","",""
"","","","","","","","","","","","html-keyboard-response","94","2.0.0","561451","5fb0a3d6a8e4224b973e750b","1","22","null","","","","","","","","","<p style='font-size: 30px;'><strong>Okay</strong></p>","null","neutral_feedback","0","test","44","","","","","","","",""
"","","","","","","","","","","","html-button-response","95","2.0.0","562155","5fb0a3d6a8e4224b973e750b","1","22","701","","","","","","","","","<img src= ""rock_img/I_Obsidian_12.jpg"" style=""width:8cm; height:6.53cm;""><p>What type of rock is this?</p>","1","class_response","0","test","45","Basalt","Obsidian","12","false","2","5","",""
"","","","","","","","","","","","html-keyboard-response","96","2.0.0","562660","5fb0a3d6a8e4224b973e750b","1","22","null","","","","","","","","","<p style='font-size: 30px;'><strong>Okay</strong></p>","null","neutral_feedback","0","test","45","","","","","","","",""
"","","","","","","","","","","","html-button-response","97","2.0.0","563367","5fb0a3d6a8e4224b973e750b","1","22","706","","","","","","","","","<img src= ""rock_img/I_Andesite_03.jpg"" style=""width:8cm; height:5.73cm;""><p>What type of rock is this?</p>","4","class_response","0","test","46","Obsidian","Andesite","03","false","5","1","",""
"","","","","","","","","","","","html-keyboard-response","98","2.0.0","563878","5fb0a3d6a8e4224b973e750b","1","22","null","","","","","","","","","<p style='font-size: 30px;'><strong>Okay</strong></p>","null","neutral_feedback","0","test","46","","","","","","","",""
"","","","","","","","","","","","html-button-response","99","2.0.0","565095","5fb0a3d6a8e4224b973e750b","1","22","1215","","","","","","","","","<img src= ""rock_img/I_Andesite_16.jpg"" style=""width:8cm; height:6.010000000000001cm;""><p>What type of rock is this?</p>","6","class_response","0","test","47","Peridotite","Andesite","16","false","7","1","",""
"","","","","","","","","","","","html-keyboard-response","100","2.0.0","565606","5fb0a3d6a8e4224b973e750b","1","22","null","","","","","","","","","<p style='font-size: 30px;'><strong>Okay</strong></p>","null","neutral_feedback","0","test","47","","","","","","","",""
"","","","","","","","","","","","html-button-response","101","2.0.0","566823","5fb0a3d6a8e4224b973e750b","1","22","1216","","","","","","","","","<img src= ""rock_img/I_Basalt_06.jpg"" style=""width:8cm; height:7.06cm;""><p>What type of rock is this?</p>","2","class_response","0","test","48","Diorite","Basalt","06","false","3","2","",""
"","","","","","","","","","","","html-keyboard-response","102","2.0.0","567335","5fb0a3d6a8e4224b973e750b","1","22","null","","","","","","","","","<p style='font-size: 30px;'><strong>Okay</strong></p>","null","neutral_feedback","0","test","48","","","","","","","",""
"","","","","","","","","","","","instructions","103","2.0.0","582774","5fb0a3d6a8e4224b973e750b","1","22","15407","","","","","","","","[{""page_index"":0,""viewing_time"":9023},{""page_index"":1,""viewing_time"":2466},{""page_index"":2,""viewing_time"":3917}]","","","","","","","","","","","","","",""
"","","","","","","","","","","","html-button-response","104","2.0.0","584810","5fb0a3d6a8e4224b973e750b","1","22","2034","","","","","","","","","","0","start_train","","","","","","","","","","",""
"","","","","","","","","","","","html-button-response","105","2.0.0","586343","5fb0a3d6a8e4224b973e750b","1","22","1529","","","","","","","","","<img src= ""rock_img/I_Peridotite_06.jpg"" style=""width:8cm; height:7.53cm;""><p>What type of rock is this?</p>","0","class_response","1","train","1","Andesite","Peridotite","06","false","1","7","",""
"","","","","","","","","","","","html-button-response","106","2.0.0","589320","5fb0a3d6a8e4224b973e750b","1","22","2974","","","","","","","","","<img src= rock_img/I_Peridotite_06.jpg style=""width:8cm; height:7.53cm;""><p style='font-size: 30px; color: red;'><strong>Incorrect!</strong></p><p style='font-size: 30px;'><strong>This rock is peridotite</strong></p>","0","corr_feedback","1","train","1","","","","","","","",""
"","","","","","","","","","","","html-button-response","107","2.0.0","591347","5fb0a3d6a8e4224b973e750b","1","22","2024","","","","","","","","","<img src= ""rock_img/I_Diorite_09.jpg"" style=""width:8cm; height:5.27cm;""><p>What type of rock is this?</p>","1","class_response","1","train","2","Basalt","Diorite","09","false","2","3","",""
"","","","","","","","","","","","html-button-response","108","2.0.0","594122","5fb0a3d6a8e4224b973e750b","1","22","2772","","","","","","","","","<img src= rock_img/I_Diorite_09.jpg style=""width:8cm; height:5.27cm;""><p style='font-size: 30px; color: red;'><strong>Incorrect!</strong></p><p style='font-size: 30px;'><strong>This rock is diorite</strong></p>","0","corr_feedback","1","train","2","","","","","","","",""
"","","","","","","","","","","","html-button-response","109","2.0.0","596622","5fb0a3d6a8e4224b973e750b","1","22","2498","","","","","","","","","<img src= ""rock_img/I_Diorite_13.jpg"" style=""width:8cm; height:6.29cm;""><p>What type of rock is this?</p>","2","class_response","1","train","3","Diorite","Diorite","13","true","3","3","",""
"","","","","","","","","","","","html-button-response","110","2.0.0","598097","5fb0a3d6a8e4224b973e750b","1","22","1473","","","","","","","","","<img src= rock_img/I_Diorite_13.jpg style=""width:8cm; height:6.29cm;""><p style='font-size: 30px; color: green;'><strong>Correct!</strong></p><p style='font-size: 30px;'><strong>This rock is diorite</strong></p>","0","corr_feedback","1","train","3","","","","","","","",""
"","","","","","","","","","","","html-button-response","111","2.0.0","600506","5fb0a3d6a8e4224b973e750b","1","22","2406","","","","","","","","","<img src= ""rock_img/I_Basalt_12.jpg"" style=""width:8cm; height:6.010000000000001cm;""><p>What type of rock is this?</p>","3","class_response","1","train","4","Gabbro","Basalt","12","false","4","2","",""
"","","","","","","","","","","","html-button-response","112","2.0.0","602783","5fb0a3d6a8e4224b973e750b","1","22","2275","","","","","","","","","<img src= rock_img/I_Basalt_12.jpg style=""width:8cm; height:6.010000000000001cm;""><p style='font-size: 30px; color: red;'><strong>Incorrect!</strong></p><p style='font-size: 30px;'><strong>This rock is basalt</strong></p>","0","corr_feedback","1","train","4","","","","","","","",""
"","","","","","","","","","","","html-button-response","113","2.0.0","604681","5fb0a3d6a8e4224b973e750b","1","22","1896","","","","","","","","","<img src= ""rock_img/I_Peridotite_04.jpg"" style=""width:8cm; height:6.680000000000001cm;""><p>What type of rock is this?</p>","6","class_response","1","train","5","Peridotite","Peridotite","04","true","7","7","",""
"","","","","","","","","","","","html-button-response","114","2.0.0","606107","5fb0a3d6a8e4224b973e750b","1","22","1424","","","","","","","","","<img src= rock_img/I_Peridotite_04.jpg style=""width:8cm; height:6.680000000000001cm;""><p style='font-size: 30px; color: green;'><strong>Correct!</strong></p><p style='font-size: 30px;'><strong>This rock is peridotite</strong></p>","0","corr_feedback","1","train","5","","","","","","","",""
"","","","","","","","","","","","html-button-response","115","2.0.0","610148","5fb0a3d6a8e4224b973e750b","1","22","4039","","","","","","","","","<img src= ""rock_img/I_Diorite_02.jpg"" style=""width:8cm; height:6.27cm;""><p>What type of rock is this?</p>","7","class_response","1","train","6","Pumice","Diorite","02","false","8","3","",""
"","","","","","","","","","","","html-button-response","116","2.0.0","611456","5fb0a3d6a8e4224b973e750b","1","22","1307","","","","","","","","","<img src= rock_img/I_Diorite_02.jpg style=""width:8cm; height:6.27cm;""><p style='font-size: 30px; color: red;'><strong>Incorrect!</strong></p><p style='font-size: 30px;'><strong>This rock is diorite</strong></p>","0","corr_feedback","1","train","6","","","","","","","",""
"","","","","","","","","","","","html-button-response","117","2.0.0","613608","5fb0a3d6a8e4224b973e750b","1","22","2151","","","","","","","","","<img src= ""rock_img/I_Andesite_01.jpg"" style=""width:8cm; height:5.87cm;""><p>What type of rock is this?</p>","2","class_response","1","train","7","Diorite","Andesite","01","false","3","1","",""
"","","","","","","","","","","","html-button-response","118","2.0.0","614934","5fb0a3d6a8e4224b973e750b","1","22","1324","","","","","","","","","<img src= rock_img/I_Andesite_01.jpg style=""width:8cm; height:5.87cm;""><p style='font-size: 30px; color: red;'><strong>Incorrect!</strong></p><p style='font-size: 30px;'><strong>This rock is andesite</strong></p>","0","corr_feedback","1","train","7","","","","","","","",""
"","","","","","","","","","","","html-button-response","119","2.0.0","617993","5fb0a3d6a8e4224b973e750b","1","22","3056","","","","","","","","","<img src= ""rock_img/I_Gabbro_14.jpg"" style=""width:8cm; height:8.48cm;""><p>What type of rock is this?</p>","0","class_response","1","train","8","Andesite","Gabbro","14","false","1","4","",""
"","","","","","","","","","","","html-button-response","120","2.0.0","619340","5fb0a3d6a8e4224b973e750b","1","22","1345","","","","","","","","","<img src= rock_img/I_Gabbro_14.jpg style=""width:8cm; height:8.48cm;""><p style='font-size: 30px; color: red;'><strong>Incorrect!</strong></p><p style='font-size: 30px;'><strong>This rock is gabbro</strong></p>","0","corr_feedback","1","train","8","","","","","","","",""
"","","","","","","","","","","","html-button-response","121","2.0.0","621905","5fb0a3d6a8e4224b973e750b","1","22","2562","","","","","","","","","<img src= ""rock_img/I_Peridotite_10.jpg"" style=""width:8cm; height:5.390000000000001cm;""><p>What type of rock is this?</p>","5","class_response","1","train","9","Pegmatite","Peridotite","10","false","6","7","",""
"","","","","","","","","","","","html-button-response","122","2.0.0","623146","5fb0a3d6a8e4224b973e750b","1","22","1239","","","","","","","","","<img src= rock_img/I_Peridotite_10.jpg style=""width:8cm; height:5.390000000000001cm;""><p style='font-size: 30px; color: red;'><strong>Incorrect!</strong></p><p style='font-size: 30px;'><strong>This rock is peridotite</strong></p>","0","corr_feedback","1","train","9","","","","","","","",""
"","","","","","","","","","","","html-button-response","123","2.0.0","625710","5fb0a3d6a8e4224b973e750b","1","22","2562","","","","","","","","","<img src= ""rock_img/I_Pumice_14.jpg"" style=""width:8cm; height:6.39cm;""><p>What type of rock is this?</p>","0","class_response","1","train","10","Andesite","Pumice","14","false","1","8","",""
"","","","","","","","","","","","html-button-response","124","2.0.0","626888","5fb0a3d6a8e4224b973e750b","1","22","1176","","","","","","","","","<img src= rock_img/I_Pumice_14.jpg style=""width:8cm; height:6.39cm;""><p style='font-size: 30px; color: red;'><strong>Incorrect!</strong></p><p style='font-size: 30px;'><strong>This rock is pumice</strong></p>","0","corr_feedback","1","train","10","","","","","","","",""
"","","","","","","","","","","","html-button-response","125","2.0.0","628551","5fb0a3d6a8e4224b973e750b","1","22","1661","","","","","","","","","<img src= ""rock_img/I_Obsidian_05.jpg"" style=""width:8cm; height:6.33cm;""><p>What type of rock is this?</p>","4","class_response","1","train","11","Obsidian","Obsidian","05","true","5","5","",""
"","","","","","","","","","","","html-button-response","126","2.0.0","629794","5fb0a3d6a8e4224b973e750b","1","22","1241","","","","","","","","","<img src= rock_img/I_Obsidian_05.jpg style=""width:8cm; height:6.33cm;""><p style='font-size: 30px; color: green;'><strong>Correct!</strong></p><p style='font-size: 30px;'><strong>This rock is obsidian</strong></p>","0","corr_feedback","1","train","11","","","","","","","",""
"","","","","","","","","","","","html-button-response","127","2.0.0","632142","5fb0a3d6a8e4224b973e750b","1","22","2345","","","","","","","","","<img src= ""rock_img/I_Diorite_10.jpg"" style=""width:8cm; height:5.949999999999999cm;""><p>What type of rock is this?</p>","3","class_response","1","train","12","Gabbro","Diorite","10","false","4","3","",""
"","","","","","","","","","","","html-button-response","128","2.0.0","633233","5fb0a3d6a8e4224b973e750b","1","22","1088","","","","","","","","","<img src= rock_img/I_Diorite_10.jpg style=""width:8cm; height:5.949999999999999cm;""><p style='font-size: 30px; color: red;'><strong>Incorrect!</strong></p><p style='font-size: 30px;'><strong>This rock is diorite</strong></p>","0","corr_feedback","1","train","12","","","","","","","",""
"","","","","","","","","","","","html-button-response","129","2.0.0","634797","5fb0a3d6a8e4224b973e750b","1","22","1562","","","","","","","","","<img src= ""rock_img/I_Obsidian_09.jpg"" style=""width:8cm; height:5cm;""><p>What type of rock is this?</p>","4","class_response","1","train","13","Obsidian","Obsidian","09","true","5","5","",""
"","","","","","","","","","","","html-button-response","130","2.0.0","635989","5fb0a3d6a8e4224b973e750b","1","22","1190","","","","","","","","","<img src= rock_img/I_Obsidian_09.jpg style=""width:8cm; height:5cm;""><p style='font-size: 30px; color: green;'><strong>Correct!</strong></p><p style='font-size: 30px;'><strong>This rock is obsidian</strong></p>","0","corr_feedback","1","train","13","","","","","","","",""
"","","","","","","","","","","","html-button-response","131","2.0.0","638194","5fb0a3d6a8e4224b973e750b","1","22","2204","","","","","","","","","<img src= ""rock_img/I_Basalt_02.jpg"" style=""width:8cm; height:6.45cm;""><p>What type of rock is this?</p>","6","class_response","1","train","14","Peridotite","Basalt","02","false","7","2","",""
"","","","","","","","","","","","html-button-response","132","2.0.0","639486","5fb0a3d6a8e4224b973e750b","1","22","1289","","","","","","","","","<img src= rock_img/I_Basalt_02.jpg style=""width:8cm; height:6.45cm;""><p style='font-size: 30px; color: red;'><strong>Incorrect!</strong></p><p style='font-size: 30px;'><strong>This rock is basalt</strong></p>","0","corr_feedback","1","train","14","","","","","","","",""
"","","","","","","","","","","","html-button-response","133","2.0.0","641670","5fb0a3d6a8e4224b973e750b","1","22","2182","","","","","","","","","<img src= ""rock_img/I_Basalt_09.jpg"" style=""width:8cm; height:6.2cm;""><p>What type of rock is this?</p>","1","class_response","1","train","15","Basalt","Basalt","09","true","2","2","",""
"","","","","","","","","","","","html-button-response","134","2.0.0","642666","5fb0a3d6a8e4224b973e750b","1","22","995","","","","","","","","","<img src= rock_img/I_Basalt_09.jpg style=""width:8cm; height:6.2cm;""><p style='font-size: 30px; color: green;'><strong>Correct!</strong></p><p style='font-size: 30px;'><strong>This rock is basalt</strong></p>","0","corr_feedback","1","train","15","","","","","","","",""
"","","","","","","","","","","","html-button-response","135","2.0.0","644560","5fb0a3d6a8e4224b973e750b","1","22","1891","","","","","","","","","<img src= ""rock_img/I_Diorite_06.jpg"" style=""width:8cm; height:6.03cm;""><p>What type of rock is this?</p>","2","class_response","1","train","16","Diorite","Diorite","06","true","3","3","",""
"","","","","","","","","","","","html-button-response","136","2.0.0","645677","5fb0a3d6a8e4224b973e750b","1","22","1114","","","","","","","","","<img src= rock_img/I_Diorite_06.jpg style=""width:8cm; height:6.03cm;""><p style='font-size: 30px; color: green;'><strong>Correct!</strong></p><p style='font-size: 30px;'><strong>This rock is diorite</strong></p>","0","corr_feedback","1","train","16","","","","","","","",""
"","","","","","","","","","","","html-button-response","137","2.0.0","647867","5fb0a3d6a8e4224b973e750b","1","22","2187","","","","","","","","","<img src= ""rock_img/I_Peridotite_15.jpg"" style=""width:8cm; height:6cm;""><p>What type of rock is this?</p>","0","class_response","1","train","17","Andesite","Peridotite","15","false","1","7","",""
"","","","","","","","","","","","html-button-response","138","2.0.0","648968","5fb0a3d6a8e4224b973e750b","1","22","1099","","","","","","","","","<img src= rock_img/I_Peridotite_15.jpg style=""width:8cm; height:6cm;""><p style='font-size: 30px; color: red;'><strong>Incorrect!</strong></p><p style='font-size: 30px;'><strong>This rock is peridotite</strong></p>","0","corr_feedback","1","train","17","","","","","","","",""
"","","","","","","","","","","","html-button-response","139","2.0.0","651603","5fb0a3d6a8e4224b973e750b","1","22","2632","","","","","","","","","<img src= ""rock_img/I_Pumice_13.jpg"" style=""width:8cm; height:8.200000000000001cm;""><p>What type of rock is this?</p>","5","class_response","1","train","18","Pegmatite","Pumice","13","false","6","8","",""
"","","","","","","","","","","","html-button-response","140","2.0.0","652702","5fb0a3d6a8e4224b973e750b","1","22","1096","","","","","","","","","<img src= rock_img/I_Pumice_13.jpg style=""width:8cm; height:8.200000000000001cm;""><p style='font-size: 30px; color: red;'><strong>Incorrect!</strong></p><p style='font-size: 30px;'><strong>This rock is pumice</strong></p>","0","corr_feedback","1","train","18","","","","","","","",""
"","","","","","","","","","","","html-button-response","141","2.0.0","655747","5fb0a3d6a8e4224b973e750b","1","22","3043","","","","","","","","","<img src= ""rock_img/I_Andesite_05.jpg"" style=""width:8cm; height:4.12cm;""><p>What type of rock is this?</p>","2","class_response","1","train","19","Diorite","Andesite","05","false","3","1","",""
"","","","","","","","","","","","html-button-response","142","2.0.0","656851","5fb0a3d6a8e4224b973e750b","1","22","1103","","","","","","","","","<img src= rock_img/I_Andesite_05.jpg style=""width:8cm; height:4.12cm;""><p style='font-size: 30px; color: red;'><strong>Incorrect!</strong></p><p style='font-size: 30px;'><strong>This rock is andesite</strong></p>","0","corr_feedback","1","train","19","","","","","","","",""
"","","","","","","","","","","","html-button-response","143","2.0.0","658417","5fb0a3d6a8e4224b973e750b","1","22","1563","","","","","","","","","<img src= ""rock_img/I_Pumice_16.jpg"" style=""width:8cm; height:6.79cm;""><p>What type of rock is this?</p>","7","class_response","1","train","20","Pumice","Pumice","16","true","8","8","",""
"","","","","","","","","","","","html-button-response","144","2.0.0","659610","5fb0a3d6a8e4224b973e750b","1","22","1190","","","","","","","","","<img src= rock_img/I_Pumice_16.jpg style=""width:8cm; height:6.79cm;""><p style='font-size: 30px; color: green;'><strong>Correct!</strong></p><p style='font-size: 30px;'><strong>This rock is pumice</strong></p>","0","corr_feedback","1","train","20","","","","","","","",""
"","","","","","","","","","","","html-button-response","145","2.0.0","661518","5fb0a3d6a8e4224b973e750b","1","22","1906","","","","","","","","","<img src= ""rock_img/I_Andesite_11.jpg"" style=""width:8cm; height:4.92cm;""><p>What type of rock is this?</p>","2","class_response","1","train","21","Diorite","Andesite","11","false","3","1","",""
"","","","","","","","","","","","html-button-response","146","2.0.0","662622","5fb0a3d6a8e4224b973e750b","1","22","1102","","","","","","","","","<img src= rock_img/I_Andesite_11.jpg style=""width:8cm; height:4.92cm;""><p style='font-size: 30px; color: red;'><strong>Incorrect!</strong></p><p style='font-size: 30px;'><strong>This rock is andesite</strong></p>","0","corr_feedback","1","train","21","","","","","","","",""
"","","","","","","","","","","","html-button-response","147","2.0.0","666456","5fb0a3d6a8e4224b973e750b","1","22","3831","","","","","","","","","<img src= ""rock_img/I_Pegmatite_12.jpg"" style=""width:8cm; height:5.7cm;""><p>What type of rock is this?</p>","6","class_response","1","train","22","Peridotite","Pegmatite","12","false","7","6","",""
"","","","","","","","","","","","html-button-response","148","2.0.0","667484","5fb0a3d6a8e4224b973e750b","1","22","1026","","","","","","","","","<img src= rock_img/I_Pegmatite_12.jpg style=""width:8cm; height:5.7cm;""><p style='font-size: 30px; color: red;'><strong>Incorrect!</strong></p><p style='font-size: 30px;'><strong>This rock is pegmatite</strong></p>","0","corr_feedback","1","train","22","","","","","","","",""
"","","","","","","","","","","","html-button-response","149","2.0.0","669595","5fb0a3d6a8e4224b973e750b","1","22","2109","","","","","","","","","<img src= ""rock_img/I_Peridotite_05.jpg"" style=""width:8cm; height:7.1499999999999995cm;""><p>What type of rock is this?</p>","2","class_response","1","train","23","Diorite","Peridotite","05","false","3","7","",""
"","","","","","","","","","","","html-button-response","150","2.0.0","670717","5fb0a3d6a8e4224b973e750b","1","22","1120","","","","","","","","","<img src= rock_img/I_Peridotite_05.jpg style=""width:8cm; height:7.1499999999999995cm;""><p style='font-size: 30px; color: red;'><strong>Incorrect!</strong></p><p style='font-size: 30px;'><strong>This rock is peridotite</strong></p>","0","corr_feedback","1","train","23","","","","","","","",""
"","","","","","","","","","","","html-button-response","151","2.0.0","673750","5fb0a3d6a8e4224b973e750b","1","22","3030","","","","","","","","","<img src= ""rock_img/I_Pegmatite_08.jpg"" style=""width:8cm; height:7.68cm;""><p>What type of rock is this?</p>","5","class_response","1","train","24","Pegmatite","Pegmatite","08","true","6","6","",""
"","","","","","","","","","","","html-button-response","152","2.0.0","674886","5fb0a3d6a8e4224b973e750b","1","22","1134","","","","","","","","","<img src= rock_img/I_Pegmatite_08.jpg style=""width:8cm; height:7.68cm;""><p style='font-size: 30px; color: green;'><strong>Correct!</strong></p><p style='font-size: 30px;'><strong>This rock is pegmatite</strong></p>","0","corr_feedback","1","train","24","","","","","","","",""
"","","","","","","","","","","","html-button-response","153","2.0.0","676347","5fb0a3d6a8e4224b973e750b","1","22","1458","","","","","","","","","<img src= ""rock_img/I_Obsidian_06.jpg"" style=""width:8cm; height:6.8cm;""><p>What type of rock is this?</p>","4","class_response","1","train","25","Obsidian","Obsidian","06","true","5","5","",""
"","","","","","","","","","","","html-button-response","154","2.0.0","677449","5fb0a3d6a8e4224b973e750b","1","22","1100","","","","","","","","","<img src= rock_img/I_Obsidian_06.jpg style=""width:8cm; height:6.8cm;""><p style='font-size: 30px; color: green;'><strong>Correct!</strong></p><p style='font-size: 30px;'><strong>This rock is obsidian</strong></p>","0","corr_feedback","1","train","25","","","","","","","",""
"","","","","","","","","","","","html-button-response","155","2.0.0","680894","5fb0a3d6a8e4224b973e750b","1","22","3441","","","","","","","","","<img src= ""rock_img/I_Gabbro_12.jpg"" style=""width:8cm; height:7.800000000000001cm;""><p>What type of rock is this?</p>","3","class_response","1","train","26","Gabbro","Gabbro","12","true","4","4","",""
"","","","","","","","","","","","html-button-response","156","2.0.0","681954","5fb0a3d6a8e4224b973e750b","1","22","1058","","","","","","","","","<img src= rock_img/I_Gabbro_12.jpg style=""width:8cm; height:7.800000000000001cm;""><p style='font-size: 30px; color: green;'><strong>Correct!</strong></p><p style='font-size: 30px;'><strong>This rock is gabbro</strong></p>","0","corr_feedback","1","train","26","","","","","","","",""
"","","","","","","","","","","","html-button-response","157","2.0.0","683724","5fb0a3d6a8e4224b973e750b","1","22","1767","","","","","","","","","<img src= ""rock_img/I_Andesite_09.jpg"" style=""width:8cm; height:6cm;""><p>What type of rock is this?</p>","3","class_response","1","train","27","Gabbro","Andesite","09","false","4","1","",""
"","","","","","","","","","","","html-button-response","158","2.0.0","684735","5fb0a3d6a8e4224b973e750b","1","22","1009","","","","","","","","","<img src= rock_img/I_Andesite_09.jpg style=""width:8cm; height:6cm;""><p style='font-size: 30px; color: red;'><strong>Incorrect!</strong></p><p style='font-size: 30px;'><strong>This rock is andesite</strong></p>","0","corr_feedback","1","train","27","","","","","","","",""
"","","","","","","","","","","","html-button-response","159","2.0.0","686223","5fb0a3d6a8e4224b973e750b","1","22","1485","","","","","","","","","<img src= ""rock_img/I_Obsidian_16.jpg"" style=""width:8cm; height:9.3cm;""><p>What type of rock is this?</p>","4","class_response","1","train","28","Obsidian","Obsidian","16","true","5","5","",""
"","","","","","","","","","","","html-button-response","160","2.0.0","687235","5fb0a3d6a8e4224b973e750b","1","22","1009","","","","","","","","","<img src= rock_img/I_Obsidian_16.jpg style=""width:8cm; height:9.3cm;""><p style='font-size: 30px; color: green;'><strong>Correct!</strong></p><p style='font-size: 30px;'><strong>This rock is obsidian</strong></p>","0","corr_feedback","1","train","28","","","","","","","",""
"","","","","","","","","","","","html-button-response","161","2.0.0","689878","5fb0a3d6a8e4224b973e750b","1","22","2640","","","","","","","","","<img src= ""rock_img/I_Pumice_06.jpg"" style=""width:8cm; height:6.9399999999999995cm;""><p>What type of rock is this?</p>","7","class_response","1","train","29","Pumice","Pumice","06","true","8","8","",""
"","","","","","","","","","","","html-button-response","162","2.0.0","690845","5fb0a3d6a8e4224b973e750b","1","22","965","","","","","","","","","<img src= rock_img/I_Pumice_06.jpg style=""width:8cm; height:6.9399999999999995cm;""><p style='font-size: 30px; color: green;'><strong>Correct!</strong></p><p style='font-size: 30px;'><strong>This rock is pumice</strong></p>","0","corr_feedback","1","train","29","","","","","","","",""
"","","","","","","","","","","","html-button-response","163","2.0.0","692593","5fb0a3d6a8e4224b973e750b","1","22","1747","","","","","","","","","<img src= ""rock_img/I_Andesite_07.jpg"" style=""width:8cm; height:5.93cm;""><p>What type of rock is this?</p>","2","class_response","1","train","30","Diorite","Andesite","07","false","3","1","",""
"","","","","","","","","","","","html-button-response","164","2.0.0","693526","5fb0a3d6a8e4224b973e750b","1","22","932","","","","","","","","","<img src= rock_img/I_Andesite_07.jpg style=""width:8cm; height:5.93cm;""><p style='font-size: 30px; color: red;'><strong>Incorrect!</strong></p><p style='font-size: 30px;'><strong>This rock is andesite</strong></p>","0","corr_feedback","1","train","30","","","","","","","",""
"","","","","","","","","","","","html-button-response","165","2.0.0","695961","5fb0a3d6a8e4224b973e750b","1","22","2432","","","","","","","","","<img src= ""rock_img/I_Pegmatite_07.jpg"" style=""width:8cm; height:6.7cm;""><p>What type of rock is this?</p>","5","class_response","1","train","31","Pegmatite","Pegmatite","07","true","6","6","",""
"","","","","","","","","","","","html-button-response","166","2.0.0","696926","5fb0a3d6a8e4224b973e750b","1","22","963","","","","","","","","","<img src= rock_img/I_Pegmatite_07.jpg style=""width:8cm; height:6.7cm;""><p style='font-size: 30px; color: green;'><strong>Correct!</strong></p><p style='font-size: 30px;'><strong>This rock is pegmatite</strong></p>","0","corr_feedback","1","train","31","","","","","","","",""
"","","","","","","","","","","","html-button-response","167","2.0.0","699003","5fb0a3d6a8e4224b973e750b","1","22","2075","","","","","","","","","<img src= ""rock_img/I_Gabbro_08.jpg"" style=""width:8cm; height:5.15cm;""><p>What type of rock is this?</p>","1","class_response","1","train","32","Basalt","Gabbro","08","false","2","4","",""
"","","","","","","","","","","","html-button-response","168","2.0.0","699949","5fb0a3d6a8e4224b973e750b","1","22","945","","","","","","","","","<img src= rock_img/I_Gabbro_08.jpg style=""width:8cm; height:5.15cm;""><p style='font-size: 30px; color: red;'><strong>Incorrect!</strong></p><p style='font-size: 30px;'><strong>This rock is gabbro</strong></p>","0","corr_feedback","1","train","32","","","","","","","",""
"","","","","","","","","","","","html-button-response","169","2.0.0","701757","5fb0a3d6a8e4224b973e750b","1","22","1806","","","","","","","","","<img src= ""rock_img/I_Peridotite_14.jpg"" style=""width:8cm; height:5.3cm;""><p>What type of rock is this?</p>","7","class_response","1","train","33","Pumice","Peridotite","14","false","8","7","",""
"","","","","","","","","","","","html-button-response","170","2.0.0","702767","5fb0a3d6a8e4224b973e750b","1","22","1009","","","","","","","","","<img src= rock_img/I_Peridotite_14.jpg style=""width:8cm; height:5.3cm;""><p style='font-size: 30px; color: red;'><strong>Incorrect!</strong></p><p style='font-size: 30px;'><strong>This rock is peridotite</strong></p>","0","corr_feedback","1","train","33","","","","","","","",""
"","","","","","","","","","","","html-button-response","171","2.0.0","704848","5fb0a3d6a8e4224b973e750b","1","22","2079","","","","","","","","","<img src= ""rock_img/I_Diorite_07.jpg"" style=""width:8cm; height:5.239999999999999cm;""><p>What type of rock is this?</p>","0","class_response","1","train","34","Andesite","Diorite","07","false","1","3","",""
"","","","","","","","","","","","html-button-response","172","2.0.0","705854","5fb0a3d6a8e4224b973e750b","1","22","1004","","","","","","","","","<img src= rock_img/I_Diorite_07.jpg style=""width:8cm; height:5.239999999999999cm;""><p style='font-size: 30px; color: red;'><strong>Incorrect!</strong></p><p style='font-size: 30px;'><strong>This rock is diorite</strong></p>","0","corr_feedback","1","train","34","","","","","","","",""
"","","","","","","","","","","","html-button-response","173","2.0.0","707533","5fb0a3d6a8e4224b973e750b","1","22","1677","","","","","","","","","<img src= ""rock_img/I_Pumice_03.jpg"" style=""width:8cm; height:6.64cm;""><p>What type of rock is this?</p>","3","class_response","1","train","35","Gabbro","Pumice","03","false","4","8","",""
"","","","","","","","","","","","html-button-response","174","2.0.0","708546","5fb0a3d6a8e4224b973e750b","1","22","1010","","","","","","","","","<img src= rock_img/I_Pumice_03.jpg style=""width:8cm; height:6.64cm;""><p style='font-size: 30px; color: red;'><strong>Incorrect!</strong></p><p style='font-size: 30px;'><strong>This rock is pumice</strong></p>","0","corr_feedback","1","train","35","","","","","","","",""
"","","","","","","","","","","","html-button-response","175","2.0.0","710469","5fb0a3d6a8e4224b973e750b","1","22","1921","","","","","","","","","<img src= ""rock_img/I_Basalt_14.jpg"" style=""width:8cm; height:5.82cm;""><p>What type of rock is this?</p>","7","class_response","1","train","36","Pumice","Basalt","14","false","8","2","",""
"","","","","","","","","","","","html-button-response","176","2.0.0","711495","5fb0a3d6a8e4224b973e750b","1","22","1023","","","","","","","","","<img src= rock_img/I_Basalt_14.jpg style=""width:8cm; height:5.82cm;""><p style='font-size: 30px; color: red;'><strong>Incorrect!</strong></p><p style='font-size: 30px;'><strong>This rock is basalt</strong></p>","0","corr_feedback","1","train","36","","","","","","","",""
"","","","","","","","","","","","html-button-response","177","2.0.0","712877","5fb0a3d6a8e4224b973e750b","1","22","1380","","","","","","","","","<img src= ""rock_img/I_Obsidian_04.jpg"" style=""width:8cm; height:6.930000000000001cm;""><p>What type of rock is this?</p>","4","class_response","1","train","37","Obsidian","Obsidian","04","true","5","5","",""
"","","","","","","","","","","","html-button-response","178","2.0.0","714181","5fb0a3d6a8e4224b973e750b","1","22","1302","","","","","","","","","<img src= rock_img/I_Obsidian_04.jpg style=""width:8cm; height:6.930000000000001cm;""><p style='font-size: 30px; color: green;'><strong>Correct!</strong></p><p style='font-size: 30px;'><strong>This rock is obsidian</strong></p>","0","corr_feedback","1","train","37","","","","","","","",""
"","","","","","","","","","","","html-button-response","179","2.0.0","717878","5fb0a3d6a8e4224b973e750b","1","22","3695","","","","","","","","","<img src= ""rock_img/I_Basalt_01.jpg"" style=""width:8cm; height:7.880000000000001cm;""><p>What type of rock is this?</p>","7","class_response","1","train","38","Pumice","Basalt","01","false","8","2","",""
"","","","","","","","","","","","html-button-response","180","2.0.0","718935","5fb0a3d6a8e4224b973e750b","1","22","1054","","","","","","","","","<img src= rock_img/I_Basalt_01.jpg style=""width:8cm; height:7.880000000000001cm;""><p style='font-size: 30px; color: red;'><strong>Incorrect!</strong></p><p style='font-size: 30px;'><strong>This rock is basalt</strong></p>","0","corr_feedback","1","train","38","","","","","","","",""
"","","","","","","","","","","","html-button-response","181","2.0.0","721050","5fb0a3d6a8e4224b973e750b","1","22","2112","","","","","","","","","<img src= ""rock_img/I_Gabbro_13.jpg"" style=""width:8cm; height:5.08cm;""><p>What type of rock is this?</p>","7","class_response","1","train","39","Pumice","Gabbro","13","false","8","4","",""
"","","","","","","","","","","","html-button-response","182","2.0.0","722111","5fb0a3d6a8e4224b973e750b","1","22","1058","","","","","","","","","<img src= rock_img/I_Gabbro_13.jpg style=""width:8cm; height:5.08cm;""><p style='font-size: 30px; color: red;'><strong>Incorrect!</strong></p><p style='font-size: 30px;'><strong>This rock is gabbro</strong></p>","0","corr_feedback","1","train","39","","","","","","","",""
"","","","","","","","","","","","html-button-response","183","2.0.0","723889","5fb0a3d6a8e4224b973e750b","1","22","1776","","","","","","","","","<img src= ""rock_img/I_Pegmatite_15.jpg"" style=""width:8cm; height:6cm;""><p>What type of rock is this?</p>","2","class_response","1","train","40","Diorite","Pegmatite","15","false","3","6","",""
"","","","","","","","","","","","html-button-response","184","2.0.0","724958","5fb0a3d6a8e4224b973e750b","1","22","1068","","","","","","","","","<img src= rock_img/I_Pegmatite_15.jpg style=""width:8cm; height:6cm;""><p style='font-size: 30px; color: red;'><strong>Incorrect!</strong></p><p style='font-size: 30px;'><strong>This rock is pegmatite</strong></p>","0","corr_feedback","1","train","40","","","","","","","",""
"","","","","","","","","","","","html-button-response","185","2.0.0","726532","5fb0a3d6a8e4224b973e750b","1","22","1572","","","","","","","","","<img src= ""rock_img/I_Pegmatite_05.jpg"" style=""width:8cm; height:7.300000000000001cm;""><p>What type of rock is this?</p>","5","class_response","1","train","41","Pegmatite","Pegmatite","05","true","6","6","",""
"","","","","","","","","","","","html-button-response","186","2.0.0","727521","5fb0a3d6a8e4224b973e750b","1","22","988","","","","","","","","","<img src= rock_img/I_Pegmatite_05.jpg style=""width:8cm; height:7.300000000000001cm;""><p style='font-size: 30px; color: green;'><strong>Correct!</strong></p><p style='font-size: 30px;'><strong>This rock is pegmatite</strong></p>","0","corr_feedback","1","train","41","","","","","","","",""
"","","","","","","","","","","","html-button-response","187","2.0.0","728751","5fb0a3d6a8e4224b973e750b","1","22","1229","","","","","","","","","<img src= ""rock_img/I_Pegmatite_09.jpg"" style=""width:8cm; height:4.03cm;""><p>What type of rock is this?</p>","5","class_response","1","train","42","Pegmatite","Pegmatite","09","true","6","6","",""
"","","","","","","","","","","","html-button-response","188","2.0.0","729624","5fb0a3d6a8e4224b973e750b","1","22","872","","","","","","","","","<img src= rock_img/I_Pegmatite_09.jpg style=""width:8cm; height:4.03cm;""><p style='font-size: 30px; color: green;'><strong>Correct!</strong></p><p style='font-size: 30px;'><strong>This rock is pegmatite</strong></p>","0","corr_feedback","1","train","42","","","","","","","",""
"","","","","","","","","","","","html-button-response","189","2.0.0","733958","5fb0a3d6a8e4224b973e750b","1","22","4333","","","","","","","","","<img src= ""rock_img/I_Pumice_10.jpg"" style=""width:8cm; height:7.609999999999999cm;""><p>What type of rock is this?</p>","1","class_response","1","train","43","Basalt","Pumice","10","false","2","8","",""
"","","","","","","","","","","","html-button-response","190","2.0.0","734906","5fb0a3d6a8e4224b973e750b","1","22","946","","","","","","","","","<img src= rock_img/I_Pumice_10.jpg style=""width:8cm; height:7.609999999999999cm;""><p style='font-size: 30px; color: red;'><strong>Incorrect!</strong></p><p style='font-size: 30px;'><strong>This rock is pumice</strong></p>","0","corr_feedback","1","train","43","","","","","","","",""
"","","","","","","","","","","","html-button-response","191","2.0.0","736283","5fb0a3d6a8e4224b973e750b","1","22","1374","","","","","","","","","<img src= ""rock_img/I_Obsidian_08.jpg"" style=""width:8cm; height:7.39cm;""><p>What type of rock is this?</p>","4","class_response","1","train","44","Obsidian","Obsidian","08","true","5","5","",""
"","","","","","","","","","","","html-button-response","192","2.0.0","737900","5fb0a3d6a8e4224b973e750b","1","22","1615","","","","","","","","","<img src= rock_img/I_Obsidian_08.jpg style=""width:8cm; height:7.39cm;""><p style='font-size: 30px; color: green;'><strong>Correct!</strong></p><p style='font-size: 30px;'><strong>This rock is obsidian</strong></p>","0","corr_feedback","1","train","44","","","","","","","",""
"","","","","","","","","","","","html-button-response","193","2.0.0","740735","5fb0a3d6a8e4224b973e750b","1","22","2833","","","","","","","","","<img src= ""rock_img/I_Andesite_10.jpg"" style=""width:8cm; height:4.16cm;""><p>What type of rock is this?</p>","7","class_response","1","train","45","Pumice","Andesite","10","false","8","1","",""
"","","","","","","","","","","","html-button-response","194","2.0.0","741712","5fb0a3d6a8e4224b973e750b","1","22","975","","","","","","","","","<img src= rock_img/I_Andesite_10.jpg style=""width:8cm; height:4.16cm;""><p style='font-size: 30px; color: red;'><strong>Incorrect!</strong></p><p style='font-size: 30px;'><strong>This rock is andesite</strong></p>","0","corr_feedback","1","train","45","","","","","","","",""
"","","","","","","","","","","","html-button-response","195","2.0.0","744087","5fb0a3d6a8e4224b973e750b","1","22","2374","","","","","","","","","<img src= ""rock_img/I_Gabbro_10.jpg"" style=""width:8cm; height:5.680000000000001cm;""><p>What type of rock is this?</p>","4","class_response","1","train","46","Obsidian","Gabbro","10","false","5","4","",""
"","","","","","","","","","","","html-button-response","196","2.0.0","744974","5fb0a3d6a8e4224b973e750b","1","22","885","","","","","","","","","<img src= rock_img/I_Gabbro_10.jpg style=""width:8cm; height:5.680000000000001cm;""><p style='font-size: 30px; color: red;'><strong>Incorrect!</strong></p><p style='font-size: 30px;'><strong>This rock is gabbro</strong></p>","0","corr_feedback","1","train","46","","","","","","","",""
"","","","","","","","","","","","html-button-response","197","2.0.0","746837","5fb0a3d6a8e4224b973e750b","1","22","1862","","","","","","","","","<img src= ""rock_img/I_Basalt_11.jpg"" style=""width:8cm; height:5.359999999999999cm;""><p>What type of rock is this?</p>","7","class_response","1","train","47","Pumice","Basalt","11","false","8","2","",""
"","","","","","","","","","","","html-button-response","198","2.0.0","747794","5fb0a3d6a8e4224b973e750b","1","22","956","","","","","","","","","<img src= rock_img/I_Basalt_11.jpg style=""width:8cm; height:5.359999999999999cm;""><p style='font-size: 30px; color: red;'><strong>Incorrect!</strong></p><p style='font-size: 30px;'><strong>This rock is basalt</strong></p>","0","corr_feedback","1","train","47","","","","","","","",""
"","","","","","","","","","","","html-button-response","199","2.0.0","750855","5fb0a3d6a8e4224b973e750b","1","22","3060","","","","","","","","","<img src= ""rock_img/I_Gabbro_01.jpg"" style=""width:8cm; height:5.21cm;""><p>What type of rock is this?</p>","1","class_response","1","train","48","Basalt","Gabbro","01","false","2","4","",""
"","","","","","","","","","","","html-button-response","200","2.0.0","755032","5fb0a3d6a8e4224b973e750b","1","22","4175","","","","","","","","","<img src= rock_img/I_Gabbro_01.jpg style=""width:8cm; height:5.21cm;""><p style='font-size: 30px; color: red;'><strong>Incorrect!</strong></p><p style='font-size: 30px;'><strong>This rock is gabbro</strong></p>","0","corr_feedback","1","train","48","","","","","","","",""
"","","","","","","","","","","","instructions","203","2.0.0","772644","5fb0a3d6a8e4224b973e750b","1","22","17610","","","","","","","","[{""page_index"":0,""viewing_time"":6535},{""page_index"":1,""viewing_time"":11075}]","","","","","","","","","","","","","",""
"","","","","","","","","","","","html-button-response","204","2.0.0","774679","5fb0a3d6a8e4224b973e750b","1","22","2032","","","","","","","","","","0","start_test","","","","","","","","","","",""
"","","","","","","","","","","","html-button-response","205","2.0.0","777129","5fb0a3d6a8e4224b973e750b","1","22","2447","","","","","","","","","<img src= ""rock_img/I_Pegmatite_11.jpg"" style=""width:8cm; height:8.14cm;""><p>What type of rock is this?</p>","2","class_response","1","test","1","Diorite","Pegmatite","11","false","3","6","",""
"","","","","","","","","","","","html-keyboard-response","206","2.0.0","777639","5fb0a3d6a8e4224b973e750b","1","22","null","","","","","","","","","<p style='font-size: 30px;'><strong>Okay</strong></p>","null","neutral_feedback","1","test","1","","","","","","","",""
"","","","","","","","","","","","html-button-response","207","2.0.0","782197","5fb0a3d6a8e4224b973e750b","1","22","4556","","","","","","","","","<img src= ""rock_img/I_Basalt_08.jpg"" style=""width:8cm; height:10.44cm;""><p>What type of rock is this?</p>","1","class_response","1","test","2","Basalt","Basalt","08","true","2","2","",""
"","","","","","","","","","","","html-keyboard-response","208","2.0.0","782706","5fb0a3d6a8e4224b973e750b","1","22","null","","","","","","","","","<p style='font-size: 30px;'><strong>Okay</strong></p>","null","neutral_feedback","1","test","2","","","","","","","",""
"","","","","","","","","","","","html-button-response","209","2.0.0","786048","5fb0a3d6a8e4224b973e750b","1","22","3339","","","","","","","","","<img src= ""rock_img/I_Pumice_15.jpg"" style=""width:8cm; height:7.86cm;""><p>What type of rock is this?</p>","6","class_response","1","test","3","Peridotite","Pumice","15","false","7","8","",""
"","","","","","","","","","","","html-keyboard-response","210","2.0.0","786557","5fb0a3d6a8e4224b973e750b","1","22","null","","","","","","","","","<p style='font-size: 30px;'><strong>Okay</strong></p>","null","neutral_feedback","1","test","3","","","","","","","",""
"","","","","","","","","","","","html-button-response","211","2.0.0","788657","5fb0a3d6a8e4224b973e750b","1","22","2097","","","","","","","","","<img src= ""rock_img/I_Pumice_09.jpg"" style=""width:8cm; height:6.44cm;""><p>What type of rock is this?</p>","5","class_response","1","test","4","Pegmatite","Pumice","09","false","6","8","",""
"","","","","","","","","","","","html-keyboard-response","212","2.0.0","789167","5fb0a3d6a8e4224b973e750b","1","22","null","","","","","","","","","<p style='font-size: 30px;'><strong>Okay</strong></p>","null","neutral_feedback","1","test","4","","","","","","","",""
"","","","","","","","","","","","html-button-response","213","2.0.0","790517","5fb0a3d6a8e4224b973e750b","1","22","1348","","","","","","","","","<img src= ""rock_img/I_Obsidian_10.jpg"" style=""width:8cm; height:6.260000000000001cm;""><p>What type of rock is this?</p>","4","class_response","1","test","5","Obsidian","Obsidian","10","true","5","5","",""
"","","","","","","","","","","","html-keyboard-response","214","2.0.0","791027","5fb0a3d6a8e4224b973e750b","1","22","null","","","","","","","","","<p style='font-size: 30px;'><strong>Okay</strong></p>","null","neutral_feedback","1","test","5","","","","","","","",""
"","","","","","","","","","","","html-button-response","215","2.0.0","792195","5fb0a3d6a8e4224b973e750b","1","22","1165","","","","","","","","","<img src= ""rock_img/I_Obsidian_02.jpg"" style=""width:8cm; height:7.51cm;""><p>What type of rock is this?</p>","4","class_response","1","test","6","Obsidian","Obsidian","02","true","5","5","",""
"","","","","","","","","","","","html-keyboard-response","216","2.0.0","792705","5fb0a3d6a8e4224b973e750b","1","22","null","","","","","","","","","<p style='font-size: 30px;'><strong>Okay</strong></p>","null","neutral_feedback","1","test","6","","","","","","","",""
"","","","","","","","","","","","html-button-response","217","2.0.0","794991","5fb0a3d6a8e4224b973e750b","1","22","2284","","","","","","","","","<img src= ""rock_img/I_Basalt_04.jpg"" style=""width:8cm; height:7.53cm;""><p>What type of rock is this?</p>","3","class_response","1","test","7","Gabbro","Basalt","04","false","4","2","",""
"","","","","","","","","","","","html-keyboard-response","218","2.0.0","795500","5fb0a3d6a8e4224b973e750b","1","22","null","","","","","","","","","<p style='font-size: 30px;'><strong>Okay</strong></p>","null","neutral_feedback","1","test","7","","","","","","","",""
"","","","","","","","","","","","html-button-response","219","2.0.0","799510","5fb0a3d6a8e4224b973e750b","1","22","4007","","","","","","","","","<img src= ""rock_img/I_Gabbro_09.jpg"" style=""width:8cm; height:7.279999999999999cm;""><p>What type of rock is this?</p>","1","class_response","1","test","8","Basalt","Gabbro","09","false","2","4","",""
"","","","","","","","","","","","html-keyboard-response","220","2.0.0","800019","5fb0a3d6a8e4224b973e750b","1","22","null","","","","","","","","","<p style='font-size: 30px;'><strong>Okay</strong></p>","null","neutral_feedback","1","test","8","","","","","","","",""
"","","","","","","","","","","","html-button-response","221","2.0.0","803285","5fb0a3d6a8e4224b973e750b","1","22","3265","","","","","","","","","<img src= ""rock_img/I_Basalt_05.jpg"" style=""width:8cm; height:8.18cm;""><p>What type of rock is this?</p>","7","class_response","1","test","9","Pumice","Basalt","05","false","8","2","",""
"","","","","","","","","","","","html-keyboard-response","222","2.0.0","803795","5fb0a3d6a8e4224b973e750b","1","22","null","","","","","","","","","<p style='font-size: 30px;'><strong>Okay</strong></p>","null","neutral_feedback","1","test","9","","","","","","","",""
"","","","","","","","","","","","html-button-response","223","2.0.0","805583","5fb0a3d6a8e4224b973e750b","1","22","1785","","","","","","","","","<img src= ""rock_img/I_Diorite_14.jpg"" style=""width:8cm; height:5.71cm;""><p>What type of rock is this?</p>","2","class_response","1","test","10","Diorite","Diorite","14","true","3","3","",""
"","","","","","","","","","","","html-keyboard-response","224","2.0.0","806094","5fb0a3d6a8e4224b973e750b","1","22","null","","","","","","","","","<p style='font-size: 30px;'><strong>Okay</strong></p>","null","neutral_feedback","1","test","10","","","","","","","",""
"","","","","","","","","","","","html-button-response","225","2.0.0","807823","5fb0a3d6a8e4224b973e750b","1","22","1726","","","","","","","","","<img src= ""rock_img/I_Diorite_15.jpg"" style=""width:8cm; height:5.54cm;""><p>What type of rock is this?</p>","0","class_response","1","test","11","Andesite","Diorite","15","false","1","3","",""
"","","","","","","","","","","","html-keyboard-response","226","2.0.0","808337","5fb0a3d6a8e4224b973e750b","1","22","null","","","","","","","","","<p style='font-size: 30px;'><strong>Okay</strong></p>","null","neutral_feedback","1","test","11","","","","","","","",""
"","","","","","","","","","","","html-button-response","227","2.0.0","810424","5fb0a3d6a8e4224b973e750b","1","22","2084","","","","","","","","","<img src= ""rock_img/I_Gabbro_15.jpg"" style=""width:8cm; height:6.29cm;""><p>What type of rock is this?</p>","5","class_response","1","test","12","Pegmatite","Gabbro","15","false","6","4","",""
"","","","","","","","","","","","html-keyboard-response","228","2.0.0","810933","5fb0a3d6a8e4224b973e750b","1","22","null","","","","","","","","","<p style='font-size: 30px;'><strong>Okay</strong></p>","null","neutral_feedback","1","test","12","","","","","","","",""
"","","","","","","","","","","","html-button-response","229","2.0.0","813653","5fb0a3d6a8e4224b973e750b","1","22","2716","","","","","","","","","<img src= ""rock_img/I_Pegmatite_16.jpg"" style=""width:8cm; height:5.8cm;""><p>What type of rock is this?</p>","6","class_response","1","test","13","Peridotite","Pegmatite","16","false","7","6","",""
"","","","","","","","","","","","html-keyboard-response","230","2.0.0","814161","5fb0a3d6a8e4224b973e750b","1","22","null","","","","","","","","","<p style='font-size: 30px;'><strong>Okay</strong></p>","null","neutral_feedback","1","test","13","","","","","","","",""
"","","","","","","","","","","","html-button-response","231","2.0.0","815856","5fb0a3d6a8e4224b973e750b","1","22","1692","","","","","","","","","<img src= ""rock_img/I_Basalt_16.jpg"" style=""width:8cm; height:7.659999999999999cm;""><p>What type of rock is this?</p>","3","class_response","1","test","14","Gabbro","Basalt","16","false","4","2","",""
"","","","","","","","","","","","html-keyboard-response","232","2.0.0","816369","5fb0a3d6a8e4224b973e750b","1","22","null","","","","","","","","","<p style='font-size: 30px;'><strong>Okay</strong></p>","null","neutral_feedback","1","test","14","","","","","","","",""
"","","","","","","","","","","","html-button-response","233","2.0.0","819457","5fb0a3d6a8e4224b973e750b","1","22","3086","","","","","","","","","<img src= ""rock_img/I_Gabbro_05.jpg"" style=""width:8cm; height:6cm;""><p>What type of rock is this?</p>","1","class_response","1","test","15","Basalt","Gabbro","05","false","2","4","",""
"","","","","","","","","","","","html-keyboard-response","234","2.0.0","819966","5fb0a3d6a8e4224b973e750b","1","22","null","","","","","","","","","<p style='font-size: 30px;'><strong>Okay</strong></p>","null","neutral_feedback","1","test","15","","","","","","","",""
"","","","","","","","","","","","html-button-response","235","2.0.0","821784","5fb0a3d6a8e4224b973e750b","1","22","1816","","","","","","","","","<img src= ""rock_img/I_Gabbro_16.jpg"" style=""width:8cm; height:6.44cm;""><p>What type of rock is this?</p>","7","class_response","1","test","16","Pumice","Gabbro","16","false","8","4","",""
"","","","","","","","","","","","html-keyboard-response","236","2.0.0","822297","5fb0a3d6a8e4224b973e750b","1","22","null","","","","","","","","","<p style='font-size: 30px;'><strong>Okay</strong></p>","null","neutral_feedback","1","test","16","","","","","","","",""
"","","","","","","","","","","","html-button-response","237","2.0.0","823650","5fb0a3d6a8e4224b973e750b","1","22","1349","","","","","","","","","<img src= ""rock_img/I_Obsidian_12.jpg"" style=""width:8cm; height:6.53cm;""><p>What type of rock is this?</p>","4","class_response","1","test","17","Obsidian","Obsidian","12","true","5","5","",""
"","","","","","","","","","","","html-keyboard-response","238","2.0.0","824157","5fb0a3d6a8e4224b973e750b","1","22","null","","","","","","","","","<p style='font-size: 30px;'><strong>Okay</strong></p>","null","neutral_feedback","1","test","17","","","","","","","",""
"","","","","","","","","","","","html-button-response","239","2.0.0","826579","5fb0a3d6a8e4224b973e750b","1","22","2419","","","","","","","","","<img src= ""rock_img/I_Andesite_16.jpg"" style=""width:8cm; height:6.010000000000001cm;""><p>What type of rock is this?</p>","2","class_response","1","test","18","Diorite","Andesite","16","false","3","1","",""
"","","","","","","","","","","","html-keyboard-response","240","2.0.0","827088","5fb0a3d6a8e4224b973e750b","1","22","null","","","","","","","","","<p style='font-size: 30px;'><strong>Okay</strong></p>","null","neutral_feedback","1","test","18","","","","","","","",""
"","","","","","","","","","","","html-button-response","241","2.0.0","828662","5fb0a3d6a8e4224b973e750b","1","22","1572","","","","","","","","","<img src= ""rock_img/I_Peridotite_12.jpg"" style=""width:8cm; height:4.54cm;""><p>What type of rock is this?</p>","2","class_response","1","test","19","Diorite","Peridotite","12","false","3","7","",""
"","","","","","","","","","","","html-keyboard-response","242","2.0.0","829172","5fb0a3d6a8e4224b973e750b","1","22","null","","","","","","","","","<p style='font-size: 30px;'><strong>Okay</strong></p>","null","neutral_feedback","1","test","19","","","","","","","",""
"","","","","","","","","","","","html-button-response","243","2.0.0","831165","5fb0a3d6a8e4224b973e750b","1","22","1992","","","","","","","","","<img src= ""rock_img/I_Pumice_05.jpg"" style=""width:8cm; height:7.25cm;""><p>What type of rock is this?</p>","6","class_response","1","test","20","Peridotite","Pumice","05","false","7","8","",""
"","","","","","","","","","","","html-keyboard-response","244","2.0.0","831679","5fb0a3d6a8e4224b973e750b","1","22","null","","","","","","","","","<p style='font-size: 30px;'><strong>Okay</strong></p>","null","neutral_feedback","1","test","20","","","","","","","",""
"","","","","","","","","","","","html-button-response","245","2.0.0","833272","5fb0a3d6a8e4224b973e750b","1","22","1592","","","","","","","","","<img src= ""rock_img/I_Pegmatite_03.jpg"" style=""width:8cm; height:5.239999999999999cm;""><p>What type of rock is this?</p>","2","class_response","1","test","21","Diorite","Pegmatite","03","false","3","6","",""
"","","","","","","","","","","","html-keyboard-response","246","2.0.0","833785","5fb0a3d6a8e4224b973e750b","1","22","null","","","","","","","","","<p style='font-size: 30px;'><strong>Okay</strong></p>","null","neutral_feedback","1","test","21","","","","","","","",""
"","","","","","","","","","","","html-button-response","247","2.0.0","836569","5fb0a3d6a8e4224b973e750b","1","22","2782","","","","","","","","","<img src= ""rock_img/I_Andesite_04.jpg"" style=""width:8cm; height:5.96cm;""><p>What type of rock is this?</p>","0","class_response","1","test","22","Andesite","Andesite","04","true","1","1","",""
"","","","","","","","","","","","html-keyboard-response","248","2.0.0","837079","5fb0a3d6a8e4224b973e750b","1","22","null","","","","","","","","","<p style='font-size: 30px;'><strong>Okay</strong></p>","null","neutral_feedback","1","test","22","","","","","","","",""
"","","","","","","","","","","","html-button-response","249","2.0.0","839026","5fb0a3d6a8e4224b973e750b","1","22","1944","","","","","","","","","<img src= ""rock_img/I_Diorite_11.jpg"" style=""width:8cm; height:7.11cm;""><p>What type of rock is this?</p>","1","class_response","1","test","23","Basalt","Diorite","11","false","2","3","",""
"","","","","","","","","","","","html-keyboard-response","250","2.0.0","839535","5fb0a3d6a8e4224b973e750b","1","22","null","","","","","","","","","<p style='font-size: 30px;'><strong>Okay</strong></p>","null","neutral_feedback","1","test","23","","","","","","","",""
"","","","","","","","","","","","html-button-response","251","2.0.0","841090","5fb0a3d6a8e4224b973e750b","1","22","1553","","","","","","","","","<img src= ""rock_img/I_Pegmatite_13.jpg"" style=""width:8cm; height:4.95cm;""><p>What type of rock is this?</p>","5","class_response","1","test","24","Pegmatite","Pegmatite","13","true","6","6","",""
"","","","","","","","","","","","html-keyboard-response","252","2.0.0","841604","5fb0a3d6a8e4224b973e750b","1","22","null","","","","","","","","","<p style='font-size: 30px;'><strong>Okay</strong></p>","null","neutral_feedback","1","test","24","","","","","","","",""
"","","","","","","","","","","","html-button-response","253","2.0.0","843034","5fb0a3d6a8e4224b973e750b","1","22","1427","","","","","","","","","<img src= ""rock_img/I_Obsidian_07.jpg"" style=""width:8cm; height:4.76cm;""><p>What type of rock is this?</p>","4","class_response","1","test","25","Obsidian","Obsidian","07","true","5","5","",""
"","","","","","","","","","","","html-keyboard-response","254","2.0.0","843541","5fb0a3d6a8e4224b973e750b","1","22","null","","","","","","","","","<p style='font-size: 30px;'><strong>Okay</strong></p>","null","neutral_feedback","1","test","25","","","","","","","",""
"","","","","","","","","","","","html-button-response","255","2.0.0","846451","5fb0a3d6a8e4224b973e750b","1","22","2908","","","","","","","","","<img src= ""rock_img/I_Peridotite_16.jpg"" style=""width:8cm; height:6.989999999999999cm;""><p>What type of rock is this?</p>","2","class_response","1","test","26","Diorite","Peridotite","16","false","3","7","",""
"","","","","","","","","","","","html-keyboard-response","256","2.0.0","846963","5fb0a3d6a8e4224b973e750b","1","22","null","","","","","","","","","<p style='font-size: 30px;'><strong>Okay</strong></p>","null","neutral_feedback","1","test","26","","","","","","","",""
"","","","","","","","","","","","html-button-response","257","2.0.0","848986","5fb0a3d6a8e4224b973e750b","1","22","2021","","","","","","","","","<img src= ""rock_img/I_Gabbro_03.jpg"" style=""width:8cm; height:8.52cm;""><p>What type of rock is this?</p>","7","class_response","1","test","27","Pumice","Gabbro","03","false","8","4","",""
"","","","","","","","","","","","html-keyboard-response","258","2.0.0","849493","5fb0a3d6a8e4224b973e750b","1","22","null","","","","","","","","","<p style='font-size: 30px;'><strong>Okay</strong></p>","null","neutral_feedback","1","test","27","","","","","","","",""
"","","","","","","","","","","","html-button-response","259","2.0.0","851844","5fb0a3d6a8e4224b973e750b","1","22","2349","","","","","","","","","<img src= ""rock_img/I_Diorite_08.jpg"" style=""width:8cm; height:6.37cm;""><p>What type of rock is this?</p>","2","class_response","1","test","28","Diorite","Diorite","08","true","3","3","",""
"","","","","","","","","","","","html-keyboard-response","260","2.0.0","852352","5fb0a3d6a8e4224b973e750b","1","22","null","","","","","","","","","<p style='font-size: 30px;'><strong>Okay</strong></p>","null","neutral_feedback","1","test","28","","","","","","","",""
"","","","","","","","","","","","html-button-response","261","2.0.0","854032","5fb0a3d6a8e4224b973e750b","1","22","1678","","","","","","","","","<img src= ""rock_img/I_Andesite_03.jpg"" style=""width:8cm; height:5.73cm;""><p>What type of rock is this?</p>","6","class_response","1","test","29","Peridotite","Andesite","03","false","7","1","",""
"","","","","","","","","","","","html-keyboard-response","262","2.0.0","854543","5fb0a3d6a8e4224b973e750b","1","22","null","","","","","","","","","<p style='font-size: 30px;'><strong>Okay</strong></p>","null","neutral_feedback","1","test","29","","","","","","","",""
"","","","","","","","","","","","html-button-response","263","2.0.0","856840","5fb0a3d6a8e4224b973e750b","1","22","2294","","","","","","","","","<img src= ""rock_img/I_Peridotite_02.jpg"" style=""width:8cm; height:5.859999999999999cm;""><p>What type of rock is this?</p>","5","class_response","1","test","30","Pegmatite","Peridotite","02","false","6","7","",""
"","","","","","","","","","","","html-keyboard-response","264","2.0.0","857351","5fb0a3d6a8e4224b973e750b","1","22","null","","","","","","","","","<p style='font-size: 30px;'><strong>Okay</strong></p>","null","neutral_feedback","1","test","30","","","","","","","",""
"","","","","","","","","","","","html-button-response","265","2.0.0","858755","5fb0a3d6a8e4224b973e750b","1","22","1401","","","","","","","","","<img src= ""rock_img/I_Pumice_02.jpg"" style=""width:8cm; height:7.3999999999999995cm;""><p>What type of rock is this?</p>","0","class_response","1","test","31","Andesite","Pumice","02","false","1","8","",""
"","","","","","","","","","","","html-keyboard-response","266","2.0.0","859262","5fb0a3d6a8e4224b973e750b","1","22","null","","","","","","","","","<p style='font-size: 30px;'><strong>Okay</strong></p>","null","neutral_feedback","1","test","31","","","","","","","",""
"","","","","","","","","","","","html-button-response","267","2.0.0","861300","5fb0a3d6a8e4224b973e750b","1","22","2034","","","","","","","","","<img src= ""rock_img/I_Peridotite_07.jpg"" style=""width:8cm; height:4.83cm;""><p>What type of rock is this?</p>","3","class_response","1","test","32","Gabbro","Peridotite","07","false","4","7","",""
"","","","","","","","","","","","html-keyboard-response","268","2.0.0","861813","5fb0a3d6a8e4224b973e750b","1","22","null","","","","","","","","","<p style='font-size: 30px;'><strong>Okay</strong></p>","null","neutral_feedback","1","test","32","","","","","","","",""
"","","","","","","","","","","","html-button-response","269","2.0.0","863255","5fb0a3d6a8e4224b973e750b","1","22","1440","","","","","","","","","<img src= ""rock_img/I_Pumice_08.jpg"" style=""width:8cm; height:6.67cm;""><p>What type of rock is this?</p>","7","class_response","1","test","33","Pumice","Pumice","08","true","8","8","",""
"","","","","","","","","","","","html-keyboard-response","270","2.0.0","863765","5fb0a3d6a8e4224b973e750b","1","22","null","","","","","","","","","<p style='font-size: 30px;'><strong>Okay</strong></p>","null","neutral_feedback","1","test","33","","","","","","","",""
"","","","","","","","","","","","html-button-response","271","2.0.0","865013","5fb0a3d6a8e4224b973e750b","1","22","1244","","","","","","","","","<img src= ""rock_img/I_Andesite_06.jpg"" style=""width:8cm; height:6.840000000000001cm;""><p>What type of rock is this?</p>","6","class_response","1","test","34","Peridotite","Andesite","06","false","7","1","",""
"","","","","","","","","","","","html-keyboard-response","272","2.0.0","865523","5fb0a3d6a8e4224b973e750b","1","22","null","","","","","","","","","<p style='font-size: 30px;'><strong>Okay</strong></p>","null","neutral_feedback","1","test","34","","","","","","","",""
"","","","","","","","","","","","html-button-response","273","2.0.0","866811","5fb0a3d6a8e4224b973e750b","1","22","1285","","","","","","","","","<img src= ""rock_img/I_Diorite_16.jpg"" style=""width:8cm; height:6.74cm;""><p>What type of rock is this?</p>","2","class_response","1","test","35","Diorite","Diorite","16","true","3","3","",""
"","","","","","","","","","","","html-keyboard-response","274","2.0.0","867320","5fb0a3d6a8e4224b973e750b","1","22","null","","","","","","","","","<p style='font-size: 30px;'><strong>Okay</strong></p>","null","neutral_feedback","1","test","35","","","","","","","",""
"","","","","","","","","","","","html-button-response","275","2.0.0","868626","5fb0a3d6a8e4224b973e750b","1","22","1303","","","","","","","","","<img src= ""rock_img/I_Pegmatite_06.jpg"" style=""width:8cm; height:5.17cm;""><p>What type of rock is this?</p>","1","class_response","1","test","36","Basalt","Pegmatite","06","false","2","6","",""
"","","","","","","","","","","","html-keyboard-response","276","2.0.0","869130","5fb0a3d6a8e4224b973e750b","1","22","null","","","","","","","","","<p style='font-size: 30px;'><strong>Okay</strong></p>","null","neutral_feedback","1","test","36","","","","","","","",""
"","","","","","","","","","","","html-button-response","277","2.0.0","871161","5fb0a3d6a8e4224b973e750b","1","22","2028","","","","","","","","","<img src= ""rock_img/I_Peridotite_08.jpg"" style=""width:8cm; height:6.7cm;""><p>What type of rock is this?</p>","1","class_response","1","test","37","Basalt","Peridotite","08","false","2","7","",""
"","","","","","","","","","","","html-keyboard-response","278","2.0.0","871670","5fb0a3d6a8e4224b973e750b","1","22","null","","","","","","","","","<p style='font-size: 30px;'><strong>Okay</strong></p>","null","neutral_feedback","1","test","37","","","","","","","",""
"","","","","","","","","","","","html-button-response","279","2.0.0","873129","5fb0a3d6a8e4224b973e750b","1","22","1457","","","","","","","","","<img src= ""rock_img/I_Andesite_14.jpg"" style=""width:8cm; height:5.449999999999999cm;""><p>What type of rock is this?</p>","5","class_response","1","test","38","Pegmatite","Andesite","14","false","6","1","",""
"","","","","","","","","","","","html-keyboard-response","280","2.0.0","873640","5fb0a3d6a8e4224b973e750b","1","22","null","","","","","","","","","<p style='font-size: 30px;'><strong>Okay</strong></p>","null","neutral_feedback","1","test","38","","","","","","","",""
"","","","","","","","","","","","html-button-response","281","2.0.0","876623","5fb0a3d6a8e4224b973e750b","1","22","2980","","","","","","","","","<img src= ""rock_img/I_Basalt_10.jpg"" style=""width:8cm; height:5.85cm;""><p>What type of rock is this?</p>","3","class_response","1","test","39","Gabbro","Basalt","10","false","4","2","",""
"","","","","","","","","","","","html-keyboard-response","282","2.0.0","877132","5fb0a3d6a8e4224b973e750b","1","22","null","","","","","","","","","<p style='font-size: 30px;'><strong>Okay</strong></p>","null","neutral_feedback","1","test","39","","","","","","","",""
"","","","","","","","","","","","html-button-response","283","2.0.0","878409","5fb0a3d6a8e4224b973e750b","1","22","1275","","","","","","","","","<img src= ""rock_img/I_Basalt_06.jpg"" style=""width:8cm; height:7.06cm;""><p>What type of rock is this?</p>","3","class_response","1","test","40","Gabbro","Basalt","06","false","4","2","",""
"","","","","","","","","","","","html-keyboard-response","284","2.0.0","878923","5fb0a3d6a8e4224b973e750b","1","22","null","","","","","","","","","<p style='font-size: 30px;'><strong>Okay</strong></p>","null","neutral_feedback","1","test","40","","","","","","","",""
"","","","","","","","","","","","html-button-response","285","2.0.0","880526","5fb0a3d6a8e4224b973e750b","1","22","1600","","","","","","","","","<img src= ""rock_img/I_Obsidian_11.jpg"" style=""width:8cm; height:6.05cm;""><p>What type of rock is this?</p>","4","class_response","1","test","41","Obsidian","Obsidian","11","true","5","5","",""
"","","","","","","","","","","","html-keyboard-response","286","2.0.0","881033","5fb0a3d6a8e4224b973e750b","1","22","null","","","","","","","","","<p style='font-size: 30px;'><strong>Okay</strong></p>","null","neutral_feedback","1","test","41","","","","","","","",""
"","","","","","","","","","","","html-button-response","287","2.0.0","882723","5fb0a3d6a8e4224b973e750b","1","22","1688","","","","","","","","","<img src= ""rock_img/I_Gabbro_11.jpg"" style=""width:8cm; height:6.2cm;""><p>What type of rock is this?</p>","6","class_response","1","test","42","Peridotite","Gabbro","11","false","7","4","",""
"","","","","","","","","","","","html-keyboard-response","288","2.0.0","883232","5fb0a3d6a8e4224b973e750b","1","22","null","","","","","","","","","<p style='font-size: 30px;'><strong>Okay</strong></p>","null","neutral_feedback","1","test","42","","","","","","","",""
"","","","","","","","","","","","html-button-response","289","2.0.0","885739","5fb0a3d6a8e4224b973e750b","1","22","2505","","","","","","","","","<img src= ""rock_img/I_Andesite_02.jpg"" style=""width:8cm; height:8.5cm;""><p>What type of rock is this?</p>","1","class_response","1","test","43","Basalt","Andesite","02","false","2","1","",""
"","","","","","","","","","","","html-keyboard-response","290","2.0.0","886254","5fb0a3d6a8e4224b973e750b","1","22","null","","","","","","","","","<p style='font-size: 30px;'><strong>Okay</strong></p>","null","neutral_feedback","1","test","43","","","","","","","",""
"","","","","","","","","","","","html-button-response","291","2.0.0","887836","5fb0a3d6a8e4224b973e750b","1","22","1581","","","","","","","","","<img src= ""rock_img/I_Obsidian_14.jpg"" style=""width:8cm; height:7.64cm;""><p>What type of rock is this?</p>","4","class_response","1","test","44","Obsidian","Obsidian","14","true","5","5","",""
"","","","","","","","","","","","html-keyboard-response","292","2.0.0","888343","5fb0a3d6a8e4224b973e750b","1","22","null","","","","","","","","","<p style='font-size: 30px;'><strong>Okay</strong></p>","null","neutral_feedback","1","test","44","","","","","","","",""
"","","","","","","","","","","","html-button-response","293","2.0.0","890078","5fb0a3d6a8e4224b973e750b","1","22","1732","","","","","","","","","<img src= ""rock_img/I_Diorite_12.jpg"" style=""width:8cm; height:4.88cm;""><p>What type of rock is this?</p>","6","class_response","1","test","45","Peridotite","Diorite","12","false","7","3","",""
"","","","","","","","","","","","html-keyboard-response","294","2.0.0","890584","5fb0a3d6a8e4224b973e750b","1","22","null","","","","","","","","","<p style='font-size: 30px;'><strong>Okay</strong></p>","null","neutral_feedback","1","test","45","","","","","","","",""
"","","","","","","","","","","","html-button-response","295","2.0.0","892293","5fb0a3d6a8e4224b973e750b","1","22","1707","","","","","","","","","<img src= ""rock_img/I_Pumice_04.jpg"" style=""width:8cm; height:6.819999999999999cm;""><p>What type of rock is this?</p>","0","class_response","1","test","46","Andesite","Pumice","04","false","1","8","",""
"","","","","","","","","","","","html-keyboard-response","296","2.0.0","892804","5fb0a3d6a8e4224b973e750b","1","22","null","","","","","","","","","<p style='font-size: 30px;'><strong>Okay</strong></p>","null","neutral_feedback","1","test","46","","","","","","","",""
"","","","","","","","","","","","html-button-response","297","2.0.0","895908","5fb0a3d6a8e4224b973e750b","1","22","3102","","","","","","","","","<img src= ""rock_img/I_Pegmatite_10.jpg"" style=""width:8cm; height:4.16cm;""><p>What type of rock is this?</p>","5","class_response","1","test","47","Pegmatite","Pegmatite","10","true","6","6","",""
"","","","","","","","","","","","html-keyboard-response","298","2.0.0","896417","5fb0a3d6a8e4224b973e750b","1","22","null","","","","","","","","","<p style='font-size: 30px;'><strong>Okay</strong></p>","null","neutral_feedback","1","test","47","","","","","","","",""
"","","","","","","","","","","","html-button-response","299","2.0.0","899527","5fb0a3d6a8e4224b973e750b","1","22","3108","","","","","","","","","<img src= ""rock_img/I_Peridotite_13.jpg"" style=""width:8cm; height:7.58cm;""><p>What type of rock is this?</p>","3","class_response","1","test","48","Gabbro","Peridotite","13","false","4","7","",""
"","","","","","","","","","","","html-keyboard-response","300","2.0.0","900038","5fb0a3d6a8e4224b973e750b","1","22","null","","","","","","","","","<p style='font-size: 30px;'><strong>Okay</strong></p>","null","neutral_feedback","1","test","48","","","","","","","",""
"","","","","","","","","","","","html-button-response","301","2.0.0","919061","5fb0a3d6a8e4224b973e750b","1","22","","","","","","","","","","","","cycle_feedback","","","","","","","","","","9882.199999988079","9134.600000023842"
"","","","","","","","","","","","html-button-response","303","2.0.0","920663","5fb0a3d6a8e4224b973e750b","1","22","1599","","","","","","","","","","0","start_train","","","","","","","","","","",""
"","","","","","","","","","","","html-button-response","304","2.0.0","922358","5fb0a3d6a8e4224b973e750b","1","22","1693","","","","","","","","","<img src= ""rock_img/I_Diorite_02.jpg"" style=""width:8cm; height:6.27cm;""><p>What type of rock is this?</p>","2","class_response","2","train","1","Diorite","Diorite","02","true","3","3","",""
