"width","height","webaudio","browser","browser_version","mobile","os","fullscreen","vsync_rate","webcam","microphone","trial_type","trial_index","plugin_version","time_elapsed","subjID","condition","stimID","rt","url","success","value","timeout","failed_images","failed_audio","failed_video","view_history","stimulus","response","trialType","cycle","phase","trial","resp","cat","token","corr","resp_num","cat_num","ref_cat_num","paired_cat_num","time_obs","ref_cat","paired_cat","ref_prob_dist","paired_prob_dist","text_Pegmatite","text_Peridotite","time_resp"
"674","616","true","firefox","132.0.0","false","Windows 10","true","60.18","true","true","browser-check","0","2.0.0","1011","5f6a47e882e9cd0e1d6bbb8a","3","15","","","","","","","","","","","","","","","","","","","","","","","","","","","","","","",""
"","","","","","","","","","","","external-html","1","2.0.0","73051","5f6a47e882e9cd0e1d6bbb8a","3","15","71920","consent_form.html","","","","","","","","","","","","","","","","","","","","","","","","","","","","",""
"","","","","","","","","","","","fullscreen","2","2.0.0","76804","5f6a47e882e9cd0e1d6bbb8a","3","15","2748","","true","","","","","","","","","","","","","","","","","","","","","","","","","","","",""
"","","","","","","","","","","","call-function","3","2.0.0","76806","5f6a47e882e9cd0e1d6bbb8a","3","15","","","","{}","","","","","","","","","","","","","","","","","","","","","","","","","","",""
"","","","","","","","","","","","preload","4","2.0.0","86617","5f6a47e882e9cd0e1d6bbb8a","3","15","","","true","","false","[]","[]","[]","","","","","","","","","","","","","","","","","","","","","","",""
"","","","","","","","","","","","instructions","5","2.0.0","131817","5f6a47e882e9cd0e1d6bbb8a","3","15","45200","","","","","","","","[{""page_index"":0,""viewing_time"":10206},{""page_index"":1,""viewing_time"":24986},{""page_index"":2,""viewing_time"":10008}]","","","","","","","","","","","","","","","","","","","","","",""
"","","","","","","","","","","","html-button-response","6","2.0.0","134856","5f6a47e882e9cd0e1d6bbb8a","3","15","3037","","","","","","","","","","0","start_test","","","","","","","","","","","","","","","","","","",""
"","","","","","","","","","","","html-button-response","7","2.0.0","144646","5f6a47e882e9cd0e1d6bbb8a","3","15","9789","","","","","","","","","<img src= ""rock_img/I_Pegmatite_12.jpg"" style=""width:8cm; height:5.7cm;""><p>What type of rock is this?</p>","0","class_response","0","test","1","Andesite","Pegmatite","12","false","1","6","","","","","","","","","",""
"","","","","","","","","","","","html-keyboard-response","8","2.0.0","145159","5f6a47e882e9cd0e1d6bbb8a","3","15","null","","","","","","","","","<p style='font-size: 30px;'><strong>Okay</strong></p>","null","neutral_feedback","0","test","1","","","","","","","","","","","","","","","",""
"","","","","","","","","","","","html-button-response","9","2.0.0","153771","5f6a47e882e9cd0e1d6bbb8a","3","15","8610","","","","","","","","","<img src= ""rock_img/I_Diorite_08.jpg"" style=""width:8cm; height:6.37cm;""><p>What type of rock is this?</p>","5","class_response","0","test","2","Pegmatite","Diorite","08","false","6","3","","","","","","","","","",""
"","","","","","","","","","","","html-keyboard-response","10","2.0.0","154281","5f6a47e882e9cd0e1d6bbb8a","3","15","null","","","","","","","","","<p style='font-size: 30px;'><strong>Okay</strong></p>","null","neutral_feedback","0","test","2","","","","","","","","","","","","","","","",""
"","","","","","","","","","","","html-button-response","11","2.0.0","357928","5f6a47e882e9cd0e1d6bbb8a","3","15","203644","","","","","","","","","<img src= ""rock_img/I_Andesite_09.jpg"" style=""width:8cm; height:6cm;""><p>What type of rock is this?</p>","3","class_response","0","test","3","Gabbro","Andesite","09","false","4","1","","","","","","","","","",""
"","","","","","","","","","","","html-keyboard-response","12","2.0.0","358438","5f6a47e882e9cd0e1d6bbb8a","3","15","null","","","","","","","","","<p style='font-size: 30px;'><strong>Okay</strong></p>","null","neutral_feedback","0","test","3","","","","","","","","","","","","","","","",""
"","","","","","","","","","","","html-button-response","13","2.0.0","366520","5f6a47e882e9cd0e1d6bbb8a","3","15","8081","","","","","","","","","<img src= ""rock_img/I_Gabbro_01.jpg"" style=""width:8cm; height:5.21cm;""><p>What type of rock is this?</p>","3","class_response","0","test","4","Gabbro","Gabbro","01","true","4","4","","","","","","","","","",""
"","","","","","","","","","","","html-keyboard-response","14","2.0.0","367027","5f6a47e882e9cd0e1d6bbb8a","3","15","null","","","","","","","","","<p style='font-size: 30px;'><strong>Okay</strong></p>","null","neutral_feedback","0","test","4","","","","","","","","","","","","","","","",""
"","","","","","","","","","","","html-button-response","15","2.0.0","368916","5f6a47e882e9cd0e1d6bbb8a","3","15","1889","","","","","","","","","<img src= ""rock_img/I_Pumice_09.jpg"" style=""width:8cm; height:6.44cm;""><p>What type of rock is this?</p>","7","class_response","0","test","5","Pumice","Pumice","09","true","8","8","","","","","","","","","",""
"","","","","","","","","","","","html-keyboard-response","16","2.0.0","369417","5f6a47e882e9cd0e1d6bbb8a","3","15","null","","","","","","","","","<p style='font-size: 30px;'><strong>Okay</strong></p>","null","neutral_feedback","0","test","5","","","","","","","","","","","","","","","",""
"","","","","","","","","","","","html-button-response","17","2.0.0","376932","5f6a47e882e9cd0e1d6bbb8a","3","15","7513","","","","","","","","","<img src= ""rock_img/I_Gabbro_09.jpg"" style=""width:8cm; height:7.279999999999999cm;""><p>What type of rock is this?</p>","4","class_response","0","test","6","Obsidian","Gabbro","09","false","5","4","","","","","","","","","",""
"","","","","","","","","","","","html-keyboard-response","18","2.0.0","377439","5f6a47e882e9cd0e1d6bbb8a","3","15","null","","","","","","","","","<p style='font-size: 30px;'><strong>Okay</strong></p>","null","neutral_feedback","0","test","6","","","","","","","","","","","","","","","",""
"","","","","","","","","","","","html-button-response","19","2.0.0","392382","5f6a47e882e9cd0e1d6bbb8a","3","15","14941","","","","","","","","","<img src= ""rock_img/I_Basalt_11.jpg"" style=""width:8cm; height:5.359999999999999cm;""><p>What type of rock is this?</p>","0","class_response","0","test","7","Andesite","Basalt","11","false","1","2","","","","","","","","","",""
"","","","","","","","","","","","html-keyboard-response","20","2.0.0","392890","5f6a47e882e9cd0e1d6bbb8a","3","15","null","","","","","","","","","<p style='font-size: 30px;'><strong>Okay</strong></p>","null","neutral_feedback","0","test","7","","","","","","","","","","","","","","","",""
"","","","","","","","","","","","html-button-response","21","2.0.0","403837","5f6a47e882e9cd0e1d6bbb8a","3","15","10945","","","","","","","","","<img src= ""rock_img/I_Basalt_09.jpg"" style=""width:8cm; height:6.2cm;""><p>What type of rock is this?</p>","3","class_response","0","test","8","Gabbro","Basalt","09","false","4","2","","","","","","","","","",""
"","","","","","","","","","","","html-keyboard-response","22","2.0.0","404350","5f6a47e882e9cd0e1d6bbb8a","3","15","null","","","","","","","","","<p style='font-size: 30px;'><strong>Okay</strong></p>","null","neutral_feedback","0","test","8","","","","","","","","","","","","","","","",""
"","","","","","","","","","","","html-button-response","23","2.0.0","407135","5f6a47e882e9cd0e1d6bbb8a","3","15","2783","","","","","","","","","<img src= ""rock_img/I_Diorite_07.jpg"" style=""width:8cm; height:5.239999999999999cm;""><p>What type of rock is this?</p>","4","class_response","0","test","9","Obsidian","Diorite","07","false","5","3","","","","","","","","","",""
"","","","","","","","","","","","html-keyboard-response","24","2.0.0","407640","5f6a47e882e9cd0e1d6bbb8a","3","15","null","","","","","","","","","<p style='font-size: 30px;'><strong>Okay</strong></p>","null","neutral_feedback","0","test","9","","","","","","","","","","","","","","","",""
"","","","","","","","","","","","html-button-response","25","2.0.0","420088","5f6a47e882e9cd0e1d6bbb8a","3","15","12445","","","","","","","","","<img src= ""rock_img/I_Pegmatite_06.jpg"" style=""width:8cm; height:5.17cm;""><p>What type of rock is this?</p>","4","class_response","0","test","10","Obsidian","Pegmatite","06","false","5","6","","","","","","","","","",""
"","","","","","","","","","","","html-keyboard-response","26","2.0.0","420597","5f6a47e882e9cd0e1d6bbb8a","3","15","null","","","","","","","","","<p style='font-size: 30px;'><strong>Okay</strong></p>","null","neutral_feedback","0","test","10","","","","","","","","","","","","","","","",""
"","","","","","","","","","","","html-button-response","27","2.0.0","431386","5f6a47e882e9cd0e1d6bbb8a","3","15","10787","","","","","","","","","<img src= ""rock_img/I_Obsidian_16.jpg"" style=""width:8cm; height:9.3cm;""><p>What type of rock is this?</p>","4","class_response","0","test","11","Obsidian","Obsidian","16","true","5","5","","","","","","","","","",""
"","","","","","","","","","","","html-keyboard-response","28","2.0.0","431890","5f6a47e882e9cd0e1d6bbb8a","3","15","null","","","","","","","","","<p style='font-size: 30px;'><strong>Okay</strong></p>","null","neutral_feedback","0","test","11","","","","","","","","","","","","","","","",""
"","","","","","","","","","","","html-button-response","29","2.0.0","434152","5f6a47e882e9cd0e1d6bbb8a","3","15","2261","","","","","","","","","<img src= ""rock_img/I_Obsidian_11.jpg"" style=""width:8cm; height:6.05cm;""><p>What type of rock is this?</p>","4","class_response","0","test","12","Obsidian","Obsidian","11","true","5","5","","","","","","","","","",""
"","","","","","","","","","","","html-keyboard-response","30","2.0.0","434654","5f6a47e882e9cd0e1d6bbb8a","3","15","null","","","","","","","","","<p style='font-size: 30px;'><strong>Okay</strong></p>","null","neutral_feedback","0","test","12","","","","","","","","","","","","","","","",""
"","","","","","","","","","","","html-button-response","31","2.0.0","437016","5f6a47e882e9cd0e1d6bbb8a","3","15","2360","","","","","","","","","<img src= ""rock_img/I_Pumice_05.jpg"" style=""width:8cm; height:7.25cm;""><p>What type of rock is this?</p>","7","class_response","0","test","13","Pumice","Pumice","05","true","8","8","","","","","","","","","",""
"","","","","","","","","","","","html-keyboard-response","32","2.0.0","437529","5f6a47e882e9cd0e1d6bbb8a","3","15","null","","","","","","","","","<p style='font-size: 30px;'><strong>Okay</strong></p>","null","neutral_feedback","0","test","13","","","","","","","","","","","","","","","",""
"","","","","","","","","","","","html-button-response","33","2.0.0","446292","5f6a47e882e9cd0e1d6bbb8a","3","15","8761","","","","","","","","","<img src= ""rock_img/I_Pegmatite_15.jpg"" style=""width:8cm; height:6cm;""><p>What type of rock is this?</p>","5","class_response","0","test","14","Pegmatite","Pegmatite","15","true","6","6","","","","","","","","","",""
"","","","","","","","","","","","html-keyboard-response","34","2.0.0","446804","5f6a47e882e9cd0e1d6bbb8a","3","15","null","","","","","","","","","<p style='font-size: 30px;'><strong>Okay</strong></p>","null","neutral_feedback","0","test","14","","","","","","","","","","","","","","","",""
"","","","","","","","","","","","html-button-response","35","2.0.0","450416","5f6a47e882e9cd0e1d6bbb8a","3","15","3610","","","","","","","","","<img src= ""rock_img/I_Peridotite_16.jpg"" style=""width:8cm; height:6.989999999999999cm;""><p>What type of rock is this?</p>","6","class_response","0","test","15","Peridotite","Peridotite","16","true","7","7","","","","","","","","","",""
"","","","","","","","","","","","html-keyboard-response","36","2.0.0","450928","5f6a47e882e9cd0e1d6bbb8a","3","15","null","","","","","","","","","<p style='font-size: 30px;'><strong>Okay</strong></p>","null","neutral_feedback","0","test","15","","","","","","","","","","","","","","","",""
"","","","","","","","","","","","html-button-response","37","2.0.0","461576","5f6a47e882e9cd0e1d6bbb8a","3","15","10646","","","","","","","","","<img src= ""rock_img/I_Andesite_10.jpg"" style=""width:8cm; height:4.16cm;""><p>What type of rock is this?</p>","7","class_response","0","test","16","Pumice","Andesite","10","false","8","1","","","","","","","","","",""
"","","","","","","","","","","","html-keyboard-response","38","2.0.0","462080","5f6a47e882e9cd0e1d6bbb8a","3","15","null","","","","","","","","","<p style='font-size: 30px;'><strong>Okay</strong></p>","null","neutral_feedback","0","test","16","","","","","","","","","","","","","","","",""
"","","","","","","","","","","","html-button-response","39","2.0.0","467559","5f6a47e882e9cd0e1d6bbb8a","3","15","5477","","","","","","","","","<img src= ""rock_img/I_Basalt_14.jpg"" style=""width:8cm; height:5.82cm;""><p>What type of rock is this?</p>","2","class_response","0","test","17","Diorite","Basalt","14","false","3","2","","","","","","","","","",""
"","","","","","","","","","","","html-keyboard-response","40","2.0.0","468074","5f6a47e882e9cd0e1d6bbb8a","3","15","null","","","","","","","","","<p style='font-size: 30px;'><strong>Okay</strong></p>","null","neutral_feedback","0","test","17","","","","","","","","","","","","","","","",""
"","","","","","","","","","","","html-button-response","41","2.0.0","474321","5f6a47e882e9cd0e1d6bbb8a","3","15","6246","","","","","","","","","<img src= ""rock_img/I_Gabbro_08.jpg"" style=""width:8cm; height:5.15cm;""><p>What type of rock is this?</p>","1","class_response","0","test","18","Basalt","Gabbro","08","false","2","4","","","","","","","","","",""
"","","","","","","","","","","","html-keyboard-response","42","2.0.0","474830","5f6a47e882e9cd0e1d6bbb8a","3","15","null","","","","","","","","","<p style='font-size: 30px;'><strong>Okay</strong></p>","null","neutral_feedback","0","test","18","","","","","","","","","","","","","","","",""
"","","","","","","","","","","","html-button-response","43","2.0.0","485808","5f6a47e882e9cd0e1d6bbb8a","3","15","10977","","","","","","","","","<img src= ""rock_img/I_Diorite_12.jpg"" style=""width:8cm; height:4.88cm;""><p>What type of rock is this?</p>","2","class_response","0","test","19","Diorite","Diorite","12","true","3","3","","","","","","","","","",""
"","","","","","","","","","","","html-keyboard-response","44","2.0.0","486319","5f6a47e882e9cd0e1d6bbb8a","3","15","null","","","","","","","","","<p style='font-size: 30px;'><strong>Okay</strong></p>","null","neutral_feedback","0","test","19","","","","","","","","","","","","","","","",""
"","","","","","","","","","","","html-button-response","45","2.0.0","489569","5f6a47e882e9cd0e1d6bbb8a","3","15","3248","","","","","","","","","<img src= ""rock_img/I_Diorite_11.jpg"" style=""width:8cm; height:7.11cm;""><p>What type of rock is this?</p>","2","class_response","0","test","20","Diorite","Diorite","11","true","3","3","","","","","","","","","",""
"","","","","","","","","","","","html-keyboard-response","46","2.0.0","490081","5f6a47e882e9cd0e1d6bbb8a","3","15","null","","","","","","","","","<p style='font-size: 30px;'><strong>Okay</strong></p>","null","neutral_feedback","0","test","20","","","","","","","","","","","","","","","",""
"","","","","","","","","","","","html-button-response","47","2.0.0","493851","5f6a47e882e9cd0e1d6bbb8a","3","15","3768","","","","","","","","","<img src= ""rock_img/I_Gabbro_14.jpg"" style=""width:8cm; height:8.48cm;""><p>What type of rock is this?</p>","1","class_response","0","test","21","Basalt","Gabbro","14","false","2","4","","","","","","","","","",""
"","","","","","","","","","","","html-keyboard-response","48","2.0.0","494367","5f6a47e882e9cd0e1d6bbb8a","3","15","null","","","","","","","","","<p style='font-size: 30px;'><strong>Okay</strong></p>","null","neutral_feedback","0","test","21","","","","","","","","","","","","","","","",""
"","","","","","","","","","","","html-button-response","49","2.0.0","496393","5f6a47e882e9cd0e1d6bbb8a","3","15","2026","","","","","","","","","<img src= ""rock_img/I_Pumice_15.jpg"" style=""width:8cm; height:7.86cm;""><p>What type of rock is this?</p>","7","class_response","0","test","22","Pumice","Pumice","15","true","8","8","","","","","","","","","",""
"","","","","","","","","","","","html-keyboard-response","50","2.0.0","496907","5f6a47e882e9cd0e1d6bbb8a","3","15","null","","","","","","","","","<p style='font-size: 30px;'><strong>Okay</strong></p>","null","neutral_feedback","0","test","22","","","","","","","","","","","","","","","",""
"","","","","","","","","","","","html-button-response","51","2.0.0","498994","5f6a47e882e9cd0e1d6bbb8a","3","15","2086","","","","","","","","","<img src= ""rock_img/I_Obsidian_06.jpg"" style=""width:8cm; height:6.8cm;""><p>What type of rock is this?</p>","4","class_response","0","test","23","Obsidian","Obsidian","06","true","5","5","","","","","","","","","",""
"","","","","","","","","","","","html-keyboard-response","52","2.0.0","499504","5f6a47e882e9cd0e1d6bbb8a","3","15","null","","","","","","","","","<p style='font-size: 30px;'><strong>Okay</strong></p>","null","neutral_feedback","0","test","23","","","","","","","","","","","","","","","",""
"","","","","","","","","","","","html-button-response","53","2.0.0","537834","5f6a47e882e9cd0e1d6bbb8a","3","15","38328","","","","","","","","","<img src= ""rock_img/I_Gabbro_12.jpg"" style=""width:8cm; height:7.800000000000001cm;""><p>What type of rock is this?</p>","3","class_response","0","test","24","Gabbro","Gabbro","12","true","4","4","","","","","","","","","",""
"","","","","","","","","","","","html-keyboard-response","54","2.0.0","538338","5f6a47e882e9cd0e1d6bbb8a","3","15","null","","","","","","","","","<p style='font-size: 30px;'><strong>Okay</strong></p>","null","neutral_feedback","0","test","24","","","","","","","","","","","","","","","",""
"","","","","","","","","","","","html-button-response","55","2.0.0","549905","5f6a47e882e9cd0e1d6bbb8a","3","15","11565","","","","","","","","","<img src= ""rock_img/I_Peridotite_14.jpg"" style=""width:8cm; height:5.3cm;""><p>What type of rock is this?</p>","5","class_response","0","test","25","Pegmatite","Peridotite","14","false","6","7","","","","","","","","","",""
"","","","","","","","","","","","html-keyboard-response","56","2.0.0","550418","5f6a47e882e9cd0e1d6bbb8a","3","15","null","","","","","","","","","<p style='font-size: 30px;'><strong>Okay</strong></p>","null","neutral_feedback","0","test","25","","","","","","","","","","","","","","","",""
"","","","","","","","","","","","html-button-response","57","2.0.0","555300","5f6a47e882e9cd0e1d6bbb8a","3","15","4882","","","","","","","","","<img src= ""rock_img/I_Basalt_05.jpg"" style=""width:8cm; height:8.18cm;""><p>What type of rock is this?</p>","0","class_response","0","test","26","Andesite","Basalt","05","false","1","2","","","","","","","","","",""
"","","","","","","","","","","","html-keyboard-response","58","2.0.0","555808","5f6a47e882e9cd0e1d6bbb8a","3","15","null","","","","","","","","","<p style='font-size: 30px;'><strong>Okay</strong></p>","null","neutral_feedback","0","test","26","","","","","","","","","","","","","","","",""
"","","","","","","","","","","","html-button-response","59","2.0.0","560916","5f6a47e882e9cd0e1d6bbb8a","3","15","5107","","","","","","","","","<img src= ""rock_img/I_Peridotite_12.jpg"" style=""width:8cm; height:4.54cm;""><p>What type of rock is this?</p>","6","class_response","0","test","27","Peridotite","Peridotite","12","true","7","7","","","","","","","","","",""
"","","","","","","","","","","","html-keyboard-response","60","2.0.0","561420","5f6a47e882e9cd0e1d6bbb8a","3","15","null","","","","","","","","","<p style='font-size: 30px;'><strong>Okay</strong></p>","null","neutral_feedback","0","test","27","","","","","","","","","","","","","","","",""
"","","","","","","","","","","","html-button-response","61","2.0.0","567380","5f6a47e882e9cd0e1d6bbb8a","3","15","5958","","","","","","","","","<img src= ""rock_img/I_Andesite_04.jpg"" style=""width:8cm; height:5.96cm;""><p>What type of rock is this?</p>","3","class_response","0","test","28","Gabbro","Andesite","04","false","4","1","","","","","","","","","",""
"","","","","","","","","","","","html-keyboard-response","62","2.0.0","567888","5f6a47e882e9cd0e1d6bbb8a","3","15","null","","","","","","","","","<p style='font-size: 30px;'><strong>Okay</strong></p>","null","neutral_feedback","0","test","28","","","","","","","","","","","","","","","",""
"","","","","","","","","","","","html-button-response","63","2.0.0","569906","5f6a47e882e9cd0e1d6bbb8a","3","15","2019","","","","","","","","","<img src= ""rock_img/I_Peridotite_15.jpg"" style=""width:8cm; height:6cm;""><p>What type of rock is this?</p>","6","class_response","0","test","29","Peridotite","Peridotite","15","true","7","7","","","","","","","","","",""
"","","","","","","","","","","","html-keyboard-response","64","2.0.0","570419","5f6a47e882e9cd0e1d6bbb8a","3","15","null","","","","","","","","","<p style='font-size: 30px;'><strong>Okay</strong></p>","null","neutral_feedback","0","test","29","","","","","","","","","","","","","","","",""
"","","","","","","","","","","","html-button-response","65","2.0.0","572522","5f6a47e882e9cd0e1d6bbb8a","3","15","2102","","","","","","","","","<img src= ""rock_img/I_Gabbro_05.jpg"" style=""width:8cm; height:6cm;""><p>What type of rock is this?</p>","6","class_response","0","test","30","Peridotite","Gabbro","05","false","7","4","","","","","","","","","",""
"","","","","","","","","","","","html-keyboard-response","66","2.0.0","573035","5f6a47e882e9cd0e1d6bbb8a","3","15","null","","","","","","","","","<p style='font-size: 30px;'><strong>Okay</strong></p>","null","neutral_feedback","0","test","30","","","","","","","","","","","","","","","",""
"","","","","","","","","","","","html-button-response","67","2.0.0","585976","5f6a47e882e9cd0e1d6bbb8a","3","15","12940","","","","","","","","","<img src= ""rock_img/I_Andesite_11.jpg"" style=""width:8cm; height:4.92cm;""><p>What type of rock is this?</p>","0","class_response","0","test","31","Andesite","Andesite","11","true","1","1","","","","","","","","","",""
"","","","","","","","","","","","html-keyboard-response","68","2.0.0","586487","5f6a47e882e9cd0e1d6bbb8a","3","15","null","","","","","","","","","<p style='font-size: 30px;'><strong>Okay</strong></p>","null","neutral_feedback","0","test","31","","","","","","","","","","","","","","","",""
"","","","","","","","","","","","html-button-response","69","2.0.0","594912","5f6a47e882e9cd0e1d6bbb8a","3","15","8424","","","","","","","","","<img src= ""rock_img/I_Basalt_01.jpg"" style=""width:8cm; height:7.880000000000001cm;""><p>What type of rock is this?</p>","2","class_response","0","test","32","Diorite","Basalt","01","false","3","2","","","","","","","","","",""
"","","","","","","","","","","","html-keyboard-response","70","2.0.0","595414","5f6a47e882e9cd0e1d6bbb8a","3","15","null","","","","","","","","","<p style='font-size: 30px;'><strong>Okay</strong></p>","null","neutral_feedback","0","test","32","","","","","","","","","","","","","","","",""
"","","","","","","","","","","","html-button-response","71","2.0.0","597821","5f6a47e882e9cd0e1d6bbb8a","3","15","2406","","","","","","","","","<img src= ""rock_img/I_Pumice_06.jpg"" style=""width:8cm; height:6.9399999999999995cm;""><p>What type of rock is this?</p>","7","class_response","0","test","33","Pumice","Pumice","06","true","8","8","","","","","","","","","",""
"","","","","","","","","","","","html-keyboard-response","72","2.0.0","598323","5f6a47e882e9cd0e1d6bbb8a","3","15","null","","","","","","","","","<p style='font-size: 30px;'><strong>Okay</strong></p>","null","neutral_feedback","0","test","33","","","","","","","","","","","","","","","",""
"","","","","","","","","","","","html-button-response","73","2.0.0","600657","5f6a47e882e9cd0e1d6bbb8a","3","15","2333","","","","","","","","","<img src= ""rock_img/I_Peridotite_05.jpg"" style=""width:8cm; height:7.1499999999999995cm;""><p>What type of rock is this?</p>","6","class_response","0","test","34","Peridotite","Peridotite","05","true","7","7","","","","","","","","","",""
"","","","","","","","","","","","html-keyboard-response","74","2.0.0","601164","5f6a47e882e9cd0e1d6bbb8a","3","15","null","","","","","","","","","<p style='font-size: 30px;'><strong>Okay</strong></p>","null","neutral_feedback","0","test","34","","","","","","","","","","","","","","","",""
"","","","","","","","","","","","html-button-response","75","2.0.0","616452","5f6a47e882e9cd0e1d6bbb8a","3","15","15287","","","","","","","","","<img src= ""rock_img/I_Andesite_05.jpg"" style=""width:8cm; height:4.12cm;""><p>What type of rock is this?</p>","2","class_response","0","test","35","Diorite","Andesite","05","false","3","1","","","","","","","","","",""
"","","","","","","","","","","","html-keyboard-response","76","2.0.0","616967","5f6a47e882e9cd0e1d6bbb8a","3","15","null","","","","","","","","","<p style='font-size: 30px;'><strong>Okay</strong></p>","null","neutral_feedback","0","test","35","","","","","","","","","","","","","","","",""
"","","","","","","","","","","","html-button-response","77","2.0.0","618664","5f6a47e882e9cd0e1d6bbb8a","3","15","1697","","","","","","","","","<img src= ""rock_img/I_Obsidian_09.jpg"" style=""width:8cm; height:5cm;""><p>What type of rock is this?</p>","4","class_response","0","test","36","Obsidian","Obsidian","09","true","5","5","","","","","","","","","",""
"","","","","","","","","","","","html-keyboard-response","78","2.0.0","619168","5f6a47e882e9cd0e1d6bbb8a","3","15","null","","","","","","","","","<p style='font-size: 30px;'><strong>Okay</strong></p>","null","neutral_feedback","0","test","36","","","","","","","","","","","","","","","",""
"","","","","","","","","","","","html-button-response","79","2.0.0","622867","5f6a47e882e9cd0e1d6bbb8a","3","15","3699","","","","","","","","","<img src= ""rock_img/I_Pumice_13.jpg"" style=""width:8cm; height:8.200000000000001cm;""><p>What type of rock is this?</p>","7","class_response","0","test","37","Pumice","Pumice","13","true","8","8","","","","","","","","","",""
"","","","","","","","","","","","html-keyboard-response","80","2.0.0","623380","5f6a47e882e9cd0e1d6bbb8a","3","15","null","","","","","","","","","<p style='font-size: 30px;'><strong>Okay</strong></p>","null","neutral_feedback","0","test","37","","","","","","","","","","","","","","","",""
"","","","","","","","","","","","html-button-response","81","2.0.0","643529","5f6a47e882e9cd0e1d6bbb8a","3","15","20149","","","","","","","","","<img src= ""rock_img/I_Diorite_10.jpg"" style=""width:8cm; height:5.949999999999999cm;""><p>What type of rock is this?</p>","3","class_response","0","test","38","Gabbro","Diorite","10","false","4","3","","","","","","","","","",""
"","","","","","","","","","","","html-keyboard-response","82","2.0.0","644042","5f6a47e882e9cd0e1d6bbb8a","3","15","null","","","","","","","","","<p style='font-size: 30px;'><strong>Okay</strong></p>","null","neutral_feedback","0","test","38","","","","","","","","","","","","","","","",""
"","","","","","","","","","","","html-button-response","83","2.0.0","648165","5f6a47e882e9cd0e1d6bbb8a","3","15","4121","","","","","","","","","<img src= ""rock_img/I_Basalt_04.jpg"" style=""width:8cm; height:7.53cm;""><p>What type of rock is this?</p>","1","class_response","0","test","39","Basalt","Basalt","04","true","2","2","","","","","","","","","",""
"","","","","","","","","","","","html-keyboard-response","84","2.0.0","648673","5f6a47e882e9cd0e1d6bbb8a","3","15","null","","","","","","","","","<p style='font-size: 30px;'><strong>Okay</strong></p>","null","neutral_feedback","0","test","39","","","","","","","","","","","","","","","",""
"","","","","","","","","","","","html-button-response","85","2.0.0","680146","5f6a47e882e9cd0e1d6bbb8a","3","15","31471","","","","","","","","","<img src= ""rock_img/I_Obsidian_08.jpg"" style=""width:8cm; height:7.39cm;""><p>What type of rock is this?</p>","4","class_response","0","test","40","Obsidian","Obsidian","08","true","5","5","","","","","","","","","",""
"","","","","","","","","","","","html-keyboard-response","86","2.0.0","680649","5f6a47e882e9cd0e1d6bbb8a","3","15","null","","","","","","","","","<p style='font-size: 30px;'><strong>Okay</strong></p>","null","neutral_feedback","0","test","40","","","","","","","","","","","","","","","",""
"","","","","","","","","","","","html-button-response","87","2.0.0","703048","5f6a47e882e9cd0e1d6bbb8a","3","15","22396","","","","","","","","","<img src= ""rock_img/I_Andesite_01.jpg"" style=""width:8cm; height:5.87cm;""><p>What type of rock is this?</p>","1","class_response","0","test","41","Basalt","Andesite","01","false","2","1","","","","","","","","","",""
"","","","","","","","","","","","html-keyboard-response","88","2.0.0","703550","5f6a47e882e9cd0e1d6bbb8a","3","15","null","","","","","","","","","<p style='font-size: 30px;'><strong>Okay</strong></p>","null","neutral_feedback","0","test","41","","","","","","","","","","","","","","","",""
"","","","","","","","","","","","html-button-response","89","2.0.0","705475","5f6a47e882e9cd0e1d6bbb8a","3","15","1923","","","","","","","","","<img src= ""rock_img/I_Obsidian_14.jpg"" style=""width:8cm; height:7.64cm;""><p>What type of rock is this?</p>","4","class_response","0","test","42","Obsidian","Obsidian","14","true","5","5","","","","","","","","","",""
"","","","","","","","","","","","html-keyboard-response","90","2.0.0","705988","5f6a47e882e9cd0e1d6bbb8a","3","15","null","","","","","","","","","<p style='font-size: 30px;'><strong>Okay</strong></p>","null","neutral_feedback","0","test","42","","","","","","","","","","","","","","","",""
"","","","","","","","","","","","html-button-response","91","2.0.0","726152","5f6a47e882e9cd0e1d6bbb8a","3","15","20162","","","","","","","","","<img src= ""rock_img/I_Pegmatite_11.jpg"" style=""width:8cm; height:8.14cm;""><p>What type of rock is this?</p>","5","class_response","0","test","43","Pegmatite","Pegmatite","11","true","6","6","","","","","","","","","",""
"","","","","","","","","","","","html-keyboard-response","92","2.0.0","726659","5f6a47e882e9cd0e1d6bbb8a","3","15","null","","","","","","","","","<p style='font-size: 30px;'><strong>Okay</strong></p>","null","neutral_feedback","0","test","43","","","","","","","","","","","","","","","",""
"","","","","","","","","","","","html-button-response","93","2.0.0","728775","5f6a47e882e9cd0e1d6bbb8a","3","15","2114","","","","","","","","","<img src= ""rock_img/I_Peridotite_13.jpg"" style=""width:8cm; height:7.58cm;""><p>What type of rock is this?</p>","6","class_response","0","test","44","Peridotite","Peridotite","13","true","7","7","","","","","","","","","",""
"","","","","","","","","","","","html-keyboard-response","94","2.0.0","729283","5f6a47e882e9cd0e1d6bbb8a","3","15","null","","","","","","","","","<p style='font-size: 30px;'><strong>Okay</strong></p>","null","neutral_feedback","0","test","44","","","","","","","","","","","","","","","",""
"","","","","","","","","","","","html-button-response","95","2.0.0","733025","5f6a47e882e9cd0e1d6bbb8a","3","15","3741","","","","","","","","","<img src= ""rock_img/I_Pegmatite_13.jpg"" style=""width:8cm; height:4.95cm;""><p>What type of rock is this?</p>","6","class_response","0","test","45","Peridotite","Pegmatite","13","false","7","6","","","","","","","","","",""
"","","","","","","","","","","","html-keyboard-response","96","2.0.0","733528","5f6a47e882e9cd0e1d6bbb8a","3","15","null","","","","","","","","","<p style='font-size: 30px;'><strong>Okay</strong></p>","null","neutral_feedback","0","test","45","","","","","","","","","","","","","","","",""
"","","","","","","","","","","","html-button-response","97","2.0.0","745824","5f6a47e882e9cd0e1d6bbb8a","3","15","12294","","","","","","","","","<img src= ""rock_img/I_Diorite_15.jpg"" style=""width:8cm; height:5.54cm;""><p>What type of rock is this?</p>","2","class_response","0","test","46","Diorite","Diorite","15","true","3","3","","","","","","","","","",""
"","","","","","","","","","","","html-keyboard-response","98","2.0.0","746328","5f6a47e882e9cd0e1d6bbb8a","3","15","null","","","","","","","","","<p style='font-size: 30px;'><strong>Okay</strong></p>","null","neutral_feedback","0","test","46","","","","","","","","","","","","","","","",""
"","","","","","","","","","","","html-button-response","99","2.0.0","748170","5f6a47e882e9cd0e1d6bbb8a","3","15","1839","","","","","","","","","<img src= ""rock_img/I_Pumice_02.jpg"" style=""width:8cm; height:7.3999999999999995cm;""><p>What type of rock is this?</p>","7","class_response","0","test","47","Pumice","Pumice","02","true","8","8","","","","","","","","","",""
"","","","","","","","","","","","html-keyboard-response","100","2.0.0","748671","5f6a47e882e9cd0e1d6bbb8a","3","15","null","","","","","","","","","<p style='font-size: 30px;'><strong>Okay</strong></p>","null","neutral_feedback","0","test","47","","","","","","","","","","","","","","","",""
"","","","","","","","","","","","html-button-response","101","2.0.0","750860","5f6a47e882e9cd0e1d6bbb8a","3","15","2188","","","","","","","","","<img src= ""rock_img/I_Pegmatite_09.jpg"" style=""width:8cm; height:4.03cm;""><p>What type of rock is this?</p>","6","class_response","0","test","48","Peridotite","Pegmatite","09","false","7","6","","","","","","","","","",""
"","","","","","","","","","","","html-keyboard-response","102","2.0.0","751364","5f6a47e882e9cd0e1d6bbb8a","3","15","null","","","","","","","","","<p style='font-size: 30px;'><strong>Okay</strong></p>","null","neutral_feedback","0","test","48","","","","","","","","","","","","","","","",""
"","","","","","","","","","","","instructions","103","2.0.0","782571","5f6a47e882e9cd0e1d6bbb8a","3","15","31176","","","","","","","","[{""page_index"":0,""viewing_time"":26673},{""page_index"":1,""viewing_time"":4503}]","","","","","","","","","","","","","","","","","","","","","",""
"","","","","","","","","","","","html-button-response","104","2.0.0","786292","5f6a47e882e9cd0e1d6bbb8a","3","15","3719","","","","","","","","","","0","start_train","","","","","","","","","","","","","","","","","","",""
"","","","","","","","","","","","html-button-response","106","2.0.0","806890","5f6a47e882e9cd0e1d6bbb8a","3","15","20597","","","","","","","","","<img src= ""rock_img/I_Andesite_06.jpg"" style=""width:8cm; height:6.840000000000001cm;""><p>What type of rock is this?</p>","0","class_response","1","train","1","Andesite","Andesite","06","true","1","1","","","","","","","","","",""
"","","","","","","","","","","","html-button-response","107","2.0.0","820065","5f6a47e882e9cd0e1d6bbb8a","3","15","13174","","","","","","","","","<img src= rock_img/I_Andesite_06.jpg style=""width:8cm; height:6.840000000000001cm;""><p style='font-size: 30px; color: green;'><strong>Correct!</strong></p><p style='font-size: 30px;'><strong>This rock is andesite</strong></p>","0","corr_feedback","1","train","1","","","","","","","","","","","","","","","",""
"","","","","","","","","","","","html-button-response","108","2.0.0","839854","5f6a47e882e9cd0e1d6bbb8a","3","15","19788","","","","","","","","","<img src= ""rock_img/I_Diorite_02.jpg"" style=""width:8cm; height:6.27cm;""><p>What type of rock is this?</p>","2","class_response","1","train","2","Diorite","Diorite","02","true","3","3","","","","","","","","","",""
"","","","","","","","","","","","html-button-response","109","2.0.0","849785","5f6a47e882e9cd0e1d6bbb8a","3","15","9930","","","","","","","","","<img src= rock_img/I_Diorite_02.jpg style=""width:8cm; height:6.27cm;""><p style='font-size: 30px; color: green;'><strong>Correct!</strong></p><p style='font-size: 30px;'><strong>This rock is diorite</strong></p>","0","corr_feedback","1","train","2","","","","","","","","","","","","","","","",""
"","","","","","","","","","","","html-button-response","110","2.0.0","853162","5f6a47e882e9cd0e1d6bbb8a","3","15","3374","","","","","","","","","<img src= ""rock_img/I_Pumice_10.jpg"" style=""width:8cm; height:7.609999999999999cm;""><p>What type of rock is this?</p>","7","class_response","1","train","3","Pumice","Pumice","10","true","8","8","","","","","","","","","",""
"","","","","","","","","","","","html-button-response","111","2.0.0","872735","5f6a47e882e9cd0e1d6bbb8a","3","15","19572","","","","","","","","","<img src= rock_img/I_Pumice_10.jpg style=""width:8cm; height:7.609999999999999cm;""><p style='font-size: 30px; color: green;'><strong>Correct!</strong></p><p style='font-size: 30px;'><strong>This rock is pumice</strong></p>","0","corr_feedback","1","train","3","","","","","","","","","","","","","","","",""
"","","","","","","","","","","","html-button-response","112","2.0.0","877877","5f6a47e882e9cd0e1d6bbb8a","3","15","5141","","","","","","","","","<img src= ""rock_img/I_Peridotite_08.jpg"" style=""width:8cm; height:6.7cm;""><p>What type of rock is this?</p>","6","class_response","1","train","4","Peridotite","Peridotite","08","true","7","7","","","","","","","","","",""
"","","","","","","","","","","","html-button-response","113","2.0.0","911634","5f6a47e882e9cd0e1d6bbb8a","3","15","33757","","","","","","","","","<img src= rock_img/I_Peridotite_08.jpg style=""width:8cm; height:6.7cm;""><p style='font-size: 30px; color: green;'><strong>Correct!</strong></p><p style='font-size: 30px;'><strong>This rock is peridotite</strong></p>","0","corr_feedback","1","train","4","","","","","","","","","","","","","","","",""
"","","","","","","","","","","","html-button-response","114","2.0.0","940190","5f6a47e882e9cd0e1d6bbb8a","3","15","28554","","","","","","","","","<img src= ""rock_img/I_Gabbro_10.jpg"" style=""width:8cm; height:5.680000000000001cm;""><p>What type of rock is this?</p>","1","class_response","1","train","5","Basalt","Gabbro","10","false","2","4","","","","","","","","","",""
"","","","","","","","","","","","html-button-response","115","2.0.0","958916","5f6a47e882e9cd0e1d6bbb8a","3","15","18725","","","","","","","","","<img src= rock_img/I_Gabbro_10.jpg style=""width:8cm; height:5.680000000000001cm;""><p style='font-size: 30px; color: red;'><strong>Incorrect!</strong></p><p style='font-size: 30px;'><strong>This rock is gabbro</strong></p>","0","corr_feedback","1","train","5","","","","","","","","","","","","","","","",""
"","","","","","","","","","","","html-button-response","116","2.0.0","965185","5f6a47e882e9cd0e1d6bbb8a","3","15","6267","","","","","","","","","<img src= ""rock_img/I_Pegmatite_03.jpg"" style=""width:8cm; height:5.239999999999999cm;""><p>What type of rock is this?</p>","0","class_response","1","train","6","Andesite","Pegmatite","03","false","1","6","","","","","","","","","",""
"","","","","","","","","","","","html-button-response","117","2.0.0","984221","5f6a47e882e9cd0e1d6bbb8a","3","15","19035","","","","","","","","","<img src= rock_img/I_Pegmatite_03.jpg style=""width:8cm; height:5.239999999999999cm;""><p style='font-size: 30px; color: red;'><strong>Incorrect!</strong></p><p style='font-size: 30px;'><strong>This rock is pegmatite</strong></p>","0","corr_feedback","1","train","6","","","","","","","","","","","","","","","",""
"","","","","","","","","","","","html-button-response","118","2.0.0","990972","5f6a47e882e9cd0e1d6bbb8a","3","15","6750","","","","","","","","","<img src= ""rock_img/I_Pegmatite_07.jpg"" style=""width:8cm; height:6.7cm;""><p>What type of rock is this?</p>","5","class_response","1","train","7","Pegmatite","Pegmatite","07","true","6","6","","","","","","","","","",""
"","","","","","","","","","","","html-button-response","119","2.0.0","994068","5f6a47e882e9cd0e1d6bbb8a","3","15","3096","","","","","","","","","<img src= rock_img/I_Pegmatite_07.jpg style=""width:8cm; height:6.7cm;""><p style='font-size: 30px; color: green;'><strong>Correct!</strong></p><p style='font-size: 30px;'><strong>This rock is pegmatite</strong></p>","0","corr_feedback","1","train","7","","","","","","","","","","","","","","","",""
"","","","","","","","","","","","html-button-response","120","2.0.0","1001207","5f6a47e882e9cd0e1d6bbb8a","3","15","7137","","","","","","","","","<img src= ""rock_img/I_Basalt_06.jpg"" style=""width:8cm; height:7.06cm;""><p>What type of rock is this?</p>","3","class_response","1","train","8","Gabbro","Basalt","06","false","4","2","","","","","","","","","",""
"","","","","","","","","","","","html-button-response","121","2.0.0","1025616","5f6a47e882e9cd0e1d6bbb8a","3","15","24408","","","","","","","","","<img src= rock_img/I_Basalt_06.jpg style=""width:8cm; height:7.06cm;""><p style='font-size: 30px; color: red;'><strong>Incorrect!</strong></p><p style='font-size: 30px;'><strong>This rock is basalt</strong></p>","0","corr_feedback","1","train","8","","","","","","","","","","","","","","","",""
"","","","","","","","","","","","html-button-response","122","2.0.0","1028509","5f6a47e882e9cd0e1d6bbb8a","3","15","2892","","","","","","","","","<img src= ""rock_img/I_Basalt_12.jpg"" style=""width:8cm; height:6.010000000000001cm;""><p>What type of rock is this?</p>","7","class_response","1","train","9","Pumice","Basalt","12","false","8","2","","","","","","","","","",""
"","","","","","","","","","","","html-button-response","123","2.0.0","1042266","5f6a47e882e9cd0e1d6bbb8a","3","15","13755","","","","","","","","","<img src= rock_img/I_Basalt_12.jpg style=""width:8cm; height:6.010000000000001cm;""><p style='font-size: 30px; color: red;'><strong>Incorrect!</strong></p><p style='font-size: 30px;'><strong>This rock is basalt</strong></p>","0","corr_feedback","1","train","9","","","","","","","","","","","","","","","",""
"","","","","","","","","","","","html-button-response","124","2.0.0","1044575","5f6a47e882e9cd0e1d6bbb8a","3","15","2309","","","","","","","","","<img src= ""rock_img/I_Pumice_14.jpg"" style=""width:8cm; height:6.39cm;""><p>What type of rock is this?</p>","7","class_response","1","train","10","Pumice","Pumice","14","true","8","8","","","","","","","","","",""
"","","","","","","","","","","","html-button-response","125","2.0.0","1046486","5f6a47e882e9cd0e1d6bbb8a","3","15","1908","","","","","","","","","<img src= rock_img/I_Pumice_14.jpg style=""width:8cm; height:6.39cm;""><p style='font-size: 30px; color: green;'><strong>Correct!</strong></p><p style='font-size: 30px;'><strong>This rock is pumice</strong></p>","0","corr_feedback","1","train","10","","","","","","","","","","","","","","","",""
"","","","","","","","","","","","html-button-response","126","2.0.0","1054862","5f6a47e882e9cd0e1d6bbb8a","3","15","8374","","","","","","","","","<img src= ""rock_img/I_Gabbro_13.jpg"" style=""width:8cm; height:5.08cm;""><p>What type of rock is this?</p>","2","class_response","1","train","11","Diorite","Gabbro","13","false","3","4","","","","","","","","","",""
"","","","","","","","","","","","html-button-response","127","2.0.0","1080969","5f6a47e882e9cd0e1d6bbb8a","3","15","26107","","","","","","","","","<img src= rock_img/I_Gabbro_13.jpg style=""width:8cm; height:5.08cm;""><p style='font-size: 30px; color: red;'><strong>Incorrect!</strong></p><p style='font-size: 30px;'><strong>This rock is gabbro</strong></p>","0","corr_feedback","1","train","11","","","","","","","","","","","","","","","",""
"","","","","","","","","","","","html-button-response","128","2.0.0","1083184","5f6a47e882e9cd0e1d6bbb8a","3","15","2213","","","","","","","","","<img src= ""rock_img/I_Obsidian_12.jpg"" style=""width:8cm; height:6.53cm;""><p>What type of rock is this?</p>","4","class_response","1","train","12","Obsidian","Obsidian","12","true","5","5","","","","","","","","","",""
"","","","","","","","","","","","html-button-response","129","2.0.0","1085012","5f6a47e882e9cd0e1d6bbb8a","3","15","1827","","","","","","","","","<img src= rock_img/I_Obsidian_12.jpg style=""width:8cm; height:6.53cm;""><p style='font-size: 30px; color: green;'><strong>Correct!</strong></p><p style='font-size: 30px;'><strong>This rock is obsidian</strong></p>","0","corr_feedback","1","train","12","","","","","","","","","","","","","","","",""
"","","","","","","","","","","","instructions","130","2.0.0","1184157","5f6a47e882e9cd0e1d6bbb8a","3","15","99144","","","","","","","","[{""page_index"":0,""viewing_time"":3350},{""page_index"":1,""viewing_time"":64950},{""page_index"":2,""viewing_time"":20819},{""page_index"":3,""viewing_time"":10025}]","","","","","","","","","","","","","","","","","","","","","",""
"","","","","","","","","","","","html-button-response","131","2.0.0","1186585","5f6a47e882e9cd0e1d6bbb8a","3","15","2427","","","","","","","","","","0","start_train","","","","","","","","","","","","","","","","","","",""
"","","","","","","","","","","","html-button-response","132","2.0.0","1192980","5f6a47e882e9cd0e1d6bbb8a","3","15","","","","","","","","","","","","cat_selection","1","train","1","","","","","","","6","7","6394","Pegmatite","Peridotite","[0.20535714285714282,0.20535714285714282,0.1339285714285714,0.16964285714285712,0.026785714285714277,0.16964285714285712,0.06249999999999998,0.026785714285714277]","[0.20653654577323802,0.04893284397383774,0.06511045996518827,0.062132711966780343,0.2125698187700123,null,0.3627180395733987,0.04199957997754466]","","",""
"","","","","","","","","","","","paired-cat-display","133","1.0.0","1328665","5f6a47e882e9cd0e1d6bbb8a","3","15","","","","","","","","","","","","paired_cat_display","1","train","1","","","","","","","","","21236","","","","","shards of black (obsidian?)","greenish with spots","114444"
"","","","","","","","","","","","html-button-response","134","2.0.0","1333865","5f6a47e882e9cd0e1d6bbb8a","3","15","","","","","","","","","","","","cat_selection","1","train","2","","","","","","","1","2","5200","Andesite","Basalt","[0.20535714285714282,0.20535714285714282,0.1339285714285714,0.16964285714285712,0.026785714285714277,0.16964285714285712,0.06249999999999998,0.026785714285714277]","[null,0.1794521732276786,0.1686555262550608,0.30346527412718227,0.059552545971136045,0.04477921545294773,0.05783289903251094,0.18626236593348366]","","",""
